SpectraSuite Data File
++++++++++++++++++++++++++++++++++++
Date: Mon Feb 25 17:28:37 EST 2013
User: group
Dark Spectrum Present: No
Reference Spectrum Present: No
Number of Sampled Component Spectra: 1
Spectrometers: USB2E7196
Integration Time (usec): 52000 (USB2E7196)
Spectra Averaged: 20 (USB2E7196)
Boxcar Smoothing: 10 (USB2E7196)
Correct for Electrical Dark: No (USB2E7196)
Strobe/Lamp Enabled: No (USB2E7196)
Correct for Detector Non-linearity: No (USB2E7196)
Correct for Stray Light: No (USB2E7196)
Number of Pixels in Processed Spectrum: 2048
>>>>>Begin Processed Spectral Data<<<<<
339.09	0.00
339.48	197.30
339.86	199.90
340.24	200.85
340.63	202.45
341.01	206.35
341.39	205.70
341.78	207.15
342.16	208.00
342.54	209.25
342.93	197.84
343.31	207.89
343.69	208.50
344.07	208.98
344.46	209.47
344.84	209.89
345.22	210.08
345.60	210.28
345.99	210.42
346.37	210.55
346.75	210.62
347.13	210.65
347.52	210.76
347.90	210.86
348.28	210.87
348.66	210.91
349.05	210.80
349.43	210.80
349.81	210.81
350.19	210.87
350.57	210.84
350.96	210.94
351.34	211.00
351.72	211.06
352.10	211.15
352.48	211.17
352.87	211.18
353.25	211.25
353.63	211.29
354.01	211.39
354.39	211.46
354.77	211.44
355.15	211.58
355.54	211.61
355.92	211.60
356.30	211.65
356.68	211.79
357.06	211.88
357.44	211.90
357.82	211.93
358.20	211.97
358.58	212.03
358.97	212.01
359.35	212.07
359.73	212.16
360.11	212.18
360.49	212.18
360.87	212.18
361.25	212.24
361.63	212.40
362.01	212.43
362.39	212.38
362.77	212.48
363.15	212.54
363.53	212.55
363.91	212.60
364.29	212.59
364.67	212.43
365.05	212.38
365.43	212.48
365.81	212.51
366.19	212.55
366.57	212.59
366.95	212.63
367.33	212.52
367.71	212.50
368.09	212.49
368.47	212.55
368.85	212.56
369.23	212.55
369.61	212.40
369.99	212.37
370.37	212.39
370.75	212.42
371.13	212.28
371.51	212.26
371.89	212.27
372.27	212.25
372.65	212.24
373.03	212.25
373.41	212.17
373.78	212.11
374.16	212.02
374.54	211.91
374.92	211.89
375.30	211.85
375.68	211.68
376.06	211.59
376.44	211.48
376.82	211.42
377.19	211.39
377.57	211.33
377.95	211.29
378.33	211.23
378.71	211.10
379.09	211.11
379.47	211.03
379.84	210.84
380.22	210.75
380.60	210.68
380.98	210.64
381.36	210.55
381.73	210.55
382.11	210.57
382.49	210.58
382.87	210.41
383.25	210.39
383.62	210.65
384.00	210.60
384.38	210.60
384.76	210.62
385.13	210.53
385.51	210.53
385.89	210.43
386.27	210.40
386.64	210.39
387.02	210.32
387.40	210.33
387.78	210.38
388.15	210.40
388.53	210.33
388.91	210.25
389.29	210.23
389.66	210.14
390.04	210.07
390.42	210.03
390.79	210.02
391.17	209.94
391.55	209.67
391.92	209.72
392.30	209.66
392.68	209.59
393.05	209.56
393.43	209.62
393.81	209.60
394.18	209.51
394.56	209.49
394.94	209.47
395.31	209.39
395.69	209.37
396.06	209.35
396.44	209.42
396.82	209.40
397.19	209.44
397.57	209.34
397.95	209.29
398.32	209.26
398.70	209.30
399.07	209.35
399.45	209.36
399.82	209.28
400.20	209.29
400.58	209.24
400.95	209.28
401.33	209.22
401.70	209.35
402.08	209.44
402.45	209.35
402.83	209.45
403.20	209.45
403.58	209.50
403.95	209.52
404.33	209.48
404.71	209.49
405.08	209.58
405.46	209.63
405.83	209.69
406.21	209.63
406.58	209.68
406.96	209.60
407.33	209.61
407.70	209.65
408.08	209.74
408.45	209.76
408.83	209.65
409.20	209.60
409.58	209.52
409.95	209.52
410.33	209.66
410.70	209.56
411.08	209.52
411.45	209.46
411.82	209.45
412.20	209.46
412.57	209.55
412.95	209.44
413.32	209.47
413.69	209.37
414.07	209.41
414.44	209.39
414.82	209.49
415.19	209.52
415.56	209.51
415.94	209.38
416.31	209.41
416.68	209.48
417.06	209.56
417.43	209.63
417.81	209.56
418.18	209.50
418.55	209.48
418.93	209.47
419.30	209.47
419.67	209.45
420.04	209.37
420.42	209.29
420.79	209.49
421.16	209.48
421.54	209.62
421.91	209.64
422.28	209.59
422.66	209.58
423.03	209.70
423.40	209.75
423.77	209.81
424.15	209.83
424.52	209.86
424.89	209.83
425.26	209.75
425.64	209.76
426.01	209.73
426.38	209.72
426.75	209.88
427.13	209.88
427.50	209.88
427.87	209.90
428.24	209.91
428.61	209.71
428.99	209.74
429.36	209.66
429.73	209.67
430.10	209.79
430.47	209.84
430.85	209.71
431.22	209.70
431.59	209.85
431.96	209.87
432.33	209.85
432.70	209.89
433.08	209.94
433.45	210.01
433.82	210.05
434.19	210.09
434.56	210.10
434.93	210.13
435.30	210.15
435.68	210.23
436.05	210.24
436.42	210.25
436.79	210.31
437.16	210.36
437.53	210.29
437.90	210.16
438.27	210.14
438.64	210.03
439.01	210.00
439.38	209.78
439.75	209.72
440.13	209.70
440.50	209.63
440.87	209.58
441.24	209.52
441.61	209.53
441.98	209.51
442.35	209.36
442.72	209.37
443.09	209.43
443.46	209.37
443.83	209.36
444.20	209.39
444.57	209.33
444.94	209.30
445.31	209.33
445.68	209.62
446.05	209.54
446.42	209.61
446.79	209.68
447.16	209.73
447.53	209.81
447.90	209.81
448.27	209.79
448.64	209.88
449.01	209.95
449.37	210.04
449.74	210.07
450.11	210.36
450.48	210.32
450.85	210.27
451.22	210.31
451.59	210.39
451.96	210.36
452.33	210.39
452.70	210.39
453.07	210.37
453.43	210.16
453.80	210.19
454.17	210.22
454.54	210.20
454.91	210.18
455.28	210.12
455.65	210.15
456.02	210.48
456.38	210.42
456.75	210.45
457.12	210.29
457.49	210.30
457.86	210.12
458.23	210.25
458.59	210.31
458.96	210.36
459.33	210.31
459.70	210.35
460.07	210.34
460.43	210.31
460.80	210.37
461.17	210.39
461.54	210.44
461.91	210.40
462.27	210.40
462.64	210.46
463.01	210.45
463.38	210.56
463.74	210.31
464.11	210.32
464.48	210.30
464.85	210.32
465.21	210.38
465.58	210.38
465.95	210.27
466.32	210.25
466.68	210.15
467.05	210.13
467.42	210.07
467.78	210.10
468.15	210.14
468.52	210.19
468.88	210.10
469.25	210.08
469.62	210.16
469.98	210.14
470.35	210.14
470.72	210.19
471.08	210.04
471.45	210.03
471.82	210.05
472.18	210.09
472.55	210.15
472.92	210.04
473.28	209.97
473.65	209.94
474.02	209.91
474.38	209.94
474.75	209.97
475.11	209.97
475.48	209.98
475.85	209.95
476.21	209.86
476.58	209.94
476.94	209.95
477.31	209.86
477.67	209.86
478.04	209.85
478.41	209.86
478.77	210.12
479.14	210.10
479.50	210.05
479.87	210.07
480.23	210.11
480.60	210.17
480.96	210.25
481.33	210.41
481.69	210.49
482.06	210.56
482.42	210.67
482.79	210.80
483.15	210.83
483.52	210.92
483.88	211.07
484.25	211.18
484.61	211.27
484.98	211.34
485.34	211.56
485.71	211.63
486.07	211.70
486.44	211.60
486.80	211.67
487.17	211.77
487.53	211.80
487.90	211.84
488.26	211.96
488.62	212.03
488.99	212.00
489.35	212.05
489.72	212.02
490.08	211.95
490.44	211.93
490.81	211.95
491.17	211.95
491.54	211.89
491.90	211.82
492.26	211.77
492.63	211.76
492.99	211.64
493.36	211.59
493.72	211.57
494.08	211.45
494.45	211.48
494.81	211.44
495.17	211.34
495.54	211.36
495.90	211.25
496.26	211.23
496.63	211.17
496.99	211.09
497.35	211.11
497.72	211.10
498.08	210.96
498.44	210.91
498.80	210.85
499.17	210.81
499.53	210.75
499.89	210.70
500.26	210.77
500.62	210.73
500.98	210.74
501.34	210.67
501.71	210.72
502.07	210.67
502.43	210.61
502.79	210.61
503.16	210.51
503.52	210.49
503.88	210.37
504.24	210.33
504.60	210.32
504.97	210.29
505.33	210.20
505.69	210.29
506.05	210.28
506.41	210.25
506.78	210.22
507.14	210.23
507.50	210.16
507.86	210.16
508.22	210.13
508.59	210.09
508.95	210.08
509.31	210.18
509.67	210.15
510.03	210.15
510.39	210.17
510.75	210.18
511.12	210.25
511.48	210.31
511.84	210.34
512.20	210.32
512.56	210.33
512.92	210.37
513.28	210.37
513.64	210.35
514.00	210.39
514.37	210.39
514.73	210.35
515.09	210.43
515.45	210.32
515.81	210.30
516.17	210.33
516.53	210.29
516.89	210.08
517.25	210.11
517.61	210.17
517.97	210.18
518.33	210.14
518.69	210.14
519.05	210.13
519.41	210.18
519.77	210.26
520.13	210.25
520.49	210.20
520.85	210.13
521.21	210.24
521.57	210.26
521.93	210.23
522.29	210.29
522.65	210.29
523.01	210.35
523.37	210.42
523.73	210.43
524.09	210.49
524.45	210.57
524.81	210.58
525.17	210.49
525.53	210.51
525.89	210.58
526.25	210.50
526.61	210.49
526.97	210.54
527.33	210.45
527.68	210.62
528.04	210.68
528.40	210.75
528.76	210.73
529.12	210.67
529.48	210.77
529.84	210.75
530.20	210.85
530.56	210.85
530.91	210.85
531.27	210.79
531.63	210.81
531.99	210.83
532.35	210.80
532.71	210.92
533.07	210.89
533.42	211.10
533.78	211.14
534.14	211.21
534.50	211.19
534.86	211.37
535.21	211.25
535.57	211.38
535.93	211.47
536.29	211.70
536.65	211.90
537.00	212.11
537.36	212.33
537.72	212.51
538.08	212.81
538.44	213.15
538.79	213.58
539.15	214.00
539.51	214.36
539.87	214.88
540.22	215.30
540.58	215.78
540.94	216.04
541.29	216.51
541.65	216.90
542.01	217.40
542.37	217.63
542.72	217.93
543.08	218.12
543.44	218.30
543.79	218.35
544.15	218.54
544.51	218.57
544.87	218.61
545.22	218.57
545.58	218.44
545.94	218.23
546.29	217.96
546.65	217.68
547.01	217.38
547.36	217.00
547.72	216.61
548.07	216.31
548.43	215.94
548.79	215.56
549.14	215.16
549.50	214.72
549.86	214.41
550.21	214.26
550.57	214.07
550.92	213.76
551.28	213.51
551.64	213.19
551.99	213.01
552.35	212.76
552.70	212.57
553.06	212.51
553.41	212.32
553.77	212.29
554.13	212.16
554.48	212.10
554.84	212.01
555.19	211.95
555.55	211.99
555.90	211.94
556.26	211.88
556.61	211.86
556.97	211.74
557.32	211.59
557.68	211.44
558.03	211.38
558.39	211.35
558.74	211.28
559.10	211.32
559.45	211.23
559.81	211.22
560.16	211.21
560.52	211.13
560.87	211.20
561.23	211.13
561.58	211.23
561.94	211.20
562.29	211.20
562.64	211.19
563.00	210.96
563.35	210.96
563.71	210.94
564.06	210.91
564.42	210.92
564.77	211.01
565.12	211.06
565.48	211.18
565.83	211.25
566.19	211.21
566.54	211.10
566.89	211.20
567.25	211.29
567.60	211.35
567.96	211.48
568.31	211.55
568.66	211.56
569.02	211.45
569.37	211.39
569.72	211.40
570.08	211.45
570.43	211.51
570.78	211.42
571.14	211.46
571.49	211.48
571.84	211.53
572.20	211.62
572.55	211.63
572.90	211.45
573.26	211.50
573.61	211.58
573.96	211.63
574.31	211.68
574.67	211.69
575.02	211.73
575.37	211.64
575.72	211.63
576.08	211.70
576.43	211.84
576.78	211.99
577.13	212.10
577.49	212.13
577.84	212.20
578.19	212.37
578.54	212.41
578.90	212.48
579.25	212.61
579.60	212.65
579.95	212.63
580.30	212.81
580.66	212.88
581.01	212.99
581.36	213.08
581.71	213.06
582.06	213.19
582.42	213.19
582.77	213.32
583.12	213.43
583.47	213.48
583.82	213.53
584.17	213.63
584.53	213.71
584.88	213.69
585.23	213.76
585.58	213.75
585.93	213.76
586.28	213.80
586.63	213.75
586.98	213.68
587.34	213.82
587.69	213.85
588.04	213.83
588.39	213.76
588.74	213.75
589.09	213.81
589.44	213.68
589.79	213.61
590.14	213.46
590.49	213.27
590.84	213.24
591.19	213.18
591.54	213.10
591.89	212.93
592.25	213.06
592.60	212.83
592.95	212.73
593.30	212.71
593.65	212.60
594.00	212.50
594.35	212.91
594.70	212.78
595.05	212.65
595.40	212.56
595.75	212.54
596.10	212.49
596.45	212.36
596.80	212.34
597.15	212.34
597.50	212.37
597.85	212.49
598.19	212.41
598.54	212.28
598.89	212.15
599.24	212.23
599.59	212.09
599.94	212.18
600.29	212.25
600.64	212.15
600.99	212.22
601.34	212.25
601.69	211.82
602.04	211.81
602.39	211.78
602.74	211.79
603.08	211.77
603.43	211.82
603.78	211.79
604.13	211.81
604.48	211.86
604.83	211.95
605.18	212.04
605.53	212.22
605.87	212.49
606.22	212.82
606.57	213.05
606.92	213.41
607.27	213.77
607.62	214.15
607.96	214.61
608.31	214.85
608.66	215.17
609.01	215.46
609.36	215.76
609.70	216.10
610.05	216.36
610.40	216.64
610.75	216.96
611.10	217.19
611.44	217.36
611.79	217.50
612.14	217.50
612.49	217.50
612.83	217.41
613.18	217.29
613.53	217.17
613.88	216.91
614.22	216.59
614.57	216.27
614.92	215.94
615.27	215.58
615.61	215.34
615.96	215.10
616.31	214.83
616.65	214.62
617.00	214.35
617.35	214.12
617.70	213.88
618.04	213.58
618.39	213.39
618.74	213.24
619.08	213.01
619.43	213.00
619.78	212.80
620.12	212.81
620.47	212.76
620.82	212.63
621.16	212.60
621.51	212.66
621.85	212.61
622.20	212.56
622.55	212.54
622.89	212.51
623.24	212.50
623.59	212.46
623.93	212.43
624.28	212.41
624.62	212.60
624.97	212.74
625.32	212.70
625.66	212.70
626.01	212.67
626.35	212.72
626.70	212.67
627.04	212.76
627.39	212.68
627.73	212.75
628.08	212.76
628.43	212.78
628.77	212.65
629.12	212.65
629.46	212.55
629.81	212.55
630.15	212.46
630.50	212.38
630.84	212.38
631.19	212.29
631.53	212.20
631.88	211.95
632.22	211.68
632.57	211.71
632.91	211.65
633.26	211.62
633.60	211.50
633.95	211.38
634.29	211.30
634.64	211.20
634.98	211.06
635.32	211.07
635.67	211.02
636.01	210.96
636.36	210.95
636.70	210.99
637.05	210.93
637.39	210.96
637.73	210.97
638.08	211.03
638.42	210.96
638.77	211.00
639.11	211.00
639.45	211.02
639.80	210.91
640.14	210.93
640.49	210.83
640.83	210.91
641.17	211.00
641.52	211.03
641.86	211.17
642.20	211.24
642.55	211.12
642.89	211.11
643.23	211.10
643.58	211.11
643.92	211.05
644.26	211.07
644.61	211.11
644.95	211.06
645.29	210.96
645.64	211.07
645.98	211.00
646.32	211.01
646.66	211.00
647.01	211.01
647.35	211.13
647.69	211.24
648.04	211.26
648.38	211.27
648.72	211.25
649.06	211.16
649.41	211.06
649.75	211.07
650.09	211.05
650.43	211.08
650.78	211.05
651.12	211.05
651.46	210.97
651.80	210.89
652.14	210.90
652.49	210.94
652.83	210.95
653.17	211.03
653.51	210.99
653.85	211.04
654.20	211.08
654.54	210.98
654.88	210.85
655.22	210.93
655.56	210.85
655.90	210.88
656.25	210.85
656.59	210.85
656.93	210.82
657.27	210.92
657.61	210.93
657.95	210.98
658.29	211.02
658.64	211.18
658.98	211.17
659.32	211.13
659.66	211.10
660.00	211.10
660.34	211.03
660.68	211.00
661.02	210.97
661.36	210.92
661.70	210.83
662.05	210.88
662.39	210.81
662.73	210.89
663.07	210.98
663.41	211.02
663.75	211.01
664.09	211.14
664.43	211.05
664.77	211.05
665.11	210.95
665.45	210.90
665.79	210.87
666.13	210.89
666.47	211.00
666.81	211.01
667.15	210.93
667.49	210.95
667.83	211.06
668.17	211.05
668.51	211.00
668.85	211.10
669.19	211.18
669.53	211.12
669.87	211.02
670.21	210.90
670.55	210.84
670.89	210.94
671.23	210.81
671.57	210.81
671.91	210.83
672.25	210.95
672.58	211.00
672.92	210.87
673.26	210.87
673.60	210.83
673.94	210.81
674.28	210.83
674.62	210.83
674.96	210.72
675.30	210.74
675.64	210.77
675.97	210.77
676.31	210.71
676.65	210.76
676.99	210.86
677.33	210.83
677.67	210.86
678.01	210.70
678.34	210.74
678.68	210.70
679.02	210.59
679.36	210.56
679.70	210.51
680.04	210.52
680.37	210.58
680.71	210.50
681.05	210.53
681.39	210.59
681.73	210.61
682.06	210.65
682.40	210.64
682.74	210.69
683.08	210.67
683.42	210.68
683.75	210.65
684.09	210.58
684.43	210.59
684.77	210.56
685.10	210.63
685.44	210.64
685.78	210.70
686.12	210.75
686.45	210.77
686.79	210.78
687.13	210.84
687.46	210.74
687.80	210.85
688.14	210.84
688.48	210.76
688.81	210.80
689.15	210.86
689.49	210.88
689.82	210.90
690.16	210.87
690.50	210.85
690.83	210.80
691.17	210.74
691.51	210.77
691.84	210.79
692.18	210.80
692.52	210.79
692.85	210.74
693.19	210.84
693.52	210.79
693.86	210.75
694.20	210.83
694.53	210.86
694.87	210.83
695.21	210.79
695.54	210.86
695.88	210.78
696.21	210.71
696.55	210.71
696.88	210.69
697.22	210.63
697.56	210.70
697.89	210.74
698.23	210.82
698.56	210.81
698.90	210.93
699.23	210.94
699.57	210.99
699.90	211.02
700.24	210.92
700.58	210.97
700.91	211.07
701.25	211.13
701.58	211.19
701.92	211.16
702.25	211.23
702.59	211.24
702.92	211.30
703.26	211.34
703.59	211.36
703.93	211.55
704.26	211.72
704.60	211.69
704.93	211.78
705.26	211.76
705.60	211.84
705.93	211.75
706.27	211.78
706.60	211.84
706.94	211.95
707.27	212.00
707.61	211.97
707.94	212.02
708.27	211.91
708.61	211.91
708.94	211.98
709.28	212.01
709.61	211.91
709.94	211.96
710.28	211.96
710.61	211.96
710.95	211.77
711.28	211.76
711.61	211.84
711.95	211.75
712.28	211.71
712.61	211.63
712.95	211.64
713.28	211.67
713.61	211.56
713.95	211.47
714.28	211.46
714.61	211.45
714.95	211.35
715.28	211.33
715.61	211.32
715.95	211.28
716.28	211.18
716.61	211.30
716.95	211.23
717.28	211.17
717.61	211.13
717.94	211.11
718.28	211.01
718.61	210.94
718.94	210.98
719.27	210.97
719.61	210.95
719.94	210.90
720.27	210.82
720.60	210.84
720.94	210.86
721.27	210.88
721.60	210.85
721.93	210.87
722.27	210.85
722.60	210.82
722.93	210.78
723.26	210.81
723.59	210.79
723.93	210.80
724.26	210.90
724.59	210.92
724.92	210.97
725.25	211.01
725.59	210.92
725.92	210.90
726.25	210.95
726.58	210.98
726.91	210.95
727.24	211.01
727.57	210.99
727.91	210.97
728.24	210.96
728.57	210.97
728.90	210.95
729.23	210.92
729.56	210.97
729.89	211.00
730.22	210.96
730.55	210.85
730.89	210.80
731.22	210.69
731.55	210.63
731.88	210.56
732.21	210.49
732.54	210.55
732.87	210.53
733.20	210.53
733.53	210.50
733.86	210.55
734.19	210.55
734.52	210.65
734.85	210.74
735.18	210.78
735.51	210.86
735.84	210.87
736.17	210.94
736.50	210.87
736.83	211.05
737.16	211.06
737.49	211.06
737.82	211.06
738.15	211.13
738.48	211.17
738.81	211.21
739.14	211.21
739.47	211.19
739.80	211.25
740.13	211.25
740.46	211.22
740.79	211.20
741.12	211.14
741.45	211.07
741.78	210.95
742.11	210.90
742.44	210.86
742.77	210.95
743.10	210.86
743.43	210.81
743.75	210.65
744.08	210.92
744.41	210.95
744.74	210.97
745.07	210.97
745.40	211.02
745.73	211.06
746.06	211.06
746.39	211.10
746.71	210.98
747.04	211.00
747.37	211.06
747.70	211.15
748.03	211.12
748.36	211.21
748.68	211.25
749.01	211.24
749.34	211.25
749.67	211.18
750.00	211.30
750.33	211.51
750.65	211.54
750.98	211.29
751.31	211.30
751.64	211.28
751.97	211.40
752.29	211.37
752.62	211.25
752.95	211.34
753.28	211.35
753.60	211.38
753.93	211.40
754.26	211.37
754.59	211.25
754.91	211.28
755.24	211.20
755.57	211.19
755.90	211.21
756.22	211.15
756.55	211.18
756.88	211.15
757.20	210.95
757.53	210.87
757.86	210.85
758.19	210.92
758.51	210.95
758.84	210.83
759.17	210.80
759.49	210.87
759.82	210.92
760.15	210.89
760.47	210.95
760.80	210.88
761.13	210.92
761.45	210.92
761.78	210.91
762.11	210.86
762.43	210.82
762.76	210.80
763.08	210.85
763.41	210.87
763.74	210.82
764.06	210.86
764.39	210.87
764.71	210.90
765.04	210.87
765.37	210.84
765.69	210.81
766.02	210.84
766.34	210.79
766.67	210.71
767.00	210.75
767.32	210.76
767.65	210.80
767.97	210.79
768.30	210.90
768.62	210.92
768.95	211.03
769.27	211.11
769.60	211.14
769.92	211.12
770.25	211.14
770.57	211.16
770.90	211.16
771.22	211.17
771.55	211.13
771.87	211.11
772.20	211.15
772.52	211.30
772.85	211.53
773.17	211.59
773.50	211.61
773.82	211.61
774.15	211.59
774.47	211.55
774.80	211.48
775.12	211.40
775.45	211.42
775.77	211.39
776.09	211.36
776.42	211.33
776.74	211.40
777.07	211.27
777.39	211.27
777.72	211.26
778.04	211.30
778.36	211.32
778.69	211.31
779.01	211.33
779.33	211.17
779.66	210.90
779.98	210.84
780.31	210.79
780.63	210.82
780.95	210.86
781.28	210.85
781.60	210.84
781.92	210.85
782.25	210.83
782.57	210.77
782.89	210.78
783.22	210.78
783.54	210.66
783.86	210.71
784.19	210.65
784.51	210.72
784.83	210.68
785.16	210.73
785.48	210.72
785.80	210.71
786.12	210.75
786.45	210.80
786.77	210.87
787.09	210.84
787.42	210.78
787.74	210.71
788.06	210.70
788.38	210.74
788.71	210.76
789.03	210.80
789.35	210.86
789.67	210.85
789.99	210.86
790.32	210.93
790.64	210.94
790.96	211.10
791.28	211.00
791.61	210.98
791.93	210.91
792.25	210.95
792.57	211.04
792.89	210.98
793.21	210.90
793.54	210.89
793.86	210.88
794.18	210.92
794.50	210.92
794.82	210.94
795.14	210.92
795.47	210.94
795.79	210.83
796.11	210.80
796.43	210.77
796.75	210.79
797.07	210.76
797.39	210.73
797.71	210.62
798.04	210.71
798.36	210.68
798.68	210.69
799.00	210.65
799.32	210.57
799.64	210.60
799.96	210.72
800.28	210.74
800.60	210.78
800.92	210.81
801.24	210.80
801.56	210.84
801.89	210.89
802.21	210.90
802.53	210.92
802.85	210.95
803.17	210.98
803.49	210.91
803.81	210.92
804.13	210.92
804.45	210.86
804.77	210.78
805.09	210.84
805.41	210.90
805.73	210.88
806.05	210.86
806.37	210.86
806.69	210.85
807.01	210.80
807.33	210.79
807.65	210.72
807.97	210.84
808.28	210.84
808.60	210.82
808.92	210.80
809.24	210.93
809.56	210.91
809.88	210.86
810.20	210.86
810.52	210.89
810.84	210.87
811.16	210.89
811.48	210.96
811.80	210.99
812.12	210.92
812.43	210.99
812.75	211.00
813.07	210.99
813.39	210.92
813.71	210.92
814.03	210.93
814.35	210.93
814.67	210.86
814.98	210.74
815.30	210.74
815.62	210.66
815.94	210.53
816.26	210.53
816.58	210.57
816.89	210.57
817.21	210.51
817.53	210.57
817.85	210.52
818.17	210.52
818.48	210.47
818.80	210.48
819.12	210.43
819.44	210.39
819.76	210.40
820.07	210.42
820.39	210.39
820.71	210.38
821.03	210.42
821.34	210.38
821.66	210.45
821.98	210.47
822.30	210.54
822.61	210.66
822.93	210.60
823.25	210.64
823.57	210.70
823.88	210.76
824.20	210.66
824.52	210.75
824.83	210.73
825.15	210.75
825.47	210.75
825.79	210.77
826.10	210.75
826.42	210.70
826.74	210.66
827.05	210.77
827.37	210.79
827.69	210.73
828.00	210.70
828.32	210.70
828.64	210.71
828.95	210.74
829.27	210.72
829.58	210.75
829.90	210.75
830.22	210.73
830.53	210.67
830.85	210.75
831.17	210.74
831.48	210.79
831.80	210.78
832.11	210.79
832.43	210.78
832.75	210.80
833.06	210.88
833.38	210.91
833.69	210.85
834.01	210.86
834.32	210.96
834.64	210.97
834.96	210.97
835.27	210.86
835.59	210.86
835.90	210.77
836.22	210.82
836.53	210.69
836.85	210.70
837.16	210.87
837.48	210.86
837.79	210.94
838.11	210.87
838.42	210.95
838.74	211.01
839.05	210.96
839.37	210.99
839.68	210.93
840.00	210.94
840.31	210.95
840.63	210.92
840.94	210.82
841.26	210.83
841.57	210.82
841.88	210.93
842.20	210.80
842.51	210.82
842.83	210.82
843.14	211.00
843.46	210.99
843.77	210.90
844.08	210.91
844.40	210.81
844.71	210.87
845.03	210.71
845.34	210.62
845.65	210.58
845.97	210.55
846.28	210.60
846.60	210.63
846.91	210.58
847.22	210.60
847.54	210.66
847.85	210.65
848.16	210.60
848.48	210.57
848.79	210.74
849.10	210.70
849.42	210.66
849.73	210.56
850.04	210.48
850.36	210.37
850.67	210.39
850.98	210.43
851.30	210.41
851.61	210.49
851.92	210.51
852.23	210.59
852.55	210.61
852.86	210.62
853.17	210.55
853.49	210.57
853.80	210.59
854.11	210.57
854.42	210.63
854.74	210.61
855.05	210.66
855.36	210.57
855.67	210.59
855.99	210.60
856.30	210.79
856.61	210.90
856.92	210.93
857.23	210.85
857.55	210.84
857.86	210.82
858.17	210.82
858.48	210.87
858.79	210.84
859.11	210.87
859.42	210.85
859.73	210.88
860.04	210.90
860.35	210.83
860.66	210.82
860.98	210.86
861.29	210.96
861.60	210.91
861.91	210.90
862.22	210.90
862.53	210.83
862.84	210.61
863.16	210.60
863.47	210.58
863.78	210.60
864.09	210.60
864.40	210.59
864.71	210.60
865.02	210.56
865.33	210.54
865.64	210.44
865.95	210.41
866.27	210.52
866.58	210.45
866.89	210.47
867.20	210.43
867.51	210.33
867.82	210.40
868.13	210.53
868.44	210.53
868.75	210.53
869.06	210.65
869.37	210.63
869.68	210.58
869.99	210.61
870.30	210.64
870.61	210.65
870.92	210.63
871.23	210.58
871.54	210.66
871.85	210.71
872.16	210.79
872.47	210.81
872.78	210.68
873.09	210.79
873.40	210.80
873.71	210.78
874.02	210.79
874.33	210.67
874.64	210.54
874.95	210.64
875.26	210.68
875.56	210.55
875.87	210.57
876.18	210.60
876.49	210.77
876.80	210.75
877.11	210.70
877.42	210.75
877.73	210.80
878.04	210.74
878.35	210.82
878.66	210.87
878.96	210.86
879.27	210.87
879.58	210.91
879.89	210.90
880.20	211.03
880.51	211.06
880.82	211.06
881.12	211.10
881.43	211.00
881.74	210.94
882.05	211.04
882.36	211.10
882.67	211.05
882.97	210.88
883.28	210.93
883.59	211.01
883.90	211.04
884.21	211.05
884.51	211.02
884.82	210.92
885.13	210.95
885.44	210.93
885.74	210.93
886.05	210.88
886.36	210.91
886.67	210.74
886.98	210.84
887.28	210.84
887.59	210.87
887.90	210.93
888.20	210.94
888.51	210.90
888.82	210.85
889.13	210.95
889.43	211.13
889.74	211.09
890.05	211.03
890.35	211.02
890.66	210.99
890.97	210.89
891.28	210.90
891.58	210.79
891.89	210.81
892.20	210.80
892.50	210.79
892.81	210.76
893.12	210.86
893.42	210.79
893.73	210.84
894.04	210.78
894.34	210.75
894.65	210.75
894.95	210.74
895.26	210.78
895.57	210.76
895.87	210.58
896.18	210.62
896.48	210.59
896.79	210.57
897.10	210.60
897.40	210.75
897.71	210.74
898.01	210.76
898.32	210.77
898.63	210.72
898.93	210.67
899.24	210.70
899.54	210.67
899.85	210.67
900.15	210.63
900.46	210.62
900.76	210.67
901.07	210.64
901.38	210.67
901.68	210.63
901.99	210.62
902.29	210.62
902.60	210.56
902.90	210.55
903.21	210.56
903.51	210.52
903.82	210.56
904.12	210.60
904.43	210.62
904.73	210.62
905.03	210.69
905.34	210.86
905.64	210.85
905.95	210.83
906.25	210.76
906.56	210.77
906.86	210.75
907.17	210.69
907.47	210.74
907.77	210.67
908.08	210.62
908.38	210.58
908.69	210.62
908.99	210.67
909.30	210.66
909.60	210.65
909.90	210.73
910.21	210.63
910.51	210.59
910.81	210.60
911.12	210.61
911.42	210.53
911.73	210.34
912.03	210.31
912.33	210.40
912.64	210.41
912.94	210.40
913.24	210.38
913.55	210.33
913.85	210.31
914.15	210.37
914.46	210.52
914.76	210.51
915.06	210.48
915.37	210.50
915.67	210.46
915.97	210.43
916.27	210.29
916.58	210.31
916.88	210.28
917.18	210.25
917.49	210.38
917.79	210.46
918.09	210.52
918.39	210.63
918.70	210.58
919.00	210.58
919.30	210.62
919.60	210.62
919.91	210.63
920.21	210.60
920.51	210.59
920.81	210.46
921.12	210.48
921.42	210.49
921.72	210.53
922.02	210.60
922.32	210.62
922.63	210.69
922.93	210.73
923.23	210.71
923.53	210.75
923.83	210.55
924.13	210.54
924.44	210.54
924.74	210.49
925.04	210.54
925.34	210.58
925.64	210.52
925.94	210.57
926.24	210.67
926.55	210.72
926.85	210.75
927.15	210.76
927.45	210.80
927.75	210.79
928.05	210.74
928.35	210.71
928.65	210.78
928.95	210.83
929.26	210.78
929.56	210.90
929.86	210.89
930.16	210.95
930.46	211.00
930.76	211.00
931.06	210.95
931.36	210.92
931.66	210.97
931.96	210.99
932.26	210.96
932.56	210.89
932.86	210.90
933.16	210.85
933.46	210.83
933.76	210.80
934.06	210.85
934.36	210.94
934.66	211.00
934.96	210.94
935.26	210.88
935.56	210.90
935.86	210.76
936.16	210.67
936.46	210.70
936.76	210.59
937.06	210.56
937.36	210.59
937.66	210.54
937.96	210.49
938.26	210.52
938.56	210.44
938.86	210.46
939.16	210.52
939.46	210.61
939.76	210.66
940.06	210.64
940.35	210.61
940.65	210.45
940.95	210.42
941.25	210.43
941.55	210.46
941.85	210.43
942.15	210.60
942.45	210.67
942.75	210.63
943.04	210.66
943.34	210.75
943.64	210.70
943.94	210.78
944.24	210.76
944.54	210.73
944.84	210.78
945.13	210.74
945.43	210.73
945.73	210.77
946.03	210.81
946.33	210.81
946.62	210.83
946.92	210.91
947.22	210.94
947.52	211.00
947.82	211.03
948.11	211.06
948.41	210.99
948.71	211.00
949.01	211.09
949.31	211.10
949.60	211.07
949.90	211.09
950.20	211.04
950.50	211.04
950.79	211.05
951.09	211.12
951.39	211.16
951.69	211.07
951.98	211.04
952.28	211.02
952.58	211.06
952.87	210.96
953.17	210.95
953.47	210.96
953.76	210.91
954.06	210.87
954.36	210.81
954.66	210.80
954.95	210.81
955.25	210.72
955.55	210.72
955.84	210.73
956.14	210.78
956.44	210.81
956.73	210.82
957.03	210.83
957.32	210.79
957.62	210.80
957.92	210.81
958.21	210.75
958.51	210.94
958.81	210.87
959.10	210.92
959.40	210.94
959.69	210.97
959.99	211.03
960.29	211.04
960.58	211.05
960.88	211.13
961.17	211.17
961.47	211.23
961.76	211.23
962.06	211.17
962.36	211.17
962.65	211.10
962.95	211.11
963.24	211.11
963.54	211.05
963.83	211.01
964.13	211.03
964.42	210.96
964.72	210.87
965.01	210.92
965.31	210.92
965.60	210.89
965.90	210.92
966.19	210.81
966.49	210.80
966.78	210.79
967.08	210.70
967.37	210.65
967.67	210.61
967.96	210.59
968.26	210.55
968.55	210.53
968.85	210.56
969.14	210.60
969.43	210.57
969.73	210.67
970.02	210.74
970.32	210.74
970.61	210.74
970.91	210.61
971.20	210.57
971.49	210.53
971.79	210.55
972.08	210.51
972.38	210.52
972.67	210.46
972.96	210.54
973.26	210.57
973.55	210.64
973.85	210.65
974.14	210.68
974.43	210.73
974.73	210.73
975.02	210.74
975.31	210.73
975.61	210.74
975.90	210.62
976.19	210.59
976.49	210.63
976.78	210.67
977.07	210.62
977.37	210.61
977.66	210.65
977.95	210.60
978.24	210.51
978.54	210.58
978.83	210.62
979.12	210.56
979.42	210.53
979.71	210.48
980.00	210.51
980.29	210.58
980.59	210.53
980.88	210.59
981.17	210.57
981.46	210.55
981.76	210.53
982.05	210.66
982.34	210.66
982.63	210.63
982.93	210.61
983.22	210.80
983.51	210.89
983.80	210.90
984.09	210.97
984.39	211.02
984.68	210.97
984.97	210.98
985.26	211.02
985.55	211.02
985.85	210.99
986.14	211.01
986.43	210.99
986.72	211.02
987.01	210.97
987.30	211.01
987.59	211.01
987.89	211.00
988.18	210.93
988.47	210.91
988.76	210.88
989.05	210.89
989.34	210.70
989.63	210.74
989.92	210.70
990.22	210.60
990.51	210.58
990.80	210.55
991.09	210.58
991.38	210.60
991.67	210.58
991.96	210.61
992.25	210.62
992.54	210.60
992.83	210.58
993.12	210.55
993.41	210.50
993.70	210.53
993.99	210.58
994.28	210.64
994.58	210.70
994.87	210.67
995.16	210.62
995.45	210.66
995.74	210.60
996.03	210.61
996.32	210.67
996.61	210.71
996.90	210.73
997.19	210.63
997.48	210.63
997.77	210.65
998.06	210.58
998.34	210.49
998.63	210.42
998.92	210.46
999.21	210.44
999.50	210.48
999.79	210.40
1000.08	210.38
1000.37	210.37
1000.66	210.32
1000.95	210.40
1001.24	210.44
1001.53	210.47
1001.82	210.46
1002.11	210.48
1002.40	210.50
1002.68	210.60
1002.97	210.75
1003.26	210.87
1003.55	210.79
1003.84	210.83
1004.13	210.88
1004.42	210.90
1004.71	210.96
1004.99	210.93
1005.28	210.98
1005.57	211.01
1005.86	211.10
1006.15	211.10
1006.44	211.03
1006.72	211.04
1007.01	210.95
1007.30	210.99
1007.59	210.96
1007.88	210.98
1008.17	210.96
1008.45	210.97
1008.74	210.86
1009.03	210.74
1009.32	210.66
1009.60	210.69
1009.89	210.67
1010.18	210.68
1010.47	210.66
1010.76	210.71
1011.04	210.73
1011.33	210.96
1011.62	210.98
1011.91	210.96
1012.19	210.95
1012.48	210.99
1012.77	211.01
1013.05	211.14
1013.34	211.09
1013.63	211.12
1013.92	211.11
1014.20	211.16
1014.49	211.13
1014.78	211.16
1015.06	211.07
1015.35	211.10
1015.64	211.20
1015.92	211.22
1016.21	211.21
1016.50	211.25
1016.78	211.20
1017.07	211.29
1017.36	211.11
1017.64	211.07
1017.93	211.04
1018.22	211.04
1018.50	211.05
1018.79	211.08
1019.08	211.01
1019.36	211.06
1019.65	211.08
1019.93	211.10
1020.22	211.12
1020.51	211.26
1020.79	211.30
1021.08	210.60
1021.36	210.65
1021.65	211.55
1021.94	210.85
1022.22	210.85
1022.51	211.55
1022.79	211.25
1023.08	211.70
1023.36	214.20
1023.65	211.85
>>>>>End Processed Spectral Data<<<<<
