SpectraSuite Data File
++++++++++++++++++++++++++++++++++++
Date: Mon Feb 25 17:31:53 EST 2013
User: group
Dark Spectrum Present: No
Reference Spectrum Present: No
Number of Sampled Component Spectra: 1
Spectrometers: USB2E7196
Integration Time (usec): 52000 (USB2E7196)
Spectra Averaged: 20 (USB2E7196)
Boxcar Smoothing: 10 (USB2E7196)
Correct for Electrical Dark: No (USB2E7196)
Strobe/Lamp Enabled: No (USB2E7196)
Correct for Detector Non-linearity: No (USB2E7196)
Correct for Stray Light: No (USB2E7196)
Number of Pixels in Processed Spectrum: 2048
>>>>>Begin Processed Spectral Data<<<<<
339.09	0.00
339.48	197.55
339.86	199.25
340.24	201.70
340.63	203.70
341.01	207.95
341.39	206.05
341.78	206.30
342.16	209.00
342.54	208.65
342.93	197.84
343.31	207.81
343.69	208.44
344.07	208.97
344.46	209.38
344.84	209.71
345.22	209.82
345.60	210.09
345.99	210.30
346.37	210.43
346.75	210.53
347.13	210.62
347.52	210.63
347.90	210.73
348.28	210.75
348.66	210.90
349.05	210.91
349.43	210.99
349.81	211.03
350.19	211.10
350.57	211.15
350.96	211.24
351.34	211.36
351.72	211.44
352.10	211.53
352.48	211.64
352.87	211.66
353.25	211.79
353.63	211.80
354.01	211.90
354.39	212.02
354.77	212.04
355.15	212.20
355.54	212.27
355.92	212.27
356.30	212.30
356.68	212.48
357.06	212.56
357.44	212.56
357.82	212.68
358.20	212.78
358.58	212.92
358.97	213.04
359.35	213.17
359.73	213.27
360.11	213.37
360.49	213.41
360.87	213.55
361.25	213.59
361.63	213.72
362.01	213.80
362.39	213.81
362.77	213.95
363.15	213.96
363.53	214.02
363.91	214.17
364.29	214.26
364.67	214.06
365.05	214.08
365.43	214.18
365.81	214.22
366.19	214.25
366.57	214.32
366.95	214.34
367.33	214.27
367.71	214.26
368.09	214.23
368.47	214.29
368.85	214.26
369.23	214.35
369.61	214.39
369.99	214.35
370.37	214.40
370.75	214.42
371.13	214.37
371.51	214.35
371.89	214.32
372.27	214.34
372.65	214.35
373.03	214.35
373.41	214.33
373.78	214.16
374.16	214.09
374.54	213.99
374.92	213.90
375.30	213.87
375.68	213.77
376.06	213.76
376.44	213.64
376.82	213.55
377.19	213.44
377.57	213.26
377.95	213.21
378.33	213.05
378.71	212.97
379.09	212.95
379.47	212.94
379.84	212.86
380.22	212.79
380.60	212.74
380.98	212.71
381.36	212.63
381.73	212.60
382.11	212.63
382.49	212.62
382.87	212.56
383.25	212.51
383.62	212.71
384.00	212.62
384.38	212.56
384.76	212.61
385.13	212.69
385.51	212.69
385.89	212.65
386.27	212.63
386.64	212.58
387.02	212.51
387.40	212.41
387.78	212.40
388.15	212.38
388.53	212.33
388.91	212.27
389.29	212.16
389.66	212.23
390.04	212.07
390.42	212.02
390.79	212.02
391.17	211.99
391.55	211.79
391.92	211.79
392.30	211.76
392.68	211.68
393.05	211.60
393.43	211.56
393.81	211.56
394.18	211.53
394.56	211.50
394.94	211.50
395.31	211.49
395.69	211.50
396.06	211.55
396.44	211.56
396.82	211.57
397.19	211.74
397.57	211.73
397.95	211.79
398.32	211.75
398.70	211.73
399.07	211.88
399.45	211.84
399.82	211.88
400.20	211.89
400.58	211.96
400.95	211.90
401.33	211.96
401.70	212.05
402.08	212.15
402.45	212.27
402.83	212.39
403.20	212.48
403.58	212.56
403.95	212.59
404.33	212.71
404.71	212.79
405.08	213.03
405.46	213.09
405.83	213.21
406.21	213.38
406.58	213.51
406.96	213.57
407.33	213.80
407.70	214.03
408.08	214.49
408.45	214.67
408.83	214.94
409.20	215.23
409.58	215.43
409.95	215.72
410.33	215.99
410.70	216.17
411.08	216.62
411.45	216.98
411.82	217.39
412.20	217.81
412.57	218.33
412.95	218.64
413.32	219.19
413.69	219.79
414.07	220.40
414.44	221.13
414.82	221.73
415.19	222.47
415.56	223.14
415.94	223.74
416.31	224.57
416.68	225.42
417.06	226.48
417.43	227.46
417.81	228.51
418.18	229.62
418.55	230.95
418.93	232.07
419.30	233.28
419.67	234.66
420.04	236.07
420.42	237.52
420.79	239.22
421.16	240.94
421.54	242.72
421.91	244.52
422.28	246.40
422.66	248.46
423.03	250.45
423.40	252.53
423.77	254.76
424.15	257.01
424.52	259.37
424.89	261.80
425.26	264.31
425.64	266.62
426.01	269.11
426.38	271.74
426.75	274.50
427.13	277.35
427.50	280.27
427.87	283.33
428.24	286.39
428.61	289.32
428.99	292.49
429.36	295.94
429.73	299.36
430.10	302.76
430.47	306.16
430.85	309.76
431.22	313.67
431.59	317.74
431.96	321.61
432.33	325.87
432.70	330.00
433.08	334.75
433.45	339.40
433.82	344.05
434.19	348.95
434.56	354.03
434.93	358.84
435.30	363.50
435.68	368.80
436.05	373.85
436.42	379.00
436.79	383.75
437.16	388.75
437.53	393.94
437.90	399.10
438.27	404.34
438.64	409.70
439.01	414.46
439.38	418.91
439.75	423.22
440.13	428.03
440.50	432.49
440.87	436.23
441.24	440.05
441.61	444.22
441.98	447.44
442.35	450.94
442.72	454.42
443.09	457.95
443.46	459.92
443.83	461.36
444.20	462.43
444.57	464.10
444.94	464.87
445.31	465.66
445.68	466.47
446.05	466.68
446.42	465.95
446.79	465.23
447.16	464.24
447.53	463.51
447.90	461.42
448.27	459.30
448.64	456.39
449.01	454.22
449.37	450.52
449.74	446.90
450.11	442.76
450.48	438.37
450.85	433.74
451.22	429.83
451.59	426.08
451.96	422.52
452.33	417.79
452.70	413.51
453.07	408.44
453.43	403.16
453.80	398.15
454.17	393.44
454.54	388.94
454.91	384.38
455.28	379.70
455.65	375.30
456.02	371.13
456.38	367.48
456.75	362.82
457.12	359.12
457.49	355.44
457.86	351.78
458.23	348.55
458.59	345.15
458.96	341.66
459.33	338.52
459.70	335.44
460.07	332.90
460.43	329.96
460.80	327.34
461.17	325.03
461.54	322.61
461.91	320.40
462.27	318.05
462.64	315.90
463.01	313.75
463.38	311.72
463.74	309.46
464.11	307.52
464.48	305.96
464.85	304.18
465.21	302.81
465.58	301.34
465.95	299.66
466.32	298.16
466.68	296.67
467.05	295.31
467.42	293.91
467.78	292.57
468.15	291.32
468.52	290.34
468.88	289.00
469.25	287.83
469.62	286.84
469.98	285.85
470.35	284.93
470.72	284.07
471.08	283.09
471.45	282.33
471.82	281.59
472.18	280.71
472.55	280.15
472.92	279.53
473.28	278.89
473.65	278.28
474.02	277.79
474.38	277.43
474.75	277.10
475.11	276.73
475.48	276.44
475.85	276.25
476.21	276.03
476.58	275.99
476.94	276.00
477.31	275.94
477.67	275.97
478.04	275.97
478.41	276.09
478.77	276.43
479.14	276.62
479.50	276.89
479.87	277.24
480.23	277.56
480.60	277.83
480.96	278.36
481.33	279.10
481.69	279.80
482.06	280.43
482.42	281.09
482.79	281.88
483.15	282.70
483.52	283.70
483.88	284.70
484.25	285.62
484.61	286.66
484.98	287.70
485.34	288.95
485.71	290.28
486.07	291.68
486.44	293.00
486.80	294.51
487.17	296.09
487.53	297.87
487.90	299.72
488.26	301.66
488.62	303.62
488.99	305.62
489.35	307.78
489.72	310.06
490.08	312.46
490.44	314.87
490.81	317.49
491.17	320.03
491.54	322.84
491.90	325.90
492.26	329.06
492.63	332.49
492.99	335.98
493.36	339.61
493.72	343.49
494.08	347.42
494.45	351.68
494.81	356.19
495.17	360.85
495.54	365.76
495.90	370.80
496.26	376.07
496.63	381.60
496.99	387.35
497.35	393.39
497.72	399.67
498.08	406.13
498.44	412.92
498.80	420.10
499.17	427.52
499.53	435.02
499.89	443.11
500.26	451.15
500.62	459.39
500.98	468.25
501.34	477.20
501.71	486.66
502.07	496.44
502.43	506.40
502.79	516.54
503.16	527.10
503.52	537.92
503.88	548.96
504.24	560.36
504.60	572.10
504.97	584.32
505.33	596.91
505.69	610.16
506.05	623.53
506.41	636.98
506.78	650.73
507.14	664.96
507.50	679.35
507.86	694.37
508.22	709.80
508.59	725.19
508.95	741.16
509.31	757.45
509.67	773.89
510.03	790.74
510.39	808.29
510.75	825.96
511.12	843.98
511.48	862.49
511.84	881.10
512.20	899.68
512.56	918.85
512.92	938.17
513.28	957.40
513.64	977.17
514.00	997.04
514.37	1017.45
514.73	1038.12
515.09	1059.03
515.45	1079.84
515.81	1100.85
516.17	1122.10
516.53	1143.37
516.89	1164.77
517.25	1186.21
517.61	1207.78
517.97	1229.36
518.33	1250.57
518.69	1272.29
519.05	1294.08
519.41	1316.21
519.77	1338.41
520.13	1360.23
520.49	1382.10
520.85	1404.81
521.21	1427.00
521.57	1449.90
521.93	1471.50
522.29	1494.00
522.65	1516.06
523.01	1538.48
523.37	1560.56
523.73	1582.82
524.09	1605.06
524.45	1627.16
524.81	1649.44
525.17	1671.56
525.53	1693.40
525.89	1715.96
526.25	1737.89
526.61	1758.86
526.97	1780.32
527.33	1801.74
527.68	1823.04
528.04	1844.13
528.40	1864.26
528.76	1884.82
529.12	1905.00
529.48	1926.59
529.84	1947.00
530.20	1967.40
530.56	1987.44
530.91	2008.05
531.27	2028.06
531.63	2047.70
531.99	2067.22
532.35	2086.12
532.71	2105.10
533.07	2124.51
533.42	2142.70
533.78	2161.31
534.14	2179.81
534.50	2196.64
534.86	2214.65
535.21	2231.50
535.57	2249.08
535.93	2266.36
536.29	2282.97
536.65	2299.52
537.00	2314.60
537.36	2329.75
537.72	2344.68
538.08	2359.81
538.44	2374.85
538.79	2389.96
539.15	2404.91
539.51	2419.57
539.87	2434.47
540.22	2448.94
540.58	2463.56
540.94	2478.15
541.29	2490.86
541.65	2503.07
542.01	2516.41
542.37	2527.66
542.72	2539.69
543.08	2550.14
543.44	2561.71
543.79	2571.73
544.15	2581.80
544.51	2592.92
544.87	2603.71
545.22	2612.86
545.58	2620.95
545.94	2627.84
546.29	2634.21
546.65	2640.07
547.01	2646.03
547.36	2651.71
547.72	2656.92
548.07	2660.83
548.43	2664.10
548.79	2667.66
549.14	2672.15
549.50	2676.16
549.86	2680.20
550.21	2684.30
550.57	2688.70
550.92	2690.80
551.28	2693.52
551.64	2695.77
551.99	2697.75
552.35	2698.92
552.70	2701.60
553.06	2704.49
553.41	2707.28
553.77	2710.14
554.13	2712.52
554.48	2714.55
554.84	2715.91
555.19	2716.33
555.55	2716.90
555.90	2717.64
556.26	2718.18
556.61	2718.11
556.97	2716.78
557.32	2716.38
557.68	2714.25
558.03	2712.50
558.39	2711.16
558.74	2710.96
559.10	2709.81
559.45	2707.97
559.81	2707.03
560.16	2704.33
560.52	2701.71
560.87	2698.90
561.23	2695.10
561.58	2692.70
561.94	2689.43
562.29	2685.43
562.64	2682.89
563.00	2680.19
563.35	2677.58
563.71	2675.94
564.06	2673.47
564.42	2671.44
564.77	2669.20
565.12	2667.44
565.48	2664.41
565.83	2661.51
566.19	2657.79
566.54	2653.83
566.89	2650.02
567.25	2645.98
567.60	2642.72
567.96	2639.23
568.31	2635.70
568.66	2631.65
569.02	2626.81
569.37	2621.58
569.72	2617.88
570.08	2612.91
570.43	2607.27
570.78	2601.63
571.14	2595.30
571.49	2588.59
571.84	2582.83
572.20	2575.70
572.55	2569.16
572.90	2562.30
573.26	2555.37
573.61	2548.45
573.96	2541.97
574.31	2534.31
574.67	2526.16
575.02	2517.69
575.37	2508.87
575.72	2499.87
576.08	2492.55
576.43	2483.84
576.78	2476.35
577.13	2468.50
577.49	2460.45
577.84	2452.60
578.19	2445.09
578.54	2437.58
578.90	2431.01
579.25	2422.43
579.60	2413.43
579.95	2404.00
580.30	2396.07
580.66	2388.00
581.01	2378.80
581.36	2369.45
581.71	2361.06
582.06	2352.88
582.42	2344.77
582.77	2336.00
583.12	2327.35
583.47	2318.84
583.82	2310.74
584.17	2301.53
584.53	2292.31
584.88	2283.40
585.23	2274.36
585.58	2264.63
585.93	2255.02
586.28	2245.87
586.63	2237.25
586.98	2229.02
587.34	2220.95
587.69	2211.86
588.04	2202.73
588.39	2194.84
588.74	2185.87
589.09	2177.28
589.44	2167.72
589.79	2159.43
590.14	2151.64
590.49	2143.02
590.84	2133.95
591.19	2125.98
591.54	2117.40
591.89	2107.72
592.25	2099.00
592.60	2089.61
592.95	2080.43
593.30	2071.05
593.65	2061.17
594.00	2051.26
594.35	2043.23
594.70	2034.37
595.05	2025.89
595.40	2017.10
595.75	2007.16
596.10	1999.03
596.45	1990.49
596.80	1982.98
597.15	1974.48
597.50	1965.38
597.85	1957.25
598.19	1948.63
598.54	1939.80
598.89	1931.62
599.24	1924.75
599.59	1917.11
599.94	1910.50
600.29	1902.87
600.64	1895.08
600.99	1886.99
601.34	1880.16
601.69	1871.15
602.04	1862.60
602.39	1854.53
602.74	1846.85
603.08	1840.55
603.43	1833.71
603.78	1825.98
604.13	1817.67
604.48	1809.65
604.83	1802.73
605.18	1795.73
605.53	1788.67
605.87	1781.04
606.22	1774.28
606.57	1766.52
606.92	1758.60
607.27	1750.54
607.62	1743.47
607.96	1736.74
608.31	1730.65
608.66	1722.91
609.01	1715.47
609.36	1708.37
609.70	1700.75
610.05	1693.06
610.40	1685.03
610.75	1676.53
611.10	1668.94
611.44	1660.42
611.79	1651.31
612.14	1642.08
612.49	1632.44
612.83	1623.36
613.18	1613.98
613.53	1604.44
613.88	1595.02
614.22	1586.31
614.57	1577.00
614.92	1568.02
615.27	1558.29
615.61	1548.48
615.96	1539.53
616.31	1531.36
616.65	1523.22
617.00	1515.00
617.35	1506.50
617.70	1497.73
618.04	1488.59
618.39	1479.21
618.74	1470.84
619.08	1462.76
619.43	1454.64
619.78	1447.20
620.12	1439.25
620.47	1431.78
620.82	1423.40
621.16	1415.09
621.51	1406.69
621.85	1398.55
622.20	1389.58
622.55	1381.66
622.89	1373.49
623.24	1365.65
623.59	1356.87
623.93	1348.58
624.28	1340.01
624.62	1331.86
624.97	1323.72
625.32	1316.05
625.66	1308.72
626.01	1301.34
626.35	1294.14
626.70	1286.57
627.04	1279.05
627.39	1271.42
627.73	1264.01
628.08	1257.18
628.43	1249.82
628.77	1242.45
629.12	1235.13
629.46	1228.87
629.81	1221.71
630.15	1214.59
630.50	1207.29
630.84	1200.28
631.19	1193.20
631.53	1186.56
631.88	1179.12
632.22	1171.64
632.57	1164.88
632.91	1157.50
633.26	1149.89
633.60	1142.47
633.95	1135.64
634.29	1128.27
634.64	1121.73
634.98	1114.54
635.32	1107.51
635.67	1101.13
636.01	1094.45
636.36	1087.83
636.70	1081.16
637.05	1074.71
637.39	1068.50
637.73	1062.24
638.08	1056.37
638.42	1050.50
638.77	1044.09
639.11	1037.93
639.45	1031.91
639.80	1025.41
640.14	1019.12
640.49	1013.13
640.83	1007.22
641.17	1000.84
641.52	995.01
641.86	988.57
642.20	982.38
642.55	975.76
642.89	969.38
643.23	963.02
643.58	957.12
643.92	950.51
644.26	944.31
644.61	938.15
644.95	932.03
645.29	925.83
645.64	919.07
645.98	912.66
646.32	906.89
646.66	900.78
647.01	894.86
647.35	889.16
647.69	882.96
648.04	876.88
648.38	871.13
648.72	865.06
649.06	858.94
649.41	853.07
649.75	847.36
650.09	841.45
650.43	835.65
650.78	829.28
651.12	823.49
651.46	817.68
651.80	811.79
652.14	805.76
652.49	799.86
652.83	794.23
653.17	788.46
653.51	782.47
653.85	776.88
654.20	770.97
654.54	765.16
654.88	759.68
655.22	754.00
655.56	748.12
655.90	742.27
656.25	736.70
656.59	731.27
656.93	726.10
657.27	721.07
657.61	715.63
657.95	710.71
658.29	705.53
658.64	700.48
658.98	695.23
659.32	689.90
659.66	684.70
660.00	679.29
660.34	674.02
660.68	668.93
661.02	663.88
661.36	659.20
661.70	654.30
662.05	649.53
662.39	645.08
662.73	640.83
663.07	636.53
663.41	632.15
663.75	627.60
664.09	623.03
664.43	618.36
664.77	614.10
665.11	609.84
665.45	605.50
665.79	601.11
666.13	596.94
666.47	592.88
666.81	588.78
667.15	584.88
667.49	581.20
667.83	577.47
668.17	573.67
668.51	569.94
668.85	566.35
669.19	562.94
669.53	559.04
669.87	554.81
670.21	550.98
670.55	547.20
670.89	543.88
671.23	540.44
671.57	537.03
671.91	533.58
672.25	529.80
672.58	526.38
672.92	523.06
673.26	519.80
673.60	516.55
673.94	513.33
674.28	510.08
674.62	506.99
674.96	503.68
675.30	500.62
675.64	497.31
675.97	494.06
676.31	490.80
676.65	488.01
676.99	485.61
677.33	482.71
677.67	479.78
678.01	476.63
678.34	473.65
678.68	470.67
679.02	467.70
679.36	464.91
679.70	462.10
680.04	459.15
680.37	456.09
680.71	453.30
681.05	450.63
681.39	447.87
681.73	445.08
682.06	442.67
682.40	440.02
682.74	437.49
683.08	435.10
683.42	432.62
683.75	430.04
684.09	427.27
684.43	424.79
684.77	422.35
685.10	419.85
685.44	417.35
685.78	414.81
686.12	412.55
686.45	410.36
686.79	408.09
687.13	406.01
687.46	403.98
687.80	401.88
688.14	399.48
688.48	397.32
688.81	394.98
689.15	392.78
689.49	390.56
689.82	388.32
690.16	385.87
690.50	383.66
690.83	381.42
691.17	379.20
691.51	376.97
691.84	374.87
692.18	372.83
692.52	370.98
692.85	369.32
693.19	367.35
693.52	365.34
693.86	363.41
694.20	361.51
694.53	359.67
694.87	357.76
695.21	355.97
695.54	354.08
695.88	352.32
696.21	350.36
696.55	348.67
696.88	347.03
697.22	345.37
697.56	343.74
697.89	341.95
698.23	340.37
698.56	338.87
698.90	337.40
699.23	335.81
699.57	334.18
699.90	332.48
700.24	330.89
700.58	329.33
700.91	327.80
701.25	326.30
701.58	324.80
701.92	323.30
702.25	321.89
702.59	320.52
702.92	319.17
703.26	317.90
703.59	316.65
703.93	315.42
704.26	314.17
704.60	312.84
704.93	311.62
705.26	310.43
705.60	309.27
705.93	307.91
706.27	306.75
706.60	305.57
706.94	304.53
707.27	303.36
707.61	302.19
707.94	301.07
708.27	299.89
708.61	298.78
708.94	297.69
709.28	296.62
709.61	295.61
709.94	294.59
710.28	293.55
710.61	292.47
710.95	291.27
711.28	290.46
711.61	289.43
711.95	288.61
712.28	287.59
712.61	286.53
712.95	285.75
713.28	284.92
713.61	283.92
713.95	282.93
714.28	282.05
714.61	281.26
714.95	280.39
715.28	279.51
715.61	278.52
715.95	277.64
716.28	276.68
716.61	275.81
716.95	274.92
717.28	274.02
717.61	273.24
717.94	272.61
718.28	271.72
718.61	271.02
718.94	270.23
719.27	269.57
719.61	268.92
719.94	268.09
720.27	267.22
720.60	266.61
720.94	265.91
721.27	265.28
721.60	264.68
721.93	264.08
722.27	263.60
722.60	263.02
722.93	262.40
723.26	261.91
723.59	261.30
723.93	260.71
724.26	260.29
724.59	259.69
724.92	259.08
725.25	258.47
725.59	257.93
725.92	257.42
726.25	256.84
726.58	256.25
726.91	255.75
727.24	255.29
727.57	254.80
727.91	254.29
728.24	253.85
728.57	253.25
728.90	252.73
729.23	252.24
729.56	251.90
729.89	251.53
730.22	251.05
730.55	250.60
730.89	250.23
731.22	249.74
731.55	249.29
731.88	248.88
732.21	248.52
732.54	248.04
732.87	247.63
733.20	247.25
733.53	246.87
733.86	246.53
734.19	246.18
734.52	245.83
734.85	245.56
735.18	245.17
735.51	244.81
735.84	244.44
736.17	243.99
736.50	243.55
736.83	243.35
737.16	242.94
737.49	242.62
737.82	242.25
738.15	241.86
738.48	241.52
738.81	241.16
739.14	240.70
739.47	240.37
739.80	239.96
740.13	239.58
740.46	239.30
740.79	238.92
741.12	238.55
741.45	238.27
741.78	237.88
742.11	237.64
742.44	237.39
742.77	237.15
743.10	236.87
743.43	236.56
743.75	236.05
744.08	236.09
744.41	235.78
744.74	235.45
745.07	235.25
745.40	235.07
745.73	234.86
746.06	234.70
746.39	234.43
746.71	234.22
747.04	234.00
747.37	233.65
747.70	233.39
748.03	233.12
748.36	232.78
748.68	232.55
749.01	232.15
749.34	231.86
749.67	231.63
750.00	231.38
750.33	231.22
750.65	230.94
750.98	230.50
751.31	230.27
751.64	230.10
751.97	229.87
752.29	229.59
752.62	229.26
752.95	229.03
753.28	228.80
753.60	228.50
753.93	228.30
754.26	228.13
754.59	227.83
754.91	227.67
755.24	227.50
755.57	227.24
755.90	227.01
756.22	226.82
756.55	226.57
756.88	226.29
757.20	226.03
757.53	225.84
757.86	225.58
758.19	225.42
758.51	225.16
758.84	224.93
759.17	224.68
759.49	224.49
759.82	224.32
760.15	224.11
760.47	223.96
760.80	223.72
761.13	223.54
761.45	223.48
761.78	223.30
762.11	223.18
762.43	223.02
762.76	222.95
763.08	222.78
763.41	222.63
763.74	222.57
764.06	222.32
764.39	222.17
764.71	222.01
765.04	221.84
765.37	221.70
765.69	221.54
766.02	221.39
766.34	221.31
766.67	221.09
767.00	221.09
767.32	221.05
767.65	221.07
767.97	220.99
768.30	220.80
768.62	220.61
768.95	220.43
769.27	220.28
769.60	220.14
769.92	220.02
770.25	219.92
770.57	219.75
770.90	219.70
771.22	219.63
771.55	219.51
771.87	219.43
772.20	219.32
772.52	219.41
772.85	219.62
773.17	219.48
773.50	219.42
773.82	219.26
774.15	219.07
774.47	218.91
774.80	218.80
775.12	218.81
775.45	218.75
775.77	218.69
776.09	218.57
776.42	218.46
776.74	218.41
777.07	218.32
777.39	218.24
777.72	218.17
778.04	218.15
778.36	218.05
778.69	217.98
779.01	217.99
779.33	217.77
779.66	217.50
779.98	217.40
780.31	217.35
780.63	217.37
780.95	217.36
781.28	217.28
781.60	217.24
781.92	217.11
782.25	217.06
782.57	216.99
782.89	217.07
783.22	217.02
783.54	216.95
783.86	216.86
784.19	216.84
784.51	216.87
784.83	216.75
785.16	216.71
785.48	216.67
785.80	216.62
786.12	216.56
786.45	216.43
786.77	216.43
787.09	216.42
787.42	216.45
787.74	216.49
788.06	216.41
788.38	216.32
788.71	216.34
789.03	216.27
789.35	216.21
789.67	216.15
789.99	216.17
790.32	216.14
790.64	216.15
790.96	216.21
791.28	216.09
791.61	215.97
791.93	215.94
792.25	215.85
792.57	215.93
792.89	215.89
793.21	215.87
793.54	215.87
793.86	215.82
794.18	215.69
794.50	215.54
794.82	215.55
795.14	215.56
795.47	215.47
795.79	215.50
796.11	215.44
796.43	215.36
796.75	215.23
797.07	215.16
797.39	215.13
797.71	214.95
798.04	214.95
798.36	214.93
798.68	214.94
799.00	214.87
799.32	214.68
799.64	214.63
799.96	214.71
800.28	214.61
800.60	214.52
800.92	214.49
801.24	214.40
801.56	214.38
801.89	214.26
802.21	214.26
802.53	214.15
802.85	214.15
803.17	214.22
803.49	214.23
803.81	214.21
804.13	214.14
804.45	214.10
804.77	214.02
805.09	214.02
805.41	213.94
805.73	213.94
806.05	213.91
806.37	213.81
806.69	213.68
807.01	213.61
807.33	213.61
807.65	213.53
807.97	213.61
808.28	213.47
808.60	213.49
808.92	213.44
809.24	213.51
809.56	213.49
809.88	213.34
810.20	213.30
810.52	213.25
810.84	213.24
811.16	213.21
811.48	213.21
811.80	213.29
812.12	213.27
812.43	213.22
812.75	213.19
813.07	213.18
813.39	213.15
813.71	213.21
814.03	213.16
814.35	213.10
814.67	213.08
814.98	213.10
815.30	213.13
815.62	213.08
815.94	212.99
816.26	213.01
816.58	213.07
816.89	213.07
817.21	213.03
817.53	213.06
817.85	213.05
818.17	213.08
818.48	213.02
818.80	213.08
819.12	213.04
819.44	213.01
819.76	213.06
820.07	213.07
820.39	213.00
820.71	213.03
821.03	213.06
821.34	212.99
821.66	213.04
821.98	212.96
822.30	212.93
822.61	213.00
822.93	212.91
823.25	212.81
823.57	212.80
823.88	212.87
824.20	212.84
824.52	212.88
824.83	212.82
825.15	212.68
825.47	212.60
825.79	212.61
826.10	212.61
826.42	212.55
826.74	212.49
827.05	212.47
827.37	212.43
827.69	212.35
828.00	212.35
828.32	212.32
828.64	212.33
828.95	212.42
829.27	212.33
829.58	212.31
829.90	212.35
830.22	212.29
830.53	212.22
830.85	212.18
831.17	212.10
831.48	212.04
831.80	212.10
832.11	212.09
832.43	212.03
832.75	211.99
833.06	212.12
833.38	212.06
833.69	212.06
834.01	212.07
834.32	212.09
834.64	212.08
834.96	212.06
835.27	212.06
835.59	211.96
835.90	211.91
836.22	211.93
836.53	211.91
836.85	211.92
837.16	212.07
837.48	212.02
837.79	212.05
838.11	212.08
838.42	212.12
838.74	212.11
839.05	212.13
839.37	212.13
839.68	212.02
840.00	212.05
840.31	212.08
840.63	212.04
840.94	212.03
841.26	211.97
841.57	211.94
841.88	211.89
842.20	211.81
842.51	211.84
842.83	211.85
843.14	211.96
843.46	211.95
843.77	211.84
844.08	211.86
844.40	211.88
844.71	211.89
845.03	211.79
845.34	211.75
845.65	211.70
845.97	211.71
846.28	211.67
846.60	211.69
846.91	211.65
847.22	211.62
847.54	211.56
847.85	211.59
848.16	211.58
848.48	211.58
848.79	211.66
849.10	211.70
849.42	211.63
849.73	211.54
850.04	211.51
850.36	211.42
850.67	211.46
850.98	211.37
851.30	211.33
851.61	211.38
851.92	211.45
852.23	211.60
852.55	211.64
852.86	211.65
853.17	211.65
853.49	211.68
853.80	211.71
854.11	211.77
854.42	211.82
854.74	211.83
855.05	211.85
855.36	211.84
855.67	211.82
855.99	211.85
856.30	211.97
856.61	211.95
856.92	212.04
857.23	211.98
857.55	212.05
857.86	212.07
858.17	212.11
858.48	212.05
858.79	211.96
859.11	211.90
859.42	211.85
859.73	211.85
860.04	211.84
860.35	211.85
860.66	211.80
860.98	211.79
861.29	211.79
861.60	211.73
861.91	211.80
862.22	211.81
862.53	211.80
862.84	211.65
863.16	211.79
863.47	211.72
863.78	211.73
864.09	211.72
864.40	211.71
864.71	211.71
865.02	211.81
865.33	211.85
865.64	211.85
865.95	211.91
866.27	212.04
866.58	212.07
866.89	212.04
867.20	212.04
867.51	211.99
867.82	211.98
868.13	212.04
868.44	211.93
868.75	211.88
869.06	211.87
869.37	211.87
869.68	211.76
869.99	211.87
870.30	211.88
870.61	211.90
870.92	211.98
871.23	211.95
871.54	211.90
871.85	211.87
872.16	211.87
872.47	211.85
872.78	211.59
873.09	211.53
873.40	211.51
873.71	211.51
874.02	211.55
874.33	211.54
874.64	211.50
874.95	211.57
875.26	211.55
875.56	211.60
875.87	211.58
876.18	211.58
876.49	211.72
876.80	211.74
877.11	211.69
877.42	211.65
877.73	211.62
878.04	211.61
878.35	211.62
878.66	211.70
878.96	211.68
879.27	211.75
879.58	211.82
879.89	211.82
880.20	211.90
880.51	211.90
880.82	211.87
881.12	211.90
881.43	211.84
881.74	211.80
882.05	211.80
882.36	211.83
882.67	211.87
882.97	211.62
883.28	211.60
883.59	211.68
883.90	211.63
884.21	211.75
884.51	211.76
884.82	211.80
885.13	211.81
885.44	211.82
885.74	211.86
886.05	211.76
886.36	211.76
886.67	211.72
886.98	211.79
887.28	211.80
887.59	211.79
887.90	211.79
888.20	211.85
888.51	211.83
888.82	211.83
889.13	211.81
889.43	211.92
889.74	211.88
890.05	211.75
890.35	211.80
890.66	211.70
890.97	211.63
891.28	211.56
891.58	211.51
891.89	211.48
892.20	211.41
892.50	211.47
892.81	211.47
893.12	211.43
893.42	211.33
893.73	211.38
894.04	211.43
894.34	211.44
894.65	211.38
894.95	211.34
895.26	211.30
895.57	211.33
895.87	211.27
896.18	211.30
896.48	211.34
896.79	211.30
897.10	211.30
897.40	211.39
897.71	211.42
898.01	211.43
898.32	211.46
898.63	211.55
898.93	211.53
899.24	211.59
899.54	211.58
899.85	211.58
900.15	211.52
900.46	211.43
900.76	211.47
901.07	211.52
901.38	211.61
901.68	211.69
901.99	211.59
902.29	211.50
902.60	211.51
902.90	211.51
903.21	211.45
903.51	211.44
903.82	211.43
904.12	211.40
904.43	211.38
904.73	211.31
905.03	211.25
905.34	211.37
905.64	211.25
905.95	211.26
906.25	211.17
906.56	211.20
906.86	211.28
907.17	211.22
907.47	211.23
907.77	211.16
908.08	211.02
908.38	211.09
908.69	211.16
908.99	211.16
909.30	211.18
909.60	211.26
909.90	211.28
910.21	211.21
910.51	211.19
910.81	211.14
911.12	211.26
911.42	211.33
911.73	211.15
912.03	211.22
912.33	211.28
912.64	211.31
912.94	211.31
913.24	211.24
913.55	211.27
913.85	211.19
914.15	211.23
914.46	211.29
914.76	211.23
915.06	211.19
915.37	211.17
915.67	211.14
915.97	211.10
916.27	211.10
916.58	211.06
916.88	211.05
917.18	211.10
917.49	211.11
917.79	211.04
918.09	211.15
918.39	211.19
918.70	211.18
919.00	211.24
919.30	211.31
919.60	211.30
919.91	211.28
920.21	211.31
920.51	211.28
920.81	211.27
921.12	211.34
921.42	211.33
921.72	211.35
922.02	211.31
922.32	211.36
922.63	211.33
922.93	211.48
923.23	211.53
923.53	211.56
923.83	211.49
924.13	211.59
924.44	211.49
924.74	211.53
925.04	211.50
925.34	211.53
925.64	211.47
925.94	211.48
926.24	211.55
926.55	211.60
926.85	211.61
927.15	211.61
927.45	211.55
927.75	211.59
928.05	211.61
928.35	211.67
928.65	211.64
928.95	211.69
929.26	211.62
929.56	211.66
929.86	211.65
930.16	211.67
930.46	211.58
930.76	211.59
931.06	211.49
931.36	211.46
931.66	211.48
931.96	211.42
932.26	211.47
932.56	211.50
932.86	211.49
933.16	211.52
933.46	211.55
933.76	211.57
934.06	211.58
934.36	211.60
934.66	211.53
934.96	211.56
935.26	211.52
935.56	211.52
935.86	211.44
936.16	211.39
936.46	211.35
936.76	211.27
937.06	211.30
937.36	211.33
937.66	211.35
937.96	211.33
938.26	211.34
938.56	211.28
938.86	211.21
939.16	211.25
939.46	211.25
939.76	211.19
940.06	211.24
940.35	211.20
940.65	211.14
940.95	211.17
941.25	211.10
941.55	211.11
941.85	211.04
942.15	211.09
942.45	211.13
942.75	211.12
943.04	211.20
943.34	211.20
943.64	211.15
943.94	211.07
944.24	210.98
944.54	211.01
944.84	211.02
945.13	210.97
945.43	210.88
945.73	210.81
946.03	210.81
946.33	210.79
946.62	210.74
946.92	210.70
947.22	210.68
947.52	210.71
947.82	210.72
948.11	210.75
948.41	210.70
948.71	210.69
949.01	210.69
949.31	210.62
949.60	210.64
949.90	210.68
950.20	210.73
950.50	210.78
950.79	210.78
951.09	210.79
951.39	210.83
951.69	210.81
951.98	210.89
952.28	210.92
952.58	210.84
952.87	210.91
953.17	210.90
953.47	210.91
953.76	210.88
954.06	210.81
954.36	210.80
954.66	210.75
954.95	210.79
955.25	210.80
955.55	210.87
955.84	210.82
956.14	210.86
956.44	210.88
956.73	210.85
957.03	210.85
957.32	210.83
957.62	210.79
957.92	210.83
958.21	210.76
958.51	210.96
958.81	211.02
959.10	211.01
959.40	211.08
959.69	211.08
959.99	211.09
960.29	211.19
960.58	211.23
960.88	211.28
961.17	211.20
961.47	211.20
961.76	211.12
962.06	211.20
962.36	211.15
962.65	211.18
962.95	211.16
963.24	211.22
963.54	211.22
963.83	211.29
964.13	211.32
964.42	211.34
964.72	211.15
965.01	211.15
965.31	211.10
965.60	211.05
965.90	211.23
966.19	211.22
966.49	211.18
966.78	211.10
967.08	211.10
967.37	211.14
967.67	211.21
967.96	211.32
968.26	211.34
968.55	211.42
968.85	211.39
969.14	211.45
969.43	211.35
969.73	211.37
970.02	211.30
970.32	211.23
970.61	211.17
970.91	211.15
971.20	211.16
971.49	211.21
971.79	211.28
972.08	211.12
972.38	211.17
972.67	211.19
972.96	211.29
973.26	211.29
973.55	211.35
973.85	211.31
974.14	211.29
974.43	211.34
974.73	211.26
975.02	211.19
975.31	211.17
975.61	211.25
975.90	211.20
976.19	211.18
976.49	211.27
976.78	211.35
977.07	211.37
977.37	211.42
977.66	211.38
977.95	211.29
978.24	211.27
978.54	211.32
978.83	211.26
979.12	211.19
979.42	211.23
979.71	211.18
980.00	211.18
980.29	211.23
980.59	211.12
980.88	211.22
981.17	211.25
981.46	211.27
981.76	211.17
982.05	211.27
982.34	211.27
982.63	211.27
982.93	211.23
983.22	211.25
983.51	211.20
983.80	211.21
984.09	211.20
984.39	211.25
984.68	211.23
984.97	211.23
985.26	211.21
985.55	211.24
985.85	211.25
986.14	211.16
986.43	211.17
986.72	211.17
987.01	211.09
987.30	211.08
987.59	211.08
987.89	211.11
988.18	210.93
988.47	210.97
988.76	210.93
989.05	210.87
989.34	210.82
989.63	210.89
989.92	210.89
990.22	210.93
990.51	210.89
990.80	210.79
991.09	210.85
991.38	210.91
991.67	210.85
991.96	210.80
992.25	210.88
992.54	210.76
992.83	210.75
993.12	210.71
993.41	210.81
993.70	210.79
993.99	210.82
994.28	210.92
994.58	210.96
994.87	210.93
995.16	210.93
995.45	210.98
995.74	210.91
996.03	210.95
996.32	211.00
996.61	211.00
996.90	210.99
997.19	210.94
997.48	210.93
997.77	210.88
998.06	210.91
998.34	210.90
998.63	210.90
998.92	210.89
999.21	210.90
999.50	210.85
999.79	210.82
1000.08	210.78
1000.37	210.80
1000.66	210.75
1000.95	210.84
1001.24	210.85
1001.53	210.78
1001.82	210.73
1002.11	210.64
1002.40	210.61
1002.68	210.72
1002.97	210.89
1003.26	210.84
1003.55	210.80
1003.84	210.85
1004.13	210.82
1004.42	210.77
1004.71	210.82
1004.99	210.80
1005.28	210.84
1005.57	210.85
1005.86	210.84
1006.15	210.80
1006.44	210.74
1006.72	210.79
1007.01	210.69
1007.30	210.75
1007.59	210.71
1007.88	210.72
1008.17	210.76
1008.45	210.77
1008.74	210.70
1009.03	210.53
1009.32	210.59
1009.60	210.61
1009.89	210.55
1010.18	210.54
1010.47	210.58
1010.76	210.55
1011.04	210.55
1011.33	210.57
1011.62	210.55
1011.91	210.54
1012.19	210.61
1012.48	210.70
1012.77	210.67
1013.05	210.70
1013.34	210.66
1013.63	210.72
1013.92	210.70
1014.20	210.68
1014.49	210.68
1014.78	210.61
1015.06	210.58
1015.35	210.50
1015.64	210.55
1015.92	210.60
1016.21	210.59
1016.50	210.59
1016.78	210.60
1017.07	210.60
1017.36	210.52
1017.64	210.55
1017.93	210.62
1018.22	210.56
1018.50	210.57
1018.79	210.49
1019.08	210.49
1019.36	210.55
1019.65	210.54
1019.93	210.59
1020.22	210.66
1020.51	210.70
1020.79	210.72
1021.08	209.75
1021.36	211.50
1021.65	209.40
1021.94	210.70
1022.22	212.05
1022.51	210.25
1022.79	211.15
1023.08	211.55
1023.36	212.35
1023.65	210.10
>>>>>End Processed Spectral Data<<<<<
