SpectraSuite Data File
++++++++++++++++++++++++++++++++++++
Date: Mon Feb 25 17:34:46 EST 2013
User: group
Dark Spectrum Present: No
Reference Spectrum Present: No
Number of Sampled Component Spectra: 1
Spectrometers: USB2E7196
Integration Time (usec): 52000 (USB2E7196)
Spectra Averaged: 20 (USB2E7196)
Boxcar Smoothing: 10 (USB2E7196)
Correct for Electrical Dark: No (USB2E7196)
Strobe/Lamp Enabled: No (USB2E7196)
Correct for Detector Non-linearity: No (USB2E7196)
Correct for Stray Light: No (USB2E7196)
Number of Pixels in Processed Spectrum: 2048
>>>>>Begin Processed Spectral Data<<<<<
339.09	0.00
339.48	198.90
339.86	199.45
340.24	201.60
340.63	202.00
341.01	206.15
341.39	205.25
341.78	206.95
342.16	209.00
342.54	208.55
342.93	197.96
343.31	207.98
343.69	208.49
344.07	209.06
344.46	209.46
344.84	209.88
345.22	210.08
345.60	210.34
345.99	210.56
346.37	210.70
346.75	210.82
347.13	210.92
347.52	210.95
347.90	211.03
348.28	211.09
348.66	211.16
349.05	211.25
349.43	211.35
349.81	211.49
350.19	211.51
350.57	211.61
350.96	211.66
351.34	211.78
351.72	211.95
352.10	212.06
352.48	212.17
352.87	212.22
353.25	212.33
353.63	212.42
354.01	212.51
354.39	212.57
354.77	212.66
355.15	212.77
355.54	212.81
355.92	212.85
356.30	212.89
356.68	213.10
357.06	213.20
357.44	213.29
357.82	213.31
358.20	213.46
358.58	213.52
358.97	213.62
359.35	213.70
359.73	213.74
360.11	213.74
360.49	213.88
360.87	214.01
361.25	214.13
361.63	214.23
362.01	214.29
362.39	214.29
362.77	214.40
363.15	214.43
363.53	214.56
363.91	214.55
364.29	214.64
364.67	214.49
365.05	214.45
365.43	214.44
365.81	214.55
366.19	214.65
366.57	214.76
366.95	214.78
367.33	214.76
367.71	214.76
368.09	214.79
368.47	214.75
368.85	214.75
369.23	214.77
369.61	214.72
369.99	214.67
370.37	214.75
370.75	214.71
371.13	214.73
371.51	214.63
371.89	214.63
372.27	214.54
372.65	214.56
373.03	214.55
373.41	214.48
373.78	214.34
374.16	214.14
374.54	214.01
374.92	213.91
375.30	213.79
375.68	213.70
376.06	213.66
376.44	213.57
376.82	213.48
377.19	213.38
377.57	213.35
377.95	213.27
378.33	213.16
378.71	213.05
379.09	212.96
379.47	212.91
379.84	212.82
380.22	212.77
380.60	212.67
380.98	212.55
381.36	212.48
381.73	212.39
382.11	212.42
382.49	212.32
382.87	212.22
383.25	212.25
383.62	212.42
384.00	212.31
384.38	212.29
384.76	212.29
385.13	212.30
385.51	212.18
385.89	212.15
386.27	212.03
386.64	212.01
387.02	211.96
387.40	211.84
387.78	211.83
388.15	211.82
388.53	211.74
388.91	211.75
389.29	211.74
389.66	211.76
390.04	211.71
390.42	211.72
390.79	211.70
391.17	211.65
391.55	211.39
391.92	211.42
392.30	211.43
392.68	211.41
393.05	211.35
393.43	211.34
393.81	211.34
394.18	211.41
394.56	211.36
394.94	211.46
395.31	211.45
395.69	211.50
396.06	211.47
396.44	211.49
396.82	211.44
397.19	211.50
397.57	211.47
397.95	211.53
398.32	211.51
398.70	211.61
399.07	211.71
399.45	211.78
399.82	211.79
400.20	211.81
400.58	211.80
400.95	211.80
401.33	211.96
401.70	212.16
402.08	212.18
402.45	212.25
402.83	212.31
403.20	212.41
403.58	212.45
403.95	212.63
404.33	212.77
404.71	212.90
405.08	213.07
405.46	213.22
405.83	213.34
406.21	213.52
406.58	213.64
406.96	213.78
407.33	213.95
407.70	214.15
408.08	214.45
408.45	214.63
408.83	214.91
409.20	215.10
409.58	215.21
409.95	215.58
410.33	215.96
410.70	216.21
411.08	216.54
411.45	216.92
411.82	217.24
412.20	217.67
412.57	218.23
412.95	218.57
413.32	219.10
413.69	219.59
414.07	220.10
414.44	220.65
414.82	221.27
415.19	222.00
415.56	222.78
415.94	223.44
416.31	224.43
416.68	225.34
417.06	226.39
417.43	227.35
417.81	228.44
418.18	229.54
418.55	230.77
418.93	232.10
419.30	233.43
419.67	234.79
420.04	236.25
420.42	237.70
420.79	239.52
421.16	241.23
421.54	243.11
421.91	244.98
422.28	246.96
422.66	249.00
423.03	251.10
423.40	253.14
423.77	255.40
424.15	257.60
424.52	259.90
424.89	262.40
425.26	264.96
425.64	267.27
426.01	269.85
426.38	272.62
426.75	275.34
427.13	278.17
427.50	281.20
427.87	284.30
428.24	287.41
428.61	290.45
428.99	293.83
429.36	297.25
429.73	300.80
430.10	304.20
430.47	307.81
430.85	311.48
431.22	315.43
431.59	319.69
431.96	323.63
432.33	328.05
432.70	332.27
433.08	337.14
433.45	341.85
433.82	346.49
434.19	351.48
434.56	356.61
434.93	361.46
435.30	366.24
435.68	371.55
436.05	376.77
436.42	381.84
436.79	386.64
437.16	391.79
437.53	397.13
437.90	402.59
438.27	407.72
438.64	413.04
439.01	418.08
439.38	422.42
439.75	426.63
440.13	431.47
440.50	435.95
440.87	439.64
441.24	443.48
441.61	447.83
441.98	450.91
442.35	454.47
442.72	458.13
443.09	461.73
443.46	463.83
443.83	465.20
444.20	466.44
444.57	468.07
444.94	468.77
445.31	469.62
445.68	470.33
446.05	470.57
446.42	470.05
446.79	469.25
447.16	468.39
447.53	467.82
447.90	465.69
448.27	463.67
448.64	460.80
449.01	458.65
449.37	454.79
449.74	451.35
450.11	447.18
450.48	442.62
450.85	437.85
451.22	433.80
451.59	430.11
451.96	426.50
452.33	421.66
452.70	417.39
453.07	412.14
453.43	406.90
453.80	401.87
454.17	396.93
454.54	392.44
454.91	387.56
455.28	382.84
455.65	378.40
456.02	373.97
456.38	370.27
456.75	365.72
457.12	361.92
457.49	357.95
457.86	354.15
458.23	351.00
458.59	347.60
458.96	343.95
459.33	340.73
459.70	337.51
460.07	335.02
460.43	332.06
460.80	329.37
461.17	326.95
461.54	324.47
461.91	322.23
462.27	319.77
462.64	317.76
463.01	315.55
463.38	313.40
463.74	311.32
464.11	309.33
464.48	307.61
464.85	305.83
465.21	304.53
465.58	303.19
465.95	301.35
466.32	299.87
466.68	298.50
467.05	297.07
467.42	295.66
467.78	294.09
468.15	292.70
468.52	291.73
468.88	290.41
469.25	289.23
469.62	288.18
469.98	287.11
470.35	286.16
470.72	285.23
471.08	284.28
471.45	283.50
471.82	282.80
472.18	281.97
472.55	281.38
472.92	280.68
473.28	280.04
473.65	279.50
474.02	279.01
474.38	278.66
474.75	278.35
475.11	278.01
475.48	277.79
475.85	277.64
476.21	277.39
476.58	277.25
476.94	277.33
477.31	277.31
477.67	277.29
478.04	277.29
478.41	277.43
478.77	277.76
479.14	277.85
479.50	278.02
479.87	278.33
480.23	278.70
480.60	279.09
480.96	279.46
481.33	280.08
481.69	280.75
482.06	281.41
482.42	281.94
482.79	282.61
483.15	283.52
483.52	284.48
483.88	285.44
484.25	286.41
484.61	287.41
484.98	288.52
485.34	289.83
485.71	291.20
486.07	292.69
486.44	293.98
486.80	295.49
487.17	297.15
487.53	298.87
487.90	300.60
488.26	302.55
488.62	304.67
488.99	306.69
489.35	308.72
489.72	310.98
490.08	313.41
490.44	315.93
490.81	318.68
491.17	321.35
491.54	324.25
491.90	327.31
492.26	330.45
492.63	333.75
492.99	337.16
493.36	340.87
493.72	344.69
494.08	348.82
494.45	353.15
494.81	357.61
495.17	362.25
495.54	367.33
495.90	372.32
496.26	377.52
496.63	383.06
496.99	388.76
497.35	394.68
497.72	400.94
498.08	407.44
498.44	414.01
498.80	421.26
499.17	428.67
499.53	436.40
499.89	444.50
500.26	452.69
500.62	461.16
500.98	470.04
501.34	479.09
501.71	488.50
502.07	498.09
502.43	508.19
502.79	518.30
503.16	528.95
503.52	539.86
503.88	551.08
504.24	562.65
504.60	574.62
504.97	586.97
505.33	599.67
505.69	612.94
506.05	626.43
506.41	640.01
506.78	653.75
507.14	667.84
507.50	682.22
507.86	697.08
508.22	712.46
508.59	727.83
508.95	743.93
509.31	760.14
509.67	776.85
510.03	793.87
510.39	811.73
510.75	829.44
511.12	847.71
511.48	866.09
511.84	885.07
512.20	903.73
512.56	922.91
512.92	942.40
513.28	962.13
513.64	982.00
514.00	1001.94
514.37	1022.46
514.73	1043.38
515.09	1064.35
515.45	1085.43
515.81	1106.82
516.17	1128.19
516.53	1149.40
516.89	1170.98
517.25	1192.61
517.61	1214.21
517.97	1235.71
518.33	1257.41
518.69	1279.28
519.05	1301.67
519.41	1323.60
519.77	1346.38
520.13	1368.79
520.49	1391.01
520.85	1413.73
521.21	1436.21
521.57	1459.24
521.93	1481.27
522.29	1504.28
522.65	1527.01
523.01	1549.49
523.37	1571.38
523.73	1594.01
524.09	1616.35
524.45	1638.95
524.81	1661.61
525.17	1684.11
525.53	1706.64
525.89	1729.21
526.25	1751.43
526.61	1772.81
526.97	1794.87
527.33	1816.27
527.68	1838.10
528.04	1859.51
528.40	1879.74
528.76	1900.90
529.12	1921.77
529.48	1943.88
529.84	1964.29
530.20	1984.66
530.56	2005.53
530.91	2026.59
531.27	2047.08
531.63	2067.62
531.99	2087.29
532.35	2106.58
532.71	2126.07
533.07	2145.70
533.42	2164.34
533.78	2183.41
534.14	2202.05
534.50	2219.40
534.86	2237.65
535.21	2254.12
535.57	2272.20
535.93	2289.99
536.29	2306.90
536.65	2323.81
537.00	2338.97
537.36	2354.43
537.72	2369.94
538.08	2385.47
538.44	2401.15
538.79	2416.59
539.15	2431.52
539.51	2446.71
539.87	2462.32
540.22	2476.76
540.58	2491.89
540.94	2506.67
541.29	2519.80
541.65	2532.31
542.01	2545.62
542.37	2557.81
542.72	2570.68
543.08	2581.63
543.44	2593.63
543.79	2604.04
544.15	2614.13
544.51	2625.63
544.87	2637.11
545.22	2646.59
545.58	2654.93
545.94	2662.35
546.29	2669.07
546.65	2675.73
547.01	2682.28
547.36	2688.39
547.72	2694.36
548.07	2698.39
548.43	2702.40
548.79	2706.30
549.14	2711.09
549.50	2715.86
549.86	2719.73
550.21	2723.66
550.57	2727.97
550.92	2730.52
551.28	2733.52
551.64	2736.30
551.99	2738.68
552.35	2739.95
552.70	2742.88
553.06	2745.97
553.41	2748.90
553.77	2752.16
554.13	2754.36
554.48	2756.18
554.84	2757.16
555.19	2757.83
555.55	2758.41
555.90	2759.06
556.26	2759.88
556.61	2759.87
556.97	2758.38
557.32	2758.28
557.68	2756.96
558.03	2755.85
558.39	2754.42
558.74	2754.10
559.10	2752.98
559.45	2751.12
559.81	2750.34
560.16	2747.75
560.52	2745.17
560.87	2742.46
561.23	2738.46
561.58	2736.16
561.94	2733.19
562.29	2729.43
562.64	2727.17
563.00	2724.67
563.35	2722.50
563.71	2720.36
564.06	2718.30
564.42	2716.63
564.77	2714.23
565.12	2712.62
565.48	2709.24
565.83	2706.43
566.19	2702.81
566.54	2698.73
566.89	2695.17
567.25	2691.49
567.60	2688.27
567.96	2684.90
568.31	2681.30
568.66	2677.72
569.02	2673.04
569.37	2667.70
569.72	2664.25
570.08	2658.60
570.43	2653.21
570.78	2647.51
571.14	2641.26
571.49	2634.75
571.84	2628.81
572.20	2621.93
572.55	2614.80
572.90	2607.93
573.26	2600.87
573.61	2594.00
573.96	2587.52
574.31	2579.58
574.67	2571.07
575.02	2562.48
575.37	2553.85
575.72	2544.79
576.08	2536.94
576.43	2528.26
576.78	2520.31
577.13	2511.98
577.49	2503.93
577.84	2496.39
578.19	2488.32
578.54	2480.98
578.90	2473.75
579.25	2464.65
579.60	2455.05
579.95	2445.90
580.30	2438.20
580.66	2430.23
581.01	2420.70
581.36	2411.38
581.71	2403.15
582.06	2394.72
582.42	2386.35
582.77	2377.15
583.12	2368.15
583.47	2359.51
583.82	2351.21
584.17	2342.23
584.53	2333.38
584.88	2324.46
585.23	2314.71
585.58	2305.18
585.93	2295.43
586.28	2285.83
586.63	2277.16
586.98	2269.29
587.34	2260.91
587.69	2251.08
588.04	2241.85
588.39	2233.90
588.74	2224.92
589.09	2215.72
589.44	2205.92
589.79	2197.30
590.14	2189.26
590.49	2180.76
590.84	2171.65
591.19	2163.58
591.54	2154.81
591.89	2144.12
592.25	2135.06
592.60	2125.46
592.95	2115.96
593.30	2106.52
593.65	2096.80
594.00	2086.87
594.35	2078.39
594.70	2068.84
595.05	2060.17
595.40	2051.16
595.75	2041.47
596.10	2032.88
596.45	2024.30
596.80	2016.57
597.15	2007.87
597.50	1998.32
597.85	1989.95
598.19	1980.90
598.54	1971.70
598.89	1963.62
599.24	1957.14
599.59	1949.63
599.94	1942.63
600.29	1934.92
600.64	1926.83
600.99	1918.72
601.34	1911.47
601.69	1902.64
602.04	1894.68
602.39	1886.48
602.74	1878.54
603.08	1871.76
603.43	1864.56
603.78	1856.62
604.13	1848.30
604.48	1840.67
604.83	1834.07
605.18	1826.86
605.53	1819.54
605.87	1812.11
606.22	1804.84
606.57	1796.73
606.92	1788.30
607.27	1780.08
607.62	1773.02
607.96	1766.10
608.31	1759.52
608.66	1751.96
609.01	1744.22
609.36	1736.49
609.70	1728.51
610.05	1720.67
610.40	1712.34
610.75	1703.59
611.10	1695.74
611.44	1686.65
611.79	1677.31
612.14	1667.67
612.49	1658.34
612.83	1649.29
613.18	1639.40
613.53	1629.90
613.88	1620.13
614.22	1611.46
614.57	1602.09
614.92	1592.40
615.27	1583.00
615.61	1573.20
615.96	1563.90
616.31	1555.27
616.65	1547.40
617.00	1539.31
617.35	1530.63
617.70	1521.55
618.04	1512.39
618.39	1503.11
618.74	1494.87
619.08	1486.27
619.43	1478.02
619.78	1469.84
620.12	1461.76
620.47	1454.04
620.82	1445.36
621.16	1437.18
621.51	1428.29
621.85	1420.04
622.20	1411.31
622.55	1402.54
622.89	1394.31
623.24	1386.30
623.59	1377.58
623.93	1368.72
624.28	1360.27
624.62	1352.12
624.97	1343.83
625.32	1336.10
625.66	1328.57
626.01	1321.00
626.35	1313.88
626.70	1306.21
627.04	1298.62
627.39	1290.90
627.73	1283.25
628.08	1276.34
628.43	1268.87
628.77	1261.53
629.12	1254.23
629.46	1247.44
629.81	1240.26
630.15	1232.92
630.50	1225.36
630.84	1218.04
631.19	1210.92
631.53	1203.49
631.88	1195.58
632.22	1188.05
632.57	1181.10
632.91	1173.56
633.26	1166.01
633.60	1158.47
633.95	1151.41
634.29	1143.90
634.64	1137.25
634.98	1130.13
635.32	1122.72
635.67	1116.11
636.01	1109.54
636.36	1102.51
636.70	1095.87
637.05	1089.38
637.39	1083.01
637.73	1076.63
638.08	1070.72
638.42	1064.56
638.77	1058.13
639.11	1051.87
639.45	1045.80
639.80	1038.95
640.14	1032.58
640.49	1026.40
640.83	1020.11
641.17	1013.62
641.52	1007.54
641.86	1000.88
642.20	994.42
642.55	987.94
642.89	981.31
643.23	974.77
643.58	968.82
643.92	962.26
644.26	955.83
644.61	949.62
644.95	943.50
645.29	937.20
645.64	930.53
645.98	924.40
646.32	918.57
646.66	912.33
647.01	906.53
647.35	900.64
647.69	894.29
648.04	888.42
648.38	882.68
648.72	876.56
649.06	870.35
649.41	864.40
649.75	858.69
650.09	852.83
650.43	846.91
650.78	840.57
651.12	834.52
651.46	828.66
651.80	822.72
652.14	816.64
652.49	810.66
652.83	804.89
653.17	798.95
653.51	793.06
653.85	787.29
654.20	781.30
654.54	775.31
654.88	769.90
655.22	763.80
655.56	757.67
655.90	751.79
656.25	746.23
656.59	740.90
656.93	735.53
657.27	730.35
657.61	724.90
657.95	719.85
658.29	714.60
658.64	709.45
658.98	704.03
659.32	698.59
659.66	693.23
660.00	687.89
660.34	682.62
660.68	677.15
661.02	672.14
661.36	667.53
661.70	662.81
662.05	657.91
662.39	653.52
662.73	649.30
663.07	645.12
663.41	640.61
663.75	635.92
664.09	631.11
664.43	626.42
664.77	622.14
665.11	617.68
665.45	613.37
665.79	608.88
666.13	604.60
666.47	600.42
666.81	596.41
667.15	592.18
667.49	588.15
667.83	584.31
668.17	580.44
668.51	576.29
668.85	572.44
669.19	568.62
669.53	564.69
669.87	560.45
670.21	556.43
670.55	552.61
670.89	549.12
671.23	545.85
671.57	542.09
671.91	538.36
672.25	534.81
672.58	531.27
672.92	527.77
673.26	524.57
673.60	521.37
673.94	518.00
674.28	514.80
674.62	511.55
674.96	508.43
675.30	505.30
675.64	502.31
675.97	499.17
676.31	496.20
676.65	493.37
676.99	490.77
677.33	487.80
677.67	484.72
678.01	481.51
678.34	478.36
678.68	475.62
679.02	472.54
679.36	469.69
679.70	466.87
680.04	463.98
680.37	460.96
680.71	458.07
681.05	455.41
681.39	452.66
681.73	450.04
682.06	447.49
682.40	444.83
682.74	442.20
683.08	439.65
683.42	437.00
683.75	434.32
684.09	431.62
684.43	429.18
684.77	426.72
685.10	424.24
685.44	421.81
685.78	419.26
686.12	417.04
686.45	414.69
686.79	412.30
687.13	410.16
687.46	408.06
687.80	405.83
688.14	403.47
688.48	401.37
688.81	399.04
689.15	396.74
689.49	394.56
689.82	392.41
690.16	389.96
690.50	387.78
690.83	385.48
691.17	383.29
691.51	381.04
691.84	378.93
692.18	376.91
692.52	375.00
692.85	373.16
693.19	371.30
693.52	369.25
693.86	367.30
694.20	365.33
694.53	363.21
694.87	361.31
695.21	359.38
695.54	357.39
695.88	355.51
696.21	353.65
696.55	351.91
696.88	350.08
697.22	348.37
697.56	346.63
697.89	345.02
698.23	343.36
698.56	341.70
698.90	340.20
699.23	338.48
699.57	336.75
699.90	335.08
700.24	333.37
700.58	331.79
700.91	330.21
701.25	328.79
701.58	327.32
701.92	325.91
702.25	324.52
702.59	323.17
702.92	321.82
703.26	320.41
703.59	318.99
703.93	317.79
704.26	316.51
704.60	315.20
704.93	313.88
705.26	312.55
705.60	311.33
705.93	309.96
706.27	308.86
706.60	307.75
706.94	306.63
707.27	305.39
707.61	304.24
707.94	303.12
708.27	301.88
708.61	300.88
708.94	299.73
709.28	298.54
709.61	297.35
709.94	296.30
710.28	295.25
710.61	294.13
710.95	292.91
711.28	291.95
711.61	290.93
711.95	290.02
712.28	289.09
712.61	288.10
712.95	287.25
713.28	286.27
713.61	285.29
713.95	284.43
714.28	283.59
714.61	282.67
714.95	281.74
715.28	280.79
715.61	279.75
715.95	278.78
716.28	277.97
716.61	277.11
716.95	276.22
717.28	275.41
717.61	274.64
717.94	273.79
718.28	272.93
718.61	272.10
718.94	271.29
719.27	270.51
719.61	269.74
719.94	268.99
720.27	268.20
720.60	267.46
720.94	266.66
721.27	265.97
721.60	265.36
721.93	264.70
722.27	264.19
722.60	263.65
722.93	263.13
723.26	262.53
723.59	261.89
723.93	261.32
724.26	260.75
724.59	260.18
724.92	259.67
725.25	259.15
725.59	258.71
725.92	258.23
726.25	257.71
726.58	257.28
726.91	256.69
727.24	256.24
727.57	255.69
727.91	255.13
728.24	254.61
728.57	254.08
728.90	253.61
729.23	253.05
729.56	252.60
729.89	252.19
730.22	251.73
730.55	251.32
730.89	250.92
731.22	250.37
731.55	249.93
731.88	249.49
732.21	248.99
732.54	248.46
732.87	247.95
733.20	247.50
733.53	247.03
733.86	246.63
734.19	246.20
734.52	245.81
734.85	245.49
735.18	245.18
735.51	244.83
735.84	244.52
736.17	244.18
736.50	243.71
736.83	243.48
737.16	243.14
737.49	242.73
737.82	242.30
738.15	242.07
738.48	241.64
738.81	241.24
739.14	240.91
739.47	240.54
739.80	240.24
740.13	239.88
740.46	239.48
740.79	239.16
741.12	238.84
741.45	238.63
741.78	238.30
742.11	237.94
742.44	237.60
742.77	237.31
743.10	237.01
743.43	236.66
743.75	236.10
744.08	235.94
744.41	235.68
744.74	235.40
745.07	234.98
745.40	234.78
745.73	234.57
746.06	234.29
746.39	234.07
746.71	233.81
747.04	233.45
747.37	233.22
747.70	232.93
748.03	232.68
748.36	232.41
748.68	232.14
749.01	231.88
749.34	231.65
749.67	231.40
750.00	231.12
750.33	231.07
750.65	230.88
750.98	230.43
751.31	230.24
751.64	230.02
751.97	229.98
752.29	229.76
752.62	229.46
752.95	229.24
753.28	228.98
753.60	228.70
753.93	228.64
754.26	228.39
754.59	228.08
754.91	227.80
755.24	227.60
755.57	227.35
755.90	227.10
756.22	226.92
756.55	226.66
756.88	226.47
757.20	226.09
757.53	225.79
757.86	225.66
758.19	225.40
758.51	225.21
758.84	224.92
759.17	224.69
759.49	224.57
759.82	224.47
760.15	224.34
760.47	224.19
760.80	223.87
761.13	223.73
761.45	223.65
761.78	223.55
762.11	223.33
762.43	223.17
762.76	223.00
763.08	222.83
763.41	222.73
763.74	222.60
764.06	222.49
764.39	222.38
764.71	222.17
765.04	222.11
765.37	221.96
765.69	221.80
766.02	221.71
766.34	221.63
766.67	221.47
767.00	221.38
767.32	221.40
767.65	221.51
767.97	221.41
768.30	221.26
768.62	221.12
768.95	221.01
769.27	220.91
769.60	220.92
769.92	220.77
770.25	220.63
770.57	220.51
770.90	220.43
771.22	220.31
771.55	220.22
771.87	220.06
772.20	220.00
772.52	220.07
772.85	220.14
773.17	219.95
773.50	219.88
773.82	219.77
774.15	219.56
774.47	219.29
774.80	219.19
775.12	219.14
775.45	219.08
775.77	219.01
776.09	218.98
776.42	218.85
776.74	218.82
777.07	218.64
777.39	218.57
777.72	218.47
778.04	218.42
778.36	218.34
778.69	218.29
779.01	218.20
779.33	217.92
779.66	217.66
779.98	217.62
780.31	217.50
780.63	217.48
780.95	217.39
781.28	217.32
781.60	217.26
781.92	217.20
782.25	217.08
782.57	217.00
782.89	216.87
783.22	216.71
783.54	216.65
783.86	216.70
784.19	216.70
784.51	216.65
784.83	216.65
785.16	216.61
785.48	216.53
785.80	216.41
786.12	216.42
786.45	216.35
786.77	216.33
787.09	216.26
787.42	216.05
787.74	216.05
788.06	216.02
788.38	215.98
788.71	215.88
789.03	215.90
789.35	215.86
789.67	215.79
789.99	215.79
790.32	215.69
790.64	215.60
790.96	215.62
791.28	215.60
791.61	215.46
791.93	215.44
792.25	215.36
792.57	215.49
792.89	215.42
793.21	215.47
793.54	215.37
793.86	215.31
794.18	215.34
794.50	215.25
794.82	215.24
795.14	215.17
795.47	215.20
795.79	215.03
796.11	214.97
796.43	214.96
796.75	214.95
797.07	214.92
797.39	214.93
797.71	214.76
798.04	214.71
798.36	214.70
798.68	214.64
799.00	214.63
799.32	214.50
799.64	214.50
799.96	214.41
800.28	214.40
800.60	214.44
800.92	214.42
801.24	214.35
801.56	214.33
801.89	214.29
802.21	214.21
802.53	214.23
802.85	214.22
803.17	214.33
803.49	214.28
803.81	214.23
804.13	214.16
804.45	214.08
804.77	214.04
805.09	214.04
805.41	214.01
805.73	214.03
806.05	214.00
806.37	213.93
806.69	213.96
807.01	213.90
807.33	213.78
807.65	213.76
807.97	213.88
808.28	213.85
808.60	213.84
808.92	213.83
809.24	213.88
809.56	213.89
809.88	213.69
810.20	213.68
810.52	213.75
810.84	213.65
811.16	213.68
811.48	213.61
811.80	213.63
812.12	213.58
812.43	213.59
812.75	213.59
813.07	213.51
813.39	213.38
813.71	213.35
814.03	213.39
814.35	213.33
814.67	213.17
814.98	213.10
815.30	213.08
815.62	212.98
815.94	212.84
816.26	212.74
816.58	212.71
816.89	212.67
817.21	212.57
817.53	212.63
817.85	212.58
818.17	212.61
818.48	212.50
818.80	212.49
819.12	212.44
819.44	212.39
819.76	212.40
820.07	212.45
820.39	212.52
820.71	212.46
821.03	212.50
821.34	212.44
821.66	212.45
821.98	212.47
822.30	212.47
822.61	212.67
822.93	212.67
823.25	212.66
823.57	212.63
823.88	212.69
824.20	212.71
824.52	212.75
824.83	212.68
825.15	212.74
825.47	212.71
825.79	212.70
826.10	212.67
826.42	212.65
826.74	212.55
827.05	212.50
827.37	212.52
827.69	212.44
828.00	212.53
828.32	212.49
828.64	212.38
828.95	212.54
829.27	212.41
829.58	212.35
829.90	212.38
830.22	212.38
830.53	212.36
830.85	212.30
831.17	212.25
831.48	212.27
831.80	212.20
832.11	212.25
832.43	212.18
832.75	212.17
833.06	212.23
833.38	212.23
833.69	212.22
834.01	212.19
834.32	212.16
834.64	212.07
834.96	212.06
835.27	212.11
835.59	212.00
835.90	211.99
836.22	212.06
836.53	212.03
836.85	212.09
837.16	212.15
837.48	212.20
837.79	212.24
838.11	212.31
838.42	212.30
838.74	212.31
839.05	212.38
839.37	212.39
839.68	212.32
840.00	212.34
840.31	212.41
840.63	212.47
840.94	212.52
841.26	212.51
841.57	212.55
841.88	212.50
842.20	212.48
842.51	212.44
842.83	212.42
843.14	212.56
843.46	212.54
843.77	212.46
844.08	212.42
844.40	212.35
844.71	212.29
845.03	212.32
845.34	212.21
845.65	212.08
845.97	212.08
846.28	212.10
846.60	212.07
846.91	211.92
847.22	211.90
847.54	211.93
847.85	212.00
848.16	212.02
848.48	212.03
848.79	212.09
849.10	212.19
849.42	212.21
849.73	212.10
850.04	212.05
850.36	212.02
850.67	212.09
850.98	212.06
851.30	212.04
851.61	211.97
851.92	212.02
852.23	212.15
852.55	212.13
852.86	212.08
853.17	212.09
853.49	212.16
853.80	212.12
854.11	212.06
854.42	212.08
854.74	212.00
855.05	212.00
855.36	211.92
855.67	211.84
855.99	211.78
856.30	211.93
856.61	211.85
856.92	211.83
857.23	211.80
857.55	211.80
857.86	211.79
858.17	211.85
858.48	211.82
858.79	211.80
859.11	211.88
859.42	211.90
859.73	211.93
860.04	211.92
860.35	211.90
860.66	211.86
860.98	211.81
861.29	211.86
861.60	211.85
861.91	211.92
862.22	211.93
862.53	211.88
862.84	211.72
863.16	211.86
863.47	211.81
863.78	211.78
864.09	211.78
864.40	211.82
864.71	211.80
865.02	211.83
865.33	211.81
865.64	211.76
865.95	211.72
866.27	211.79
866.58	211.69
866.89	211.71
867.20	211.70
867.51	211.62
867.82	211.59
868.13	211.59
868.44	211.50
868.75	211.49
869.06	211.60
869.37	211.53
869.68	211.42
869.99	211.48
870.30	211.46
870.61	211.48
870.92	211.39
871.23	211.36
871.54	211.38
871.85	211.39
872.16	211.33
872.47	211.25
872.78	211.17
873.09	211.23
873.40	211.19
873.71	211.22
874.02	211.34
874.33	211.32
874.64	211.27
874.95	211.26
875.26	211.20
875.56	211.14
875.87	211.19
876.18	211.18
876.49	211.36
876.80	211.38
877.11	211.37
877.42	211.38
877.73	211.41
878.04	211.36
878.35	211.38
878.66	211.40
878.96	211.46
879.27	211.44
879.58	211.46
879.89	211.49
880.20	211.47
880.51	211.45
880.82	211.45
881.12	211.53
881.43	211.50
881.74	211.55
882.05	211.54
882.36	211.55
882.67	211.64
882.97	211.41
883.28	211.40
883.59	211.40
883.90	211.39
884.21	211.38
884.51	211.38
884.82	211.34
885.13	211.33
885.44	211.40
885.74	211.43
886.05	211.43
886.36	211.45
886.67	211.40
886.98	211.45
887.28	211.50
887.59	211.46
887.90	211.49
888.20	211.50
888.51	211.52
888.82	211.46
889.13	211.48
889.43	211.66
889.74	211.61
890.05	211.56
890.35	211.52
890.66	211.50
890.97	211.51
891.28	211.43
891.58	211.49
891.89	211.39
892.20	211.35
892.50	211.35
892.81	211.26
893.12	211.30
893.42	211.30
893.73	211.25
894.04	211.22
894.34	211.29
894.65	211.25
894.95	211.26
895.26	211.30
895.57	211.37
895.87	211.21
896.18	211.25
896.48	211.27
896.79	211.41
897.10	211.45
897.40	211.44
897.71	211.50
898.01	211.44
898.32	211.59
898.63	211.54
898.93	211.52
899.24	211.59
899.54	211.58
899.85	211.54
900.15	211.54
900.46	211.55
900.76	211.49
901.07	211.48
901.38	211.51
901.68	211.56
901.99	211.40
902.29	211.45
902.60	211.42
902.90	211.41
903.21	211.35
903.51	211.31
903.82	211.35
904.12	211.44
904.43	211.49
904.73	211.45
905.03	211.52
905.34	211.68
905.64	211.65
905.95	211.66
906.25	211.63
906.56	211.58
906.86	211.65
907.17	211.67
907.47	211.71
907.77	211.62
908.08	211.52
908.38	211.60
908.69	211.62
908.99	211.72
909.30	211.76
909.60	211.80
909.90	211.87
910.21	211.79
910.51	211.70
910.81	211.68
911.12	211.66
911.42	211.65
911.73	211.49
912.03	211.50
912.33	211.53
912.64	211.53
912.94	211.56
913.24	211.46
913.55	211.37
913.85	211.34
914.15	211.39
914.46	211.47
914.76	211.35
915.06	211.27
915.37	211.13
915.67	211.09
915.97	211.07
916.27	211.01
916.58	211.04
916.88	211.00
917.18	210.97
917.49	211.09
917.79	211.06
918.09	211.01
918.39	211.05
918.70	211.00
919.00	211.00
919.30	211.05
919.60	211.02
919.91	211.13
920.21	211.12
920.51	211.07
920.81	211.10
921.12	211.23
921.42	211.25
921.72	211.30
922.02	211.28
922.32	211.25
922.63	211.23
922.93	211.34
923.23	211.34
923.53	211.26
923.83	211.16
924.13	211.16
924.44	211.16
924.74	211.14
925.04	211.15
925.34	211.13
925.64	211.02
925.94	211.10
926.24	211.14
926.55	211.14
926.85	211.23
927.15	211.22
927.45	211.14
927.75	211.11
928.05	211.10
928.35	211.15
928.65	211.23
928.95	211.29
929.26	211.19
929.56	211.22
929.86	211.35
930.16	211.26
930.46	211.16
930.76	211.27
931.06	211.25
931.36	211.25
931.66	211.27
931.96	211.35
932.26	211.30
932.56	211.21
932.86	211.16
933.16	211.07
933.46	211.04
933.76	210.98
934.06	211.05
934.36	211.18
934.66	211.13
934.96	211.10
935.26	211.10
935.56	211.21
935.86	211.19
936.16	211.11
936.46	211.13
936.76	211.22
937.06	211.12
937.36	211.10
937.66	211.07
937.96	211.06
938.26	211.03
938.56	211.02
938.86	211.07
939.16	211.10
939.46	211.07
939.76	211.08
940.06	211.13
940.35	211.13
940.65	210.94
940.95	210.94
941.25	210.88
941.55	210.80
941.85	210.66
942.15	210.68
942.45	210.68
942.75	210.72
943.04	210.80
943.34	210.90
943.64	210.97
943.94	210.95
944.24	210.98
944.54	210.98
944.84	210.99
945.13	210.95
945.43	211.00
945.73	211.01
946.03	210.96
946.33	210.92
946.62	210.81
946.92	210.84
947.22	210.92
947.52	210.95
947.82	210.94
948.11	210.94
948.41	210.90
948.71	210.87
949.01	210.81
949.31	210.69
949.60	210.64
949.90	210.65
950.20	210.69
950.50	210.67
950.79	210.67
951.09	210.66
951.39	210.65
951.69	210.58
951.98	210.64
952.28	210.68
952.58	210.73
952.87	210.75
953.17	210.83
953.47	210.68
953.76	210.61
954.06	210.54
954.36	210.57
954.66	210.61
954.95	210.66
955.25	210.71
955.55	210.79
955.84	210.70
956.14	210.70
956.44	210.66
956.73	210.60
957.03	210.51
957.32	210.48
957.62	210.48
957.92	210.51
958.21	210.51
958.51	210.73
958.81	210.69
959.10	210.68
959.40	210.64
959.69	210.73
959.99	210.81
960.29	210.80
960.58	210.80
960.88	210.80
961.17	210.72
961.47	210.70
961.76	210.56
962.06	210.60
962.36	210.55
962.65	210.58
962.95	210.54
963.24	210.65
963.54	210.69
963.83	210.74
964.13	210.72
964.42	210.62
964.72	210.45
965.01	210.50
965.31	210.49
965.60	210.46
965.90	210.59
966.19	210.50
966.49	210.53
966.78	210.49
967.08	210.48
967.37	210.51
967.67	210.48
967.96	210.62
968.26	210.62
968.55	210.64
968.85	210.63
969.14	210.65
969.43	210.58
969.73	210.57
970.02	210.49
970.32	210.50
970.61	210.45
970.91	210.33
971.20	210.33
971.49	210.33
971.79	210.32
972.08	210.17
972.38	210.20
972.67	210.27
972.96	210.33
973.26	210.39
973.55	210.50
973.85	210.55
974.14	210.54
974.43	210.55
974.73	210.50
975.02	210.54
975.31	210.59
975.61	210.59
975.90	210.58
976.19	210.56
976.49	210.53
976.78	210.61
977.07	210.65
977.37	210.58
977.66	210.61
977.95	210.62
978.24	210.69
978.54	210.73
978.83	210.66
979.12	210.63
979.42	210.59
979.71	210.49
980.00	210.41
980.29	210.42
980.59	210.39
980.88	210.44
981.17	210.42
981.46	210.42
981.76	210.49
982.05	210.50
982.34	210.60
982.63	210.62
982.93	210.64
983.22	210.74
983.51	210.75
983.80	210.83
984.09	210.85
984.39	210.80
984.68	210.73
984.97	210.82
985.26	210.83
985.55	210.80
985.85	210.75
986.14	210.77
986.43	210.75
986.72	210.75
987.01	210.72
987.30	210.77
987.59	210.79
987.89	210.78
988.18	210.79
988.47	210.71
988.76	210.70
989.05	210.70
989.34	210.63
989.63	210.69
989.92	210.62
990.22	210.62
990.51	210.59
990.80	210.58
991.09	210.51
991.38	210.53
991.67	210.53
991.96	210.53
992.25	210.60
992.54	210.58
992.83	210.56
993.12	210.53
993.41	210.48
993.70	210.55
993.99	210.56
994.28	210.57
994.58	210.61
994.87	210.61
995.16	210.58
995.45	210.57
995.74	210.45
996.03	210.53
996.32	210.51
996.61	210.53
996.90	210.57
997.19	210.62
997.48	210.57
997.77	210.56
998.06	210.54
998.34	210.50
998.63	210.52
998.92	210.48
999.21	210.50
999.50	210.52
999.79	210.44
1000.08	210.40
1000.37	210.45
1000.66	210.43
1000.95	210.44
1001.24	210.47
1001.53	210.48
1001.82	210.50
1002.11	210.40
1002.40	210.41
1002.68	210.44
1002.97	210.63
1003.26	210.57
1003.55	210.57
1003.84	210.59
1004.13	210.70
1004.42	210.67
1004.71	210.65
1004.99	210.77
1005.28	210.87
1005.57	210.81
1005.86	210.83
1006.15	210.86
1006.44	210.76
1006.72	210.79
1007.01	210.76
1007.30	210.78
1007.59	210.73
1007.88	210.80
1008.17	210.78
1008.45	210.79
1008.74	210.76
1009.03	210.59
1009.32	210.56
1009.60	210.53
1009.89	210.53
1010.18	210.47
1010.47	210.47
1010.76	210.52
1011.04	210.43
1011.33	210.46
1011.62	210.53
1011.91	210.52
1012.19	210.47
1012.48	210.47
1012.77	210.43
1013.05	210.57
1013.34	210.60
1013.63	210.69
1013.92	210.64
1014.20	210.67
1014.49	210.65
1014.78	210.65
1015.06	210.65
1015.35	210.71
1015.64	210.85
1015.92	210.85
1016.21	210.87
1016.50	210.90
1016.78	210.90
1017.07	210.93
1017.36	210.87
1017.64	210.82
1017.93	210.84
1018.22	210.90
1018.50	210.97
1018.79	211.05
1019.08	210.97
1019.36	210.91
1019.65	210.88
1019.93	210.90
1020.22	210.91
1020.51	211.01
1020.79	210.96
1021.08	211.35
1021.36	210.95
1021.65	211.90
1021.94	211.20
1022.22	210.45
1022.51	211.15
1022.79	210.50
1023.08	210.45
1023.36	212.20
1023.65	209.80
>>>>>End Processed Spectral Data<<<<<
