SpectraSuite Data File
++++++++++++++++++++++++++++++++++++
Date: Mon Feb 25 17:35:20 EST 2013
User: group
Dark Spectrum Present: No
Reference Spectrum Present: No
Number of Sampled Component Spectra: 1
Spectrometers: USB2E7196
Integration Time (usec): 52000 (USB2E7196)
Spectra Averaged: 20 (USB2E7196)
Boxcar Smoothing: 10 (USB2E7196)
Correct for Electrical Dark: No (USB2E7196)
Strobe/Lamp Enabled: No (USB2E7196)
Correct for Detector Non-linearity: No (USB2E7196)
Correct for Stray Light: No (USB2E7196)
Number of Pixels in Processed Spectrum: 2048
>>>>>Begin Processed Spectral Data<<<<<
339.09	0.00
339.48	198.20
339.86	201.10
340.24	201.05
340.63	203.35
341.01	207.00
341.39	205.60
341.78	206.30
342.16	209.40
342.54	208.50
342.93	197.82
343.31	207.80
343.69	208.39
344.07	208.76
344.46	209.23
344.84	209.53
345.22	209.70
345.60	209.97
345.99	210.18
346.37	210.25
346.75	210.34
347.13	210.40
347.52	210.45
347.90	210.56
348.28	210.54
348.66	210.61
349.05	210.59
349.43	210.68
349.81	210.72
350.19	210.77
350.57	210.89
350.96	210.98
351.34	211.09
351.72	211.10
352.10	211.28
352.48	211.30
352.87	211.40
353.25	211.45
353.63	211.53
354.01	211.45
354.39	211.51
354.77	211.61
355.15	211.73
355.54	211.85
355.92	211.89
356.30	212.01
356.68	212.22
357.06	212.33
357.44	212.28
357.82	212.31
358.20	212.40
358.58	212.52
358.97	212.55
359.35	212.67
359.73	212.81
360.11	212.85
360.49	212.96
360.87	213.07
361.25	213.19
361.63	213.30
362.01	213.57
362.39	213.64
362.77	213.70
363.15	213.74
363.53	213.80
363.91	213.82
364.29	213.85
364.67	213.68
365.05	213.72
365.43	213.84
365.81	213.94
366.19	214.10
366.57	214.21
366.95	214.25
367.33	214.25
367.71	214.33
368.09	214.39
368.47	214.41
368.85	214.44
369.23	214.41
369.61	214.37
369.99	214.43
370.37	214.44
370.75	214.56
371.13	214.45
371.51	214.47
371.89	214.49
372.27	214.49
372.65	214.50
373.03	214.50
373.41	214.46
373.78	214.37
374.16	214.22
374.54	214.13
374.92	214.12
375.30	214.04
375.68	213.92
376.06	213.86
376.44	213.80
376.82	213.64
377.19	213.64
377.57	213.54
377.95	213.38
378.33	213.30
378.71	213.15
379.09	213.21
379.47	213.14
379.84	213.06
380.22	213.02
380.60	212.95
380.98	212.87
381.36	212.78
381.73	212.73
382.11	212.75
382.49	212.68
382.87	212.62
383.25	212.58
383.62	212.72
384.00	212.66
384.38	212.62
384.76	212.66
385.13	212.71
385.51	212.67
385.89	212.58
386.27	212.54
386.64	212.50
387.02	212.38
387.40	212.35
387.78	212.36
388.15	212.37
388.53	212.30
388.91	212.26
389.29	212.26
389.66	212.30
390.04	212.19
390.42	212.15
390.79	212.14
391.17	212.13
391.55	211.92
391.92	211.87
392.30	211.85
392.68	211.83
393.05	211.76
393.43	211.74
393.81	211.77
394.18	211.72
394.56	211.70
394.94	211.69
395.31	211.62
395.69	211.60
396.06	211.53
396.44	211.59
396.82	211.63
397.19	211.66
397.57	211.68
397.95	211.70
398.32	211.67
398.70	211.68
399.07	211.73
399.45	211.72
399.82	211.77
400.20	211.77
400.58	211.78
400.95	211.75
401.33	211.90
401.70	212.03
402.08	212.16
402.45	212.26
402.83	212.44
403.20	212.60
403.58	212.67
403.95	212.80
404.33	212.90
404.71	212.97
405.08	213.20
405.46	213.22
405.83	213.33
406.21	213.49
406.58	213.60
406.96	213.75
407.33	214.00
407.70	214.22
408.08	214.59
408.45	214.85
408.83	215.12
409.20	215.30
409.58	215.48
409.95	215.71
410.33	215.99
410.70	216.20
411.08	216.50
411.45	216.88
411.82	217.27
412.20	217.66
412.57	218.15
412.95	218.48
413.32	219.03
413.69	219.60
414.07	220.19
414.44	220.81
414.82	221.50
415.19	222.21
415.56	222.88
415.94	223.54
416.31	224.45
416.68	225.31
417.06	226.35
417.43	227.30
417.81	228.42
418.18	229.58
418.55	230.76
418.93	232.06
419.30	233.31
419.67	234.71
420.04	236.19
420.42	237.68
420.79	239.53
421.16	241.30
421.54	243.15
421.91	245.01
422.28	246.95
422.66	249.02
423.03	251.13
423.40	253.29
423.77	255.56
424.15	257.72
424.52	260.12
424.89	262.72
425.26	265.23
425.64	267.61
426.01	270.15
426.38	272.86
426.75	275.68
427.13	278.60
427.50	281.56
427.87	284.67
428.24	287.76
428.61	290.63
428.99	293.91
429.36	297.39
429.73	300.89
430.10	304.46
430.47	307.91
430.85	311.50
431.22	315.46
431.59	319.69
431.96	323.75
432.33	328.17
432.70	332.25
433.08	337.25
433.45	341.94
433.82	346.64
434.19	351.82
434.56	356.74
434.93	361.54
435.30	366.31
435.68	371.67
436.05	377.05
436.42	382.25
436.79	387.02
437.16	392.16
437.53	397.49
437.90	402.90
438.27	408.18
438.64	413.55
439.01	418.49
439.38	422.90
439.75	427.19
440.13	431.95
440.50	436.63
440.87	440.34
441.24	444.15
441.61	448.42
441.98	451.54
442.35	455.24
442.72	458.92
443.09	462.60
443.46	464.56
443.83	465.75
444.20	466.95
444.57	468.72
444.94	469.50
445.31	470.23
445.68	470.87
446.05	471.03
446.42	470.40
446.79	469.54
447.16	468.68
447.53	467.97
447.90	465.97
448.27	463.85
448.64	460.95
449.01	458.96
449.37	455.25
449.74	451.59
450.11	447.36
450.48	442.78
450.85	437.98
451.22	434.04
451.59	430.38
451.96	426.87
452.33	421.99
452.70	417.60
453.07	412.52
453.43	407.26
453.80	402.25
454.17	397.46
454.54	393.00
454.91	388.07
455.28	383.32
455.65	378.73
456.02	374.37
456.38	370.63
456.75	365.80
457.12	361.91
457.49	358.17
457.86	354.43
458.23	351.17
458.59	347.73
458.96	344.20
459.33	340.98
459.70	337.62
460.07	335.11
460.43	332.20
460.80	329.42
461.17	327.01
461.54	324.54
461.91	322.15
462.27	319.76
462.64	317.70
463.01	315.42
463.38	313.40
463.74	311.14
464.11	309.13
464.48	307.54
464.85	305.76
465.21	304.43
465.58	303.03
465.95	301.31
466.32	299.79
466.68	298.36
467.05	296.99
467.42	295.67
467.78	294.14
468.15	292.75
468.52	291.81
468.88	290.50
469.25	289.36
469.62	288.43
469.98	287.43
470.35	286.50
470.72	285.71
471.08	284.74
471.45	283.95
471.82	283.23
472.18	282.36
472.55	281.76
472.92	280.94
473.28	280.30
473.65	279.68
474.02	279.24
474.38	278.82
474.75	278.45
475.11	277.99
475.48	277.75
475.85	277.54
476.21	277.34
476.58	277.15
476.94	277.11
477.31	277.11
477.67	276.99
478.04	277.08
478.41	277.09
478.77	277.36
479.14	277.50
479.50	277.78
479.87	278.20
480.23	278.59
480.60	279.06
480.96	279.45
481.33	280.19
481.69	280.74
482.06	281.38
482.42	282.01
482.79	282.75
483.15	283.60
483.52	284.61
483.88	285.50
484.25	286.45
484.61	287.49
484.98	288.52
485.34	289.90
485.71	291.22
486.07	292.70
486.44	293.95
486.80	295.46
487.17	297.07
487.53	298.75
487.90	300.65
488.26	302.64
488.62	304.73
488.99	306.64
489.35	308.80
489.72	310.96
490.08	313.42
490.44	315.91
490.81	318.56
491.17	321.19
491.54	324.07
491.90	327.10
492.26	330.30
492.63	333.71
492.99	337.19
493.36	340.79
493.72	344.67
494.08	348.73
494.45	353.00
494.81	357.43
495.17	362.06
495.54	366.85
495.90	371.83
496.26	377.02
496.63	382.65
496.99	388.31
497.35	394.41
497.72	400.63
498.08	407.25
498.44	414.03
498.80	421.26
499.17	428.63
499.53	436.38
499.89	444.32
500.26	452.39
500.62	460.56
500.98	469.53
501.34	478.56
501.71	488.11
502.07	497.74
502.43	507.78
502.79	517.99
503.16	528.67
503.52	539.65
503.88	550.91
504.24	562.40
504.60	574.43
504.97	586.77
505.33	599.46
505.69	612.73
506.05	626.16
506.41	639.73
506.78	653.60
507.14	667.83
507.50	682.42
507.86	697.53
508.22	713.21
508.59	728.89
508.95	744.80
509.31	760.99
509.67	777.74
510.03	794.78
510.39	812.57
510.75	830.31
511.12	848.48
511.48	867.13
511.84	885.97
512.20	904.78
512.56	924.24
512.92	943.67
513.28	963.18
513.64	983.04
514.00	1003.02
514.37	1023.67
514.73	1044.60
515.09	1065.66
515.45	1086.57
515.81	1107.65
516.17	1128.83
516.53	1150.38
516.89	1172.23
517.25	1193.96
517.61	1215.85
517.97	1237.28
518.33	1258.95
518.69	1280.86
519.05	1302.94
519.41	1325.06
519.77	1347.71
520.13	1369.59
520.49	1391.86
520.85	1414.67
521.21	1437.60
521.57	1460.92
521.93	1482.73
522.29	1505.50
522.65	1528.12
523.01	1551.01
523.37	1573.56
523.73	1596.22
524.09	1618.62
524.45	1640.96
524.81	1663.44
525.17	1685.95
525.53	1708.64
525.89	1731.36
526.25	1753.63
526.61	1775.22
526.97	1797.25
527.33	1818.69
527.68	1840.65
528.04	1861.99
528.40	1882.71
528.76	1903.44
529.12	1923.94
529.48	1946.35
529.84	1967.05
530.20	1987.44
530.56	2008.06
530.91	2028.88
531.27	2049.49
531.63	2069.55
531.99	2089.68
532.35	2109.32
532.71	2128.49
533.07	2148.19
533.42	2167.06
533.78	2186.30
534.14	2204.99
534.50	2222.41
534.86	2240.82
535.21	2257.81
535.57	2275.92
535.93	2293.29
536.29	2310.22
536.65	2327.45
537.00	2342.49
537.36	2358.02
537.72	2373.55
538.08	2388.97
538.44	2404.28
538.79	2419.66
539.15	2435.06
539.51	2449.81
539.87	2465.36
540.22	2479.99
540.58	2494.98
540.94	2509.54
541.29	2522.32
541.65	2534.92
542.01	2548.44
542.37	2560.33
542.72	2573.16
543.08	2584.38
543.44	2596.65
543.79	2607.41
544.15	2617.68
544.51	2629.52
544.87	2640.93
545.22	2650.58
545.58	2659.24
545.94	2666.65
546.29	2673.18
546.65	2679.81
547.01	2686.13
547.36	2691.77
547.72	2697.45
548.07	2701.46
548.43	2705.33
548.79	2709.45
549.14	2714.11
549.50	2718.55
549.86	2723.03
550.21	2726.91
550.57	2731.33
550.92	2733.93
551.28	2736.80
551.64	2739.41
551.99	2742.04
552.35	2743.62
552.70	2746.57
553.06	2749.46
553.41	2752.51
553.77	2755.95
554.13	2758.31
554.48	2760.58
554.84	2762.37
555.19	2763.20
555.55	2764.18
555.90	2764.89
556.26	2765.45
556.61	2765.60
556.97	2764.46
557.32	2764.16
557.68	2762.72
558.03	2761.21
558.39	2759.89
558.74	2759.59
559.10	2758.58
559.45	2756.36
559.81	2755.06
560.16	2752.26
560.52	2750.08
560.87	2747.73
561.23	2743.99
561.58	2741.64
561.94	2738.44
562.29	2734.85
562.64	2732.71
563.00	2730.07
563.35	2728.17
563.71	2726.66
564.06	2724.77
564.42	2723.06
564.77	2720.69
565.12	2718.58
565.48	2715.21
565.83	2712.27
566.19	2708.93
566.54	2704.53
566.89	2700.65
567.25	2697.03
567.60	2693.88
567.96	2690.05
568.31	2686.45
568.66	2682.76
569.02	2678.06
569.37	2673.12
569.72	2668.89
570.08	2663.41
570.43	2658.00
570.78	2651.98
571.14	2645.50
571.49	2638.30
571.84	2632.30
572.20	2625.03
572.55	2618.53
572.90	2611.64
573.26	2604.53
573.61	2597.35
573.96	2590.90
574.31	2583.30
574.67	2575.08
575.02	2566.58
575.37	2558.10
575.72	2549.28
576.08	2541.41
576.43	2532.81
576.78	2525.12
577.13	2517.13
577.49	2508.94
577.84	2500.86
578.19	2493.10
578.54	2485.76
578.90	2479.15
579.25	2470.40
579.60	2461.17
579.95	2451.99
580.30	2444.23
580.66	2435.89
581.01	2426.37
581.36	2416.96
581.71	2408.40
582.06	2399.96
582.42	2391.55
582.77	2381.97
583.12	2372.50
583.47	2363.73
583.82	2355.15
584.17	2345.48
584.53	2336.25
584.88	2327.30
585.23	2318.09
585.58	2308.42
585.93	2298.25
586.28	2288.75
586.63	2279.65
586.98	2271.43
587.34	2262.82
587.69	2253.60
588.04	2244.55
588.39	2236.53
588.74	2227.56
589.09	2218.80
589.44	2209.24
589.79	2200.53
590.14	2192.84
590.49	2184.24
590.84	2175.03
591.19	2166.64
591.54	2157.85
591.89	2147.64
592.25	2138.42
592.60	2129.05
592.95	2119.59
593.30	2110.10
593.65	2100.20
594.00	2090.73
594.35	2082.04
594.70	2072.72
595.05	2063.87
595.40	2054.88
595.75	2045.08
596.10	2036.90
596.45	2028.19
596.80	2020.11
597.15	2011.72
597.50	2002.44
597.85	1993.74
598.19	1984.88
598.54	1976.21
598.89	1968.58
599.24	1961.90
599.59	1954.47
599.94	1947.26
600.29	1939.49
600.64	1931.63
600.99	1923.06
601.34	1915.62
601.69	1906.78
602.04	1898.65
602.39	1890.30
602.74	1882.14
603.08	1875.52
603.43	1867.93
603.78	1859.68
604.13	1851.63
604.48	1843.53
604.83	1836.56
605.18	1829.83
605.53	1822.14
605.87	1814.67
606.22	1807.20
606.57	1799.25
606.92	1791.05
607.27	1782.63
607.62	1775.21
607.96	1768.32
608.31	1762.12
608.66	1754.02
609.01	1746.70
609.36	1738.79
609.70	1730.80
610.05	1723.05
610.40	1714.50
610.75	1705.89
611.10	1698.26
611.44	1688.79
611.79	1679.55
612.14	1669.83
612.49	1660.27
612.83	1651.45
613.18	1641.34
613.53	1631.71
613.88	1621.79
614.22	1612.78
614.57	1603.55
614.92	1594.09
615.27	1584.60
615.61	1574.54
615.96	1565.45
616.31	1556.54
616.65	1548.56
617.00	1540.06
617.35	1531.30
617.70	1522.36
618.04	1513.36
618.39	1504.05
618.74	1495.54
619.08	1486.91
619.43	1478.82
619.78	1470.55
620.12	1462.38
620.47	1454.76
620.82	1446.25
621.16	1437.97
621.51	1429.36
621.85	1420.92
622.20	1412.09
622.55	1403.49
622.89	1395.37
623.24	1387.40
623.59	1378.58
623.93	1369.69
624.28	1361.36
624.62	1353.16
624.97	1344.65
625.32	1336.73
625.66	1328.95
626.01	1321.76
626.35	1314.36
626.70	1306.52
627.04	1299.30
627.39	1291.72
627.73	1283.98
628.08	1276.96
628.43	1269.42
628.77	1261.90
629.12	1254.64
629.46	1248.09
629.81	1240.88
630.15	1233.23
630.50	1225.73
630.84	1218.70
631.19	1211.42
631.53	1204.45
631.88	1196.75
632.22	1189.36
632.57	1182.45
632.91	1175.02
633.26	1167.54
633.60	1160.38
633.95	1153.28
634.29	1145.63
634.64	1138.76
634.98	1131.44
635.32	1124.28
635.67	1117.73
636.01	1111.13
636.36	1104.04
636.70	1097.19
637.05	1090.48
637.39	1084.23
637.73	1077.87
638.08	1071.95
638.42	1066.30
638.77	1059.73
639.11	1053.39
639.45	1047.37
639.80	1040.66
640.14	1034.17
640.49	1027.69
640.83	1021.33
641.17	1014.81
641.52	1008.60
641.86	1001.92
642.20	995.77
642.55	988.89
642.89	982.26
643.23	975.90
643.58	970.03
643.92	963.54
644.26	957.32
644.61	951.15
644.95	944.85
645.29	938.37
645.64	931.51
645.98	925.16
646.32	919.20
646.66	912.77
647.01	906.83
647.35	900.95
647.69	894.75
648.04	888.93
648.38	883.13
648.72	877.13
649.06	871.03
649.41	864.93
649.75	859.26
650.09	853.48
650.43	847.33
650.78	841.17
651.12	834.99
651.46	829.05
651.80	823.01
652.14	817.11
652.49	811.09
652.83	805.24
653.17	799.05
653.51	793.21
653.85	787.64
654.20	781.68
654.54	775.67
654.88	770.08
655.22	763.94
655.56	758.05
655.90	752.23
656.25	746.60
656.59	741.18
656.93	735.94
657.27	730.78
657.61	725.43
657.95	720.13
658.29	715.12
658.64	709.84
658.98	704.59
659.32	699.07
659.66	694.01
660.00	688.65
660.34	683.49
660.68	678.38
661.02	673.25
661.36	668.51
661.70	663.83
662.05	659.08
662.39	654.73
662.73	650.30
663.07	645.80
663.41	641.45
663.75	636.83
664.09	632.03
664.43	627.02
664.77	622.61
665.11	618.04
665.45	613.59
665.79	609.20
666.13	604.76
666.47	600.54
666.81	596.38
667.15	592.23
667.49	588.53
667.83	584.46
668.17	580.57
668.51	576.58
668.85	572.67
669.19	568.92
669.53	564.78
669.87	560.76
670.21	556.89
670.55	552.80
670.89	549.31
671.23	545.92
671.57	542.60
671.91	538.91
672.25	535.43
672.58	531.66
672.92	528.35
673.26	525.15
673.60	521.95
673.94	518.46
674.28	515.36
674.62	511.91
674.96	508.71
675.30	505.52
675.64	502.25
675.97	499.18
676.31	496.16
676.65	493.34
676.99	490.56
677.33	487.59
677.67	484.73
678.01	481.58
678.34	478.53
678.68	475.52
679.02	472.49
679.36	469.76
679.70	467.21
680.04	464.20
680.37	461.22
680.71	458.35
681.05	455.70
681.39	452.87
681.73	450.29
682.06	447.90
682.40	445.34
682.74	442.78
683.08	440.12
683.42	437.36
683.75	434.81
684.09	432.15
684.43	429.62
684.77	427.12
685.10	424.54
685.44	421.94
685.78	419.52
686.12	417.41
686.45	414.97
686.79	412.61
687.13	410.40
687.46	408.17
687.80	405.95
688.14	403.58
688.48	401.41
688.81	399.18
689.15	396.86
689.49	394.56
689.82	392.32
690.16	389.99
690.50	387.76
690.83	385.48
691.17	383.20
691.51	381.02
691.84	378.90
692.18	376.95
692.52	375.13
692.85	373.11
693.19	371.09
693.52	369.06
693.86	366.95
694.20	365.23
694.53	363.28
694.87	361.32
695.21	359.47
695.54	357.47
695.88	355.51
696.21	353.62
696.55	351.88
696.88	350.07
697.22	348.26
697.56	346.68
697.89	345.06
698.23	343.36
698.56	341.81
698.90	340.27
699.23	338.65
699.57	336.84
699.90	335.28
700.24	333.55
700.58	331.97
700.91	330.63
701.25	329.07
701.58	327.66
701.92	326.20
702.25	324.76
702.59	323.36
702.92	322.02
703.26	320.67
703.59	319.42
703.93	318.24
704.26	317.04
704.60	315.73
704.93	314.37
705.26	313.22
705.60	312.02
705.93	310.68
706.27	309.48
706.60	308.38
706.94	307.16
707.27	306.09
707.61	304.99
707.94	303.67
708.27	302.38
708.61	301.23
708.94	300.11
709.28	298.89
709.61	297.83
709.94	296.83
710.28	295.74
710.61	294.64
710.95	293.51
711.28	292.55
711.61	291.42
711.95	290.45
712.28	289.39
712.61	288.33
712.95	287.47
713.28	286.52
713.61	285.58
713.95	284.69
714.28	283.76
714.61	282.80
714.95	281.89
715.28	280.88
715.61	279.90
715.95	279.02
716.28	278.25
716.61	277.46
716.95	276.58
717.28	275.74
717.61	274.83
717.94	274.00
718.28	273.14
718.61	272.42
718.94	271.60
719.27	270.85
719.61	270.06
719.94	269.27
720.27	268.45
720.60	267.70
720.94	266.94
721.27	266.22
721.60	265.55
721.93	264.96
722.27	264.42
722.60	263.83
722.93	263.15
723.26	262.58
723.59	261.87
723.93	261.22
724.26	260.64
724.59	260.06
724.92	259.52
725.25	258.97
725.59	258.32
725.92	257.91
726.25	257.42
726.58	256.97
726.91	256.43
727.24	255.99
727.57	255.49
727.91	255.01
728.24	254.55
728.57	254.03
728.90	253.57
729.23	253.07
729.56	252.62
729.89	252.19
730.22	251.67
730.55	251.29
730.89	250.86
731.22	250.36
731.55	249.90
731.88	249.46
732.21	248.99
732.54	248.68
732.87	248.18
733.20	247.73
733.53	247.28
733.86	246.86
734.19	246.34
734.52	245.95
734.85	245.65
735.18	245.27
735.51	244.94
735.84	244.49
736.17	244.09
736.50	243.70
736.83	243.53
737.16	243.14
737.49	242.74
737.82	242.35
738.15	242.00
738.48	241.68
738.81	241.33
739.14	241.00
739.47	240.59
739.80	240.25
740.13	239.85
740.46	239.53
740.79	239.15
741.12	238.86
741.45	238.57
741.78	238.15
742.11	237.81
742.44	237.50
742.77	237.25
743.10	236.95
743.43	236.59
743.75	236.05
744.08	236.04
744.41	235.63
744.74	235.38
745.07	235.06
745.40	234.84
745.73	234.61
746.06	234.31
746.39	234.08
746.71	233.74
747.04	233.51
747.37	233.18
747.70	232.99
748.03	232.75
748.36	232.47
748.68	232.22
749.01	231.90
749.34	231.66
749.67	231.43
750.00	231.24
750.33	231.15
750.65	230.93
750.98	230.44
751.31	230.32
751.64	229.99
751.97	229.86
752.29	229.64
752.62	229.31
752.95	229.09
753.28	228.88
753.60	228.76
753.93	228.58
754.26	228.35
754.59	228.12
754.91	227.90
755.24	227.66
755.57	227.42
755.90	227.26
756.22	226.97
756.55	226.77
756.88	226.49
757.20	226.18
757.53	226.02
757.86	225.86
758.19	225.64
758.51	225.54
758.84	225.21
759.17	224.95
759.49	224.79
759.82	224.66
760.15	224.41
760.47	224.15
760.80	223.90
761.13	223.79
761.45	223.58
761.78	223.41
762.11	223.25
762.43	223.09
762.76	222.86
763.08	222.78
763.41	222.67
763.74	222.56
764.06	222.41
764.39	222.20
764.71	222.07
765.04	221.93
765.37	221.82
765.69	221.74
766.02	221.66
766.34	221.50
766.67	221.32
767.00	221.24
767.32	221.24
767.65	221.32
767.97	221.21
768.30	221.10
768.62	221.02
768.95	220.87
769.27	220.80
769.60	220.75
769.92	220.64
770.25	220.46
770.57	220.31
770.90	220.20
771.22	220.08
771.55	219.94
771.87	219.77
772.20	219.65
772.52	219.74
772.85	219.85
773.17	219.76
773.50	219.70
773.82	219.58
774.15	219.35
774.47	219.14
774.80	219.00
775.12	218.90
775.45	218.82
775.77	218.73
776.09	218.62
776.42	218.58
776.74	218.52
777.07	218.44
777.39	218.37
777.72	218.27
778.04	218.28
778.36	218.17
778.69	218.19
779.01	218.04
779.33	217.81
779.66	217.50
779.98	217.40
780.31	217.32
780.63	217.40
780.95	217.37
781.28	217.20
781.60	217.20
781.92	217.18
782.25	217.11
782.57	217.09
782.89	216.98
783.22	216.88
783.54	216.73
783.86	216.69
784.19	216.71
784.51	216.68
784.83	216.58
785.16	216.56
785.48	216.48
785.80	216.48
786.12	216.42
786.45	216.38
786.77	216.38
787.09	216.27
787.42	216.09
787.74	216.04
788.06	216.01
788.38	215.88
788.71	215.77
789.03	215.68
789.35	215.66
789.67	215.62
789.99	215.61
790.32	215.56
790.64	215.57
790.96	215.58
791.28	215.55
791.61	215.49
791.93	215.45
792.25	215.43
792.57	215.44
792.89	215.42
793.21	215.43
793.54	215.36
793.86	215.28
794.18	215.21
794.50	215.16
794.82	215.07
795.14	215.04
795.47	214.97
795.79	214.95
796.11	214.87
796.43	214.82
796.75	214.71
797.07	214.75
797.39	214.64
797.71	214.51
798.04	214.40
798.36	214.30
798.68	214.28
799.00	214.24
799.32	214.21
799.64	214.15
799.96	214.09
800.28	214.14
800.60	214.09
800.92	214.10
801.24	214.06
801.56	214.05
801.89	214.01
802.21	214.04
802.53	214.01
802.85	214.02
803.17	214.10
803.49	214.11
803.81	214.02
804.13	213.96
804.45	213.87
804.77	213.92
805.09	213.97
805.41	213.93
805.73	213.88
806.05	213.76
806.37	213.72
806.69	213.67
807.01	213.58
807.33	213.60
807.65	213.54
807.97	213.59
808.28	213.64
808.60	213.65
808.92	213.65
809.24	213.70
809.56	213.61
809.88	213.48
810.20	213.48
810.52	213.53
810.84	213.50
811.16	213.50
811.48	213.39
811.80	213.35
812.12	213.31
812.43	213.33
812.75	213.30
813.07	213.29
813.39	213.26
813.71	213.19
814.03	213.15
814.35	213.11
814.67	213.01
814.98	212.94
815.30	212.96
815.62	212.89
815.94	212.76
816.26	212.79
816.58	212.79
816.89	212.72
817.21	212.65
817.53	212.64
817.85	212.64
818.17	212.67
818.48	212.64
818.80	212.60
819.12	212.55
819.44	212.56
819.76	212.54
820.07	212.56
820.39	212.56
820.71	212.60
821.03	212.64
821.34	212.67
821.66	212.66
821.98	212.54
822.30	212.54
822.61	212.61
822.93	212.61
823.25	212.55
823.57	212.48
823.88	212.50
824.20	212.53
824.52	212.59
824.83	212.60
825.15	212.56
825.47	212.62
825.79	212.61
826.10	212.58
826.42	212.58
826.74	212.58
827.05	212.55
827.37	212.49
827.69	212.45
828.00	212.41
828.32	212.43
828.64	212.50
828.95	212.50
829.27	212.48
829.58	212.38
829.90	212.54
830.22	212.61
830.53	212.55
830.85	212.58
831.17	212.49
831.48	212.50
831.80	212.62
832.11	212.56
832.43	212.52
832.75	212.49
833.06	212.55
833.38	212.46
833.69	212.50
834.01	212.60
834.32	212.53
834.64	212.56
834.96	212.57
835.27	212.50
835.59	212.51
835.90	212.41
836.22	212.48
836.53	212.32
836.85	212.26
837.16	212.41
837.48	212.34
837.79	212.35
838.11	212.35
838.42	212.18
838.74	212.22
839.05	212.19
839.37	212.23
839.68	212.14
840.00	212.17
840.31	212.27
840.63	212.18
840.94	212.15
841.26	212.11
841.57	212.09
841.88	212.10
842.20	212.05
842.51	212.01
842.83	211.96
843.14	212.08
843.46	212.08
843.77	211.88
844.08	211.80
844.40	211.74
844.71	211.67
845.03	211.75
845.34	211.70
845.65	211.67
845.97	211.64
846.28	211.61
846.60	211.55
846.91	211.42
847.22	211.36
847.54	211.43
847.85	211.44
848.16	211.42
848.48	211.40
848.79	211.48
849.10	211.52
849.42	211.56
849.73	211.40
850.04	211.42
850.36	211.45
850.67	211.58
850.98	211.58
851.30	211.65
851.61	211.63
851.92	211.69
852.23	211.77
852.55	211.75
852.86	211.70
853.17	211.84
853.49	211.90
853.80	211.98
854.11	212.00
854.42	211.98
854.74	211.94
855.05	211.96
855.36	211.90
855.67	211.91
855.99	211.94
856.30	212.20
856.61	212.20
856.92	212.22
857.23	212.20
857.55	212.26
857.86	212.19
858.17	212.19
858.48	212.13
858.79	212.10
859.11	212.16
859.42	212.27
859.73	212.14
860.04	212.10
860.35	212.12
860.66	212.04
860.98	212.02
861.29	212.06
861.60	212.03
861.91	212.05
862.22	212.09
862.53	212.02
862.84	211.82
863.16	211.87
863.47	211.85
863.78	211.85
864.09	211.77
864.40	211.79
864.71	211.85
865.02	211.91
865.33	211.88
865.64	211.85
865.95	211.86
866.27	212.00
866.58	211.94
866.89	211.94
867.20	211.96
867.51	211.94
867.82	211.97
868.13	212.03
868.44	212.01
868.75	211.96
869.06	211.93
869.37	211.93
869.68	211.78
869.99	211.83
870.30	211.82
870.61	211.84
870.92	211.76
871.23	211.74
871.54	211.75
871.85	211.83
872.16	211.80
872.47	211.69
872.78	211.63
873.09	211.67
873.40	211.59
873.71	211.58
874.02	211.61
874.33	211.49
874.64	211.47
874.95	211.49
875.26	211.48
875.56	211.52
875.87	211.50
876.18	211.57
876.49	211.65
876.80	211.58
877.11	211.56
877.42	211.65
877.73	211.55
878.04	211.46
878.35	211.41
878.66	211.37
878.96	211.37
879.27	211.30
879.58	211.31
879.89	211.35
880.20	211.40
880.51	211.35
880.82	211.40
881.12	211.35
881.43	211.36
881.74	211.27
882.05	211.24
882.36	211.28
882.67	211.27
882.97	211.08
883.28	211.05
883.59	211.01
883.90	210.95
884.21	211.05
884.51	211.05
884.82	211.00
885.13	211.01
885.44	210.98
885.74	210.93
886.05	210.92
886.36	210.90
886.67	210.83
886.98	210.92
887.28	210.89
887.59	210.93
887.90	210.78
888.20	210.90
888.51	210.97
888.82	210.89
889.13	210.88
889.43	211.15
889.74	211.22
890.05	211.26
890.35	211.24
890.66	211.20
890.97	211.23
891.28	211.19
891.58	211.20
891.89	211.30
892.20	211.33
892.50	211.35
892.81	211.36
893.12	211.37
893.42	211.33
893.73	211.32
894.04	211.34
894.34	211.47
894.65	211.38
894.95	211.28
895.26	211.33
895.57	211.43
895.87	211.17
896.18	211.11
896.48	211.12
896.79	211.15
897.10	211.15
897.40	211.18
897.71	211.27
898.01	211.26
898.32	211.21
898.63	211.18
898.93	211.11
899.24	211.09
899.54	211.02
899.85	211.01
900.15	210.98
900.46	210.97
900.76	210.97
901.07	210.97
901.38	210.97
901.68	211.00
901.99	210.88
902.29	210.85
902.60	210.87
902.90	210.84
903.21	210.88
903.51	210.88
903.82	210.90
904.12	210.83
904.43	210.80
904.73	210.78
905.03	210.80
905.34	210.97
905.64	210.97
905.95	211.02
906.25	210.98
906.56	210.97
906.86	210.92
907.17	210.80
907.47	210.81
907.77	210.84
908.08	210.79
908.38	210.78
908.69	210.89
908.99	210.92
909.30	210.93
909.60	210.82
909.90	210.79
910.21	210.63
910.51	210.63
910.81	210.65
911.12	210.64
911.42	210.62
911.73	210.44
912.03	210.42
912.33	210.44
912.64	210.44
912.94	210.46
913.24	210.46
913.55	210.51
913.85	210.49
914.15	210.54
914.46	210.57
914.76	210.59
915.06	210.47
915.37	210.44
915.67	210.47
915.97	210.47
916.27	210.50
916.58	210.63
916.88	210.58
917.18	210.52
917.49	210.71
917.79	210.67
918.09	210.66
918.39	210.79
918.70	210.75
919.00	210.75
919.30	210.84
919.60	210.83
919.91	210.86
920.21	210.91
920.51	210.90
920.81	210.91
921.12	210.94
921.42	210.98
921.72	211.01
922.02	210.95
922.32	211.01
922.63	211.04
922.93	211.00
923.23	211.01
923.53	211.06
923.83	210.95
924.13	211.03
924.44	211.06
924.74	211.02
925.04	211.08
925.34	211.08
925.64	211.02
925.94	210.98
926.24	211.10
926.55	211.07
926.85	211.11
927.15	211.10
927.45	211.06
927.75	211.03
928.05	211.04
928.35	211.11
928.65	211.18
928.95	211.15
929.26	211.19
929.56	211.32
929.86	211.36
930.16	211.33
930.46	211.37
930.76	211.41
931.06	211.38
931.36	211.40
931.66	211.46
931.96	211.51
932.26	211.54
932.56	211.48
932.86	211.52
933.16	211.47
933.46	211.43
933.76	211.44
934.06	211.51
934.36	211.55
934.66	211.53
934.96	211.52
935.26	211.54
935.56	211.54
935.86	211.51
936.16	211.51
936.46	211.53
936.76	211.50
937.06	211.54
937.36	211.52
937.66	211.50
937.96	211.44
938.26	211.40
938.56	211.41
938.86	211.40
939.16	211.45
939.46	211.51
939.76	211.60
940.06	211.62
940.35	211.60
940.65	211.55
940.95	211.52
941.25	211.44
941.55	211.41
941.85	211.42
942.15	211.43
942.45	211.49
942.75	211.48
943.04	211.45
943.34	211.50
943.64	211.50
943.94	211.38
944.24	211.44
944.54	211.47
944.84	211.44
945.13	211.38
945.43	211.31
945.73	211.22
946.03	211.16
946.33	211.13
946.62	211.07
946.92	211.09
947.22	211.11
947.52	211.15
947.82	211.16
948.11	211.09
948.41	211.03
948.71	210.95
949.01	210.94
949.31	210.93
949.60	210.80
949.90	210.88
950.20	210.89
950.50	210.88
950.79	210.81
951.09	210.88
951.39	210.85
951.69	210.87
951.98	210.91
952.28	210.91
952.58	210.86
952.87	210.93
953.17	210.89
953.47	210.85
953.76	210.85
954.06	210.83
954.36	210.82
954.66	210.84
954.95	210.86
955.25	210.85
955.55	210.83
955.84	210.83
956.14	210.74
956.44	210.81
956.73	210.77
957.03	210.82
957.32	210.84
957.62	210.81
957.92	210.85
958.21	210.86
958.51	211.06
958.81	211.09
959.10	211.07
959.40	211.16
959.69	211.12
959.99	211.13
960.29	211.15
960.58	211.14
960.88	211.11
961.17	211.06
961.47	211.03
961.76	211.02
962.06	211.00
962.36	211.03
962.65	211.04
962.95	211.05
963.24	210.92
963.54	210.87
963.83	210.86
964.13	210.86
964.42	210.77
964.72	210.55
965.01	210.59
965.31	210.45
965.60	210.44
965.90	210.57
966.19	210.55
966.49	210.61
966.78	210.58
967.08	210.57
967.37	210.60
967.67	210.62
967.96	210.67
968.26	210.65
968.55	210.62
968.85	210.60
969.14	210.54
969.43	210.64
969.73	210.59
970.02	210.64
970.32	210.60
970.61	210.56
970.91	210.57
971.20	210.51
971.49	210.60
971.79	210.57
972.08	210.40
972.38	210.37
972.67	210.26
972.96	210.26
973.26	210.26
973.55	210.31
973.85	210.35
974.14	210.38
974.43	210.45
974.73	210.41
975.02	210.39
975.31	210.44
975.61	210.45
975.90	210.46
976.19	210.46
976.49	210.46
976.78	210.55
977.07	210.52
977.37	210.58
977.66	210.54
977.95	210.52
978.24	210.57
978.54	210.64
978.83	210.70
979.12	210.74
979.42	210.72
979.71	210.69
980.00	210.57
980.29	210.55
980.59	210.46
980.88	210.51
981.17	210.53
981.46	210.61
981.76	210.66
982.05	210.69
982.34	210.72
982.63	210.71
982.93	210.71
983.22	210.77
983.51	210.77
983.80	210.82
984.09	210.84
984.39	210.85
984.68	210.83
984.97	210.83
985.26	210.80
985.55	210.83
985.85	210.85
986.14	210.94
986.43	210.93
986.72	211.02
987.01	211.08
987.30	211.03
987.59	210.91
987.89	210.81
988.18	210.79
988.47	210.77
988.76	210.77
989.05	210.76
989.34	210.73
989.63	210.77
989.92	210.78
990.22	210.73
990.51	210.72
990.80	210.69
991.09	210.70
991.38	210.70
991.67	210.68
991.96	210.65
992.25	210.65
992.54	210.67
992.83	210.59
993.12	210.51
993.41	210.59
993.70	210.66
993.99	210.76
994.28	210.80
994.58	210.80
994.87	210.73
995.16	210.71
995.45	210.71
995.74	210.69
996.03	210.71
996.32	210.72
996.61	210.81
996.90	210.81
997.19	210.70
997.48	210.74
997.77	210.76
998.06	210.77
998.34	210.81
998.63	210.75
998.92	210.84
999.21	210.83
999.50	210.82
999.79	210.76
1000.08	210.66
1000.37	210.65
1000.66	210.59
1000.95	210.71
1001.24	210.70
1001.53	210.74
1001.82	210.67
1002.11	210.62
1002.40	210.62
1002.68	210.58
1002.97	210.79
1003.26	210.82
1003.55	210.76
1003.84	210.76
1004.13	210.76
1004.42	210.69
1004.71	210.69
1004.99	210.52
1005.28	210.57
1005.57	210.51
1005.86	210.53
1006.15	210.54
1006.44	210.53
1006.72	210.54
1007.01	210.48
1007.30	210.50
1007.59	210.45
1007.88	210.48
1008.17	210.53
1008.45	210.52
1008.74	210.44
1009.03	210.33
1009.32	210.30
1009.60	210.27
1009.89	210.28
1010.18	210.24
1010.47	210.20
1010.76	210.21
1011.04	210.35
1011.33	210.39
1011.62	210.39
1011.91	210.42
1012.19	210.48
1012.48	210.55
1012.77	210.60
1013.05	210.70
1013.34	210.71
1013.63	210.68
1013.92	210.68
1014.20	210.63
1014.49	210.71
1014.78	210.73
1015.06	210.65
1015.35	210.69
1015.64	210.77
1015.92	210.76
1016.21	210.76
1016.50	210.83
1016.78	210.86
1017.07	210.86
1017.36	210.76
1017.64	210.81
1017.93	210.79
1018.22	210.74
1018.50	210.67
1018.79	210.65
1019.08	210.57
1019.36	210.54
1019.65	210.55
1019.93	210.63
1020.22	210.58
1020.51	210.64
1020.79	210.62
1021.08	209.90
1021.36	210.35
1021.65	210.70
1021.94	210.85
1022.22	210.20
1022.51	210.50
1022.79	211.85
1023.08	209.10
1023.36	213.00
1023.65	209.55
>>>>>End Processed Spectral Data<<<<<
