SpectraSuite Data File
++++++++++++++++++++++++++++++++++++
Date: Mon Feb 25 17:33:37 EST 2013
User: group
Dark Spectrum Present: No
Reference Spectrum Present: No
Number of Sampled Component Spectra: 1
Spectrometers: USB2E7196
Integration Time (usec): 52000 (USB2E7196)
Spectra Averaged: 20 (USB2E7196)
Boxcar Smoothing: 10 (USB2E7196)
Correct for Electrical Dark: No (USB2E7196)
Strobe/Lamp Enabled: No (USB2E7196)
Correct for Detector Non-linearity: No (USB2E7196)
Correct for Stray Light: No (USB2E7196)
Number of Pixels in Processed Spectrum: 2048
>>>>>Begin Processed Spectral Data<<<<<
339.09	0.00
339.48	200.30
339.86	200.40
340.24	203.85
340.63	204.70
341.01	208.60
341.39	207.00
341.78	209.65
342.16	209.80
342.54	209.95
342.93	199.00
343.31	208.98
343.69	209.51
344.07	209.99
344.46	210.35
344.84	210.73
345.22	210.90
345.60	211.10
345.99	211.14
346.37	211.23
346.75	211.29
347.13	211.34
347.52	211.32
347.90	211.39
348.28	211.44
348.66	211.45
349.05	211.38
349.43	211.38
349.81	211.47
350.19	211.45
350.57	211.55
350.96	211.64
351.34	211.77
351.72	211.83
352.10	211.86
352.48	211.87
352.87	211.79
353.25	211.81
353.63	211.85
354.01	211.98
354.39	212.01
354.77	212.11
355.15	212.21
355.54	212.27
355.92	212.26
356.30	212.28
356.68	212.45
357.06	212.47
357.44	212.49
357.82	212.54
358.20	212.71
358.58	212.67
358.97	212.72
359.35	212.82
359.73	212.89
360.11	212.98
360.49	213.05
360.87	213.10
361.25	213.15
361.63	213.24
362.01	213.26
362.39	213.31
362.77	213.35
363.15	213.35
363.53	213.45
363.91	213.52
364.29	213.56
364.67	213.46
365.05	213.57
365.43	213.68
365.81	213.72
366.19	213.80
366.57	213.91
366.95	213.95
367.33	213.93
367.71	213.91
368.09	213.98
368.47	214.05
368.85	214.09
369.23	214.14
369.61	214.05
369.99	214.07
370.37	214.09
370.75	214.15
371.13	214.17
371.51	214.13
371.89	214.08
372.27	214.08
372.65	214.06
373.03	214.05
373.41	213.95
373.78	213.98
374.16	213.86
374.54	213.77
374.92	213.71
375.30	213.66
375.68	213.63
376.06	213.55
376.44	213.43
376.82	213.43
377.19	213.33
377.57	213.35
377.95	213.30
378.33	213.22
378.71	213.08
379.09	212.99
379.47	212.90
379.84	212.84
380.22	212.74
380.60	212.63
380.98	212.50
381.36	212.47
381.73	212.35
382.11	212.35
382.49	212.34
382.87	212.24
383.25	212.18
383.62	212.31
384.00	212.29
384.38	212.29
384.76	212.26
385.13	212.26
385.51	212.25
385.89	212.19
386.27	212.21
386.64	212.22
387.02	212.20
387.40	212.18
387.78	212.21
388.15	212.31
388.53	212.30
388.91	212.37
389.29	212.31
389.66	212.28
390.04	212.11
390.42	212.09
390.79	212.09
391.17	212.12
391.55	211.86
391.92	211.82
392.30	211.79
392.68	211.81
393.05	211.82
393.43	211.76
393.81	211.73
394.18	211.62
394.56	211.56
394.94	211.58
395.31	211.61
395.69	211.60
396.06	211.59
396.44	211.64
396.82	211.57
397.19	211.68
397.57	211.65
397.95	211.73
398.32	211.70
398.70	211.78
399.07	211.78
399.45	211.89
399.82	211.84
400.20	211.90
400.58	211.87
400.95	211.92
401.33	212.05
401.70	212.29
402.08	212.44
402.45	212.45
402.83	212.61
403.20	212.69
403.58	212.77
403.95	212.82
404.33	212.85
404.71	213.01
405.08	213.23
405.46	213.40
405.83	213.59
406.21	213.72
406.58	213.84
406.96	213.96
407.33	214.06
407.70	214.34
408.08	214.61
408.45	214.88
408.83	215.04
409.20	215.19
409.58	215.29
409.95	215.48
410.33	215.90
410.70	216.14
411.08	216.50
411.45	216.86
411.82	217.11
412.20	217.63
412.57	218.12
412.95	218.42
413.32	218.93
413.69	219.41
414.07	220.05
414.44	220.61
414.82	221.23
415.19	222.00
415.56	222.65
415.94	223.35
416.31	224.27
416.68	225.17
417.06	226.25
417.43	227.22
417.81	228.36
418.18	229.44
418.55	230.62
418.93	231.80
419.30	233.11
419.67	234.60
420.04	235.97
420.42	237.45
420.79	239.25
421.16	240.98
421.54	242.91
421.91	244.77
422.28	246.71
422.66	248.83
423.03	250.89
423.40	253.04
423.77	255.28
424.15	257.45
424.52	259.85
424.89	262.40
425.26	264.90
425.64	267.21
426.01	269.80
426.38	272.44
426.75	275.17
427.13	277.97
427.50	281.00
427.87	284.10
428.24	287.13
428.61	290.00
428.99	293.20
429.36	296.50
429.73	299.90
430.10	303.40
430.47	306.88
430.85	310.55
431.22	314.48
431.59	318.67
431.96	322.60
432.33	326.94
432.70	331.08
433.08	336.02
433.45	340.77
433.82	345.28
434.19	350.44
434.56	355.47
434.93	360.36
435.30	365.02
435.68	370.22
436.05	375.48
436.42	380.65
436.79	385.48
437.16	390.55
437.53	396.04
437.90	401.34
438.27	406.52
438.64	411.79
439.01	416.69
439.38	421.09
439.75	425.28
440.13	430.15
440.50	434.70
440.87	438.41
441.24	442.30
441.61	446.51
441.98	449.60
442.35	453.15
442.72	456.74
443.09	460.24
443.46	462.39
443.83	463.82
444.20	464.99
444.57	466.73
444.94	467.65
445.31	468.28
445.68	468.97
446.05	469.23
446.42	468.71
446.79	468.01
447.16	467.18
447.53	466.72
447.90	464.56
448.27	462.41
448.64	459.46
449.01	457.25
449.37	453.77
449.74	450.27
450.11	446.20
450.48	441.71
450.85	437.12
451.22	433.17
451.59	429.32
451.96	425.73
452.33	421.00
452.70	416.72
453.07	411.58
453.43	406.50
453.80	401.48
454.17	396.61
454.54	392.01
454.91	387.16
455.28	382.35
455.65	377.93
456.02	373.80
456.38	370.08
456.75	365.42
457.12	361.56
457.49	357.79
457.86	354.05
458.23	350.85
458.59	347.47
458.96	343.88
459.33	340.67
459.70	337.51
460.07	334.96
460.43	332.02
460.80	329.39
461.17	326.93
461.54	324.55
461.91	322.31
462.27	319.99
462.64	317.90
463.01	315.71
463.38	313.58
463.74	311.17
464.11	309.25
464.48	307.59
464.85	305.81
465.21	304.31
465.58	302.85
465.95	301.14
466.32	299.72
466.68	298.34
467.05	297.01
467.42	295.67
467.78	294.25
468.15	292.84
468.52	291.86
468.88	290.49
469.25	289.29
469.62	288.31
469.98	287.30
470.35	286.37
470.72	285.51
471.08	284.55
471.45	283.86
471.82	283.08
472.18	282.25
472.55	281.63
472.92	281.04
473.28	280.48
473.65	279.82
474.02	279.17
474.38	278.76
474.75	278.41
475.11	278.00
475.48	277.70
475.85	277.51
476.21	277.22
476.58	277.10
476.94	277.09
477.31	277.00
477.67	276.97
478.04	277.01
478.41	277.12
478.77	277.49
479.14	277.60
479.50	277.93
479.87	278.30
480.23	278.63
480.60	278.92
480.96	279.35
481.33	280.05
481.69	280.74
482.06	281.31
482.42	281.88
482.79	282.60
483.15	283.46
483.52	284.46
483.88	285.43
484.25	286.40
484.61	287.39
484.98	288.51
485.34	289.80
485.71	291.20
486.07	292.59
486.44	293.80
486.80	295.40
487.17	296.97
487.53	298.78
487.90	300.64
488.26	302.71
488.62	304.75
488.99	306.77
489.35	308.86
489.72	311.14
490.08	313.56
490.44	315.95
490.81	318.55
491.17	321.17
491.54	324.08
491.90	327.17
492.26	330.38
492.63	333.70
492.99	337.15
493.36	340.70
493.72	344.48
494.08	348.56
494.45	352.75
494.81	357.22
495.17	361.78
495.54	366.59
495.90	371.52
496.26	376.79
496.63	382.25
496.99	388.03
497.35	394.05
497.72	400.39
498.08	407.03
498.44	413.78
498.80	420.98
499.17	428.39
499.53	436.06
499.89	444.03
500.26	452.08
500.62	460.45
500.98	469.27
501.34	478.49
501.71	488.02
502.07	497.78
502.43	507.75
502.79	517.90
503.16	528.46
503.52	539.30
503.88	550.39
504.24	562.00
504.60	573.94
504.97	586.31
505.33	598.86
505.69	612.07
506.05	625.59
506.41	639.17
506.78	652.90
507.14	667.14
507.50	681.81
507.86	697.06
508.22	712.66
508.59	728.27
508.95	744.25
509.31	760.48
509.67	776.96
510.03	794.01
510.39	811.78
510.75	829.73
511.12	847.90
511.48	866.17
511.84	884.73
512.20	903.39
512.56	922.59
512.92	942.08
513.28	961.73
513.64	981.60
514.00	1001.51
514.37	1022.04
514.73	1042.79
515.09	1063.35
515.45	1084.16
515.81	1105.16
516.17	1126.49
516.53	1147.79
516.89	1169.30
517.25	1191.06
517.61	1212.72
517.97	1234.19
518.33	1255.85
518.69	1277.41
519.05	1299.85
519.41	1322.26
519.77	1344.93
520.13	1366.97
520.49	1389.37
520.85	1412.12
521.21	1434.51
521.57	1457.62
521.93	1479.53
522.29	1502.15
522.65	1525.18
523.01	1547.79
523.37	1569.90
523.73	1592.30
524.09	1614.59
524.45	1637.13
524.81	1659.33
525.17	1681.87
525.53	1704.27
525.89	1726.41
526.25	1748.66
526.61	1770.10
526.97	1791.73
527.33	1812.80
527.68	1834.46
528.04	1855.33
528.40	1875.50
528.76	1896.10
529.12	1916.99
529.48	1938.70
529.84	1959.21
530.20	1979.38
530.56	1999.94
530.91	2020.89
531.27	2041.17
531.63	2061.29
531.99	2081.28
532.35	2100.86
532.71	2119.99
533.07	2139.61
533.42	2158.30
533.78	2177.70
534.14	2195.90
534.50	2213.24
534.86	2231.27
535.21	2248.11
535.57	2266.01
535.93	2283.70
536.29	2300.79
536.65	2317.09
537.00	2332.66
537.36	2348.29
537.72	2363.38
538.08	2378.18
538.44	2393.54
538.79	2408.97
539.15	2424.12
539.51	2438.38
539.87	2453.65
540.22	2468.05
540.58	2482.99
540.94	2497.47
541.29	2509.95
541.65	2522.58
542.01	2536.06
542.37	2548.43
542.72	2560.68
543.08	2571.93
543.44	2583.78
543.79	2594.25
544.15	2604.75
544.51	2615.97
544.87	2626.93
545.22	2636.45
545.58	2645.51
545.94	2652.52
546.29	2659.23
546.65	2665.25
547.01	2671.87
547.36	2677.77
547.72	2683.24
548.07	2687.10
548.43	2690.85
548.79	2695.21
549.14	2699.68
549.50	2703.92
549.86	2707.64
550.21	2711.84
550.57	2715.89
550.92	2718.42
551.28	2721.21
551.64	2723.56
551.99	2725.99
552.35	2727.42
552.70	2730.20
553.06	2732.88
553.41	2736.20
553.77	2738.90
554.13	2741.40
554.48	2743.01
554.84	2744.00
555.19	2744.91
555.55	2745.51
555.90	2746.55
556.26	2746.74
556.61	2746.64
556.97	2745.68
557.32	2745.58
557.68	2744.06
558.03	2742.91
558.39	2741.40
558.74	2741.12
559.10	2740.03
559.45	2737.88
559.81	2737.10
560.16	2734.33
560.52	2731.96
560.87	2728.59
561.23	2724.86
561.58	2722.68
561.94	2719.64
562.29	2716.05
562.64	2713.60
563.00	2711.30
563.35	2709.39
563.71	2707.97
564.06	2706.04
564.42	2703.88
564.77	2701.77
565.12	2700.10
565.48	2696.59
565.83	2693.53
566.19	2690.16
566.54	2685.90
566.89	2682.33
567.25	2678.29
567.60	2675.32
567.96	2671.72
568.31	2668.50
568.66	2665.09
569.02	2660.34
569.37	2655.32
569.72	2651.55
570.08	2646.54
570.43	2640.78
570.78	2634.73
571.14	2628.03
571.49	2621.58
571.84	2615.71
572.20	2608.52
572.55	2601.87
572.90	2595.24
573.26	2588.36
573.61	2580.97
573.96	2574.60
574.31	2566.64
574.67	2558.32
575.02	2549.79
575.37	2540.84
575.72	2531.83
576.08	2524.07
576.43	2515.28
576.78	2507.80
577.13	2499.62
577.49	2491.00
577.84	2483.10
578.19	2475.41
578.54	2468.28
578.90	2461.14
579.25	2452.46
579.60	2443.09
579.95	2433.66
580.30	2425.82
580.66	2417.49
581.01	2408.35
581.36	2399.01
581.71	2390.67
582.06	2382.35
582.42	2374.12
582.77	2365.04
583.12	2356.04
583.47	2347.35
583.82	2338.99
584.17	2329.38
584.53	2320.57
584.88	2311.98
585.23	2302.93
585.58	2293.27
585.93	2283.59
586.28	2274.43
586.63	2265.41
586.98	2257.21
587.34	2248.81
587.69	2239.24
588.04	2230.14
588.39	2222.30
588.74	2213.45
589.09	2204.50
589.44	2194.85
589.79	2186.24
590.14	2178.51
590.49	2170.38
590.84	2161.19
591.19	2152.94
591.54	2144.12
591.89	2133.95
592.25	2124.83
592.60	2115.33
592.95	2105.97
593.30	2096.63
593.65	2086.66
594.00	2077.12
594.35	2068.95
594.70	2059.59
595.05	2050.80
595.40	2042.01
595.75	2031.71
596.10	2023.17
596.45	2014.82
596.80	2007.09
597.15	1998.76
597.50	1989.40
597.85	1980.87
598.19	1972.24
598.54	1963.42
598.89	1955.81
599.24	1948.91
599.59	1941.24
599.94	1934.13
600.29	1926.06
600.64	1917.92
600.99	1909.56
601.34	1901.93
601.69	1893.06
602.04	1885.01
602.39	1876.90
602.74	1868.86
603.08	1862.39
603.43	1855.41
603.78	1847.39
604.13	1839.18
604.48	1831.06
604.83	1824.40
605.18	1817.10
605.53	1809.52
605.87	1802.18
606.22	1794.83
606.57	1786.99
606.92	1778.88
607.27	1770.74
607.62	1763.46
607.96	1756.29
608.31	1750.08
608.66	1742.43
609.01	1734.69
609.36	1726.90
609.70	1719.06
610.05	1711.58
610.40	1703.39
610.75	1694.84
611.10	1687.29
611.44	1678.36
611.79	1669.16
612.14	1659.58
612.49	1650.21
612.83	1641.31
613.18	1631.62
613.53	1622.17
613.88	1612.45
614.22	1603.85
614.57	1594.56
614.92	1585.14
615.27	1575.89
615.61	1565.93
615.96	1556.97
616.31	1548.44
616.65	1540.51
617.00	1532.19
617.35	1523.47
617.70	1514.50
618.04	1505.30
618.39	1495.75
618.74	1486.93
619.08	1478.36
619.43	1470.29
619.78	1462.22
620.12	1454.06
620.47	1446.25
620.82	1437.71
621.16	1429.29
621.51	1420.64
621.85	1412.49
622.20	1403.94
622.55	1395.42
622.89	1387.40
623.24	1379.50
623.59	1370.97
623.93	1362.45
624.28	1354.13
624.62	1345.91
624.97	1337.78
625.32	1329.78
625.66	1322.40
626.01	1315.46
626.35	1308.30
626.70	1300.55
627.04	1292.79
627.39	1285.19
627.73	1277.55
628.08	1270.73
628.43	1263.33
628.77	1255.70
629.12	1248.14
629.46	1241.68
629.81	1234.32
630.15	1226.88
630.50	1219.18
630.84	1211.89
631.19	1204.74
631.53	1197.88
631.88	1190.28
632.22	1182.57
632.57	1175.66
632.91	1168.21
633.26	1160.64
633.60	1153.25
633.95	1146.21
634.29	1138.99
634.64	1132.32
634.98	1125.06
635.32	1117.89
635.67	1111.49
636.01	1105.03
636.36	1098.13
636.70	1091.41
637.05	1085.09
637.39	1078.72
637.73	1072.51
638.08	1066.70
638.42	1060.78
638.77	1054.04
639.11	1047.77
639.45	1041.92
639.80	1035.21
640.14	1028.82
640.49	1022.66
640.83	1016.45
641.17	1010.12
641.52	1004.31
641.86	997.70
642.20	991.74
642.55	985.05
642.89	978.53
643.23	972.10
643.58	966.35
643.92	959.79
644.26	953.39
644.61	947.23
644.95	941.18
645.29	934.62
645.64	927.84
645.98	921.70
646.32	915.78
646.66	909.55
647.01	903.79
647.35	897.85
647.69	891.65
648.04	885.70
648.38	879.78
648.72	873.72
649.06	867.57
649.41	861.53
649.75	855.64
650.09	849.77
650.43	843.79
650.78	837.45
651.12	831.41
651.46	825.57
651.80	819.69
652.14	813.69
652.49	807.84
652.83	801.86
653.17	795.70
653.51	789.78
653.85	784.08
654.20	778.22
654.54	772.38
654.88	766.87
655.22	760.97
655.56	755.09
655.90	749.19
656.25	743.61
656.59	737.92
656.93	732.82
657.27	727.69
657.61	722.33
657.95	717.38
658.29	712.18
658.64	707.10
658.98	701.91
659.32	696.49
659.66	691.46
660.00	686.32
660.34	681.34
660.68	676.14
661.02	671.14
661.36	666.33
661.70	661.53
662.05	656.78
662.39	652.33
662.73	647.94
663.07	643.52
663.41	639.04
663.75	634.60
664.09	629.83
664.43	625.02
664.77	620.53
665.11	615.95
665.45	611.52
665.79	606.95
666.13	602.50
666.47	598.19
666.81	593.84
667.15	589.81
667.49	585.70
667.83	581.71
668.17	577.68
668.51	573.87
668.85	570.02
669.19	566.19
669.53	562.31
669.87	558.23
670.21	554.47
670.55	550.59
670.89	547.17
671.23	543.73
671.57	540.27
671.91	536.79
672.25	533.21
672.58	529.74
672.92	526.45
673.26	523.23
673.60	520.04
673.94	516.71
674.28	513.29
674.62	510.16
674.96	507.06
675.30	503.99
675.64	500.83
675.97	497.60
676.31	494.57
676.65	491.61
676.99	488.96
677.33	485.83
677.67	482.94
678.01	479.80
678.34	476.84
678.68	473.86
679.02	470.94
679.36	468.08
679.70	465.29
680.04	462.23
680.37	459.27
680.71	456.51
681.05	453.79
681.39	451.14
681.73	448.50
682.06	446.01
682.40	443.45
682.74	440.75
683.08	438.25
683.42	435.58
683.75	432.89
684.09	430.20
684.43	427.76
684.77	425.21
685.10	422.82
685.44	420.30
685.78	417.86
686.12	415.49
686.45	413.20
686.79	410.92
687.13	408.90
687.46	406.76
687.80	404.62
688.14	402.35
688.48	400.26
688.81	397.99
689.15	395.68
689.49	393.46
689.82	391.34
690.16	388.98
690.50	386.64
690.83	384.50
691.17	382.28
691.51	380.05
691.84	377.91
692.18	375.80
692.52	373.80
692.85	371.93
693.19	370.08
693.52	368.03
693.86	366.05
694.20	364.11
694.53	362.13
694.87	360.03
695.21	358.15
695.54	356.18
695.88	354.32
696.21	352.49
696.55	350.80
696.88	348.92
697.22	347.29
697.56	345.80
697.89	344.09
698.23	342.40
698.56	340.89
698.90	339.50
699.23	337.77
699.57	336.19
699.90	334.46
700.24	332.75
700.58	331.17
700.91	329.69
701.25	328.22
701.58	326.76
701.92	325.35
702.25	323.96
702.59	322.61
702.92	321.22
703.26	319.78
703.59	318.30
703.93	317.23
704.26	315.94
704.60	314.64
704.93	313.43
705.26	312.21
705.60	310.90
705.93	309.58
706.27	308.47
706.60	307.29
706.94	306.23
707.27	305.05
707.61	303.95
707.94	302.76
708.27	301.60
708.61	300.39
708.94	299.28
709.28	298.07
709.61	296.94
709.94	295.94
710.28	294.95
710.61	293.95
710.95	292.70
711.28	291.69
711.61	290.63
711.95	289.66
712.28	288.64
712.61	287.76
712.95	286.80
713.28	285.88
713.61	284.96
713.95	283.96
714.28	283.08
714.61	282.13
714.95	281.19
715.28	280.22
715.61	279.35
715.95	278.43
716.28	277.59
716.61	276.82
716.95	275.93
717.28	275.17
717.61	274.40
717.94	273.64
718.28	272.84
718.61	272.13
718.94	271.38
719.27	270.71
719.61	269.93
719.94	269.29
720.27	268.50
720.60	267.72
720.94	267.06
721.27	266.47
721.60	265.87
721.93	265.26
722.27	264.69
722.60	264.14
722.93	263.60
723.26	263.00
723.59	262.34
723.93	261.76
724.26	261.16
724.59	260.55
724.92	260.02
725.25	259.51
725.59	258.88
725.92	258.29
726.25	257.74
726.58	257.29
726.91	256.77
727.24	256.28
727.57	255.74
727.91	255.23
728.24	254.67
728.57	254.23
728.90	253.75
729.23	253.23
729.56	252.83
729.89	252.31
730.22	251.90
730.55	251.46
730.89	250.98
731.22	250.48
731.55	250.05
731.88	249.63
732.21	249.16
732.54	248.72
732.87	248.30
733.20	247.80
733.53	247.31
733.86	246.84
734.19	246.39
734.52	246.15
734.85	245.88
735.18	245.44
735.51	245.03
735.84	244.69
736.17	244.34
736.50	243.82
736.83	243.64
737.16	243.23
737.49	242.83
737.82	242.47
738.15	242.14
738.48	241.76
738.81	241.39
739.14	241.00
739.47	240.70
739.80	240.38
740.13	240.14
740.46	239.78
740.79	239.40
741.12	239.06
741.45	238.66
741.78	238.26
742.11	237.99
742.44	237.70
742.77	237.39
743.10	237.02
743.43	236.75
743.75	236.33
744.08	236.25
744.41	235.95
744.74	235.62
745.07	235.20
745.40	235.01
745.73	234.78
746.06	234.49
746.39	234.26
746.71	233.94
747.04	233.62
747.37	233.39
747.70	233.14
748.03	232.98
748.36	232.65
748.68	232.37
749.01	232.10
749.34	231.76
749.67	231.52
750.00	231.26
750.33	231.12
750.65	230.92
750.98	230.50
751.31	230.26
751.64	230.01
751.97	230.01
752.29	229.73
752.62	229.35
752.95	229.08
753.28	228.75
753.60	228.57
753.93	228.37
754.26	228.15
754.59	227.83
754.91	227.56
755.24	227.44
755.57	227.27
755.90	227.07
756.22	226.98
756.55	226.72
756.88	226.58
757.20	226.26
757.53	225.96
757.86	225.80
758.19	225.63
758.51	225.46
758.84	225.16
759.17	225.01
759.49	224.91
759.82	224.84
760.15	224.80
760.47	224.52
760.80	224.32
761.13	224.15
761.45	224.08
761.78	223.90
762.11	223.72
762.43	223.54
762.76	223.39
763.08	223.20
763.41	223.11
763.74	222.92
764.06	222.72
764.39	222.66
764.71	222.53
765.04	222.46
765.37	222.41
765.69	222.20
766.02	222.08
766.34	221.98
766.67	221.82
767.00	221.74
767.32	221.80
767.65	221.73
767.97	221.61
768.30	221.54
768.62	221.41
768.95	221.27
769.27	221.12
769.60	221.04
769.92	220.89
770.25	220.76
770.57	220.65
770.90	220.57
771.22	220.42
771.55	220.33
771.87	220.19
772.20	220.06
772.52	220.08
772.85	220.12
773.17	220.04
773.50	219.93
773.82	219.74
774.15	219.56
774.47	219.44
774.80	219.35
775.12	219.20
775.45	219.17
775.77	219.10
776.09	219.10
776.42	218.96
776.74	219.00
777.07	218.91
777.39	218.87
777.72	218.92
778.04	218.87
778.36	218.69
778.69	218.63
779.01	218.54
779.33	218.38
779.66	218.12
779.98	217.96
780.31	217.93
780.63	217.89
780.95	217.98
781.28	217.93
781.60	217.77
781.92	217.72
782.25	217.67
782.57	217.58
782.89	217.49
783.22	217.47
783.54	217.38
783.86	217.30
784.19	217.16
784.51	217.07
784.83	216.90
785.16	216.84
785.48	216.85
785.80	216.80
786.12	216.80
786.45	216.77
786.77	216.78
787.09	216.73
787.42	216.67
787.74	216.45
788.06	216.39
788.38	216.35
788.71	216.29
789.03	216.23
789.35	216.21
789.67	216.05
789.99	216.01
790.32	215.92
790.64	215.85
790.96	215.94
791.28	215.85
791.61	215.80
791.93	215.75
792.25	215.61
792.57	215.65
792.89	215.53
793.21	215.40
793.54	215.31
793.86	215.17
794.18	215.07
794.50	214.98
794.82	214.89
795.14	214.91
795.47	214.89
795.79	214.84
796.11	214.78
796.43	214.72
796.75	214.64
797.07	214.61
797.39	214.55
797.71	214.43
798.04	214.40
798.36	214.44
798.68	214.41
799.00	214.42
799.32	214.26
799.64	214.22
799.96	214.20
800.28	214.20
800.60	214.21
800.92	214.25
801.24	214.27
801.56	214.29
801.89	214.26
802.21	214.23
802.53	214.16
802.85	214.17
803.17	214.24
803.49	214.20
803.81	214.15
804.13	214.13
804.45	214.08
804.77	214.01
805.09	213.98
805.41	213.91
805.73	213.85
806.05	213.85
806.37	213.92
806.69	213.90
807.01	213.93
807.33	213.85
807.65	213.72
807.97	213.78
808.28	213.67
808.60	213.64
808.92	213.62
809.24	213.65
809.56	213.58
809.88	213.57
810.20	213.53
810.52	213.51
810.84	213.56
811.16	213.51
811.48	213.56
811.80	213.58
812.12	213.54
812.43	213.54
812.75	213.53
813.07	213.43
813.39	213.41
813.71	213.35
814.03	213.39
814.35	213.45
814.67	213.29
814.98	213.32
815.30	213.25
815.62	213.15
815.94	213.03
816.26	213.00
816.58	212.92
816.89	212.90
817.21	212.87
817.53	212.84
817.85	212.85
818.17	212.80
818.48	212.77
818.80	212.80
819.12	212.81
819.44	212.70
819.76	212.71
820.07	212.66
820.39	212.64
820.71	212.64
821.03	212.60
821.34	212.62
821.66	212.70
821.98	212.66
822.30	212.73
822.61	212.86
822.93	212.86
823.25	212.80
823.57	212.81
823.88	212.80
824.20	212.77
824.52	212.77
824.83	212.77
825.15	212.63
825.47	212.70
825.79	212.63
826.10	212.70
826.42	212.59
826.74	212.69
827.05	212.60
827.37	212.55
827.69	212.50
828.00	212.55
828.32	212.49
828.64	212.51
828.95	212.49
829.27	212.40
829.58	212.41
829.90	212.46
830.22	212.52
830.53	212.50
830.85	212.48
831.17	212.52
831.48	212.46
831.80	212.59
832.11	212.48
832.43	212.49
832.75	212.49
833.06	212.64
833.38	212.55
833.69	212.58
834.01	212.60
834.32	212.60
834.64	212.51
834.96	212.49
835.27	212.50
835.59	212.47
835.90	212.47
836.22	212.46
836.53	212.45
836.85	212.38
837.16	212.54
837.48	212.52
837.79	212.55
838.11	212.61
838.42	212.61
838.74	212.65
839.05	212.63
839.37	212.59
839.68	212.50
840.00	212.50
840.31	212.49
840.63	212.44
840.94	212.36
841.26	212.37
841.57	212.36
841.88	212.34
842.20	212.34
842.51	212.23
842.83	212.27
843.14	212.38
843.46	212.38
843.77	212.22
844.08	212.20
844.40	212.10
844.71	212.02
845.03	211.94
845.34	211.92
845.65	211.92
845.97	211.91
846.28	211.96
846.60	211.93
846.91	211.89
847.22	211.91
847.54	211.99
847.85	211.98
848.16	211.96
848.48	212.01
848.79	212.09
849.10	212.25
849.42	212.22
849.73	212.03
850.04	212.00
850.36	212.05
850.67	212.07
850.98	212.05
851.30	212.05
851.61	212.05
851.92	212.05
852.23	212.09
852.55	212.07
852.86	212.06
853.17	212.10
853.49	212.18
853.80	212.28
854.11	212.30
854.42	212.35
854.74	212.37
855.05	212.33
855.36	212.26
855.67	212.16
855.99	212.15
856.30	212.37
856.61	212.30
856.92	212.28
857.23	212.17
857.55	212.16
857.86	212.19
858.17	212.18
858.48	212.11
858.79	212.05
859.11	212.13
859.42	211.98
859.73	211.89
860.04	211.91
860.35	211.78
860.66	211.73
860.98	211.73
861.29	211.72
861.60	211.70
861.91	211.72
862.22	211.66
862.53	211.58
862.84	211.38
863.16	211.47
863.47	211.44
863.78	211.45
864.09	211.47
864.40	211.39
864.71	211.45
865.02	211.46
865.33	211.36
865.64	211.30
865.95	211.39
866.27	211.55
866.58	211.43
866.89	211.48
867.20	211.44
867.51	211.40
867.82	211.38
868.13	211.38
868.44	211.31
868.75	211.41
869.06	211.44
869.37	211.43
869.68	211.40
869.99	211.41
870.30	211.50
870.61	211.52
870.92	211.57
871.23	211.51
871.54	211.59
871.85	211.76
872.16	211.75
872.47	211.70
872.78	211.57
873.09	211.63
873.40	211.56
873.71	211.59
874.02	211.56
874.33	211.51
874.64	211.49
874.95	211.59
875.26	211.54
875.56	211.55
875.87	211.55
876.18	211.56
876.49	211.73
876.80	211.66
877.11	211.57
877.42	211.57
877.73	211.60
878.04	211.58
878.35	211.50
878.66	211.56
878.96	211.63
879.27	211.66
879.58	211.69
879.89	211.68
880.20	211.75
880.51	211.86
880.82	211.86
881.12	211.96
881.43	211.82
881.74	211.77
882.05	211.73
882.36	211.72
882.67	211.72
882.97	211.50
883.28	211.54
883.59	211.60
883.90	211.63
884.21	211.69
884.51	211.67
884.82	211.66
885.13	211.61
885.44	211.65
885.74	211.66
886.05	211.59
886.36	211.62
886.67	211.53
886.98	211.51
887.28	211.56
887.59	211.49
887.90	211.54
888.20	211.62
888.51	211.69
888.82	211.70
889.13	211.73
889.43	211.87
889.74	211.88
890.05	211.86
890.35	211.82
890.66	211.75
890.97	211.68
891.28	211.64
891.58	211.61
891.89	211.54
892.20	211.49
892.50	211.56
892.81	211.49
893.12	211.48
893.42	211.41
893.73	211.44
894.04	211.39
894.34	211.40
894.65	211.34
894.95	211.36
895.26	211.30
895.57	211.35
895.87	211.19
896.18	211.20
896.48	211.25
896.79	211.20
897.10	211.20
897.40	211.23
897.71	211.27
898.01	211.27
898.32	211.30
898.63	211.34
898.93	211.34
899.24	211.35
899.54	211.38
899.85	211.43
900.15	211.41
900.46	211.40
900.76	211.42
901.07	211.41
901.38	211.35
901.68	211.44
901.99	211.37
902.29	211.39
902.60	211.40
902.90	211.36
903.21	211.39
903.51	211.35
903.82	211.38
904.12	211.40
904.43	211.43
904.73	211.33
905.03	211.33
905.34	211.45
905.64	211.51
905.95	211.52
906.25	211.51
906.56	211.54
906.86	211.52
907.17	211.54
907.47	211.54
907.77	211.58
908.08	211.52
908.38	211.48
908.69	211.51
908.99	211.43
909.30	211.42
909.60	211.44
909.90	211.52
910.21	211.50
910.51	211.45
910.81	211.46
911.12	211.59
911.42	211.59
911.73	211.36
912.03	211.39
912.33	211.39
912.64	211.34
912.94	211.24
913.24	211.31
913.55	211.28
913.85	211.26
914.15	211.26
914.46	211.26
914.76	211.29
915.06	211.26
915.37	211.26
915.67	211.30
915.97	211.31
916.27	211.24
916.58	211.26
916.88	211.32
917.18	211.26
917.49	211.33
917.79	211.29
918.09	211.34
918.39	211.37
918.70	211.38
919.00	211.42
919.30	211.59
919.60	211.50
919.91	211.59
920.21	211.51
920.51	211.51
920.81	211.54
921.12	211.58
921.42	211.57
921.72	211.72
922.02	211.67
922.32	211.73
922.63	211.75
922.93	211.81
923.23	211.83
923.53	211.84
923.83	211.75
924.13	211.85
924.44	211.90
924.74	211.93
925.04	211.95
925.34	211.87
925.64	211.78
925.94	211.82
926.24	211.80
926.55	211.94
926.85	211.92
927.15	211.88
927.45	211.87
927.75	211.92
928.05	211.85
928.35	211.92
928.65	211.93
928.95	211.90
929.26	211.90
929.56	211.87
929.86	211.90
930.16	211.85
930.46	211.76
930.76	211.75
931.06	211.65
931.36	211.57
931.66	211.65
931.96	211.69
932.26	211.71
932.56	211.67
932.86	211.64
933.16	211.67
933.46	211.69
933.76	211.66
934.06	211.71
934.36	211.78
934.66	211.72
934.96	211.67
935.26	211.72
935.56	211.65
935.86	211.66
936.16	211.63
936.46	211.64
936.76	211.68
937.06	211.59
937.36	211.58
937.66	211.67
937.96	211.72
938.26	211.65
938.56	211.65
938.86	211.63
939.16	211.68
939.46	211.73
939.76	211.72
940.06	211.73
940.35	211.72
940.65	211.63
940.95	211.62
941.25	211.57
941.55	211.50
941.85	211.50
942.15	211.53
942.45	211.60
942.75	211.62
943.04	211.57
943.34	211.63
943.64	211.65
943.94	211.54
944.24	211.49
944.54	211.52
944.84	211.47
945.13	211.46
945.43	211.40
945.73	211.32
946.03	211.35
946.33	211.28
946.62	211.19
946.92	211.06
947.22	211.03
947.52	211.08
947.82	211.15
948.11	211.11
948.41	211.05
948.71	210.98
949.01	210.95
949.31	210.99
949.60	211.04
949.90	211.01
950.20	211.04
950.50	211.01
950.79	210.95
951.09	211.01
951.39	210.99
951.69	210.94
951.98	211.04
952.28	210.94
952.58	211.02
952.87	211.06
953.17	211.15
953.47	211.16
953.76	211.08
954.06	211.11
954.36	211.09
954.66	211.15
954.95	211.16
955.25	211.18
955.55	211.18
955.84	211.05
956.14	211.13
956.44	211.16
956.73	211.18
957.03	211.22
957.32	211.15
957.62	211.11
957.92	211.16
958.21	211.07
958.51	211.27
958.81	211.26
959.10	211.23
959.40	211.28
959.69	211.33
959.99	211.36
960.29	211.27
960.58	211.29
960.88	211.35
961.17	211.28
961.47	211.28
961.76	211.28
962.06	211.39
962.36	211.34
962.65	211.29
962.95	211.27
963.24	211.20
963.54	211.26
963.83	211.25
964.13	211.22
964.42	211.18
964.72	211.04
965.01	211.01
965.31	210.94
965.60	210.91
965.90	211.01
966.19	210.95
966.49	211.02
966.78	211.01
967.08	210.95
967.37	210.99
967.67	210.94
967.96	210.94
968.26	210.97
968.55	210.93
968.85	210.96
969.14	211.01
969.43	211.04
969.73	210.98
970.02	211.01
970.32	211.07
970.61	211.09
970.91	211.09
971.20	211.11
971.49	211.16
971.79	211.09
972.08	210.95
972.38	211.02
972.67	211.01
972.96	211.02
973.26	210.93
973.55	211.02
973.85	211.05
974.14	210.97
974.43	210.86
974.73	210.93
975.02	210.92
975.31	210.87
975.61	210.85
975.90	210.80
976.19	210.78
976.49	210.68
976.78	210.70
977.07	210.68
977.37	210.64
977.66	210.66
977.95	210.72
978.24	210.71
978.54	210.70
978.83	210.57
979.12	210.54
979.42	210.57
979.71	210.45
980.00	210.45
980.29	210.52
980.59	210.55
980.88	210.53
981.17	210.48
981.46	210.47
981.76	210.52
982.05	210.68
982.34	210.71
982.63	210.79
982.93	210.78
983.22	210.77
983.51	210.83
983.80	210.87
984.09	210.84
984.39	210.85
984.68	210.83
984.97	210.96
985.26	210.95
985.55	210.97
985.85	211.04
986.14	211.02
986.43	210.96
986.72	210.93
987.01	210.90
987.30	210.93
987.59	210.93
987.89	210.95
988.18	210.87
988.47	210.82
988.76	210.75
989.05	210.75
989.34	210.79
989.63	210.86
989.92	210.81
990.22	210.88
990.51	210.81
990.80	210.79
991.09	210.72
991.38	210.82
991.67	210.81
991.96	210.79
992.25	210.85
992.54	210.91
992.83	210.90
993.12	210.97
993.41	211.04
993.70	211.11
993.99	211.08
994.28	211.08
994.58	211.15
994.87	211.22
995.16	211.22
995.45	211.22
995.74	211.15
996.03	211.18
996.32	211.13
996.61	211.24
996.90	211.36
997.19	211.38
997.48	211.29
997.77	211.24
998.06	211.22
998.34	211.17
998.63	211.17
998.92	211.23
999.21	211.18
999.50	211.18
999.79	211.13
1000.08	211.19
1000.37	211.14
1000.66	211.13
1000.95	211.12
1001.24	211.10
1001.53	211.15
1001.82	211.15
1002.11	211.12
1002.40	211.15
1002.68	211.20
1002.97	211.25
1003.26	211.23
1003.55	211.27
1003.84	211.29
1004.13	211.34
1004.42	211.36
1004.71	211.31
1004.99	211.24
1005.28	211.30
1005.57	211.26
1005.86	211.22
1006.15	211.17
1006.44	211.17
1006.72	211.16
1007.01	211.19
1007.30	211.21
1007.59	211.20
1007.88	211.15
1008.17	211.19
1008.45	211.07
1008.74	210.96
1009.03	210.91
1009.32	210.92
1009.60	210.91
1009.89	210.92
1010.18	210.87
1010.47	210.83
1010.76	210.87
1011.04	210.92
1011.33	210.93
1011.62	210.96
1011.91	210.97
1012.19	211.03
1012.48	211.01
1012.77	211.00
1013.05	211.02
1013.34	210.99
1013.63	210.96
1013.92	210.97
1014.20	210.87
1014.49	210.92
1014.78	210.92
1015.06	210.81
1015.35	210.80
1015.64	210.84
1015.92	210.95
1016.21	210.98
1016.50	210.92
1016.78	210.97
1017.07	210.95
1017.36	210.87
1017.64	210.80
1017.93	210.74
1018.22	210.67
1018.50	210.69
1018.79	210.69
1019.08	210.56
1019.36	210.58
1019.65	210.55
1019.93	210.59
1020.22	210.74
1020.51	210.87
1020.79	210.86
1021.08	210.40
1021.36	210.40
1021.65	210.95
1021.94	209.45
1022.22	210.75
1022.51	210.75
1022.79	211.55
1023.08	212.35
1023.36	213.25
1023.65	209.95
>>>>>End Processed Spectral Data<<<<<
