SpectraSuite Data File
++++++++++++++++++++++++++++++++++++
Date: Mon Feb 25 17:33:35 EST 2013
User: group
Dark Spectrum Present: No
Reference Spectrum Present: No
Number of Sampled Component Spectra: 1
Spectrometers: USB2E7196
Integration Time (usec): 52000 (USB2E7196)
Spectra Averaged: 20 (USB2E7196)
Boxcar Smoothing: 10 (USB2E7196)
Correct for Electrical Dark: No (USB2E7196)
Strobe/Lamp Enabled: No (USB2E7196)
Correct for Detector Non-linearity: No (USB2E7196)
Correct for Stray Light: No (USB2E7196)
Number of Pixels in Processed Spectrum: 2048
>>>>>Begin Processed Spectral Data<<<<<
339.09	0.00
339.48	200.45
339.86	200.65
340.24	202.85
340.63	202.85
341.01	207.30
341.39	206.55
341.78	207.50
342.16	208.90
342.54	210.00
342.93	198.53
343.31	208.55
343.69	209.01
344.07	209.50
344.46	209.91
344.84	210.28
345.22	210.46
345.60	210.71
345.99	210.88
346.37	211.02
346.75	211.05
347.13	211.26
347.52	211.34
347.90	211.46
348.28	211.44
348.66	211.46
349.05	211.43
349.43	211.57
349.81	211.64
350.19	211.70
350.57	211.80
350.96	211.91
351.34	212.00
351.72	212.10
352.10	212.20
352.48	212.25
352.87	212.35
353.25	212.41
353.63	212.46
354.01	212.53
354.39	212.58
354.77	212.70
355.15	212.75
355.54	212.75
355.92	212.72
356.30	212.82
356.68	213.01
357.06	213.16
357.44	213.23
357.82	213.22
358.20	213.27
358.58	213.34
358.97	213.43
359.35	213.55
359.73	213.65
360.11	213.68
360.49	213.74
360.87	213.79
361.25	213.94
361.63	214.06
362.01	214.16
362.39	214.22
362.77	214.29
363.15	214.29
363.53	214.41
363.91	214.52
364.29	214.58
364.67	214.49
365.05	214.47
365.43	214.43
365.81	214.52
366.19	214.60
366.57	214.65
366.95	214.68
367.33	214.63
367.71	214.70
368.09	214.79
368.47	214.80
368.85	214.82
369.23	214.77
369.61	214.73
369.99	214.76
370.37	214.75
370.75	214.79
371.13	214.74
371.51	214.68
371.89	214.70
372.27	214.66
372.65	214.59
373.03	214.53
373.41	214.50
373.78	214.47
374.16	214.34
374.54	214.20
374.92	214.06
375.30	214.01
375.68	213.84
376.06	213.78
376.44	213.69
376.82	213.62
377.19	213.56
377.57	213.50
377.95	213.37
378.33	213.33
378.71	213.16
379.09	213.13
379.47	213.11
379.84	212.97
380.22	212.94
380.60	212.89
380.98	212.91
381.36	212.87
381.73	212.77
382.11	212.79
382.49	212.80
382.87	212.75
383.25	212.72
383.62	212.93
384.00	212.82
384.38	212.79
384.76	212.78
385.13	212.78
385.51	212.68
385.89	212.65
386.27	212.64
386.64	212.63
387.02	212.60
387.40	212.52
387.78	212.58
388.15	212.49
388.53	212.47
388.91	212.39
389.29	212.34
389.66	212.36
390.04	212.27
390.42	212.23
390.79	212.18
391.17	212.15
391.55	211.88
391.92	211.90
392.30	211.92
392.68	211.88
393.05	211.84
393.43	211.88
393.81	211.85
394.18	211.75
394.56	211.79
394.94	211.82
395.31	211.79
395.69	211.75
396.06	211.77
396.44	211.71
396.82	211.64
397.19	211.75
397.57	211.67
397.95	211.74
398.32	211.73
398.70	211.84
399.07	211.93
399.45	212.00
399.82	212.02
400.20	212.04
400.58	212.08
400.95	212.08
401.33	212.16
401.70	212.35
402.08	212.54
402.45	212.55
402.83	212.65
403.20	212.74
403.58	212.80
403.95	212.95
404.33	213.11
404.71	213.24
405.08	213.36
405.46	213.55
405.83	213.69
406.21	213.83
406.58	213.94
406.96	214.07
407.33	214.24
407.70	214.42
408.08	214.77
408.45	215.00
408.83	215.27
409.20	215.50
409.58	215.70
409.95	215.96
410.33	216.33
410.70	216.53
411.08	216.88
411.45	217.29
411.82	217.68
412.20	218.12
412.57	218.69
412.95	219.03
413.32	219.53
413.69	220.02
414.07	220.57
414.44	221.16
414.82	221.80
415.19	222.48
415.56	223.26
415.94	223.92
416.31	224.83
416.68	225.70
417.06	226.72
417.43	227.67
417.81	228.72
418.18	229.83
418.55	230.99
418.93	232.22
419.30	233.52
419.67	234.85
420.04	236.19
420.42	237.75
420.79	239.60
421.16	241.39
421.54	243.24
421.91	245.20
422.28	247.14
422.66	249.15
423.03	251.26
423.40	253.30
423.77	255.49
424.15	257.73
424.52	260.01
424.89	262.58
425.26	264.99
425.64	267.36
426.01	269.91
426.38	272.69
426.75	275.53
427.13	278.38
427.50	281.29
427.87	284.51
428.24	287.56
428.61	290.47
428.99	293.69
429.36	297.17
429.73	300.54
430.10	304.03
430.47	307.63
430.85	311.19
431.22	315.15
431.59	319.38
431.96	323.31
432.33	327.81
432.70	331.86
433.08	336.82
433.45	341.35
433.82	346.05
434.19	351.26
434.56	356.29
434.93	361.08
435.30	365.90
435.68	371.05
436.05	376.25
436.42	381.37
436.79	386.12
437.16	391.16
437.53	396.48
437.90	401.71
438.27	406.96
438.64	412.51
439.01	417.34
439.38	421.70
439.75	425.93
440.13	430.72
440.50	435.35
440.87	439.06
441.24	442.96
441.61	447.15
441.98	450.11
442.35	453.67
442.72	457.28
443.09	460.92
443.46	463.14
443.83	464.48
444.20	465.63
444.57	467.26
444.94	468.02
445.31	468.75
445.68	469.40
446.05	469.55
446.42	468.72
446.79	468.09
447.16	467.14
447.53	466.46
447.90	464.29
448.27	462.08
448.64	459.18
449.01	457.11
449.37	453.36
449.74	449.80
450.11	445.60
450.48	441.04
450.85	436.30
451.22	432.15
451.59	428.34
451.96	424.78
452.33	420.01
452.70	415.56
453.07	410.49
453.43	405.35
453.80	400.31
454.17	395.58
454.54	390.98
454.91	386.21
455.28	381.50
455.65	377.08
456.02	372.84
456.38	369.03
456.75	364.37
457.12	360.51
457.49	356.82
457.86	353.10
458.23	349.92
458.59	346.46
458.96	343.04
459.33	339.91
459.70	336.71
460.07	334.25
460.43	331.53
460.80	328.81
461.17	326.42
461.54	323.91
461.91	321.48
462.27	319.09
462.64	317.13
463.01	314.87
463.38	312.72
463.74	310.51
464.11	308.64
464.48	306.91
464.85	305.17
465.21	303.79
465.58	302.34
465.95	300.63
466.32	299.16
466.68	297.69
467.05	296.27
467.42	294.94
467.78	293.57
468.15	292.13
468.52	291.19
468.88	289.89
469.25	288.75
469.62	287.89
469.98	286.89
470.35	285.93
470.72	285.15
471.08	284.23
471.45	283.52
471.82	282.76
472.18	281.98
472.55	281.38
472.92	280.62
473.28	279.98
473.65	279.34
474.02	278.80
474.38	278.40
474.75	278.08
475.11	277.64
475.48	277.31
475.85	277.20
476.21	276.95
476.58	276.92
476.94	276.94
477.31	276.92
477.67	276.84
478.04	276.83
478.41	277.04
478.77	277.31
479.14	277.31
479.50	277.58
479.87	277.98
480.23	278.38
480.60	278.75
480.96	279.20
481.33	279.85
481.69	280.49
482.06	281.21
482.42	281.82
482.79	282.52
483.15	283.45
483.52	284.39
483.88	285.31
484.25	286.20
484.61	287.10
484.98	288.24
485.34	289.66
485.71	290.96
486.07	292.23
486.44	293.61
486.80	295.25
487.17	296.82
487.53	298.51
487.90	300.35
488.26	302.27
488.62	304.35
488.99	306.36
489.35	308.51
489.72	310.73
490.08	313.19
490.44	315.69
490.81	318.23
491.17	320.88
491.54	323.79
491.90	326.84
492.26	330.18
492.63	333.39
492.99	336.73
493.36	340.45
493.72	344.32
494.08	348.27
494.45	352.50
494.81	356.94
495.17	361.52
495.54	366.38
495.90	371.40
496.26	376.59
496.63	382.11
496.99	387.83
497.35	393.79
497.72	400.01
498.08	406.54
498.44	413.29
498.80	420.47
499.17	427.92
499.53	435.55
499.89	443.44
500.26	451.53
500.62	459.81
500.98	468.53
501.34	477.56
501.71	487.08
502.07	496.79
502.43	506.89
502.79	517.00
503.16	527.68
503.52	538.65
503.88	549.88
504.24	561.54
504.60	573.20
504.97	585.58
505.33	598.22
505.69	611.43
506.05	624.97
506.41	638.50
506.78	652.21
507.14	666.34
507.50	680.90
507.86	696.07
508.22	711.54
508.59	727.17
508.95	743.33
509.31	759.55
509.67	776.31
510.03	793.32
510.39	811.10
510.75	828.83
511.12	846.90
511.48	865.34
511.84	883.83
512.20	902.73
512.56	922.02
512.92	941.43
513.28	961.08
513.64	980.91
514.00	1000.85
514.37	1021.36
514.73	1042.39
515.09	1063.11
515.45	1083.89
515.81	1105.25
516.17	1126.57
516.53	1147.79
516.89	1169.50
517.25	1190.82
517.61	1212.56
517.97	1233.73
518.33	1255.30
518.69	1277.07
519.05	1299.20
519.41	1321.63
519.77	1344.24
520.13	1366.17
520.49	1388.24
520.85	1410.80
521.21	1433.26
521.57	1456.34
521.93	1478.34
522.29	1501.10
522.65	1523.93
523.01	1546.56
523.37	1568.48
523.73	1590.93
524.09	1613.34
524.45	1635.45
524.81	1658.18
525.17	1680.51
525.53	1703.43
525.89	1725.84
526.25	1747.72
526.61	1768.87
526.97	1790.59
527.33	1811.91
527.68	1833.75
528.04	1855.32
528.40	1875.56
528.76	1896.30
529.12	1917.13
529.48	1938.97
529.84	1959.47
530.20	1979.73
530.56	2000.16
530.91	2021.13
531.27	2041.27
531.63	2061.37
531.99	2081.61
532.35	2100.65
532.71	2119.45
533.07	2138.83
533.42	2157.19
533.78	2176.30
534.14	2195.09
534.50	2212.19
534.86	2230.49
535.21	2247.20
535.57	2264.66
535.93	2282.49
536.29	2299.46
536.65	2315.98
537.00	2331.31
537.36	2346.45
537.72	2361.76
538.08	2377.25
538.44	2392.86
538.79	2408.91
539.15	2423.89
539.51	2438.49
539.87	2453.84
540.22	2468.53
540.58	2483.63
540.94	2498.54
541.29	2511.71
541.65	2524.01
542.01	2537.57
542.37	2549.06
542.72	2561.56
543.08	2572.91
543.44	2584.57
543.79	2595.03
544.15	2605.48
544.51	2616.71
544.87	2628.16
545.22	2637.53
545.58	2646.12
545.94	2653.31
546.29	2659.63
546.65	2665.79
547.01	2672.35
547.36	2677.78
547.72	2683.60
548.07	2687.16
548.43	2690.83
548.79	2694.77
549.14	2699.76
549.50	2703.72
549.86	2707.99
550.21	2711.89
550.57	2716.00
550.92	2718.65
551.28	2721.48
551.64	2723.88
551.99	2726.52
552.35	2727.84
552.70	2730.54
553.06	2733.32
553.41	2736.24
553.77	2738.98
554.13	2741.62
554.48	2743.27
554.84	2744.94
555.19	2745.43
555.55	2746.17
555.90	2747.03
556.26	2747.85
556.61	2747.60
556.97	2746.46
557.32	2746.01
557.68	2744.41
558.03	2743.03
558.39	2741.92
558.74	2741.73
559.10	2740.74
559.45	2738.70
559.81	2737.57
560.16	2734.91
560.52	2732.06
560.87	2728.88
561.23	2725.09
561.58	2722.72
561.94	2719.55
562.29	2715.88
562.64	2713.92
563.00	2711.71
563.35	2709.34
563.71	2707.11
564.06	2705.00
564.42	2703.32
564.77	2701.22
565.12	2699.43
565.48	2696.25
565.83	2693.15
566.19	2689.26
566.54	2684.73
566.89	2680.50
567.25	2676.84
567.60	2673.70
567.96	2670.18
568.31	2666.87
568.66	2663.13
569.02	2658.34
569.37	2653.31
569.72	2649.64
570.08	2644.24
570.43	2638.42
570.78	2632.30
571.14	2626.01
571.49	2618.95
571.84	2613.03
572.20	2606.20
572.55	2599.33
572.90	2592.55
573.26	2585.21
573.61	2578.26
573.96	2571.94
574.31	2564.49
574.67	2556.25
575.02	2547.83
575.37	2539.35
575.72	2530.32
576.08	2522.75
576.43	2514.11
576.78	2505.99
577.13	2497.88
577.49	2489.62
577.84	2482.05
578.19	2475.02
578.54	2467.68
578.90	2461.43
579.25	2452.55
579.60	2443.10
579.95	2434.05
580.30	2425.95
580.66	2417.64
581.01	2408.53
581.36	2399.15
581.71	2390.45
582.06	2382.03
582.42	2373.38
582.77	2364.34
583.12	2355.39
583.47	2346.55
583.82	2338.22
584.17	2329.25
584.53	2320.28
584.88	2311.30
585.23	2301.84
585.58	2291.81
585.93	2281.75
586.28	2272.17
586.63	2263.38
586.98	2255.28
587.34	2246.97
587.69	2237.47
588.04	2228.61
588.39	2220.25
588.74	2211.41
589.09	2203.05
589.44	2193.44
589.79	2185.36
590.14	2177.47
590.49	2168.84
590.84	2159.78
591.19	2151.62
591.54	2142.98
591.89	2132.79
592.25	2123.96
592.60	2114.65
592.95	2105.45
593.30	2096.27
593.65	2086.16
594.00	2076.59
594.35	2068.29
594.70	2058.84
595.05	2050.42
595.40	2041.40
595.75	2031.88
596.10	2023.68
596.45	2014.98
596.80	2007.01
597.15	1998.43
597.50	1989.08
597.85	1981.08
598.19	1972.13
598.54	1963.38
598.89	1955.50
599.24	1948.60
599.59	1940.92
599.94	1933.94
600.29	1925.90
600.64	1918.11
600.99	1910.00
601.34	1902.69
601.69	1893.82
602.04	1885.84
602.39	1877.58
602.74	1870.00
603.08	1863.50
603.43	1856.07
603.78	1847.86
604.13	1839.92
604.48	1831.90
604.83	1825.10
605.18	1817.73
605.53	1810.53
605.87	1802.73
606.22	1795.58
606.57	1787.68
606.92	1779.44
607.27	1771.18
607.62	1763.93
607.96	1756.93
608.31	1750.66
608.66	1742.99
609.01	1735.41
609.36	1727.48
609.70	1719.72
610.05	1711.62
610.40	1703.09
610.75	1694.34
611.10	1687.02
611.44	1677.88
611.79	1668.71
612.14	1659.31
612.49	1649.90
612.83	1640.88
613.18	1631.13
613.53	1621.60
613.88	1611.81
614.22	1602.83
614.57	1593.30
614.92	1583.96
615.27	1574.61
615.61	1564.83
615.96	1555.66
616.31	1547.19
616.65	1539.60
617.00	1530.98
617.35	1522.45
617.70	1513.73
618.04	1504.96
618.39	1495.14
618.74	1486.63
619.08	1478.10
619.43	1469.81
619.78	1461.76
620.12	1453.77
620.47	1446.13
620.82	1437.30
621.16	1428.89
621.51	1420.52
621.85	1412.41
622.20	1404.00
622.55	1395.48
622.89	1387.23
623.24	1379.36
623.59	1370.66
623.93	1361.84
624.28	1353.65
624.62	1345.37
624.97	1337.00
625.32	1329.12
625.66	1321.95
626.01	1314.72
626.35	1307.56
626.70	1299.78
627.04	1292.28
627.39	1284.64
627.73	1276.94
628.08	1270.17
628.43	1262.90
628.77	1255.55
629.12	1248.10
629.46	1241.45
629.81	1233.99
630.15	1226.45
630.50	1218.77
630.84	1211.20
631.19	1204.13
631.53	1197.15
631.88	1189.80
632.22	1182.34
632.57	1175.23
632.91	1167.68
633.26	1160.09
633.60	1152.92
633.95	1146.09
634.29	1138.86
634.64	1132.17
634.98	1125.07
635.32	1117.85
635.67	1111.54
636.01	1105.04
636.36	1098.23
636.70	1091.62
637.05	1085.25
637.39	1079.07
637.73	1072.95
638.08	1067.36
638.42	1061.47
638.77	1054.82
639.11	1048.49
639.45	1042.44
639.80	1035.80
640.14	1029.50
640.49	1023.29
640.83	1016.83
641.17	1010.41
641.52	1004.33
641.86	997.64
642.20	991.67
642.55	985.10
642.89	978.54
643.23	971.95
643.58	966.07
643.92	959.29
644.26	952.92
644.61	946.74
644.95	940.46
645.29	934.04
645.64	927.27
645.98	921.27
646.32	915.30
646.66	909.00
647.01	903.18
647.35	897.25
647.69	891.08
648.04	885.26
648.38	879.25
648.72	872.98
649.06	866.94
649.41	860.79
649.75	854.88
650.09	848.95
650.43	843.05
650.78	836.89
651.12	831.00
651.46	825.32
651.80	819.41
652.14	813.50
652.49	807.46
652.83	801.66
653.17	795.52
653.51	789.64
653.85	783.95
654.20	777.91
654.54	772.07
654.88	766.53
655.22	760.62
655.56	754.77
655.90	749.07
656.25	743.35
656.59	737.92
656.93	732.99
657.27	727.67
657.61	722.12
657.95	716.90
658.29	711.83
658.64	706.47
658.98	701.19
659.32	695.86
659.66	690.73
660.00	685.34
660.34	680.21
660.68	675.02
661.02	670.05
661.36	665.50
661.70	660.70
662.05	655.75
662.39	651.35
662.73	646.95
663.07	642.50
663.41	638.25
663.75	633.65
664.09	628.81
664.43	624.25
664.77	619.99
665.11	615.44
665.45	610.93
665.79	606.66
666.13	602.28
666.47	598.01
666.81	593.85
667.15	589.91
667.49	586.02
667.83	582.10
668.17	578.20
668.51	574.24
668.85	570.35
669.19	566.83
669.53	562.87
669.87	558.97
670.21	555.17
670.55	551.17
670.89	547.68
671.23	544.15
671.57	540.61
671.91	536.97
672.25	533.55
672.58	529.96
672.92	526.47
673.26	523.21
673.60	519.85
673.94	516.51
674.28	513.10
674.62	509.92
674.96	506.70
675.30	503.50
675.64	500.33
675.97	497.14
676.31	494.15
676.65	491.26
676.99	488.47
677.33	485.56
677.67	482.75
678.01	479.76
678.34	476.85
678.68	473.88
679.02	470.85
679.36	468.01
679.70	465.29
680.04	462.43
680.37	459.58
680.71	456.82
681.05	454.23
681.39	451.60
681.73	448.92
682.06	446.46
682.40	443.88
682.74	441.20
683.08	438.78
683.42	435.95
683.75	433.38
684.09	430.79
684.43	428.27
684.77	425.74
685.10	423.13
685.44	420.42
685.78	418.00
686.12	415.79
686.45	413.44
686.79	411.06
687.13	408.87
687.46	406.68
687.80	404.48
688.14	402.07
688.48	399.92
688.81	397.62
689.15	395.36
689.49	393.10
689.82	390.89
690.16	388.58
690.50	386.46
690.83	384.20
691.17	381.91
691.51	379.70
691.84	377.47
692.18	375.45
692.52	373.50
692.85	371.67
693.19	369.77
693.52	367.81
693.86	365.83
694.20	364.00
694.53	362.11
694.87	360.11
695.21	358.21
695.54	356.20
695.88	354.33
696.21	352.43
696.55	350.71
696.88	349.00
697.22	347.16
697.56	345.49
697.89	343.67
698.23	342.00
698.56	340.43
698.90	339.05
699.23	337.40
699.57	335.89
699.90	334.15
700.24	332.45
700.58	330.93
700.91	329.46
701.25	327.97
701.58	326.44
701.92	325.06
702.25	323.72
702.59	322.33
702.92	321.00
703.26	319.64
703.59	318.31
703.93	317.24
704.26	316.02
704.60	314.74
704.93	313.59
705.26	312.41
705.60	311.17
705.93	309.85
706.27	308.71
706.60	307.60
706.94	306.50
707.27	305.31
707.61	304.17
707.94	302.99
708.27	301.74
708.61	300.73
708.94	299.66
709.28	298.46
709.61	297.45
709.94	296.42
710.28	295.36
710.61	294.31
710.95	292.99
711.28	292.08
711.61	291.10
711.95	290.13
712.28	289.17
712.61	288.14
712.95	287.16
713.28	286.24
713.61	285.19
713.95	284.31
714.28	283.49
714.61	282.50
714.95	281.64
715.28	280.68
715.61	279.68
715.95	278.70
716.28	277.87
716.61	276.93
716.95	276.00
717.28	275.16
717.61	274.34
717.94	273.56
718.28	272.67
718.61	271.80
718.94	271.03
719.27	270.21
719.61	269.51
719.94	268.76
720.27	267.96
720.60	267.30
720.94	266.60
721.27	265.84
721.60	265.28
721.93	264.65
722.27	264.02
722.60	263.44
722.93	262.83
723.26	262.25
723.59	261.63
723.93	261.10
724.26	260.52
724.59	259.89
724.92	259.32
725.25	258.85
725.59	258.37
725.92	257.87
726.25	257.35
726.58	256.85
726.91	256.28
727.24	255.83
727.57	255.32
727.91	254.71
728.24	254.30
728.57	253.74
728.90	253.30
729.23	252.93
729.56	252.54
729.89	252.10
730.22	251.54
730.55	251.13
730.89	250.63
731.22	250.20
731.55	249.84
731.88	249.51
732.21	249.03
732.54	248.58
732.87	248.02
733.20	247.63
733.53	247.18
733.86	246.82
734.19	246.30
734.52	245.93
734.85	245.70
735.18	245.19
735.51	244.84
735.84	244.45
736.17	244.02
736.50	243.55
736.83	243.40
737.16	243.14
737.49	242.77
737.82	242.38
738.15	242.02
738.48	241.65
738.81	241.17
739.14	240.79
739.47	240.42
739.80	240.16
740.13	239.86
740.46	239.56
740.79	239.22
741.12	238.95
741.45	238.62
741.78	238.27
742.11	238.07
742.44	237.74
742.77	237.43
743.10	237.19
743.43	236.88
743.75	236.36
744.08	236.30
744.41	235.96
744.74	235.74
745.07	235.42
745.40	235.12
745.73	235.09
746.06	234.82
746.39	234.59
746.71	234.29
747.04	233.98
747.37	233.64
747.70	233.43
748.03	233.17
748.36	232.85
748.68	232.50
749.01	232.12
749.34	231.86
749.67	231.57
750.00	231.32
750.33	231.19
750.65	230.96
750.98	230.45
751.31	230.23
751.64	229.98
751.97	229.89
752.29	229.66
752.62	229.21
752.95	228.87
753.28	228.54
753.60	228.25
753.93	228.04
754.26	227.84
754.59	227.54
754.91	227.25
755.24	227.09
755.57	226.87
755.90	226.72
756.22	226.57
756.55	226.36
756.88	226.12
757.20	225.79
757.53	225.53
757.86	225.41
758.19	225.23
758.51	224.98
758.84	224.74
759.17	224.53
759.49	224.45
759.82	224.41
760.15	224.29
760.47	224.16
760.80	223.93
761.13	223.86
761.45	223.74
761.78	223.64
762.11	223.44
762.43	223.32
762.76	223.18
763.08	223.05
763.41	222.85
763.74	222.70
764.06	222.60
764.39	222.53
764.71	222.36
765.04	222.19
765.37	222.12
765.69	221.95
766.02	221.83
766.34	221.72
766.67	221.59
767.00	221.47
767.32	221.44
767.65	221.46
767.97	221.27
768.30	221.17
768.62	221.05
768.95	221.02
769.27	220.93
769.60	220.88
769.92	220.67
770.25	220.61
770.57	220.48
770.90	220.34
771.22	220.17
771.55	219.97
771.87	219.86
772.20	219.69
772.52	219.65
772.85	219.78
773.17	219.63
773.50	219.46
773.82	219.37
774.15	219.13
774.47	218.90
774.80	218.87
775.12	218.77
775.45	218.74
775.77	218.59
776.09	218.48
776.42	218.38
776.74	218.35
777.07	218.27
777.39	218.24
777.72	218.16
778.04	218.12
778.36	218.01
778.69	217.99
779.01	217.95
779.33	217.80
779.66	217.49
779.98	217.43
780.31	217.43
780.63	217.42
780.95	217.44
781.28	217.36
781.60	217.24
781.92	217.18
782.25	217.02
782.57	216.94
782.89	216.89
783.22	216.77
783.54	216.70
783.86	216.61
784.19	216.54
784.51	216.47
784.83	216.35
785.16	216.41
785.48	216.30
785.80	216.21
786.12	216.14
786.45	216.16
786.77	216.09
787.09	215.98
787.42	215.86
787.74	215.78
788.06	215.74
788.38	215.69
788.71	215.63
789.03	215.62
789.35	215.59
789.67	215.47
789.99	215.43
790.32	215.39
790.64	215.45
790.96	215.50
791.28	215.43
791.61	215.38
791.93	215.30
792.25	215.30
792.57	215.46
792.89	215.35
793.21	215.27
793.54	215.23
793.86	215.16
794.18	215.11
794.50	215.10
794.82	215.08
795.14	215.00
795.47	214.93
795.79	214.85
796.11	214.83
796.43	214.83
796.75	214.86
797.07	214.77
797.39	214.68
797.71	214.55
798.04	214.55
798.36	214.55
798.68	214.50
799.00	214.44
799.32	214.37
799.64	214.44
799.96	214.39
800.28	214.36
800.60	214.36
800.92	214.39
801.24	214.30
801.56	214.22
801.89	214.20
802.21	214.26
802.53	214.27
802.85	214.29
803.17	214.40
803.49	214.28
803.81	214.24
804.13	214.18
804.45	214.11
804.77	214.07
805.09	214.11
805.41	214.10
805.73	214.08
806.05	214.03
806.37	213.98
806.69	213.95
807.01	213.96
807.33	213.92
807.65	213.76
807.97	213.88
808.28	213.86
808.60	213.77
808.92	213.74
809.24	213.84
809.56	213.76
809.88	213.64
810.20	213.61
810.52	213.65
810.84	213.61
811.16	213.65
811.48	213.60
811.80	213.61
812.12	213.57
812.43	213.58
812.75	213.46
813.07	213.40
813.39	213.38
813.71	213.35
814.03	213.38
814.35	213.45
814.67	213.34
814.98	213.35
815.30	213.42
815.62	213.31
815.94	213.14
816.26	213.13
816.58	213.12
816.89	213.10
817.21	213.10
817.53	213.10
817.85	213.05
818.17	213.05
818.48	212.90
818.80	212.89
819.12	212.85
819.44	212.86
819.76	212.79
820.07	212.76
820.39	212.80
820.71	212.74
821.03	212.66
821.34	212.66
821.66	212.66
821.98	212.68
822.30	212.63
822.61	212.77
822.93	212.73
823.25	212.69
823.57	212.70
823.88	212.68
824.20	212.68
824.52	212.75
824.83	212.80
825.15	212.83
825.47	212.85
825.79	212.88
826.10	212.77
826.42	212.81
826.74	212.82
827.05	212.71
827.37	212.74
827.69	212.74
828.00	212.70
828.32	212.66
828.64	212.56
828.95	212.75
829.27	212.62
829.58	212.64
829.90	212.67
830.22	212.65
830.53	212.62
830.85	212.60
831.17	212.47
831.48	212.46
831.80	212.41
832.11	212.39
832.43	212.23
832.75	212.23
833.06	212.32
833.38	212.35
833.69	212.29
834.01	212.28
834.32	212.25
834.64	212.24
834.96	212.28
835.27	212.27
835.59	212.17
835.90	212.10
836.22	212.04
836.53	211.96
836.85	211.96
837.16	212.15
837.48	212.15
837.79	212.15
838.11	212.12
838.42	212.12
838.74	212.18
839.05	212.22
839.37	212.30
839.68	212.22
840.00	212.13
840.31	212.23
840.63	212.22
840.94	212.17
841.26	212.15
841.57	212.10
841.88	212.16
842.20	212.07
842.51	212.14
842.83	212.20
843.14	212.34
843.46	212.30
843.77	212.17
844.08	212.16
844.40	212.12
844.71	212.13
845.03	212.06
845.34	211.99
845.65	212.05
845.97	212.07
846.28	212.08
846.60	212.01
846.91	212.00
847.22	211.95
847.54	212.04
847.85	212.02
848.16	212.02
848.48	211.90
848.79	211.97
849.10	211.96
849.42	211.93
849.73	211.83
850.04	211.88
850.36	211.80
850.67	211.83
850.98	211.80
851.30	211.79
851.61	211.82
851.92	211.84
852.23	211.90
852.55	211.88
852.86	211.84
853.17	211.91
853.49	211.90
853.80	211.93
854.11	211.90
854.42	211.94
854.74	211.98
855.05	212.04
855.36	211.99
855.67	212.01
855.99	212.03
856.30	212.19
856.61	212.18
856.92	212.17
857.23	212.14
857.55	212.20
857.86	212.17
858.17	212.22
858.48	212.21
858.79	212.09
859.11	212.07
859.42	212.11
859.73	212.05
860.04	211.95
860.35	211.95
860.66	211.89
860.98	211.87
861.29	211.78
861.60	211.76
861.91	211.80
862.22	211.76
862.53	211.72
862.84	211.48
863.16	211.57
863.47	211.54
863.78	211.55
864.09	211.61
864.40	211.56
864.71	211.58
865.02	211.59
865.33	211.66
865.64	211.65
865.95	211.64
866.27	211.81
866.58	211.87
866.89	211.83
867.20	211.91
867.51	211.91
867.82	211.96
868.13	211.97
868.44	212.01
868.75	212.00
869.06	212.04
869.37	212.08
869.68	211.98
869.99	212.01
870.30	212.00
870.61	211.97
870.92	212.01
871.23	211.98
871.54	211.98
871.85	211.98
872.16	212.03
872.47	211.97
872.78	211.81
873.09	211.88
873.40	211.91
873.71	211.82
874.02	211.83
874.33	211.80
874.64	211.84
874.95	211.78
875.26	211.78
875.56	211.75
875.87	211.78
876.18	211.73
876.49	211.99
876.80	211.99
877.11	211.93
877.42	211.97
877.73	211.99
878.04	211.94
878.35	211.89
878.66	211.86
878.96	211.88
879.27	211.89
879.58	211.88
879.89	211.82
880.20	211.93
880.51	211.94
880.82	211.93
881.12	211.91
881.43	211.85
881.74	211.84
882.05	211.81
882.36	211.76
882.67	211.79
882.97	211.52
883.28	211.50
883.59	211.55
883.90	211.50
884.21	211.50
884.51	211.50
884.82	211.55
885.13	211.55
885.44	211.57
885.74	211.58
886.05	211.54
886.36	211.59
886.67	211.53
886.98	211.61
887.28	211.65
887.59	211.64
887.90	211.68
888.20	211.64
888.51	211.66
888.82	211.66
889.13	211.65
889.43	211.70
889.74	211.74
890.05	211.71
890.35	211.70
890.66	211.69
890.97	211.73
891.28	211.67
891.58	211.64
891.89	211.62
892.20	211.59
892.50	211.56
892.81	211.59
893.12	211.55
893.42	211.49
893.73	211.49
894.04	211.52
894.34	211.56
894.65	211.57
894.95	211.61
895.26	211.64
895.57	211.74
895.87	211.75
896.18	211.66
896.48	211.65
896.79	211.68
897.10	211.68
897.40	211.66
897.71	211.72
898.01	211.69
898.32	211.77
898.63	211.74
898.93	211.78
899.24	211.75
899.54	211.80
899.85	211.77
900.15	211.76
900.46	211.74
900.76	211.73
901.07	211.75
901.38	211.76
901.68	211.70
901.99	211.60
902.29	211.53
902.60	211.53
902.90	211.48
903.21	211.43
903.51	211.38
903.82	211.41
904.12	211.38
904.43	211.32
904.73	211.26
905.03	211.34
905.34	211.47
905.64	211.42
905.95	211.42
906.25	211.36
906.56	211.34
906.86	211.36
907.17	211.32
907.47	211.35
907.77	211.29
908.08	211.27
908.38	211.27
908.69	211.29
908.99	211.34
909.30	211.39
909.60	211.39
909.90	211.47
910.21	211.38
910.51	211.35
910.81	211.44
911.12	211.44
911.42	211.36
911.73	211.20
912.03	211.25
912.33	211.24
912.64	211.30
912.94	211.30
913.24	211.28
913.55	211.30
913.85	211.26
914.15	211.29
914.46	211.34
914.76	211.43
915.06	211.40
915.37	211.36
915.67	211.31
915.97	211.37
916.27	211.26
916.58	211.29
916.88	211.31
917.18	211.28
917.49	211.32
917.79	211.34
918.09	211.40
918.39	211.41
918.70	211.45
919.00	211.42
919.30	211.45
919.60	211.38
919.91	211.31
920.21	211.27
920.51	211.25
920.81	211.26
921.12	211.17
921.42	211.14
921.72	211.20
922.02	211.27
922.32	211.24
922.63	211.28
922.93	211.38
923.23	211.35
923.53	211.30
923.83	211.20
924.13	211.20
924.44	211.11
924.74	211.13
925.04	211.17
925.34	211.14
925.64	211.08
925.94	211.07
926.24	211.24
926.55	211.22
926.85	211.27
927.15	211.22
927.45	211.19
927.75	211.19
928.05	211.17
928.35	211.13
928.65	211.11
928.95	211.12
929.26	211.03
929.56	211.02
929.86	211.10
930.16	211.13
930.46	211.11
930.76	211.20
931.06	211.14
931.36	211.05
931.66	211.09
931.96	211.11
932.26	211.14
932.56	211.01
932.86	211.03
933.16	210.96
933.46	210.97
933.76	210.99
934.06	211.07
934.36	211.13
934.66	211.16
934.96	211.15
935.26	211.13
935.56	211.16
935.86	211.12
936.16	211.07
936.46	211.03
936.76	211.05
937.06	210.97
937.36	210.93
937.66	210.95
937.96	210.89
938.26	210.84
938.56	210.80
938.86	210.85
939.16	210.92
939.46	210.93
939.76	210.94
940.06	210.92
940.35	210.85
940.65	210.70
940.95	210.72
941.25	210.71
941.55	210.69
941.85	210.68
942.15	210.75
942.45	210.83
942.75	210.92
943.04	210.94
943.34	210.99
943.64	210.96
943.94	210.92
944.24	210.98
944.54	211.00
944.84	211.09
945.13	211.03
945.43	210.98
945.73	211.04
946.03	211.02
946.33	211.05
946.62	211.09
946.92	211.12
947.22	211.07
947.52	211.12
947.82	211.08
948.11	211.12
948.41	211.10
948.71	210.99
949.01	211.01
949.31	210.95
949.60	210.94
949.90	211.02
950.20	211.03
950.50	211.01
950.79	211.01
951.09	211.02
951.39	211.05
951.69	211.02
951.98	211.00
952.28	210.93
952.58	210.98
952.87	210.90
953.17	210.94
953.47	210.94
953.76	210.87
954.06	210.85
954.36	210.84
954.66	210.81
954.95	210.83
955.25	210.77
955.55	210.75
955.84	210.71
956.14	210.75
956.44	210.73
956.73	210.70
957.03	210.71
957.32	210.63
957.62	210.57
957.92	210.61
958.21	210.60
958.51	210.88
958.81	210.84
959.10	210.95
959.40	210.92
959.69	210.94
959.99	211.04
960.29	211.09
960.58	211.06
960.88	211.11
961.17	211.12
961.47	211.12
961.76	211.12
962.06	211.17
962.36	211.10
962.65	211.12
962.95	211.16
963.24	211.15
963.54	211.20
963.83	211.26
964.13	211.20
964.42	211.15
964.72	211.00
965.01	211.05
965.31	210.98
965.60	211.00
965.90	211.10
966.19	211.00
966.49	210.96
966.78	210.94
967.08	210.97
967.37	210.99
967.67	211.01
967.96	211.05
968.26	211.04
968.55	211.03
968.85	211.04
969.14	211.01
969.43	210.98
969.73	210.97
970.02	210.95
970.32	210.98
970.61	210.99
970.91	210.91
971.20	210.80
971.49	210.82
971.79	210.78
972.08	210.65
972.38	210.69
972.67	210.73
972.96	210.80
973.26	210.71
973.55	210.74
973.85	210.72
974.14	210.70
974.43	210.72
974.73	210.72
975.02	210.61
975.31	210.61
975.61	210.66
975.90	210.62
976.19	210.58
976.49	210.54
976.78	210.51
977.07	210.51
977.37	210.50
977.66	210.49
977.95	210.53
978.24	210.51
978.54	210.54
978.83	210.55
979.12	210.50
979.42	210.52
979.71	210.51
980.00	210.54
980.29	210.60
980.59	210.55
980.88	210.61
981.17	210.62
981.46	210.55
981.76	210.57
982.05	210.61
982.34	210.63
982.63	210.68
982.93	210.73
983.22	210.80
983.51	210.88
983.80	210.87
984.09	210.87
984.39	210.81
984.68	210.83
984.97	210.77
985.26	210.73
985.55	210.75
985.85	210.73
986.14	210.71
986.43	210.68
986.72	210.66
987.01	210.58
987.30	210.64
987.59	210.72
987.89	210.68
988.18	210.61
988.47	210.64
988.76	210.61
989.05	210.55
989.34	210.50
989.63	210.52
989.92	210.55
990.22	210.51
990.51	210.58
990.80	210.50
991.09	210.54
991.38	210.55
991.67	210.50
991.96	210.41
992.25	210.41
992.54	210.39
992.83	210.43
993.12	210.40
993.41	210.44
993.70	210.55
993.99	210.64
994.28	210.72
994.58	210.73
994.87	210.69
995.16	210.75
995.45	210.67
995.74	210.64
996.03	210.62
996.32	210.62
996.61	210.73
996.90	210.77
997.19	210.81
997.48	210.80
997.77	210.84
998.06	210.85
998.34	210.80
998.63	210.75
998.92	210.72
999.21	210.80
999.50	210.75
999.79	210.71
1000.08	210.67
1000.37	210.66
1000.66	210.65
1000.95	210.77
1001.24	210.80
1001.53	210.96
1001.82	211.01
1002.11	210.93
1002.40	210.97
1002.68	210.97
1002.97	211.09
1003.26	211.08
1003.55	211.10
1003.84	211.08
1004.13	211.19
1004.42	211.27
1004.71	211.35
1004.99	211.37
1005.28	211.43
1005.57	211.50
1005.86	211.45
1006.15	211.43
1006.44	211.39
1006.72	211.41
1007.01	211.36
1007.30	211.32
1007.59	211.28
1007.88	211.18
1008.17	211.27
1008.45	211.25
1008.74	211.17
1009.03	211.11
1009.32	211.10
1009.60	211.10
1009.89	211.13
1010.18	211.05
1010.47	211.01
1010.76	211.01
1011.04	211.00
1011.33	211.06
1011.62	211.02
1011.91	211.00
1012.19	211.01
1012.48	211.05
1012.77	211.05
1013.05	211.15
1013.34	211.15
1013.63	211.10
1013.92	211.15
1014.20	211.15
1014.49	211.16
1014.78	211.24
1015.06	211.16
1015.35	211.20
1015.64	211.24
1015.92	211.29
1016.21	211.29
1016.50	211.29
1016.78	211.29
1017.07	211.41
1017.36	211.30
1017.64	211.29
1017.93	211.30
1018.22	211.31
1018.50	211.28
1018.79	211.23
1019.08	211.10
1019.36	211.09
1019.65	211.15
1019.93	211.23
1020.22	211.28
1020.51	211.33
1020.79	211.25
1021.08	211.65
1021.36	210.50
1021.65	210.20
1021.94	210.45
1022.22	210.70
1022.51	211.80
1022.79	212.00
1023.08	212.30
1023.36	212.25
1023.65	210.45
>>>>>End Processed Spectral Data<<<<<
