SpectraSuite Data File
++++++++++++++++++++++++++++++++++++
Date: Mon Feb 25 17:32:41 EST 2013
User: group
Dark Spectrum Present: No
Reference Spectrum Present: No
Number of Sampled Component Spectra: 1
Spectrometers: USB2E7196
Integration Time (usec): 52000 (USB2E7196)
Spectra Averaged: 20 (USB2E7196)
Boxcar Smoothing: 10 (USB2E7196)
Correct for Electrical Dark: No (USB2E7196)
Strobe/Lamp Enabled: No (USB2E7196)
Correct for Detector Non-linearity: No (USB2E7196)
Correct for Stray Light: No (USB2E7196)
Number of Pixels in Processed Spectrum: 2048
>>>>>Begin Processed Spectral Data<<<<<
339.09	0.00
339.48	200.05
339.86	201.95
340.24	201.25
340.63	203.15
341.01	209.05
341.39	206.55
341.78	206.40
342.16	208.75
342.54	209.35
342.93	198.57
343.31	208.62
343.69	209.12
344.07	209.55
344.46	210.03
344.84	210.42
345.22	210.53
345.60	210.78
345.99	211.03
346.37	211.14
346.75	211.22
347.13	211.27
347.52	211.40
347.90	211.50
348.28	211.41
348.66	211.50
349.05	211.55
349.43	211.66
349.81	211.76
350.19	211.81
350.57	211.89
350.96	211.95
351.34	212.04
351.72	212.18
352.10	212.29
352.48	212.36
352.87	212.40
353.25	212.48
353.63	212.57
354.01	212.61
354.39	212.73
354.77	212.82
355.15	212.96
355.54	213.03
355.92	213.06
356.30	213.21
356.68	213.32
357.06	213.35
357.44	213.34
357.82	213.33
358.20	213.43
358.58	213.46
358.97	213.52
359.35	213.58
359.73	213.65
360.11	213.64
360.49	213.69
360.87	213.81
361.25	213.82
361.63	213.86
362.01	213.93
362.39	213.96
362.77	214.01
363.15	213.95
363.53	213.91
363.91	213.90
364.29	213.86
364.67	213.75
365.05	213.77
365.43	213.75
365.81	213.74
366.19	213.82
366.57	213.92
366.95	213.93
367.33	213.94
367.71	213.92
368.09	213.96
368.47	213.90
368.85	213.78
369.23	213.89
369.61	213.82
369.99	213.80
370.37	213.74
370.75	213.85
371.13	213.80
371.51	213.82
371.89	213.82
372.27	213.76
372.65	213.75
373.03	213.75
373.41	213.79
373.78	213.80
374.16	213.63
374.54	213.49
374.92	213.41
375.30	213.33
375.68	213.25
376.06	213.11
376.44	213.05
376.82	213.03
377.19	212.90
377.57	212.83
377.95	212.76
378.33	212.77
378.71	212.56
379.09	212.58
379.47	212.58
379.84	212.48
380.22	212.47
380.60	212.45
380.98	212.35
381.36	212.27
381.73	212.17
382.11	212.22
382.49	212.15
382.87	212.09
383.25	212.04
383.62	212.22
384.00	212.23
384.38	212.22
384.76	212.25
385.13	212.28
385.51	212.24
385.89	212.18
386.27	212.13
386.64	212.05
387.02	212.04
387.40	212.00
387.78	212.07
388.15	212.06
388.53	211.94
388.91	211.97
389.29	211.88
389.66	211.89
390.04	211.79
390.42	211.89
390.79	211.95
391.17	211.98
391.55	211.73
391.92	211.76
392.30	211.80
392.68	211.75
393.05	211.72
393.43	211.74
393.81	211.75
394.18	211.75
394.56	211.83
394.94	211.85
395.31	211.78
395.69	211.78
396.06	211.80
396.44	211.87
396.82	211.84
397.19	212.03
397.57	212.04
397.95	212.09
398.32	211.98
398.70	212.03
399.07	211.99
399.45	212.02
399.82	212.02
400.20	212.02
400.58	212.03
400.95	212.04
401.33	212.12
401.70	212.24
402.08	212.31
402.45	212.35
402.83	212.41
403.20	212.47
403.58	212.51
403.95	212.64
404.33	212.81
404.71	212.90
405.08	213.08
405.46	213.19
405.83	213.31
406.21	213.46
406.58	213.53
406.96	213.65
407.33	213.82
407.70	213.98
408.08	214.31
408.45	214.65
408.83	214.98
409.20	215.18
409.58	215.37
409.95	215.63
410.33	215.90
410.70	216.11
411.08	216.49
411.45	216.90
411.82	217.18
412.20	217.52
412.57	218.12
412.95	218.37
413.32	218.88
413.69	219.45
414.07	219.99
414.44	220.65
414.82	221.36
415.19	222.16
415.56	222.93
415.94	223.62
416.31	224.33
416.68	225.18
417.06	226.21
417.43	227.16
417.81	228.23
418.18	229.40
418.55	230.63
418.93	231.82
419.30	233.10
419.67	234.56
420.04	235.94
420.42	237.26
420.79	239.10
421.16	240.85
421.54	242.67
421.91	244.56
422.28	246.46
422.66	248.51
423.03	250.44
423.40	252.50
423.77	254.74
424.15	257.04
424.52	259.35
424.89	261.87
425.26	264.37
425.64	266.72
426.01	269.24
426.38	272.04
426.75	274.86
427.13	277.64
427.50	280.56
427.87	283.63
428.24	286.79
428.61	289.62
428.99	292.79
429.36	296.26
429.73	299.65
430.10	303.06
430.47	306.60
430.85	310.21
431.22	314.19
431.59	318.40
431.96	322.27
432.33	326.55
432.70	330.78
433.08	335.58
433.45	340.14
433.82	344.73
434.19	349.70
434.56	354.64
434.93	359.41
435.30	364.08
435.68	369.39
436.05	374.57
436.42	379.80
436.79	384.52
437.16	389.56
437.53	394.88
437.90	400.17
438.27	405.30
438.64	410.74
439.01	415.57
439.38	419.84
439.75	424.08
440.13	429.00
440.50	433.39
440.87	437.12
441.24	441.12
441.61	445.34
441.98	448.50
442.35	452.01
442.72	455.73
443.09	459.29
443.46	461.37
443.83	462.74
444.20	463.88
444.57	465.61
444.94	466.32
445.31	467.11
445.68	467.84
446.05	468.09
446.42	467.43
446.79	466.62
447.16	465.78
447.53	465.13
447.90	463.00
448.27	460.98
448.64	458.12
449.01	455.95
449.37	452.29
449.74	448.74
450.11	444.80
450.48	440.25
450.85	435.72
451.22	431.78
451.59	428.04
451.96	424.45
452.33	419.74
452.70	415.50
453.07	410.50
453.43	405.21
453.80	400.21
454.17	395.42
454.54	391.01
454.91	386.10
455.28	381.43
455.65	376.96
456.02	372.77
456.38	369.09
456.75	364.42
457.12	360.65
457.49	356.81
457.86	353.01
458.23	349.80
458.59	346.27
458.96	342.80
459.33	339.65
459.70	336.44
460.07	333.89
460.43	330.97
460.80	328.21
461.17	325.91
461.54	323.46
461.91	321.10
462.27	318.65
462.64	316.72
463.01	314.55
463.38	312.47
463.74	310.11
464.11	308.26
464.48	306.67
464.85	304.93
465.21	303.61
465.58	302.15
465.95	300.44
466.32	299.06
466.68	297.60
467.05	296.21
467.42	294.96
467.78	293.61
468.15	292.32
468.52	291.39
468.88	290.12
469.25	288.90
469.62	287.99
469.98	287.00
470.35	286.09
470.72	285.27
471.08	284.31
471.45	283.56
471.82	282.77
472.18	281.94
472.55	281.33
472.92	280.53
473.28	279.95
473.65	279.33
474.02	278.79
474.38	278.36
474.75	278.06
475.11	277.64
475.48	277.28
475.85	277.05
476.21	276.79
476.58	276.68
476.94	276.80
477.31	276.72
477.67	276.75
478.04	276.79
478.41	276.84
478.77	277.19
479.14	277.25
479.50	277.47
479.87	277.75
480.23	278.10
480.60	278.62
480.96	278.98
481.33	279.73
481.69	280.33
482.06	281.04
482.42	281.63
482.79	282.36
483.15	283.24
483.52	284.25
483.88	285.19
484.25	286.21
484.61	287.14
484.98	288.31
485.34	289.62
485.71	291.01
486.07	292.48
486.44	293.80
486.80	295.49
487.17	297.19
487.53	298.98
487.90	300.85
488.26	302.72
488.62	304.84
488.99	306.90
489.35	308.97
489.72	311.21
490.08	313.63
490.44	316.19
490.81	318.84
491.17	321.60
491.54	324.54
491.90	327.57
492.26	330.83
492.63	334.14
492.99	337.56
493.36	341.14
493.72	344.96
494.08	349.02
494.45	353.23
494.81	357.66
495.17	362.17
495.54	366.96
495.90	371.99
496.26	377.26
496.63	382.70
496.99	388.51
497.35	394.41
497.72	400.64
498.08	407.18
498.44	413.95
498.80	421.02
499.17	428.30
499.53	435.92
499.89	443.92
500.26	451.97
500.62	460.37
500.98	469.23
501.34	478.22
501.71	487.75
502.07	497.47
502.43	507.42
502.79	517.79
503.16	528.47
503.52	539.36
503.88	550.45
504.24	562.02
504.60	573.85
504.97	586.26
505.33	598.83
505.69	611.75
506.05	625.26
506.41	638.63
506.78	652.52
507.14	666.67
507.50	681.19
507.86	696.26
508.22	711.72
508.59	727.15
508.95	743.17
509.31	759.10
509.67	775.60
510.03	792.63
510.39	810.00
510.75	827.70
511.12	845.80
511.48	864.15
511.84	882.69
512.20	901.39
512.56	920.51
512.92	939.89
513.28	959.36
513.64	978.88
514.00	998.75
514.37	1019.06
514.73	1039.99
515.09	1060.69
515.45	1081.37
515.81	1102.36
516.17	1123.60
516.53	1145.01
516.89	1166.79
517.25	1188.37
517.61	1209.93
517.97	1231.53
518.33	1252.96
518.69	1274.92
519.05	1296.94
519.41	1319.07
519.77	1341.57
520.13	1363.75
520.49	1385.90
520.85	1408.87
521.21	1431.45
521.57	1454.53
521.93	1476.49
522.29	1498.92
522.65	1521.41
523.01	1543.90
523.37	1566.04
523.73	1588.38
524.09	1610.43
524.45	1632.67
524.81	1655.08
525.17	1677.46
525.53	1699.85
525.89	1722.28
526.25	1743.76
526.61	1765.18
526.97	1786.89
527.33	1808.15
527.68	1829.38
528.04	1850.39
528.40	1870.55
528.76	1891.11
529.12	1911.76
529.48	1933.44
529.84	1953.69
530.20	1974.20
530.56	1994.67
530.91	2015.48
531.27	2035.95
531.63	2055.71
531.99	2075.45
532.35	2094.41
532.71	2113.40
533.07	2132.80
533.42	2151.04
533.78	2170.01
534.14	2188.48
534.50	2205.70
534.86	2223.72
535.21	2240.82
535.57	2258.75
535.93	2276.13
536.29	2293.15
536.65	2309.95
537.00	2325.39
537.36	2340.77
537.72	2355.68
538.08	2370.87
538.44	2385.77
538.79	2400.91
539.15	2415.95
539.51	2430.30
539.87	2445.71
540.22	2460.16
540.58	2475.01
540.94	2489.62
541.29	2502.55
541.65	2514.46
542.01	2527.45
542.37	2539.24
542.72	2551.12
543.08	2561.95
543.44	2573.79
543.79	2583.81
544.15	2593.52
544.51	2604.57
544.87	2615.62
545.22	2624.97
545.58	2633.52
545.94	2640.83
546.29	2647.10
546.65	2653.43
547.01	2659.92
547.36	2665.50
547.72	2670.93
548.07	2674.64
548.43	2678.23
548.79	2682.47
549.14	2687.44
549.50	2691.94
549.86	2695.80
550.21	2699.85
550.57	2703.99
550.92	2706.09
551.28	2708.86
551.64	2711.80
551.99	2714.17
552.35	2715.74
552.70	2718.54
553.06	2721.13
553.41	2724.17
553.77	2726.90
554.13	2729.31
554.48	2731.14
554.84	2732.36
555.19	2733.03
555.55	2733.90
555.90	2734.59
556.26	2734.87
556.61	2734.84
556.97	2733.60
557.32	2733.55
557.68	2731.55
558.03	2729.98
558.39	2728.93
558.74	2728.84
559.10	2727.16
559.45	2725.06
559.81	2723.83
560.16	2721.05
560.52	2718.66
560.87	2715.78
561.23	2712.38
561.58	2709.88
561.94	2706.52
562.29	2703.15
562.64	2700.59
563.00	2697.89
563.35	2695.76
563.71	2694.26
564.06	2692.08
564.42	2690.05
564.77	2687.55
565.12	2686.07
565.48	2682.76
565.83	2679.58
566.19	2676.13
566.54	2672.29
566.89	2668.60
567.25	2664.70
567.60	2661.56
567.96	2657.79
568.31	2654.11
568.66	2650.53
569.02	2645.85
569.37	2640.89
569.72	2637.18
570.08	2632.13
570.43	2626.61
570.78	2620.95
571.14	2614.41
571.49	2607.61
571.84	2601.67
572.20	2594.74
572.55	2588.23
572.90	2581.66
573.26	2574.76
573.61	2567.32
573.96	2560.75
574.31	2553.10
574.67	2545.15
575.02	2536.69
575.37	2528.08
575.72	2519.14
576.08	2511.54
576.43	2502.85
576.78	2494.88
577.13	2486.86
577.49	2478.81
577.84	2471.09
578.19	2463.29
578.54	2455.81
578.90	2448.85
579.25	2440.10
579.60	2430.93
579.95	2421.68
580.30	2413.55
580.66	2405.30
581.01	2396.35
581.36	2386.83
581.71	2378.14
582.06	2369.57
582.42	2361.29
582.77	2352.41
583.12	2343.68
583.47	2334.66
583.82	2326.36
584.17	2317.53
584.53	2308.25
584.88	2299.29
585.23	2290.10
585.58	2280.55
585.93	2270.68
586.28	2261.60
586.63	2252.83
586.98	2244.57
587.34	2236.35
587.69	2227.26
588.04	2218.23
588.39	2210.06
588.74	2201.35
589.09	2192.58
589.44	2183.02
589.79	2174.59
590.14	2166.85
590.49	2158.19
590.84	2149.15
591.19	2141.00
591.54	2132.32
591.89	2121.85
592.25	2112.60
592.60	2102.88
592.95	2093.86
593.30	2084.53
593.65	2074.79
594.00	2065.03
594.35	2056.83
594.70	2047.58
595.05	2038.98
595.40	2030.24
595.75	2020.59
596.10	2012.38
596.45	2003.77
596.80	1995.93
597.15	1987.69
597.50	1978.21
597.85	1969.92
598.19	1961.42
598.54	1952.86
598.89	1945.07
599.24	1938.72
599.59	1931.36
599.94	1924.32
600.29	1916.15
600.64	1908.39
600.99	1899.89
601.34	1892.87
601.69	1883.72
602.04	1875.55
602.39	1867.07
602.74	1859.23
603.08	1852.65
603.43	1845.40
603.78	1837.57
604.13	1829.46
604.48	1821.39
604.83	1814.61
605.18	1807.78
605.53	1800.04
605.87	1792.44
606.22	1785.32
606.57	1777.18
606.92	1769.28
607.27	1761.46
607.62	1754.36
607.96	1747.42
608.31	1741.16
608.66	1733.59
609.01	1726.21
609.36	1718.60
609.70	1711.10
610.05	1703.36
610.40	1694.83
610.75	1686.60
611.10	1678.99
611.44	1670.19
611.79	1661.28
612.14	1652.12
612.49	1642.20
612.83	1633.68
613.18	1623.85
613.53	1614.06
613.88	1604.49
614.22	1595.28
614.57	1586.01
614.92	1576.49
615.27	1567.12
615.61	1557.53
615.96	1548.24
616.31	1539.87
616.65	1531.75
617.00	1523.30
617.35	1514.35
617.70	1505.56
618.04	1496.09
618.39	1486.63
618.74	1478.09
619.08	1469.27
619.43	1460.88
619.78	1453.15
620.12	1445.07
620.47	1437.53
620.82	1429.23
621.16	1421.11
621.51	1412.85
621.85	1404.40
622.20	1396.24
622.55	1387.70
622.89	1379.24
623.24	1371.29
623.59	1362.63
623.93	1354.37
624.28	1346.14
624.62	1338.13
624.97	1330.11
625.32	1322.43
625.66	1315.25
626.01	1307.95
626.35	1300.82
626.70	1293.15
627.04	1285.95
627.39	1278.27
627.73	1270.84
628.08	1263.95
628.43	1256.44
628.77	1249.05
629.12	1241.86
629.46	1235.06
629.81	1228.00
630.15	1220.73
630.50	1213.46
630.84	1206.33
631.19	1199.02
631.53	1192.23
631.88	1184.79
632.22	1177.43
632.57	1170.68
632.91	1163.09
633.26	1155.73
633.60	1148.35
633.95	1141.65
634.29	1134.04
634.64	1127.48
634.98	1120.24
635.32	1113.27
635.67	1107.06
636.01	1100.62
636.36	1093.88
636.70	1087.35
637.05	1080.90
637.39	1074.74
637.73	1068.32
638.08	1062.48
638.42	1056.50
638.77	1049.99
639.11	1043.75
639.45	1037.79
639.80	1031.15
640.14	1024.80
640.49	1018.80
640.83	1012.82
641.17	1006.35
641.52	1000.55
641.86	993.92
642.20	987.90
642.55	981.03
642.89	974.50
643.23	967.97
643.58	962.00
643.92	955.31
644.26	949.13
644.61	943.14
644.95	937.09
645.29	930.42
645.64	923.83
645.98	917.59
646.32	911.81
646.66	905.60
647.01	899.57
647.35	893.88
647.69	887.45
648.04	881.43
648.38	875.51
648.72	869.36
649.06	863.36
649.41	857.16
649.75	851.32
650.09	845.50
650.43	839.56
650.78	833.56
651.12	827.55
651.46	821.63
651.80	815.54
652.14	809.50
652.49	803.91
652.83	798.20
653.17	792.35
653.51	786.45
653.85	780.68
654.20	774.93
654.54	769.05
654.88	763.57
655.22	757.81
655.56	752.03
655.90	746.25
656.25	740.53
656.59	735.06
656.93	729.89
657.27	724.48
657.61	719.17
657.95	713.91
658.29	708.90
658.64	703.60
658.98	698.52
659.32	693.25
659.66	688.11
660.00	682.80
660.34	677.61
660.68	672.37
661.02	667.27
661.36	662.65
661.70	657.79
662.05	652.98
662.39	648.46
662.73	644.03
663.07	639.61
663.41	635.38
663.75	630.98
664.09	626.31
664.43	621.68
664.77	617.30
665.11	612.84
665.45	608.52
665.79	604.25
666.13	599.91
666.47	595.86
666.81	591.53
667.15	587.45
667.49	583.57
667.83	579.76
668.17	575.95
668.51	572.11
668.85	568.38
669.19	564.78
669.53	560.82
669.87	556.86
670.21	553.14
670.55	549.15
670.89	545.65
671.23	542.40
671.57	539.03
671.91	535.56
672.25	532.07
672.58	528.57
672.92	525.20
673.26	521.90
673.60	518.55
673.94	515.40
674.28	512.12
674.62	508.82
674.96	505.47
675.30	502.39
675.64	499.18
675.97	495.99
676.31	492.95
676.65	490.15
676.99	487.44
677.33	484.35
677.67	481.45
678.01	478.35
678.34	475.32
678.68	472.42
679.02	469.32
679.36	466.47
679.70	463.66
680.04	460.81
680.37	457.84
680.71	455.11
681.05	452.52
681.39	449.87
681.73	447.21
682.06	444.85
682.40	442.25
682.74	439.60
683.08	437.11
683.42	434.32
683.75	431.65
684.09	429.01
684.43	426.60
684.77	424.11
685.10	421.56
685.44	418.99
685.78	416.47
686.12	414.28
686.45	411.94
686.79	409.65
687.13	407.40
687.46	405.30
687.80	403.06
688.14	400.68
688.48	398.59
688.81	396.36
689.15	394.12
689.49	391.88
689.82	389.78
690.16	387.46
690.50	385.48
690.83	383.30
691.17	381.10
691.51	378.91
691.84	376.77
692.18	374.89
692.52	373.07
692.85	371.26
693.19	369.33
693.52	367.44
693.86	365.59
694.20	363.74
694.53	361.80
694.87	359.85
695.21	357.88
695.54	355.92
695.88	354.04
696.21	352.20
696.55	350.55
696.88	348.79
697.22	347.17
697.56	345.49
697.89	343.84
698.23	342.24
698.56	340.73
698.90	339.28
699.23	337.60
699.57	335.97
699.90	334.26
700.24	332.59
700.58	330.87
700.91	329.26
701.25	327.75
701.58	326.37
701.92	324.96
702.25	323.60
702.59	322.16
702.92	320.88
703.26	319.50
703.59	318.06
703.93	316.87
704.26	315.56
704.60	314.26
704.93	313.03
705.26	311.70
705.60	310.53
705.93	309.29
706.27	308.17
706.60	307.04
706.94	305.95
707.27	304.85
707.61	303.88
707.94	302.76
708.27	301.54
708.61	300.43
708.94	299.39
709.28	298.20
709.61	297.11
709.94	296.04
710.28	294.93
710.61	293.92
710.95	292.68
711.28	291.68
711.61	290.62
711.95	289.64
712.28	288.75
712.61	287.58
712.95	286.59
713.28	285.69
713.61	284.64
713.95	283.81
714.28	282.88
714.61	281.87
714.95	280.96
715.28	280.07
715.61	279.09
715.95	278.19
716.28	277.51
716.61	276.74
716.95	275.85
717.28	275.03
717.61	274.24
717.94	273.49
718.28	272.59
718.61	271.85
718.94	271.07
719.27	270.35
719.61	269.75
719.94	269.02
720.27	268.18
720.60	267.51
720.94	266.74
721.27	266.10
721.60	265.53
721.93	264.82
722.27	264.27
722.60	263.73
722.93	263.08
723.26	262.36
723.59	261.67
723.93	261.12
724.26	260.59
724.59	260.00
724.92	259.46
725.25	259.00
725.59	258.49
725.92	258.02
726.25	257.43
726.58	256.88
726.91	256.39
727.24	255.95
727.57	255.48
727.91	254.88
728.24	254.37
728.57	253.94
728.90	253.58
729.23	253.09
729.56	252.71
729.89	252.28
730.22	251.80
730.55	251.35
730.89	250.81
731.22	250.38
731.55	249.88
731.88	249.45
732.21	249.02
732.54	248.61
732.87	248.20
733.20	247.78
733.53	247.31
733.86	246.88
734.19	246.43
734.52	246.08
734.85	245.87
735.18	245.46
735.51	244.96
735.84	244.56
736.17	244.16
736.50	243.60
736.83	243.34
737.16	242.99
737.49	242.65
737.82	242.36
738.15	241.99
738.48	241.65
738.81	241.21
739.14	240.78
739.47	240.28
739.80	239.83
740.13	239.44
740.46	239.12
740.79	238.68
741.12	238.33
741.45	237.89
741.78	237.43
742.11	237.21
742.44	236.91
742.77	236.60
743.10	236.27
743.43	235.95
743.75	235.54
744.08	235.45
744.41	235.10
744.74	234.77
745.07	234.51
745.40	234.30
745.73	234.13
746.06	233.91
746.39	233.70
746.71	233.47
747.04	233.18
747.37	232.90
747.70	232.73
748.03	232.47
748.36	232.23
748.68	232.04
749.01	231.73
749.34	231.52
749.67	231.30
750.00	231.09
750.33	231.00
750.65	230.71
750.98	230.18
751.31	229.99
751.64	229.72
751.97	229.54
752.29	229.31
752.62	229.01
752.95	228.72
753.28	228.51
753.60	228.30
753.93	228.17
754.26	227.90
754.59	227.67
754.91	227.45
755.24	227.29
755.57	227.00
755.90	226.84
756.22	226.54
756.55	226.29
756.88	225.98
757.20	225.68
757.53	225.47
757.86	225.33
758.19	225.20
758.51	225.04
758.84	224.81
759.17	224.64
759.49	224.53
759.82	224.43
760.15	224.33
760.47	224.13
760.80	223.91
761.13	223.91
761.45	223.67
761.78	223.52
762.11	223.42
762.43	223.31
762.76	223.09
763.08	223.02
763.41	222.86
763.74	222.82
764.06	222.75
764.39	222.66
764.71	222.57
765.04	222.45
765.37	222.32
765.69	222.14
766.02	221.98
766.34	221.80
766.67	221.67
767.00	221.56
767.32	221.54
767.65	221.47
767.97	221.32
768.30	221.28
768.62	221.16
768.95	220.97
769.27	220.90
769.60	220.83
769.92	220.66
770.25	220.60
770.57	220.48
770.90	220.33
771.22	220.18
771.55	220.04
771.87	219.93
772.20	219.82
772.52	219.89
772.85	219.97
773.17	219.87
773.50	219.77
773.82	219.61
774.15	219.44
774.47	219.31
774.80	219.21
775.12	219.20
775.45	219.20
775.77	219.14
776.09	219.06
776.42	218.96
776.74	218.96
777.07	218.88
777.39	218.82
777.72	218.78
778.04	218.75
778.36	218.69
778.69	218.62
779.01	218.52
779.33	218.33
779.66	218.11
779.98	218.05
780.31	217.92
780.63	217.94
780.95	217.96
781.28	217.85
781.60	217.73
781.92	217.60
782.25	217.46
782.57	217.37
782.89	217.30
783.22	217.23
783.54	217.12
783.86	217.05
784.19	216.85
784.51	216.83
784.83	216.72
785.16	216.66
785.48	216.55
785.80	216.49
786.12	216.39
786.45	216.30
786.77	216.27
787.09	216.26
787.42	216.12
787.74	215.95
788.06	215.91
788.38	215.89
788.71	215.85
789.03	215.81
789.35	215.84
789.67	215.75
789.99	215.77
790.32	215.77
790.64	215.83
790.96	216.03
791.28	215.87
791.61	215.88
791.93	215.82
792.25	215.81
792.57	215.86
792.89	215.76
793.21	215.75
793.54	215.63
793.86	215.60
794.18	215.55
794.50	215.50
794.82	215.46
795.14	215.40
795.47	215.40
795.79	215.39
796.11	215.21
796.43	215.18
796.75	215.10
797.07	215.07
797.39	214.92
797.71	214.73
798.04	214.71
798.36	214.61
798.68	214.62
799.00	214.63
799.32	214.58
799.64	214.58
799.96	214.55
800.28	214.54
800.60	214.48
800.92	214.49
801.24	214.45
801.56	214.42
801.89	214.41
802.21	214.35
802.53	214.27
802.85	214.35
803.17	214.32
803.49	214.26
803.81	214.10
804.13	214.09
804.45	214.06
804.77	214.14
805.09	214.13
805.41	214.06
805.73	214.03
806.05	213.99
806.37	214.05
806.69	214.00
807.01	213.97
807.33	213.97
807.65	213.82
807.97	213.94
808.28	213.94
808.60	213.87
808.92	213.86
809.24	213.95
809.56	213.88
809.88	213.83
810.20	213.73
810.52	213.81
810.84	213.71
811.16	213.62
811.48	213.54
811.80	213.56
812.12	213.54
812.43	213.48
812.75	213.45
813.07	213.34
813.39	213.30
813.71	213.30
814.03	213.21
814.35	213.29
814.67	213.13
814.98	213.06
815.30	213.06
815.62	212.99
815.94	212.91
816.26	212.91
816.58	212.87
816.89	212.98
817.21	212.94
817.53	212.99
817.85	213.04
818.17	213.02
818.48	212.94
818.80	212.88
819.12	212.90
819.44	212.81
819.76	212.81
820.07	212.83
820.39	212.75
820.71	212.82
821.03	212.76
821.34	212.77
821.66	212.85
821.98	212.81
822.30	212.86
822.61	212.89
822.93	212.82
823.25	212.81
823.57	212.79
823.88	212.84
824.20	212.86
824.52	212.91
824.83	212.88
825.15	212.91
825.47	212.95
825.79	212.89
826.10	212.92
826.42	212.93
826.74	212.94
827.05	212.91
827.37	212.92
827.69	212.92
828.00	212.97
828.32	212.89
828.64	212.86
828.95	212.90
829.27	212.78
829.58	212.83
829.90	212.88
830.22	212.84
830.53	212.72
830.85	212.65
831.17	212.53
831.48	212.61
831.80	212.54
832.11	212.57
832.43	212.55
832.75	212.53
833.06	212.57
833.38	212.46
833.69	212.47
834.01	212.44
834.32	212.44
834.64	212.34
834.96	212.37
835.27	212.38
835.59	212.34
835.90	212.37
836.22	212.34
836.53	212.29
836.85	212.26
837.16	212.45
837.48	212.51
837.79	212.60
838.11	212.50
838.42	212.56
838.74	212.56
839.05	212.57
839.37	212.58
839.68	212.49
840.00	212.49
840.31	212.57
840.63	212.55
840.94	212.54
841.26	212.59
841.57	212.56
841.88	212.59
842.20	212.48
842.51	212.44
842.83	212.38
843.14	212.49
843.46	212.48
843.77	212.34
844.08	212.26
844.40	212.15
844.71	212.08
845.03	212.03
845.34	211.89
845.65	211.82
845.97	211.76
846.28	211.73
846.60	211.81
846.91	211.71
847.22	211.73
847.54	211.65
847.85	211.62
848.16	211.63
848.48	211.60
848.79	211.71
849.10	211.80
849.42	211.89
849.73	211.69
850.04	211.70
850.36	211.64
850.67	211.69
850.98	211.67
851.30	211.71
851.61	211.69
851.92	211.74
852.23	211.80
852.55	211.87
852.86	211.90
853.17	211.84
853.49	211.90
853.80	211.89
854.11	211.94
854.42	211.83
854.74	211.71
855.05	211.74
855.36	211.64
855.67	211.57
855.99	211.55
856.30	211.79
856.61	211.81
856.92	211.80
857.23	211.78
857.55	211.79
857.86	211.81
858.17	211.87
858.48	211.89
858.79	211.89
859.11	211.90
859.42	211.82
859.73	211.81
860.04	211.83
860.35	211.79
860.66	211.72
860.98	211.81
861.29	211.90
861.60	211.82
861.91	211.95
862.22	211.90
862.53	211.86
862.84	211.71
863.16	211.73
863.47	211.77
863.78	211.69
864.09	211.66
864.40	211.71
864.71	211.66
865.02	211.62
865.33	211.53
865.64	211.54
865.95	211.58
866.27	211.69
866.58	211.68
866.89	211.70
867.20	211.75
867.51	211.78
867.82	211.75
868.13	211.81
868.44	211.71
868.75	211.72
869.06	211.75
869.37	211.72
869.68	211.64
869.99	211.62
870.30	211.71
870.61	211.79
870.92	211.71
871.23	211.68
871.54	211.76
871.85	211.88
872.16	211.79
872.47	211.80
872.78	211.72
873.09	211.72
873.40	211.68
873.71	211.64
874.02	211.63
874.33	211.63
874.64	211.61
874.95	211.66
875.26	211.63
875.56	211.64
875.87	211.58
876.18	211.60
876.49	211.79
876.80	211.78
877.11	211.75
877.42	211.75
877.73	211.78
878.04	211.77
878.35	211.72
878.66	211.72
878.96	211.69
879.27	211.65
879.58	211.66
879.89	211.69
880.20	211.75
880.51	211.71
880.82	211.68
881.12	211.69
881.43	211.64
881.74	211.66
882.05	211.61
882.36	211.67
882.67	211.69
882.97	211.44
883.28	211.37
883.59	211.29
883.90	211.31
884.21	211.37
884.51	211.34
884.82	211.31
885.13	211.40
885.44	211.35
885.74	211.33
886.05	211.29
886.36	211.37
886.67	211.29
886.98	211.41
887.28	211.45
887.59	211.51
887.90	211.53
888.20	211.51
888.51	211.60
888.82	211.54
889.13	211.53
889.43	211.75
889.74	211.78
890.05	211.81
890.35	211.84
890.66	211.75
890.97	211.75
891.28	211.72
891.58	211.71
891.89	211.74
892.20	211.78
892.50	211.83
892.81	211.70
893.12	211.69
893.42	211.57
893.73	211.55
894.04	211.47
894.34	211.50
894.65	211.49
894.95	211.44
895.26	211.44
895.57	211.53
895.87	211.33
896.18	211.34
896.48	211.39
896.79	211.30
897.10	211.32
897.40	211.33
897.71	211.40
898.01	211.36
898.32	211.40
898.63	211.35
898.93	211.31
899.24	211.35
899.54	211.37
899.85	211.35
900.15	211.36
900.46	211.45
900.76	211.46
901.07	211.47
901.38	211.47
901.68	211.48
901.99	211.39
902.29	211.35
902.60	211.35
902.90	211.26
903.21	211.37
903.51	211.40
903.82	211.41
904.12	211.37
904.43	211.39
904.73	211.37
905.03	211.34
905.34	211.49
905.64	211.44
905.95	211.44
906.25	211.45
906.56	211.50
906.86	211.40
907.17	211.34
907.47	211.40
907.77	211.34
908.08	211.36
908.38	211.38
908.69	211.43
908.99	211.44
909.30	211.47
909.60	211.41
909.90	211.45
910.21	211.44
910.51	211.45
910.81	211.42
911.12	211.37
911.42	211.38
911.73	211.21
912.03	211.25
912.33	211.33
912.64	211.34
912.94	211.26
913.24	211.26
913.55	211.27
913.85	211.17
914.15	211.25
914.46	211.28
914.76	211.29
915.06	211.25
915.37	211.21
915.67	211.22
915.97	211.19
916.27	211.07
916.58	211.08
916.88	211.05
917.18	211.07
917.49	211.21
917.79	211.26
918.09	211.29
918.39	211.31
918.70	211.29
919.00	211.32
919.30	211.45
919.60	211.46
919.91	211.47
920.21	211.52
920.51	211.53
920.81	211.52
921.12	211.49
921.42	211.53
921.72	211.60
922.02	211.60
922.32	211.64
922.63	211.73
922.93	211.77
923.23	211.82
923.53	211.84
923.83	211.72
924.13	211.72
924.44	211.75
924.74	211.80
925.04	211.83
925.34	211.86
925.64	211.76
925.94	211.73
926.24	211.79
926.55	211.81
926.85	211.82
927.15	211.82
927.45	211.81
927.75	211.82
928.05	211.75
928.35	211.76
928.65	211.78
928.95	211.67
929.26	211.61
929.56	211.68
929.86	211.65
930.16	211.66
930.46	211.60
930.76	211.58
931.06	211.51
931.36	211.44
931.66	211.43
931.96	211.44
932.26	211.48
932.56	211.36
932.86	211.36
933.16	211.29
933.46	211.26
933.76	211.24
934.06	211.30
934.36	211.40
934.66	211.39
934.96	211.32
935.26	211.42
935.56	211.35
935.86	211.32
936.16	211.30
936.46	211.28
936.76	211.31
937.06	211.26
937.36	211.24
937.66	211.27
937.96	211.20
938.26	211.13
938.56	211.05
938.86	211.07
939.16	211.08
939.46	211.06
939.76	211.03
940.06	210.99
940.35	210.94
940.65	210.80
940.95	210.77
941.25	210.78
941.55	210.75
941.85	210.85
942.15	210.87
942.45	210.91
942.75	210.94
943.04	210.82
943.34	210.86
943.64	210.82
943.94	210.74
944.24	210.78
944.54	210.84
944.84	210.87
945.13	210.80
945.43	210.75
945.73	210.79
946.03	210.84
946.33	210.88
946.62	210.86
946.92	210.90
947.22	210.88
947.52	210.85
947.82	210.86
948.11	210.82
948.41	210.75
948.71	210.63
949.01	210.65
949.31	210.75
949.60	210.72
949.90	210.72
950.20	210.79
950.50	210.78
950.79	210.73
951.09	210.79
951.39	210.88
951.69	210.83
951.98	210.87
952.28	210.82
952.58	210.87
952.87	210.80
953.17	210.82
953.47	210.87
953.76	210.84
954.06	210.81
954.36	210.79
954.66	210.76
954.95	210.91
955.25	210.86
955.55	210.91
955.84	210.90
956.14	210.96
956.44	210.92
956.73	210.89
957.03	210.88
957.32	210.89
957.62	210.80
957.92	210.91
958.21	210.88
958.51	211.10
958.81	211.05
959.10	211.07
959.40	211.12
959.69	211.14
959.99	211.28
960.29	211.25
960.58	211.26
960.88	211.31
961.17	211.18
961.47	211.24
961.76	211.16
962.06	211.18
962.36	211.21
962.65	211.26
962.95	211.26
963.24	211.32
963.54	211.29
963.83	211.34
964.13	211.30
964.42	211.25
964.72	211.09
965.01	211.10
965.31	211.17
965.60	211.08
965.90	211.18
966.19	211.07
966.49	211.13
966.78	211.16
967.08	211.13
967.37	211.20
967.67	211.17
967.96	211.28
968.26	211.24
968.55	211.21
968.85	211.10
969.14	211.13
969.43	211.05
969.73	211.06
970.02	211.04
970.32	211.00
970.61	210.98
970.91	210.96
971.20	210.95
971.49	210.90
971.79	210.99
972.08	210.86
972.38	210.96
972.67	210.91
972.96	210.92
973.26	210.87
973.55	210.93
973.85	210.90
974.14	210.85
974.43	210.94
974.73	210.91
975.02	210.96
975.31	210.97
975.61	211.06
975.90	211.08
976.19	211.07
976.49	211.14
976.78	211.18
977.07	211.25
977.37	211.25
977.66	211.31
977.95	211.23
978.24	211.24
978.54	211.20
978.83	211.21
979.12	211.23
979.42	211.31
979.71	211.29
980.00	211.27
980.29	211.30
980.59	211.20
980.88	211.33
981.17	211.37
981.46	211.38
981.76	211.35
982.05	211.38
982.34	211.43
982.63	211.38
982.93	211.38
983.22	211.39
983.51	211.44
983.80	211.43
984.09	211.45
984.39	211.51
984.68	211.43
984.97	211.41
985.26	211.37
985.55	211.31
985.85	211.27
986.14	211.36
986.43	211.33
986.72	211.36
987.01	211.30
987.30	211.30
987.59	211.26
987.89	211.28
988.18	211.20
988.47	211.22
988.76	211.23
989.05	211.25
989.34	211.20
989.63	211.23
989.92	211.28
990.22	211.28
990.51	211.20
990.80	211.27
991.09	211.37
991.38	211.37
991.67	211.41
991.96	211.36
992.25	211.33
992.54	211.33
992.83	211.33
993.12	211.26
993.41	211.29
993.70	211.31
993.99	211.23
994.28	211.26
994.58	211.23
994.87	211.22
995.16	211.18
995.45	211.18
995.74	211.07
996.03	211.06
996.32	211.11
996.61	211.17
996.90	211.20
997.19	211.13
997.48	211.16
997.77	211.07
998.06	211.10
998.34	211.06
998.63	211.06
998.92	211.04
999.21	211.05
999.50	211.03
999.79	211.05
1000.08	211.08
1000.37	211.06
1000.66	211.05
1000.95	211.06
1001.24	211.05
1001.53	211.00
1001.82	211.00
1002.11	210.90
1002.40	210.96
1002.68	210.94
1002.97	211.07
1003.26	211.01
1003.55	210.94
1003.84	210.97
1004.13	211.00
1004.42	210.99
1004.71	210.98
1004.99	210.98
1005.28	211.02
1005.57	211.02
1005.86	210.94
1006.15	210.97
1006.44	210.89
1006.72	210.94
1007.01	210.88
1007.30	210.88
1007.59	210.93
1007.88	210.92
1008.17	210.93
1008.45	210.80
1008.74	210.80
1009.03	210.70
1009.32	210.73
1009.60	210.75
1009.89	210.73
1010.18	210.65
1010.47	210.65
1010.76	210.64
1011.04	210.60
1011.33	210.62
1011.62	210.63
1011.91	210.67
1012.19	210.64
1012.48	210.65
1012.77	210.63
1013.05	210.71
1013.34	210.77
1013.63	210.71
1013.92	210.69
1014.20	210.64
1014.49	210.70
1014.78	210.58
1015.06	210.45
1015.35	210.44
1015.64	210.44
1015.92	210.47
1016.21	210.53
1016.50	210.48
1016.78	210.54
1017.07	210.60
1017.36	210.56
1017.64	210.51
1017.93	210.53
1018.22	210.46
1018.50	210.46
1018.79	210.50
1019.08	210.42
1019.36	210.38
1019.65	210.34
1019.93	210.43
1020.22	210.51
1020.51	210.57
1020.79	210.59
1021.08	209.60
1021.36	209.75
1021.65	211.60
1021.94	210.70
1022.22	210.35
1022.51	209.40
1022.79	211.80
1023.08	211.20
1023.36	212.75
1023.65	209.70
>>>>>End Processed Spectral Data<<<<<
