SpectraSuite Data File
++++++++++++++++++++++++++++++++++++
Date: Mon Feb 25 17:35:31 EST 2013
User: group
Dark Spectrum Present: No
Reference Spectrum Present: No
Number of Sampled Component Spectra: 1
Spectrometers: USB2E7196
Integration Time (usec): 52000 (USB2E7196)
Spectra Averaged: 20 (USB2E7196)
Boxcar Smoothing: 10 (USB2E7196)
Correct for Electrical Dark: No (USB2E7196)
Strobe/Lamp Enabled: No (USB2E7196)
Correct for Detector Non-linearity: No (USB2E7196)
Correct for Stray Light: No (USB2E7196)
Number of Pixels in Processed Spectrum: 2048
>>>>>Begin Processed Spectral Data<<<<<
339.09	0.00
339.48	197.70
339.86	200.70
340.24	201.35
340.63	203.25
341.01	206.90
341.39	204.65
341.78	206.90
342.16	208.45
342.54	207.50
342.93	197.83
343.31	207.86
343.69	208.41
344.07	208.84
344.46	209.24
344.84	209.68
345.22	209.89
345.60	210.17
345.99	210.36
346.37	210.48
346.75	210.66
347.13	210.71
347.52	210.80
347.90	210.93
348.28	210.96
348.66	211.04
349.05	211.04
349.43	211.21
349.81	211.26
350.19	211.36
350.57	211.45
350.96	211.48
351.34	211.51
351.72	211.70
352.10	211.83
352.48	211.95
352.87	211.95
353.25	212.02
353.63	212.12
354.01	212.20
354.39	212.33
354.77	212.39
355.15	212.50
355.54	212.60
355.92	212.64
356.30	212.63
356.68	212.83
357.06	212.86
357.44	212.84
357.82	212.97
358.20	212.97
358.58	212.99
358.97	213.11
359.35	213.25
359.73	213.31
360.11	213.37
360.49	213.42
360.87	213.43
361.25	213.56
361.63	213.70
362.01	213.76
362.39	213.66
362.77	213.75
363.15	213.77
363.53	213.80
363.91	213.82
364.29	213.93
364.67	213.75
365.05	213.85
365.43	213.85
365.81	213.85
366.19	213.97
366.57	214.12
366.95	214.10
367.33	214.10
367.71	214.07
368.09	214.08
368.47	214.08
368.85	214.10
369.23	214.05
369.61	214.00
369.99	214.03
370.37	214.10
370.75	214.14
371.13	214.13
371.51	214.08
371.89	214.04
372.27	213.97
372.65	214.00
373.03	213.90
373.41	213.91
373.78	213.83
374.16	213.64
374.54	213.51
374.92	213.50
375.30	213.41
375.68	213.37
376.06	213.36
376.44	213.38
376.82	213.34
377.19	213.31
377.57	213.20
377.95	213.08
378.33	213.02
378.71	212.87
379.09	212.81
379.47	212.77
379.84	212.81
380.22	212.72
380.60	212.65
380.98	212.66
381.36	212.54
381.73	212.46
382.11	212.56
382.49	212.51
382.87	212.48
383.25	212.41
383.62	212.50
384.00	212.36
384.38	212.29
384.76	212.31
385.13	212.26
385.51	212.21
385.89	212.11
386.27	212.07
386.64	212.08
387.02	212.08
387.40	212.04
387.78	211.94
388.15	211.92
388.53	211.85
388.91	211.80
389.29	211.78
389.66	211.75
390.04	211.58
390.42	211.51
390.79	211.45
391.17	211.44
391.55	211.21
391.92	211.23
392.30	211.26
392.68	211.21
393.05	211.24
393.43	211.31
393.81	211.41
394.18	211.41
394.56	211.31
394.94	211.35
395.31	211.31
395.69	211.38
396.06	211.46
396.44	211.46
396.82	211.49
397.19	211.59
397.57	211.66
397.95	211.74
398.32	211.77
398.70	211.88
399.07	212.01
399.45	212.10
399.82	212.15
400.20	212.08
400.58	212.17
400.95	212.11
401.33	212.13
401.70	212.28
402.08	212.36
402.45	212.50
402.83	212.59
403.20	212.74
403.58	212.75
403.95	212.80
404.33	212.92
404.71	212.99
405.08	213.21
405.46	213.34
405.83	213.51
406.21	213.66
406.58	213.80
406.96	213.91
407.33	214.09
407.70	214.33
408.08	214.70
408.45	214.86
408.83	215.13
409.20	215.34
409.58	215.47
409.95	215.81
410.33	216.17
410.70	216.39
411.08	216.69
411.45	217.11
411.82	217.49
412.20	217.99
412.57	218.48
412.95	218.81
413.32	219.28
413.69	219.80
414.07	220.39
414.44	220.96
414.82	221.63
415.19	222.39
415.56	223.05
415.94	223.76
416.31	224.70
416.68	225.58
417.06	226.61
417.43	227.62
417.81	228.71
418.18	229.70
418.55	230.94
418.93	232.23
419.30	233.55
419.67	234.99
420.04	236.39
420.42	237.86
420.79	239.64
421.16	241.41
421.54	243.24
421.91	245.09
422.28	247.11
422.66	249.19
423.03	251.28
423.40	253.44
423.77	255.68
424.15	257.91
424.52	260.32
424.89	262.88
425.26	265.41
425.64	267.82
426.01	270.54
426.38	273.32
426.75	276.12
427.13	278.93
427.50	281.91
427.87	285.04
428.24	288.22
428.61	291.18
428.99	294.46
429.36	297.92
429.73	301.47
430.10	304.94
430.47	308.47
430.85	312.16
431.22	316.10
431.59	320.29
431.96	324.33
432.33	328.70
432.70	332.96
433.08	337.85
433.45	342.42
433.82	347.07
434.19	352.06
434.56	357.10
434.93	361.87
435.30	366.69
435.68	372.01
436.05	377.25
436.42	382.49
436.79	387.19
437.16	392.31
437.53	397.59
437.90	402.76
438.27	408.00
438.64	413.21
439.01	418.14
439.38	422.59
439.75	426.91
440.13	431.67
440.50	436.20
440.87	439.99
441.24	443.94
441.61	448.10
441.98	451.17
442.35	454.77
442.72	458.61
443.09	462.07
443.46	464.16
443.83	465.55
444.20	466.54
444.57	468.45
444.94	469.22
445.31	470.00
445.68	470.93
446.05	471.14
446.42	470.62
446.79	469.86
447.16	468.93
447.53	468.23
447.90	466.24
448.27	464.12
448.64	461.07
449.01	458.99
449.37	455.35
449.74	451.92
450.11	447.73
450.48	443.08
450.85	438.45
451.22	434.43
451.59	430.61
451.96	427.07
452.33	422.14
452.70	417.75
453.07	412.52
453.43	407.15
453.80	402.15
454.17	397.25
454.54	392.71
454.91	387.85
455.28	382.98
455.65	378.49
456.02	374.17
456.38	370.43
456.75	365.67
457.12	361.79
457.49	357.92
457.86	354.15
458.23	350.79
458.59	347.25
458.96	343.75
459.33	340.64
459.70	337.48
460.07	334.91
460.43	331.97
460.80	329.38
461.17	326.91
461.54	324.35
461.91	322.02
462.27	319.55
462.64	317.49
463.01	315.33
463.38	313.17
463.74	311.00
464.11	309.14
464.48	307.57
464.85	305.75
465.21	304.43
465.58	303.05
465.95	301.35
466.32	299.96
466.68	298.43
467.05	296.99
467.42	295.60
467.78	294.19
468.15	292.88
468.52	291.84
468.88	290.58
469.25	289.47
469.62	288.50
469.98	287.48
470.35	286.54
470.72	285.65
471.08	284.73
471.45	283.94
471.82	283.10
472.18	282.18
472.55	281.64
472.92	280.98
473.28	280.37
473.65	279.86
474.02	279.23
474.38	278.84
474.75	278.39
475.11	278.01
475.48	277.78
475.85	277.63
476.21	277.40
476.58	277.28
476.94	277.26
477.31	277.14
477.67	277.13
478.04	277.19
478.41	277.37
478.77	277.72
479.14	277.80
479.50	278.06
479.87	278.38
480.23	278.76
480.60	279.03
480.96	279.25
481.33	279.92
481.69	280.64
482.06	281.16
482.42	281.82
482.79	282.45
483.15	283.21
483.52	284.18
483.88	285.12
484.25	286.11
484.61	287.13
484.98	288.33
485.34	289.61
485.71	290.94
486.07	292.25
486.44	293.46
486.80	295.03
487.17	296.62
487.53	298.44
487.90	300.28
488.26	302.27
488.62	304.43
488.99	306.38
489.35	308.51
489.72	310.93
490.08	313.46
490.44	315.98
490.81	318.75
491.17	321.40
491.54	324.40
491.90	327.40
492.26	330.59
492.63	333.89
492.99	337.43
493.36	341.03
493.72	344.85
494.08	348.88
494.45	353.18
494.81	357.65
495.17	362.27
495.54	367.02
495.90	372.05
496.26	377.36
496.63	382.82
496.99	388.60
497.35	394.51
497.72	400.74
498.08	407.25
498.44	413.88
498.80	421.04
499.17	428.38
499.53	436.02
499.89	444.02
500.26	452.21
500.62	460.51
500.98	469.39
501.34	478.55
501.71	487.95
502.07	497.51
502.43	507.54
502.79	517.63
503.16	528.41
503.52	539.29
503.88	550.55
504.24	562.25
504.60	574.04
504.97	586.50
505.33	598.96
505.69	612.44
506.05	625.86
506.41	639.60
506.78	653.50
507.14	667.77
507.50	682.57
507.86	697.59
508.22	713.16
508.59	728.86
508.95	744.98
509.31	761.49
509.67	778.26
510.03	795.36
510.39	813.23
510.75	831.11
511.12	849.13
511.48	867.54
511.84	886.30
512.20	905.34
512.56	924.47
512.92	944.15
513.28	963.45
513.64	983.45
514.00	1003.38
514.37	1023.95
514.73	1044.87
515.09	1065.43
515.45	1086.41
515.81	1107.50
516.17	1128.80
516.53	1150.11
516.89	1171.57
517.25	1193.13
517.61	1214.82
517.97	1235.98
518.33	1257.69
518.69	1279.72
519.05	1302.17
519.41	1324.39
519.77	1346.76
520.13	1369.07
520.49	1391.28
520.85	1414.22
521.21	1436.97
521.57	1460.19
521.93	1482.05
522.29	1505.13
522.65	1528.12
523.01	1551.08
523.37	1573.40
523.73	1596.01
524.09	1618.57
524.45	1641.33
524.81	1664.01
525.17	1686.82
525.53	1709.74
525.89	1732.25
526.25	1754.55
526.61	1775.80
526.97	1797.77
527.33	1819.55
527.68	1841.35
528.04	1862.76
528.40	1883.32
528.76	1904.06
529.12	1924.80
529.48	1946.97
529.84	1967.12
530.20	1987.36
530.56	2007.56
530.91	2028.40
531.27	2048.67
531.63	2068.78
531.99	2088.73
532.35	2108.47
532.71	2127.36
533.07	2147.17
533.42	2165.71
533.78	2184.79
534.14	2203.39
534.50	2220.91
534.86	2239.31
535.21	2256.17
535.57	2274.07
535.93	2291.87
536.29	2309.12
536.65	2325.90
537.00	2341.62
537.36	2357.50
537.72	2373.00
538.08	2388.87
538.44	2404.65
538.79	2420.78
539.15	2435.97
539.51	2450.70
539.87	2465.70
540.22	2480.77
540.58	2495.67
540.94	2510.65
541.29	2523.70
541.65	2536.66
542.01	2550.10
542.37	2561.79
542.72	2574.67
543.08	2585.86
543.44	2597.79
543.79	2608.08
544.15	2618.65
544.51	2629.84
544.87	2641.16
545.22	2650.77
545.58	2659.21
545.94	2666.50
546.29	2672.89
546.65	2679.43
547.01	2686.13
547.36	2692.05
547.72	2697.56
548.07	2701.80
548.43	2705.72
548.79	2710.02
549.14	2715.04
549.50	2719.73
549.86	2723.95
550.21	2728.07
550.57	2732.62
550.92	2735.48
551.28	2738.36
551.64	2741.24
551.99	2743.39
552.35	2745.08
552.70	2748.34
553.06	2751.52
553.41	2754.71
553.77	2757.62
554.13	2760.22
554.48	2762.10
554.84	2764.04
555.19	2764.64
555.55	2765.18
555.90	2766.09
556.26	2767.07
556.61	2766.67
556.97	2765.54
557.32	2765.52
557.68	2764.01
558.03	2762.75
558.39	2761.31
558.74	2761.50
559.10	2760.29
559.45	2758.69
559.81	2757.65
560.16	2754.91
560.52	2752.36
560.87	2749.34
561.23	2745.98
561.58	2743.53
561.94	2740.47
562.29	2736.73
562.64	2734.94
563.00	2732.68
563.35	2730.65
563.71	2728.95
564.06	2726.98
564.42	2725.06
564.77	2722.64
565.12	2720.66
565.48	2717.61
565.83	2714.72
566.19	2710.95
566.54	2707.17
566.89	2703.81
567.25	2700.27
567.60	2697.10
567.96	2693.46
568.31	2690.19
568.66	2686.24
569.02	2681.39
569.37	2676.40
569.72	2672.90
570.08	2667.56
570.43	2661.90
570.78	2655.89
571.14	2649.07
571.49	2642.30
571.84	2636.32
572.20	2629.41
572.55	2622.85
572.90	2615.97
573.26	2609.16
573.61	2602.17
573.96	2595.15
574.31	2587.21
574.67	2578.84
575.02	2570.25
575.37	2561.87
575.72	2553.00
576.08	2545.62
576.43	2536.81
576.78	2529.03
577.13	2520.37
577.49	2511.96
577.84	2504.28
578.19	2496.69
578.54	2489.34
578.90	2482.64
579.25	2473.74
579.60	2464.47
579.95	2455.45
580.30	2447.03
580.66	2438.47
581.01	2429.20
581.36	2419.87
581.71	2411.02
582.06	2402.08
582.42	2393.76
582.77	2384.44
583.12	2375.19
583.47	2366.42
583.82	2358.23
584.17	2348.84
584.53	2339.85
584.88	2331.12
585.23	2321.88
585.58	2311.74
585.93	2301.72
586.28	2291.89
586.63	2282.82
586.98	2274.61
587.34	2265.60
587.69	2256.48
588.04	2247.21
588.39	2239.02
588.74	2229.86
589.09	2221.22
589.44	2211.60
589.79	2202.96
590.14	2194.83
590.49	2186.54
590.84	2176.97
591.19	2168.89
591.54	2159.94
591.89	2149.53
592.25	2139.98
592.60	2130.37
592.95	2121.08
593.30	2111.40
593.65	2101.46
594.00	2091.63
594.35	2083.19
594.70	2073.85
595.05	2064.79
595.40	2055.90
595.75	2045.96
596.10	2037.69
596.45	2028.83
596.80	2021.12
597.15	2012.47
597.50	2003.18
597.85	1994.51
598.19	1985.72
598.54	1976.80
598.89	1969.01
599.24	1962.29
599.59	1955.10
599.94	1947.88
600.29	1940.16
600.64	1932.12
600.99	1923.96
601.34	1916.81
601.69	1907.76
602.04	1899.71
602.39	1891.81
602.74	1884.02
603.08	1877.37
603.43	1869.86
603.78	1861.95
604.13	1853.55
604.48	1845.72
604.83	1838.82
605.18	1831.70
605.53	1823.94
605.87	1816.23
606.22	1808.79
606.57	1800.78
606.92	1792.25
607.27	1784.00
607.62	1776.48
607.96	1769.56
608.31	1763.13
608.66	1755.19
609.01	1747.78
609.36	1740.04
609.70	1731.84
610.05	1723.90
610.40	1715.36
610.75	1706.95
611.10	1699.18
611.44	1690.20
611.79	1680.87
612.14	1671.32
612.49	1661.43
612.83	1652.72
613.18	1642.92
613.53	1633.25
613.88	1623.25
614.22	1614.37
614.57	1604.90
614.92	1595.42
615.27	1586.06
615.61	1575.96
615.96	1566.87
616.31	1558.10
616.65	1550.11
617.00	1541.66
617.35	1532.79
617.70	1523.92
618.04	1514.63
618.39	1504.98
618.74	1496.55
619.08	1487.76
619.43	1479.55
619.78	1471.64
620.12	1463.44
620.47	1455.52
620.82	1446.96
621.16	1438.90
621.51	1430.28
621.85	1421.94
622.20	1413.43
622.55	1404.95
622.89	1396.83
623.24	1388.76
623.59	1379.86
623.93	1370.99
624.28	1362.51
624.62	1354.22
624.97	1346.15
625.32	1338.49
625.66	1331.14
626.01	1323.59
626.35	1316.21
626.70	1308.20
627.04	1300.69
627.39	1293.03
627.73	1285.31
628.08	1278.45
628.43	1270.95
628.77	1263.61
629.12	1256.02
629.46	1249.24
629.81	1241.75
630.15	1234.27
630.50	1226.75
630.84	1219.28
631.19	1212.08
631.53	1205.21
631.88	1197.47
632.22	1189.61
632.57	1182.30
632.91	1174.84
633.26	1167.11
633.60	1159.75
633.95	1152.94
634.29	1145.65
634.64	1138.75
634.98	1131.77
635.32	1124.60
635.67	1118.03
636.01	1111.35
636.36	1104.80
636.70	1098.10
637.05	1091.66
637.39	1085.48
637.73	1079.25
638.08	1073.52
638.42	1067.54
638.77	1061.02
639.11	1054.80
639.45	1048.82
639.80	1042.08
640.14	1035.50
640.49	1029.49
640.83	1023.44
641.17	1016.95
641.52	1010.68
641.86	1004.06
642.20	997.87
642.55	991.25
642.89	984.77
643.23	978.18
643.58	972.16
643.92	965.59
644.26	959.35
644.61	952.91
644.95	946.68
645.29	940.18
645.64	933.63
645.98	927.29
646.32	921.25
646.66	914.86
647.01	909.02
647.35	903.09
647.69	896.79
648.04	890.67
648.38	884.78
648.72	878.65
649.06	872.73
649.41	866.63
649.75	860.73
650.09	854.72
650.43	848.74
650.78	842.49
651.12	836.40
651.46	830.48
651.80	824.47
652.14	818.55
652.49	812.77
652.83	806.83
653.17	800.65
653.51	795.00
653.85	789.40
654.20	783.52
654.54	777.71
654.88	772.09
655.22	766.20
655.56	760.27
655.90	754.29
656.25	748.32
656.59	742.67
656.93	737.28
657.27	732.06
657.61	726.65
657.95	721.45
658.29	716.25
658.64	711.13
658.98	706.03
659.32	700.60
659.66	695.23
660.00	689.96
660.34	684.84
660.68	679.61
661.02	674.42
661.36	669.64
661.70	664.70
662.05	659.98
662.39	655.42
662.73	650.95
663.07	646.74
663.41	642.28
663.75	637.74
664.09	632.96
664.43	628.15
664.77	623.69
665.11	619.17
665.45	614.58
665.79	609.97
666.13	605.45
666.47	601.10
666.81	597.04
667.15	592.88
667.49	588.97
667.83	584.84
668.17	581.05
668.51	577.08
668.85	573.37
669.19	569.45
669.53	565.49
669.87	561.60
670.21	557.79
670.55	554.02
670.89	550.62
671.23	547.31
671.57	543.73
671.91	539.95
672.25	536.23
672.58	532.81
672.92	529.41
673.26	526.17
673.60	522.87
673.94	519.32
674.28	515.94
674.62	512.64
674.96	509.40
675.30	506.13
675.64	502.99
675.97	499.76
676.31	496.86
676.65	493.93
676.99	491.05
677.33	487.85
677.67	484.91
678.01	481.64
678.34	478.49
678.68	475.62
679.02	472.77
679.36	470.01
679.70	467.17
680.04	464.28
680.37	461.36
680.71	458.50
681.05	455.97
681.39	453.31
681.73	450.61
682.06	448.12
682.40	445.56
682.74	442.87
683.08	440.28
683.42	437.57
683.75	434.96
684.09	432.30
684.43	429.86
684.77	427.35
685.10	424.91
685.44	422.22
685.78	419.68
686.12	417.40
686.45	414.88
686.79	412.56
687.13	410.35
687.46	408.16
687.80	405.86
688.14	403.37
688.48	401.14
688.81	398.87
689.15	396.57
689.49	394.28
689.82	392.08
690.16	389.70
690.50	387.32
690.83	385.08
691.17	382.84
691.51	380.59
691.84	378.35
692.18	376.33
692.52	374.46
692.85	372.49
693.19	370.42
693.52	368.52
693.86	366.51
694.20	364.60
694.53	362.70
694.87	360.78
695.21	358.92
695.54	356.90
695.88	354.95
696.21	353.04
696.55	351.27
696.88	349.43
697.22	347.78
697.56	346.31
697.89	344.69
698.23	342.98
698.56	341.48
698.90	340.00
699.23	338.27
699.57	336.70
699.90	335.08
700.24	333.43
700.58	331.87
700.91	330.41
701.25	328.97
701.58	327.36
701.92	325.97
702.25	324.53
702.59	323.26
702.92	322.07
703.26	320.74
703.59	319.47
703.93	318.31
704.26	316.94
704.60	315.62
704.93	314.36
705.26	313.16
705.60	311.89
705.93	310.61
706.27	309.50
706.60	308.33
706.94	307.18
707.27	306.08
707.61	304.91
707.94	303.68
708.27	302.40
708.61	301.26
708.94	300.15
709.28	299.02
709.61	297.91
709.94	296.78
710.28	295.68
710.61	294.62
710.95	293.43
711.28	292.54
711.61	291.42
711.95	290.35
712.28	289.34
712.61	288.27
712.95	287.31
713.28	286.34
713.61	285.34
713.95	284.45
714.28	283.65
714.61	282.66
714.95	281.75
715.28	280.83
715.61	279.95
715.95	279.03
716.28	278.19
716.61	277.35
716.95	276.43
717.28	275.63
717.61	274.76
717.94	273.93
718.28	273.04
718.61	272.30
718.94	271.49
719.27	270.75
719.61	270.15
719.94	269.39
720.27	268.66
720.60	267.97
720.94	267.27
721.27	266.47
721.60	265.85
721.93	265.24
722.27	264.69
722.60	264.13
722.93	263.48
723.26	262.87
723.59	262.15
723.93	261.60
724.26	260.97
724.59	260.43
724.92	259.92
725.25	259.41
725.59	258.79
725.92	258.31
726.25	257.76
726.58	257.14
726.91	256.63
727.24	256.11
727.57	255.55
727.91	254.98
728.24	254.55
728.57	254.07
728.90	253.56
729.23	252.96
729.56	252.52
729.89	252.00
730.22	251.60
730.55	251.27
730.89	250.78
731.22	250.35
731.55	249.88
731.88	249.48
732.21	249.00
732.54	248.59
732.87	248.12
733.20	247.70
733.53	247.24
733.86	246.84
734.19	246.36
734.52	246.05
734.85	245.77
735.18	245.30
735.51	244.92
735.84	244.51
736.17	244.23
736.50	243.79
736.83	243.66
737.16	243.22
737.49	242.79
737.82	242.32
738.15	241.99
738.48	241.56
738.81	241.11
739.14	240.73
739.47	240.36
739.80	239.98
740.13	239.69
740.46	239.37
740.79	239.04
741.12	238.73
741.45	238.38
741.78	238.05
742.11	237.79
742.44	237.52
742.77	237.33
743.10	236.96
743.43	236.65
743.75	236.22
744.08	236.13
744.41	235.75
744.74	235.57
745.07	235.24
745.40	235.01
745.73	234.83
746.06	234.60
746.39	234.33
746.71	234.03
747.04	233.74
747.37	233.52
747.70	233.24
748.03	233.04
748.36	232.77
748.68	232.41
749.01	232.10
749.34	231.85
749.67	231.57
750.00	231.33
750.33	231.18
750.65	230.89
750.98	230.37
751.31	230.12
751.64	229.91
751.97	229.80
752.29	229.58
752.62	229.28
752.95	228.98
753.28	228.76
753.60	228.64
753.93	228.47
754.26	228.31
754.59	228.06
754.91	227.73
755.24	227.55
755.57	227.39
755.90	227.22
756.22	226.95
756.55	226.70
756.88	226.50
757.20	226.13
757.53	225.92
757.86	225.85
758.19	225.70
758.51	225.44
758.84	225.11
759.17	224.90
759.49	224.79
759.82	224.63
760.15	224.47
760.47	224.28
760.80	224.05
761.13	223.89
761.45	223.67
761.78	223.55
762.11	223.39
762.43	223.24
762.76	223.02
763.08	222.91
763.41	222.77
763.74	222.67
764.06	222.55
764.39	222.36
764.71	222.14
765.04	222.01
765.37	221.91
765.69	221.79
766.02	221.73
766.34	221.56
766.67	221.43
767.00	221.30
767.32	221.24
767.65	221.14
767.97	220.91
768.30	220.76
768.62	220.61
768.95	220.53
769.27	220.36
769.60	220.27
769.92	220.11
770.25	220.00
770.57	219.86
770.90	219.80
771.22	219.73
771.55	219.61
771.87	219.49
772.20	219.40
772.52	219.48
772.85	219.57
773.17	219.50
773.50	219.41
773.82	219.33
774.15	219.13
774.47	218.98
774.80	218.90
775.12	218.85
775.45	218.81
775.77	218.71
776.09	218.68
776.42	218.65
776.74	218.62
777.07	218.58
777.39	218.51
777.72	218.41
778.04	218.32
778.36	218.28
778.69	218.24
779.01	218.15
779.33	217.96
779.66	217.62
779.98	217.50
780.31	217.49
780.63	217.53
780.95	217.54
781.28	217.47
781.60	217.39
781.92	217.35
782.25	217.29
782.57	217.14
782.89	217.14
783.22	217.12
783.54	216.96
783.86	216.85
784.19	216.75
784.51	216.81
784.83	216.72
785.16	216.64
785.48	216.67
785.80	216.59
786.12	216.50
786.45	216.47
786.77	216.44
787.09	216.31
787.42	216.20
787.74	216.15
788.06	216.08
788.38	216.00
788.71	215.99
789.03	215.96
789.35	215.99
789.67	215.82
789.99	215.74
790.32	215.71
790.64	215.71
790.96	215.87
791.28	215.69
791.61	215.71
791.93	215.61
792.25	215.49
792.57	215.59
792.89	215.52
793.21	215.51
793.54	215.47
793.86	215.41
794.18	215.37
794.50	215.34
794.82	215.36
795.14	215.42
795.47	215.35
795.79	215.32
796.11	215.23
796.43	215.24
796.75	215.25
797.07	215.25
797.39	215.30
797.71	215.05
798.04	215.01
798.36	214.91
798.68	214.93
799.00	214.86
799.32	214.79
799.64	214.89
799.96	214.86
800.28	214.86
800.60	214.85
800.92	214.78
801.24	214.65
801.56	214.57
801.89	214.50
802.21	214.54
802.53	214.50
802.85	214.53
803.17	214.56
803.49	214.46
803.81	214.40
804.13	214.27
804.45	214.28
804.77	214.28
805.09	214.24
805.41	214.24
805.73	214.23
806.05	214.13
806.37	214.00
806.69	213.90
807.01	213.82
807.33	213.83
807.65	213.78
807.97	213.86
808.28	213.87
808.60	213.84
808.92	213.83
809.24	213.89
809.56	213.85
809.88	213.73
810.20	213.77
810.52	213.78
810.84	213.76
811.16	213.65
811.48	213.67
811.80	213.66
812.12	213.61
812.43	213.63
812.75	213.61
813.07	213.62
813.39	213.62
813.71	213.61
814.03	213.59
814.35	213.53
814.67	213.47
814.98	213.40
815.30	213.34
815.62	213.28
815.94	213.11
816.26	213.07
816.58	213.07
816.89	213.03
817.21	212.97
817.53	212.90
817.85	212.91
818.17	212.77
818.48	212.80
818.80	212.81
819.12	212.85
819.44	212.89
819.76	212.81
820.07	212.83
820.39	212.80
820.71	212.79
821.03	212.79
821.34	212.78
821.66	212.84
821.98	212.89
822.30	212.81
822.61	212.95
822.93	212.93
823.25	212.88
823.57	212.83
823.88	212.90
824.20	212.91
824.52	213.03
824.83	213.12
825.15	213.10
825.47	213.11
825.79	213.02
826.10	212.93
826.42	212.99
826.74	212.97
827.05	212.93
827.37	212.88
827.69	212.88
828.00	212.89
828.32	212.90
828.64	212.87
828.95	212.95
829.27	212.88
829.58	212.88
829.90	212.96
830.22	212.91
830.53	212.82
830.85	212.81
831.17	212.68
831.48	212.64
831.80	212.60
832.11	212.60
832.43	212.62
832.75	212.60
833.06	212.61
833.38	212.59
833.69	212.62
834.01	212.66
834.32	212.59
834.64	212.49
834.96	212.43
835.27	212.39
835.59	212.35
835.90	212.22
836.22	212.15
836.53	212.12
836.85	212.12
837.16	212.31
837.48	212.27
837.79	212.29
838.11	212.30
838.42	212.26
838.74	212.21
839.05	212.15
839.37	212.16
839.68	212.11
840.00	212.07
840.31	212.07
840.63	211.98
840.94	211.96
841.26	211.98
841.57	211.99
841.88	211.96
842.20	211.85
842.51	211.86
842.83	211.82
843.14	211.92
843.46	211.97
843.77	211.77
844.08	211.82
844.40	211.77
844.71	211.74
845.03	211.77
845.34	211.78
845.65	211.76
845.97	211.79
846.28	211.73
846.60	211.69
846.91	211.67
847.22	211.65
847.54	211.71
847.85	211.70
848.16	211.61
848.48	211.60
848.79	211.71
849.10	211.78
849.42	211.78
849.73	211.65
850.04	211.60
850.36	211.63
850.67	211.58
850.98	211.52
851.30	211.55
851.61	211.50
851.92	211.49
852.23	211.50
852.55	211.39
852.86	211.40
853.17	211.48
853.49	211.50
853.80	211.56
854.11	211.54
854.42	211.55
854.74	211.64
855.05	211.72
855.36	211.67
855.67	211.65
855.99	211.73
856.30	211.88
856.61	211.93
856.92	211.89
857.23	211.92
857.55	211.95
857.86	211.92
858.17	211.93
858.48	211.88
858.79	211.87
859.11	212.01
859.42	212.08
859.73	211.98
860.04	211.96
860.35	211.92
860.66	211.86
860.98	211.88
861.29	211.79
861.60	211.68
861.91	211.67
862.22	211.63
862.53	211.54
862.84	211.35
863.16	211.28
863.47	211.21
863.78	211.18
864.09	211.20
864.40	211.19
864.71	211.20
865.02	211.23
865.33	211.18
865.64	211.07
865.95	210.98
866.27	211.13
866.58	211.11
866.89	211.11
867.20	211.20
867.51	211.16
867.82	211.20
868.13	211.28
868.44	211.24
868.75	211.28
869.06	211.28
869.37	211.34
869.68	211.36
869.99	211.43
870.30	211.40
870.61	211.45
870.92	211.42
871.23	211.41
871.54	211.46
871.85	211.48
872.16	211.51
872.47	211.51
872.78	211.32
873.09	211.35
873.40	211.35
873.71	211.30
874.02	211.25
874.33	211.24
874.64	211.18
874.95	211.17
875.26	211.09
875.56	211.11
875.87	211.06
876.18	211.01
876.49	211.16
876.80	211.22
877.11	211.18
877.42	211.21
877.73	211.22
878.04	211.15
878.35	211.17
878.66	211.17
878.96	211.16
879.27	211.26
879.58	211.23
879.89	211.18
880.20	211.22
880.51	211.29
880.82	211.32
881.12	211.36
881.43	211.36
881.74	211.39
882.05	211.41
882.36	211.47
882.67	211.51
882.97	211.41
883.28	211.37
883.59	211.40
883.90	211.46
884.21	211.48
884.51	211.54
884.82	211.55
885.13	211.53
885.44	211.53
885.74	211.55
886.05	211.59
886.36	211.66
886.67	211.60
886.98	211.63
887.28	211.59
887.59	211.55
887.90	211.59
888.20	211.52
888.51	211.56
888.82	211.48
889.13	211.47
889.43	211.59
889.74	211.64
890.05	211.65
890.35	211.60
890.66	211.51
890.97	211.43
891.28	211.42
891.58	211.46
891.89	211.45
892.20	211.42
892.50	211.33
892.81	211.23
893.12	211.30
893.42	211.17
893.73	211.18
894.04	211.20
894.34	211.27
894.65	211.30
894.95	211.26
895.26	211.31
895.57	211.36
895.87	211.16
896.18	211.12
896.48	211.04
896.79	211.00
897.10	211.12
897.40	211.09
897.71	211.08
898.01	211.08
898.32	211.18
898.63	211.17
898.93	211.25
899.24	211.28
899.54	211.21
899.85	211.30
900.15	211.30
900.46	211.28
900.76	211.21
901.07	211.24
901.38	211.21
901.68	211.20
901.99	211.09
902.29	211.13
902.60	211.11
902.90	211.10
903.21	211.13
903.51	211.09
903.82	211.24
904.12	211.20
904.43	211.14
904.73	211.08
905.03	211.06
905.34	211.19
905.64	211.21
905.95	211.25
906.25	211.22
906.56	211.22
906.86	211.22
907.17	211.20
907.47	211.23
907.77	211.24
908.08	211.19
908.38	211.22
908.69	211.18
908.99	211.22
909.30	211.21
909.60	211.17
909.90	211.22
910.21	211.16
910.51	211.10
910.81	211.15
911.12	211.13
911.42	211.11
911.73	210.99
912.03	210.99
912.33	210.98
912.64	210.94
912.94	210.92
913.24	210.91
913.55	210.90
913.85	210.85
914.15	210.87
914.46	210.91
914.76	210.90
915.06	210.94
915.37	210.90
915.67	210.94
915.97	211.02
916.27	210.94
916.58	210.92
916.88	211.01
917.18	210.94
917.49	211.06
917.79	211.07
918.09	211.00
918.39	211.07
918.70	211.07
919.00	211.13
919.30	211.21
919.60	211.22
919.91	211.25
920.21	211.23
920.51	211.16
920.81	211.16
921.12	211.23
921.42	211.21
921.72	211.23
922.02	211.26
922.32	211.23
922.63	211.17
922.93	211.25
923.23	211.24
923.53	211.24
923.83	211.12
924.13	211.19
924.44	211.25
924.74	211.26
925.04	211.29
925.34	211.28
925.64	211.19
925.94	211.14
926.24	211.23
926.55	211.19
926.85	211.28
927.15	211.30
927.45	211.23
927.75	211.21
928.05	211.24
928.35	211.22
928.65	211.25
928.95	211.33
929.26	211.23
929.56	211.26
929.86	211.29
930.16	211.31
930.46	211.32
930.76	211.28
931.06	211.15
931.36	211.10
931.66	211.10
931.96	211.08
932.26	211.10
932.56	211.00
932.86	211.05
933.16	211.02
933.46	210.94
933.76	210.93
934.06	210.97
934.36	211.08
934.66	211.06
934.96	211.00
935.26	211.04
935.56	211.03
935.86	210.99
936.16	210.96
936.46	210.97
936.76	210.96
937.06	210.95
937.36	211.03
937.66	211.04
937.96	211.05
938.26	211.03
938.56	211.08
938.86	211.12
939.16	211.18
939.46	211.20
939.76	211.26
940.06	211.26
940.35	211.23
940.65	211.10
940.95	211.13
941.25	211.12
941.55	211.04
941.85	211.03
942.15	211.08
942.45	211.12
942.75	211.11
943.04	211.02
943.34	211.08
943.64	211.10
943.94	211.08
944.24	211.11
944.54	211.11
944.84	211.06
945.13	211.08
945.43	211.05
945.73	211.09
946.03	211.05
946.33	210.99
946.62	211.01
946.92	210.98
947.22	210.94
947.52	210.95
947.82	211.00
948.11	211.06
948.41	211.00
948.71	210.97
949.01	211.01
949.31	211.00
949.60	210.97
949.90	210.96
950.20	210.99
950.50	210.94
950.79	210.93
951.09	210.96
951.39	210.89
951.69	210.89
951.98	210.87
952.28	210.88
952.58	210.90
952.87	210.89
953.17	210.95
953.47	210.91
953.76	210.89
954.06	210.82
954.36	210.77
954.66	210.79
954.95	210.85
955.25	210.85
955.55	210.85
955.84	210.85
956.14	210.81
956.44	210.76
956.73	210.77
957.03	210.81
957.32	210.81
957.62	210.91
957.92	210.89
958.21	210.94
958.51	211.14
958.81	211.20
959.10	211.22
959.40	211.25
959.69	211.32
959.99	211.35
960.29	211.42
960.58	211.41
960.88	211.44
961.17	211.44
961.47	211.41
961.76	211.44
962.06	211.51
962.36	211.51
962.65	211.58
962.95	211.59
963.24	211.53
963.54	211.52
963.83	211.43
964.13	211.43
964.42	211.27
964.72	211.09
965.01	211.12
965.31	211.09
965.60	211.00
965.90	211.06
966.19	211.08
966.49	211.04
966.78	211.01
967.08	210.97
967.37	210.93
967.67	210.92
967.96	210.95
968.26	210.85
968.55	210.85
968.85	210.85
969.14	210.84
969.43	210.87
969.73	210.83
970.02	210.83
970.32	210.81
970.61	210.86
970.91	210.84
971.20	210.73
971.49	210.68
971.79	210.71
972.08	210.59
972.38	210.62
972.67	210.61
972.96	210.67
973.26	210.62
973.55	210.67
973.85	210.64
974.14	210.60
974.43	210.64
974.73	210.62
975.02	210.60
975.31	210.60
975.61	210.55
975.90	210.62
976.19	210.55
976.49	210.53
976.78	210.50
977.07	210.45
977.37	210.46
977.66	210.48
977.95	210.48
978.24	210.48
978.54	210.45
978.83	210.46
979.12	210.44
979.42	210.50
979.71	210.52
980.00	210.51
980.29	210.50
980.59	210.49
980.88	210.55
981.17	210.55
981.46	210.56
981.76	210.63
982.05	210.62
982.34	210.66
982.63	210.75
982.93	210.75
983.22	210.86
983.51	210.89
983.80	211.00
984.09	210.99
984.39	210.97
984.68	211.00
984.97	211.01
985.26	210.95
985.55	210.96
985.85	210.86
986.14	210.90
986.43	210.92
986.72	210.89
987.01	210.86
987.30	210.82
987.59	210.83
987.89	210.78
988.18	210.78
988.47	210.84
988.76	210.78
989.05	210.80
989.34	210.79
989.63	210.81
989.92	210.67
990.22	210.69
990.51	210.75
990.80	210.69
991.09	210.63
991.38	210.63
991.67	210.70
991.96	210.71
992.25	210.73
992.54	210.70
992.83	210.74
993.12	210.67
993.41	210.68
993.70	210.64
993.99	210.66
994.28	210.67
994.58	210.69
994.87	210.80
995.16	210.86
995.45	210.83
995.74	210.83
996.03	210.93
996.32	210.90
996.61	210.92
996.90	210.93
997.19	211.00
997.48	211.08
997.77	210.97
998.06	210.96
998.34	210.96
998.63	210.95
998.92	210.98
999.21	211.03
999.50	211.06
999.79	211.06
1000.08	211.09
1000.37	211.11
1000.66	211.06
1000.95	210.97
1001.24	210.90
1001.53	210.88
1001.82	210.85
1002.11	210.78
1002.40	210.87
1002.68	210.90
1002.97	211.05
1003.26	210.99
1003.55	210.96
1003.84	211.00
1004.13	211.02
1004.42	210.97
1004.71	210.97
1004.99	210.93
1005.28	210.97
1005.57	210.96
1005.86	210.96
1006.15	210.90
1006.44	210.78
1006.72	210.84
1007.01	210.85
1007.30	210.88
1007.59	210.89
1007.88	210.86
1008.17	210.90
1008.45	210.76
1008.74	210.70
1009.03	210.61
1009.32	210.62
1009.60	210.65
1009.89	210.60
1010.18	210.65
1010.47	210.68
1010.76	210.64
1011.04	210.55
1011.33	210.47
1011.62	210.53
1011.91	210.50
1012.19	210.52
1012.48	210.59
1012.77	210.57
1013.05	210.63
1013.34	210.66
1013.63	210.69
1013.92	210.72
1014.20	210.68
1014.49	210.74
1014.78	210.74
1015.06	210.65
1015.35	210.61
1015.64	210.53
1015.92	210.56
1016.21	210.49
1016.50	210.51
1016.78	210.57
1017.07	210.59
1017.36	210.57
1017.64	210.48
1017.93	210.51
1018.22	210.49
1018.50	210.40
1018.79	210.36
1019.08	210.29
1019.36	210.25
1019.65	210.20
1019.93	210.26
1020.22	210.34
1020.51	210.37
1020.79	210.32
1021.08	210.10
1021.36	208.80
1021.65	210.50
1021.94	210.70
1022.22	210.90
1022.51	210.55
1022.79	211.20
1023.08	211.65
1023.36	211.40
1023.65	209.65
>>>>>End Processed Spectral Data<<<<<
