SpectraSuite Data File
++++++++++++++++++++++++++++++++++++
Date: Mon Feb 25 17:34:19 EST 2013
User: group
Dark Spectrum Present: No
Reference Spectrum Present: No
Number of Sampled Component Spectra: 1
Spectrometers: USB2E7196
Integration Time (usec): 52000 (USB2E7196)
Spectra Averaged: 20 (USB2E7196)
Boxcar Smoothing: 10 (USB2E7196)
Correct for Electrical Dark: No (USB2E7196)
Strobe/Lamp Enabled: No (USB2E7196)
Correct for Detector Non-linearity: No (USB2E7196)
Correct for Stray Light: No (USB2E7196)
Number of Pixels in Processed Spectrum: 2048
>>>>>Begin Processed Spectral Data<<<<<
339.09	0.00
339.48	197.55
339.86	199.45
340.24	201.65
340.63	202.85
341.01	206.75
341.39	206.10
341.78	207.20
342.16	207.60
342.54	208.05
342.93	197.96
343.31	207.93
343.69	208.56
344.07	209.10
344.46	209.52
344.84	209.95
345.22	210.18
345.60	210.41
345.99	210.57
346.37	210.71
346.75	210.85
347.13	210.94
347.52	210.95
347.90	211.06
348.28	211.10
348.66	211.17
349.05	211.17
349.43	211.20
349.81	211.25
350.19	211.32
350.57	211.37
350.96	211.39
351.34	211.56
351.72	211.60
352.10	211.60
352.48	211.71
352.87	211.79
353.25	211.79
353.63	211.87
354.01	212.02
354.39	212.05
354.77	212.14
355.15	212.27
355.54	212.28
355.92	212.29
356.30	212.35
356.68	212.55
357.06	212.67
357.44	212.68
357.82	212.76
358.20	212.87
358.58	212.98
358.97	213.12
359.35	213.20
359.73	213.27
360.11	213.37
360.49	213.39
360.87	213.38
361.25	213.48
361.63	213.62
362.01	213.63
362.39	213.75
362.77	213.79
363.15	213.78
363.53	213.89
363.91	213.93
364.29	213.92
364.67	213.82
365.05	213.80
365.43	213.89
365.81	213.91
366.19	214.02
366.57	214.10
366.95	214.07
367.33	214.05
367.71	214.10
368.09	214.19
368.47	214.23
368.85	214.26
369.23	214.30
369.61	214.17
369.99	214.25
370.37	214.29
370.75	214.34
371.13	214.26
371.51	214.18
371.89	214.21
372.27	214.22
372.65	214.25
373.03	214.26
373.41	214.18
373.78	214.17
374.16	213.97
374.54	213.87
374.92	213.80
375.30	213.78
375.68	213.71
376.06	213.69
376.44	213.61
376.82	213.56
377.19	213.46
377.57	213.41
377.95	213.24
378.33	213.12
378.71	212.99
379.09	213.06
379.47	213.08
379.84	212.88
380.22	212.83
380.60	212.65
380.98	212.57
381.36	212.49
381.73	212.41
382.11	212.37
382.49	212.28
382.87	212.21
383.25	212.14
383.62	212.33
384.00	212.18
384.38	212.18
384.76	212.14
385.13	212.25
385.51	212.24
385.89	212.23
386.27	212.18
386.64	212.21
387.02	212.19
387.40	212.15
387.78	212.19
388.15	212.16
388.53	212.10
388.91	212.10
389.29	212.06
389.66	212.07
390.04	212.04
390.42	212.06
390.79	212.08
391.17	212.01
391.55	211.75
391.92	211.73
392.30	211.68
392.68	211.71
393.05	211.65
393.43	211.63
393.81	211.62
394.18	211.67
394.56	211.62
394.94	211.59
395.31	211.56
395.69	211.65
396.06	211.64
396.44	211.67
396.82	211.70
397.19	211.77
397.57	211.78
397.95	211.86
398.32	211.80
398.70	211.81
399.07	211.97
399.45	212.02
399.82	212.06
400.20	212.13
400.58	212.09
400.95	212.09
401.33	212.17
401.70	212.31
402.08	212.35
402.45	212.42
402.83	212.50
403.20	212.56
403.58	212.58
403.95	212.74
404.33	212.88
404.71	213.02
405.08	213.23
405.46	213.34
405.83	213.44
406.21	213.57
406.58	213.73
406.96	213.80
407.33	214.00
407.70	214.24
408.08	214.56
408.45	214.81
408.83	215.05
409.20	215.25
409.58	215.43
409.95	215.70
410.33	216.03
410.70	216.30
411.08	216.68
411.45	217.10
411.82	217.30
412.20	217.76
412.57	218.23
412.95	218.57
413.32	219.08
413.69	219.65
414.07	220.35
414.44	221.00
414.82	221.64
415.19	222.33
415.56	223.08
415.94	223.73
416.31	224.55
416.68	225.48
417.06	226.51
417.43	227.44
417.81	228.55
418.18	229.67
418.55	230.86
418.93	232.11
419.30	233.44
419.67	235.03
420.04	236.47
420.42	237.95
420.79	239.75
421.16	241.45
421.54	243.33
421.91	245.17
422.28	247.11
422.66	249.19
423.03	251.26
423.40	253.40
423.77	255.69
424.15	257.90
424.52	260.17
424.89	262.77
425.26	265.30
425.64	267.74
426.01	270.24
426.38	272.95
426.75	275.66
427.13	278.47
427.50	281.37
427.87	284.42
428.24	287.59
428.61	290.53
428.99	293.82
429.36	297.27
429.73	300.73
430.10	304.22
430.47	307.75
430.85	311.46
431.22	315.38
431.59	319.50
431.96	323.64
432.33	328.08
432.70	332.29
433.08	337.31
433.45	341.88
433.82	346.49
434.19	351.70
434.56	356.85
434.93	361.57
435.30	366.40
435.68	371.52
436.05	376.65
436.42	381.82
436.79	386.49
437.16	391.58
437.53	396.91
437.90	402.10
438.27	407.26
438.64	412.55
439.01	417.46
439.38	421.85
439.75	426.09
440.13	430.95
440.50	435.56
440.87	439.16
441.24	443.09
441.61	447.30
441.98	450.33
442.35	453.84
442.72	457.55
443.09	461.01
443.46	463.27
443.83	464.70
444.20	465.90
444.57	467.76
444.94	468.43
445.31	469.18
445.68	470.09
446.05	470.31
446.42	469.68
446.79	468.86
447.16	468.05
447.53	467.25
447.90	465.08
448.27	462.93
448.64	459.96
449.01	457.74
449.37	454.28
449.74	450.76
450.11	446.67
450.48	442.14
450.85	437.57
451.22	433.54
451.59	429.71
451.96	426.07
452.33	421.27
452.70	416.95
453.07	411.81
453.43	406.40
453.80	401.37
454.17	396.62
454.54	392.15
454.91	387.33
455.28	382.61
455.65	378.15
456.02	373.72
456.38	370.01
456.75	365.37
457.12	361.44
457.49	357.53
457.86	353.59
458.23	350.40
458.59	346.85
458.96	343.33
459.33	340.11
459.70	336.85
460.07	334.38
460.43	331.55
460.80	328.79
461.17	326.49
461.54	324.11
461.91	321.69
462.27	319.27
462.64	317.20
463.01	315.03
463.38	312.94
463.74	310.70
464.11	308.83
464.48	307.24
464.85	305.44
465.21	304.08
465.58	302.86
465.95	301.06
466.32	299.67
466.68	298.19
467.05	296.89
467.42	295.60
467.78	293.96
468.15	292.53
468.52	291.60
468.88	290.24
469.25	288.96
469.62	288.04
469.98	287.11
470.35	286.18
470.72	285.34
471.08	284.36
471.45	283.60
471.82	282.82
472.18	281.88
472.55	281.32
472.92	280.59
473.28	279.85
473.65	279.33
474.02	278.79
474.38	278.46
474.75	278.06
475.11	277.59
475.48	277.43
475.85	277.23
476.21	276.96
476.58	276.87
476.94	276.91
477.31	276.83
477.67	276.69
478.04	276.70
478.41	276.80
478.77	277.11
479.14	277.25
479.50	277.49
479.87	277.89
480.23	278.27
480.60	278.76
480.96	279.26
481.33	279.93
481.69	280.53
482.06	281.09
482.42	281.64
482.79	282.41
483.15	283.28
483.52	284.41
483.88	285.39
484.25	286.35
484.61	287.40
484.98	288.54
485.34	289.87
485.71	291.22
486.07	292.54
486.44	293.88
486.80	295.45
487.17	297.12
487.53	298.80
487.90	300.66
488.26	302.50
488.62	304.60
488.99	306.58
489.35	308.69
489.72	311.10
490.08	313.67
490.44	316.23
490.81	318.90
491.17	321.41
491.54	324.41
491.90	327.43
492.26	330.60
492.63	333.95
492.99	337.34
493.36	341.07
493.72	344.98
494.08	348.93
494.45	353.18
494.81	357.65
495.17	362.32
495.54	367.21
495.90	372.34
496.26	377.45
496.63	383.07
496.99	388.83
497.35	394.78
497.72	401.01
498.08	407.44
498.44	414.20
498.80	421.55
499.17	428.81
499.53	436.43
499.89	444.52
500.26	452.60
500.62	460.99
500.98	469.75
501.34	478.90
501.71	488.45
502.07	498.22
502.43	508.14
502.79	518.45
503.16	529.10
503.52	540.05
503.88	551.33
504.24	562.77
504.60	574.61
504.97	586.91
505.33	599.53
505.69	613.02
506.05	626.58
506.41	640.02
506.78	653.84
507.14	668.30
507.50	682.82
507.86	697.83
508.22	713.31
508.59	728.92
508.95	744.94
509.31	761.28
509.67	778.03
510.03	795.10
510.39	812.65
510.75	830.46
511.12	848.56
511.48	866.98
511.84	885.73
512.20	904.59
512.56	923.94
512.92	943.50
513.28	962.82
513.64	982.64
514.00	1002.60
514.37	1023.31
514.73	1043.89
515.09	1064.85
515.45	1085.99
515.81	1106.90
516.17	1128.27
516.53	1149.53
516.89	1171.14
517.25	1192.66
517.61	1214.66
517.97	1236.24
518.33	1257.71
518.69	1279.48
519.05	1301.77
519.41	1323.91
519.77	1346.59
520.13	1368.74
520.49	1390.73
520.85	1413.35
521.21	1435.63
521.57	1458.97
521.93	1480.94
522.29	1503.92
522.65	1526.53
523.01	1548.93
523.37	1571.45
523.73	1594.12
524.09	1616.51
524.45	1638.72
524.81	1661.35
525.17	1683.63
525.53	1706.10
525.89	1728.62
526.25	1750.72
526.61	1771.99
526.97	1793.77
527.33	1815.08
527.68	1836.75
528.04	1858.07
528.40	1878.80
528.76	1899.84
529.12	1920.37
529.48	1942.28
529.84	1962.73
530.20	1983.15
530.56	2003.83
530.91	2024.69
531.27	2044.89
531.63	2064.82
531.99	2084.97
532.35	2104.24
532.71	2123.43
533.07	2142.88
533.42	2161.61
533.78	2180.65
534.14	2199.18
534.50	2216.95
534.86	2235.36
535.21	2252.34
535.57	2270.25
535.93	2287.67
536.29	2304.64
536.65	2321.38
537.00	2336.85
537.36	2352.40
537.72	2367.65
538.08	2382.99
538.44	2398.42
538.79	2414.07
539.15	2429.43
539.51	2444.02
539.87	2459.62
540.22	2473.99
540.58	2489.27
540.94	2503.86
541.29	2517.03
541.65	2529.74
542.01	2543.12
542.37	2554.90
542.72	2567.34
543.08	2578.36
543.44	2590.50
543.79	2600.62
544.15	2611.00
544.51	2621.96
544.87	2632.89
545.22	2642.36
545.58	2650.78
545.94	2657.83
546.29	2664.31
546.65	2670.61
547.01	2676.99
547.36	2682.63
547.72	2688.42
548.07	2692.32
548.43	2696.00
548.79	2699.62
549.14	2704.51
549.50	2708.42
549.86	2712.76
550.21	2716.81
550.57	2721.36
550.92	2723.98
551.28	2726.97
551.64	2729.61
551.99	2732.40
552.35	2734.60
552.70	2737.48
553.06	2740.74
553.41	2744.17
553.77	2746.89
554.13	2749.33
554.48	2751.51
554.84	2753.01
555.19	2753.81
555.55	2754.63
555.90	2755.52
556.26	2756.53
556.61	2756.33
556.97	2755.41
557.32	2754.86
557.68	2752.96
558.03	2751.48
558.39	2750.08
558.74	2749.84
559.10	2748.56
559.45	2746.57
559.81	2744.76
560.16	2742.19
560.52	2739.50
560.87	2736.61
561.23	2733.51
561.58	2731.26
561.94	2728.10
562.29	2724.54
562.64	2722.55
563.00	2720.10
563.35	2717.77
563.71	2716.14
564.06	2714.38
564.42	2712.54
564.77	2710.33
565.12	2708.76
565.48	2705.56
565.83	2702.46
566.19	2699.10
566.54	2694.92
566.89	2691.15
567.25	2687.66
567.60	2684.41
567.96	2681.17
568.31	2677.88
568.66	2673.92
569.02	2669.45
569.37	2664.49
569.72	2660.52
570.08	2654.98
570.43	2649.57
570.78	2644.06
571.14	2637.50
571.49	2630.46
571.84	2624.49
572.20	2617.52
572.55	2610.72
572.90	2603.80
573.26	2596.78
573.61	2589.71
573.96	2583.45
574.31	2575.54
574.67	2567.29
575.02	2558.48
575.37	2549.96
575.72	2540.76
576.08	2532.99
576.43	2524.06
576.78	2516.16
577.13	2508.00
577.49	2499.89
577.84	2491.81
578.19	2483.99
578.54	2476.51
578.90	2469.55
579.25	2460.74
579.60	2451.32
579.95	2442.19
580.30	2434.09
580.66	2425.94
581.01	2416.91
581.36	2407.54
581.71	2399.20
582.06	2390.77
582.42	2383.18
582.77	2373.65
583.12	2364.45
583.47	2355.80
583.82	2347.46
584.17	2338.07
584.53	2328.74
584.88	2319.64
585.23	2310.29
585.58	2300.49
585.93	2290.74
586.28	2281.72
586.63	2272.80
586.98	2264.94
587.34	2256.69
587.69	2247.82
588.04	2238.45
588.39	2229.88
588.74	2220.94
589.09	2212.10
589.44	2202.27
589.79	2192.91
590.14	2184.96
590.49	2176.93
590.84	2167.61
591.19	2159.40
591.54	2150.37
591.89	2140.43
592.25	2131.18
592.60	2121.69
592.95	2112.24
593.30	2102.66
593.65	2092.19
594.00	2082.65
594.35	2074.26
594.70	2064.58
595.05	2055.45
595.40	2046.87
595.75	2037.25
596.10	2028.80
596.45	2020.17
596.80	2012.47
597.15	2004.56
597.50	1995.32
597.85	1986.74
598.19	1978.20
598.54	1969.54
598.89	1962.01
599.24	1955.16
599.59	1947.61
599.94	1940.58
600.29	1932.97
600.64	1925.04
600.99	1917.10
601.34	1909.80
601.69	1900.80
602.04	1893.03
602.39	1885.01
602.74	1876.79
603.08	1870.37
603.43	1863.02
603.78	1855.02
604.13	1847.04
604.48	1838.80
604.83	1831.78
605.18	1824.58
605.53	1816.70
605.87	1809.05
606.22	1801.78
606.57	1793.73
606.92	1785.70
607.27	1777.42
607.62	1770.14
607.96	1763.20
608.31	1756.99
608.66	1749.09
609.01	1741.47
609.36	1733.58
609.70	1725.73
610.05	1718.26
610.40	1709.64
610.75	1701.04
611.10	1693.10
611.44	1683.74
611.79	1674.54
612.14	1665.21
612.49	1655.54
612.83	1646.75
613.18	1636.61
613.53	1627.14
613.88	1617.39
614.22	1608.32
614.57	1598.97
614.92	1589.38
615.27	1580.02
615.61	1569.66
615.96	1560.61
616.31	1551.70
616.65	1543.63
617.00	1534.97
617.35	1526.22
617.70	1517.31
618.04	1508.22
618.39	1498.85
618.74	1490.54
619.08	1481.94
619.43	1473.66
619.78	1465.77
620.12	1457.73
620.47	1450.38
620.82	1441.80
621.16	1433.54
621.51	1425.18
621.85	1417.06
622.20	1408.69
622.55	1400.12
622.89	1392.14
623.24	1384.10
623.59	1375.57
623.93	1366.80
624.28	1358.61
624.62	1350.29
624.97	1342.20
625.32	1334.42
625.66	1326.99
626.01	1319.64
626.35	1312.30
626.70	1304.41
627.04	1296.80
627.39	1289.00
627.73	1281.41
628.08	1274.36
628.43	1266.95
628.77	1259.47
629.12	1251.77
629.46	1244.91
629.81	1237.70
630.15	1230.34
630.50	1222.83
630.84	1215.46
631.19	1208.45
631.53	1201.28
631.88	1193.43
632.22	1185.61
632.57	1178.50
632.91	1171.16
633.26	1163.76
633.60	1156.70
633.95	1149.86
634.29	1142.56
634.64	1135.85
634.98	1128.65
635.32	1121.46
635.67	1114.97
636.01	1108.39
636.36	1101.60
636.70	1094.96
637.05	1088.24
637.39	1081.81
637.73	1075.32
638.08	1069.83
638.42	1063.80
638.77	1057.39
639.11	1051.20
639.45	1045.35
639.80	1038.82
640.14	1032.18
640.49	1025.75
640.83	1019.32
641.17	1012.89
641.52	1006.64
641.86	1000.12
642.20	993.65
642.55	987.06
642.89	980.56
643.23	973.99
643.58	968.26
643.92	961.71
644.26	955.51
644.61	949.32
644.95	943.42
645.29	936.70
645.64	929.91
645.98	923.74
646.32	917.78
646.66	911.37
647.01	905.37
647.35	899.56
647.69	893.20
648.04	887.15
648.38	881.30
648.72	875.22
649.06	868.97
649.41	863.08
649.75	857.04
650.09	851.16
650.43	845.10
650.78	838.72
651.12	832.57
651.46	826.80
651.80	820.82
652.14	814.66
652.49	808.79
652.83	803.02
653.17	796.78
653.51	791.05
653.85	785.54
654.20	779.79
654.54	773.84
654.88	768.43
655.22	762.70
655.56	756.58
655.90	750.66
656.25	745.08
656.59	739.44
656.93	734.40
657.27	729.10
657.61	723.82
657.95	718.76
658.29	713.67
658.64	708.37
658.98	703.13
659.32	697.69
659.66	692.49
660.00	687.30
660.34	682.20
660.68	676.91
661.02	671.65
661.36	666.67
661.70	661.84
662.05	656.74
662.39	652.18
662.73	647.90
663.07	643.68
663.41	639.42
663.75	634.90
664.09	630.03
664.43	625.30
664.77	620.86
665.11	616.27
665.45	611.87
665.79	607.46
666.13	603.07
666.47	598.92
666.81	594.72
667.15	590.45
667.49	586.66
667.83	582.84
668.17	578.99
668.51	575.24
668.85	571.51
669.19	568.07
669.53	564.12
669.87	560.08
670.21	556.12
670.55	552.12
670.89	548.62
671.23	545.35
671.57	541.89
671.91	538.35
672.25	534.83
672.58	531.40
672.92	527.93
673.26	524.76
673.60	521.58
673.94	518.26
674.28	515.07
674.62	511.86
674.96	508.63
675.30	505.52
675.64	502.33
675.97	499.12
676.31	496.11
676.65	493.15
676.99	490.47
677.33	487.51
677.67	484.54
678.01	481.38
678.34	478.34
678.68	475.44
679.02	472.48
679.36	469.65
679.70	466.72
680.04	463.96
680.37	461.00
680.71	458.10
681.05	455.48
681.39	452.78
681.73	450.07
682.06	447.50
682.40	444.98
682.74	442.33
683.08	439.80
683.42	437.00
683.75	434.50
684.09	431.85
684.43	429.41
684.77	426.86
685.10	424.35
685.44	421.71
685.78	419.23
686.12	416.98
686.45	414.56
686.79	412.31
687.13	410.05
687.46	407.87
687.80	405.66
688.14	403.19
688.48	401.04
688.81	398.74
689.15	396.39
689.49	394.00
689.82	391.73
690.16	389.41
690.50	387.19
690.83	384.96
691.17	382.75
691.51	380.48
691.84	378.32
692.18	376.33
692.52	374.45
692.85	372.58
693.19	370.65
693.52	368.64
693.86	366.57
694.20	364.73
694.53	362.73
694.87	360.72
695.21	358.78
695.54	356.81
695.88	354.99
696.21	353.14
696.55	351.38
696.88	349.69
697.22	347.99
697.56	346.50
697.89	344.89
698.23	343.13
698.56	341.57
698.90	340.03
699.23	338.39
699.57	336.79
699.90	335.13
700.24	333.33
700.58	331.83
700.91	330.43
701.25	328.97
701.58	327.56
701.92	326.16
702.25	324.80
702.59	323.37
702.92	321.94
703.26	320.65
703.59	319.35
703.93	318.11
704.26	316.85
704.60	315.46
704.93	314.07
705.26	312.86
705.60	311.63
705.93	310.36
706.27	309.21
706.60	308.04
706.94	306.90
707.27	305.80
707.61	304.58
707.94	303.39
708.27	302.07
708.61	300.88
708.94	299.76
709.28	298.58
709.61	297.54
709.94	296.45
710.28	295.32
710.61	294.26
710.95	292.94
711.28	292.02
711.61	290.95
711.95	289.96
712.28	288.95
712.61	287.86
712.95	287.01
713.28	286.13
713.61	285.08
713.95	284.04
714.28	283.14
714.61	282.18
714.95	281.25
715.28	280.35
715.61	279.35
715.95	278.44
716.28	277.66
716.61	276.75
716.95	275.90
717.28	275.11
717.61	274.35
717.94	273.70
718.28	272.80
718.61	272.08
718.94	271.36
719.27	270.68
719.61	270.04
719.94	269.33
720.27	268.48
720.60	267.75
720.94	267.12
721.27	266.45
721.60	265.90
721.93	265.24
722.27	264.70
722.60	264.16
722.93	263.53
723.26	262.91
723.59	262.35
723.93	261.73
724.26	261.13
724.59	260.47
724.92	259.99
725.25	259.49
725.59	258.97
725.92	258.46
726.25	257.74
726.58	257.20
726.91	256.62
727.24	256.10
727.57	255.67
727.91	255.10
728.24	254.67
728.57	254.22
728.90	253.78
729.23	253.20
729.56	252.90
729.89	252.48
730.22	251.99
730.55	251.55
730.89	251.11
731.22	250.57
731.55	250.15
731.88	249.60
732.21	249.16
732.54	248.56
732.87	248.16
733.20	247.84
733.53	247.37
733.86	246.93
734.19	246.57
734.52	246.22
734.85	245.99
735.18	245.54
735.51	245.15
735.84	244.82
736.17	244.56
736.50	244.02
736.83	243.84
737.16	243.50
737.49	243.17
737.82	242.79
738.15	242.49
738.48	242.15
738.81	241.78
739.14	241.41
739.47	241.15
739.80	240.65
740.13	240.35
740.46	240.03
740.79	239.65
741.12	239.29
741.45	238.89
741.78	238.47
742.11	238.15
742.44	237.70
742.77	237.33
743.10	236.97
743.43	236.72
743.75	236.30
744.08	236.26
744.41	235.97
744.74	235.62
745.07	235.33
745.40	235.12
745.73	234.92
746.06	234.59
746.39	234.36
746.71	234.07
747.04	233.79
747.37	233.48
747.70	233.31
748.03	233.06
748.36	232.82
748.68	232.54
749.01	232.22
749.34	232.03
749.67	231.74
750.00	231.47
750.33	231.21
750.65	230.85
750.98	230.31
751.31	229.98
751.64	229.86
751.97	229.77
752.29	229.49
752.62	229.12
752.95	228.87
753.28	228.57
753.60	228.38
753.93	228.19
754.26	228.00
754.59	227.74
754.91	227.55
755.24	227.32
755.57	227.10
755.90	226.94
756.22	226.69
756.55	226.48
756.88	226.31
757.20	226.10
757.53	225.95
757.86	225.76
758.19	225.62
758.51	225.36
758.84	224.98
759.17	224.81
759.49	224.70
759.82	224.60
760.15	224.45
760.47	224.25
760.80	223.95
761.13	223.85
761.45	223.71
761.78	223.50
762.11	223.36
762.43	223.24
762.76	223.13
763.08	223.05
763.41	222.90
763.74	222.63
764.06	222.51
764.39	222.30
764.71	222.11
765.04	221.96
765.37	221.86
765.69	221.77
766.02	221.54
766.34	221.49
766.67	221.31
767.00	221.19
767.32	221.23
767.65	221.32
767.97	221.15
768.30	220.97
768.62	220.95
768.95	220.83
769.27	220.64
769.60	220.54
769.92	220.41
770.25	220.30
770.57	220.25
770.90	220.08
771.22	219.98
771.55	219.99
771.87	219.89
772.20	219.76
772.52	219.81
772.85	219.96
773.17	219.79
773.50	219.73
773.82	219.59
774.15	219.40
774.47	219.19
774.80	219.12
775.12	219.07
775.45	218.93
775.77	218.84
776.09	218.86
776.42	218.76
776.74	218.70
777.07	218.62
777.39	218.55
777.72	218.44
778.04	218.39
778.36	218.29
778.69	218.21
779.01	218.21
779.33	217.99
779.66	217.72
779.98	217.64
780.31	217.53
780.63	217.61
780.95	217.57
781.28	217.48
781.60	217.31
781.92	217.28
782.25	217.14
782.57	217.08
782.89	217.08
783.22	216.95
783.54	216.88
783.86	216.84
784.19	216.81
784.51	216.86
784.83	216.71
785.16	216.59
785.48	216.55
785.80	216.50
786.12	216.49
786.45	216.45
786.77	216.38
787.09	216.38
787.42	216.25
787.74	216.28
788.06	216.25
788.38	216.25
788.71	216.18
789.03	216.22
789.35	216.20
789.67	216.08
789.99	216.10
790.32	216.04
790.64	216.04
790.96	216.16
791.28	216.06
791.61	216.04
791.93	216.06
792.25	216.03
792.57	216.08
792.89	216.01
793.21	215.90
793.54	215.88
793.86	215.85
794.18	215.83
794.50	215.64
794.82	215.62
795.14	215.62
795.47	215.60
795.79	215.59
796.11	215.49
796.43	215.45
796.75	215.40
797.07	215.42
797.39	215.31
797.71	215.12
798.04	215.05
798.36	215.09
798.68	214.96
799.00	214.92
799.32	214.83
799.64	214.82
799.96	214.88
800.28	214.80
800.60	214.70
800.92	214.66
801.24	214.62
801.56	214.57
801.89	214.54
802.21	214.53
802.53	214.44
802.85	214.45
803.17	214.47
803.49	214.40
803.81	214.41
804.13	214.39
804.45	214.39
804.77	214.42
805.09	214.35
805.41	214.32
805.73	214.23
806.05	214.14
806.37	214.10
806.69	214.10
807.01	214.15
807.33	214.19
807.65	214.10
807.97	214.13
808.28	214.11
808.60	214.05
808.92	213.98
809.24	214.01
809.56	213.98
809.88	213.81
810.20	213.82
810.52	213.75
810.84	213.73
811.16	213.61
811.48	213.57
811.80	213.66
812.12	213.70
812.43	213.75
812.75	213.79
813.07	213.66
813.39	213.60
813.71	213.49
814.03	213.50
814.35	213.58
814.67	213.50
814.98	213.44
815.30	213.38
815.62	213.28
815.94	213.20
816.26	213.15
816.58	213.06
816.89	213.05
817.21	212.93
817.53	212.89
817.85	212.95
818.17	212.90
818.48	212.85
818.80	212.85
819.12	212.75
819.44	212.67
819.76	212.67
820.07	212.62
820.39	212.66
820.71	212.61
821.03	212.53
821.34	212.57
821.66	212.60
821.98	212.64
822.30	212.70
822.61	212.75
822.93	212.75
823.25	212.79
823.57	212.74
823.88	212.89
824.20	212.86
824.52	212.83
824.83	212.81
825.15	212.68
825.47	212.66
825.79	212.69
826.10	212.62
826.42	212.66
826.74	212.64
827.05	212.65
827.37	212.68
827.69	212.60
828.00	212.57
828.32	212.60
828.64	212.54
828.95	212.69
829.27	212.65
829.58	212.57
829.90	212.67
830.22	212.73
830.53	212.57
830.85	212.58
831.17	212.50
831.48	212.50
831.80	212.63
832.11	212.65
832.43	212.56
832.75	212.52
833.06	212.59
833.38	212.55
833.69	212.47
834.01	212.42
834.32	212.48
834.64	212.44
834.96	212.36
835.27	212.40
835.59	212.25
835.90	212.19
836.22	212.22
836.53	212.08
836.85	211.94
837.16	212.08
837.48	212.07
837.79	212.11
838.11	212.12
838.42	212.01
838.74	211.99
839.05	212.01
839.37	212.03
839.68	211.85
840.00	211.86
840.31	211.91
840.63	211.86
840.94	211.79
841.26	211.79
841.57	211.77
841.88	211.70
842.20	211.70
842.51	211.67
842.83	211.69
843.14	211.91
843.46	211.97
843.77	211.86
844.08	211.79
844.40	211.78
844.71	211.75
845.03	211.73
845.34	211.70
845.65	211.75
845.97	211.79
846.28	211.83
846.60	211.88
846.91	211.85
847.22	211.92
847.54	211.96
847.85	211.91
848.16	211.92
848.48	211.91
848.79	211.94
849.10	211.96
849.42	211.92
849.73	211.67
850.04	211.63
850.36	211.62
850.67	211.72
850.98	211.65
851.30	211.62
851.61	211.57
851.92	211.51
852.23	211.49
852.55	211.43
852.86	211.38
853.17	211.29
853.49	211.29
853.80	211.27
854.11	211.27
854.42	211.27
854.74	211.24
855.05	211.27
855.36	211.13
855.67	211.07
855.99	211.08
856.30	211.32
856.61	211.28
856.92	211.31
857.23	211.26
857.55	211.30
857.86	211.25
858.17	211.33
858.48	211.32
858.79	211.34
859.11	211.40
859.42	211.50
859.73	211.46
860.04	211.37
860.35	211.31
860.66	211.32
860.98	211.35
861.29	211.43
861.60	211.42
861.91	211.49
862.22	211.50
862.53	211.50
862.84	211.35
863.16	211.41
863.47	211.44
863.78	211.47
864.09	211.47
864.40	211.50
864.71	211.47
865.02	211.48
865.33	211.43
865.64	211.39
865.95	211.26
866.27	211.50
866.58	211.53
866.89	211.57
867.20	211.50
867.51	211.51
867.82	211.47
868.13	211.50
868.44	211.44
868.75	211.44
869.06	211.46
869.37	211.45
869.68	211.43
869.99	211.45
870.30	211.41
870.61	211.41
870.92	211.41
871.23	211.50
871.54	211.49
871.85	211.52
872.16	211.53
872.47	211.60
872.78	211.45
873.09	211.50
873.40	211.43
873.71	211.48
874.02	211.47
874.33	211.38
874.64	211.40
874.95	211.46
875.26	211.48
875.56	211.41
875.87	211.34
876.18	211.32
876.49	211.38
876.80	211.37
877.11	211.37
877.42	211.37
877.73	211.26
878.04	211.27
878.35	211.24
878.66	211.16
878.96	211.10
879.27	211.06
879.58	211.02
879.89	211.08
880.20	211.06
880.51	211.07
880.82	211.11
881.12	211.03
881.43	211.02
881.74	210.99
882.05	211.04
882.36	211.04
882.67	211.07
882.97	210.87
883.28	210.84
883.59	210.85
883.90	210.85
884.21	210.91
884.51	210.85
884.82	210.86
885.13	210.90
885.44	210.98
885.74	211.00
886.05	211.02
886.36	211.05
886.67	211.09
886.98	211.17
887.28	211.15
887.59	211.18
887.90	211.10
888.20	211.10
888.51	211.13
888.82	211.18
889.13	211.16
889.43	211.32
889.74	211.35
890.05	211.25
890.35	211.24
890.66	211.17
890.97	211.25
891.28	211.25
891.58	211.33
891.89	211.30
892.20	211.23
892.50	211.28
892.81	211.22
893.12	211.07
893.42	210.99
893.73	211.07
894.04	211.10
894.34	211.16
894.65	211.14
894.95	211.10
895.26	211.13
895.57	211.23
895.87	211.10
896.18	211.10
896.48	211.17
896.79	211.21
897.10	211.19
897.40	211.17
897.71	211.18
898.01	211.12
898.32	211.16
898.63	211.14
898.93	211.12
899.24	211.09
899.54	211.12
899.85	211.09
900.15	211.05
900.46	211.04
900.76	211.09
901.07	211.15
901.38	211.17
901.68	211.19
901.99	211.08
902.29	211.09
902.60	211.07
902.90	211.09
903.21	211.09
903.51	211.16
903.82	211.23
904.12	211.22
904.43	211.30
904.73	211.26
905.03	211.30
905.34	211.45
905.64	211.49
905.95	211.48
906.25	211.50
906.56	211.44
906.86	211.44
907.17	211.37
907.47	211.34
907.77	211.28
908.08	211.19
908.38	211.24
908.69	211.31
908.99	211.34
909.30	211.30
909.60	211.31
909.90	211.34
910.21	211.25
910.51	211.27
910.81	211.18
911.12	211.19
911.42	211.21
911.73	211.05
912.03	211.03
912.33	211.13
912.64	211.17
912.94	211.22
913.24	211.21
913.55	211.22
913.85	211.18
914.15	211.21
914.46	211.26
914.76	211.22
915.06	211.21
915.37	211.24
915.67	211.28
915.97	211.28
916.27	211.23
916.58	211.25
916.88	211.21
917.18	211.27
917.49	211.42
917.79	211.35
918.09	211.40
918.39	211.51
918.70	211.44
919.00	211.43
919.30	211.54
919.60	211.56
919.91	211.55
920.21	211.60
920.51	211.61
920.81	211.59
921.12	211.59
921.42	211.51
921.72	211.47
922.02	211.43
922.32	211.44
922.63	211.40
922.93	211.45
923.23	211.52
923.53	211.42
923.83	211.23
924.13	211.27
924.44	211.23
924.74	211.17
925.04	211.24
925.34	211.20
925.64	211.12
925.94	211.15
926.24	211.28
926.55	211.26
926.85	211.26
927.15	211.21
927.45	211.26
927.75	211.22
928.05	211.19
928.35	211.18
928.65	211.17
928.95	211.19
929.26	211.16
929.56	211.12
929.86	211.19
930.16	211.29
930.46	211.25
930.76	211.26
931.06	211.15
931.36	211.10
931.66	211.09
931.96	211.12
932.26	211.09
932.56	210.94
932.86	210.90
933.16	210.93
933.46	210.94
933.76	210.91
934.06	211.07
934.36	211.14
934.66	211.15
934.96	211.15
935.26	211.13
935.56	211.16
935.86	211.09
936.16	211.01
936.46	210.92
936.76	210.93
937.06	210.92
937.36	210.93
937.66	210.95
937.96	210.92
938.26	210.87
938.56	210.79
938.86	210.78
939.16	210.85
939.46	210.85
939.76	210.96
940.06	210.97
940.35	210.82
940.65	210.82
940.95	210.85
941.25	210.85
941.55	210.88
941.85	210.86
942.15	210.94
942.45	211.01
942.75	211.03
943.04	211.13
943.34	211.16
943.64	211.16
943.94	211.11
944.24	211.12
944.54	211.14
944.84	211.20
945.13	211.24
945.43	211.20
945.73	211.20
946.03	211.11
946.33	211.12
946.62	211.15
946.92	211.08
947.22	211.14
947.52	211.14
947.82	211.16
948.11	211.17
948.41	211.16
948.71	211.14
949.01	211.21
949.31	211.18
949.60	211.14
949.90	211.24
950.20	211.22
950.50	211.28
950.79	211.28
951.09	211.27
951.39	211.25
951.69	211.22
951.98	211.22
952.28	211.20
952.58	211.17
952.87	211.16
953.17	211.12
953.47	211.04
953.76	211.04
954.06	210.94
954.36	210.89
954.66	210.85
954.95	210.92
955.25	210.85
955.55	210.82
955.84	210.80
956.14	210.80
956.44	210.81
956.73	210.75
957.03	210.75
957.32	210.78
957.62	210.74
957.92	210.81
958.21	210.82
958.51	211.05
958.81	211.08
959.10	211.09
959.40	211.20
959.69	211.15
959.99	211.16
960.29	211.23
960.58	211.20
960.88	211.27
961.17	211.22
961.47	211.24
961.76	211.19
962.06	211.26
962.36	211.19
962.65	211.22
962.95	211.22
963.24	211.18
963.54	211.15
963.83	211.25
964.13	211.21
964.42	211.09
964.72	210.89
965.01	210.85
965.31	210.83
965.60	210.78
965.90	210.93
966.19	210.85
966.49	210.84
966.78	210.88
967.08	210.82
967.37	210.85
967.67	210.81
967.96	210.87
968.26	210.82
968.55	210.81
968.85	210.75
969.14	210.71
969.43	210.72
969.73	210.76
970.02	210.70
970.32	210.71
970.61	210.77
970.91	210.65
971.20	210.62
971.49	210.57
971.79	210.60
972.08	210.44
972.38	210.58
972.67	210.58
972.96	210.54
973.26	210.52
973.55	210.55
973.85	210.56
974.14	210.58
974.43	210.59
974.73	210.58
975.02	210.59
975.31	210.64
975.61	210.58
975.90	210.53
976.19	210.50
976.49	210.51
976.78	210.53
977.07	210.58
977.37	210.65
977.66	210.68
977.95	210.62
978.24	210.69
978.54	210.68
978.83	210.66
979.12	210.68
979.42	210.62
979.71	210.50
980.00	210.47
980.29	210.45
980.59	210.45
980.88	210.53
981.17	210.59
981.46	210.61
981.76	210.66
982.05	210.65
982.34	210.70
982.63	210.72
982.93	210.69
983.22	210.80
983.51	210.74
983.80	210.81
984.09	210.82
984.39	210.76
984.68	210.71
984.97	210.73
985.26	210.74
985.55	210.81
985.85	210.91
986.14	210.95
986.43	210.99
986.72	210.98
987.01	210.95
987.30	210.93
987.59	210.90
987.89	210.91
988.18	210.92
988.47	210.89
988.76	210.80
989.05	210.83
989.34	210.80
989.63	210.87
989.92	210.90
990.22	210.92
990.51	210.95
990.80	210.95
991.09	211.02
991.38	211.04
991.67	211.10
991.96	211.06
992.25	211.08
992.54	211.11
992.83	211.08
993.12	211.09
993.41	211.09
993.70	211.18
993.99	211.21
994.28	211.24
994.58	211.29
994.87	211.37
995.16	211.33
995.45	211.33
995.74	211.30
996.03	211.25
996.32	211.25
996.61	211.28
996.90	211.32
997.19	211.25
997.48	211.21
997.77	211.15
998.06	211.12
998.34	211.12
998.63	211.06
998.92	211.02
999.21	211.04
999.50	211.05
999.79	210.98
1000.08	210.94
1000.37	210.89
1000.66	210.87
1000.95	210.88
1001.24	210.90
1001.53	210.90
1001.82	210.86
1002.11	210.84
1002.40	210.87
1002.68	210.89
1002.97	210.92
1003.26	210.88
1003.55	210.91
1003.84	210.88
1004.13	211.00
1004.42	210.88
1004.71	210.83
1004.99	210.88
1005.28	210.87
1005.57	210.80
1005.86	210.83
1006.15	210.83
1006.44	210.80
1006.72	210.84
1007.01	210.75
1007.30	210.71
1007.59	210.66
1007.88	210.69
1008.17	210.75
1008.45	210.76
1008.74	210.70
1009.03	210.58
1009.32	210.61
1009.60	210.59
1009.89	210.61
1010.18	210.44
1010.47	210.49
1010.76	210.50
1011.04	210.47
1011.33	210.46
1011.62	210.49
1011.91	210.48
1012.19	210.45
1012.48	210.44
1012.77	210.37
1013.05	210.47
1013.34	210.50
1013.63	210.49
1013.92	210.43
1014.20	210.32
1014.49	210.35
1014.78	210.36
1015.06	210.32
1015.35	210.32
1015.64	210.28
1015.92	210.37
1016.21	210.50
1016.50	210.46
1016.78	210.49
1017.07	210.50
1017.36	210.47
1017.64	210.48
1017.93	210.39
1018.22	210.36
1018.50	210.40
1018.79	210.48
1019.08	210.39
1019.36	210.39
1019.65	210.35
1019.93	210.47
1020.22	210.55
1020.51	210.58
1020.79	210.57
1021.08	209.35
1021.36	210.50
1021.65	211.95
1021.94	209.75
1022.22	210.75
1022.51	209.30
1022.79	211.75
1023.08	211.20
1023.36	212.95
1023.65	210.45
>>>>>End Processed Spectral Data<<<<<
