SpectraSuite Data File
++++++++++++++++++++++++++++++++++++
Date: Mon Feb 25 17:33:00 EST 2013
User: group
Dark Spectrum Present: No
Reference Spectrum Present: No
Number of Sampled Component Spectra: 1
Spectrometers: USB2E7196
Integration Time (usec): 52000 (USB2E7196)
Spectra Averaged: 20 (USB2E7196)
Boxcar Smoothing: 10 (USB2E7196)
Correct for Electrical Dark: No (USB2E7196)
Strobe/Lamp Enabled: No (USB2E7196)
Correct for Detector Non-linearity: No (USB2E7196)
Correct for Stray Light: No (USB2E7196)
Number of Pixels in Processed Spectrum: 2048
>>>>>Begin Processed Spectral Data<<<<<
339.09	0.00
339.48	198.25
339.86	200.05
340.24	201.65
340.63	204.20
341.01	208.20
341.39	206.15
341.78	209.05
342.16	208.60
342.54	208.60
342.93	198.40
343.31	208.46
343.69	209.00
344.07	209.48
344.46	209.91
344.84	210.28
345.22	210.43
345.60	210.71
345.99	210.85
346.37	210.95
346.75	211.10
347.13	211.25
347.52	211.30
347.90	211.50
348.28	211.49
348.66	211.57
349.05	211.50
349.43	211.53
349.81	211.68
350.19	211.71
350.57	211.75
350.96	211.81
351.34	211.92
351.72	212.03
352.10	212.13
352.48	212.21
352.87	212.21
353.25	212.31
353.63	212.38
354.01	212.41
354.39	212.50
354.77	212.60
355.15	212.65
355.54	212.71
355.92	212.67
356.30	212.78
356.68	212.94
357.06	213.04
357.44	213.07
357.82	213.01
358.20	213.09
358.58	213.15
358.97	213.22
359.35	213.23
359.73	213.40
360.11	213.35
360.49	213.45
360.87	213.49
361.25	213.52
361.63	213.61
362.01	213.72
362.39	213.78
362.77	213.80
363.15	213.80
363.53	213.86
363.91	213.90
364.29	213.87
364.67	213.72
365.05	213.75
365.43	213.79
365.81	213.87
366.19	213.96
366.57	214.01
366.95	213.99
367.33	213.92
367.71	213.88
368.09	214.01
368.47	214.01
368.85	214.02
369.23	214.04
369.61	213.95
369.99	213.98
370.37	214.02
370.75	214.07
371.13	214.09
371.51	213.98
371.89	214.03
372.27	214.03
372.65	214.04
373.03	214.05
373.41	214.06
373.78	213.99
374.16	213.90
374.54	213.85
374.92	213.79
375.30	213.83
375.68	213.74
376.06	213.68
376.44	213.59
376.82	213.60
377.19	213.57
377.57	213.51
377.95	213.45
378.33	213.40
378.71	213.25
379.09	213.21
379.47	213.22
379.84	213.07
380.22	212.98
380.60	212.91
380.98	212.88
381.36	212.76
381.73	212.72
382.11	212.75
382.49	212.67
382.87	212.57
383.25	212.45
383.62	212.55
384.00	212.49
384.38	212.37
384.76	212.35
385.13	212.33
385.51	212.28
385.89	212.09
386.27	212.01
386.64	212.02
387.02	211.93
387.40	211.86
387.78	211.88
388.15	211.88
388.53	211.81
388.91	211.72
389.29	211.73
389.66	211.73
390.04	211.66
390.42	211.73
390.79	211.72
391.17	211.80
391.55	211.65
391.92	211.66
392.30	211.71
392.68	211.70
393.05	211.74
393.43	211.78
393.81	211.85
394.18	211.82
394.56	211.80
394.94	211.83
395.31	211.89
395.69	211.96
396.06	212.02
396.44	212.13
396.82	212.14
397.19	212.17
397.57	212.21
397.95	212.28
398.32	212.15
398.70	212.22
399.07	212.26
399.45	212.21
399.82	212.20
400.20	212.25
400.58	212.28
400.95	212.12
401.33	212.15
401.70	212.36
402.08	212.42
402.45	212.43
402.83	212.48
403.20	212.55
403.58	212.58
403.95	212.65
404.33	212.69
404.71	212.77
405.08	212.95
405.46	213.03
405.83	213.05
406.21	213.23
406.58	213.41
406.96	213.56
407.33	213.78
407.70	214.00
408.08	214.35
408.45	214.50
408.83	214.85
409.20	214.99
409.58	215.05
409.95	215.37
410.33	215.68
410.70	216.01
411.08	216.32
411.45	216.71
411.82	217.02
412.20	217.44
412.57	217.97
412.95	218.34
413.32	218.84
413.69	219.46
414.07	220.02
414.44	220.56
414.82	221.15
415.19	221.91
415.56	222.67
415.94	223.31
416.31	224.24
416.68	225.12
417.06	226.23
417.43	227.29
417.81	228.39
418.18	229.61
418.55	230.78
418.93	232.10
419.30	233.40
419.67	234.85
420.04	236.23
420.42	237.72
420.79	239.50
421.16	241.20
421.54	243.07
421.91	244.94
422.28	246.86
422.66	248.93
423.03	250.93
423.40	253.03
423.77	255.21
424.15	257.41
424.52	259.73
424.89	262.26
425.26	264.70
425.64	266.95
426.01	269.46
426.38	272.17
426.75	274.86
427.13	277.61
427.50	280.59
427.87	283.74
428.24	286.80
428.61	289.66
428.99	292.97
429.36	296.39
429.73	299.84
430.10	303.43
430.47	307.00
430.85	310.63
431.22	314.51
431.59	318.69
431.96	322.65
432.33	327.05
432.70	331.28
433.08	336.22
433.45	340.91
433.82	345.47
434.19	350.61
434.56	355.53
434.93	360.40
435.30	365.09
435.68	370.29
436.05	375.40
436.42	380.57
436.79	385.29
437.16	390.34
437.53	395.70
437.90	400.85
438.27	405.93
438.64	411.47
439.01	416.39
439.38	420.76
439.75	425.04
440.13	429.80
440.50	434.24
440.87	437.96
441.24	441.82
441.61	446.17
441.98	449.21
442.35	452.91
442.72	456.52
443.09	460.15
443.46	462.27
443.83	463.78
444.20	465.09
444.57	466.72
444.94	467.50
445.31	468.30
445.68	469.20
446.05	469.40
446.42	468.67
446.79	467.84
447.16	466.96
447.53	466.38
447.90	464.25
448.27	462.17
448.64	459.27
449.01	457.10
449.37	453.41
449.74	449.93
450.11	445.79
450.48	441.26
450.85	436.53
451.22	432.53
451.59	428.63
451.96	424.88
452.33	420.22
452.70	415.84
453.07	410.64
453.43	405.20
453.80	400.26
454.17	395.36
454.54	390.95
454.91	386.22
455.28	381.37
455.65	377.00
456.02	372.69
456.38	368.85
456.75	364.24
457.12	360.30
457.49	356.45
457.86	352.70
458.23	349.43
458.59	345.99
458.96	342.47
459.33	339.34
459.70	336.15
460.07	333.55
460.43	330.77
460.80	328.11
461.17	325.70
461.54	323.27
461.91	321.00
462.27	318.56
462.64	316.44
463.01	314.25
463.38	312.06
463.74	309.88
464.11	308.07
464.48	306.42
464.85	304.70
465.21	303.38
465.58	301.85
465.95	300.24
466.32	298.74
466.68	297.42
467.05	296.04
467.42	294.77
467.78	293.42
468.15	292.07
468.52	290.97
468.88	289.70
469.25	288.42
469.62	287.49
469.98	286.51
470.35	285.64
470.72	284.84
471.08	284.00
471.45	283.13
471.82	282.33
472.18	281.53
472.55	280.94
472.92	280.25
473.28	279.77
473.65	279.18
474.02	278.68
474.38	278.19
474.75	277.93
475.11	277.51
475.48	277.21
475.85	277.01
476.21	276.88
476.58	276.83
476.94	276.91
477.31	276.81
477.67	276.78
478.04	276.82
478.41	276.86
478.77	277.12
479.14	277.32
479.50	277.63
479.87	277.91
480.23	278.31
480.60	278.63
480.96	278.95
481.33	279.61
481.69	280.24
482.06	280.86
482.42	281.50
482.79	282.22
483.15	283.09
483.52	284.01
483.88	284.99
484.25	285.99
484.61	287.09
484.98	288.11
485.34	289.37
485.71	290.70
486.07	292.16
486.44	293.40
486.80	294.95
487.17	296.52
487.53	298.29
487.90	300.09
488.26	302.11
488.62	304.20
488.99	306.18
489.35	308.32
489.72	310.60
490.08	312.91
490.44	315.41
490.81	318.04
491.17	320.73
491.54	323.65
491.90	326.58
492.26	329.75
492.63	333.20
492.99	336.72
493.36	340.39
493.72	344.19
494.08	348.17
494.45	352.47
494.81	356.93
495.17	361.55
495.54	366.55
495.90	371.55
496.26	376.86
496.63	382.33
496.99	388.19
497.35	394.24
497.72	400.52
498.08	407.01
498.44	413.61
498.80	420.78
499.17	428.15
499.53	435.79
499.89	443.71
500.26	451.85
500.62	460.14
500.98	468.98
501.34	478.07
501.71	487.64
502.07	497.27
502.43	507.20
502.79	517.34
503.16	527.91
503.52	538.94
503.88	550.04
504.24	561.61
504.60	573.37
504.97	585.60
505.33	598.04
505.69	611.32
506.05	624.87
506.41	638.53
506.78	652.28
507.14	666.60
507.50	681.25
507.86	696.16
508.22	711.58
508.59	727.04
508.95	743.03
509.31	759.25
509.67	775.96
510.03	793.05
510.39	810.58
510.75	828.18
511.12	846.05
511.48	864.40
511.84	883.07
512.20	901.77
512.56	921.08
512.92	940.80
513.28	960.26
513.64	980.00
514.00	999.80
514.37	1020.16
514.73	1040.85
515.09	1061.45
515.45	1082.30
515.81	1103.31
516.17	1124.40
516.53	1145.94
516.89	1167.35
517.25	1188.68
517.61	1210.51
517.97	1232.31
518.33	1253.96
518.69	1276.06
519.05	1298.23
519.41	1320.40
519.77	1342.86
520.13	1365.01
520.49	1387.04
520.85	1409.68
521.21	1432.03
521.57	1455.06
521.93	1477.16
522.29	1499.93
522.65	1522.61
523.01	1545.20
523.37	1567.45
523.73	1590.07
524.09	1612.05
524.45	1634.47
524.81	1657.16
525.17	1679.30
525.53	1701.48
525.89	1723.91
526.25	1745.55
526.61	1766.74
526.97	1788.45
527.33	1809.99
527.68	1831.39
528.04	1852.45
528.40	1872.81
528.76	1893.84
529.12	1914.27
529.48	1936.01
529.84	1956.33
530.20	1976.54
530.56	1996.85
530.91	2017.57
531.27	2038.00
531.63	2058.13
531.99	2077.97
532.35	2096.98
532.71	2116.23
533.07	2135.60
533.42	2153.91
533.78	2173.12
534.14	2191.55
534.50	2208.73
534.86	2226.88
535.21	2243.84
535.57	2261.78
535.93	2279.22
536.29	2295.83
536.65	2312.69
537.00	2327.97
537.36	2343.52
537.72	2358.86
538.08	2374.16
538.44	2389.37
538.79	2404.65
539.15	2419.40
539.51	2434.09
539.87	2449.52
540.22	2463.97
540.58	2478.89
540.94	2493.45
541.29	2506.26
541.65	2518.79
542.01	2532.06
542.37	2543.58
542.72	2555.83
543.08	2566.76
543.44	2578.57
543.79	2588.85
544.15	2599.14
544.51	2610.15
544.87	2621.08
545.22	2630.32
545.58	2638.68
545.94	2645.90
546.29	2652.60
546.65	2658.85
547.01	2664.95
547.36	2670.49
547.72	2675.70
548.07	2679.75
548.43	2683.51
548.79	2687.38
549.14	2691.92
549.50	2696.36
549.86	2700.54
550.21	2704.53
550.57	2708.49
550.92	2710.80
551.28	2713.87
551.64	2716.27
551.99	2718.79
552.35	2720.17
552.70	2723.00
553.06	2725.97
553.41	2729.08
553.77	2731.75
554.13	2734.18
554.48	2736.22
554.84	2737.49
555.19	2738.05
555.55	2738.84
555.90	2739.43
556.26	2739.80
556.61	2739.93
556.97	2738.59
557.32	2738.16
557.68	2736.26
558.03	2734.97
558.39	2733.46
558.74	2732.76
559.10	2731.59
559.45	2729.65
559.81	2728.72
560.16	2726.02
560.52	2723.65
560.87	2720.47
561.23	2716.55
561.58	2714.33
561.94	2711.15
562.29	2707.80
562.64	2705.46
563.00	2702.86
563.35	2700.63
563.71	2698.76
564.06	2696.55
564.42	2694.55
564.77	2691.95
565.12	2690.20
565.48	2686.90
565.83	2684.18
566.19	2680.40
566.54	2676.12
566.89	2671.90
567.25	2667.73
567.60	2664.58
567.96	2660.65
568.31	2657.50
568.66	2653.91
569.02	2649.24
569.37	2644.18
569.72	2639.97
570.08	2634.70
570.43	2628.83
570.78	2622.94
571.14	2616.66
571.49	2609.76
571.84	2604.04
572.20	2597.27
572.55	2590.78
572.90	2584.46
573.26	2577.45
573.61	2570.60
573.96	2564.02
574.31	2556.41
574.67	2548.70
575.02	2540.39
575.37	2532.17
575.72	2522.88
576.08	2515.40
576.43	2506.91
576.78	2499.21
577.13	2491.17
577.49	2483.20
577.84	2475.89
578.19	2468.42
578.54	2460.91
578.90	2454.13
579.25	2445.39
579.60	2436.11
579.95	2426.93
580.30	2418.15
580.66	2409.97
581.01	2401.13
581.36	2391.73
581.71	2383.45
582.06	2374.75
582.42	2366.18
582.77	2356.93
583.12	2348.10
583.47	2339.37
583.82	2330.84
584.17	2321.53
584.53	2312.61
584.88	2303.99
585.23	2294.46
585.58	2284.93
585.93	2275.25
586.28	2265.90
586.63	2257.08
586.98	2248.97
587.34	2240.48
587.69	2231.67
588.04	2222.41
588.39	2213.97
588.74	2205.05
589.09	2196.34
589.44	2186.98
589.79	2178.64
590.14	2170.56
590.49	2162.22
590.84	2152.99
591.19	2144.93
591.54	2136.26
591.89	2126.09
592.25	2116.65
592.60	2107.13
592.95	2097.94
593.30	2088.54
593.65	2078.66
594.00	2068.92
594.35	2060.46
594.70	2051.14
595.05	2042.29
595.40	2033.69
595.75	2024.10
596.10	2016.07
596.45	2007.54
596.80	1999.56
597.15	1991.42
597.50	1982.50
597.85	1974.20
598.19	1965.64
598.54	1956.74
598.89	1948.67
599.24	1941.95
599.59	1934.51
599.94	1927.65
600.29	1919.73
600.64	1911.96
600.99	1903.80
601.34	1896.44
601.69	1887.91
602.04	1879.98
602.39	1871.87
602.74	1863.95
603.08	1857.47
603.43	1850.03
603.78	1841.77
604.13	1833.79
604.48	1825.29
604.83	1818.42
605.18	1811.22
605.53	1803.70
605.87	1796.30
606.22	1789.16
606.57	1781.32
606.92	1773.25
607.27	1765.06
607.62	1757.96
607.96	1751.04
608.31	1744.86
608.66	1737.16
609.01	1729.63
609.36	1721.98
609.70	1713.95
610.05	1706.12
610.40	1697.96
610.75	1689.55
611.10	1682.25
611.44	1672.79
611.79	1664.10
612.14	1654.69
612.49	1645.27
612.83	1636.50
613.18	1626.79
613.53	1617.31
613.88	1607.48
614.22	1598.54
614.57	1589.37
614.92	1579.85
615.27	1570.58
615.61	1560.79
615.96	1551.68
616.31	1542.92
616.65	1535.00
617.00	1526.85
617.35	1518.41
617.70	1509.37
618.04	1500.40
618.39	1490.91
618.74	1482.82
619.08	1474.04
619.43	1465.72
619.78	1457.75
620.12	1449.45
620.47	1441.80
620.82	1433.35
621.16	1425.30
621.51	1417.02
621.85	1408.63
622.20	1400.04
622.55	1391.42
622.89	1383.22
623.24	1375.26
623.59	1366.82
623.93	1358.08
624.28	1349.81
624.62	1341.50
624.97	1333.43
625.32	1325.51
625.66	1318.33
626.01	1310.87
626.35	1303.57
626.70	1296.15
627.04	1288.85
627.39	1281.38
627.73	1273.82
628.08	1266.96
628.43	1259.52
628.77	1252.05
629.12	1244.63
629.46	1238.07
629.81	1231.08
630.15	1223.87
630.50	1216.67
630.84	1209.44
631.19	1202.21
631.53	1195.34
631.88	1187.80
632.22	1180.13
632.57	1173.18
632.91	1165.53
633.26	1158.19
633.60	1151.02
633.95	1144.01
634.29	1136.64
634.64	1129.98
634.98	1122.79
635.32	1115.73
635.67	1109.31
636.01	1102.70
636.36	1096.05
636.70	1089.39
637.05	1082.78
637.39	1076.18
637.73	1069.67
638.08	1063.80
638.42	1057.84
638.77	1051.24
639.11	1045.01
639.45	1039.16
639.80	1032.49
640.14	1026.30
640.49	1020.11
640.83	1013.96
641.17	1007.45
641.52	1001.35
641.86	994.83
642.20	988.44
642.55	981.60
642.89	975.14
643.23	968.67
643.58	962.69
643.92	956.09
644.26	949.90
644.61	943.86
644.95	937.74
645.29	931.11
645.64	924.47
645.98	918.38
646.32	912.47
646.66	906.20
647.01	900.57
647.35	894.65
647.69	888.33
648.04	882.28
648.38	876.41
648.72	870.28
649.06	863.96
649.41	858.07
649.75	852.44
650.09	846.54
650.43	840.77
650.78	834.70
651.12	828.83
651.46	823.09
651.80	817.24
652.14	811.34
652.49	805.63
652.83	800.08
653.17	794.01
653.51	788.06
653.85	782.39
654.20	776.41
654.54	770.38
654.88	764.84
655.22	759.05
655.56	753.08
655.90	747.22
656.25	741.75
656.59	736.28
656.93	731.18
657.27	726.03
657.61	720.65
657.95	715.33
658.29	710.08
658.64	704.80
658.98	699.69
659.32	694.33
659.66	689.19
660.00	683.74
660.34	678.65
660.68	673.51
661.02	668.45
661.36	663.83
661.70	658.98
662.05	654.39
662.39	649.91
662.73	645.57
663.07	641.22
663.41	636.73
663.75	632.29
664.09	627.40
664.43	622.68
664.77	618.24
665.11	613.84
665.45	609.50
665.79	605.15
666.13	600.56
666.47	596.36
666.81	592.18
667.15	588.21
667.49	584.41
667.83	580.55
668.17	576.80
668.51	572.86
668.85	569.37
669.19	565.78
669.53	561.87
669.87	557.90
670.21	554.10
670.55	550.21
670.89	546.70
671.23	543.43
671.57	539.92
671.91	536.38
672.25	532.81
672.58	529.29
672.92	525.79
673.26	522.65
673.60	519.58
673.94	516.24
674.28	512.95
674.62	509.70
674.96	506.54
675.30	503.35
675.64	500.04
675.97	496.80
676.31	493.69
676.65	490.91
676.99	488.20
677.33	485.20
677.67	482.44
678.01	479.30
678.34	476.26
678.68	473.24
679.02	470.22
679.36	467.43
679.70	464.62
680.04	461.76
680.37	458.87
680.71	455.85
681.05	453.35
681.39	450.65
681.73	447.95
682.06	445.38
682.40	442.72
682.74	440.21
683.08	437.60
683.42	434.96
683.75	432.28
684.09	429.65
684.43	427.27
684.77	424.56
685.10	422.09
685.44	419.62
685.78	417.30
686.12	415.04
686.45	412.68
686.79	410.31
687.13	408.14
687.46	405.96
687.80	403.84
688.14	401.38
688.48	399.18
688.81	396.90
689.15	394.71
689.49	392.55
689.82	390.40
690.16	388.10
690.50	385.74
690.83	383.45
691.17	381.26
691.51	379.01
691.84	376.98
692.18	374.94
692.52	373.02
692.85	371.09
693.19	369.17
693.52	367.23
693.86	365.38
694.20	363.57
694.53	361.59
694.87	359.64
695.21	357.83
695.54	355.87
695.88	353.90
696.21	352.00
696.55	350.28
696.88	348.45
697.22	346.75
697.56	345.26
697.89	343.65
698.23	342.00
698.56	340.38
698.90	338.94
699.23	337.23
699.57	335.61
699.90	333.92
700.24	332.20
700.58	330.57
700.91	329.04
701.25	327.49
701.58	326.05
701.92	324.64
702.25	323.21
702.59	321.86
702.92	320.73
703.26	319.40
703.59	318.10
703.93	316.97
704.26	315.67
704.60	314.34
704.93	313.08
705.26	311.89
705.60	310.78
705.93	309.49
706.27	308.35
706.60	307.22
706.94	306.26
707.27	305.19
707.61	304.11
707.94	302.97
708.27	301.65
708.61	300.51
708.94	299.42
709.28	298.26
709.61	297.22
709.94	296.04
710.28	294.89
710.61	293.78
710.95	292.54
711.28	291.63
711.61	290.62
711.95	289.68
712.28	288.60
712.61	287.56
712.95	286.58
713.28	285.70
713.61	284.62
713.95	283.65
714.28	282.74
714.61	281.75
714.95	280.83
715.28	280.07
715.61	279.10
715.95	278.16
716.28	277.35
716.61	276.46
716.95	275.64
717.28	274.93
717.61	274.05
717.94	273.31
718.28	272.48
718.61	271.73
718.94	270.93
719.27	270.31
719.61	269.59
719.94	268.92
720.27	268.16
720.60	267.48
720.94	266.66
721.27	266.05
721.60	265.50
721.93	264.86
722.27	264.22
722.60	263.74
722.93	263.19
723.26	262.61
723.59	262.07
723.93	261.48
724.26	260.89
724.59	260.34
724.92	259.82
725.25	259.26
725.59	258.70
725.92	258.18
726.25	257.65
726.58	257.06
726.91	256.50
727.24	256.04
727.57	255.55
727.91	255.02
728.24	254.49
728.57	253.92
728.90	253.50
729.23	253.03
729.56	252.62
729.89	252.10
730.22	251.55
730.55	251.06
730.89	250.65
731.22	250.12
731.55	249.63
731.88	249.16
732.21	248.65
732.54	248.15
732.87	247.61
733.20	247.08
733.53	246.70
733.86	246.30
734.19	245.72
734.52	245.35
734.85	245.19
735.18	244.79
735.51	244.55
735.84	244.18
736.17	243.75
736.50	243.25
736.83	243.11
737.16	242.91
737.49	242.51
737.82	242.00
738.15	241.65
738.48	241.28
738.81	240.92
739.14	240.60
739.47	240.33
739.80	240.05
740.13	239.73
740.46	239.38
740.79	238.95
741.12	238.72
741.45	238.39
741.78	237.92
742.11	237.66
742.44	237.24
742.77	236.95
743.10	236.64
743.43	236.36
743.75	235.78
744.08	235.51
744.41	235.25
744.74	235.11
745.07	234.91
745.40	234.78
745.73	234.53
746.06	234.29
746.39	234.05
746.71	233.81
747.04	233.56
747.37	233.25
747.70	233.02
748.03	232.80
748.36	232.56
748.68	232.34
749.01	231.97
749.34	231.69
749.67	231.36
750.00	231.18
750.33	231.02
750.65	230.84
750.98	230.43
751.31	230.25
751.64	229.95
751.97	229.77
752.29	229.45
752.62	229.13
752.95	228.91
753.28	228.58
753.60	228.38
753.93	228.17
754.26	228.05
754.59	227.76
754.91	227.46
755.24	227.24
755.57	226.98
755.90	226.78
756.22	226.66
756.55	226.46
756.88	226.23
757.20	225.91
757.53	225.66
757.86	225.52
758.19	225.30
758.51	225.10
758.84	224.89
759.17	224.71
759.49	224.63
759.82	224.53
760.15	224.43
760.47	224.23
760.80	223.97
761.13	223.80
761.45	223.74
761.78	223.63
762.11	223.48
762.43	223.33
762.76	223.25
763.08	223.06
763.41	222.93
763.74	222.74
764.06	222.65
764.39	222.52
764.71	222.36
765.04	222.15
765.37	222.03
765.69	221.82
766.02	221.72
766.34	221.54
766.67	221.31
767.00	221.15
767.32	221.04
767.65	221.10
767.97	220.96
768.30	220.85
768.62	220.70
768.95	220.51
769.27	220.35
769.60	220.28
769.92	220.15
770.25	220.05
770.57	220.01
770.90	219.87
771.22	219.79
771.55	219.74
771.87	219.69
772.20	219.61
772.52	219.68
772.85	219.75
773.17	219.68
773.50	219.59
773.82	219.44
774.15	219.36
774.47	219.11
774.80	218.97
775.12	218.90
775.45	218.89
775.77	218.88
776.09	218.84
776.42	218.66
776.74	218.65
777.07	218.54
777.39	218.45
777.72	218.34
778.04	218.28
778.36	218.13
778.69	218.06
779.01	217.94
779.33	217.73
779.66	217.50
779.98	217.39
780.31	217.36
780.63	217.41
780.95	217.33
781.28	217.32
781.60	217.31
781.92	217.21
782.25	217.15
782.57	217.00
782.89	216.89
783.22	216.88
783.54	216.82
783.86	216.80
784.19	216.71
784.51	216.71
784.83	216.64
785.16	216.63
785.48	216.63
785.80	216.62
786.12	216.53
786.45	216.48
786.77	216.50
787.09	216.39
787.42	216.33
787.74	216.39
788.06	216.26
788.38	216.15
788.71	216.07
789.03	215.96
789.35	215.97
789.67	215.88
789.99	215.86
790.32	215.75
790.64	215.76
790.96	215.83
791.28	215.77
791.61	215.71
791.93	215.60
792.25	215.46
792.57	215.55
792.89	215.54
793.21	215.44
793.54	215.32
793.86	215.32
794.18	215.22
794.50	215.01
794.82	215.01
795.14	215.05
795.47	215.04
795.79	215.03
796.11	214.88
796.43	214.93
796.75	214.86
797.07	214.84
797.39	214.75
797.71	214.56
798.04	214.53
798.36	214.48
798.68	214.47
799.00	214.51
799.32	214.35
799.64	214.28
799.96	214.25
800.28	214.22
800.60	214.15
800.92	214.14
801.24	214.16
801.56	214.13
801.89	214.00
802.21	214.03
802.53	213.94
802.85	214.03
803.17	214.07
803.49	213.97
803.81	213.93
804.13	213.86
804.45	213.91
804.77	213.93
805.09	213.94
805.41	213.87
805.73	213.79
806.05	213.69
806.37	213.66
806.69	213.65
807.01	213.69
807.33	213.67
807.65	213.63
807.97	213.61
808.28	213.55
808.60	213.56
808.92	213.44
809.24	213.54
809.56	213.50
809.88	213.45
810.20	213.46
810.52	213.46
810.84	213.40
811.16	213.29
811.48	213.16
811.80	213.11
812.12	213.18
812.43	213.19
812.75	213.24
813.07	213.21
813.39	213.21
813.71	213.07
814.03	213.05
814.35	213.00
814.67	212.96
814.98	212.95
815.30	212.90
815.62	212.91
815.94	212.83
816.26	212.76
816.58	212.68
816.89	212.71
817.21	212.62
817.53	212.66
817.85	212.66
818.17	212.72
818.48	212.64
818.80	212.58
819.12	212.53
819.44	212.47
819.76	212.45
820.07	212.46
820.39	212.47
820.71	212.49
821.03	212.50
821.34	212.48
821.66	212.51
821.98	212.55
822.30	212.51
822.61	212.63
822.93	212.70
823.25	212.70
823.57	212.63
823.88	212.71
824.20	212.71
824.52	212.75
824.83	212.69
825.15	212.75
825.47	212.76
825.79	212.82
826.10	212.82
826.42	212.90
826.74	212.91
827.05	212.94
827.37	212.94
827.69	212.92
828.00	212.97
828.32	212.96
828.64	212.90
828.95	212.97
829.27	212.86
829.58	212.83
829.90	212.83
830.22	212.83
830.53	212.80
830.85	212.76
831.17	212.68
831.48	212.63
831.80	212.64
832.11	212.66
832.43	212.57
832.75	212.48
833.06	212.54
833.38	212.43
833.69	212.43
834.01	212.43
834.32	212.41
834.64	212.35
834.96	212.32
835.27	212.32
835.59	212.29
835.90	212.26
836.22	212.23
836.53	212.25
836.85	212.23
837.16	212.38
837.48	212.37
837.79	212.45
838.11	212.52
838.42	212.55
838.74	212.46
839.05	212.49
839.37	212.50
839.68	212.32
840.00	212.35
840.31	212.42
840.63	212.35
840.94	212.37
841.26	212.32
841.57	212.32
841.88	212.35
842.20	212.28
842.51	212.19
842.83	212.13
843.14	212.26
843.46	212.27
843.77	212.14
844.08	212.13
844.40	212.01
844.71	211.97
845.03	211.87
845.34	211.90
845.65	211.90
845.97	211.92
846.28	211.93
846.60	211.89
846.91	211.72
847.22	211.69
847.54	211.66
847.85	211.70
848.16	211.65
848.48	211.55
848.79	211.51
849.10	211.55
849.42	211.63
849.73	211.47
850.04	211.44
850.36	211.36
850.67	211.38
850.98	211.45
851.30	211.45
851.61	211.41
851.92	211.42
852.23	211.43
852.55	211.39
852.86	211.40
853.17	211.43
853.49	211.51
853.80	211.57
854.11	211.59
854.42	211.52
854.74	211.50
855.05	211.55
855.36	211.59
855.67	211.61
855.99	211.57
856.30	211.66
856.61	211.70
856.92	211.74
857.23	211.72
857.55	211.72
857.86	211.72
858.17	211.75
858.48	211.69
858.79	211.64
859.11	211.70
859.42	211.71
859.73	211.70
860.04	211.68
860.35	211.66
860.66	211.66
860.98	211.69
861.29	211.70
861.60	211.67
861.91	211.71
862.22	211.67
862.53	211.66
862.84	211.51
863.16	211.52
863.47	211.47
863.78	211.49
864.09	211.49
864.40	211.53
864.71	211.57
865.02	211.65
865.33	211.58
865.64	211.54
865.95	211.53
866.27	211.68
866.58	211.71
866.89	211.73
867.20	211.67
867.51	211.68
867.82	211.68
868.13	211.79
868.44	211.73
868.75	211.80
869.06	211.85
869.37	211.89
869.68	211.80
869.99	211.87
870.30	211.86
870.61	211.88
870.92	211.82
871.23	211.80
871.54	211.80
871.85	211.86
872.16	211.90
872.47	211.91
872.78	211.78
873.09	211.75
873.40	211.76
873.71	211.86
874.02	211.88
874.33	211.83
874.64	211.78
874.95	211.80
875.26	211.70
875.56	211.67
875.87	211.69
876.18	211.66
876.49	211.82
876.80	211.83
877.11	211.78
877.42	211.79
877.73	211.75
878.04	211.70
878.35	211.78
878.66	211.76
878.96	211.70
879.27	211.68
879.58	211.66
879.89	211.57
880.20	211.55
880.51	211.50
880.82	211.54
881.12	211.50
881.43	211.46
881.74	211.48
882.05	211.48
882.36	211.44
882.67	211.50
882.97	211.29
883.28	211.28
883.59	211.28
883.90	211.29
884.21	211.30
884.51	211.29
884.82	211.20
885.13	211.24
885.44	211.27
885.74	211.28
886.05	211.35
886.36	211.37
886.67	211.26
886.98	211.35
887.28	211.34
887.59	211.42
887.90	211.45
888.20	211.40
888.51	211.41
888.82	211.36
889.13	211.35
889.43	211.49
889.74	211.43
890.05	211.41
890.35	211.46
890.66	211.51
890.97	211.51
891.28	211.48
891.58	211.46
891.89	211.42
892.20	211.38
892.50	211.33
892.81	211.27
893.12	211.30
893.42	211.27
893.73	211.32
894.04	211.22
894.34	211.20
894.65	211.29
894.95	211.23
895.26	211.26
895.57	211.36
895.87	211.21
896.18	211.27
896.48	211.25
896.79	211.17
897.10	211.12
897.40	211.06
897.71	211.11
898.01	211.14
898.32	211.17
898.63	211.15
898.93	211.13
899.24	211.24
899.54	211.24
899.85	211.23
900.15	211.20
900.46	211.22
900.76	211.27
901.07	211.22
901.38	211.31
901.68	211.32
901.99	211.26
902.29	211.30
902.60	211.27
902.90	211.24
903.21	211.25
903.51	211.30
903.82	211.41
904.12	211.41
904.43	211.39
904.73	211.40
905.03	211.48
905.34	211.64
905.64	211.57
905.95	211.53
906.25	211.52
906.56	211.49
906.86	211.51
907.17	211.53
907.47	211.49
907.77	211.45
908.08	211.46
908.38	211.43
908.69	211.43
908.99	211.50
909.30	211.55
909.60	211.59
909.90	211.57
910.21	211.48
910.51	211.47
910.81	211.43
911.12	211.47
911.42	211.47
911.73	211.32
912.03	211.36
912.33	211.38
912.64	211.34
912.94	211.32
913.24	211.29
913.55	211.19
913.85	211.23
914.15	211.23
914.46	211.22
914.76	211.19
915.06	211.22
915.37	211.17
915.67	211.16
915.97	211.10
916.27	211.03
916.58	211.07
916.88	211.05
917.18	211.09
917.49	211.10
917.79	211.01
918.09	211.01
918.39	211.01
918.70	211.10
919.00	211.10
919.30	211.17
919.60	211.24
919.91	211.28
920.21	211.29
920.51	211.23
920.81	211.24
921.12	211.24
921.42	211.23
921.72	211.15
922.02	211.15
922.32	211.22
922.63	211.26
922.93	211.33
923.23	211.28
923.53	211.18
923.83	211.09
924.13	211.15
924.44	211.18
924.74	211.25
925.04	211.20
925.34	211.20
925.64	211.19
925.94	211.17
926.24	211.23
926.55	211.22
926.85	211.27
927.15	211.21
927.45	211.18
927.75	211.10
928.05	211.11
928.35	211.07
928.65	211.05
928.95	211.08
929.26	211.00
929.56	211.08
929.86	211.23
930.16	211.25
930.46	211.19
930.76	211.19
931.06	211.10
931.36	211.05
931.66	211.12
931.96	211.09
932.26	211.10
932.56	211.06
932.86	211.04
933.16	211.01
933.46	211.10
933.76	211.16
934.06	211.24
934.36	211.39
934.66	211.40
934.96	211.35
935.26	211.36
935.56	211.36
935.86	211.33
936.16	211.29
936.46	211.31
936.76	211.35
937.06	211.28
937.36	211.31
937.66	211.36
937.96	211.30
938.26	211.22
938.56	211.15
938.86	211.14
939.16	211.23
939.46	211.24
939.76	211.22
940.06	211.21
940.35	211.20
940.65	211.08
940.95	211.12
941.25	211.06
941.55	211.03
941.85	211.06
942.15	211.09
942.45	211.16
942.75	211.12
943.04	211.08
943.34	211.16
943.64	211.12
943.94	211.09
944.24	211.06
944.54	211.13
944.84	211.18
945.13	211.13
945.43	211.10
945.73	211.11
946.03	211.10
946.33	211.05
946.62	211.06
946.92	211.00
947.22	210.98
947.52	211.12
947.82	211.11
948.11	211.09
948.41	211.02
948.71	210.95
949.01	210.91
949.31	210.93
949.60	210.89
949.90	210.94
950.20	210.89
950.50	210.95
950.79	210.95
951.09	210.92
951.39	210.92
951.69	210.90
951.98	210.93
952.28	210.96
952.58	210.96
952.87	210.89
953.17	210.92
953.47	210.88
953.76	210.86
954.06	210.77
954.36	210.72
954.66	210.72
954.95	210.70
955.25	210.79
955.55	210.77
955.84	210.74
956.14	210.80
956.44	210.85
956.73	210.89
957.03	210.87
957.32	210.88
957.62	210.89
957.92	210.84
958.21	210.78
958.51	210.93
958.81	210.95
959.10	211.01
959.40	211.01
959.69	211.02
959.99	210.99
960.29	211.03
960.58	211.08
960.88	211.15
961.17	211.15
961.47	211.10
961.76	211.10
962.06	211.11
962.36	211.07
962.65	211.05
962.95	210.90
963.24	210.95
963.54	210.92
963.83	210.89
964.13	210.92
964.42	210.87
964.72	210.75
965.01	210.70
965.31	210.69
965.60	210.66
965.90	210.79
966.19	210.77
966.49	210.79
966.78	210.74
967.08	210.75
967.37	210.71
967.67	210.69
967.96	210.70
968.26	210.70
968.55	210.72
968.85	210.73
969.14	210.83
969.43	210.79
969.73	210.79
970.02	210.84
970.32	210.87
970.61	210.90
970.91	210.81
971.20	210.87
971.49	210.79
971.79	210.86
972.08	210.75
972.38	210.69
972.67	210.67
972.96	210.70
973.26	210.59
973.55	210.66
973.85	210.71
974.14	210.72
974.43	210.74
974.73	210.68
975.02	210.69
975.31	210.68
975.61	210.70
975.90	210.67
976.19	210.65
976.49	210.61
976.78	210.64
977.07	210.70
977.37	210.71
977.66	210.76
977.95	210.70
978.24	210.69
978.54	210.80
978.83	210.84
979.12	210.86
979.42	210.94
979.71	210.94
980.00	210.90
980.29	210.94
980.59	210.93
980.88	210.99
981.17	210.95
981.46	210.96
981.76	210.91
982.05	211.01
982.34	211.00
982.63	211.07
982.93	211.05
983.22	211.10
983.51	211.09
983.80	211.09
984.09	211.11
984.39	211.11
984.68	211.07
984.97	211.07
985.26	211.04
985.55	211.07
985.85	211.03
986.14	211.07
986.43	211.10
986.72	211.11
987.01	211.03
987.30	211.04
987.59	211.02
987.89	211.12
988.18	211.05
988.47	211.08
988.76	210.99
989.05	210.96
989.34	210.82
989.63	210.86
989.92	210.84
990.22	210.84
990.51	210.85
990.80	210.84
991.09	210.83
991.38	210.85
991.67	210.79
991.96	210.75
992.25	210.74
992.54	210.70
992.83	210.67
993.12	210.71
993.41	210.77
993.70	210.81
993.99	210.78
994.28	210.84
994.58	210.85
994.87	210.83
995.16	210.89
995.45	210.90
995.74	210.78
996.03	210.87
996.32	210.88
996.61	210.88
996.90	210.91
997.19	210.91
997.48	210.95
997.77	211.01
998.06	211.04
998.34	211.08
998.63	211.09
998.92	211.00
999.21	210.96
999.50	210.94
999.79	210.94
1000.08	210.94
1000.37	210.87
1000.66	210.82
1000.95	210.92
1001.24	210.90
1001.53	211.00
1001.82	211.05
1002.11	211.01
1002.40	211.10
1002.68	211.20
1002.97	211.24
1003.26	211.20
1003.55	211.11
1003.84	211.05
1004.13	211.14
1004.42	211.10
1004.71	211.06
1004.99	211.07
1005.28	211.12
1005.57	211.16
1005.86	211.12
1006.15	211.14
1006.44	211.14
1006.72	211.14
1007.01	211.14
1007.30	211.18
1007.59	211.12
1007.88	211.11
1008.17	211.11
1008.45	211.04
1008.74	210.94
1009.03	210.94
1009.32	210.95
1009.60	211.01
1009.89	210.99
1010.18	210.90
1010.47	210.84
1010.76	210.79
1011.04	210.85
1011.33	210.84
1011.62	210.78
1011.91	210.75
1012.19	210.74
1012.48	210.77
1012.77	210.80
1013.05	210.79
1013.34	210.77
1013.63	210.77
1013.92	210.74
1014.20	210.76
1014.49	210.78
1014.78	210.81
1015.06	210.70
1015.35	210.70
1015.64	210.71
1015.92	210.75
1016.21	210.76
1016.50	210.78
1016.78	210.84
1017.07	210.87
1017.36	210.85
1017.64	210.86
1017.93	210.92
1018.22	210.91
1018.50	210.92
1018.79	210.93
1019.08	210.91
1019.36	210.88
1019.65	210.85
1019.93	210.97
1020.22	211.00
1020.51	211.05
1020.79	211.05
1021.08	210.65
1021.36	211.45
1021.65	211.05
1021.94	210.75
1022.22	210.45
1022.51	210.50
1022.79	212.10
1023.08	211.90
1023.36	212.65
1023.65	211.25
>>>>>End Processed Spectral Data<<<<<
