SpectraSuite Data File
++++++++++++++++++++++++++++++++++++
Date: Mon Feb 25 17:33:29 EST 2013
User: group
Dark Spectrum Present: No
Reference Spectrum Present: No
Number of Sampled Component Spectra: 1
Spectrometers: USB2E7196
Integration Time (usec): 52000 (USB2E7196)
Spectra Averaged: 20 (USB2E7196)
Boxcar Smoothing: 10 (USB2E7196)
Correct for Electrical Dark: No (USB2E7196)
Strobe/Lamp Enabled: No (USB2E7196)
Correct for Detector Non-linearity: No (USB2E7196)
Correct for Stray Light: No (USB2E7196)
Number of Pixels in Processed Spectrum: 2048
>>>>>Begin Processed Spectral Data<<<<<
339.09	0.00
339.48	197.95
339.86	200.45
340.24	201.70
340.63	201.20
341.01	205.95
341.39	206.00
341.78	205.50
342.16	208.20
342.54	208.10
342.93	197.65
343.31	207.66
343.69	208.24
344.07	208.65
344.46	209.07
344.84	209.58
345.22	209.78
345.60	210.07
345.99	210.34
346.37	210.49
346.75	210.67
347.13	210.77
347.52	210.84
347.90	210.90
348.28	210.91
348.66	210.99
349.05	211.00
349.43	211.03
349.81	211.08
350.19	211.14
350.57	211.20
350.96	211.32
351.34	211.44
351.72	211.52
352.10	211.67
352.48	211.75
352.87	211.78
353.25	211.90
353.63	211.91
354.01	212.01
354.39	212.11
354.77	212.17
355.15	212.23
355.54	212.26
355.92	212.31
356.30	212.49
356.68	212.69
357.06	212.77
357.44	212.89
357.82	213.05
358.20	213.21
358.58	213.28
358.97	213.37
359.35	213.46
359.73	213.64
360.11	213.72
360.49	213.76
360.87	213.87
361.25	213.99
361.63	214.11
362.01	214.23
362.39	214.25
362.77	214.33
363.15	214.44
363.53	214.53
363.91	214.57
364.29	214.57
364.67	214.45
365.05	214.55
365.43	214.62
365.81	214.57
366.19	214.69
366.57	214.74
366.95	214.75
367.33	214.71
367.71	214.67
368.09	214.67
368.47	214.73
368.85	214.73
369.23	214.69
369.61	214.62
369.99	214.58
370.37	214.63
370.75	214.69
371.13	214.65
371.51	214.56
371.89	214.51
372.27	214.48
372.65	214.43
373.03	214.35
373.41	214.24
373.78	214.15
374.16	213.94
374.54	213.89
374.92	213.77
375.30	213.75
375.68	213.62
376.06	213.60
376.44	213.53
376.82	213.45
377.19	213.43
377.57	213.39
377.95	213.20
378.33	213.10
378.71	212.99
379.09	212.91
379.47	212.92
379.84	212.89
380.22	212.78
380.60	212.75
380.98	212.68
381.36	212.64
381.73	212.67
382.11	212.67
382.49	212.70
382.87	212.66
383.25	212.61
383.62	212.80
384.00	212.75
384.38	212.74
384.76	212.72
385.13	212.76
385.51	212.69
385.89	212.65
386.27	212.55
386.64	212.46
387.02	212.47
387.40	212.46
387.78	212.42
388.15	212.43
388.53	212.35
388.91	212.25
389.29	212.18
389.66	212.13
390.04	212.13
390.42	212.04
390.79	212.01
391.17	211.91
391.55	211.63
391.92	211.60
392.30	211.58
392.68	211.49
393.05	211.39
393.43	211.41
393.81	211.48
394.18	211.45
394.56	211.46
394.94	211.54
395.31	211.47
395.69	211.50
396.06	211.49
396.44	211.50
396.82	211.62
397.19	211.77
397.57	211.81
397.95	211.77
398.32	211.72
398.70	211.78
399.07	211.89
399.45	211.95
399.82	211.98
400.20	211.97
400.58	211.98
400.95	211.98
401.33	212.05
401.70	212.18
402.08	212.28
402.45	212.36
402.83	212.40
403.20	212.49
403.58	212.60
403.95	212.72
404.33	212.86
404.71	212.91
405.08	213.00
405.46	213.12
405.83	213.27
406.21	213.45
406.58	213.61
406.96	213.75
407.33	213.91
407.70	214.13
408.08	214.40
408.45	214.69
408.83	214.99
409.20	215.25
409.58	215.41
409.95	215.73
410.33	216.03
410.70	216.28
411.08	216.66
411.45	216.98
411.82	217.39
412.20	217.74
412.57	218.27
412.95	218.66
413.32	219.15
413.69	219.70
414.07	220.29
414.44	220.92
414.82	221.56
415.19	222.33
415.56	223.00
415.94	223.79
416.31	224.72
416.68	225.59
417.06	226.57
417.43	227.49
417.81	228.61
418.18	229.69
418.55	230.94
418.93	232.18
419.30	233.51
419.67	234.86
420.04	236.41
420.42	237.88
420.79	239.70
421.16	241.39
421.54	243.16
421.91	245.05
422.28	246.89
422.66	248.98
423.03	251.09
423.40	253.20
423.77	255.46
424.15	257.66
424.52	259.98
424.89	262.60
425.26	265.14
425.64	267.45
426.01	270.09
426.38	272.78
426.75	275.55
427.13	278.40
427.50	281.32
427.87	284.45
428.24	287.48
428.61	290.38
428.99	293.58
429.36	297.21
429.73	300.69
430.10	304.24
430.47	307.80
430.85	311.48
431.22	315.36
431.59	319.46
431.96	323.35
432.33	327.79
432.70	331.97
433.08	336.89
433.45	341.49
433.82	346.06
434.19	351.06
434.56	355.98
434.93	360.66
435.30	365.41
435.68	370.59
436.05	375.86
436.42	381.05
436.79	385.76
437.16	390.70
437.53	395.92
437.90	401.15
438.27	406.33
438.64	411.61
439.01	416.55
439.38	420.85
439.75	425.16
440.13	429.82
440.50	434.29
440.87	437.91
441.24	441.84
441.61	445.98
441.98	449.14
442.35	452.74
442.72	456.54
443.09	460.06
443.46	462.02
443.83	463.40
444.20	464.51
444.57	466.32
444.94	467.05
445.31	467.90
445.68	468.65
446.05	468.75
446.42	468.05
446.79	467.30
447.16	466.43
447.53	465.79
447.90	463.71
448.27	461.55
448.64	458.69
449.01	456.51
449.37	452.95
449.74	449.39
450.11	445.35
450.48	440.80
450.85	436.22
451.22	432.33
451.59	428.47
451.96	424.92
452.33	420.14
452.70	415.85
453.07	410.71
453.43	405.45
453.80	400.48
454.17	395.70
454.54	391.17
454.91	386.43
455.28	381.70
455.65	377.35
456.02	373.08
456.38	369.33
456.75	364.72
457.12	360.95
457.49	357.12
457.86	353.29
458.23	350.03
458.59	346.59
458.96	343.17
459.33	340.12
459.70	336.90
460.07	334.38
460.43	331.55
460.80	328.81
461.17	326.48
461.54	324.03
461.91	321.67
462.27	319.31
462.64	317.24
463.01	315.07
463.38	312.97
463.74	310.76
464.11	308.98
464.48	307.32
464.85	305.48
465.21	304.18
465.58	302.85
465.95	301.13
466.32	299.71
466.68	298.22
467.05	296.83
467.42	295.42
467.78	294.00
468.15	292.65
468.52	291.66
468.88	290.37
469.25	289.24
469.62	288.38
469.98	287.41
470.35	286.49
470.72	285.57
471.08	284.58
471.45	283.78
471.82	282.98
472.18	282.12
472.55	281.54
472.92	280.79
473.28	280.09
473.65	279.45
474.02	278.91
474.38	278.49
474.75	278.16
475.11	277.80
475.48	277.56
475.85	277.31
476.21	277.09
476.58	276.90
476.94	276.96
477.31	276.89
477.67	276.78
478.04	276.86
478.41	277.00
478.77	277.32
479.14	277.51
479.50	277.79
479.87	278.09
480.23	278.45
480.60	278.78
480.96	279.20
481.33	279.92
481.69	280.49
482.06	281.11
482.42	281.74
482.79	282.45
483.15	283.30
483.52	284.37
483.88	285.39
484.25	286.45
484.61	287.40
484.98	288.50
485.34	289.85
485.71	291.16
486.07	292.60
486.44	293.94
486.80	295.44
487.17	296.96
487.53	298.72
487.90	300.55
488.26	302.55
488.62	304.58
488.99	306.62
489.35	308.74
489.72	311.15
490.08	313.51
490.44	316.02
490.81	318.70
491.17	321.22
491.54	324.04
491.90	327.10
492.26	330.36
492.63	333.66
492.99	337.13
493.36	340.79
493.72	344.71
494.08	348.72
494.45	352.93
494.81	357.58
495.17	362.21
495.54	367.02
495.90	372.11
496.26	377.47
496.63	382.99
496.99	388.75
497.35	394.56
497.72	400.82
498.08	407.34
498.44	413.93
498.80	421.18
499.17	428.60
499.53	436.17
499.89	444.06
500.26	452.14
500.62	460.46
500.98	469.20
501.34	478.23
501.71	487.76
502.07	497.58
502.43	507.39
502.79	517.59
503.16	528.38
503.52	539.37
503.88	550.59
504.24	562.13
504.60	574.09
504.97	586.49
505.33	599.06
505.69	612.29
506.05	626.09
506.41	639.60
506.78	653.40
507.14	667.53
507.50	682.08
507.86	697.10
508.22	712.55
508.59	728.11
508.95	744.22
509.31	760.26
509.67	776.88
510.03	793.91
510.39	811.69
510.75	829.49
511.12	847.39
511.48	865.62
511.84	884.30
512.20	902.92
512.56	922.12
512.92	941.55
513.28	961.04
513.64	980.55
514.00	1000.49
514.37	1020.97
514.73	1041.75
515.09	1062.52
515.45	1083.43
515.81	1104.73
516.17	1125.94
516.53	1147.09
516.89	1168.86
517.25	1190.33
517.61	1212.17
517.97	1233.61
518.33	1255.05
518.69	1277.00
519.05	1299.24
519.41	1321.35
519.77	1344.13
520.13	1366.03
520.49	1388.35
520.85	1411.08
521.21	1433.74
521.57	1456.76
521.93	1478.82
522.29	1501.85
522.65	1524.54
523.01	1547.15
523.37	1568.91
523.73	1591.38
524.09	1613.95
524.45	1636.07
524.81	1658.56
525.17	1680.85
525.53	1703.36
525.89	1725.71
526.25	1747.65
526.61	1769.01
526.97	1790.78
527.33	1811.75
527.68	1833.46
528.04	1854.69
528.40	1874.92
528.76	1895.52
529.12	1916.23
529.48	1938.09
529.84	1958.41
530.20	1978.79
530.56	1999.18
530.91	2020.25
531.27	2041.05
531.63	2060.95
531.99	2080.99
532.35	2100.26
532.71	2119.35
533.07	2138.63
533.42	2157.22
533.78	2176.43
534.14	2195.18
534.50	2212.27
534.86	2230.60
535.21	2247.37
535.57	2265.05
535.93	2282.63
536.29	2299.90
536.65	2316.74
537.00	2331.99
537.36	2347.34
537.72	2362.45
538.08	2377.59
538.44	2392.76
538.79	2407.50
539.15	2422.44
539.51	2437.12
539.87	2452.42
540.22	2467.04
540.58	2482.10
540.94	2496.56
541.29	2509.35
541.65	2521.29
542.01	2534.92
542.37	2546.46
542.72	2558.97
543.08	2569.98
543.44	2581.71
543.79	2591.79
544.15	2602.09
544.51	2613.05
544.87	2624.16
545.22	2633.60
545.58	2642.38
545.94	2649.60
546.29	2656.59
546.65	2662.84
547.01	2668.93
547.36	2674.57
547.72	2679.93
548.07	2683.90
548.43	2687.96
548.79	2691.80
549.14	2697.06
549.50	2701.42
549.86	2705.85
550.21	2710.04
550.57	2714.28
550.92	2717.09
551.28	2719.93
551.64	2722.54
551.99	2725.38
552.35	2726.77
552.70	2729.50
553.06	2732.30
553.41	2735.89
553.77	2738.65
554.13	2740.93
554.48	2743.05
554.84	2744.50
555.19	2745.27
555.55	2746.00
555.90	2746.73
556.26	2747.49
556.61	2747.24
556.97	2746.03
557.32	2745.53
557.68	2743.65
558.03	2742.37
558.39	2740.90
558.74	2740.61
559.10	2739.20
559.45	2736.93
559.81	2735.95
560.16	2733.38
560.52	2730.88
560.87	2727.72
561.23	2723.96
561.58	2721.67
561.94	2718.39
562.29	2714.93
562.64	2712.77
563.00	2710.38
563.35	2707.89
563.71	2706.03
564.06	2703.65
564.42	2702.04
564.77	2699.62
565.12	2697.99
565.48	2694.34
565.83	2691.01
566.19	2687.45
566.54	2683.06
566.89	2679.60
567.25	2675.85
567.60	2672.73
567.96	2669.13
568.31	2665.65
568.66	2662.00
569.02	2657.05
569.37	2652.05
569.72	2648.33
570.08	2642.95
570.43	2636.94
570.78	2631.18
571.14	2624.90
571.49	2617.91
571.84	2611.74
572.20	2604.96
572.55	2598.34
572.90	2591.61
573.26	2585.00
573.61	2577.65
573.96	2571.39
574.31	2563.10
574.67	2554.98
575.02	2546.51
575.37	2537.73
575.72	2528.75
576.08	2521.02
576.43	2512.54
576.78	2504.85
577.13	2496.46
577.49	2488.37
577.84	2480.87
578.19	2473.30
578.54	2465.91
578.90	2459.54
579.25	2450.70
579.60	2441.71
579.95	2432.39
580.30	2424.30
580.66	2416.02
581.01	2407.19
581.36	2397.88
581.71	2389.90
582.06	2381.21
582.42	2372.93
582.77	2364.16
583.12	2355.06
583.47	2346.47
583.82	2338.41
584.17	2329.18
584.53	2320.47
584.88	2311.60
585.23	2302.27
585.58	2292.71
585.93	2282.86
586.28	2273.29
586.63	2264.29
586.98	2255.72
587.34	2247.26
587.69	2238.28
588.04	2229.16
588.39	2221.07
588.74	2212.03
589.09	2203.05
589.44	2193.40
589.79	2184.86
590.14	2176.79
590.49	2168.39
590.84	2159.25
591.19	2151.15
591.54	2142.47
591.89	2132.10
592.25	2122.97
592.60	2113.28
592.95	2103.87
593.30	2094.19
593.65	2084.60
594.00	2075.24
594.35	2067.06
594.70	2058.10
595.05	2049.38
595.40	2040.77
595.75	2030.96
596.10	2022.54
596.45	2013.71
596.80	2006.17
597.15	1997.73
597.50	1988.47
597.85	1979.90
598.19	1971.17
598.54	1962.14
598.89	1954.19
599.24	1947.45
599.59	1939.93
599.94	1933.06
600.29	1925.17
600.64	1917.42
600.99	1908.65
601.34	1901.26
601.69	1892.25
602.04	1883.80
602.39	1875.60
602.74	1867.60
603.08	1860.54
603.43	1853.54
603.78	1845.80
604.13	1837.74
604.48	1829.65
604.83	1822.73
605.18	1815.60
605.53	1807.89
605.87	1800.26
606.22	1792.90
606.57	1784.73
606.92	1776.25
607.27	1768.10
607.62	1760.83
607.96	1753.93
608.31	1747.98
608.66	1740.06
609.01	1732.85
609.36	1725.18
609.70	1717.25
610.05	1709.41
610.40	1701.45
610.75	1692.94
611.10	1685.35
611.44	1676.16
611.79	1666.94
612.14	1657.82
612.49	1648.14
612.83	1639.44
613.18	1629.86
613.53	1620.52
613.88	1610.60
614.22	1601.91
614.57	1592.35
614.92	1583.05
615.27	1573.77
615.61	1563.57
615.96	1554.49
616.31	1545.72
616.65	1537.97
617.00	1529.62
617.35	1520.89
617.70	1511.93
618.04	1502.90
618.39	1493.27
618.74	1484.83
619.08	1476.15
619.43	1467.60
619.78	1459.75
620.12	1451.54
620.47	1443.70
620.82	1434.85
621.16	1426.83
621.51	1418.39
621.85	1410.43
622.20	1401.95
622.55	1393.44
622.89	1385.55
623.24	1377.70
623.59	1368.99
623.93	1360.22
624.28	1352.07
624.62	1343.84
624.97	1335.68
625.32	1327.96
625.66	1320.64
626.01	1313.21
626.35	1306.22
626.70	1298.60
627.04	1291.29
627.39	1283.72
627.73	1276.29
628.08	1269.67
628.43	1262.13
628.77	1254.89
629.12	1247.33
629.46	1240.58
629.81	1233.22
630.15	1225.80
630.50	1218.03
630.84	1210.81
631.19	1203.57
631.53	1196.44
631.88	1188.87
632.22	1181.35
632.57	1174.11
632.91	1166.72
633.26	1159.22
633.60	1152.07
633.95	1145.28
634.29	1137.85
634.64	1131.10
634.98	1123.90
635.32	1116.84
635.67	1110.46
636.01	1103.62
636.36	1096.76
636.70	1089.99
637.05	1083.71
637.39	1077.48
637.73	1071.52
638.08	1065.77
638.42	1060.02
638.77	1053.72
639.11	1047.49
639.45	1041.63
639.80	1035.10
640.14	1028.56
640.49	1022.50
640.83	1016.12
641.17	1009.67
641.52	1003.65
641.86	997.24
642.20	991.15
642.55	984.29
642.89	977.93
643.23	971.41
643.58	965.73
643.92	959.23
644.26	952.76
644.61	946.51
644.95	940.25
645.29	933.89
645.64	927.06
645.98	920.75
646.32	915.03
646.66	908.60
647.01	902.68
647.35	896.92
647.69	890.46
648.04	884.40
648.38	878.41
648.72	872.50
649.06	866.36
649.41	860.34
649.75	854.82
650.09	849.11
650.43	843.39
650.78	837.12
651.12	831.10
651.46	825.40
651.80	819.44
652.14	813.63
652.49	807.72
652.83	801.78
653.17	795.72
653.51	789.62
653.85	783.96
654.20	778.05
654.54	772.32
654.88	767.00
655.22	761.25
655.56	755.33
655.90	749.36
656.25	743.69
656.59	738.16
656.93	732.84
657.27	727.31
657.61	721.79
657.95	716.83
658.29	711.75
658.64	706.54
658.98	701.45
659.32	695.83
659.66	690.52
660.00	685.25
660.34	680.01
660.68	674.92
661.02	669.78
661.36	665.04
661.70	660.10
662.05	655.28
662.39	650.97
662.73	646.77
663.07	642.43
663.41	637.98
663.75	633.49
664.09	628.65
664.43	624.08
664.77	619.83
665.11	615.10
665.45	610.70
665.79	606.27
666.13	601.71
666.47	597.64
666.81	593.51
667.15	589.57
667.49	585.78
667.83	581.88
668.17	578.05
668.51	574.12
668.85	570.40
669.19	566.64
669.53	562.58
669.87	558.45
670.21	554.59
670.55	550.75
670.89	547.17
671.23	543.84
671.57	540.39
671.91	536.61
672.25	533.22
672.58	529.63
672.92	526.14
673.26	523.03
673.60	519.78
673.94	516.33
674.28	513.14
674.62	509.99
674.96	506.75
675.30	503.87
675.64	500.73
675.97	497.55
676.31	494.54
676.65	491.67
676.99	489.00
677.33	485.98
677.67	483.12
678.01	480.02
678.34	477.08
678.68	474.15
679.02	471.21
679.36	468.35
679.70	465.52
680.04	462.52
680.37	459.61
680.71	456.75
681.05	454.18
681.39	451.34
681.73	448.63
682.06	446.15
682.40	443.38
682.74	440.66
683.08	438.17
683.42	435.46
683.75	432.94
684.09	430.32
684.43	427.84
684.77	425.21
685.10	422.75
685.44	420.12
685.78	417.58
686.12	415.44
686.45	413.03
686.79	410.78
687.13	408.73
687.46	406.50
687.80	404.36
688.14	402.17
688.48	400.04
688.81	397.73
689.15	395.40
689.49	393.08
689.82	390.91
690.16	388.50
690.50	386.31
690.83	384.05
691.17	381.70
691.51	379.48
691.84	377.46
692.18	375.45
692.52	373.53
692.85	371.64
693.19	369.62
693.52	367.59
693.86	365.70
694.20	363.73
694.53	361.78
694.87	359.75
695.21	357.69
695.54	355.76
695.88	353.93
696.21	352.00
696.55	350.34
696.88	348.61
697.22	346.76
697.56	345.14
697.89	343.44
698.23	341.82
698.56	340.25
698.90	338.70
699.23	337.10
699.57	335.48
699.90	333.82
700.24	332.22
700.58	330.75
700.91	329.12
701.25	327.82
701.58	326.47
701.92	325.06
702.25	323.73
702.59	322.36
702.92	320.96
703.26	319.72
703.59	318.41
703.93	317.27
704.26	316.22
704.60	315.00
704.93	313.70
705.26	312.45
705.60	311.23
705.93	309.92
706.27	308.75
706.60	307.63
706.94	306.60
707.27	305.45
707.61	304.32
707.94	303.20
708.27	301.93
708.61	300.72
708.94	299.59
709.28	298.43
709.61	297.37
709.94	296.35
710.28	295.26
710.61	294.18
710.95	293.06
711.28	292.07
711.61	291.05
711.95	290.11
712.28	289.10
712.61	288.09
712.95	287.27
713.28	286.28
713.61	285.27
713.95	284.31
714.28	283.38
714.61	282.43
714.95	281.60
715.28	280.62
715.61	279.72
715.95	278.79
716.28	277.98
716.61	277.16
716.95	276.29
717.28	275.52
717.61	274.75
717.94	273.90
718.28	272.93
718.61	272.06
718.94	271.27
719.27	270.66
719.61	269.97
719.94	269.23
720.27	268.47
720.60	267.80
720.94	267.05
721.27	266.43
721.60	265.81
721.93	265.15
722.27	264.56
722.60	264.00
722.93	263.48
723.26	262.89
723.59	262.25
723.93	261.66
724.26	261.02
724.59	260.42
724.92	259.89
725.25	259.48
725.59	258.98
725.92	258.50
726.25	257.92
726.58	257.40
726.91	256.76
727.24	256.26
727.57	255.76
727.91	255.22
728.24	254.75
728.57	254.22
728.90	253.78
729.23	253.26
729.56	252.87
729.89	252.42
730.22	251.87
730.55	251.33
730.89	250.90
731.22	250.46
731.55	249.92
731.88	249.46
732.21	248.90
732.54	248.42
732.87	247.91
733.20	247.45
733.53	246.96
733.86	246.55
734.19	246.11
734.52	245.70
734.85	245.51
735.18	245.13
735.51	244.67
735.84	244.24
736.17	243.94
736.50	243.34
736.83	243.13
737.16	242.79
737.49	242.57
737.82	242.14
738.15	241.85
738.48	241.54
738.81	241.12
739.14	240.81
739.47	240.40
739.80	240.10
740.13	239.75
740.46	239.39
740.79	239.10
741.12	238.78
741.45	238.45
741.78	238.03
742.11	237.70
742.44	237.46
742.77	237.12
743.10	236.81
743.43	236.56
743.75	236.06
744.08	235.98
744.41	235.55
744.74	235.30
745.07	234.93
745.40	234.63
745.73	234.41
746.06	234.23
746.39	233.96
746.71	233.68
747.04	233.36
747.37	233.09
747.70	232.85
748.03	232.59
748.36	232.30
748.68	231.98
749.01	231.66
749.34	231.47
749.67	231.26
750.00	230.96
750.33	230.89
750.65	230.66
750.98	230.23
751.31	230.08
751.64	229.87
751.97	229.72
752.29	229.61
752.62	229.24
752.95	228.95
753.28	228.83
753.60	228.55
753.93	228.38
754.26	228.22
754.59	227.94
754.91	227.70
755.24	227.50
755.57	227.30
755.90	227.14
756.22	226.88
756.55	226.68
756.88	226.45
757.20	226.08
757.53	225.83
757.86	225.59
758.19	225.36
758.51	225.15
758.84	224.94
759.17	224.63
759.49	224.53
759.82	224.39
760.15	224.13
760.47	223.97
760.80	223.81
761.13	223.69
761.45	223.56
761.78	223.36
762.11	223.15
762.43	223.01
762.76	222.79
763.08	222.67
763.41	222.57
763.74	222.42
764.06	222.30
764.39	222.11
764.71	221.97
765.04	221.86
765.37	221.77
765.69	221.61
766.02	221.46
766.34	221.36
766.67	221.17
767.00	221.12
767.32	221.21
767.65	221.15
767.97	221.01
768.30	220.91
768.62	220.78
768.95	220.77
769.27	220.66
769.60	220.64
769.92	220.53
770.25	220.35
770.57	220.25
770.90	220.13
771.22	220.06
771.55	219.96
771.87	219.81
772.20	219.66
772.52	219.73
772.85	219.88
773.17	219.79
773.50	219.71
773.82	219.59
774.15	219.28
774.47	219.16
774.80	219.03
775.12	218.93
775.45	218.85
775.77	218.77
776.09	218.66
776.42	218.59
776.74	218.55
777.07	218.49
777.39	218.46
777.72	218.43
778.04	218.43
778.36	218.38
778.69	218.31
779.01	218.19
779.33	217.96
779.66	217.70
779.98	217.63
780.31	217.53
780.63	217.58
780.95	217.57
781.28	217.47
781.60	217.39
781.92	217.35
782.25	217.31
782.57	217.22
782.89	217.23
783.22	217.12
783.54	217.05
783.86	217.02
784.19	216.93
784.51	216.97
784.83	216.90
785.16	216.73
785.48	216.77
785.80	216.80
786.12	216.71
786.45	216.65
786.77	216.63
787.09	216.58
787.42	216.45
787.74	216.45
788.06	216.44
788.38	216.37
788.71	216.28
789.03	216.30
789.35	216.29
789.67	216.25
789.99	216.23
790.32	216.16
790.64	216.18
790.96	216.33
791.28	216.15
791.61	215.96
791.93	216.10
792.25	216.04
792.57	216.13
792.89	216.12
793.21	216.12
793.54	216.05
793.86	215.98
794.18	215.94
794.50	215.81
794.82	215.75
795.14	215.79
795.47	215.81
795.79	215.72
796.11	215.68
796.43	215.51
796.75	215.45
797.07	215.44
797.39	215.31
797.71	215.05
798.04	215.08
798.36	215.14
798.68	215.05
799.00	214.96
799.32	214.84
799.64	214.83
799.96	214.80
800.28	214.81
800.60	214.85
800.92	214.82
801.24	214.79
801.56	214.75
801.89	214.69
802.21	214.69
802.53	214.65
802.85	214.64
803.17	214.71
803.49	214.68
803.81	214.63
804.13	214.60
804.45	214.64
804.77	214.62
805.09	214.61
805.41	214.51
805.73	214.46
806.05	214.38
806.37	214.32
806.69	214.30
807.01	214.24
807.33	214.22
807.65	214.12
807.97	214.21
808.28	214.20
808.60	214.21
808.92	214.10
809.24	214.19
809.56	214.10
809.88	214.11
810.20	214.03
810.52	214.02
810.84	213.94
811.16	213.89
811.48	213.84
811.80	213.88
812.12	213.95
812.43	214.01
812.75	214.00
813.07	214.01
813.39	214.01
813.71	213.92
814.03	213.87
814.35	213.91
814.67	213.76
814.98	213.62
815.30	213.64
815.62	213.58
815.94	213.36
816.26	213.38
816.58	213.23
816.89	213.24
817.21	213.22
817.53	213.27
817.85	213.28
818.17	213.27
818.48	213.16
818.80	213.09
819.12	213.04
819.44	212.95
819.76	212.92
820.07	212.86
820.39	212.89
820.71	212.87
821.03	212.76
821.34	212.77
821.66	212.83
821.98	212.79
822.30	212.74
822.61	212.89
822.93	212.83
823.25	212.84
823.57	212.83
823.88	212.82
824.20	212.78
824.52	212.75
824.83	212.71
825.15	212.68
825.47	212.69
825.79	212.73
826.10	212.70
826.42	212.65
826.74	212.63
827.05	212.62
827.37	212.62
827.69	212.61
828.00	212.60
828.32	212.58
828.64	212.58
828.95	212.82
829.27	212.77
829.58	212.78
829.90	212.73
830.22	212.75
830.53	212.66
830.85	212.58
831.17	212.51
831.48	212.55
831.80	212.56
832.11	212.56
832.43	212.50
832.75	212.53
833.06	212.68
833.38	212.66
833.69	212.64
834.01	212.62
834.32	212.62
834.64	212.55
834.96	212.59
835.27	212.55
835.59	212.35
835.90	212.31
836.22	212.28
836.53	212.34
836.85	212.28
837.16	212.48
837.48	212.48
837.79	212.55
838.11	212.53
838.42	212.55
838.74	212.55
839.05	212.42
839.37	212.30
839.68	212.16
840.00	212.14
840.31	212.18
840.63	212.11
840.94	212.11
841.26	212.10
841.57	212.11
841.88	212.05
842.20	211.96
842.51	211.90
842.83	211.93
843.14	212.01
843.46	211.97
843.77	211.83
844.08	211.83
844.40	211.75
844.71	211.70
845.03	211.56
845.34	211.57
845.65	211.60
845.97	211.67
846.28	211.56
846.60	211.56
846.91	211.52
847.22	211.53
847.54	211.52
847.85	211.63
848.16	211.52
848.48	211.53
848.79	211.68
849.10	211.79
849.42	211.81
849.73	211.65
850.04	211.75
850.36	211.66
850.67	211.72
850.98	211.81
851.30	211.81
851.61	211.90
851.92	211.81
852.23	211.89
852.55	211.87
852.86	211.95
853.17	211.92
853.49	211.94
853.80	211.98
854.11	212.00
854.42	211.90
854.74	211.88
855.05	211.84
855.36	211.73
855.67	211.68
855.99	211.60
856.30	211.85
856.61	211.79
856.92	211.78
857.23	211.71
857.55	211.62
857.86	211.67
858.17	211.68
858.48	211.74
858.79	211.72
859.11	211.78
859.42	211.75
859.73	211.70
860.04	211.74
860.35	211.70
860.66	211.63
860.98	211.66
861.29	211.68
861.60	211.70
861.91	211.76
862.22	211.64
862.53	211.62
862.84	211.41
863.16	211.42
863.47	211.43
863.78	211.45
864.09	211.51
864.40	211.44
864.71	211.42
865.02	211.35
865.33	211.35
865.64	211.31
865.95	211.31
866.27	211.51
866.58	211.46
866.89	211.51
867.20	211.49
867.51	211.45
867.82	211.50
868.13	211.55
868.44	211.52
868.75	211.66
869.06	211.68
869.37	211.69
869.68	211.70
869.99	211.74
870.30	211.68
870.61	211.68
870.92	211.68
871.23	211.69
871.54	211.73
871.85	211.70
872.16	211.67
872.47	211.65
872.78	211.47
873.09	211.46
873.40	211.47
873.71	211.58
874.02	211.65
874.33	211.60
874.64	211.57
874.95	211.62
875.26	211.53
875.56	211.60
875.87	211.62
876.18	211.57
876.49	211.74
876.80	211.76
877.11	211.79
877.42	211.76
877.73	211.75
878.04	211.78
878.35	211.77
878.66	211.80
878.96	211.79
879.27	211.78
879.58	211.73
879.89	211.67
880.20	211.59
880.51	211.54
880.82	211.55
881.12	211.58
881.43	211.56
881.74	211.52
882.05	211.41
882.36	211.38
882.67	211.40
882.97	211.27
883.28	211.31
883.59	211.26
883.90	211.29
884.21	211.35
884.51	211.30
884.82	211.27
885.13	211.28
885.44	211.31
885.74	211.40
886.05	211.49
886.36	211.49
886.67	211.48
886.98	211.63
887.28	211.65
887.59	211.56
887.90	211.60
888.20	211.60
888.51	211.68
888.82	211.63
889.13	211.66
889.43	211.72
889.74	211.69
890.05	211.63
890.35	211.63
890.66	211.55
890.97	211.56
891.28	211.61
891.58	211.65
891.89	211.59
892.20	211.55
892.50	211.50
892.81	211.50
893.12	211.54
893.42	211.42
893.73	211.46
894.04	211.47
894.34	211.42
894.65	211.43
894.95	211.42
895.26	211.45
895.57	211.50
895.87	211.33
896.18	211.34
896.48	211.35
896.79	211.36
897.10	211.41
897.40	211.33
897.71	211.38
898.01	211.33
898.32	211.33
898.63	211.28
898.93	211.34
899.24	211.31
899.54	211.30
899.85	211.25
900.15	211.28
900.46	211.25
900.76	211.33
901.07	211.35
901.38	211.37
901.68	211.36
901.99	211.25
902.29	211.30
902.60	211.30
902.90	211.29
903.21	211.25
903.51	211.19
903.82	211.29
904.12	211.25
904.43	211.20
904.73	211.26
905.03	211.34
905.34	211.40
905.64	211.36
905.95	211.40
906.25	211.36
906.56	211.31
906.86	211.33
907.17	211.22
907.47	211.26
907.77	211.19
908.08	211.12
908.38	211.12
908.69	211.15
908.99	211.20
909.30	211.24
909.60	211.21
909.90	211.28
910.21	211.25
910.51	211.15
910.81	211.22
911.12	211.15
911.42	211.08
911.73	210.90
912.03	211.00
912.33	210.97
912.64	211.05
912.94	211.00
913.24	211.04
913.55	211.02
913.85	210.97
914.15	211.07
914.46	211.18
914.76	211.22
915.06	211.16
915.37	211.11
915.67	211.06
915.97	211.11
916.27	211.05
916.58	211.04
916.88	211.10
917.18	211.08
917.49	211.25
917.79	211.28
918.09	211.32
918.39	211.36
918.70	211.35
919.00	211.29
919.30	211.40
919.60	211.38
919.91	211.37
920.21	211.35
920.51	211.29
920.81	211.25
921.12	211.24
921.42	211.26
921.72	211.21
922.02	211.23
922.32	211.28
922.63	211.29
922.93	211.36
923.23	211.35
923.53	211.33
923.83	211.17
924.13	211.14
924.44	211.11
924.74	211.08
925.04	211.15
925.34	211.12
925.64	211.03
925.94	210.99
926.24	211.17
926.55	211.20
926.85	211.22
927.15	211.20
927.45	211.19
927.75	211.18
928.05	211.24
928.35	211.23
928.65	211.17
928.95	211.22
929.26	211.13
929.56	211.14
929.86	211.14
930.16	211.13
930.46	211.17
930.76	211.19
931.06	211.09
931.36	210.97
931.66	211.00
931.96	211.04
932.26	211.07
932.56	210.93
932.86	210.92
933.16	210.86
933.46	210.85
933.76	210.84
934.06	210.88
934.36	210.95
934.66	210.92
934.96	210.93
935.26	210.90
935.56	210.95
935.86	210.91
936.16	210.93
936.46	210.98
936.76	210.93
937.06	210.85
937.36	210.93
937.66	211.02
937.96	211.05
938.26	211.01
938.56	211.02
938.86	211.02
939.16	211.10
939.46	211.13
939.76	211.12
940.06	211.05
940.35	210.93
940.65	210.84
940.95	210.86
941.25	210.81
941.55	210.75
941.85	210.76
942.15	210.81
942.45	210.82
942.75	210.77
943.04	210.80
943.34	210.88
943.64	210.85
943.94	210.82
944.24	210.86
944.54	210.89
944.84	210.91
945.13	210.97
945.43	210.86
945.73	210.90
946.03	210.92
946.33	210.94
946.62	210.92
946.92	210.91
947.22	210.99
947.52	210.97
947.82	211.06
948.11	211.00
948.41	210.95
948.71	210.97
949.01	211.02
949.31	211.05
949.60	211.04
949.90	211.09
950.20	211.05
950.50	211.00
950.79	210.96
951.09	210.98
951.39	210.89
951.69	210.89
951.98	210.90
952.28	210.98
952.58	211.04
952.87	211.13
953.17	211.21
953.47	211.14
953.76	211.18
954.06	211.10
954.36	211.16
954.66	211.15
954.95	211.19
955.25	211.17
955.55	211.13
955.84	211.17
956.14	211.15
956.44	211.19
956.73	211.19
957.03	211.21
957.32	211.21
957.62	211.25
957.92	211.31
958.21	211.24
958.51	211.38
958.81	211.43
959.10	211.55
959.40	211.56
959.69	211.59
959.99	211.64
960.29	211.68
960.58	211.62
960.88	211.73
961.17	211.67
961.47	211.73
961.76	211.67
962.06	211.70
962.36	211.67
962.65	211.70
962.95	211.71
963.24	211.73
963.54	211.75
963.83	211.72
964.13	211.70
964.42	211.64
964.72	211.45
965.01	211.44
965.31	211.25
965.60	211.16
965.90	211.24
966.19	211.21
966.49	211.21
966.78	211.20
967.08	211.20
967.37	211.25
967.67	211.18
967.96	211.29
968.26	211.23
968.55	211.25
968.85	211.19
969.14	211.19
969.43	211.14
969.73	211.08
970.02	211.04
970.32	211.04
970.61	211.07
970.91	211.05
971.20	210.97
971.49	211.02
971.79	211.03
972.08	210.95
972.38	210.91
972.67	210.90
972.96	210.93
973.26	210.87
973.55	210.84
973.85	210.84
974.14	210.76
974.43	210.72
974.73	210.70
975.02	210.71
975.31	210.66
975.61	210.65
975.90	210.66
976.19	210.71
976.49	210.71
976.78	210.73
977.07	210.69
977.37	210.77
977.66	210.78
977.95	210.72
978.24	210.70
978.54	210.75
978.83	210.69
979.12	210.66
979.42	210.57
979.71	210.52
980.00	210.43
980.29	210.45
980.59	210.47
980.88	210.57
981.17	210.55
981.46	210.60
981.76	210.59
982.05	210.63
982.34	210.61
982.63	210.61
982.93	210.58
983.22	210.72
983.51	210.72
983.80	210.74
984.09	210.81
984.39	210.82
984.68	210.73
984.97	210.84
985.26	210.87
985.55	210.91
985.85	210.90
986.14	211.01
986.43	211.07
986.72	211.07
987.01	211.01
987.30	211.00
987.59	211.01
987.89	211.04
988.18	211.01
988.47	211.01
988.76	210.94
989.05	210.97
989.34	210.91
989.63	210.91
989.92	210.93
990.22	210.92
990.51	211.00
990.80	211.04
991.09	210.95
991.38	211.00
991.67	210.99
991.96	211.00
992.25	210.99
992.54	210.93
992.83	210.98
993.12	210.91
993.41	210.91
993.70	210.93
993.99	210.99
994.28	211.00
994.58	211.08
994.87	211.19
995.16	211.23
995.45	211.19
995.74	211.17
996.03	211.20
996.32	211.27
996.61	211.25
996.90	211.24
997.19	211.28
997.48	211.23
997.77	211.25
998.06	211.32
998.34	211.36
998.63	211.38
998.92	211.39
999.21	211.48
999.50	211.46
999.79	211.49
1000.08	211.48
1000.37	211.48
1000.66	211.46
1000.95	211.51
1001.24	211.52
1001.53	211.58
1001.82	211.59
1002.11	211.53
1002.40	211.52
1002.68	211.58
1002.97	211.76
1003.26	211.76
1003.55	211.80
1003.84	211.81
1004.13	211.80
1004.42	211.86
1004.71	211.86
1004.99	211.78
1005.28	211.86
1005.57	211.94
1005.86	211.85
1006.15	211.85
1006.44	211.85
1006.72	211.89
1007.01	211.79
1007.30	211.75
1007.59	211.73
1007.88	211.71
1008.17	211.69
1008.45	211.66
1008.74	211.59
1009.03	211.57
1009.32	211.61
1009.60	211.55
1009.89	211.56
1010.18	211.47
1010.47	211.40
1010.76	211.41
1011.04	211.43
1011.33	211.38
1011.62	211.38
1011.91	211.36
1012.19	211.32
1012.48	211.30
1012.77	211.25
1013.05	211.30
1013.34	211.32
1013.63	211.29
1013.92	211.28
1014.20	211.30
1014.49	211.27
1014.78	211.22
1015.06	211.02
1015.35	211.02
1015.64	210.99
1015.92	211.04
1016.21	211.10
1016.50	211.02
1016.78	211.01
1017.07	211.05
1017.36	211.01
1017.64	210.94
1017.93	210.96
1018.22	210.93
1018.50	210.90
1018.79	210.91
1019.08	210.84
1019.36	210.82
1019.65	210.80
1019.93	210.81
1020.22	210.83
1020.51	210.87
1020.79	210.84
1021.08	210.35
1021.36	210.25
1021.65	212.10
1021.94	210.15
1022.22	211.00
1022.51	210.45
1022.79	210.95
1023.08	211.45
1023.36	212.10
1023.65	209.85
>>>>>End Processed Spectral Data<<<<<
