SpectraSuite Data File
++++++++++++++++++++++++++++++++++++
Date: Mon Feb 25 17:34:31 EST 2013
User: group
Dark Spectrum Present: No
Reference Spectrum Present: No
Number of Sampled Component Spectra: 1
Spectrometers: USB2E7196
Integration Time (usec): 52000 (USB2E7196)
Spectra Averaged: 20 (USB2E7196)
Boxcar Smoothing: 10 (USB2E7196)
Correct for Electrical Dark: No (USB2E7196)
Strobe/Lamp Enabled: No (USB2E7196)
Correct for Detector Non-linearity: No (USB2E7196)
Correct for Stray Light: No (USB2E7196)
Number of Pixels in Processed Spectrum: 2048
>>>>>Begin Processed Spectral Data<<<<<
339.09	0.00
339.48	198.35
339.86	199.90
340.24	202.20
340.63	203.75
341.01	207.10
341.39	204.65
341.78	206.45
342.16	208.45
342.54	208.80
342.93	198.04
343.31	208.05
343.69	208.56
344.07	209.02
344.46	209.41
344.84	209.79
345.22	209.95
345.60	210.28
345.99	210.52
346.37	210.64
346.75	210.79
347.13	210.84
347.52	210.99
347.90	211.14
348.28	211.15
348.66	211.18
349.05	211.12
349.43	211.14
349.81	211.20
350.19	211.26
350.57	211.36
350.96	211.39
351.34	211.55
351.72	211.68
352.10	211.78
352.48	211.87
352.87	211.94
353.25	212.00
353.63	212.06
354.01	212.18
354.39	212.22
354.77	212.29
355.15	212.38
355.54	212.35
355.92	212.43
356.30	212.56
356.68	212.78
357.06	212.87
357.44	212.90
357.82	212.98
358.20	213.08
358.58	213.12
358.97	213.20
359.35	213.23
359.73	213.35
360.11	213.46
360.49	213.49
360.87	213.51
361.25	213.61
361.63	213.68
362.01	213.68
362.39	213.75
362.77	213.82
363.15	213.89
363.53	214.04
363.91	213.97
364.29	214.01
364.67	213.83
365.05	213.90
365.43	213.94
365.81	213.95
366.19	214.03
366.57	214.17
366.95	214.20
367.33	214.19
367.71	214.16
368.09	214.18
368.47	214.18
368.85	214.16
369.23	214.18
369.61	214.09
369.99	214.16
370.37	214.22
370.75	214.23
371.13	214.18
371.51	214.05
371.89	214.08
372.27	214.09
372.65	214.10
373.03	214.05
373.41	214.03
373.78	213.95
374.16	213.83
374.54	213.69
374.92	213.63
375.30	213.52
375.68	213.44
376.06	213.36
376.44	213.36
376.82	213.33
377.19	213.23
377.57	213.20
377.95	213.07
378.33	212.98
378.71	212.86
379.09	212.80
379.47	212.79
379.84	212.67
380.22	212.48
380.60	212.38
380.98	212.27
381.36	212.19
381.73	212.11
382.11	212.07
382.49	212.00
382.87	211.93
383.25	211.99
383.62	212.16
384.00	212.06
384.38	212.00
384.76	212.00
385.13	212.11
385.51	212.09
385.89	211.95
386.27	211.91
386.64	211.90
387.02	211.82
387.40	211.78
387.78	211.80
388.15	211.88
388.53	211.88
388.91	211.89
389.29	211.88
389.66	211.93
390.04	211.95
390.42	211.98
390.79	211.95
391.17	211.90
391.55	211.68
391.92	211.66
392.30	211.59
392.68	211.57
393.05	211.53
393.43	211.54
393.81	211.67
394.18	211.67
394.56	211.66
394.94	211.79
395.31	211.80
395.69	211.92
396.06	211.93
396.44	211.96
396.82	211.99
397.19	212.13
397.57	212.16
397.95	212.17
398.32	212.19
398.70	212.23
399.07	212.27
399.45	212.34
399.82	212.44
400.20	212.55
400.58	212.53
400.95	212.50
401.33	212.54
401.70	212.67
402.08	212.69
402.45	212.73
402.83	212.77
403.20	212.91
403.58	212.96
403.95	213.05
404.33	213.20
404.71	213.27
405.08	213.45
405.46	213.55
405.83	213.68
406.21	213.77
406.58	213.93
406.96	214.15
407.33	214.35
407.70	214.58
408.08	214.97
408.45	215.20
408.83	215.38
409.20	215.61
409.58	215.79
409.95	216.12
410.33	216.44
410.70	216.66
411.08	216.99
411.45	217.30
411.82	217.68
412.20	218.00
412.57	218.59
412.95	218.94
413.32	219.41
413.69	219.91
414.07	220.51
414.44	221.10
414.82	221.71
415.19	222.45
415.56	223.10
415.94	223.74
416.31	224.61
416.68	225.57
417.06	226.62
417.43	227.61
417.81	228.64
418.18	229.74
418.55	230.96
418.93	232.18
419.30	233.43
419.67	234.80
420.04	236.25
420.42	237.69
420.79	239.41
421.16	241.08
421.54	242.93
421.91	244.77
422.28	246.79
422.66	248.75
423.03	250.72
423.40	252.85
423.77	255.05
424.15	257.32
424.52	259.69
424.89	262.20
425.26	264.64
425.64	267.05
426.01	269.71
426.38	272.53
426.75	275.32
427.13	278.22
427.50	281.15
427.87	284.34
428.24	287.40
428.61	290.34
428.99	293.74
429.36	297.21
429.73	300.69
430.10	304.15
430.47	307.78
430.85	311.53
431.22	315.45
431.59	319.66
431.96	323.59
432.33	328.10
432.70	332.27
433.08	337.19
433.45	341.84
433.82	346.42
434.19	351.40
434.56	356.32
434.93	361.18
435.30	366.01
435.68	371.27
436.05	376.49
436.42	381.61
436.79	386.30
437.16	391.40
437.53	396.87
437.90	402.13
438.27	407.28
438.64	412.69
439.01	417.65
439.38	421.93
439.75	426.26
440.13	430.94
440.50	435.56
440.87	439.29
441.24	443.16
441.61	447.46
441.98	450.58
442.35	454.33
442.72	458.00
443.09	461.46
443.46	463.52
443.83	464.96
444.20	466.23
444.57	468.01
444.94	468.84
445.31	469.65
445.68	470.41
446.05	470.64
446.42	469.85
446.79	469.10
447.16	468.40
447.53	467.83
447.90	465.71
448.27	463.60
448.64	460.59
449.01	458.49
449.37	454.80
449.74	451.35
450.11	447.10
450.48	442.44
450.85	437.84
451.22	433.84
451.59	430.07
451.96	426.40
452.33	421.54
452.70	417.09
453.07	411.85
453.43	406.56
453.80	401.51
454.17	396.77
454.54	392.25
454.91	387.31
455.28	382.55
455.65	378.13
456.02	373.72
456.38	370.03
456.75	365.25
457.12	361.33
457.49	357.50
457.86	353.78
458.23	350.58
458.59	347.16
458.96	343.62
459.33	340.50
459.70	337.43
460.07	334.94
460.43	332.08
460.80	329.37
461.17	326.99
461.54	324.55
461.91	322.20
462.27	319.76
462.64	317.75
463.01	315.45
463.38	313.26
463.74	311.09
464.11	309.35
464.48	307.77
464.85	305.97
465.21	304.62
465.58	303.19
465.95	301.50
466.32	299.99
466.68	298.55
467.05	297.01
467.42	295.50
467.78	294.10
468.15	292.81
468.52	291.79
468.88	290.51
469.25	289.41
469.62	288.43
469.98	287.44
470.35	286.51
470.72	285.70
471.08	284.85
471.45	284.10
471.82	283.30
472.18	282.38
472.55	281.81
472.92	281.12
473.28	280.60
473.65	279.99
474.02	279.55
474.38	279.12
474.75	278.82
475.11	278.50
475.48	278.19
475.85	277.93
476.21	277.71
476.58	277.57
476.94	277.43
477.31	277.39
477.67	277.33
478.04	277.45
478.41	277.45
478.77	277.78
479.14	277.87
479.50	278.00
479.87	278.51
480.23	278.90
480.60	279.22
480.96	279.55
481.33	280.29
481.69	280.88
482.06	281.46
482.42	282.11
482.79	282.81
483.15	283.75
483.52	284.78
483.88	285.76
484.25	286.77
484.61	287.90
484.98	289.07
485.34	290.37
485.71	291.62
486.07	293.09
486.44	294.39
486.80	295.91
487.17	297.55
487.53	299.20
487.90	300.89
488.26	302.72
488.62	304.72
488.99	306.66
489.35	308.81
489.72	311.26
490.08	313.71
490.44	316.14
490.81	318.73
491.17	321.44
491.54	324.28
491.90	327.35
492.26	330.51
492.63	333.76
492.99	337.26
493.36	340.85
493.72	344.71
494.08	348.71
494.45	353.10
494.81	357.60
495.17	362.19
495.54	367.11
495.90	372.23
496.26	377.49
496.63	382.96
496.99	388.65
497.35	394.55
497.72	400.80
498.08	407.47
498.44	414.15
498.80	421.16
499.17	428.59
499.53	436.09
499.89	444.03
500.26	452.12
500.62	460.45
500.98	469.36
501.34	478.41
501.71	487.84
502.07	497.51
502.43	507.42
502.79	517.86
503.16	528.62
503.52	539.46
503.88	550.67
504.24	562.35
504.60	574.19
504.97	586.58
505.33	599.03
505.69	612.08
506.05	625.54
506.41	639.13
506.78	652.76
507.14	667.07
507.50	681.68
507.86	696.60
508.22	711.99
508.59	727.69
508.95	743.97
509.31	760.21
509.67	776.91
510.03	793.88
510.39	811.45
510.75	829.25
511.12	847.68
511.48	866.14
511.84	884.66
512.20	903.53
512.56	922.85
512.92	942.45
513.28	962.05
513.64	981.91
514.00	1002.01
514.37	1022.57
514.73	1043.33
515.09	1064.05
515.45	1085.10
515.81	1106.48
516.17	1127.66
516.53	1148.86
516.89	1170.58
517.25	1192.09
517.61	1213.84
517.97	1235.47
518.33	1257.15
518.69	1278.92
519.05	1300.97
519.41	1323.24
519.77	1345.99
520.13	1368.04
520.49	1390.27
520.85	1413.08
521.21	1435.84
521.57	1458.80
521.93	1480.92
522.29	1504.11
522.65	1526.87
523.01	1549.42
523.37	1571.64
523.73	1594.04
524.09	1616.25
524.45	1638.57
524.81	1661.10
525.17	1683.65
525.53	1706.06
525.89	1728.48
526.25	1750.78
526.61	1772.30
526.97	1794.13
527.33	1815.41
527.68	1837.10
528.04	1858.31
528.40	1878.63
528.76	1899.45
529.12	1920.46
529.48	1942.41
529.84	1962.57
530.20	1983.08
530.56	2003.76
530.91	2024.43
531.27	2045.09
531.63	2065.75
531.99	2085.85
532.35	2105.18
532.71	2124.54
533.07	2144.35
533.42	2163.15
533.78	2182.04
534.14	2200.79
534.50	2218.20
534.86	2236.48
535.21	2253.48
535.57	2271.81
535.93	2289.61
536.29	2306.40
536.65	2323.17
537.00	2338.85
537.36	2354.63
537.72	2369.96
538.08	2385.69
538.44	2401.37
538.79	2416.86
539.15	2431.77
539.51	2446.44
539.87	2462.00
540.22	2476.55
540.58	2491.35
540.94	2505.75
541.29	2518.92
541.65	2531.39
542.01	2545.13
542.37	2557.13
542.72	2570.00
543.08	2580.60
543.44	2592.41
543.79	2603.01
544.15	2613.25
544.51	2624.04
544.87	2635.05
545.22	2644.77
545.58	2652.99
545.94	2660.04
546.29	2666.73
546.65	2672.75
547.01	2679.21
547.36	2684.96
547.72	2690.72
548.07	2694.82
548.43	2699.01
548.79	2702.82
549.14	2707.90
549.50	2712.05
549.86	2716.38
550.21	2720.30
550.57	2724.75
550.92	2727.74
551.28	2730.62
551.64	2733.25
551.99	2736.08
552.35	2738.05
552.70	2740.67
553.06	2743.58
553.41	2746.73
553.77	2749.80
554.13	2752.43
554.48	2754.24
554.84	2755.92
555.19	2756.40
555.55	2756.81
555.90	2757.53
556.26	2758.23
556.61	2758.15
556.97	2757.14
557.32	2756.26
557.68	2754.63
558.03	2753.10
558.39	2751.63
558.74	2751.65
559.10	2750.48
559.45	2748.94
559.81	2747.40
560.16	2744.97
560.52	2742.71
560.87	2740.05
561.23	2736.32
561.58	2734.22
561.94	2731.20
562.29	2727.33
562.64	2725.45
563.00	2723.20
563.35	2720.69
563.71	2718.92
564.06	2716.78
564.42	2715.17
564.77	2712.94
565.12	2711.10
565.48	2708.07
565.83	2705.07
566.19	2701.67
566.54	2697.50
566.89	2693.68
567.25	2690.10
567.60	2687.10
567.96	2683.54
568.31	2679.95
568.66	2676.01
569.02	2671.20
569.37	2666.45
569.72	2662.59
570.08	2657.26
570.43	2651.51
570.78	2646.17
571.14	2639.72
571.49	2632.88
571.84	2626.62
572.20	2620.03
572.55	2613.44
572.90	2606.91
573.26	2599.86
573.61	2592.48
573.96	2586.08
574.31	2578.07
574.67	2569.80
575.02	2561.14
575.37	2552.55
575.72	2543.33
576.08	2535.78
576.43	2527.22
576.78	2519.38
577.13	2511.27
577.49	2503.02
577.84	2495.68
578.19	2487.64
578.54	2480.57
578.90	2473.72
579.25	2464.98
579.60	2455.62
579.95	2446.00
580.30	2437.63
580.66	2429.69
581.01	2420.58
581.36	2411.01
581.71	2402.33
582.06	2393.63
582.42	2385.45
582.77	2376.07
583.12	2367.43
583.47	2358.95
583.82	2350.28
584.17	2340.79
584.53	2331.69
584.88	2323.02
585.23	2313.30
585.58	2303.63
585.93	2293.15
586.28	2283.40
586.63	2274.18
586.98	2266.25
587.34	2258.02
587.69	2248.67
588.04	2239.13
588.39	2230.72
588.74	2222.19
589.09	2213.36
589.44	2203.81
589.79	2194.63
590.14	2186.63
590.49	2178.24
590.84	2168.43
591.19	2160.41
591.54	2151.87
591.89	2141.63
592.25	2132.22
592.60	2122.68
592.95	2113.43
593.30	2104.38
593.65	2094.74
594.00	2085.12
594.35	2076.33
594.70	2067.05
595.05	2058.57
595.40	2049.65
595.75	2039.83
596.10	2031.26
596.45	2022.57
596.80	2014.77
597.15	2006.61
597.50	1997.55
597.85	1988.89
598.19	1980.38
598.54	1971.52
598.89	1963.44
599.24	1956.65
599.59	1948.94
599.94	1942.03
600.29	1934.29
600.64	1925.98
600.99	1917.72
601.34	1910.63
601.69	1901.77
602.04	1893.34
602.39	1885.02
602.74	1877.14
603.08	1870.69
603.43	1863.32
603.78	1855.30
604.13	1847.16
604.48	1839.14
604.83	1831.90
605.18	1824.86
605.53	1817.28
605.87	1809.51
606.22	1802.25
606.57	1794.26
606.92	1786.12
607.27	1777.86
607.62	1770.36
607.96	1763.70
608.31	1757.19
608.66	1749.27
609.01	1741.77
609.36	1734.11
609.70	1726.21
610.05	1718.26
610.40	1709.79
610.75	1701.33
611.10	1693.76
611.44	1684.78
611.79	1675.49
612.14	1666.30
612.49	1656.36
612.83	1647.70
613.18	1637.83
613.53	1628.33
613.88	1618.65
614.22	1609.84
614.57	1600.58
614.92	1591.01
615.27	1581.38
615.61	1571.64
615.96	1562.52
616.31	1553.96
616.65	1546.14
617.00	1537.53
617.35	1529.05
617.70	1520.04
618.04	1511.07
618.39	1501.45
618.74	1492.79
619.08	1484.11
619.43	1475.95
619.78	1468.05
620.12	1459.84
620.47	1452.24
620.82	1443.67
621.16	1435.37
621.51	1426.75
621.85	1418.36
622.20	1410.18
622.55	1401.55
622.89	1393.22
623.24	1385.22
623.59	1376.38
623.93	1367.54
624.28	1359.53
624.62	1351.33
624.97	1343.14
625.32	1334.67
625.66	1327.29
626.01	1320.15
626.35	1313.05
626.70	1305.24
627.04	1297.85
627.39	1290.11
627.73	1282.41
628.08	1275.50
628.43	1268.11
628.77	1260.61
629.12	1252.93
629.46	1246.21
629.81	1239.02
630.15	1231.80
630.50	1224.36
630.84	1217.01
631.19	1209.72
631.53	1202.55
631.88	1194.66
632.22	1187.09
632.57	1180.44
632.91	1173.06
633.26	1165.26
633.60	1157.73
633.95	1150.76
634.29	1143.10
634.64	1136.37
634.98	1129.39
635.32	1122.06
635.67	1115.56
636.01	1108.82
636.36	1102.19
636.70	1095.18
637.05	1088.65
637.39	1082.15
637.73	1075.67
638.08	1069.91
638.42	1064.08
638.77	1057.39
639.11	1051.15
639.45	1044.98
639.80	1038.18
640.14	1031.54
640.49	1025.40
640.83	1019.36
641.17	1012.89
641.52	1007.01
641.86	1000.22
642.20	993.92
642.55	987.07
642.89	980.41
643.23	973.95
643.58	968.13
643.92	961.63
644.26	955.24
644.61	949.00
644.95	943.02
645.29	936.50
645.64	929.84
645.98	923.57
646.32	917.77
646.66	911.62
647.01	905.89
647.35	900.04
647.69	893.77
648.04	887.73
648.38	881.82
648.72	875.76
649.06	869.77
649.41	863.73
649.75	858.07
650.09	852.10
650.43	846.06
650.78	839.46
651.12	833.44
651.46	827.72
651.80	821.84
652.14	815.70
652.49	809.80
652.83	803.75
653.17	797.82
653.51	791.79
653.85	785.94
654.20	779.75
654.54	773.83
654.88	768.22
655.22	762.30
655.56	756.36
655.90	750.36
656.25	744.45
656.59	739.10
656.93	733.86
657.27	728.70
657.61	723.38
657.95	718.45
658.29	713.21
658.64	708.09
658.98	702.81
659.32	697.41
659.66	692.20
660.00	687.12
660.34	681.82
660.68	676.60
661.02	671.56
661.36	666.93
661.70	662.18
662.05	657.55
662.39	653.13
662.73	648.76
663.07	644.48
663.41	640.27
663.75	635.43
664.09	630.67
664.43	626.00
664.77	621.56
665.11	617.03
665.45	612.61
665.79	608.19
666.13	603.74
666.47	599.56
666.81	595.43
667.15	591.22
667.49	587.34
667.83	583.45
668.17	579.56
668.51	575.69
668.85	572.05
669.19	568.30
669.53	564.21
669.87	560.03
670.21	556.17
670.55	552.33
670.89	548.84
671.23	545.40
671.57	541.80
671.91	538.30
672.25	534.65
672.58	531.10
672.92	527.52
673.26	524.41
673.60	521.09
673.94	517.73
674.28	514.28
674.62	511.23
674.96	508.01
675.30	504.84
675.64	501.53
675.97	498.25
676.31	495.04
676.65	492.12
676.99	489.45
677.33	486.52
677.67	483.52
678.01	480.37
678.34	477.33
678.68	474.58
679.02	471.66
679.36	468.90
679.70	466.16
680.04	463.27
680.37	460.25
680.71	457.45
681.05	454.65
681.39	452.14
681.73	449.28
682.06	446.75
682.40	444.21
682.74	441.69
683.08	439.10
683.42	436.41
683.75	434.00
684.09	431.38
684.43	428.86
684.77	426.28
685.10	423.81
685.44	421.39
685.78	418.74
686.12	416.35
686.45	414.02
686.79	411.70
687.13	409.65
687.46	407.38
687.80	405.25
688.14	403.04
688.48	400.82
688.81	398.62
689.15	396.36
689.49	394.11
689.82	391.90
690.16	389.56
690.50	387.41
690.83	385.01
691.17	382.73
691.51	380.55
691.84	378.47
692.18	376.51
692.52	374.58
692.85	372.71
693.19	370.81
693.52	368.97
693.86	366.95
694.20	365.03
694.53	363.22
694.87	361.12
695.21	359.15
695.54	357.22
695.88	355.37
696.21	353.57
696.55	351.90
696.88	350.16
697.22	348.43
697.56	346.80
697.89	345.22
698.23	343.69
698.56	342.05
698.90	340.69
699.23	339.01
699.57	337.20
699.90	335.55
700.24	333.77
700.58	332.04
700.91	330.48
701.25	328.94
701.58	327.41
701.92	325.97
702.25	324.64
702.59	323.30
702.92	321.89
703.26	320.52
703.59	319.12
703.93	317.90
704.26	316.69
704.60	315.40
704.93	314.06
705.26	312.77
705.60	311.55
705.93	310.18
706.27	309.05
706.60	307.99
706.94	306.79
707.27	305.78
707.61	304.70
707.94	303.60
708.27	302.42
708.61	301.33
708.94	300.32
709.28	299.12
709.61	297.99
709.94	296.94
710.28	295.78
710.61	294.79
710.95	293.54
711.28	292.50
711.61	291.40
711.95	290.48
712.28	289.46
712.61	288.49
712.95	287.50
713.28	286.64
713.61	285.58
713.95	284.76
714.28	283.83
714.61	282.88
714.95	282.03
715.28	281.08
715.61	280.11
715.95	279.18
716.28	278.25
716.61	277.39
716.95	276.62
717.28	275.83
717.61	274.86
717.94	274.12
718.28	273.38
718.61	272.68
718.94	271.85
719.27	271.02
719.61	270.24
719.94	269.56
720.27	268.67
720.60	268.02
720.94	267.21
721.27	266.50
721.60	265.89
721.93	265.14
722.27	264.56
722.60	263.94
722.93	263.24
723.26	262.72
723.59	262.08
723.93	261.41
724.26	260.81
724.59	260.30
724.92	259.77
725.25	259.16
725.59	258.54
725.92	258.08
726.25	257.61
726.58	257.04
726.91	256.48
727.24	255.91
727.57	255.41
727.91	254.91
728.24	254.45
728.57	253.90
728.90	253.48
729.23	252.96
729.56	252.55
729.89	252.12
730.22	251.60
730.55	251.14
730.89	250.75
731.22	250.26
731.55	249.75
731.88	249.22
732.21	248.71
732.54	248.26
732.87	247.76
733.20	247.35
733.53	246.96
733.86	246.52
734.19	246.17
734.52	245.82
734.85	245.56
735.18	245.08
735.51	244.75
735.84	244.38
736.17	244.05
736.50	243.58
736.83	243.38
737.16	242.99
737.49	242.70
737.82	242.23
738.15	241.90
738.48	241.62
738.81	241.30
739.14	240.95
739.47	240.66
739.80	240.31
740.13	240.01
740.46	239.60
740.79	239.25
741.12	238.86
741.45	238.49
741.78	238.09
742.11	237.84
742.44	237.45
742.77	237.18
743.10	236.82
743.43	236.55
743.75	236.02
744.08	236.00
744.41	235.55
744.74	235.20
745.07	234.85
745.40	234.64
745.73	234.45
746.06	234.11
746.39	233.81
746.71	233.52
747.04	233.17
747.37	232.96
747.70	232.76
748.03	232.56
748.36	232.29
748.68	232.01
749.01	231.67
749.34	231.45
749.67	231.16
750.00	230.91
750.33	230.81
750.65	230.60
750.98	230.14
751.31	229.93
751.64	229.73
751.97	229.61
752.29	229.25
752.62	228.79
752.95	228.61
753.28	228.33
753.60	228.08
753.93	227.85
754.26	227.61
754.59	227.34
754.91	227.11
755.24	226.85
755.57	226.60
755.90	226.53
756.22	226.33
756.55	226.02
756.88	225.85
757.20	225.49
757.53	225.30
757.86	225.12
758.19	224.96
758.51	224.82
758.84	224.56
759.17	224.40
759.49	224.40
759.82	224.32
760.15	224.25
760.47	224.13
760.80	223.97
761.13	223.86
761.45	223.74
761.78	223.62
762.11	223.50
762.43	223.41
762.76	223.17
763.08	223.05
763.41	223.01
763.74	222.88
764.06	222.77
764.39	222.68
764.71	222.53
765.04	222.44
765.37	222.32
765.69	222.23
766.02	222.10
766.34	221.90
766.67	221.78
767.00	221.67
767.32	221.56
767.65	221.56
767.97	221.47
768.30	221.33
768.62	221.25
768.95	221.18
769.27	221.02
769.60	220.99
769.92	220.86
770.25	220.72
770.57	220.59
770.90	220.45
771.22	220.30
771.55	220.23
771.87	220.14
772.20	220.01
772.52	220.00
772.85	220.10
773.17	220.07
773.50	219.93
773.82	219.82
774.15	219.76
774.47	219.61
774.80	219.44
775.12	219.41
775.45	219.22
775.77	219.14
776.09	219.08
776.42	218.91
776.74	218.88
777.07	218.81
777.39	218.76
777.72	218.69
778.04	218.60
778.36	218.49
778.69	218.39
779.01	218.40
779.33	218.22
779.66	217.96
779.98	217.90
780.31	217.83
780.63	217.78
780.95	217.70
781.28	217.60
781.60	217.51
781.92	217.43
782.25	217.35
782.57	217.26
782.89	217.24
783.22	217.16
783.54	217.02
783.86	216.97
784.19	216.82
784.51	216.83
784.83	216.77
785.16	216.69
785.48	216.66
785.80	216.59
786.12	216.48
786.45	216.45
786.77	216.40
787.09	216.19
787.42	216.05
787.74	216.03
788.06	215.98
788.38	215.95
788.71	215.84
789.03	215.82
789.35	215.80
789.67	215.64
789.99	215.65
790.32	215.62
790.64	215.64
790.96	215.77
791.28	215.61
791.61	215.57
791.93	215.57
792.25	215.51
792.57	215.50
792.89	215.44
793.21	215.37
793.54	215.31
793.86	215.36
794.18	215.38
794.50	215.22
794.82	215.17
795.14	215.11
795.47	215.08
795.79	215.03
796.11	214.93
796.43	214.98
796.75	214.88
797.07	214.87
797.39	214.78
797.71	214.60
798.04	214.59
798.36	214.64
798.68	214.55
799.00	214.49
799.32	214.46
799.64	214.49
799.96	214.49
800.28	214.43
800.60	214.41
800.92	214.36
801.24	214.35
801.56	214.30
801.89	214.25
802.21	214.19
802.53	214.12
802.85	214.09
803.17	214.08
803.49	213.99
803.81	213.93
804.13	213.85
804.45	213.81
804.77	213.77
805.09	213.64
805.41	213.62
805.73	213.59
806.05	213.43
806.37	213.39
806.69	213.37
807.01	213.33
807.33	213.27
807.65	213.12
807.97	213.25
808.28	213.25
808.60	213.23
808.92	213.26
809.24	213.34
809.56	213.33
809.88	213.29
810.20	213.34
810.52	213.26
810.84	213.20
811.16	213.15
811.48	213.10
811.80	213.17
812.12	213.20
812.43	213.20
812.75	213.22
813.07	213.19
813.39	213.14
813.71	213.09
814.03	213.09
814.35	213.17
814.67	213.01
814.98	213.02
815.30	213.02
815.62	212.96
815.94	212.89
816.26	212.86
816.58	212.75
816.89	212.73
817.21	212.80
817.53	212.85
817.85	212.83
818.17	212.83
818.48	212.79
818.80	212.82
819.12	212.77
819.44	212.75
819.76	212.69
820.07	212.64
820.39	212.67
820.71	212.63
821.03	212.61
821.34	212.57
821.66	212.55
821.98	212.57
822.30	212.56
822.61	212.65
822.93	212.60
823.25	212.65
823.57	212.59
823.88	212.58
824.20	212.53
824.52	212.57
824.83	212.57
825.15	212.50
825.47	212.42
825.79	212.41
826.10	212.35
826.42	212.33
826.74	212.41
827.05	212.38
827.37	212.38
827.69	212.35
828.00	212.35
828.32	212.28
828.64	212.29
828.95	212.40
829.27	212.27
829.58	212.33
829.90	212.30
830.22	212.32
830.53	212.25
830.85	212.23
831.17	212.15
831.48	212.19
831.80	212.18
832.11	212.18
832.43	212.12
832.75	212.15
833.06	212.24
833.38	212.08
833.69	212.02
834.01	212.05
834.32	212.00
834.64	211.99
834.96	211.96
835.27	211.84
835.59	211.71
835.90	211.69
836.22	211.66
836.53	211.58
836.85	211.55
837.16	211.76
837.48	211.75
837.79	211.83
838.11	211.79
838.42	211.79
838.74	211.75
839.05	211.84
839.37	211.81
839.68	211.82
840.00	211.84
840.31	211.92
840.63	211.93
840.94	211.97
841.26	212.00
841.57	212.03
841.88	212.13
842.20	212.10
842.51	212.06
842.83	212.00
843.14	212.14
843.46	212.13
843.77	211.98
844.08	211.98
844.40	211.91
844.71	211.89
845.03	211.89
845.34	211.90
845.65	211.84
845.97	211.85
846.28	211.75
846.60	211.73
846.91	211.70
847.22	211.64
847.54	211.76
847.85	211.75
848.16	211.77
848.48	211.76
848.79	211.88
849.10	211.91
849.42	212.02
849.73	211.93
850.04	212.00
850.36	211.93
850.67	212.02
850.98	212.05
851.30	212.06
851.61	212.03
851.92	212.08
852.23	212.10
852.55	212.13
852.86	212.18
853.17	212.27
853.49	212.26
853.80	212.36
854.11	212.29
854.42	212.29
854.74	212.22
855.05	212.20
855.36	212.07
855.67	212.14
855.99	212.11
856.30	212.33
856.61	212.34
856.92	212.35
857.23	212.33
857.55	212.34
857.86	212.33
858.17	212.39
858.48	212.33
858.79	212.32
859.11	212.32
859.42	212.31
859.73	212.28
860.04	212.30
860.35	212.24
860.66	212.13
860.98	212.21
861.29	212.31
861.60	212.24
861.91	212.27
862.22	212.22
862.53	212.23
862.84	212.00
863.16	212.08
863.47	212.10
863.78	212.02
864.09	211.96
864.40	212.01
864.71	211.97
865.02	212.00
865.33	211.94
865.64	211.91
865.95	211.92
866.27	212.03
866.58	212.01
866.89	211.97
867.20	212.08
867.51	211.93
867.82	211.89
868.13	211.98
868.44	211.93
868.75	211.95
869.06	211.95
869.37	212.01
869.68	211.90
869.99	211.92
870.30	211.95
870.61	211.99
870.92	211.90
871.23	211.93
871.54	211.93
871.85	212.03
872.16	212.07
872.47	212.02
872.78	211.91
873.09	211.92
873.40	211.95
873.71	211.87
874.02	211.92
874.33	211.85
874.64	211.80
874.95	211.82
875.26	211.80
875.56	211.69
875.87	211.58
876.18	211.53
876.49	211.66
876.80	211.59
877.11	211.51
877.42	211.56
877.73	211.53
878.04	211.50
878.35	211.46
878.66	211.41
878.96	211.38
879.27	211.40
879.58	211.42
879.89	211.35
880.20	211.46
880.51	211.40
880.82	211.46
881.12	211.38
881.43	211.37
881.74	211.28
882.05	211.34
882.36	211.34
882.67	211.25
882.97	211.10
883.28	211.14
883.59	211.11
883.90	211.09
884.21	211.07
884.51	211.07
884.82	211.05
885.13	211.01
885.44	211.00
885.74	210.97
886.05	210.89
886.36	210.85
886.67	210.75
886.98	210.78
887.28	210.78
887.59	210.80
887.90	210.74
888.20	210.84
888.51	210.87
888.82	210.90
889.13	211.01
889.43	211.13
889.74	211.13
890.05	211.12
890.35	211.12
890.66	211.08
890.97	211.01
891.28	210.91
891.58	210.90
891.89	210.93
892.20	210.93
892.50	210.91
892.81	210.97
893.12	211.00
893.42	210.99
893.73	211.01
894.04	211.11
894.34	211.21
894.65	211.13
894.95	211.08
895.26	211.10
895.57	211.06
895.87	210.93
896.18	210.96
896.48	210.99
896.79	211.02
897.10	211.10
897.40	211.15
897.71	211.27
898.01	211.26
898.32	211.25
898.63	211.17
898.93	211.16
899.24	211.12
899.54	211.04
899.85	210.99
900.15	211.00
900.46	210.94
900.76	210.94
901.07	210.95
901.38	210.97
901.68	210.93
901.99	210.87
902.29	210.89
902.60	210.85
902.90	210.82
903.21	210.80
903.51	210.81
903.82	210.81
904.12	210.81
904.43	210.86
904.73	210.90
905.03	211.02
905.34	211.28
905.64	211.33
905.95	211.44
906.25	211.48
906.56	211.47
906.86	211.50
907.17	211.45
907.47	211.43
907.77	211.38
908.08	211.42
908.38	211.50
908.69	211.46
908.99	211.49
909.30	211.54
909.60	211.52
909.90	211.51
910.21	211.52
910.51	211.52
910.81	211.53
911.12	211.55
911.42	211.43
911.73	211.16
912.03	211.16
912.33	211.12
912.64	211.06
912.94	210.98
913.24	210.91
913.55	210.94
913.85	210.95
914.15	210.97
914.46	210.99
914.76	210.87
915.06	210.83
915.37	210.80
915.67	210.80
915.97	210.81
916.27	210.75
916.58	210.69
916.88	210.63
917.18	210.63
917.49	210.67
917.79	210.74
918.09	210.84
918.39	210.95
918.70	210.92
919.00	210.98
919.30	211.08
919.60	211.05
919.91	211.02
920.21	211.05
920.51	211.07
920.81	211.10
921.12	211.25
921.42	211.32
921.72	211.29
922.02	211.29
922.32	211.37
922.63	211.34
922.93	211.40
923.23	211.44
923.53	211.40
923.83	211.32
924.13	211.33
924.44	211.31
924.74	211.30
925.04	211.33
925.34	211.35
925.64	211.32
925.94	211.37
926.24	211.46
926.55	211.46
926.85	211.49
927.15	211.50
927.45	211.40
927.75	211.34
928.05	211.40
928.35	211.32
928.65	211.27
928.95	211.36
929.26	211.31
929.56	211.36
929.86	211.37
930.16	211.34
930.46	211.25
930.76	211.20
931.06	211.09
931.36	211.08
931.66	211.11
931.96	211.07
932.26	211.05
932.56	211.02
932.86	210.96
933.16	210.93
933.46	210.87
933.76	210.88
934.06	210.95
934.36	211.05
934.66	211.12
934.96	211.12
935.26	211.07
935.56	211.07
935.86	210.97
936.16	210.98
936.46	210.99
936.76	211.06
937.06	211.08
937.36	211.12
937.66	211.10
937.96	211.04
938.26	211.04
938.56	211.04
938.86	211.04
939.16	211.09
939.46	211.14
939.76	211.11
940.06	211.07
940.35	211.04
940.65	210.85
940.95	210.90
941.25	210.88
941.55	210.85
941.85	210.85
942.15	210.96
942.45	210.98
942.75	211.04
943.04	211.03
943.34	211.04
943.64	211.01
943.94	210.90
944.24	210.79
944.54	210.77
944.84	210.80
945.13	210.77
945.43	210.77
945.73	210.73
946.03	210.72
946.33	210.66
946.62	210.65
946.92	210.70
947.22	210.67
947.52	210.70
947.82	210.74
948.11	210.76
948.41	210.67
948.71	210.67
949.01	210.62
949.31	210.66
949.60	210.63
949.90	210.64
950.20	210.71
950.50	210.80
950.79	210.84
951.09	210.81
951.39	210.84
951.69	210.77
951.98	210.81
952.28	210.83
952.58	210.92
952.87	210.87
953.17	210.93
953.47	210.86
953.76	210.80
954.06	210.70
954.36	210.60
954.66	210.58
954.95	210.62
955.25	210.63
955.55	210.62
955.84	210.62
956.14	210.61
956.44	210.66
956.73	210.67
957.03	210.62
957.32	210.59
957.62	210.51
957.92	210.57
958.21	210.56
958.51	210.80
958.81	210.79
959.10	210.84
959.40	210.83
959.69	210.90
959.99	210.91
960.29	210.95
960.58	211.02
960.88	211.10
961.17	211.05
961.47	211.05
961.76	211.05
962.06	211.08
962.36	211.11
962.65	211.09
962.95	211.09
963.24	211.12
963.54	211.19
963.83	211.25
964.13	211.25
964.42	211.25
964.72	211.04
965.01	211.04
965.31	211.07
965.60	211.04
965.90	211.14
966.19	211.11
966.49	211.09
966.78	211.06
967.08	211.01
967.37	210.99
967.67	210.94
967.96	210.92
968.26	210.90
968.55	210.89
968.85	210.93
969.14	210.87
969.43	210.94
969.73	210.86
970.02	210.77
970.32	210.72
970.61	210.59
970.91	210.59
971.20	210.58
971.49	210.58
971.79	210.58
972.08	210.46
972.38	210.46
972.67	210.53
972.96	210.60
973.26	210.64
973.55	210.75
973.85	210.79
974.14	210.81
974.43	210.84
974.73	210.86
975.02	210.80
975.31	210.83
975.61	210.71
975.90	210.69
976.19	210.71
976.49	210.75
976.78	210.86
977.07	210.81
977.37	210.86
977.66	210.85
977.95	210.82
978.24	210.78
978.54	210.88
978.83	210.87
979.12	210.81
979.42	210.79
979.71	210.79
980.00	210.73
980.29	210.74
980.59	210.68
980.88	210.70
981.17	210.72
981.46	210.69
981.76	210.76
982.05	210.88
982.34	210.96
982.63	211.00
982.93	210.98
983.22	211.07
983.51	211.04
983.80	211.12
984.09	211.15
984.39	211.13
984.68	211.00
984.97	210.98
985.26	211.01
985.55	211.00
985.85	210.95
986.14	211.04
986.43	211.06
986.72	211.05
987.01	211.02
987.30	211.00
987.59	211.01
987.89	211.05
988.18	210.99
988.47	210.95
988.76	210.94
989.05	210.96
989.34	210.95
989.63	211.02
989.92	210.96
990.22	210.95
990.51	211.04
990.80	211.12
991.09	211.17
991.38	211.17
991.67	211.19
991.96	211.17
992.25	211.20
992.54	211.18
992.83	211.16
993.12	211.15
993.41	211.22
993.70	211.41
993.99	211.38
994.28	211.40
994.58	211.46
994.87	211.47
995.16	211.46
995.45	211.42
995.74	211.33
996.03	211.39
996.32	211.41
996.61	211.41
996.90	211.42
997.19	211.37
997.48	211.40
997.77	211.36
998.06	211.34
998.34	211.31
998.63	211.34
998.92	211.41
999.21	211.41
999.50	211.41
999.79	211.29
1000.08	211.30
1000.37	211.30
1000.66	211.23
1000.95	211.25
1001.24	211.25
1001.53	211.26
1001.82	211.36
1002.11	211.30
1002.40	211.34
1002.68	211.36
1002.97	211.47
1003.26	211.51
1003.55	211.45
1003.84	211.53
1004.13	211.56
1004.42	211.46
1004.71	211.50
1004.99	211.45
1005.28	211.44
1005.57	211.44
1005.86	211.38
1006.15	211.36
1006.44	211.36
1006.72	211.33
1007.01	211.19
1007.30	211.21
1007.59	211.17
1007.88	211.06
1008.17	211.06
1008.45	211.00
1008.74	210.90
1009.03	210.76
1009.32	210.77
1009.60	210.82
1009.89	210.71
1010.18	210.72
1010.47	210.80
1010.76	210.74
1011.04	210.74
1011.33	210.80
1011.62	210.75
1011.91	210.85
1012.19	210.85
1012.48	210.79
1012.77	210.80
1013.05	210.93
1013.34	210.90
1013.63	210.98
1013.92	211.02
1014.20	211.01
1014.49	211.04
1014.78	211.11
1015.06	211.06
1015.35	211.02
1015.64	210.99
1015.92	211.02
1016.21	211.02
1016.50	210.99
1016.78	210.95
1017.07	210.96
1017.36	210.96
1017.64	210.95
1017.93	210.88
1018.22	210.85
1018.50	210.89
1018.79	210.85
1019.08	210.82
1019.36	210.87
1019.65	210.81
1019.93	210.82
1020.22	210.80
1020.51	210.85
1020.79	210.76
1021.08	210.20
1021.36	210.45
1021.65	209.50
1021.94	211.45
1022.22	211.80
1022.51	210.45
1022.79	211.50
1023.08	210.75
1023.36	212.60
1023.65	209.25
>>>>>End Processed Spectral Data<<<<<
