SpectraSuite Data File
++++++++++++++++++++++++++++++++++++
Date: Mon Feb 25 17:31:15 EST 2013
User: group
Dark Spectrum Present: No
Reference Spectrum Present: No
Number of Sampled Component Spectra: 1
Spectrometers: USB2E7196
Integration Time (usec): 52000 (USB2E7196)
Spectra Averaged: 20 (USB2E7196)
Boxcar Smoothing: 10 (USB2E7196)
Correct for Electrical Dark: No (USB2E7196)
Strobe/Lamp Enabled: No (USB2E7196)
Correct for Detector Non-linearity: No (USB2E7196)
Correct for Stray Light: No (USB2E7196)
Number of Pixels in Processed Spectrum: 2048
>>>>>Begin Processed Spectral Data<<<<<
339.09	0.00
339.48	199.20
339.86	200.80
340.24	201.50
340.63	203.05
341.01	207.20
341.39	206.35
341.78	207.40
342.16	207.85
342.54	208.95
342.93	198.35
343.31	208.36
343.69	208.93
344.07	209.35
344.46	209.82
344.84	210.21
345.22	210.38
345.60	210.67
345.99	210.85
346.37	211.04
346.75	211.13
347.13	211.30
347.52	211.37
347.90	211.50
348.28	211.62
348.66	211.64
349.05	211.74
349.43	211.75
349.81	211.83
350.19	211.95
350.57	212.07
350.96	212.15
351.34	212.31
351.72	212.37
352.10	212.46
352.48	212.52
352.87	212.63
353.25	212.72
353.63	212.70
354.01	212.85
354.39	212.98
354.77	213.10
355.15	213.19
355.54	213.28
355.92	213.34
356.30	213.35
356.68	213.62
357.06	213.67
357.44	213.80
357.82	213.84
358.20	213.81
358.58	213.81
358.97	213.87
359.35	213.92
359.73	214.05
360.11	214.17
360.49	214.21
360.87	214.24
361.25	214.29
361.63	214.45
362.01	214.44
362.39	214.42
362.77	214.49
363.15	214.41
363.53	214.37
363.91	214.30
364.29	214.26
364.67	214.11
365.05	214.15
365.43	214.14
365.81	214.09
366.19	214.16
366.57	214.21
366.95	214.19
367.33	214.13
367.71	214.03
368.09	214.05
368.47	214.10
368.85	213.98
369.23	213.99
369.61	213.87
369.99	213.88
370.37	213.84
370.75	213.85
371.13	213.83
371.51	213.73
371.89	213.78
372.27	213.77
372.65	213.68
373.03	213.62
373.41	213.52
373.78	213.47
374.16	213.30
374.54	213.21
374.92	213.17
375.30	213.10
375.68	213.06
376.06	212.95
376.44	212.81
376.82	212.85
377.19	212.84
377.57	212.74
377.95	212.66
378.33	212.61
378.71	212.42
379.09	212.43
379.47	212.46
379.84	212.33
380.22	212.27
380.60	212.14
380.98	212.02
381.36	211.98
381.73	211.93
382.11	212.00
382.49	211.93
382.87	211.84
383.25	211.80
383.62	211.95
384.00	211.93
384.38	211.96
384.76	211.96
385.13	211.91
385.51	211.91
385.89	211.82
386.27	211.78
386.64	211.84
387.02	211.77
387.40	211.68
387.78	211.76
388.15	211.80
388.53	211.89
388.91	211.89
389.29	211.80
389.66	211.85
390.04	211.85
390.42	211.85
390.79	211.81
391.17	211.84
391.55	211.64
391.92	211.59
392.30	211.55
392.68	211.49
393.05	211.44
393.43	211.45
393.81	211.52
394.18	211.46
394.56	211.42
394.94	211.44
395.31	211.47
395.69	211.45
396.06	211.43
396.44	211.40
396.82	211.35
397.19	211.53
397.57	211.51
397.95	211.50
398.32	211.43
398.70	211.53
399.07	211.55
399.45	211.56
399.82	211.61
400.20	211.65
400.58	211.71
400.95	211.73
401.33	211.83
401.70	211.94
402.08	211.99
402.45	212.07
402.83	212.23
403.20	212.38
403.58	212.42
403.95	212.54
404.33	212.62
404.71	212.79
405.08	212.93
405.46	213.04
405.83	213.19
406.21	213.45
406.58	213.56
406.96	213.70
407.33	213.89
407.70	214.03
408.08	214.36
408.45	214.57
408.83	214.88
409.20	215.10
409.58	215.28
409.95	215.64
410.33	215.97
410.70	216.13
411.08	216.42
411.45	216.75
411.82	217.00
412.20	217.47
412.57	218.02
412.95	218.28
413.32	218.83
413.69	219.32
414.07	219.83
414.44	220.51
414.82	221.11
415.19	221.87
415.56	222.66
415.94	223.34
416.31	224.16
416.68	224.97
417.06	225.93
417.43	226.87
417.81	227.87
418.18	228.95
418.55	230.10
418.93	231.38
419.30	232.71
419.67	234.23
420.04	235.61
420.42	236.98
420.79	238.82
421.16	240.48
421.54	242.28
421.91	244.11
422.28	245.97
422.66	248.04
423.03	250.04
423.40	252.10
423.77	254.27
424.15	256.52
424.52	258.81
424.89	261.24
425.26	263.72
425.64	266.04
426.01	268.49
426.38	271.22
426.75	273.80
427.13	276.49
427.50	279.33
427.87	282.32
428.24	285.32
428.61	288.20
428.99	291.44
429.36	294.85
429.73	298.25
430.10	301.63
430.47	305.10
430.85	308.69
431.22	312.48
431.59	316.51
431.96	320.35
432.33	324.72
432.70	328.86
433.08	333.68
433.45	338.30
433.82	342.81
434.19	347.85
434.56	352.88
434.93	357.60
435.30	362.41
435.68	367.56
436.05	372.75
436.42	377.79
436.79	382.39
437.16	387.34
437.53	392.54
437.90	397.67
438.27	402.65
438.64	407.99
439.01	412.76
439.38	417.10
439.75	421.30
440.13	425.98
440.50	430.53
440.87	434.06
441.24	437.79
441.61	442.07
441.98	445.07
442.35	448.61
442.72	452.16
443.09	455.49
443.46	457.60
443.83	458.96
444.20	460.11
444.57	461.78
444.94	462.61
445.31	463.50
445.68	464.31
446.05	464.55
446.42	463.85
446.79	463.20
447.16	462.36
447.53	461.79
447.90	459.60
448.27	457.50
448.64	454.57
449.01	452.48
449.37	448.80
449.74	445.35
450.11	441.39
450.48	437.07
450.85	432.55
451.22	428.58
451.59	424.81
451.96	421.29
452.33	416.70
452.70	412.35
453.07	407.21
453.43	402.12
453.80	397.28
454.17	392.49
454.54	388.10
454.91	383.41
455.28	378.73
455.65	374.58
456.02	370.37
456.38	366.86
456.75	362.40
457.12	358.73
457.49	354.91
457.86	351.08
458.23	347.91
458.59	344.56
458.96	341.19
459.33	338.12
459.70	335.00
460.07	332.45
460.43	329.76
460.80	327.18
461.17	324.79
461.54	322.43
461.91	320.25
462.27	317.82
462.64	315.74
463.01	313.54
463.38	311.39
463.74	309.18
464.11	307.32
464.48	305.65
464.85	303.95
465.21	302.72
465.58	301.38
465.95	299.77
466.32	298.32
466.68	296.84
467.05	295.52
467.42	294.11
467.78	292.66
468.15	291.24
468.52	290.25
468.88	289.00
469.25	287.73
469.62	286.82
469.98	285.93
470.35	285.16
470.72	284.38
471.08	283.46
471.45	282.75
471.82	282.01
472.18	281.22
472.55	280.59
472.92	279.84
473.28	279.24
473.65	278.58
474.02	278.03
474.38	277.64
474.75	277.30
475.11	276.97
475.48	276.87
475.85	276.67
476.21	276.42
476.58	276.25
476.94	276.29
477.31	276.22
477.67	276.24
478.04	276.21
478.41	276.33
478.77	276.61
479.14	276.81
479.50	277.07
479.87	277.44
480.23	277.77
480.60	278.21
480.96	278.65
481.33	279.40
481.69	280.09
482.06	280.87
482.42	281.46
482.79	282.20
483.15	283.02
483.52	284.08
483.88	285.10
484.25	286.05
484.61	287.23
484.98	288.29
485.34	289.58
485.71	290.89
486.07	292.25
486.44	293.63
486.80	295.00
487.17	296.64
487.53	298.40
487.90	300.16
488.26	302.11
488.62	303.99
488.99	305.88
489.35	307.99
489.72	310.17
490.08	312.56
490.44	315.16
490.81	317.65
491.17	320.21
491.54	323.01
491.90	326.05
492.26	329.05
492.63	332.41
492.99	335.81
493.36	339.52
493.72	343.41
494.08	347.43
494.45	351.78
494.81	356.22
495.17	360.84
495.54	365.78
495.90	370.70
496.26	375.96
496.63	381.47
496.99	387.19
497.35	393.10
497.72	399.46
498.08	405.80
498.44	412.57
498.80	419.71
499.17	427.11
499.53	434.77
499.89	442.82
500.26	450.86
500.62	459.08
500.98	467.77
501.34	476.74
501.71	486.16
502.07	495.89
502.43	505.91
502.79	516.09
503.16	526.71
503.52	537.63
503.88	548.86
504.24	560.43
504.60	572.24
504.97	584.46
505.33	596.94
505.69	610.11
506.05	623.48
506.41	637.00
506.78	650.66
507.14	664.72
507.50	679.25
507.86	694.21
508.22	709.68
508.59	725.11
508.95	741.03
509.31	757.11
509.67	773.45
510.03	790.16
510.39	807.30
510.75	825.04
511.12	843.22
511.48	861.49
511.84	879.97
512.20	898.60
512.56	917.69
512.92	937.10
513.28	956.49
513.64	976.16
514.00	996.01
514.37	1016.25
514.73	1036.86
515.09	1057.45
515.45	1078.00
515.81	1098.95
516.17	1120.23
516.53	1141.46
516.89	1162.81
517.25	1184.30
517.61	1205.83
517.97	1227.13
518.33	1248.44
518.69	1269.48
519.05	1291.22
519.41	1313.12
519.77	1335.45
520.13	1357.14
520.49	1378.69
520.85	1401.04
521.21	1423.17
521.57	1445.73
521.93	1467.45
522.29	1490.06
522.65	1512.19
523.01	1534.71
523.37	1556.52
523.73	1578.38
524.09	1600.19
524.45	1622.12
524.81	1643.94
525.17	1665.79
525.53	1688.13
525.89	1710.07
526.25	1732.00
526.61	1753.16
526.97	1774.47
527.33	1795.34
527.68	1816.73
528.04	1837.97
528.40	1858.04
528.76	1878.51
529.12	1898.87
529.48	1920.30
529.84	1940.30
530.20	1960.36
530.56	1980.21
530.91	2000.56
531.27	2020.63
531.63	2040.29
531.99	2059.85
532.35	2078.76
532.71	2097.60
533.07	2116.76
533.42	2134.50
533.78	2153.20
534.14	2171.35
534.50	2188.60
534.86	2206.33
535.21	2222.69
535.57	2240.03
535.93	2256.95
536.29	2273.22
536.65	2289.63
537.00	2304.76
537.36	2319.69
537.72	2334.72
538.08	2349.58
538.44	2364.60
538.79	2379.74
539.15	2394.53
539.51	2408.72
539.87	2423.87
540.22	2438.04
540.58	2452.59
540.94	2467.19
541.29	2479.68
541.65	2491.56
542.01	2504.10
542.37	2515.38
542.72	2527.16
543.08	2537.56
543.44	2549.35
543.79	2559.82
544.15	2569.48
544.51	2580.27
544.87	2591.23
545.22	2599.99
545.58	2608.62
545.94	2615.30
546.29	2621.53
546.65	2627.46
547.01	2633.34
547.36	2638.77
547.72	2644.12
548.07	2647.89
548.43	2651.45
548.79	2655.20
549.14	2659.57
549.50	2663.30
549.86	2667.38
550.21	2671.33
550.57	2675.50
550.92	2677.73
551.28	2680.06
551.64	2682.25
551.99	2684.46
552.35	2685.19
552.70	2688.22
553.06	2690.53
553.41	2693.51
553.77	2695.96
554.13	2697.91
554.48	2699.72
554.84	2700.85
555.19	2701.14
555.55	2701.48
555.90	2701.83
556.26	2701.91
556.61	2701.70
556.97	2700.75
557.32	2700.10
557.68	2698.55
558.03	2696.77
558.39	2695.20
558.74	2694.82
559.10	2693.50
559.45	2691.41
559.81	2690.50
560.16	2687.28
560.52	2684.71
560.87	2681.65
561.23	2677.95
561.58	2675.59
561.94	2672.61
562.29	2669.22
562.64	2667.05
563.00	2664.31
563.35	2662.11
563.71	2660.33
564.06	2657.90
564.42	2655.92
564.77	2653.45
565.12	2651.55
565.48	2648.37
565.83	2645.34
566.19	2641.80
566.54	2637.58
566.89	2633.65
567.25	2629.53
567.60	2626.18
567.96	2622.41
568.31	2618.90
568.66	2614.93
569.02	2610.07
569.37	2604.90
569.72	2600.67
570.08	2595.31
570.43	2589.49
570.78	2583.60
571.14	2577.23
571.49	2570.91
571.84	2564.67
572.20	2557.72
572.55	2550.83
572.90	2543.84
573.26	2536.43
573.61	2529.17
573.96	2522.83
574.31	2515.07
574.67	2507.42
575.02	2499.16
575.37	2490.36
575.72	2481.45
576.08	2473.69
576.43	2465.30
576.78	2457.49
577.13	2449.41
577.49	2441.21
577.84	2433.84
578.19	2426.20
578.54	2419.01
578.90	2411.95
579.25	2403.69
579.60	2394.79
579.95	2385.85
580.30	2378.26
580.66	2370.42
581.01	2361.54
581.36	2352.41
581.71	2344.02
582.06	2335.48
582.42	2327.44
582.77	2318.74
583.12	2310.14
583.47	2301.88
583.82	2293.55
584.17	2284.83
584.53	2276.23
584.88	2267.58
585.23	2258.39
585.58	2249.16
585.93	2239.45
586.28	2230.36
586.63	2221.65
586.98	2213.65
587.34	2205.31
587.69	2195.96
588.04	2187.27
588.39	2179.31
588.74	2170.45
589.09	2161.97
589.44	2152.36
589.79	2143.92
590.14	2136.10
590.49	2127.93
590.84	2118.85
591.19	2111.05
591.54	2102.09
591.89	2091.97
592.25	2083.03
592.60	2073.87
592.95	2064.77
593.30	2055.54
593.65	2045.93
594.00	2036.57
594.35	2028.47
594.70	2019.45
595.05	2011.24
595.40	2002.63
595.75	1993.06
596.10	1985.20
596.45	1976.83
596.80	1969.50
597.15	1961.40
597.50	1952.63
597.85	1944.32
598.19	1935.94
598.54	1927.48
598.89	1919.67
599.24	1913.04
599.59	1905.75
599.94	1898.86
600.29	1891.22
600.64	1883.57
600.99	1875.54
601.34	1868.44
601.69	1859.80
602.04	1851.97
602.39	1844.03
602.74	1836.01
603.08	1829.40
603.43	1822.42
603.78	1814.70
604.13	1806.50
604.48	1798.56
604.83	1791.62
605.18	1784.46
605.53	1777.26
605.87	1769.64
606.22	1762.97
606.57	1755.30
606.92	1747.45
607.27	1739.38
607.62	1731.97
607.96	1725.23
608.31	1719.23
608.66	1711.45
609.01	1703.87
609.36	1696.39
609.70	1688.53
610.05	1681.14
610.40	1673.44
610.75	1664.87
611.10	1657.13
611.44	1648.21
611.79	1639.42
612.14	1630.40
612.49	1621.19
612.83	1612.59
613.18	1603.25
613.53	1593.85
613.88	1583.99
614.22	1574.80
614.57	1566.08
614.92	1557.04
615.27	1548.09
615.61	1538.33
615.96	1529.80
616.31	1521.53
616.65	1513.81
617.00	1505.60
617.35	1497.23
617.70	1488.45
618.04	1479.80
618.39	1470.55
618.74	1462.58
619.08	1454.05
619.43	1446.22
619.78	1438.45
620.12	1430.52
620.47	1422.98
620.82	1414.72
621.16	1407.00
621.51	1399.06
621.85	1390.64
622.20	1382.19
622.55	1373.75
622.89	1365.65
623.24	1357.54
623.59	1349.01
623.93	1340.25
624.28	1332.24
624.62	1324.19
624.97	1315.86
625.32	1307.94
625.66	1300.83
626.01	1293.68
626.35	1286.45
626.70	1278.69
627.04	1271.20
627.39	1263.68
627.73	1256.02
628.08	1249.12
628.43	1241.89
628.77	1234.61
629.12	1227.30
629.46	1220.97
629.81	1213.88
630.15	1206.70
630.50	1199.51
630.84	1192.42
631.19	1185.55
631.53	1178.54
631.88	1170.98
632.22	1163.52
632.57	1156.78
632.91	1149.41
633.26	1141.96
633.60	1135.06
633.95	1128.43
634.29	1121.37
634.64	1114.75
634.98	1107.96
635.32	1101.00
635.67	1094.61
636.01	1088.23
636.36	1081.65
636.70	1074.94
637.05	1068.65
637.39	1062.48
637.73	1056.23
638.08	1050.64
638.42	1044.81
638.77	1038.57
639.11	1032.38
639.45	1026.83
639.80	1020.52
640.14	1014.37
640.49	1008.39
640.83	1002.21
641.17	995.81
641.52	989.80
641.86	983.29
642.20	977.23
642.55	970.54
642.89	964.23
643.23	957.78
643.58	952.19
643.92	945.77
644.26	939.35
644.61	933.41
644.95	927.28
645.29	920.91
645.64	914.45
645.98	908.35
646.32	902.76
646.66	896.53
647.01	890.70
647.35	884.71
647.69	878.40
648.04	872.51
648.38	866.72
648.72	860.76
649.06	854.78
649.41	848.78
649.75	843.30
650.09	837.55
650.43	831.79
650.78	825.49
651.12	819.68
651.46	813.97
651.80	808.02
652.14	802.15
652.49	796.29
652.83	790.46
653.17	784.56
653.51	778.53
653.85	772.87
654.20	767.05
654.54	761.52
654.88	756.11
655.22	750.54
655.56	744.70
655.90	738.95
656.25	733.34
656.59	727.75
656.93	722.59
657.27	717.38
657.61	712.04
657.95	706.93
658.29	702.04
658.64	697.13
658.98	692.10
659.32	686.83
659.66	681.89
660.00	676.69
660.34	671.50
660.68	666.41
661.02	661.27
661.36	656.58
661.70	651.78
662.05	647.23
662.39	642.77
662.73	638.47
663.07	634.19
663.41	629.95
663.75	625.55
664.09	620.79
664.43	616.13
664.77	611.89
665.11	607.60
665.45	603.21
665.79	598.86
666.13	594.40
666.47	590.30
666.81	586.10
667.15	582.07
667.49	578.32
667.83	574.60
668.17	570.89
668.51	567.13
668.85	563.41
669.19	559.72
669.53	555.70
669.87	551.69
670.21	547.93
670.55	544.14
670.89	540.87
671.23	537.68
671.57	534.20
671.91	530.69
672.25	527.15
672.58	523.66
672.92	520.25
673.26	517.21
673.60	514.10
673.94	510.79
674.28	507.62
674.62	504.39
674.96	501.20
675.30	498.36
675.64	495.05
675.97	491.97
676.31	488.98
676.65	486.27
676.99	483.72
677.33	480.77
677.67	477.86
678.01	474.66
678.34	471.54
678.68	468.67
679.02	465.63
679.36	462.82
679.70	460.15
680.04	457.38
680.37	454.46
680.71	451.68
681.05	449.10
681.39	446.51
681.73	443.84
682.06	441.47
682.40	438.70
682.74	436.18
683.08	433.60
683.42	431.09
683.75	428.48
684.09	425.76
684.43	423.37
684.77	420.84
685.10	418.47
685.44	416.18
685.78	413.76
686.12	411.63
686.45	409.44
686.79	406.99
687.13	404.86
687.46	402.66
687.80	400.38
688.14	398.13
688.48	396.01
688.81	393.91
689.15	391.57
689.49	389.31
689.82	387.25
690.16	385.00
690.50	382.72
690.83	380.54
691.17	378.40
691.51	376.18
691.84	374.17
692.18	372.27
692.52	370.21
692.85	368.54
693.19	366.68
693.52	364.62
693.86	362.74
694.20	360.80
694.53	358.95
694.87	357.10
695.21	355.25
695.54	353.35
695.88	351.53
696.21	349.78
696.55	348.07
696.88	346.29
697.22	344.59
697.56	343.00
697.89	341.45
698.23	339.88
698.56	338.33
698.90	336.85
699.23	335.16
699.57	333.67
699.90	331.85
700.24	330.16
700.58	328.70
700.91	327.22
701.25	325.81
701.58	324.38
701.92	323.03
702.25	321.60
702.59	320.20
702.92	318.94
703.26	317.57
703.59	316.36
703.93	315.27
704.26	314.10
704.60	312.86
704.93	311.57
705.26	310.29
705.60	309.17
705.93	307.97
706.27	306.87
706.60	305.73
706.94	304.71
707.27	303.54
707.61	302.39
707.94	301.25
708.27	299.95
708.61	298.87
708.94	297.79
709.28	296.70
709.61	295.63
709.94	294.44
710.28	293.41
710.61	292.41
710.95	291.17
711.28	290.27
711.61	289.28
711.95	288.31
712.28	287.30
712.61	286.25
712.95	285.31
713.28	284.38
713.61	283.41
713.95	282.44
714.28	281.62
714.61	280.69
714.95	279.86
715.28	278.99
715.61	278.05
715.95	277.22
716.28	276.36
716.61	275.60
716.95	274.75
717.28	273.95
717.61	273.03
717.94	272.31
718.28	271.48
718.61	270.75
718.94	270.01
719.27	269.29
719.61	268.67
719.94	267.95
720.27	267.14
720.60	266.44
720.94	265.78
721.27	265.12
721.60	264.57
721.93	263.95
722.27	263.44
722.60	262.81
722.93	262.16
723.26	261.66
723.59	261.03
723.93	260.49
724.26	259.87
724.59	259.34
724.92	258.86
725.25	258.26
725.59	257.74
725.92	257.21
726.25	256.72
726.58	256.17
726.91	255.68
727.24	255.25
727.57	254.78
727.91	254.17
728.24	253.71
728.57	253.26
728.90	252.76
729.23	252.25
729.56	251.91
729.89	251.44
730.22	250.90
730.55	250.34
730.89	249.86
731.22	249.44
731.55	248.97
731.88	248.45
732.21	248.03
732.54	247.52
732.87	247.06
733.20	246.61
733.53	246.17
733.86	245.76
734.19	245.33
734.52	244.97
734.85	244.82
735.18	244.38
735.51	244.02
735.84	243.71
736.17	243.41
736.50	242.97
736.83	242.84
737.16	242.51
737.49	242.24
737.82	241.87
738.15	241.50
738.48	241.20
738.81	240.87
739.14	240.53
739.47	240.20
739.80	239.82
740.13	239.44
740.46	239.12
740.79	238.81
741.12	238.45
741.45	238.05
741.78	237.65
742.11	237.32
742.44	236.95
742.77	236.61
743.10	236.30
743.43	236.00
743.75	235.56
744.08	235.45
744.41	235.19
744.74	234.99
745.07	234.66
745.40	234.42
745.73	234.14
746.06	233.85
746.39	233.59
746.71	233.37
747.04	233.15
747.37	232.82
747.70	232.54
748.03	232.34
748.36	232.17
748.68	231.90
749.01	231.67
749.34	231.40
749.67	231.10
750.00	230.85
750.33	230.71
750.65	230.39
750.98	229.86
751.31	229.62
751.64	229.43
751.97	229.37
752.29	229.10
752.62	228.85
752.95	228.65
753.28	228.43
753.60	228.24
753.93	228.02
754.26	227.84
754.59	227.56
754.91	227.33
755.24	227.05
755.57	226.82
755.90	226.64
756.22	226.40
756.55	226.18
756.88	225.93
757.20	225.65
757.53	225.40
757.86	225.30
758.19	225.10
758.51	224.77
758.84	224.52
759.17	224.36
759.49	224.22
759.82	224.06
760.15	223.92
760.47	223.74
760.80	223.58
761.13	223.45
761.45	223.27
761.78	223.13
762.11	222.95
762.43	222.76
762.76	222.65
763.08	222.53
763.41	222.43
763.74	222.32
764.06	222.10
764.39	222.06
764.71	221.95
765.04	221.83
765.37	221.83
765.69	221.62
766.02	221.50
766.34	221.40
766.67	221.23
767.00	221.05
767.32	221.03
767.65	221.04
767.97	220.96
768.30	220.88
768.62	220.69
768.95	220.63
769.27	220.56
769.60	220.38
769.92	220.26
770.25	220.14
770.57	219.97
770.90	219.87
771.22	219.72
771.55	219.55
771.87	219.44
772.20	219.25
772.52	219.35
772.85	219.47
773.17	219.35
773.50	219.29
773.82	219.16
774.15	219.01
774.47	218.80
774.80	218.62
775.12	218.56
775.45	218.58
775.77	218.54
776.09	218.47
776.42	218.36
776.74	218.38
777.07	218.29
777.39	218.20
777.72	218.19
778.04	218.17
778.36	218.21
778.69	218.10
779.01	218.07
779.33	217.85
779.66	217.56
779.98	217.46
780.31	217.36
780.63	217.43
780.95	217.35
781.28	217.19
781.60	217.08
781.92	217.00
782.25	216.92
782.57	216.90
782.89	216.83
783.22	216.79
783.54	216.62
783.86	216.63
784.19	216.60
784.51	216.60
784.83	216.48
785.16	216.36
785.48	216.36
785.80	216.33
786.12	216.25
786.45	216.18
786.77	216.13
787.09	216.02
787.42	215.90
787.74	215.78
788.06	215.86
788.38	215.87
788.71	215.83
789.03	215.75
789.35	215.63
789.67	215.60
789.99	215.59
790.32	215.49
790.64	215.40
790.96	215.48
791.28	215.33
791.61	215.27
791.93	215.19
792.25	215.09
792.57	215.12
792.89	215.05
793.21	215.02
793.54	214.99
793.86	215.02
794.18	215.00
794.50	214.91
794.82	214.84
795.14	214.80
795.47	214.71
795.79	214.69
796.11	214.57
796.43	214.49
796.75	214.46
797.07	214.53
797.39	214.55
797.71	214.38
798.04	214.35
798.36	214.34
798.68	214.35
799.00	214.38
799.32	214.26
799.64	214.30
799.96	214.28
800.28	214.33
800.60	214.27
800.92	214.27
801.24	214.28
801.56	214.22
801.89	214.25
802.21	214.25
802.53	214.20
802.85	214.29
803.17	214.31
803.49	214.24
803.81	214.19
804.13	214.03
804.45	214.01
804.77	213.99
805.09	213.91
805.41	213.85
805.73	213.77
806.05	213.70
806.37	213.64
806.69	213.59
807.01	213.49
807.33	213.44
807.65	213.34
807.97	213.41
808.28	213.40
808.60	213.32
808.92	213.25
809.24	213.36
809.56	213.34
809.88	213.28
810.20	213.18
810.52	213.16
810.84	213.18
811.16	213.12
811.48	213.11
811.80	213.24
812.12	213.24
812.43	213.25
812.75	213.30
813.07	213.28
813.39	213.34
813.71	213.26
814.03	213.25
814.35	213.25
814.67	213.18
814.98	213.11
815.30	213.14
815.62	213.09
815.94	212.92
816.26	212.87
816.58	212.88
816.89	212.97
817.21	212.96
817.53	212.95
817.85	212.97
818.17	212.94
818.48	212.79
818.80	212.76
819.12	212.70
819.44	212.65
819.76	212.58
820.07	212.44
820.39	212.46
820.71	212.43
821.03	212.42
821.34	212.38
821.66	212.43
821.98	212.43
822.30	212.49
822.61	212.58
822.93	212.53
823.25	212.42
823.57	212.42
823.88	212.41
824.20	212.44
824.52	212.45
824.83	212.46
825.15	212.45
825.47	212.49
825.79	212.51
826.10	212.48
826.42	212.41
826.74	212.57
827.05	212.55
827.37	212.64
827.69	212.63
828.00	212.57
828.32	212.53
828.64	212.45
828.95	212.49
829.27	212.43
829.58	212.50
829.90	212.57
830.22	212.55
830.53	212.51
830.85	212.49
831.17	212.38
831.48	212.38
831.80	212.32
832.11	212.24
832.43	212.23
832.75	212.20
833.06	212.36
833.38	212.24
833.69	212.25
834.01	212.21
834.32	212.13
834.64	212.20
834.96	212.24
835.27	212.29
835.59	212.18
835.90	212.19
836.22	212.09
836.53	212.02
836.85	212.03
837.16	212.16
837.48	212.15
837.79	212.22
838.11	212.21
838.42	212.21
838.74	212.30
839.05	212.21
839.37	212.26
839.68	212.10
840.00	212.10
840.31	212.10
840.63	212.01
840.94	211.99
841.26	211.91
841.57	211.88
841.88	211.84
842.20	211.91
842.51	211.79
842.83	211.82
843.14	211.98
843.46	211.90
843.77	211.76
844.08	211.69
844.40	211.66
844.71	211.60
845.03	211.64
845.34	211.57
845.65	211.61
845.97	211.56
846.28	211.60
846.60	211.54
846.91	211.44
847.22	211.50
847.54	211.58
847.85	211.61
848.16	211.57
848.48	211.46
848.79	211.54
849.10	211.59
849.42	211.55
849.73	211.43
850.04	211.45
850.36	211.44
850.67	211.45
850.98	211.41
851.30	211.43
851.61	211.42
851.92	211.37
852.23	211.41
852.55	211.46
852.86	211.49
853.17	211.49
853.49	211.55
853.80	211.59
854.11	211.57
854.42	211.64
854.74	211.66
855.05	211.72
855.36	211.63
855.67	211.62
855.99	211.63
856.30	211.74
856.61	211.80
856.92	211.73
857.23	211.74
857.55	211.77
857.86	211.79
858.17	211.81
858.48	211.82
858.79	211.79
859.11	211.78
859.42	211.78
859.73	211.82
860.04	211.86
860.35	211.78
860.66	211.73
860.98	211.66
861.29	211.64
861.60	211.67
861.91	211.66
862.22	211.71
862.53	211.69
862.84	211.57
863.16	211.60
863.47	211.65
863.78	211.66
864.09	211.74
864.40	211.69
864.71	211.71
865.02	211.72
865.33	211.73
865.64	211.69
865.95	211.66
866.27	211.82
866.58	211.80
866.89	211.85
867.20	211.86
867.51	211.84
867.82	211.84
868.13	211.81
868.44	211.80
868.75	211.79
869.06	211.76
869.37	211.71
869.68	211.66
869.99	211.70
870.30	211.64
870.61	211.56
870.92	211.52
871.23	211.48
871.54	211.52
871.85	211.52
872.16	211.56
872.47	211.55
872.78	211.41
873.09	211.40
873.40	211.42
873.71	211.40
874.02	211.42
874.33	211.45
874.64	211.44
874.95	211.45
875.26	211.43
875.56	211.45
875.87	211.45
876.18	211.43
876.49	211.56
876.80	211.59
877.11	211.58
877.42	211.64
877.73	211.70
878.04	211.65
878.35	211.63
878.66	211.60
878.96	211.58
879.27	211.53
879.58	211.47
879.89	211.40
880.20	211.51
880.51	211.55
880.82	211.45
881.12	211.46
881.43	211.48
881.74	211.49
882.05	211.46
882.36	211.51
882.67	211.56
882.97	211.42
883.28	211.43
883.59	211.43
883.90	211.44
884.21	211.51
884.51	211.56
884.82	211.54
885.13	211.57
885.44	211.57
885.74	211.60
886.05	211.65
886.36	211.63
886.67	211.45
886.98	211.53
887.28	211.60
887.59	211.63
887.90	211.61
888.20	211.57
888.51	211.62
888.82	211.60
889.13	211.60
889.43	211.72
889.74	211.69
890.05	211.73
890.35	211.73
890.66	211.66
890.97	211.59
891.28	211.59
891.58	211.56
891.89	211.59
892.20	211.58
892.50	211.56
892.81	211.54
893.12	211.62
893.42	211.56
893.73	211.52
894.04	211.46
894.34	211.48
894.65	211.52
894.95	211.47
895.26	211.54
895.57	211.58
895.87	211.48
896.18	211.54
896.48	211.52
896.79	211.50
897.10	211.46
897.40	211.47
897.71	211.50
898.01	211.46
898.32	211.42
898.63	211.43
898.93	211.41
899.24	211.45
899.54	211.48
899.85	211.43
900.15	211.43
900.46	211.44
900.76	211.48
901.07	211.40
901.38	211.50
901.68	211.43
901.99	211.35
902.29	211.32
902.60	211.22
902.90	211.14
903.21	211.15
903.51	211.18
903.82	211.24
904.12	211.24
904.43	211.28
904.73	211.22
905.03	211.19
905.34	211.35
905.64	211.36
905.95	211.28
906.25	211.25
906.56	211.26
906.86	211.26
907.17	211.15
907.47	211.23
907.77	211.11
908.08	211.11
908.38	211.11
908.69	211.04
908.99	211.18
909.30	211.20
909.60	211.21
909.90	211.20
910.21	211.08
910.51	211.07
910.81	211.05
911.12	211.13
911.42	211.21
911.73	211.05
912.03	211.02
912.33	211.14
912.64	211.23
912.94	211.15
913.24	211.15
913.55	211.15
913.85	211.08
914.15	211.09
914.46	211.11
914.76	211.10
915.06	211.11
915.37	211.02
915.67	211.04
915.97	211.00
916.27	210.99
916.58	211.05
916.88	211.04
917.18	211.09
917.49	211.18
917.79	211.10
918.09	211.09
918.39	211.21
918.70	211.16
919.00	211.12
919.30	211.25
919.60	211.27
919.91	211.27
920.21	211.26
920.51	211.30
920.81	211.28
921.12	211.31
921.42	211.37
921.72	211.37
922.02	211.36
922.32	211.41
922.63	211.40
922.93	211.44
923.23	211.44
923.53	211.37
923.83	211.29
924.13	211.31
924.44	211.33
924.74	211.29
925.04	211.34
925.34	211.31
925.64	211.25
925.94	211.30
926.24	211.45
926.55	211.47
926.85	211.41
927.15	211.43
927.45	211.40
927.75	211.43
928.05	211.42
928.35	211.47
928.65	211.56
928.95	211.58
929.26	211.55
929.56	211.59
929.86	211.67
930.16	211.65
930.46	211.67
930.76	211.70
931.06	211.70
931.36	211.56
931.66	211.60
931.96	211.59
932.26	211.51
932.56	211.37
932.86	211.43
933.16	211.46
933.46	211.49
933.76	211.46
934.06	211.49
934.36	211.60
934.66	211.59
934.96	211.54
935.26	211.52
935.56	211.54
935.86	211.44
936.16	211.35
936.46	211.32
936.76	211.22
937.06	211.16
937.36	211.12
937.66	211.22
937.96	211.22
938.26	211.22
938.56	211.20
938.86	211.23
939.16	211.25
939.46	211.30
939.76	211.25
940.06	211.25
940.35	211.19
940.65	211.08
940.95	211.10
941.25	211.03
941.55	211.02
941.85	210.97
942.15	211.08
942.45	211.12
942.75	211.08
943.04	211.14
943.34	211.18
943.64	211.12
943.94	211.09
944.24	211.09
944.54	211.15
944.84	211.25
945.13	211.20
945.43	211.13
945.73	211.18
946.03	211.21
946.33	211.15
946.62	211.12
946.92	211.13
947.22	211.11
947.52	211.17
947.82	211.21
948.11	211.26
948.41	211.20
948.71	211.14
949.01	211.10
949.31	211.06
949.60	211.05
949.90	211.17
950.20	211.18
950.50	211.14
950.79	211.04
951.09	210.97
951.39	211.01
951.69	211.02
951.98	210.96
952.28	210.90
952.58	210.92
952.87	210.98
953.17	211.07
953.47	211.01
953.76	210.95
954.06	210.90
954.36	210.81
954.66	210.79
954.95	210.94
955.25	211.04
955.55	211.17
955.84	211.16
956.14	211.18
956.44	211.21
956.73	211.20
957.03	211.24
957.32	211.34
957.62	211.37
957.92	211.45
958.21	211.47
958.51	211.67
958.81	211.76
959.10	211.77
959.40	211.69
959.69	211.69
959.99	211.73
960.29	211.79
960.58	211.82
960.88	211.94
961.17	211.85
961.47	211.85
961.76	211.73
962.06	211.75
962.36	211.69
962.65	211.63
962.95	211.68
963.24	211.63
963.54	211.60
963.83	211.55
964.13	211.43
964.42	211.39
964.72	211.30
965.01	211.30
965.31	211.29
965.60	211.28
965.90	211.47
966.19	211.37
966.49	211.38
966.78	211.36
967.08	211.28
967.37	211.26
967.67	211.26
967.96	211.27
968.26	211.20
968.55	211.22
968.85	211.15
969.14	211.10
969.43	211.13
969.73	211.06
970.02	211.15
970.32	211.21
970.61	211.15
970.91	211.07
971.20	211.06
971.49	210.96
971.79	211.01
972.08	210.88
972.38	210.95
972.67	210.82
972.96	210.84
973.26	210.81
973.55	210.87
973.85	210.79
974.14	210.78
974.43	210.83
974.73	210.81
975.02	210.90
975.31	210.88
975.61	210.88
975.90	210.92
976.19	210.88
976.49	210.82
976.78	210.91
977.07	210.85
977.37	210.79
977.66	210.82
977.95	210.80
978.24	210.80
978.54	210.75
978.83	210.79
979.12	210.83
979.42	210.83
979.71	210.82
980.00	210.85
980.29	210.87
980.59	210.83
980.88	210.85
981.17	210.80
981.46	210.82
981.76	210.80
982.05	210.82
982.34	210.75
982.63	210.79
982.93	210.71
983.22	210.80
983.51	210.78
983.80	210.80
984.09	210.77
984.39	210.72
984.68	210.77
984.97	210.76
985.26	210.72
985.55	210.70
985.85	210.64
986.14	210.68
986.43	210.69
986.72	210.70
987.01	210.71
987.30	210.73
987.59	210.78
987.89	210.77
988.18	210.68
988.47	210.70
988.76	210.68
989.05	210.73
989.34	210.71
989.63	210.79
989.92	210.75
990.22	210.70
990.51	210.70
990.80	210.64
991.09	210.64
991.38	210.59
991.67	210.58
991.96	210.58
992.25	210.60
992.54	210.60
992.83	210.62
993.12	210.53
993.41	210.50
993.70	210.49
993.99	210.54
994.28	210.51
994.58	210.44
994.87	210.45
995.16	210.42
995.45	210.44
995.74	210.37
996.03	210.35
996.32	210.45
996.61	210.51
996.90	210.55
997.19	210.62
997.48	210.62
997.77	210.60
998.06	210.54
998.34	210.47
998.63	210.46
998.92	210.41
999.21	210.43
999.50	210.46
999.79	210.42
1000.08	210.40
1000.37	210.47
1000.66	210.53
1000.95	210.56
1001.24	210.54
1001.53	210.46
1001.82	210.46
1002.11	210.44
1002.40	210.49
1002.68	210.51
1002.97	210.61
1003.26	210.54
1003.55	210.56
1003.84	210.66
1004.13	210.81
1004.42	210.79
1004.71	210.81
1004.99	210.86
1005.28	210.92
1005.57	210.89
1005.86	210.86
1006.15	210.85
1006.44	210.85
1006.72	210.87
1007.01	210.85
1007.30	210.91
1007.59	210.95
1007.88	210.98
1008.17	211.05
1008.45	210.92
1008.74	210.82
1009.03	210.79
1009.32	210.76
1009.60	210.80
1009.89	210.73
1010.18	210.66
1010.47	210.68
1010.76	210.69
1011.04	210.66
1011.33	210.70
1011.62	210.77
1011.91	210.80
1012.19	210.79
1012.48	210.84
1012.77	210.79
1013.05	210.84
1013.34	210.83
1013.63	210.85
1013.92	210.78
1014.20	210.70
1014.49	210.77
1014.78	210.79
1015.06	210.68
1015.35	210.73
1015.64	210.66
1015.92	210.78
1016.21	210.72
1016.50	210.79
1016.78	210.74
1017.07	210.74
1017.36	210.73
1017.64	210.63
1017.93	210.59
1018.22	210.62
1018.50	210.56
1018.79	210.56
1019.08	210.49
1019.36	210.47
1019.65	210.45
1019.93	210.57
1020.22	210.62
1020.51	210.70
1020.79	210.77
1021.08	210.90
1021.36	210.60
1021.65	209.85
1021.94	210.55
1022.22	210.65
1022.51	211.00
1022.79	211.90
1023.08	210.70
1023.36	212.80
1023.65	211.70
>>>>>End Processed Spectral Data<<<<<
