SpectraSuite Data File
++++++++++++++++++++++++++++++++++++
Date: Mon Feb 25 17:34:51 EST 2013
User: group
Dark Spectrum Present: No
Reference Spectrum Present: No
Number of Sampled Component Spectra: 1
Spectrometers: USB2E7196
Integration Time (usec): 52000 (USB2E7196)
Spectra Averaged: 20 (USB2E7196)
Boxcar Smoothing: 10 (USB2E7196)
Correct for Electrical Dark: No (USB2E7196)
Strobe/Lamp Enabled: No (USB2E7196)
Correct for Detector Non-linearity: No (USB2E7196)
Correct for Stray Light: No (USB2E7196)
Number of Pixels in Processed Spectrum: 2048
>>>>>Begin Processed Spectral Data<<<<<
339.09	0.00
339.48	198.80
339.86	200.40
340.24	201.20
340.63	203.95
341.01	207.25
341.39	206.55
341.78	206.85
342.16	208.65
342.54	209.20
342.93	198.35
343.31	208.35
343.69	208.94
344.07	209.44
344.46	209.92
344.84	210.32
345.22	210.56
345.60	210.80
345.99	211.04
346.37	211.19
346.75	211.28
347.13	211.36
347.52	211.46
347.90	211.54
348.28	211.55
348.66	211.61
349.05	211.53
349.43	211.46
349.81	211.45
350.19	211.49
350.57	211.51
350.96	211.61
351.34	211.72
351.72	211.72
352.10	211.77
352.48	211.83
352.87	211.81
353.25	211.79
353.63	211.74
354.01	211.77
354.39	211.78
354.77	211.93
355.15	212.04
355.54	212.06
355.92	212.03
356.30	212.08
356.68	212.32
357.06	212.44
357.44	212.55
357.82	212.63
358.20	212.70
358.58	212.71
358.97	212.80
359.35	212.89
359.73	213.02
360.11	213.13
360.49	213.17
360.87	213.22
361.25	213.33
361.63	213.52
362.01	213.55
362.39	213.69
362.77	213.69
363.15	213.65
363.53	213.71
363.91	213.73
364.29	213.75
364.67	213.56
365.05	213.56
365.43	213.64
365.81	213.65
366.19	213.73
366.57	213.85
366.95	213.83
367.33	213.80
367.71	213.74
368.09	213.72
368.47	213.78
368.85	213.75
369.23	213.73
369.61	213.61
369.99	213.69
370.37	213.61
370.75	213.67
371.13	213.63
371.51	213.59
371.89	213.62
372.27	213.65
372.65	213.65
373.03	213.65
373.41	213.57
373.78	213.58
374.16	213.54
374.54	213.45
374.92	213.40
375.30	213.36
375.68	213.39
376.06	213.40
376.44	213.24
376.82	213.25
377.19	213.19
377.57	213.15
377.95	213.09
378.33	213.07
378.71	212.91
379.09	212.92
379.47	212.94
379.84	212.88
380.22	212.75
380.60	212.68
380.98	212.61
381.36	212.54
381.73	212.41
382.11	212.36
382.49	212.34
382.87	212.30
383.25	212.24
383.62	212.34
384.00	212.22
384.38	212.26
384.76	212.25
385.13	212.29
385.51	212.35
385.89	212.29
386.27	212.20
386.64	212.19
387.02	212.17
387.40	212.05
387.78	212.05
388.15	212.06
388.53	211.99
388.91	212.03
389.29	212.08
389.66	212.15
390.04	212.14
390.42	212.14
390.79	212.09
391.17	212.14
391.55	211.90
391.92	211.89
392.30	211.89
392.68	211.80
393.05	211.80
393.43	211.71
393.81	211.71
394.18	211.69
394.56	211.70
394.94	211.68
395.31	211.76
395.69	211.81
396.06	211.88
396.44	211.89
396.82	211.86
397.19	211.90
397.57	211.84
397.95	211.88
398.32	211.86
398.70	211.90
399.07	211.93
399.45	212.05
399.82	212.09
400.20	212.10
400.58	212.19
400.95	212.12
401.33	212.29
401.70	212.40
402.08	212.52
402.45	212.57
402.83	212.70
403.20	212.74
403.58	212.78
403.95	212.77
404.33	212.92
404.71	213.04
405.08	213.16
405.46	213.32
405.83	213.36
406.21	213.50
406.58	213.73
406.96	213.89
407.33	214.00
407.70	214.18
408.08	214.47
408.45	214.73
408.83	215.04
409.20	215.28
409.58	215.49
409.95	215.73
410.33	216.13
410.70	216.38
411.08	216.74
411.45	217.10
411.82	217.49
412.20	217.91
412.57	218.46
412.95	218.85
413.32	219.37
413.69	219.91
414.07	220.49
414.44	221.05
414.82	221.70
415.19	222.41
415.56	223.12
415.94	223.88
416.31	224.72
416.68	225.66
417.06	226.58
417.43	227.61
417.81	228.77
418.18	229.84
418.55	230.96
418.93	232.23
419.30	233.52
419.67	235.04
420.04	236.47
420.42	237.80
420.79	239.60
421.16	241.37
421.54	243.25
421.91	245.09
422.28	247.01
422.66	249.02
423.03	251.16
423.40	253.34
423.77	255.51
424.15	257.81
424.52	260.11
424.89	262.67
425.26	265.07
425.64	267.44
426.01	269.98
426.38	272.80
426.75	275.61
427.13	278.50
427.50	281.41
427.87	284.52
428.24	287.70
428.61	290.62
428.99	293.82
429.36	297.32
429.73	300.84
430.10	304.29
430.47	307.84
430.85	311.48
431.22	315.39
431.59	319.65
431.96	323.52
432.33	327.89
432.70	332.11
433.08	337.10
433.45	341.75
433.82	346.32
434.19	351.43
434.56	356.41
434.93	361.27
435.30	366.00
435.68	371.26
436.05	376.57
436.42	381.77
436.79	386.59
437.16	391.67
437.53	397.03
437.90	402.45
438.27	407.66
438.64	413.00
439.01	417.92
439.38	422.29
439.75	426.58
440.13	431.45
440.50	436.05
440.87	439.74
441.24	443.56
441.61	447.88
441.98	451.06
442.35	454.67
442.72	458.30
443.09	461.80
443.46	464.01
443.83	465.27
444.20	466.46
444.57	468.25
444.94	469.05
445.31	469.90
445.68	470.62
446.05	470.87
446.42	470.22
446.79	469.53
447.16	468.68
447.53	467.95
447.90	465.78
448.27	463.57
448.64	460.65
449.01	458.54
449.37	454.87
449.74	451.30
450.11	447.04
450.48	442.42
450.85	437.77
451.22	433.68
451.59	429.86
451.96	426.21
452.33	421.35
452.70	417.00
453.07	411.69
453.43	406.32
453.80	401.20
454.17	396.43
454.54	391.93
454.91	387.09
455.28	382.45
455.65	378.06
456.02	373.84
456.38	370.04
456.75	365.34
457.12	361.55
457.49	357.69
457.86	354.05
458.23	350.81
458.59	347.37
458.96	343.81
459.33	340.75
459.70	337.62
460.07	335.06
460.43	332.18
460.80	329.56
461.17	327.31
461.54	324.93
461.91	322.54
462.27	320.02
462.64	317.95
463.01	315.68
463.38	313.63
463.74	311.32
464.11	309.39
464.48	307.68
464.85	305.87
465.21	304.54
465.58	303.11
465.95	301.41
466.32	299.98
466.68	298.58
467.05	297.13
467.42	295.67
467.78	294.29
468.15	292.99
468.52	292.05
468.88	290.62
469.25	289.44
469.62	288.49
469.98	287.58
470.35	286.68
470.72	285.85
471.08	284.83
471.45	284.09
471.82	283.38
472.18	282.60
472.55	281.98
472.92	281.24
473.28	280.61
473.65	280.08
474.02	279.53
474.38	279.13
474.75	278.85
475.11	278.56
475.48	278.15
475.85	277.85
476.21	277.53
476.58	277.52
476.94	277.47
477.31	277.49
477.67	277.40
478.04	277.43
478.41	277.60
478.77	277.87
479.14	278.02
479.50	278.28
479.87	278.61
480.23	278.97
480.60	279.25
480.96	279.69
481.33	280.32
481.69	281.00
482.06	281.69
482.42	282.22
482.79	282.96
483.15	283.92
483.52	284.89
483.88	285.90
484.25	286.88
484.61	287.93
484.98	289.05
485.34	290.31
485.71	291.72
486.07	293.13
486.44	294.47
486.80	295.96
487.17	297.68
487.53	299.47
487.90	301.34
488.26	303.41
488.62	305.40
488.99	307.49
489.35	309.53
489.72	311.65
490.08	314.14
490.44	316.51
490.81	319.10
491.17	321.77
491.54	324.59
491.90	327.60
492.26	330.82
492.63	334.09
492.99	337.50
493.36	341.02
493.72	344.88
494.08	348.86
494.45	353.10
494.81	357.50
495.17	361.98
495.54	366.86
495.90	371.87
496.26	377.13
496.63	382.55
496.99	388.26
497.35	394.30
497.72	400.54
498.08	407.11
498.44	413.84
498.80	421.11
499.17	428.55
499.53	436.23
499.89	444.25
500.26	452.44
500.62	460.98
500.98	469.88
501.34	478.92
501.71	488.45
502.07	498.06
502.43	508.11
502.79	518.39
503.16	529.16
503.52	540.00
503.88	551.21
504.24	562.87
504.60	574.85
504.97	587.31
505.33	599.85
505.69	613.07
506.05	626.66
506.41	640.05
506.78	653.78
507.14	667.86
507.50	682.33
507.86	697.22
508.22	712.58
508.59	728.01
508.95	744.21
509.31	760.50
509.67	777.29
510.03	794.25
510.39	812.07
510.75	829.73
511.12	847.87
511.48	866.31
511.84	884.92
512.20	903.79
512.56	923.14
512.92	942.71
513.28	962.41
513.64	982.33
514.00	1002.43
514.37	1023.11
514.73	1043.90
515.09	1065.01
515.45	1086.04
515.81	1107.13
516.17	1128.56
516.53	1149.97
516.89	1171.77
517.25	1193.43
517.61	1215.17
517.97	1236.55
518.33	1258.38
518.69	1280.29
519.05	1302.46
519.41	1324.58
519.77	1347.09
520.13	1369.40
520.49	1391.77
520.85	1414.75
521.21	1437.18
521.57	1460.25
521.93	1482.38
522.29	1505.47
522.65	1527.96
523.01	1550.53
523.37	1572.57
523.73	1594.89
524.09	1617.15
524.45	1639.48
524.81	1661.92
525.17	1684.45
525.53	1706.89
525.89	1729.15
526.25	1751.56
526.61	1773.07
526.97	1795.01
527.33	1816.44
527.68	1837.82
528.04	1859.33
528.40	1879.77
528.76	1900.75
529.12	1921.58
529.48	1943.49
529.84	1963.94
530.20	1984.49
530.56	2005.08
530.91	2026.66
531.27	2047.37
531.63	2067.74
531.99	2087.76
532.35	2107.40
532.71	2126.48
533.07	2146.57
533.42	2165.38
533.78	2184.20
534.14	2202.72
534.50	2220.11
534.86	2238.38
535.21	2255.43
535.57	2273.26
535.93	2290.43
536.29	2307.27
536.65	2323.95
537.00	2339.48
537.36	2355.09
537.72	2370.64
538.08	2386.25
538.44	2401.43
538.79	2417.18
539.15	2432.19
539.51	2446.75
539.87	2462.08
540.22	2477.01
540.58	2492.00
540.94	2506.77
541.29	2519.82
541.65	2532.42
542.01	2546.10
542.37	2557.99
542.72	2570.41
543.08	2581.43
543.44	2593.27
543.79	2603.75
544.15	2614.32
544.51	2625.36
544.87	2636.79
545.22	2646.10
545.58	2654.72
545.94	2662.07
546.29	2668.44
546.65	2674.88
547.01	2681.25
547.36	2687.13
547.72	2692.74
548.07	2696.82
548.43	2700.79
548.79	2705.12
549.14	2710.10
549.50	2714.50
549.86	2719.03
550.21	2723.64
550.57	2727.82
550.92	2730.97
551.28	2733.95
551.64	2736.66
551.99	2739.32
552.35	2740.55
552.70	2743.36
553.06	2746.65
553.41	2749.73
553.77	2752.94
554.13	2755.38
554.48	2757.70
554.84	2759.09
555.19	2759.90
555.55	2760.68
555.90	2761.10
556.26	2761.58
556.61	2761.84
556.97	2760.66
557.32	2760.10
557.68	2758.20
558.03	2756.85
558.39	2755.12
558.74	2755.12
559.10	2754.10
559.45	2752.48
559.81	2751.38
560.16	2748.86
560.52	2746.01
560.87	2743.21
561.23	2739.74
561.58	2737.32
561.94	2734.45
562.29	2730.83
562.64	2728.24
563.00	2725.30
563.35	2723.07
563.71	2721.53
564.06	2719.49
564.42	2717.94
564.77	2715.67
565.12	2713.97
565.48	2710.80
565.83	2708.14
566.19	2704.70
566.54	2700.44
566.89	2696.63
567.25	2693.00
567.60	2689.61
567.96	2685.87
568.31	2682.38
568.66	2678.20
569.02	2673.53
569.37	2668.25
569.72	2664.48
570.08	2659.57
570.43	2654.47
570.78	2648.59
571.14	2642.07
571.49	2634.97
571.84	2628.93
572.20	2622.19
572.55	2615.49
572.90	2608.87
573.26	2601.79
573.61	2594.60
573.96	2588.01
574.31	2579.92
574.67	2571.81
575.02	2563.21
575.37	2554.57
575.72	2545.44
576.08	2537.80
576.43	2529.17
576.78	2521.15
577.13	2513.05
577.49	2504.85
577.84	2496.90
578.19	2489.69
578.54	2482.28
578.90	2475.69
579.25	2466.71
579.60	2457.25
579.95	2447.93
580.30	2439.62
580.66	2431.67
581.01	2422.57
581.36	2413.15
581.71	2404.69
582.06	2396.10
582.42	2388.10
582.77	2378.97
583.12	2370.22
583.47	2361.64
583.82	2353.12
584.17	2343.84
584.53	2334.71
584.88	2325.58
585.23	2315.93
585.58	2306.20
585.93	2296.45
586.28	2286.85
586.63	2277.92
586.98	2269.82
587.34	2261.30
587.69	2252.14
588.04	2242.59
588.39	2234.15
588.74	2224.92
589.09	2216.15
589.44	2206.26
589.79	2197.60
590.14	2189.64
590.49	2181.12
590.84	2171.90
591.19	2163.74
591.54	2155.03
591.89	2144.70
592.25	2135.41
592.60	2126.05
592.95	2116.38
593.30	2106.65
593.65	2096.54
594.00	2086.76
594.35	2078.32
594.70	2069.01
595.05	2060.42
595.40	2051.61
595.75	2042.01
596.10	2033.83
596.45	2025.21
596.80	2017.56
597.15	2008.80
597.50	1999.57
597.85	1990.98
598.19	1982.22
598.54	1973.45
598.89	1965.58
599.24	1958.65
599.59	1951.26
599.94	1944.11
600.29	1936.32
600.64	1928.13
600.99	1919.83
601.34	1912.70
601.69	1903.57
602.04	1895.39
602.39	1886.78
602.74	1878.52
603.08	1871.71
603.43	1864.49
603.78	1856.47
604.13	1848.35
604.48	1840.50
604.83	1833.59
605.18	1826.24
605.53	1818.60
605.87	1810.80
606.22	1803.42
606.57	1795.58
606.92	1787.31
607.27	1779.16
607.62	1771.66
607.96	1764.92
608.31	1758.53
608.66	1750.28
609.01	1743.00
609.36	1735.14
609.70	1727.28
610.05	1719.91
610.40	1711.50
610.75	1702.77
611.10	1695.01
611.44	1685.75
611.79	1676.69
612.14	1667.40
612.49	1657.92
612.83	1649.09
613.18	1639.16
613.53	1629.62
613.88	1619.95
614.22	1610.81
614.57	1601.57
614.92	1592.27
615.27	1582.99
615.61	1573.23
615.96	1564.40
616.31	1555.57
616.65	1547.65
617.00	1539.22
617.35	1530.39
617.70	1521.42
618.04	1512.20
618.39	1502.66
618.74	1494.19
619.08	1485.35
619.43	1477.04
619.78	1469.05
620.12	1460.92
620.47	1453.63
620.82	1445.09
621.16	1436.79
621.51	1428.46
621.85	1420.21
622.20	1411.58
622.55	1402.79
622.89	1394.46
623.24	1386.17
623.59	1377.37
623.93	1368.57
624.28	1360.09
624.62	1351.78
624.97	1343.28
625.32	1335.67
625.66	1328.15
626.01	1320.84
626.35	1313.60
626.70	1305.56
627.04	1298.05
627.39	1290.33
627.73	1282.50
628.08	1275.43
628.43	1267.69
628.77	1260.20
629.12	1252.60
629.46	1246.04
629.81	1238.83
630.15	1231.34
630.50	1223.85
630.84	1216.72
631.19	1209.59
631.53	1202.64
631.88	1195.00
632.22	1187.61
632.57	1180.55
632.91	1172.98
633.26	1165.48
633.60	1158.37
633.95	1151.71
634.29	1144.27
634.64	1137.44
634.98	1130.15
635.32	1123.05
635.67	1116.75
636.01	1110.20
636.36	1103.31
636.70	1096.46
637.05	1090.01
637.39	1083.64
637.73	1077.40
638.08	1071.44
638.42	1065.47
638.77	1059.12
639.11	1052.73
639.45	1046.65
639.80	1039.84
640.14	1033.54
640.49	1027.37
640.83	1021.01
641.17	1014.35
641.52	1008.26
641.86	1001.58
642.20	995.37
642.55	988.69
642.89	982.20
643.23	975.90
643.58	969.95
643.92	963.52
644.26	957.20
644.61	950.98
644.95	944.91
645.29	938.46
645.64	931.67
645.98	925.53
646.32	919.68
646.66	913.58
647.01	907.77
647.35	901.98
647.69	895.62
648.04	889.53
648.38	883.54
648.72	877.52
649.06	871.55
649.41	865.63
649.75	859.70
650.09	853.66
650.43	847.26
650.78	841.04
651.12	834.77
651.46	828.80
651.80	823.01
652.14	816.97
652.49	811.00
652.83	805.16
653.17	798.86
653.51	792.96
653.85	787.05
654.20	781.20
654.54	775.24
654.88	769.67
655.22	763.88
655.56	758.05
655.90	752.00
656.25	746.12
656.59	740.50
656.93	735.41
657.27	730.17
657.61	724.98
657.95	719.87
658.29	714.81
658.64	709.68
658.98	704.34
659.32	698.98
659.66	693.78
660.00	688.30
660.34	683.27
660.68	677.95
661.02	672.98
661.36	668.20
661.70	663.28
662.05	658.52
662.39	653.93
662.73	649.54
663.07	645.22
663.41	640.91
663.75	636.41
664.09	631.52
664.43	626.77
664.77	622.30
665.11	617.76
665.45	613.28
665.79	608.65
666.13	604.26
666.47	599.91
666.81	595.71
667.15	591.77
667.49	587.68
667.83	583.93
668.17	580.00
668.51	576.00
668.85	572.11
669.19	568.23
669.53	564.26
669.87	560.14
670.21	556.29
670.55	552.33
670.89	548.81
671.23	545.59
671.57	542.08
671.91	538.37
672.25	534.80
672.58	531.47
672.92	528.16
673.26	524.87
673.60	521.66
673.94	518.22
674.28	514.99
674.62	511.81
674.96	508.44
675.30	505.27
675.64	502.02
675.97	498.99
676.31	495.97
676.65	493.02
676.99	490.36
677.33	487.47
677.67	484.69
678.01	481.38
678.34	478.14
678.68	475.21
679.02	472.24
679.36	469.30
679.70	466.25
680.04	463.27
680.37	460.30
680.71	457.37
681.05	454.86
681.39	452.13
681.73	449.45
682.06	447.01
682.40	444.40
682.74	441.84
683.08	439.28
683.42	436.64
683.75	434.20
684.09	431.61
684.43	429.06
684.77	426.34
685.10	423.90
685.44	421.50
685.78	419.02
686.12	416.89
686.45	414.65
686.79	412.39
687.13	410.31
687.46	408.07
687.80	406.01
688.14	403.65
688.48	401.55
688.81	399.25
689.15	396.91
689.49	394.70
689.82	392.45
690.16	390.09
690.50	387.86
690.83	385.51
691.17	383.22
691.51	380.88
691.84	378.75
692.18	376.74
692.52	374.78
692.85	372.91
693.19	370.96
693.52	368.92
693.86	366.97
694.20	365.03
694.53	363.20
694.87	361.19
695.21	359.31
695.54	357.30
695.88	355.53
696.21	353.62
696.55	351.78
696.88	349.96
697.22	348.25
697.56	346.64
697.89	345.02
698.23	343.28
698.56	341.79
698.90	340.33
699.23	338.66
699.57	336.97
699.90	335.27
700.24	333.61
700.58	332.03
700.91	330.48
701.25	328.99
701.58	327.52
701.92	326.00
702.25	324.51
702.59	323.11
702.92	321.65
703.26	320.33
703.59	319.01
703.93	317.85
704.26	316.54
704.60	315.17
704.93	313.79
705.26	312.59
705.60	311.36
705.93	310.05
706.27	308.90
706.60	307.79
706.94	306.67
707.27	305.39
707.61	304.24
707.94	303.07
708.27	301.76
708.61	300.54
708.94	299.41
709.28	298.30
709.61	297.27
709.94	296.23
710.28	295.03
710.61	294.03
710.95	292.76
711.28	291.82
711.61	290.73
711.95	289.74
712.28	288.70
712.61	287.64
712.95	286.78
713.28	285.92
713.61	284.95
713.95	284.00
714.28	283.19
714.61	282.26
714.95	281.31
715.28	280.46
715.61	279.45
715.95	278.59
716.28	277.70
716.61	276.84
716.95	275.98
717.28	275.22
717.61	274.24
717.94	273.47
718.28	272.54
718.61	271.88
718.94	271.19
719.27	270.47
719.61	269.74
719.94	268.94
720.27	268.13
720.60	267.29
720.94	266.65
721.27	265.85
721.60	265.19
721.93	264.66
722.27	264.04
722.60	263.56
722.93	263.00
723.26	262.40
723.59	261.77
723.93	261.18
724.26	260.63
724.59	260.13
724.92	259.57
725.25	259.09
725.59	258.55
725.92	257.99
726.25	257.53
726.58	257.08
726.91	256.54
727.24	255.94
727.57	255.55
727.91	254.96
728.24	254.64
728.57	254.20
728.90	253.72
729.23	253.20
729.56	252.88
729.89	252.40
730.22	251.92
730.55	251.49
730.89	251.05
731.22	250.53
731.55	250.12
731.88	249.75
732.21	249.31
732.54	248.82
732.87	248.45
733.20	248.01
733.53	247.54
733.86	247.21
734.19	246.85
734.52	246.45
734.85	246.19
735.18	245.62
735.51	245.24
735.84	244.77
736.17	244.40
736.50	243.85
736.83	243.65
737.16	243.31
737.49	242.93
737.82	242.50
738.15	242.15
738.48	241.80
738.81	241.48
739.14	241.08
739.47	240.70
739.80	240.37
740.13	239.98
740.46	239.58
740.79	239.16
741.12	238.85
741.45	238.52
741.78	238.14
742.11	237.95
742.44	237.60
742.77	237.40
743.10	237.12
743.43	236.82
743.75	236.30
744.08	236.17
744.41	235.83
744.74	235.55
745.07	235.26
745.40	234.95
745.73	234.69
746.06	234.41
746.39	234.17
746.71	233.78
747.04	233.49
747.37	233.27
747.70	233.06
748.03	232.78
748.36	232.54
748.68	232.18
749.01	231.86
749.34	231.68
749.67	231.41
750.00	231.18
750.33	231.01
750.65	230.78
750.98	230.37
751.31	230.12
751.64	229.88
751.97	229.83
752.29	229.65
752.62	229.40
752.95	229.15
753.28	228.84
753.60	228.68
753.93	228.49
754.26	228.28
754.59	227.95
754.91	227.75
755.24	227.49
755.57	227.29
755.90	227.10
756.22	226.85
756.55	226.57
756.88	226.35
757.20	226.11
757.53	225.92
757.86	225.75
758.19	225.56
758.51	225.44
758.84	225.13
759.17	224.96
759.49	224.70
759.82	224.69
760.15	224.64
760.47	224.44
760.80	224.25
761.13	224.17
761.45	224.05
761.78	223.84
762.11	223.73
762.43	223.63
762.76	223.47
763.08	223.33
763.41	223.21
763.74	223.07
764.06	222.90
764.39	222.74
764.71	222.56
765.04	222.47
765.37	222.29
765.69	222.17
766.02	222.05
766.34	221.91
766.67	221.66
767.00	221.54
767.32	221.49
767.65	221.50
767.97	221.32
768.30	221.27
768.62	221.17
768.95	221.09
769.27	220.95
769.60	220.97
769.92	220.79
770.25	220.70
770.57	220.59
770.90	220.54
771.22	220.42
771.55	220.32
771.87	220.16
772.20	220.02
772.52	220.03
772.85	220.00
773.17	219.91
773.50	219.80
773.82	219.58
774.15	219.43
774.47	219.25
774.80	219.13
775.12	219.02
775.45	218.98
775.77	218.84
776.09	218.76
776.42	218.54
776.74	218.49
777.07	218.40
777.39	218.36
777.72	218.15
778.04	218.10
778.36	218.01
778.69	217.99
779.01	217.96
779.33	217.66
779.66	217.45
779.98	217.41
780.31	217.35
780.63	217.48
780.95	217.38
781.28	217.30
781.60	217.22
781.92	217.10
782.25	217.06
782.57	216.98
782.89	216.94
783.22	216.95
783.54	216.82
783.86	216.84
784.19	216.75
784.51	216.86
784.83	216.78
785.16	216.74
785.48	216.66
785.80	216.63
786.12	216.68
786.45	216.67
786.77	216.62
787.09	216.55
787.42	216.41
787.74	216.41
788.06	216.35
788.38	216.31
788.71	216.26
789.03	216.18
789.35	216.18
789.67	216.09
789.99	215.97
790.32	215.90
790.64	215.81
790.96	215.86
791.28	215.67
791.61	215.60
791.93	215.63
792.25	215.61
792.57	215.64
792.89	215.55
793.21	215.53
793.54	215.47
793.86	215.43
794.18	215.39
794.50	215.28
794.82	215.28
795.14	215.15
795.47	215.11
795.79	215.04
796.11	214.96
796.43	214.90
796.75	214.89
797.07	214.90
797.39	214.82
797.71	214.63
798.04	214.61
798.36	214.60
798.68	214.50
799.00	214.43
799.32	214.36
799.64	214.41
799.96	214.30
800.28	214.31
800.60	214.26
800.92	214.33
801.24	214.29
801.56	214.21
801.89	214.24
802.21	214.28
802.53	214.20
802.85	214.16
803.17	214.27
803.49	214.23
803.81	214.17
804.13	214.14
804.45	214.13
804.77	214.16
805.09	214.06
805.41	214.00
805.73	213.92
806.05	213.85
806.37	213.82
806.69	213.90
807.01	213.80
807.33	213.83
807.65	213.62
807.97	213.73
808.28	213.69
808.60	213.61
808.92	213.50
809.24	213.59
809.56	213.60
809.88	213.46
810.20	213.36
810.52	213.38
810.84	213.33
811.16	213.28
811.48	213.16
811.80	213.25
812.12	213.26
812.43	213.31
812.75	213.21
813.07	213.10
813.39	213.05
813.71	213.02
814.03	212.95
814.35	212.96
814.67	212.80
814.98	212.78
815.30	212.79
815.62	212.79
815.94	212.71
816.26	212.65
816.58	212.60
816.89	212.59
817.21	212.53
817.53	212.59
817.85	212.57
818.17	212.64
818.48	212.61
818.80	212.63
819.12	212.58
819.44	212.55
819.76	212.58
820.07	212.57
820.39	212.57
820.71	212.59
821.03	212.60
821.34	212.60
821.66	212.61
821.98	212.61
822.30	212.57
822.61	212.64
822.93	212.73
823.25	212.72
823.57	212.72
823.88	212.77
824.20	212.70
824.52	212.75
824.83	212.75
825.15	212.65
825.47	212.57
825.79	212.56
826.10	212.60
826.42	212.56
826.74	212.50
827.05	212.45
827.37	212.42
827.69	212.39
828.00	212.41
828.32	212.36
828.64	212.33
828.95	212.45
829.27	212.45
829.58	212.29
829.90	212.28
830.22	212.29
830.53	212.20
830.85	212.15
831.17	212.12
831.48	212.05
831.80	212.07
832.11	212.07
832.43	212.07
832.75	212.09
833.06	212.20
833.38	212.13
833.69	212.18
834.01	212.11
834.32	212.13
834.64	212.11
834.96	212.12
835.27	212.15
835.59	212.06
835.90	212.01
836.22	212.05
836.53	212.11
836.85	212.17
837.16	212.35
837.48	212.43
837.79	212.50
838.11	212.52
838.42	212.50
838.74	212.57
839.05	212.51
839.37	212.48
839.68	212.35
840.00	212.31
840.31	212.25
840.63	212.24
840.94	212.20
841.26	212.19
841.57	212.21
841.88	212.18
842.20	212.15
842.51	212.05
842.83	212.08
843.14	212.11
843.46	212.07
843.77	211.94
844.08	211.87
844.40	211.78
844.71	211.69
845.03	211.69
845.34	211.61
845.65	211.66
845.97	211.64
846.28	211.65
846.60	211.71
846.91	211.74
847.22	211.80
847.54	211.84
847.85	211.82
848.16	211.79
848.48	211.78
848.79	211.90
849.10	211.93
849.42	211.89
849.73	211.76
850.04	211.77
850.36	211.79
850.67	211.88
850.98	211.84
851.30	211.89
851.61	211.90
851.92	211.94
852.23	211.96
852.55	211.97
852.86	211.99
853.17	211.96
853.49	212.00
853.80	212.02
854.11	212.02
854.42	212.08
854.74	212.09
855.05	212.08
855.36	211.89
855.67	211.90
855.99	211.94
856.30	212.18
856.61	212.11
856.92	211.99
857.23	211.93
857.55	211.92
857.86	211.94
858.17	211.98
858.48	211.94
858.79	211.88
859.11	211.86
859.42	211.86
859.73	211.88
860.04	211.89
860.35	211.78
860.66	211.71
860.98	211.69
861.29	211.65
861.60	211.61
861.91	211.66
862.22	211.65
862.53	211.58
862.84	211.30
863.16	211.36
863.47	211.38
863.78	211.38
864.09	211.47
864.40	211.45
864.71	211.42
865.02	211.46
865.33	211.49
865.64	211.41
865.95	211.38
866.27	211.48
866.58	211.45
866.89	211.48
867.20	211.47
867.51	211.46
867.82	211.43
868.13	211.55
868.44	211.56
868.75	211.55
869.06	211.52
869.37	211.53
869.68	211.52
869.99	211.55
870.30	211.57
870.61	211.52
870.92	211.47
871.23	211.46
871.54	211.43
871.85	211.43
872.16	211.46
872.47	211.43
872.78	211.31
873.09	211.29
873.40	211.37
873.71	211.39
874.02	211.44
874.33	211.40
874.64	211.32
874.95	211.32
875.26	211.27
875.56	211.32
875.87	211.42
876.18	211.43
876.49	211.60
876.80	211.52
877.11	211.46
877.42	211.51
877.73	211.51
878.04	211.48
878.35	211.50
878.66	211.47
878.96	211.52
879.27	211.49
879.58	211.46
879.89	211.39
880.20	211.47
880.51	211.42
880.82	211.48
881.12	211.47
881.43	211.43
881.74	211.40
882.05	211.37
882.36	211.25
882.67	211.24
882.97	211.06
883.28	211.06
883.59	211.14
883.90	211.12
884.21	211.16
884.51	211.16
884.82	211.07
885.13	211.13
885.44	211.15
885.74	211.13
886.05	211.11
886.36	211.14
886.67	211.03
886.98	211.10
887.28	211.13
887.59	211.20
887.90	211.24
888.20	211.32
888.51	211.40
888.82	211.47
889.13	211.42
889.43	211.57
889.74	211.61
890.05	211.53
890.35	211.51
890.66	211.43
890.97	211.44
891.28	211.43
891.58	211.43
891.89	211.40
892.20	211.44
892.50	211.43
892.81	211.37
893.12	211.40
893.42	211.40
893.73	211.41
894.04	211.35
894.34	211.32
894.65	211.27
894.95	211.19
895.26	211.14
895.57	211.31
895.87	211.12
896.18	211.19
896.48	211.27
896.79	211.33
897.10	211.37
897.40	211.35
897.71	211.41
898.01	211.42
898.32	211.44
898.63	211.43
898.93	211.47
899.24	211.49
899.54	211.52
899.85	211.45
900.15	211.37
900.46	211.41
900.76	211.45
901.07	211.47
901.38	211.49
901.68	211.55
901.99	211.42
902.29	211.40
902.60	211.31
902.90	211.23
903.21	211.14
903.51	211.20
903.82	211.28
904.12	211.29
904.43	211.25
904.73	211.19
905.03	211.25
905.34	211.40
905.64	211.36
905.95	211.32
906.25	211.34
906.56	211.35
906.86	211.28
907.17	211.16
907.47	211.15
907.77	211.11
908.08	211.08
908.38	211.07
908.69	211.15
908.99	211.15
909.30	211.17
909.60	211.20
909.90	211.10
910.21	210.95
910.51	210.98
910.81	211.00
911.12	211.05
911.42	211.06
911.73	210.88
912.03	210.90
912.33	210.90
912.64	210.87
912.94	210.86
913.24	210.91
913.55	210.93
913.85	210.96
914.15	210.98
914.46	210.96
914.76	210.95
915.06	210.92
915.37	210.93
915.67	210.90
915.97	210.92
916.27	210.92
916.58	210.99
916.88	210.87
917.18	210.84
917.49	210.90
917.79	210.96
918.09	211.04
918.39	211.14
918.70	211.13
919.00	211.19
919.30	211.28
919.60	211.31
919.91	211.32
920.21	211.31
920.51	211.30
920.81	211.35
921.12	211.36
921.42	211.40
921.72	211.43
922.02	211.47
922.32	211.50
922.63	211.59
922.93	211.70
923.23	211.77
923.53	211.74
923.83	211.68
924.13	211.60
924.44	211.56
924.74	211.50
925.04	211.61
925.34	211.57
925.64	211.53
925.94	211.55
926.24	211.63
926.55	211.64
926.85	211.68
927.15	211.63
927.45	211.62
927.75	211.54
928.05	211.57
928.35	211.57
928.65	211.61
928.95	211.54
929.26	211.47
929.56	211.47
929.86	211.52
930.16	211.49
930.46	211.48
930.76	211.49
931.06	211.47
931.36	211.32
931.66	211.38
931.96	211.38
932.26	211.31
932.56	211.22
932.86	211.23
933.16	211.24
933.46	211.21
933.76	211.16
934.06	211.32
934.36	211.40
934.66	211.40
934.96	211.38
935.26	211.35
935.56	211.32
935.86	211.36
936.16	211.39
936.46	211.39
936.76	211.37
937.06	211.33
937.36	211.35
937.66	211.37
937.96	211.28
938.26	211.21
938.56	211.19
938.86	211.21
939.16	211.22
939.46	211.27
939.76	211.28
940.06	211.32
940.35	211.15
940.65	211.04
940.95	210.97
941.25	210.92
941.55	210.92
941.85	210.93
942.15	210.90
942.45	210.88
942.75	210.90
943.04	210.95
943.34	210.95
943.64	210.99
943.94	211.00
944.24	211.06
944.54	211.03
944.84	210.95
945.13	210.96
945.43	210.85
945.73	210.78
946.03	210.73
946.33	210.72
946.62	210.77
946.92	210.72
947.22	210.75
947.52	210.68
947.82	210.78
948.11	210.74
948.41	210.71
948.71	210.70
949.01	210.74
949.31	210.72
949.60	210.68
949.90	210.68
950.20	210.63
950.50	210.60
950.79	210.70
951.09	210.83
951.39	210.79
951.69	210.85
951.98	210.97
952.28	211.05
952.58	211.04
952.87	211.02
953.17	210.99
953.47	211.05
953.76	211.10
954.06	210.99
954.36	211.03
954.66	210.96
954.95	211.01
955.25	210.99
955.55	210.90
955.84	210.94
956.14	210.95
956.44	210.97
956.73	210.95
957.03	210.87
957.32	210.84
957.62	210.90
957.92	210.97
958.21	210.85
958.51	211.07
958.81	211.12
959.10	211.12
959.40	211.26
959.69	211.18
959.99	211.28
960.29	211.36
960.58	211.29
960.88	211.42
961.17	211.35
961.47	211.37
961.76	211.38
962.06	211.38
962.36	211.39
962.65	211.40
962.95	211.40
963.24	211.45
963.54	211.42
963.83	211.40
964.13	211.35
964.42	211.37
964.72	211.14
965.01	211.07
965.31	211.10
965.60	211.08
965.90	211.27
966.19	211.19
966.49	211.16
966.78	211.17
967.08	211.06
967.37	211.06
967.67	211.01
967.96	211.04
968.26	211.10
968.55	211.02
968.85	211.01
969.14	211.08
969.43	211.00
969.73	210.97
970.02	210.99
970.32	210.96
970.61	210.89
970.91	210.84
971.20	210.88
971.49	210.81
971.79	210.78
972.08	210.55
972.38	210.54
972.67	210.55
972.96	210.57
973.26	210.63
973.55	210.77
973.85	210.77
974.14	210.79
974.43	210.79
974.73	210.76
975.02	210.71
975.31	210.66
975.61	210.74
975.90	210.70
976.19	210.71
976.49	210.73
976.78	210.78
977.07	210.78
977.37	210.78
977.66	210.80
977.95	210.76
978.24	210.82
978.54	210.90
978.83	210.87
979.12	210.91
979.42	210.86
979.71	210.77
980.00	210.69
980.29	210.68
980.59	210.65
980.88	210.76
981.17	210.82
981.46	210.81
981.76	210.80
982.05	210.91
982.34	210.92
982.63	210.98
982.93	211.01
983.22	211.07
983.51	211.06
983.80	211.10
984.09	211.08
984.39	211.09
984.68	211.05
984.97	211.04
985.26	211.07
985.55	211.09
985.85	211.03
986.14	211.24
986.43	211.25
986.72	211.25
987.01	211.19
987.30	211.15
987.59	211.20
987.89	211.16
988.18	211.12
988.47	211.01
988.76	210.97
989.05	210.90
989.34	210.90
989.63	210.96
989.92	210.90
990.22	210.92
990.51	210.96
990.80	210.96
991.09	211.01
991.38	210.99
991.67	211.04
991.96	211.03
992.25	210.90
992.54	210.92
992.83	210.92
993.12	210.92
993.41	210.94
993.70	211.03
993.99	211.04
994.28	211.03
994.58	211.15
994.87	211.05
995.16	211.13
995.45	211.12
995.74	211.07
996.03	211.17
996.32	211.20
996.61	211.17
996.90	211.14
997.19	211.12
997.48	211.11
997.77	211.07
998.06	211.12
998.34	211.11
998.63	211.04
998.92	211.03
999.21	211.00
999.50	210.93
999.79	210.82
1000.08	210.85
1000.37	210.83
1000.66	210.76
1000.95	210.86
1001.24	210.83
1001.53	210.85
1001.82	210.80
1002.11	210.72
1002.40	210.75
1002.68	210.75
1002.97	210.90
1003.26	210.82
1003.55	210.81
1003.84	210.80
1004.13	210.88
1004.42	210.86
1004.71	210.90
1004.99	210.84
1005.28	210.91
1005.57	210.95
1005.86	210.91
1006.15	210.92
1006.44	210.90
1006.72	210.89
1007.01	210.85
1007.30	210.80
1007.59	210.75
1007.88	210.75
1008.17	210.74
1008.45	210.69
1008.74	210.62
1009.03	210.57
1009.32	210.58
1009.60	210.55
1009.89	210.48
1010.18	210.38
1010.47	210.42
1010.76	210.43
1011.04	210.42
1011.33	210.41
1011.62	210.42
1011.91	210.41
1012.19	210.35
1012.48	210.38
1012.77	210.45
1013.05	210.50
1013.34	210.50
1013.63	210.43
1013.92	210.43
1014.20	210.37
1014.49	210.38
1014.78	210.40
1015.06	210.24
1015.35	210.26
1015.64	210.30
1015.92	210.31
1016.21	210.25
1016.50	210.25
1016.78	210.20
1017.07	210.22
1017.36	210.16
1017.64	210.18
1017.93	210.20
1018.22	210.27
1018.50	210.28
1018.79	210.25
1019.08	210.21
1019.36	210.22
1019.65	210.27
1019.93	210.34
1020.22	210.40
1020.51	210.52
1020.79	210.58
1021.08	211.55
1021.36	210.65
1021.65	210.45
1021.94	210.35
1022.22	210.40
1022.51	210.50
1022.79	211.05
1023.08	210.50
1023.36	213.10
1023.65	211.30
>>>>>End Processed Spectral Data<<<<<
