SpectraSuite Data File
++++++++++++++++++++++++++++++++++++
Date: Mon Feb 25 17:35:42 EST 2013
User: group
Dark Spectrum Present: No
Reference Spectrum Present: No
Number of Sampled Component Spectra: 1
Spectrometers: USB2E7196
Integration Time (usec): 52000 (USB2E7196)
Spectra Averaged: 20 (USB2E7196)
Boxcar Smoothing: 10 (USB2E7196)
Correct for Electrical Dark: No (USB2E7196)
Strobe/Lamp Enabled: No (USB2E7196)
Correct for Detector Non-linearity: No (USB2E7196)
Correct for Stray Light: No (USB2E7196)
Number of Pixels in Processed Spectrum: 2048
>>>>>Begin Processed Spectral Data<<<<<
339.09	0.00
339.48	198.80
339.86	200.85
340.24	201.70
340.63	202.70
341.01	207.05
341.39	205.50
341.78	205.85
342.16	208.30
342.54	206.90
342.93	197.68
343.31	207.69
343.69	208.25
344.07	208.65
344.46	209.00
344.84	209.43
345.22	209.60
345.60	209.84
345.99	210.07
346.37	210.21
346.75	210.37
347.13	210.45
347.52	210.53
347.90	210.61
348.28	210.74
348.66	210.83
349.05	210.89
349.43	210.88
349.81	210.95
350.19	211.04
350.57	211.22
350.96	211.32
351.34	211.42
351.72	211.47
352.10	211.60
352.48	211.82
352.87	211.83
353.25	211.90
353.63	212.04
354.01	212.08
354.39	212.15
354.77	212.21
355.15	212.32
355.54	212.40
355.92	212.51
356.30	212.55
356.68	212.75
357.06	212.80
357.44	212.86
357.82	212.96
358.20	213.02
358.58	213.08
358.97	213.17
359.35	213.27
359.73	213.38
360.11	213.46
360.49	213.48
360.87	213.61
361.25	213.67
361.63	213.75
362.01	213.89
362.39	214.00
362.77	214.15
363.15	214.17
363.53	214.16
363.91	214.14
364.29	214.22
364.67	214.04
365.05	214.04
365.43	214.14
365.81	214.17
366.19	214.31
366.57	214.40
366.95	214.39
367.33	214.34
367.71	214.36
368.09	214.36
368.47	214.33
368.85	214.24
369.23	214.30
369.61	214.19
369.99	214.23
370.37	214.22
370.75	214.20
371.13	214.15
371.51	214.19
371.89	214.21
372.27	214.17
372.65	214.21
373.03	214.22
373.41	214.20
373.78	214.14
374.16	213.95
374.54	213.78
374.92	213.70
375.30	213.63
375.68	213.51
376.06	213.51
376.44	213.47
376.82	213.43
377.19	213.40
377.57	213.38
377.95	213.23
378.33	213.17
378.71	213.10
379.09	213.15
379.47	213.14
379.84	213.02
380.22	212.89
380.60	212.77
380.98	212.67
381.36	212.57
381.73	212.46
382.11	212.50
382.49	212.46
382.87	212.45
383.25	212.44
383.62	212.66
384.00	212.55
384.38	212.45
384.76	212.52
385.13	212.46
385.51	212.40
385.89	212.37
386.27	212.30
386.64	212.29
387.02	212.20
387.40	212.08
387.78	212.09
388.15	212.09
388.53	212.03
388.91	212.03
389.29	211.95
389.66	212.01
390.04	211.92
390.42	211.90
390.79	211.85
391.17	211.80
391.55	211.59
391.92	211.53
392.30	211.62
392.68	211.53
393.05	211.49
393.43	211.48
393.81	211.46
394.18	211.48
394.56	211.40
394.94	211.40
395.31	211.44
395.69	211.50
396.06	211.51
396.44	211.52
396.82	211.48
397.19	211.63
397.57	211.61
397.95	211.62
398.32	211.61
398.70	211.66
399.07	211.77
399.45	211.80
399.82	211.86
400.20	211.88
400.58	211.88
400.95	211.87
401.33	211.94
401.70	212.08
402.08	212.10
402.45	212.16
402.83	212.30
403.20	212.34
403.58	212.30
403.95	212.43
404.33	212.59
404.71	212.73
405.08	212.90
405.46	213.03
405.83	213.21
406.21	213.44
406.58	213.58
406.96	213.76
407.33	213.92
407.70	214.15
408.08	214.51
408.45	214.75
408.83	215.05
409.20	215.29
409.58	215.53
409.95	215.86
410.33	216.21
410.70	216.42
411.08	216.74
411.45	217.15
411.82	217.44
412.20	217.80
412.57	218.37
412.95	218.72
413.32	219.20
413.69	219.76
414.07	220.28
414.44	221.00
414.82	221.60
415.19	222.29
415.56	223.09
415.94	223.76
416.31	224.70
416.68	225.60
417.06	226.66
417.43	227.62
417.81	228.68
418.18	229.84
418.55	231.14
418.93	232.47
419.30	233.84
419.67	235.26
420.04	236.76
420.42	238.30
420.79	240.11
421.16	241.85
421.54	243.68
421.91	245.50
422.28	247.33
422.66	249.35
423.03	251.55
423.40	253.63
423.77	255.86
424.15	258.12
424.52	260.51
424.89	263.00
425.26	265.57
425.64	267.97
426.01	270.54
426.38	273.27
426.75	276.00
427.13	278.92
427.50	281.96
427.87	285.08
428.24	288.12
428.61	291.11
428.99	294.47
429.36	297.97
429.73	301.44
430.10	304.96
430.47	308.59
430.85	312.15
431.22	316.00
431.59	320.19
431.96	324.08
432.33	328.36
432.70	332.52
433.08	337.32
433.45	341.96
433.82	346.56
434.19	351.68
434.56	356.70
434.93	361.44
435.30	366.30
435.68	371.65
436.05	376.95
436.42	381.96
436.79	386.69
437.16	391.82
437.53	397.26
437.90	402.59
438.27	407.75
438.64	413.25
439.01	418.26
439.38	422.70
439.75	427.10
440.13	432.07
440.50	436.75
440.87	440.58
441.24	444.48
441.61	448.85
441.98	451.86
442.35	455.46
442.72	459.11
443.09	462.59
443.46	464.63
443.83	466.04
444.20	467.32
444.57	469.09
444.94	469.87
445.31	470.66
445.68	471.38
446.05	471.56
446.42	470.85
446.79	470.10
447.16	469.27
447.53	468.59
447.90	466.38
448.27	464.34
448.64	461.36
449.01	459.19
449.37	455.59
449.74	452.05
450.11	447.96
450.48	443.39
450.85	438.74
451.22	434.65
451.59	430.69
451.96	427.05
452.33	422.13
452.70	417.70
453.07	412.53
453.43	407.21
453.80	402.33
454.17	397.39
454.54	392.87
454.91	387.99
455.28	383.18
455.65	378.76
456.02	374.34
456.38	370.55
456.75	365.93
457.12	361.90
457.49	358.12
457.86	354.37
458.23	351.19
458.59	347.62
458.96	344.18
459.33	341.09
459.70	337.90
460.07	335.41
460.43	332.55
460.80	329.79
461.17	327.45
461.54	324.96
461.91	322.65
462.27	320.16
462.64	317.98
463.01	315.74
463.38	313.59
463.74	311.34
464.11	309.44
464.48	307.77
464.85	306.00
465.21	304.64
465.58	303.19
465.95	301.48
466.32	300.05
466.68	298.55
467.05	297.22
467.42	295.79
467.78	294.26
468.15	292.83
468.52	291.84
468.88	290.50
469.25	289.24
469.62	288.35
469.98	287.40
470.35	286.53
470.72	285.60
471.08	284.63
471.45	283.86
471.82	283.14
472.18	282.22
472.55	281.55
472.92	280.82
473.28	280.17
473.65	279.54
474.02	278.96
474.38	278.49
474.75	278.08
475.11	277.72
475.48	277.50
475.85	277.35
476.21	277.16
476.58	277.00
476.94	276.87
477.31	276.79
477.67	276.72
478.04	276.78
478.41	276.96
478.77	277.37
479.14	277.53
479.50	277.70
479.87	278.08
480.23	278.53
480.60	278.89
480.96	279.24
481.33	279.82
481.69	280.34
482.06	280.94
482.42	281.50
482.79	282.16
483.15	282.93
483.52	283.92
483.88	284.82
484.25	285.77
484.61	286.83
484.98	287.84
485.34	289.16
485.71	290.46
486.07	291.82
486.44	292.93
486.80	294.31
487.17	295.81
487.53	297.47
487.90	299.20
488.26	301.09
488.62	303.09
488.99	305.15
489.35	307.37
489.72	309.72
490.08	312.22
490.44	314.76
490.81	317.45
491.17	320.03
491.54	322.88
491.90	325.91
492.26	329.23
492.63	332.57
492.99	335.90
493.36	339.55
493.72	343.43
494.08	347.60
494.45	351.94
494.81	356.59
495.17	361.21
495.54	366.16
495.90	371.23
496.26	376.50
496.63	382.00
496.99	387.83
497.35	393.95
497.72	400.07
498.08	406.63
498.44	413.37
498.80	420.65
499.17	428.18
499.53	435.89
499.89	443.89
500.26	452.10
500.62	460.52
500.98	469.40
501.34	478.65
501.71	488.18
502.07	497.93
502.43	507.82
502.79	518.10
503.16	528.75
503.52	539.79
503.88	551.18
504.24	562.91
504.60	574.88
504.97	587.02
505.33	599.74
505.69	613.10
506.05	626.58
506.41	640.13
506.78	653.95
507.14	668.05
507.50	682.64
507.86	697.76
508.22	713.29
508.59	728.85
508.95	744.89
509.31	761.26
509.67	777.91
510.03	795.06
510.39	812.88
510.75	830.76
511.12	848.89
511.48	867.35
511.84	886.08
512.20	904.96
512.56	924.56
512.92	944.24
513.28	963.74
513.64	983.84
514.00	1003.94
514.37	1024.44
514.73	1045.42
515.09	1066.39
515.45	1087.32
515.81	1108.44
516.17	1129.96
516.53	1151.31
516.89	1172.85
517.25	1194.53
517.61	1216.48
517.97	1237.99
518.33	1259.39
518.69	1281.32
519.05	1303.54
519.41	1325.88
519.77	1348.65
520.13	1370.75
520.49	1393.21
520.85	1415.98
521.21	1438.47
521.57	1461.66
521.93	1483.57
522.29	1506.40
522.65	1528.89
523.01	1551.39
523.37	1573.73
523.73	1596.15
524.09	1618.54
524.45	1640.84
524.81	1663.49
525.17	1685.92
525.53	1708.64
525.89	1731.54
526.25	1753.46
526.61	1774.97
526.97	1796.93
527.33	1818.40
527.68	1840.05
528.04	1861.26
528.40	1881.93
528.76	1902.79
529.12	1923.60
529.48	1945.86
529.84	1966.49
530.20	1987.34
530.56	2008.33
530.91	2029.44
531.27	2050.29
531.63	2070.90
531.99	2090.98
532.35	2110.45
532.71	2129.65
533.07	2149.24
533.42	2167.86
533.78	2187.28
534.14	2205.94
534.50	2223.09
534.86	2240.93
535.21	2257.91
535.57	2275.76
535.93	2293.16
536.29	2310.30
536.65	2326.85
537.00	2342.21
537.36	2357.85
537.72	2373.27
538.08	2388.60
538.44	2403.81
538.79	2418.88
539.15	2433.39
539.51	2448.42
539.87	2463.64
540.22	2478.31
540.58	2493.32
540.94	2507.91
541.29	2521.01
541.65	2533.44
542.01	2546.81
542.37	2558.74
542.72	2571.09
543.08	2582.00
543.44	2593.88
543.79	2604.38
544.15	2614.85
544.51	2626.06
544.87	2637.46
545.22	2647.11
545.58	2655.61
545.94	2663.20
546.29	2669.94
546.65	2676.86
547.01	2683.53
547.36	2689.81
547.72	2695.56
548.07	2699.94
548.43	2704.00
548.79	2707.96
549.14	2713.24
549.50	2718.08
549.86	2722.67
550.21	2727.17
550.57	2731.90
550.92	2734.95
551.28	2737.90
551.64	2740.80
551.99	2743.88
552.35	2745.68
552.70	2748.47
553.06	2751.52
553.41	2754.91
553.77	2758.21
554.13	2760.49
554.48	2762.42
554.84	2763.77
555.19	2764.90
555.55	2765.56
555.90	2766.42
556.26	2767.11
556.61	2767.15
556.97	2766.09
557.32	2765.96
557.68	2764.40
558.03	2763.11
558.39	2761.94
558.74	2761.71
559.10	2761.00
559.45	2758.93
559.81	2757.78
560.16	2755.15
560.52	2753.06
560.87	2749.92
561.23	2746.50
561.58	2744.29
561.94	2741.23
562.29	2737.81
562.64	2735.61
563.00	2733.32
563.35	2731.42
563.71	2729.90
564.06	2727.88
564.42	2726.21
564.77	2723.94
565.12	2722.51
565.48	2719.62
565.83	2716.28
566.19	2713.15
566.54	2708.55
566.89	2705.04
567.25	2701.36
567.60	2698.12
567.96	2694.28
568.31	2691.18
568.66	2687.22
569.02	2682.58
569.37	2677.62
569.72	2673.84
570.08	2668.13
570.43	2662.29
570.78	2656.51
571.14	2650.12
571.49	2643.43
571.84	2637.36
572.20	2630.22
572.55	2623.70
572.90	2616.72
573.26	2609.91
573.61	2602.91
573.96	2596.65
574.31	2588.61
574.67	2580.10
575.02	2571.41
575.37	2563.01
575.72	2553.69
576.08	2545.88
576.43	2537.22
576.78	2529.30
577.13	2520.98
577.49	2512.86
577.84	2504.96
578.19	2497.13
578.54	2489.67
578.90	2482.52
579.25	2473.54
579.60	2464.75
579.95	2454.78
580.30	2446.44
580.66	2438.23
581.01	2428.77
581.36	2419.24
581.71	2410.76
582.06	2402.15
582.42	2393.68
582.77	2384.41
583.12	2375.47
583.47	2366.75
583.82	2358.29
584.17	2348.98
584.53	2339.74
584.88	2330.94
585.23	2321.70
585.58	2311.93
585.93	2301.83
586.28	2292.23
586.63	2283.19
586.98	2274.25
587.34	2265.99
587.69	2256.70
588.04	2247.27
588.39	2238.57
588.74	2229.53
589.09	2220.63
589.44	2211.08
589.79	2202.60
590.14	2194.68
590.49	2186.10
590.84	2176.82
591.19	2168.44
591.54	2159.63
591.89	2149.40
592.25	2139.94
592.60	2130.42
592.95	2120.87
593.30	2111.30
593.65	2101.47
594.00	2091.80
594.35	2083.50
594.70	2074.10
595.05	2065.40
595.40	2056.47
595.75	2046.85
596.10	2038.20
596.45	2029.46
596.80	2021.65
597.15	2013.15
597.50	2003.65
597.85	1994.99
598.19	1986.41
598.54	1977.92
598.89	1969.73
599.24	1963.23
599.59	1955.98
599.94	1948.69
600.29	1940.77
600.64	1933.01
600.99	1924.42
601.34	1917.23
601.69	1908.30
602.04	1900.13
602.39	1891.77
602.74	1883.80
603.08	1877.43
603.43	1870.40
603.78	1862.34
604.13	1854.33
604.48	1846.52
604.83	1839.62
605.18	1832.31
605.53	1824.59
605.87	1816.24
606.22	1808.40
606.57	1799.91
606.92	1791.29
607.27	1783.17
607.62	1775.52
607.96	1768.35
608.31	1762.10
608.66	1753.80
609.01	1745.81
609.36	1737.81
609.70	1729.54
610.05	1721.59
610.40	1713.00
610.75	1703.90
611.10	1695.80
611.44	1686.23
611.79	1676.86
612.14	1667.33
612.49	1657.56
612.83	1648.53
613.18	1639.04
613.53	1630.06
613.88	1620.06
614.22	1611.36
614.57	1601.92
614.92	1592.65
615.27	1583.36
615.61	1573.56
615.96	1564.79
616.31	1556.60
616.65	1548.86
617.00	1540.69
617.35	1532.17
617.70	1522.90
618.04	1514.04
618.39	1504.89
618.74	1496.58
619.08	1487.68
619.43	1479.30
619.78	1471.92
620.12	1463.75
620.47	1456.06
620.82	1447.43
621.16	1439.35
621.51	1430.47
621.85	1422.13
622.20	1413.45
622.55	1404.91
622.89	1396.32
623.24	1388.20
623.59	1379.42
623.93	1370.63
624.28	1362.15
624.62	1353.89
624.97	1345.73
625.32	1337.84
625.66	1330.19
626.01	1322.65
626.35	1315.51
626.70	1307.59
627.04	1299.78
627.39	1292.06
627.73	1284.31
628.08	1277.22
628.43	1269.83
628.77	1262.43
629.12	1255.01
629.46	1248.64
629.81	1241.26
630.15	1233.99
630.50	1226.20
630.84	1218.78
631.19	1211.46
631.53	1204.69
631.88	1197.13
632.22	1189.73
632.57	1182.80
632.91	1175.34
633.26	1167.97
633.60	1160.76
633.95	1153.86
634.29	1146.60
634.64	1139.93
634.98	1132.83
635.32	1125.67
635.67	1119.19
636.01	1112.69
636.36	1105.78
636.70	1098.96
637.05	1092.35
637.39	1086.08
637.73	1080.02
638.08	1074.30
638.42	1068.28
638.77	1061.41
639.11	1055.16
639.45	1048.91
639.80	1042.08
640.14	1035.65
640.49	1029.45
640.83	1023.21
641.17	1016.78
641.52	1010.49
641.86	1003.72
642.20	997.48
642.55	990.89
642.89	984.10
643.23	977.56
643.58	971.68
643.92	964.93
644.26	958.67
644.61	952.44
644.95	946.07
645.29	939.54
645.64	932.96
645.98	926.87
646.32	920.76
646.66	914.54
647.01	908.70
647.35	902.67
647.69	896.23
648.04	890.00
648.38	883.99
648.72	877.86
649.06	871.87
649.41	865.75
649.75	859.85
650.09	854.00
650.43	848.17
650.78	841.91
651.12	835.82
651.46	829.79
651.80	823.70
652.14	817.75
652.49	811.71
652.83	805.81
653.17	799.68
653.51	793.76
653.85	788.02
654.20	781.98
654.54	776.23
654.88	770.69
655.22	764.86
655.56	759.03
655.90	753.29
656.25	747.36
656.59	741.90
656.93	736.73
657.27	731.55
657.61	725.81
657.95	720.67
658.29	715.66
658.64	710.62
658.98	705.34
659.32	699.93
659.66	694.75
660.00	689.45
660.34	684.21
660.68	679.13
661.02	674.04
661.36	669.40
661.70	664.54
662.05	659.70
662.39	655.25
662.73	650.85
663.07	646.40
663.41	642.22
663.75	637.51
664.09	632.73
664.43	628.04
664.77	623.85
665.11	619.32
665.45	614.66
665.79	610.20
666.13	605.72
666.47	601.51
666.81	597.38
667.15	593.18
667.49	589.37
667.83	585.24
668.17	581.35
668.51	577.46
668.85	573.71
669.19	569.94
669.53	565.88
669.87	561.81
670.21	557.88
670.55	553.86
670.89	550.50
671.23	547.13
671.57	543.58
671.91	539.89
672.25	536.35
672.58	532.82
672.92	529.31
673.26	526.13
673.60	522.81
673.94	519.29
674.28	515.89
674.62	512.56
674.96	509.42
675.30	506.31
675.64	503.00
675.97	499.70
676.31	496.69
676.65	493.70
676.99	490.94
677.33	488.02
677.67	485.14
678.01	481.94
678.34	478.87
678.68	475.83
679.02	472.81
679.36	469.86
679.70	466.96
680.04	464.07
680.37	461.09
680.71	458.21
681.05	455.58
681.39	452.96
681.73	450.25
682.06	447.71
682.40	445.05
682.74	442.44
683.08	439.86
683.42	437.15
683.75	434.63
684.09	431.99
684.43	429.50
684.77	426.87
685.10	424.30
685.44	421.69
685.78	419.33
686.12	417.00
686.45	414.65
686.79	412.44
687.13	410.30
687.46	408.10
687.80	405.90
688.14	403.56
688.48	401.40
688.81	399.19
689.15	396.87
689.49	394.60
689.82	392.47
690.16	390.11
690.50	387.85
690.83	385.60
691.17	383.30
691.51	381.05
691.84	378.99
692.18	376.95
692.52	374.98
692.85	372.99
693.19	371.20
693.52	369.30
693.86	367.39
694.20	365.48
694.53	363.59
694.87	361.64
695.21	359.79
695.54	357.83
695.88	355.99
696.21	354.11
696.55	352.31
696.88	350.40
697.22	348.70
697.56	347.16
697.89	345.48
698.23	343.88
698.56	342.25
698.90	340.78
699.23	339.17
699.57	337.55
699.90	335.96
700.24	334.14
700.58	332.33
700.91	330.69
701.25	329.20
701.58	327.72
701.92	326.29
702.25	324.82
702.59	323.46
702.92	322.00
703.26	320.70
703.59	319.36
703.93	318.29
704.26	316.97
704.60	315.50
704.93	314.23
705.26	312.90
705.60	311.65
705.93	310.30
706.27	309.06
706.60	307.97
706.94	306.83
707.27	305.65
707.61	304.57
707.94	303.50
708.27	302.17
708.61	300.97
708.94	299.78
709.28	298.59
709.61	297.42
709.94	296.42
710.28	295.34
710.61	294.37
710.95	293.16
711.28	292.24
711.61	291.33
711.95	290.36
712.28	289.33
712.61	288.41
712.95	287.45
713.28	286.64
713.61	285.69
713.95	284.74
714.28	283.98
714.61	282.97
714.95	282.07
715.28	281.12
715.61	280.19
715.95	279.35
716.28	278.56
716.61	277.69
716.95	276.77
717.28	275.88
717.61	275.03
717.94	274.18
718.28	273.29
718.61	272.53
718.94	271.73
719.27	271.09
719.61	270.28
719.94	269.57
720.27	268.71
720.60	267.85
720.94	267.13
721.27	266.29
721.60	265.75
721.93	265.08
722.27	264.57
722.60	264.00
722.93	263.41
723.26	262.86
723.59	262.24
723.93	261.60
724.26	260.97
724.59	260.34
724.92	259.82
725.25	259.33
725.59	258.73
725.92	258.23
726.25	257.67
726.58	257.16
726.91	256.66
727.24	256.15
727.57	255.71
727.91	255.10
728.24	254.67
728.57	254.13
728.90	253.70
729.23	253.19
729.56	252.79
729.89	252.25
730.22	251.70
730.55	251.22
730.89	250.82
731.22	250.40
731.55	249.99
731.88	249.53
732.21	249.03
732.54	248.55
732.87	248.05
733.20	247.61
733.53	247.12
733.86	246.63
734.19	246.17
734.52	245.95
734.85	245.75
735.18	245.34
735.51	245.05
735.84	244.54
736.17	244.15
736.50	243.68
736.83	243.61
737.16	243.32
737.49	243.04
737.82	242.67
738.15	242.26
738.48	241.90
738.81	241.60
739.14	241.27
739.47	240.96
739.80	240.63
740.13	240.28
740.46	239.96
740.79	239.71
741.12	239.42
741.45	238.88
741.78	238.43
742.11	238.15
742.44	237.75
742.77	237.50
743.10	237.16
743.43	236.80
743.75	236.31
744.08	236.18
744.41	235.83
744.74	235.45
745.07	235.18
745.40	234.87
745.73	234.62
746.06	234.29
746.39	234.01
746.71	233.73
747.04	233.41
747.37	233.18
747.70	232.83
748.03	232.58
748.36	232.39
748.68	232.21
749.01	231.92
749.34	231.64
749.67	231.44
750.00	231.28
750.33	231.23
750.65	230.94
750.98	230.45
751.31	230.25
751.64	230.10
751.97	230.02
752.29	229.73
752.62	229.43
752.95	229.23
753.28	228.98
753.60	228.74
753.93	228.66
754.26	228.45
754.59	228.21
754.91	227.99
755.24	227.83
755.57	227.58
755.90	227.32
756.22	227.14
756.55	226.93
756.88	226.68
757.20	226.37
757.53	226.11
757.86	226.00
758.19	225.88
758.51	225.69
758.84	225.32
759.17	225.17
759.49	224.96
759.82	224.82
760.15	224.67
760.47	224.54
760.80	224.27
761.13	224.09
761.45	223.99
761.78	223.79
762.11	223.58
762.43	223.40
762.76	223.30
763.08	223.15
763.41	222.94
763.74	222.85
764.06	222.73
764.39	222.67
764.71	222.49
765.04	222.27
765.37	222.08
765.69	221.97
766.02	221.82
766.34	221.71
766.67	221.58
767.00	221.52
767.32	221.52
767.65	221.53
767.97	221.32
768.30	221.17
768.62	221.13
768.95	221.00
769.27	220.93
769.60	220.85
769.92	220.76
770.25	220.66
770.57	220.49
770.90	220.35
771.22	220.17
771.55	220.08
771.87	219.95
772.20	219.87
772.52	220.03
772.85	220.17
773.17	220.10
773.50	220.03
773.82	219.76
774.15	219.51
774.47	219.25
774.80	219.14
775.12	219.03
775.45	218.92
775.77	218.86
776.09	218.72
776.42	218.60
776.74	218.54
777.07	218.38
777.39	218.24
777.72	218.14
778.04	218.05
778.36	217.93
778.69	217.90
779.01	217.83
779.33	217.48
779.66	217.19
779.98	217.07
780.31	216.99
780.63	217.05
780.95	216.96
781.28	216.92
781.60	216.88
781.92	216.90
782.25	216.80
782.57	216.69
782.89	216.66
783.22	216.65
783.54	216.56
783.86	216.62
784.19	216.56
784.51	216.52
784.83	216.50
785.16	216.50
785.48	216.41
785.80	216.36
786.12	216.38
786.45	216.30
786.77	216.29
787.09	216.22
787.42	216.14
787.74	216.17
788.06	216.11
788.38	216.10
788.71	215.95
789.03	215.84
789.35	215.89
789.67	215.81
789.99	215.68
790.32	215.63
790.64	215.58
790.96	215.74
791.28	215.70
791.61	215.55
791.93	215.47
792.25	215.44
792.57	215.52
792.89	215.38
793.21	215.44
793.54	215.27
793.86	215.23
794.18	215.22
794.50	215.19
794.82	215.15
795.14	215.05
795.47	215.03
795.79	215.01
796.11	214.81
796.43	214.81
796.75	214.87
797.07	214.83
797.39	214.76
797.71	214.55
798.04	214.50
798.36	214.59
798.68	214.54
799.00	214.47
799.32	214.35
799.64	214.33
799.96	214.25
800.28	214.34
800.60	214.30
800.92	214.23
801.24	214.12
801.56	214.14
801.89	214.09
802.21	214.07
802.53	214.01
802.85	214.08
803.17	214.09
803.49	213.95
803.81	213.94
804.13	213.89
804.45	213.85
804.77	213.79
805.09	213.70
805.41	213.72
805.73	213.69
806.05	213.61
806.37	213.66
806.69	213.67
807.01	213.66
807.33	213.62
807.65	213.54
807.97	213.62
808.28	213.56
808.60	213.58
808.92	213.55
809.24	213.64
809.56	213.55
809.88	213.49
810.20	213.52
810.52	213.50
810.84	213.44
811.16	213.47
811.48	213.46
811.80	213.54
812.12	213.49
812.43	213.55
812.75	213.52
813.07	213.47
813.39	213.39
813.71	213.32
814.03	213.27
814.35	213.28
814.67	213.18
814.98	213.17
815.30	213.20
815.62	213.10
815.94	212.95
816.26	212.97
816.58	212.91
816.89	212.83
817.21	212.78
817.53	212.85
817.85	212.74
818.17	212.68
818.48	212.63
818.80	212.53
819.12	212.47
819.44	212.45
819.76	212.44
820.07	212.42
820.39	212.44
820.71	212.45
821.03	212.43
821.34	212.43
821.66	212.48
821.98	212.49
822.30	212.51
822.61	212.66
822.93	212.68
823.25	212.63
823.57	212.69
823.88	212.72
824.20	212.64
824.52	212.77
824.83	212.82
825.15	212.72
825.47	212.81
825.79	212.83
826.10	212.83
826.42	212.80
826.74	212.86
827.05	212.85
827.37	212.89
827.69	212.89
828.00	212.87
828.32	212.84
828.64	212.76
828.95	212.92
829.27	212.84
829.58	212.78
829.90	212.77
830.22	212.74
830.53	212.70
830.85	212.72
831.17	212.59
831.48	212.52
831.80	212.58
832.11	212.55
832.43	212.45
832.75	212.47
833.06	212.52
833.38	212.44
833.69	212.42
834.01	212.34
834.32	212.32
834.64	212.33
834.96	212.25
835.27	212.26
835.59	212.17
835.90	212.10
836.22	212.08
836.53	212.05
836.85	212.02
837.16	212.18
837.48	212.19
837.79	212.21
838.11	212.24
838.42	212.26
838.74	212.26
839.05	212.35
839.37	212.32
839.68	212.22
840.00	212.17
840.31	212.11
840.63	212.16
840.94	212.12
841.26	212.04
841.57	212.11
841.88	212.05
842.20	212.03
842.51	212.03
842.83	212.04
843.14	212.24
843.46	212.26
843.77	212.14
844.08	212.10
844.40	212.10
844.71	212.08
845.03	212.03
845.34	211.96
845.65	211.94
845.97	211.91
846.28	211.95
846.60	211.85
846.91	211.87
847.22	211.82
847.54	211.84
847.85	211.89
848.16	211.80
848.48	211.84
848.79	211.88
849.10	211.95
849.42	211.96
849.73	211.75
850.04	211.73
850.36	211.68
850.67	211.75
850.98	211.77
851.30	211.79
851.61	211.79
851.92	211.84
852.23	211.80
852.55	211.79
852.86	211.74
853.17	211.95
853.49	212.02
853.80	212.11
854.11	212.18
854.42	212.24
854.74	212.24
855.05	212.24
855.36	212.13
855.67	212.14
855.99	212.15
856.30	212.37
856.61	212.39
856.92	212.39
857.23	212.39
857.55	212.31
857.86	212.24
858.17	212.18
858.48	212.10
858.79	212.06
859.11	212.08
859.42	212.12
859.73	211.97
860.04	211.89
860.35	211.76
860.66	211.71
860.98	211.67
861.29	211.69
861.60	211.68
861.91	211.71
862.22	211.63
862.53	211.53
862.84	211.26
863.16	211.27
863.47	211.23
863.78	211.20
864.09	211.25
864.40	211.27
864.71	211.28
865.02	211.33
865.33	211.36
865.64	211.30
865.95	211.27
866.27	211.46
866.58	211.45
866.89	211.44
867.20	211.38
867.51	211.29
867.82	211.29
868.13	211.31
868.44	211.30
868.75	211.30
869.06	211.38
869.37	211.41
869.68	211.35
869.99	211.33
870.30	211.34
870.61	211.39
870.92	211.36
871.23	211.40
871.54	211.48
871.85	211.51
872.16	211.55
872.47	211.54
872.78	211.45
873.09	211.49
873.40	211.55
873.71	211.58
874.02	211.65
874.33	211.60
874.64	211.59
874.95	211.56
875.26	211.56
875.56	211.55
875.87	211.55
876.18	211.59
876.49	211.73
876.80	211.67
877.11	211.51
877.42	211.53
877.73	211.48
878.04	211.33
878.35	211.40
878.66	211.44
878.96	211.47
879.27	211.40
879.58	211.40
879.89	211.35
880.20	211.40
880.51	211.38
880.82	211.40
881.12	211.37
881.43	211.39
881.74	211.33
882.05	211.32
882.36	211.36
882.67	211.33
882.97	211.16
883.28	211.19
883.59	211.21
883.90	211.27
884.21	211.33
884.51	211.41
884.82	211.29
885.13	211.25
885.44	211.22
885.74	211.28
886.05	211.23
886.36	211.22
886.67	211.22
886.98	211.28
887.28	211.32
887.59	211.40
887.90	211.40
888.20	211.43
888.51	211.47
888.82	211.43
889.13	211.45
889.43	211.63
889.74	211.54
890.05	211.55
890.35	211.50
890.66	211.50
890.97	211.43
891.28	211.39
891.58	211.35
891.89	211.33
892.20	211.24
892.50	211.23
892.81	211.23
893.12	211.13
893.42	211.04
893.73	211.04
894.04	210.99
894.34	210.97
894.65	210.99
894.95	210.90
895.26	210.88
895.57	210.91
895.87	210.77
896.18	210.85
896.48	210.83
896.79	210.79
897.10	210.75
897.40	210.83
897.71	210.88
898.01	210.94
898.32	210.92
898.63	210.92
898.93	211.02
899.24	211.05
899.54	211.08
899.85	211.20
900.15	211.17
900.46	211.15
900.76	211.21
901.07	211.14
901.38	211.15
901.68	211.22
901.99	211.25
902.29	211.24
902.60	211.26
902.90	211.30
903.21	211.35
903.51	211.31
903.82	211.33
904.12	211.33
904.43	211.30
904.73	211.30
905.03	211.36
905.34	211.43
905.64	211.37
905.95	211.35
906.25	211.27
906.56	211.26
906.86	211.30
907.17	211.17
907.47	211.30
907.77	211.30
908.08	211.25
908.38	211.14
908.69	211.20
908.99	211.19
909.30	211.21
909.60	211.19
909.90	211.26
910.21	211.21
910.51	211.15
910.81	211.19
911.12	211.21
911.42	211.19
911.73	211.06
912.03	211.06
912.33	211.08
912.64	210.96
912.94	210.94
913.24	210.86
913.55	210.92
913.85	210.82
914.15	210.85
914.46	210.85
914.76	210.86
915.06	210.77
915.37	210.70
915.67	210.66
915.97	210.67
916.27	210.61
916.58	210.59
916.88	210.64
917.18	210.63
917.49	210.78
917.79	210.76
918.09	210.80
918.39	210.90
918.70	210.92
919.00	211.04
919.30	211.11
919.60	211.14
919.91	211.09
920.21	211.12
920.51	211.12
920.81	211.12
921.12	211.15
921.42	211.23
921.72	211.25
922.02	211.21
922.32	211.23
922.63	211.19
922.93	211.26
923.23	211.27
923.53	211.17
923.83	211.04
924.13	211.05
924.44	211.00
924.74	210.91
925.04	210.93
925.34	210.92
925.64	210.84
925.94	210.86
926.24	211.00
926.55	210.97
926.85	210.97
927.15	210.98
927.45	210.98
927.75	210.94
928.05	210.91
928.35	210.91
928.65	210.92
928.95	210.96
929.26	210.86
929.56	210.80
929.86	210.85
930.16	210.81
930.46	210.83
930.76	210.90
931.06	210.89
931.36	210.78
931.66	210.72
931.96	210.72
932.26	210.72
932.56	210.62
932.86	210.67
933.16	210.75
933.46	210.71
933.76	210.63
934.06	210.68
934.36	210.78
934.66	210.76
934.96	210.66
935.26	210.64
935.56	210.73
935.86	210.75
936.16	210.69
936.46	210.70
936.76	210.70
937.06	210.60
937.36	210.59
937.66	210.69
937.96	210.80
938.26	210.84
938.56	210.81
938.86	210.83
939.16	210.87
939.46	210.80
939.76	210.83
940.06	210.86
940.35	210.76
940.65	210.65
940.95	210.73
941.25	210.82
941.55	210.84
941.85	210.83
942.15	210.92
942.45	211.02
942.75	211.04
943.04	210.98
943.34	211.05
943.64	211.08
943.94	210.98
944.24	210.91
944.54	210.95
944.84	210.92
945.13	210.90
945.43	210.83
945.73	210.80
946.03	210.71
946.33	210.68
946.62	210.73
946.92	210.76
947.22	210.70
947.52	210.66
947.82	210.65
948.11	210.57
948.41	210.46
948.71	210.42
949.01	210.35
949.31	210.36
949.60	210.33
949.90	210.32
950.20	210.32
950.50	210.32
950.79	210.21
951.09	210.23
951.39	210.19
951.69	210.25
951.98	210.29
952.28	210.35
952.58	210.36
952.87	210.34
953.17	210.31
953.47	210.32
953.76	210.34
954.06	210.30
954.36	210.37
954.66	210.40
954.95	210.53
955.25	210.66
955.55	210.68
955.84	210.66
956.14	210.71
956.44	210.78
956.73	210.77
957.03	210.79
957.32	210.78
957.62	210.81
957.92	210.75
958.21	210.74
958.51	210.99
958.81	210.98
959.10	211.02
959.40	211.08
959.69	211.10
959.99	211.08
960.29	211.08
960.58	211.01
960.88	211.09
961.17	210.97
961.47	210.97
961.76	210.97
962.06	210.98
962.36	210.91
962.65	210.89
962.95	210.92
963.24	210.89
963.54	210.93
963.83	210.95
964.13	210.98
964.42	210.94
964.72	210.78
965.01	210.78
965.31	210.72
965.60	210.74
965.90	210.84
966.19	210.86
966.49	210.92
966.78	210.95
967.08	210.90
967.37	210.87
967.67	210.75
967.96	210.80
968.26	210.79
968.55	210.86
968.85	210.80
969.14	210.82
969.43	210.85
969.73	210.71
970.02	210.74
970.32	210.70
970.61	210.71
970.91	210.63
971.20	210.63
971.49	210.69
971.79	210.65
972.08	210.60
972.38	210.61
972.67	210.59
972.96	210.65
973.26	210.60
973.55	210.75
973.85	210.87
974.14	210.85
974.43	210.94
974.73	210.88
975.02	210.99
975.31	210.95
975.61	210.96
975.90	211.12
976.19	211.09
976.49	211.03
976.78	210.99
977.07	211.05
977.37	211.10
977.66	211.14
977.95	211.09
978.24	211.05
978.54	211.07
978.83	210.96
979.12	210.96
979.42	210.99
979.71	210.92
980.00	210.86
980.29	210.83
980.59	210.77
980.88	210.88
981.17	210.80
981.46	210.80
981.76	210.80
982.05	210.78
982.34	210.83
982.63	210.88
982.93	210.88
983.22	210.85
983.51	210.89
983.80	210.85
984.09	210.87
984.39	210.84
984.68	210.73
984.97	210.86
985.26	210.75
985.55	210.75
985.85	210.65
986.14	210.60
986.43	210.64
986.72	210.59
987.01	210.50
987.30	210.42
987.59	210.39
987.89	210.38
988.18	210.37
988.47	210.33
988.76	210.36
989.05	210.38
989.34	210.43
989.63	210.46
989.92	210.48
990.22	210.52
990.51	210.58
990.80	210.65
991.09	210.60
991.38	210.67
991.67	210.67
991.96	210.72
992.25	210.75
992.54	210.67
992.83	210.68
993.12	210.68
993.41	210.80
993.70	210.94
993.99	210.96
994.28	210.99
994.58	210.99
994.87	210.95
995.16	210.95
995.45	210.96
995.74	210.85
996.03	210.91
996.32	210.98
996.61	210.98
996.90	211.01
997.19	211.04
997.48	211.08
997.77	211.07
998.06	211.07
998.34	211.07
998.63	211.05
998.92	211.08
999.21	211.11
999.50	211.11
999.79	210.95
1000.08	210.96
1000.37	210.90
1000.66	210.94
1000.95	210.98
1001.24	211.01
1001.53	210.95
1001.82	211.00
1002.11	210.91
1002.40	210.89
1002.68	210.92
1002.97	211.05
1003.26	210.98
1003.55	210.96
1003.84	210.96
1004.13	211.01
1004.42	211.02
1004.71	211.06
1004.99	210.95
1005.28	211.02
1005.57	210.97
1005.86	211.01
1006.15	211.02
1006.44	211.06
1006.72	211.06
1007.01	211.05
1007.30	210.96
1007.59	210.96
1007.88	210.86
1008.17	210.85
1008.45	210.79
1008.74	210.71
1009.03	210.62
1009.32	210.61
1009.60	210.55
1009.89	210.54
1010.18	210.52
1010.47	210.52
1010.76	210.48
1011.04	210.56
1011.33	210.54
1011.62	210.59
1011.91	210.60
1012.19	210.52
1012.48	210.46
1012.77	210.47
1013.05	210.55
1013.34	210.68
1013.63	210.68
1013.92	210.79
1014.20	210.81
1014.49	210.85
1014.78	210.91
1015.06	210.79
1015.35	210.89
1015.64	210.93
1015.92	210.97
1016.21	210.91
1016.50	210.95
1016.78	210.98
1017.07	211.04
1017.36	210.98
1017.64	210.94
1017.93	210.86
1018.22	210.86
1018.50	210.90
1018.79	210.87
1019.08	210.82
1019.36	210.73
1019.65	210.75
1019.93	210.74
1020.22	210.75
1020.51	210.76
1020.79	210.76
1021.08	209.35
1021.36	210.50
1021.65	211.15
1021.94	211.25
1022.22	210.15
1022.51	211.30
1022.79	211.00
1023.08	211.20
1023.36	212.20
1023.65	211.05
>>>>>End Processed Spectral Data<<<<<
