SpectraSuite Data File
++++++++++++++++++++++++++++++++++++
Date: Mon Feb 25 17:34:04 EST 2013
User: group
Dark Spectrum Present: No
Reference Spectrum Present: No
Number of Sampled Component Spectra: 1
Spectrometers: USB2E7196
Integration Time (usec): 52000 (USB2E7196)
Spectra Averaged: 20 (USB2E7196)
Boxcar Smoothing: 10 (USB2E7196)
Correct for Electrical Dark: No (USB2E7196)
Strobe/Lamp Enabled: No (USB2E7196)
Correct for Detector Non-linearity: No (USB2E7196)
Correct for Stray Light: No (USB2E7196)
Number of Pixels in Processed Spectrum: 2048
>>>>>Begin Processed Spectral Data<<<<<
339.09	0.00
339.48	198.60
339.86	200.45
340.24	201.65
340.63	203.05
341.01	206.70
341.39	206.25
341.78	208.05
342.16	208.90
342.54	209.75
342.93	198.23
343.31	208.29
343.69	208.86
344.07	209.37
344.46	209.85
344.84	210.24
345.22	210.42
345.60	210.68
345.99	210.85
346.37	210.94
346.75	210.99
347.13	211.09
347.52	211.24
347.90	211.31
348.28	211.29
348.66	211.29
349.05	211.33
349.43	211.39
349.81	211.42
350.19	211.49
350.57	211.55
350.96	211.66
351.34	211.74
351.72	211.86
352.10	211.97
352.48	212.01
352.87	212.02
353.25	212.10
353.63	212.14
354.01	212.16
354.39	212.31
354.77	212.42
355.15	212.51
355.54	212.48
355.92	212.50
356.30	212.63
356.68	212.80
357.06	212.86
357.44	212.85
357.82	212.89
358.20	213.03
358.58	213.09
358.97	213.10
359.35	213.22
359.73	213.26
360.11	213.28
360.49	213.30
360.87	213.42
361.25	213.52
361.63	213.63
362.01	213.77
362.39	213.70
362.77	213.76
363.15	213.76
363.53	213.83
363.91	213.87
364.29	213.83
364.67	213.74
365.05	213.72
365.43	213.78
365.81	213.82
366.19	213.89
366.57	213.97
366.95	214.05
367.33	214.02
367.71	214.02
368.09	214.08
368.47	214.12
368.85	214.12
369.23	214.17
369.61	214.11
369.99	214.09
370.37	214.23
370.75	214.26
371.13	214.27
371.51	214.30
371.89	214.31
372.27	214.32
372.65	214.26
373.03	214.25
373.41	214.20
373.78	214.19
374.16	214.14
374.54	214.01
374.92	213.95
375.30	213.87
375.68	213.82
376.06	213.73
376.44	213.65
376.82	213.61
377.19	213.55
377.57	213.52
377.95	213.48
378.33	213.35
378.71	213.23
379.09	213.24
379.47	213.19
379.84	213.11
380.22	213.07
380.60	212.98
380.98	212.95
381.36	212.90
381.73	212.84
382.11	212.86
382.49	212.82
382.87	212.73
383.25	212.65
383.62	212.86
384.00	212.80
384.38	212.79
384.76	212.73
385.13	212.73
385.51	212.67
385.89	212.57
386.27	212.52
386.64	212.48
387.02	212.40
387.40	212.32
387.78	212.31
388.15	212.32
388.53	212.34
388.91	212.25
389.29	212.25
389.66	212.26
390.04	212.15
390.42	212.14
390.79	212.14
391.17	212.15
391.55	211.91
391.92	211.90
392.30	211.84
392.68	211.82
393.05	211.80
393.43	211.80
393.81	211.76
394.18	211.70
394.56	211.67
394.94	211.65
395.31	211.59
395.69	211.53
396.06	211.60
396.44	211.59
396.82	211.54
397.19	211.61
397.57	211.58
397.95	211.60
398.32	211.52
398.70	211.61
399.07	211.73
399.45	211.71
399.82	211.66
400.20	211.71
400.58	211.80
400.95	211.73
401.33	211.77
401.70	211.96
402.08	212.07
402.45	212.15
402.83	212.31
403.20	212.46
403.58	212.56
403.95	212.62
404.33	212.79
404.71	212.98
405.08	213.14
405.46	213.19
405.83	213.29
406.21	213.45
406.58	213.50
406.96	213.57
407.33	213.78
407.70	214.09
408.08	214.46
408.45	214.65
408.83	214.92
409.20	215.08
409.58	215.20
409.95	215.48
410.33	215.81
410.70	216.05
411.08	216.34
411.45	216.72
411.82	217.06
412.20	217.44
412.57	217.99
412.95	218.38
413.32	219.03
413.69	219.57
414.07	220.18
414.44	220.82
414.82	221.48
415.19	222.18
415.56	222.87
415.94	223.51
416.31	224.39
416.68	225.27
417.06	226.30
417.43	227.34
417.81	228.48
418.18	229.59
418.55	230.78
418.93	232.09
419.30	233.52
419.67	234.93
420.04	236.35
420.42	237.83
420.79	239.52
421.16	241.25
421.54	243.05
421.91	244.87
422.28	246.77
422.66	248.80
423.03	250.82
423.40	252.88
423.77	255.08
424.15	257.34
424.52	259.68
424.89	262.33
425.26	264.75
425.64	267.04
426.01	269.63
426.38	272.37
426.75	275.16
427.13	277.88
427.50	280.86
427.87	284.07
428.24	287.27
428.61	290.29
428.99	293.56
429.36	296.98
429.73	300.51
430.10	304.00
430.47	307.71
430.85	311.35
431.22	315.27
431.59	319.54
431.96	323.47
432.33	327.95
432.70	332.15
433.08	337.20
433.45	341.90
433.82	346.50
434.19	351.69
434.56	356.61
434.93	361.42
435.30	366.22
435.68	371.41
436.05	376.52
436.42	381.62
436.79	386.30
437.16	391.50
437.53	396.88
437.90	402.20
438.27	407.30
438.64	412.73
439.01	417.73
439.38	422.09
439.75	426.37
440.13	431.03
440.50	435.62
440.87	439.18
441.24	442.95
441.61	447.16
441.98	450.06
442.35	453.64
442.72	457.37
443.09	460.87
443.46	462.90
443.83	464.34
444.20	465.56
444.57	467.37
444.94	468.10
445.31	468.87
445.68	469.63
446.05	469.92
446.42	469.22
446.79	468.32
447.16	467.48
447.53	466.80
447.90	464.71
448.27	462.53
448.64	459.73
449.01	457.68
449.37	454.04
449.74	450.58
450.11	446.52
450.48	441.85
450.85	437.23
451.22	433.26
451.59	429.50
451.96	425.87
452.33	421.06
452.70	416.63
453.07	411.39
453.43	406.08
453.80	400.97
454.17	396.18
454.54	391.74
454.91	386.96
455.28	382.16
455.65	377.82
456.02	373.53
456.38	369.78
456.75	365.09
457.12	361.20
457.49	357.39
457.86	353.62
458.23	350.54
458.59	346.96
458.96	343.37
459.33	340.11
459.70	336.90
460.07	334.27
460.43	331.45
460.80	328.84
461.17	326.52
461.54	324.06
461.91	321.78
462.27	319.39
462.64	317.18
463.01	315.04
463.38	312.99
463.74	310.70
464.11	308.75
464.48	307.14
464.85	305.44
465.21	304.14
465.58	302.76
465.95	300.98
466.32	299.64
466.68	298.25
467.05	296.85
467.42	295.49
467.78	294.08
468.15	292.72
468.52	291.65
468.88	290.32
469.25	289.10
469.62	288.05
469.98	287.06
470.35	286.24
470.72	285.32
471.08	284.26
471.45	283.50
471.82	282.79
472.18	281.93
472.55	281.28
472.92	280.54
473.28	279.86
473.65	279.20
474.02	278.59
474.38	278.20
474.75	277.89
475.11	277.51
475.48	277.34
475.85	277.13
476.21	276.95
476.58	276.90
476.94	276.90
477.31	276.93
477.67	276.84
478.04	276.86
478.41	277.09
478.77	277.44
479.14	277.62
479.50	277.81
479.87	278.12
480.23	278.62
480.60	278.95
480.96	279.42
481.33	280.15
481.69	280.79
482.06	281.41
482.42	281.99
482.79	282.73
483.15	283.49
483.52	284.50
483.88	285.44
484.25	286.43
484.61	287.52
484.98	288.61
485.34	289.93
485.71	291.28
486.07	292.70
486.44	294.00
486.80	295.57
487.17	297.30
487.53	299.19
487.90	300.95
488.26	302.85
488.62	304.84
488.99	306.84
489.35	309.01
489.72	311.40
490.08	313.80
490.44	316.33
490.81	319.02
491.17	321.75
491.54	324.64
491.90	327.61
492.26	330.62
492.63	334.02
492.99	337.56
493.36	341.10
493.72	344.97
494.08	349.04
494.45	353.33
494.81	357.73
495.17	362.27
495.54	367.25
495.90	372.37
496.26	377.52
496.63	383.08
496.99	388.92
497.35	394.87
497.72	401.20
498.08	407.66
498.44	414.39
498.80	421.59
499.17	429.10
499.53	436.69
499.89	444.83
500.26	452.84
500.62	461.06
500.98	469.97
501.34	478.84
501.71	488.31
502.07	497.91
502.43	507.86
502.79	518.01
503.16	528.46
503.52	539.32
503.88	550.51
504.24	562.05
504.60	573.90
504.97	586.27
505.33	598.79
505.69	612.11
506.05	625.48
506.41	639.02
506.78	652.84
507.14	667.06
507.50	681.67
507.86	696.70
508.22	712.32
508.59	727.84
508.95	743.95
509.31	760.27
509.67	776.98
510.03	793.99
510.39	811.52
510.75	829.33
511.12	847.45
511.48	865.97
511.84	884.68
512.20	903.53
512.56	922.78
512.92	942.36
513.28	961.86
513.64	981.63
514.00	1001.56
514.37	1021.84
514.73	1042.59
515.09	1063.40
515.45	1084.34
515.81	1105.52
516.17	1126.78
516.53	1148.25
516.89	1169.76
517.25	1191.22
517.61	1212.74
517.97	1234.14
518.33	1255.89
518.69	1277.56
519.05	1299.68
519.41	1321.90
519.77	1344.28
520.13	1366.26
520.49	1388.62
520.85	1411.21
521.21	1433.77
521.57	1456.84
521.93	1478.92
522.29	1501.83
522.65	1524.45
523.01	1547.14
523.37	1569.17
523.73	1591.59
524.09	1613.95
524.45	1636.48
524.81	1659.28
525.17	1681.98
525.53	1704.65
525.89	1727.01
526.25	1749.41
526.61	1770.99
526.97	1792.81
527.33	1814.37
527.68	1836.23
528.04	1857.46
528.40	1877.87
528.76	1898.80
529.12	1919.50
529.48	1941.45
529.84	1962.10
530.20	1982.48
530.56	2002.90
530.91	2023.97
531.27	2044.60
531.63	2064.76
531.99	2084.63
532.35	2103.83
532.71	2122.89
533.07	2142.57
533.42	2161.35
533.78	2180.52
534.14	2199.19
534.50	2216.49
534.86	2234.49
535.21	2251.33
535.57	2269.17
535.93	2286.96
536.29	2303.96
536.65	2320.82
537.00	2336.16
537.36	2351.28
537.72	2366.99
538.08	2382.60
538.44	2397.73
538.79	2413.27
539.15	2428.12
539.51	2442.84
539.87	2458.41
540.22	2473.14
540.58	2487.81
540.94	2502.41
541.29	2515.22
541.65	2527.33
542.01	2540.93
542.37	2553.10
542.72	2565.58
543.08	2576.68
543.44	2588.65
543.79	2599.00
544.15	2609.38
544.51	2620.60
544.87	2631.84
545.22	2640.86
545.58	2649.16
545.94	2656.83
546.29	2663.18
546.65	2669.61
547.01	2675.99
547.36	2681.68
547.72	2687.33
548.07	2691.70
548.43	2695.62
548.79	2699.67
549.14	2704.69
549.50	2708.90
549.86	2712.94
550.21	2717.06
550.57	2721.22
550.92	2723.76
551.28	2726.60
551.64	2729.42
551.99	2731.87
552.35	2733.92
552.70	2736.85
553.06	2740.03
553.41	2743.00
553.77	2746.12
554.13	2748.40
554.48	2750.41
554.84	2751.62
555.19	2752.30
555.55	2753.08
555.90	2753.45
556.26	2754.10
556.61	2754.10
556.97	2752.74
557.32	2752.28
557.68	2750.75
558.03	2749.26
558.39	2747.52
558.74	2747.15
559.10	2745.70
559.45	2743.92
559.81	2742.65
560.16	2739.95
560.52	2737.20
560.87	2734.39
561.23	2730.66
561.58	2728.41
561.94	2725.53
562.29	2722.22
562.64	2720.01
563.00	2717.49
563.35	2715.67
563.71	2713.78
564.06	2711.43
564.42	2709.97
564.77	2707.28
565.12	2705.31
565.48	2702.00
565.83	2699.34
566.19	2696.23
566.54	2691.92
566.89	2688.01
567.25	2684.00
567.60	2680.65
567.96	2677.65
568.31	2674.00
568.66	2670.14
569.02	2665.65
569.37	2660.48
569.72	2656.90
570.08	2651.33
570.43	2645.64
570.78	2639.51
571.14	2633.17
571.49	2626.60
571.84	2620.47
572.20	2613.98
572.55	2607.12
572.90	2600.83
573.26	2593.92
573.61	2586.72
573.96	2580.43
574.31	2572.93
574.67	2564.65
575.02	2556.44
575.37	2547.35
575.72	2538.41
576.08	2530.86
576.43	2522.14
576.78	2514.11
577.13	2505.20
577.49	2497.25
577.84	2489.22
578.19	2481.78
578.54	2474.47
578.90	2467.66
579.25	2458.75
579.60	2449.41
579.95	2440.29
580.30	2431.76
580.66	2423.54
581.01	2414.02
581.36	2404.52
581.71	2395.65
582.06	2387.23
582.42	2378.81
582.77	2369.40
583.12	2360.80
583.47	2352.04
583.82	2343.69
584.17	2334.51
584.53	2325.48
584.88	2316.41
585.23	2307.46
585.58	2297.62
585.93	2287.50
586.28	2278.10
586.63	2269.22
586.98	2261.09
587.34	2252.66
587.69	2243.75
588.04	2234.47
588.39	2226.56
588.74	2217.63
589.09	2209.19
589.44	2199.67
589.79	2190.94
590.14	2183.21
590.49	2174.36
590.84	2165.20
591.19	2156.83
591.54	2148.20
591.89	2138.33
592.25	2128.99
592.60	2119.28
592.95	2109.91
593.30	2100.48
593.65	2090.49
594.00	2080.61
594.35	2072.03
594.70	2062.85
595.05	2054.00
595.40	2045.12
595.75	2035.14
596.10	2026.80
596.45	2018.01
596.80	2010.06
597.15	2001.90
597.50	1992.79
597.85	1984.19
598.19	1975.44
598.54	1966.66
598.89	1958.45
599.24	1951.53
599.59	1944.29
599.94	1937.49
600.29	1929.87
600.64	1921.73
600.99	1913.77
601.34	1906.83
601.69	1898.05
602.04	1889.94
602.39	1881.64
602.74	1873.78
603.08	1867.28
603.43	1859.96
603.78	1851.98
604.13	1843.97
604.48	1835.81
604.83	1828.98
605.18	1821.86
605.53	1814.49
605.87	1806.87
606.22	1799.70
606.57	1791.65
606.92	1783.51
607.27	1775.32
607.62	1767.81
607.96	1761.09
608.31	1754.25
608.66	1746.28
609.01	1738.92
609.36	1731.16
609.70	1723.28
610.05	1715.69
610.40	1707.30
610.75	1698.84
611.10	1691.23
611.44	1682.06
611.79	1673.13
612.14	1663.33
612.49	1653.65
612.83	1644.62
613.18	1634.85
613.53	1625.27
613.88	1615.63
614.22	1606.69
614.57	1597.18
614.92	1587.71
615.27	1578.46
615.61	1568.60
615.96	1559.65
616.31	1551.02
616.65	1542.98
617.00	1534.39
617.35	1525.43
617.70	1516.35
618.04	1506.90
618.39	1497.26
618.74	1488.81
619.08	1479.93
619.43	1471.82
619.78	1463.90
620.12	1455.79
620.47	1447.91
620.82	1439.27
621.16	1430.97
621.51	1422.44
621.85	1414.11
622.20	1405.65
622.55	1397.25
622.89	1389.25
623.24	1381.30
623.59	1372.55
623.93	1363.79
624.28	1355.60
624.62	1347.42
624.97	1339.30
625.32	1331.71
625.66	1324.49
626.01	1317.18
626.35	1310.08
626.70	1302.14
627.04	1294.66
627.39	1287.08
627.73	1279.67
628.08	1272.91
628.43	1265.59
628.77	1258.27
629.12	1250.62
629.46	1244.00
629.81	1236.56
630.15	1229.19
630.50	1221.53
630.84	1214.19
631.19	1207.00
631.53	1200.08
631.88	1192.53
632.22	1185.11
632.57	1178.17
632.91	1170.41
633.26	1162.78
633.60	1155.45
633.95	1148.78
634.29	1141.54
634.64	1134.65
634.98	1127.65
635.32	1120.52
635.67	1113.81
636.01	1107.02
636.36	1100.50
636.70	1093.71
637.05	1087.23
637.39	1080.83
637.73	1074.49
638.08	1068.65
638.42	1062.72
638.77	1056.18
639.11	1049.75
639.45	1043.61
639.80	1036.93
640.14	1030.45
640.49	1024.29
640.83	1018.07
641.17	1011.63
641.52	1005.41
641.86	998.79
642.20	992.50
642.55	985.62
642.89	979.16
643.23	972.76
643.58	966.73
643.92	960.22
644.26	953.82
644.61	947.82
644.95	941.61
645.29	935.01
645.64	928.20
645.98	921.90
646.32	915.96
646.66	909.65
647.01	903.78
647.35	898.06
647.69	891.80
648.04	885.78
648.38	879.82
648.72	873.83
649.06	867.72
649.41	861.80
649.75	855.97
650.09	850.16
650.43	844.18
650.78	837.98
651.12	831.81
651.46	825.95
651.80	819.73
652.14	813.81
652.49	808.04
652.83	802.37
653.17	796.36
653.51	790.60
653.85	784.96
654.20	779.14
654.54	773.23
654.88	767.67
655.22	761.80
655.56	755.93
655.90	750.06
656.25	744.64
656.59	738.95
656.93	733.94
657.27	728.74
657.61	723.15
657.95	717.98
658.29	713.02
658.64	708.00
658.98	702.80
659.32	697.43
659.66	692.21
660.00	686.90
660.34	681.70
660.68	676.62
661.02	671.46
661.36	666.60
661.70	661.83
662.05	656.93
662.39	652.40
662.73	648.02
663.07	643.64
663.41	639.05
663.75	634.38
664.09	629.58
664.43	624.77
664.77	620.50
665.11	615.90
665.45	611.30
665.79	606.66
666.13	602.27
666.47	598.05
666.81	593.93
667.15	589.78
667.49	585.92
667.83	581.90
668.17	578.10
668.51	574.24
668.85	570.43
669.19	566.87
669.53	562.98
669.87	558.83
670.21	555.02
670.55	551.15
670.89	547.83
671.23	544.43
671.57	541.01
671.91	537.46
672.25	534.10
672.58	530.56
672.92	527.29
673.26	524.14
673.60	520.90
673.94	517.53
674.28	514.29
674.62	511.08
674.96	507.90
675.30	504.82
675.64	501.58
675.97	498.32
676.31	495.19
676.65	492.18
676.99	489.52
677.33	486.52
677.67	483.62
678.01	480.49
678.34	477.39
678.68	474.45
679.02	471.43
679.36	468.67
679.70	466.01
680.04	463.00
680.37	460.09
680.71	457.40
681.05	454.75
681.39	452.05
681.73	449.38
682.06	446.62
682.40	443.98
682.74	441.39
683.08	438.90
683.42	436.28
683.75	433.73
684.09	431.10
684.43	428.66
684.77	426.15
685.10	423.60
685.44	421.07
685.78	418.55
686.12	416.30
686.45	413.75
686.79	411.37
687.13	409.27
687.46	407.00
687.80	404.72
688.14	402.36
688.48	400.31
688.81	397.97
689.15	395.75
689.49	393.49
689.82	391.26
690.16	388.90
690.50	386.58
690.83	384.39
691.17	382.20
691.51	379.95
691.84	377.80
692.18	375.74
692.52	373.78
692.85	371.96
693.19	370.04
693.52	368.10
693.86	366.17
694.20	364.28
694.53	362.32
694.87	360.29
695.21	358.39
695.54	356.35
695.88	354.48
696.21	352.73
696.55	351.04
696.88	349.24
697.22	347.55
697.56	346.00
697.89	344.31
698.23	342.59
698.56	340.96
698.90	339.43
699.23	337.90
699.57	336.31
699.90	334.65
700.24	332.97
700.58	331.38
700.91	329.87
701.25	328.42
701.58	327.02
701.92	325.59
702.25	324.16
702.59	322.82
702.92	321.55
703.26	320.11
703.59	318.79
703.93	317.65
704.26	316.33
704.60	315.00
704.93	313.66
705.26	312.44
705.60	311.21
705.93	309.96
706.27	308.75
706.60	307.66
706.94	306.53
707.27	305.35
707.61	304.22
707.94	302.97
708.27	301.72
708.61	300.56
708.94	299.43
709.28	298.27
709.61	297.15
709.94	296.03
710.28	294.96
710.61	293.86
710.95	292.63
711.28	291.80
711.61	290.72
711.95	289.78
712.28	288.83
712.61	287.86
712.95	286.99
713.28	286.01
713.61	284.85
713.95	283.86
714.28	283.08
714.61	282.14
714.95	281.31
715.28	280.40
715.61	279.47
715.95	278.54
716.28	277.70
716.61	276.79
716.95	275.94
717.28	275.16
717.61	274.32
717.94	273.48
718.28	272.56
718.61	271.81
718.94	271.06
719.27	270.27
719.61	269.51
719.94	268.75
720.27	268.07
720.60	267.39
720.94	266.68
721.27	265.89
721.60	265.28
721.93	264.60
722.27	264.06
722.60	263.45
722.93	262.85
723.26	262.29
723.59	261.71
723.93	261.07
724.26	260.47
724.59	260.00
724.92	259.54
725.25	258.97
725.59	258.46
725.92	258.03
726.25	257.49
726.58	257.04
726.91	256.46
727.24	255.97
727.57	255.54
727.91	255.03
728.24	254.59
728.57	254.12
728.90	253.71
729.23	253.06
729.56	252.72
729.89	252.28
730.22	251.79
730.55	251.33
730.89	250.87
731.22	250.49
731.55	249.99
731.88	249.42
732.21	249.05
732.54	248.57
732.87	248.01
733.20	247.65
733.53	247.16
733.86	246.75
734.19	246.26
734.52	245.91
734.85	245.74
735.18	245.37
735.51	245.02
735.84	244.60
736.17	244.33
736.50	243.81
736.83	243.62
737.16	243.31
737.49	243.00
737.82	242.65
738.15	242.28
738.48	241.92
738.81	241.69
739.14	241.27
739.47	240.95
739.80	240.65
740.13	240.35
740.46	240.04
740.79	239.66
741.12	239.37
741.45	238.97
741.78	238.50
742.11	238.23
742.44	237.92
742.77	237.59
743.10	237.28
743.43	237.01
743.75	236.55
744.08	236.45
744.41	236.06
744.74	235.75
745.07	235.41
745.40	235.16
745.73	235.00
746.06	234.77
746.39	234.50
746.71	234.15
747.04	233.77
747.37	233.45
747.70	233.20
748.03	232.90
748.36	232.66
748.68	232.38
749.01	232.00
749.34	231.72
749.67	231.48
750.00	231.21
750.33	231.13
750.65	230.82
750.98	230.37
751.31	230.19
751.64	230.00
751.97	229.79
752.29	229.50
752.62	229.10
752.95	228.85
753.28	228.56
753.60	228.35
753.93	228.20
754.26	228.00
754.59	227.78
754.91	227.51
755.24	227.37
755.57	227.17
755.90	227.03
756.22	226.79
756.55	226.61
756.88	226.44
757.20	226.04
757.53	225.84
757.86	225.68
758.19	225.51
758.51	225.34
758.84	225.13
759.17	224.99
759.49	224.83
759.82	224.73
760.15	224.59
760.47	224.43
760.80	224.20
761.13	224.07
761.45	223.96
761.78	223.84
762.11	223.60
762.43	223.46
762.76	223.30
763.08	223.17
763.41	223.06
763.74	222.94
764.06	222.78
764.39	222.70
764.71	222.50
765.04	222.36
765.37	222.18
765.69	222.05
766.02	221.92
766.34	221.80
766.67	221.70
767.00	221.70
767.32	221.71
767.65	221.70
767.97	221.55
768.30	221.41
768.62	221.30
768.95	221.15
769.27	221.02
769.60	220.94
769.92	220.77
770.25	220.65
770.57	220.55
770.90	220.51
771.22	220.36
771.55	220.28
771.87	220.16
772.20	220.04
772.52	220.08
772.85	220.17
773.17	220.12
773.50	219.95
773.82	219.75
774.15	219.55
774.47	219.39
774.80	219.33
775.12	219.27
775.45	219.26
775.77	219.31
776.09	219.20
776.42	219.12
776.74	219.11
777.07	219.01
777.39	218.85
777.72	218.74
778.04	218.75
778.36	218.62
778.69	218.61
779.01	218.58
779.33	218.37
779.66	218.11
779.98	218.00
780.31	217.89
780.63	217.85
780.95	217.75
781.28	217.65
781.60	217.50
781.92	217.36
782.25	217.23
782.57	217.04
782.89	216.97
783.22	216.83
783.54	216.75
783.86	216.64
784.19	216.58
784.51	216.60
784.83	216.39
785.16	216.28
785.48	216.21
785.80	216.15
786.12	216.13
786.45	216.05
786.77	216.00
787.09	215.97
787.42	215.87
787.74	215.95
788.06	215.93
788.38	215.90
788.71	215.87
789.03	215.81
789.35	215.85
789.67	215.88
789.99	215.84
790.32	215.75
790.64	215.76
790.96	215.84
791.28	215.72
791.61	215.72
791.93	215.79
792.25	215.69
792.57	215.75
792.89	215.63
793.21	215.56
793.54	215.48
793.86	215.43
794.18	215.40
794.50	215.30
794.82	215.29
795.14	215.23
795.47	215.22
795.79	215.15
796.11	215.08
796.43	214.93
796.75	214.92
797.07	214.89
797.39	214.87
797.71	214.75
798.04	214.69
798.36	214.61
798.68	214.55
799.00	214.53
799.32	214.41
799.64	214.44
799.96	214.45
800.28	214.49
800.60	214.48
800.92	214.40
801.24	214.30
801.56	214.29
801.89	214.19
802.21	214.15
802.53	214.18
802.85	214.17
803.17	214.28
803.49	214.24
803.81	214.22
804.13	214.18
804.45	214.16
804.77	214.13
805.09	214.12
805.41	214.05
805.73	214.10
806.05	214.03
806.37	213.97
806.69	213.90
807.01	213.89
807.33	213.85
807.65	213.82
807.97	213.90
808.28	213.80
808.60	213.81
808.92	213.76
809.24	213.78
809.56	213.70
809.88	213.63
810.20	213.58
810.52	213.56
810.84	213.48
811.16	213.36
811.48	213.42
811.80	213.50
812.12	213.48
812.43	213.41
812.75	213.44
813.07	213.37
813.39	213.38
813.71	213.29
814.03	213.25
814.35	213.26
814.67	213.13
814.98	213.10
815.30	213.06
815.62	213.12
815.94	213.01
816.26	212.99
816.58	212.88
816.89	212.79
817.21	212.80
817.53	212.81
817.85	212.80
818.17	212.77
818.48	212.66
818.80	212.72
819.12	212.71
819.44	212.66
819.76	212.67
820.07	212.69
820.39	212.65
820.71	212.71
821.03	212.76
821.34	212.76
821.66	212.79
821.98	212.79
822.30	212.66
822.61	212.69
822.93	212.65
823.25	212.63
823.57	212.71
823.88	212.69
824.20	212.58
824.52	212.65
824.83	212.55
825.15	212.51
825.47	212.50
825.79	212.45
826.10	212.38
826.42	212.37
826.74	212.35
827.05	212.34
827.37	212.30
827.69	212.20
828.00	212.25
828.32	212.21
828.64	212.22
828.95	212.34
829.27	212.31
829.58	212.34
829.90	212.40
830.22	212.44
830.53	212.39
830.85	212.40
831.17	212.36
831.48	212.39
831.80	212.38
832.11	212.35
832.43	212.36
832.75	212.32
833.06	212.41
833.38	212.34
833.69	212.28
834.01	212.32
834.32	212.29
834.64	212.23
834.96	212.22
835.27	212.19
835.59	212.18
835.90	212.19
836.22	212.16
836.53	212.15
836.85	212.10
837.16	212.24
837.48	212.30
837.79	212.28
838.11	212.33
838.42	212.33
838.74	212.34
839.05	212.31
839.37	212.37
839.68	212.22
840.00	212.21
840.31	212.22
840.63	212.18
840.94	212.16
841.26	212.13
841.57	212.15
841.88	212.16
842.20	212.07
842.51	212.02
842.83	212.00
843.14	212.11
843.46	212.05
843.77	212.05
844.08	211.98
844.40	211.95
844.71	211.85
845.03	211.88
845.34	211.83
845.65	211.82
845.97	211.74
846.28	211.77
846.60	211.74
846.91	211.75
847.22	211.70
847.54	211.70
847.85	211.70
848.16	211.72
848.48	211.73
848.79	211.78
849.10	211.82
849.42	211.81
849.73	211.67
850.04	211.70
850.36	211.55
850.67	211.63
850.98	211.66
851.30	211.70
851.61	211.67
851.92	211.65
852.23	211.64
852.55	211.62
852.86	211.59
853.17	211.66
853.49	211.71
853.80	211.72
854.11	211.79
854.42	211.76
854.74	211.65
855.05	211.66
855.36	211.53
855.67	211.51
855.99	211.53
856.30	211.68
856.61	211.66
856.92	211.69
857.23	211.71
857.55	211.63
857.86	211.58
858.17	211.53
858.48	211.49
858.79	211.46
859.11	211.52
859.42	211.53
859.73	211.48
860.04	211.46
860.35	211.43
860.66	211.34
860.98	211.41
861.29	211.53
861.60	211.45
861.91	211.55
862.22	211.51
862.53	211.50
862.84	211.30
863.16	211.38
863.47	211.36
863.78	211.26
864.09	211.28
864.40	211.33
864.71	211.41
865.02	211.49
865.33	211.48
865.64	211.48
865.95	211.46
866.27	211.56
866.58	211.56
866.89	211.54
867.20	211.53
867.51	211.48
867.82	211.40
868.13	211.52
868.44	211.45
868.75	211.49
869.06	211.55
869.37	211.62
869.68	211.54
869.99	211.60
870.30	211.65
870.61	211.67
870.92	211.64
871.23	211.62
871.54	211.63
871.85	211.62
872.16	211.61
872.47	211.64
872.78	211.51
873.09	211.59
873.40	211.57
873.71	211.60
874.02	211.61
874.33	211.57
874.64	211.48
874.95	211.62
875.26	211.57
875.56	211.54
875.87	211.53
876.18	211.59
876.49	211.71
876.80	211.69
877.11	211.73
877.42	211.74
877.73	211.71
878.04	211.72
878.35	211.81
878.66	211.90
878.96	211.84
879.27	211.84
879.58	211.73
879.89	211.70
880.20	211.82
880.51	211.79
880.82	211.77
881.12	211.86
881.43	211.73
881.74	211.75
882.05	211.65
882.36	211.64
882.67	211.63
882.97	211.45
883.28	211.42
883.59	211.40
883.90	211.43
884.21	211.43
884.51	211.40
884.82	211.28
885.13	211.26
885.44	211.33
885.74	211.29
886.05	211.30
886.36	211.37
886.67	211.23
886.98	211.34
887.28	211.47
887.59	211.44
887.90	211.48
888.20	211.47
888.51	211.61
888.82	211.58
889.13	211.58
889.43	211.66
889.74	211.64
890.05	211.61
890.35	211.63
890.66	211.70
890.97	211.73
891.28	211.77
891.58	211.75
891.89	211.70
892.20	211.73
892.50	211.69
892.81	211.71
893.12	211.70
893.42	211.61
893.73	211.57
894.04	211.56
894.34	211.58
894.65	211.57
894.95	211.53
895.26	211.51
895.57	211.61
895.87	211.48
896.18	211.51
896.48	211.50
896.79	211.45
897.10	211.41
897.40	211.32
897.71	211.38
898.01	211.38
898.32	211.42
898.63	211.44
898.93	211.44
899.24	211.45
899.54	211.49
899.85	211.48
900.15	211.50
900.46	211.45
900.76	211.40
901.07	211.34
901.38	211.33
901.68	211.40
901.99	211.29
902.29	211.26
902.60	211.25
902.90	211.24
903.21	211.18
903.51	211.17
903.82	211.26
904.12	211.19
904.43	211.12
904.73	211.16
905.03	211.13
905.34	211.29
905.64	211.23
905.95	211.25
906.25	211.28
906.56	211.25
906.86	211.23
907.17	211.23
907.47	211.24
907.77	211.20
908.08	211.13
908.38	211.12
908.69	211.19
908.99	211.22
909.30	211.23
909.60	211.29
909.90	211.25
910.21	211.13
910.51	211.15
910.81	211.22
911.12	211.16
911.42	211.16
911.73	211.02
912.03	211.01
912.33	210.95
912.64	210.85
912.94	210.80
913.24	210.77
913.55	210.74
913.85	210.77
914.15	210.80
914.46	210.80
914.76	210.73
915.06	210.64
915.37	210.64
915.67	210.65
915.97	210.64
916.27	210.58
916.58	210.61
916.88	210.60
917.18	210.51
917.49	210.65
917.79	210.64
918.09	210.68
918.39	210.72
918.70	210.76
919.00	210.84
919.30	210.93
919.60	210.95
919.91	210.93
920.21	210.98
920.51	210.97
920.81	210.97
921.12	211.01
921.42	211.06
921.72	211.02
922.02	210.96
922.32	210.95
922.63	211.04
922.93	211.16
923.23	211.15
923.53	211.19
923.83	211.08
924.13	211.13
924.44	211.10
924.74	211.16
925.04	211.27
925.34	211.23
925.64	211.20
925.94	211.20
926.24	211.35
926.55	211.29
926.85	211.33
927.15	211.28
927.45	211.35
927.75	211.35
928.05	211.39
928.35	211.45
928.65	211.53
928.95	211.55
929.26	211.46
929.56	211.45
929.86	211.45
930.16	211.47
930.46	211.47
930.76	211.51
931.06	211.47
931.36	211.36
931.66	211.42
931.96	211.44
932.26	211.51
932.56	211.40
932.86	211.48
933.16	211.45
933.46	211.54
933.76	211.46
934.06	211.52
934.36	211.58
934.66	211.51
934.96	211.47
935.26	211.52
935.56	211.52
935.86	211.55
936.16	211.59
936.46	211.53
936.76	211.51
937.06	211.52
937.36	211.53
937.66	211.54
937.96	211.55
938.26	211.48
938.56	211.45
938.86	211.47
939.16	211.45
939.46	211.53
939.76	211.55
940.06	211.54
940.35	211.44
940.65	211.35
940.95	211.40
941.25	211.36
941.55	211.25
941.85	211.30
942.15	211.27
942.45	211.31
942.75	211.26
943.04	211.27
943.34	211.21
943.64	211.19
943.94	211.16
944.24	211.13
944.54	211.13
944.84	211.10
945.13	211.11
945.43	211.04
945.73	210.94
946.03	210.90
946.33	210.88
946.62	210.95
946.92	210.92
947.22	210.94
947.52	210.98
947.82	211.06
948.11	211.05
948.41	211.03
948.71	211.00
949.01	211.03
949.31	210.96
949.60	210.97
949.90	210.95
950.20	210.94
950.50	210.95
950.79	210.98
951.09	210.99
951.39	210.99
951.69	211.03
951.98	211.10
952.28	211.11
952.58	211.19
952.87	211.12
953.17	211.10
953.47	211.02
953.76	210.98
954.06	210.93
954.36	210.87
954.66	210.86
954.95	210.82
955.25	210.82
955.55	210.86
955.84	210.83
956.14	210.82
956.44	210.78
956.73	210.69
957.03	210.69
957.32	210.73
957.62	210.64
957.92	210.66
958.21	210.61
958.51	210.77
958.81	210.71
959.10	210.75
959.40	210.83
959.69	210.92
959.99	211.01
960.29	211.00
960.58	210.97
960.88	211.06
961.17	211.08
961.47	211.14
961.76	211.17
962.06	211.23
962.36	211.23
962.65	211.28
962.95	211.29
963.24	211.27
963.54	211.24
963.83	211.29
964.13	211.25
964.42	211.18
964.72	211.10
965.01	211.07
965.31	211.04
965.60	211.01
965.90	211.05
966.19	210.96
966.49	211.00
966.78	211.07
967.08	211.02
967.37	211.02
967.67	211.01
967.96	210.98
968.26	210.93
968.55	210.91
968.85	210.88
969.14	210.98
969.43	210.97
969.73	210.92
970.02	210.92
970.32	210.88
970.61	210.92
970.91	210.84
971.20	210.85
971.49	210.91
971.79	210.91
972.08	210.85
972.38	210.86
972.67	210.81
972.96	210.73
973.26	210.68
973.55	210.72
973.85	210.69
974.14	210.69
974.43	210.74
974.73	210.72
975.02	210.72
975.31	210.64
975.61	210.61
975.90	210.65
976.19	210.62
976.49	210.68
976.78	210.72
977.07	210.72
977.37	210.72
977.66	210.73
977.95	210.69
978.24	210.61
978.54	210.68
978.83	210.71
979.12	210.71
979.42	210.69
979.71	210.63
980.00	210.66
980.29	210.67
980.59	210.53
980.88	210.58
981.17	210.56
981.46	210.60
981.76	210.65
982.05	210.68
982.34	210.69
982.63	210.66
982.93	210.59
983.22	210.67
983.51	210.68
983.80	210.68
984.09	210.73
984.39	210.75
984.68	210.74
984.97	210.71
985.26	210.75
985.55	210.82
985.85	210.77
986.14	210.77
986.43	210.81
986.72	210.92
987.01	210.90
987.30	210.91
987.59	210.89
987.89	210.89
988.18	210.87
988.47	210.87
988.76	210.94
989.05	210.91
989.34	210.85
989.63	210.94
989.92	210.94
990.22	210.90
990.51	210.93
990.80	210.88
991.09	210.92
991.38	210.89
991.67	210.84
991.96	210.90
992.25	210.87
992.54	210.84
992.83	210.85
993.12	210.81
993.41	210.89
993.70	210.99
993.99	210.96
994.28	210.96
994.58	210.92
994.87	210.89
995.16	210.95
995.45	210.90
995.74	210.81
996.03	210.75
996.32	210.78
996.61	210.82
996.90	210.86
997.19	210.82
997.48	210.83
997.77	210.90
998.06	210.86
998.34	210.85
998.63	210.82
998.92	210.84
999.21	210.87
999.50	210.79
999.79	210.65
1000.08	210.71
1000.37	210.77
1000.66	210.79
1000.95	210.80
1001.24	210.81
1001.53	210.84
1001.82	210.81
1002.11	210.79
1002.40	210.75
1002.68	210.81
1002.97	210.89
1003.26	210.90
1003.55	210.88
1003.84	210.80
1004.13	210.86
1004.42	210.82
1004.71	210.82
1004.99	210.76
1005.28	210.84
1005.57	210.85
1005.86	210.91
1006.15	210.86
1006.44	210.77
1006.72	210.78
1007.01	210.77
1007.30	210.71
1007.59	210.69
1007.88	210.70
1008.17	210.66
1008.45	210.66
1008.74	210.53
1009.03	210.52
1009.32	210.46
1009.60	210.49
1009.89	210.52
1010.18	210.46
1010.47	210.46
1010.76	210.45
1011.04	210.47
1011.33	210.43
1011.62	210.48
1011.91	210.46
1012.19	210.56
1012.48	210.62
1012.77	210.59
1013.05	210.69
1013.34	210.73
1013.63	210.73
1013.92	210.76
1014.20	210.85
1014.49	210.85
1014.78	210.95
1015.06	210.85
1015.35	210.90
1015.64	210.93
1015.92	211.04
1016.21	211.09
1016.50	211.08
1016.78	211.16
1017.07	211.21
1017.36	211.16
1017.64	211.23
1017.93	211.24
1018.22	211.18
1018.50	211.20
1018.79	211.26
1019.08	211.20
1019.36	211.24
1019.65	211.29
1019.93	211.34
1020.22	211.36
1020.51	211.48
1020.79	211.43
1021.08	211.30
1021.36	211.65
1021.65	211.30
1021.94	211.85
1022.22	211.70
1022.51	211.50
1022.79	211.70
1023.08	211.50
1023.36	213.35
1023.65	210.90
>>>>>End Processed Spectral Data<<<<<
