SpectraSuite Data File
++++++++++++++++++++++++++++++++++++
Date: Mon Feb 25 17:33:25 EST 2013
User: group
Dark Spectrum Present: No
Reference Spectrum Present: No
Number of Sampled Component Spectra: 1
Spectrometers: USB2E7196
Integration Time (usec): 52000 (USB2E7196)
Spectra Averaged: 20 (USB2E7196)
Boxcar Smoothing: 10 (USB2E7196)
Correct for Electrical Dark: No (USB2E7196)
Strobe/Lamp Enabled: No (USB2E7196)
Correct for Detector Non-linearity: No (USB2E7196)
Correct for Stray Light: No (USB2E7196)
Number of Pixels in Processed Spectrum: 2048
>>>>>Begin Processed Spectral Data<<<<<
339.09	0.00
339.48	199.10
339.86	201.60
340.24	202.45
340.63	203.45
341.01	206.30
341.39	207.20
341.78	206.80
342.16	208.75
342.54	208.75
342.93	198.50
343.31	208.51
343.69	209.05
344.07	209.46
344.46	209.82
344.84	210.21
345.22	210.45
345.60	210.68
345.99	210.90
346.37	211.05
346.75	211.19
347.13	211.31
347.52	211.29
347.90	211.36
348.28	211.35
348.66	211.45
349.05	211.40
349.43	211.39
349.81	211.36
350.19	211.43
350.57	211.45
350.96	211.61
351.34	211.72
351.72	211.86
352.10	211.99
352.48	212.13
352.87	212.19
353.25	212.19
353.63	212.23
354.01	212.28
354.39	212.28
354.77	212.31
355.15	212.32
355.54	212.40
355.92	212.43
356.30	212.49
356.68	212.62
357.06	212.68
357.44	212.71
357.82	212.85
358.20	212.96
358.58	212.98
358.97	212.97
359.35	213.09
359.73	213.15
360.11	213.18
360.49	213.23
360.87	213.27
361.25	213.42
361.63	213.50
362.01	213.55
362.39	213.63
362.77	213.66
363.15	213.75
363.53	213.81
363.91	213.85
364.29	213.98
364.67	213.87
365.05	213.88
365.43	214.00
365.81	214.02
366.19	214.07
366.57	214.21
366.95	214.23
367.33	214.15
367.71	214.15
368.09	214.20
368.47	214.22
368.85	214.24
369.23	214.29
369.61	214.25
369.99	214.28
370.37	214.28
370.75	214.39
371.13	214.33
371.51	214.28
371.89	214.21
372.27	214.18
372.65	214.14
373.03	214.13
373.41	214.10
373.78	214.03
374.16	213.93
374.54	213.78
374.92	213.82
375.30	213.81
375.68	213.71
376.06	213.66
376.44	213.60
376.82	213.58
377.19	213.46
377.57	213.43
377.95	213.29
378.33	213.21
378.71	213.07
379.09	213.01
379.47	212.96
379.84	212.96
380.22	212.87
380.60	212.82
380.98	212.76
381.36	212.61
381.73	212.50
382.11	212.51
382.49	212.54
382.87	212.38
383.25	212.39
383.62	212.55
384.00	212.50
384.38	212.42
384.76	212.44
385.13	212.48
385.51	212.44
385.89	212.41
386.27	212.39
386.64	212.35
387.02	212.29
387.40	212.26
387.78	212.21
388.15	212.10
388.53	212.03
388.91	212.01
389.29	212.03
389.66	212.04
390.04	211.97
390.42	211.96
390.79	212.00
391.17	211.90
391.55	211.65
391.92	211.64
392.30	211.61
392.68	211.50
393.05	211.50
393.43	211.50
393.81	211.52
394.18	211.50
394.56	211.48
394.94	211.53
395.31	211.60
395.69	211.67
396.06	211.77
396.44	211.82
396.82	211.77
397.19	211.82
397.57	211.87
397.95	211.94
398.32	211.86
398.70	211.85
399.07	211.92
399.45	211.95
399.82	211.94
400.20	212.00
400.58	212.08
400.95	212.03
401.33	212.06
401.70	212.26
402.08	212.42
402.45	212.46
402.83	212.60
403.20	212.59
403.58	212.61
403.95	212.78
404.33	212.89
404.71	213.06
405.08	213.25
405.46	213.34
405.83	213.45
406.21	213.59
406.58	213.72
406.96	213.89
407.33	214.15
407.70	214.40
408.08	214.76
408.45	214.93
408.83	215.18
409.20	215.43
409.58	215.56
409.95	215.78
410.33	216.21
410.70	216.46
411.08	216.83
411.45	217.26
411.82	217.48
412.20	217.93
412.57	218.52
412.95	218.85
413.32	219.46
413.69	220.02
414.07	220.57
414.44	221.33
414.82	221.95
415.19	222.66
415.56	223.36
415.94	224.07
416.31	224.95
416.68	225.86
417.06	226.85
417.43	227.89
417.81	228.96
418.18	230.10
418.55	231.25
418.93	232.53
419.30	233.77
419.67	235.19
420.04	236.57
420.42	238.00
420.79	239.84
421.16	241.51
421.54	243.38
421.91	245.33
422.28	247.21
422.66	249.26
423.03	251.33
423.40	253.39
423.77	255.54
424.15	257.87
424.52	260.10
424.89	262.71
425.26	265.14
425.64	267.51
426.01	270.01
426.38	272.63
426.75	275.30
427.13	278.14
427.50	281.16
427.87	284.33
428.24	287.37
428.61	290.24
428.99	293.51
429.36	296.86
429.73	300.28
430.10	303.65
430.47	307.17
430.85	310.70
431.22	314.53
431.59	318.75
431.96	322.60
432.33	327.03
432.70	331.15
433.08	336.04
433.45	340.59
433.82	345.23
434.19	350.35
434.56	355.45
434.93	360.28
435.30	364.99
435.68	370.21
436.05	375.49
436.42	380.62
436.79	385.20
437.16	390.25
437.53	395.61
437.90	400.92
438.27	406.08
438.64	411.49
439.01	416.49
439.38	420.75
439.75	424.98
440.13	429.82
440.50	434.36
440.87	438.09
441.24	442.01
441.61	446.23
441.98	449.36
442.35	452.86
442.72	456.53
443.09	460.02
443.46	462.06
443.83	463.28
444.20	464.48
444.57	466.31
444.94	467.12
445.31	467.91
445.68	468.69
446.05	468.98
446.42	468.28
446.79	467.60
447.16	466.85
447.53	466.31
447.90	464.22
448.27	462.10
448.64	459.12
449.01	456.94
449.37	453.37
449.74	449.92
450.11	445.83
450.48	441.26
450.85	436.63
451.22	432.70
451.59	429.10
451.96	425.56
452.33	420.77
452.70	416.34
453.07	411.20
453.43	405.97
453.80	400.93
454.17	396.20
454.54	391.64
454.91	386.80
455.28	381.98
455.65	377.53
456.02	373.25
456.38	369.68
456.75	365.08
457.12	361.16
457.49	357.35
457.86	353.63
458.23	350.56
458.59	347.18
458.96	343.63
459.33	340.46
459.70	337.28
460.07	334.78
460.43	331.99
460.80	329.29
461.17	326.92
461.54	324.56
461.91	322.25
462.27	319.90
462.64	317.87
463.01	315.64
463.38	313.55
463.74	311.31
464.11	309.33
464.48	307.70
464.85	305.93
465.21	304.55
465.58	303.13
465.95	301.27
466.32	299.84
466.68	298.41
467.05	297.01
467.42	295.72
467.78	294.20
468.15	292.95
468.52	291.98
468.88	290.72
469.25	289.51
469.62	288.55
469.98	287.50
470.35	286.55
470.72	285.76
471.08	284.84
471.45	284.07
471.82	283.33
472.18	282.48
472.55	281.79
472.92	281.07
473.28	280.41
473.65	279.87
474.02	279.31
474.38	278.90
474.75	278.50
475.11	278.01
475.48	277.81
475.85	277.55
476.21	277.27
476.58	277.14
476.94	277.07
477.31	277.01
477.67	276.99
478.04	277.07
478.41	277.24
478.77	277.48
479.14	277.65
479.50	277.89
479.87	278.24
480.23	278.67
480.60	279.08
480.96	279.54
481.33	280.21
481.69	280.83
482.06	281.51
482.42	282.17
482.79	282.88
483.15	283.73
483.52	284.69
483.88	285.69
484.25	286.57
484.61	287.59
484.98	288.64
485.34	289.92
485.71	291.17
486.07	292.48
486.44	293.88
486.80	295.44
487.17	297.11
487.53	298.90
487.90	300.70
488.26	302.60
488.62	304.63
488.99	306.59
489.35	308.77
489.72	310.96
490.08	313.40
490.44	315.85
490.81	318.61
491.17	321.23
491.54	324.11
491.90	327.19
492.26	330.41
492.63	333.82
492.99	337.33
493.36	340.99
493.72	344.90
494.08	348.87
494.45	353.08
494.81	357.40
495.17	361.99
495.54	366.84
495.90	371.85
496.26	377.05
496.63	382.52
496.99	388.24
497.35	394.35
497.72	400.55
498.08	407.02
498.44	413.68
498.80	420.83
499.17	428.24
499.53	435.81
499.89	443.73
500.26	451.83
500.62	460.11
500.98	468.98
501.34	478.08
501.71	487.49
502.07	497.18
502.43	507.34
502.79	517.56
503.16	528.31
503.52	539.25
503.88	550.58
504.24	562.11
504.60	573.83
504.97	586.01
505.33	598.45
505.69	611.89
506.05	625.30
506.41	638.94
506.78	652.74
507.14	666.96
507.50	681.52
507.86	696.45
508.22	711.98
508.59	727.66
508.95	743.50
509.31	759.79
509.67	776.38
510.03	793.17
510.39	810.83
510.75	828.64
511.12	846.88
511.48	865.30
511.84	883.98
512.20	902.84
512.56	922.16
512.92	941.85
513.28	961.30
513.64	981.14
514.00	1001.08
514.37	1021.45
514.73	1042.23
515.09	1063.22
515.45	1084.15
515.81	1105.28
516.17	1126.54
516.53	1148.14
516.89	1169.68
517.25	1191.29
517.61	1213.09
517.97	1234.57
518.33	1255.97
518.69	1277.42
519.05	1299.30
519.41	1321.51
519.77	1344.16
520.13	1366.33
520.49	1388.44
520.85	1411.13
521.21	1433.68
521.57	1456.94
521.93	1479.31
522.29	1502.24
522.65	1524.68
523.01	1547.17
523.37	1569.11
523.73	1591.51
524.09	1613.78
524.45	1636.06
524.81	1658.56
525.17	1681.00
525.53	1703.54
525.89	1725.79
526.25	1747.85
526.61	1769.31
526.97	1790.62
527.33	1811.88
527.68	1833.43
528.04	1854.67
528.40	1875.01
528.76	1895.76
529.12	1916.17
529.48	1937.90
529.84	1958.38
530.20	1978.71
530.56	1999.18
530.91	2020.21
531.27	2040.56
531.63	2060.47
531.99	2080.36
532.35	2099.48
532.71	2118.45
533.07	2137.80
533.42	2156.44
533.78	2175.43
534.14	2194.03
534.50	2211.55
534.86	2229.52
535.21	2246.35
535.57	2264.26
535.93	2281.80
536.29	2298.58
536.65	2315.21
537.00	2330.40
537.36	2345.50
537.72	2360.82
538.08	2376.29
538.44	2391.69
538.79	2407.07
539.15	2422.18
539.51	2436.80
539.87	2452.49
540.22	2467.15
540.58	2481.95
540.94	2496.61
541.29	2509.70
541.65	2522.28
542.01	2535.60
542.37	2547.83
542.72	2560.04
543.08	2570.59
543.44	2582.41
543.79	2592.82
544.15	2603.14
544.51	2614.09
544.87	2625.15
545.22	2634.66
545.58	2643.36
545.94	2650.46
546.29	2656.95
546.65	2663.10
547.01	2669.30
547.36	2674.79
547.72	2680.45
548.07	2684.33
548.43	2688.48
548.79	2692.42
549.14	2696.78
549.50	2701.65
549.86	2705.45
550.21	2709.66
550.57	2714.08
550.92	2716.59
551.28	2719.32
551.64	2721.90
551.99	2724.22
552.35	2725.98
552.70	2728.54
553.06	2731.10
553.41	2733.92
553.77	2736.94
554.13	2739.33
554.48	2741.72
554.84	2743.26
555.19	2743.59
555.55	2744.58
555.90	2744.79
556.26	2745.24
556.61	2745.07
556.97	2743.19
557.32	2742.74
557.68	2741.15
558.03	2739.93
558.39	2738.17
558.74	2737.79
559.10	2736.70
559.45	2735.07
559.81	2734.08
560.16	2731.45
560.52	2728.73
560.87	2725.90
561.23	2722.16
561.58	2719.83
561.94	2716.70
562.29	2712.79
562.64	2710.82
563.00	2708.06
563.35	2706.15
563.71	2704.76
564.06	2703.06
564.42	2701.79
564.77	2699.62
565.12	2697.70
565.48	2694.19
565.83	2691.42
566.19	2688.47
566.54	2684.01
566.89	2680.17
567.25	2676.43
567.60	2673.29
567.96	2669.92
568.31	2666.47
568.66	2662.47
569.02	2657.88
569.37	2652.46
569.72	2648.57
570.08	2643.13
570.43	2637.25
570.78	2631.54
571.14	2624.86
571.49	2617.92
571.84	2611.92
572.20	2604.83
572.55	2598.15
572.90	2591.59
573.26	2584.89
573.61	2577.52
573.96	2571.44
574.31	2563.57
574.67	2554.96
575.02	2546.38
575.37	2537.81
575.72	2529.00
576.08	2521.62
576.43	2512.72
576.78	2505.16
577.13	2497.18
577.49	2488.94
577.84	2481.57
578.19	2473.51
578.54	2466.18
578.90	2459.39
579.25	2450.15
579.60	2441.08
579.95	2432.18
580.30	2424.10
580.66	2415.73
581.01	2406.65
581.36	2397.03
581.71	2388.43
582.06	2380.12
582.42	2372.19
582.77	2363.00
583.12	2353.77
583.47	2344.84
583.82	2336.81
584.17	2327.24
584.53	2318.12
584.88	2309.75
585.23	2300.17
585.58	2290.77
585.93	2280.92
586.28	2271.65
586.63	2263.27
586.98	2255.04
587.34	2246.17
587.69	2237.15
588.04	2227.87
588.39	2219.43
588.74	2210.29
589.09	2201.58
589.44	2192.04
589.79	2183.18
590.14	2175.45
590.49	2167.55
590.84	2158.70
591.19	2149.92
591.54	2141.43
591.89	2131.25
592.25	2121.46
592.60	2112.34
592.95	2102.75
593.30	2093.32
593.65	2083.45
594.00	2073.69
594.35	2065.37
594.70	2056.26
595.05	2047.41
595.40	2038.86
595.75	2029.40
596.10	2021.36
596.45	2012.96
596.80	2005.29
597.15	1996.94
597.50	1987.79
597.85	1979.27
598.19	1970.62
598.54	1962.46
598.89	1954.58
599.24	1948.03
599.59	1940.64
599.94	1933.55
600.29	1925.90
600.64	1918.25
600.99	1909.71
601.34	1902.42
601.69	1893.41
602.04	1885.34
602.39	1877.02
602.74	1869.17
603.08	1862.30
603.43	1854.80
603.78	1846.75
604.13	1838.79
604.48	1830.65
604.83	1823.45
605.18	1816.08
605.53	1808.36
605.87	1800.71
606.22	1793.62
606.57	1785.77
606.92	1777.81
607.27	1769.75
607.62	1762.61
607.96	1755.66
608.31	1749.39
608.66	1741.59
609.01	1734.27
609.36	1726.59
609.70	1718.93
610.05	1711.03
610.40	1702.70
610.75	1694.28
611.10	1686.77
611.44	1677.19
611.79	1668.22
612.14	1659.20
612.49	1649.57
612.83	1640.57
613.18	1630.77
613.53	1621.02
613.88	1610.90
614.22	1601.85
614.57	1592.56
614.92	1583.01
615.27	1573.47
615.61	1563.75
615.96	1554.55
616.31	1545.99
616.65	1537.83
617.00	1529.21
617.35	1520.75
617.70	1511.92
618.04	1502.98
618.39	1493.41
618.74	1485.19
619.08	1476.55
619.43	1467.86
619.78	1460.23
620.12	1452.21
620.47	1444.38
620.82	1435.87
621.16	1427.84
621.51	1419.45
621.85	1411.24
622.20	1402.83
622.55	1394.41
622.89	1386.16
623.24	1378.23
623.59	1369.60
623.93	1361.05
624.28	1352.79
624.62	1344.40
624.97	1336.26
625.32	1328.18
625.66	1320.90
626.01	1313.49
626.35	1306.20
626.70	1298.60
627.04	1291.13
627.39	1283.50
627.73	1275.86
628.08	1269.03
628.43	1261.42
628.77	1254.13
629.12	1246.43
629.46	1239.75
629.81	1232.42
630.15	1224.98
630.50	1217.54
630.84	1210.24
631.19	1203.02
631.53	1196.36
631.88	1188.67
632.22	1181.05
632.57	1174.43
632.91	1166.76
633.26	1159.29
633.60	1152.16
633.95	1145.52
634.29	1138.07
634.64	1131.40
634.98	1124.43
635.32	1117.10
635.67	1110.75
636.01	1104.03
636.36	1097.35
636.70	1090.60
637.05	1084.05
637.39	1077.84
637.73	1071.52
638.08	1065.58
638.42	1059.86
638.77	1053.02
639.11	1046.83
639.45	1040.97
639.80	1034.08
640.14	1027.96
640.49	1021.74
640.83	1015.25
641.17	1008.71
641.52	1002.49
641.86	996.05
642.20	989.90
642.55	983.43
642.89	977.02
643.23	970.52
643.58	964.71
643.92	958.13
644.26	951.89
644.61	945.70
644.95	939.62
645.29	933.31
645.64	926.59
645.98	920.50
646.32	914.63
646.66	908.42
647.01	902.62
647.35	896.56
647.69	890.41
648.04	884.54
648.38	878.62
648.72	872.59
649.06	866.44
649.41	860.35
649.75	854.56
650.09	848.72
650.43	842.87
650.78	836.61
651.12	830.48
651.46	824.64
651.80	818.80
652.14	812.84
652.49	806.80
652.83	801.05
653.17	795.02
653.51	789.16
653.85	783.37
654.20	777.50
654.54	771.53
654.88	765.90
655.22	760.03
655.56	754.13
655.90	748.15
656.25	742.57
656.59	737.13
656.93	732.10
657.27	726.76
657.61	721.39
657.95	716.32
658.29	711.34
658.64	706.20
658.98	700.95
659.32	695.47
659.66	690.50
660.00	685.08
660.34	680.03
660.68	674.85
661.02	669.66
661.36	664.95
661.70	660.26
662.05	655.78
662.39	651.59
662.73	647.25
663.07	643.11
663.41	638.68
663.75	634.04
664.09	628.99
664.43	624.32
664.77	620.03
665.11	615.47
665.45	611.20
665.79	606.67
666.13	602.19
666.47	598.14
666.81	593.80
667.15	589.76
667.49	585.80
667.83	581.96
668.17	578.23
668.51	574.35
668.85	570.70
669.19	566.76
669.53	562.66
669.87	558.66
670.21	554.74
670.55	550.78
670.89	547.34
671.23	544.11
671.57	540.55
671.91	536.70
672.25	533.17
672.58	529.59
672.92	526.26
673.26	523.12
673.60	519.92
673.94	516.62
674.28	513.27
674.62	510.14
674.96	506.80
675.30	503.59
675.64	500.39
675.97	497.05
676.31	494.02
676.65	491.14
676.99	488.33
677.33	485.37
677.67	482.45
678.01	479.42
678.34	476.36
678.68	473.48
679.02	470.67
679.36	467.88
679.70	464.97
680.04	462.06
680.37	459.16
680.71	456.28
681.05	453.59
681.39	450.97
681.73	448.20
682.06	445.59
682.40	443.14
682.74	440.53
683.08	438.06
683.42	435.36
683.75	432.72
684.09	430.10
684.43	427.59
684.77	425.03
685.10	422.52
685.44	420.04
685.78	417.57
686.12	415.20
686.45	412.75
686.79	410.55
687.13	408.45
687.46	406.24
687.80	404.01
688.14	401.71
688.48	399.49
688.81	397.16
689.15	394.98
689.49	392.69
689.82	390.50
690.16	388.19
690.50	385.94
690.83	383.70
691.17	381.50
691.51	379.30
691.84	377.23
692.18	375.15
692.52	373.24
692.85	371.35
693.19	369.60
693.52	367.65
693.86	365.57
694.20	363.72
694.53	361.81
694.87	359.82
695.21	357.98
695.54	356.10
695.88	354.27
696.21	352.43
696.55	350.66
696.88	348.92
697.22	347.17
697.56	345.64
697.89	344.00
698.23	342.33
698.56	340.75
698.90	339.26
699.23	337.68
699.57	336.10
699.90	334.54
700.24	332.85
700.58	331.28
700.91	329.82
701.25	328.38
701.58	326.95
701.92	325.53
702.25	324.11
702.59	322.79
702.92	321.43
703.26	320.17
703.59	318.81
703.93	317.58
704.26	316.33
704.60	315.05
704.93	313.76
705.26	312.48
705.60	311.27
705.93	309.96
706.27	308.82
706.60	307.68
706.94	306.57
707.27	305.32
707.61	304.24
707.94	303.14
708.27	301.79
708.61	300.58
708.94	299.35
709.28	298.19
709.61	296.92
709.94	295.85
710.28	294.69
710.61	293.67
710.95	292.42
711.28	291.47
711.61	290.39
711.95	289.43
712.28	288.49
712.61	287.46
712.95	286.58
713.28	285.59
713.61	284.53
713.95	283.58
714.28	282.70
714.61	281.67
714.95	280.71
715.28	279.77
715.61	278.85
715.95	278.08
716.28	277.28
716.61	276.55
716.95	275.67
717.28	274.85
717.61	274.09
717.94	273.45
718.28	272.56
718.61	271.77
718.94	271.03
719.27	270.31
719.61	269.61
719.94	268.95
720.27	268.16
720.60	267.46
720.94	266.61
721.27	265.89
721.60	265.38
721.93	264.72
722.27	264.22
722.60	263.67
722.93	263.07
723.26	262.43
723.59	261.83
723.93	261.20
724.26	260.67
724.59	260.01
724.92	259.45
725.25	258.89
725.59	258.38
725.92	257.89
726.25	257.27
726.58	256.76
726.91	256.14
727.24	255.71
727.57	255.24
727.91	254.79
728.24	254.33
728.57	253.88
728.90	253.54
729.23	252.95
729.56	252.52
729.89	252.00
730.22	251.53
730.55	251.12
730.89	250.79
731.22	250.27
731.55	249.87
731.88	249.38
732.21	248.99
732.54	248.63
732.87	248.09
733.20	247.72
733.53	247.33
733.86	246.85
734.19	246.39
734.52	245.97
734.85	245.73
735.18	245.33
735.51	244.92
735.84	244.43
736.17	244.18
736.50	243.74
736.83	243.65
737.16	243.30
737.49	242.92
737.82	242.46
738.15	242.15
738.48	241.74
738.81	241.35
739.14	240.99
739.47	240.58
739.80	240.25
740.13	239.90
740.46	239.48
740.79	239.12
741.12	238.83
741.45	238.57
741.78	238.22
742.11	237.92
742.44	237.57
742.77	237.30
743.10	236.92
743.43	236.61
743.75	236.06
744.08	235.87
744.41	235.46
744.74	235.24
745.07	234.98
745.40	234.79
745.73	234.60
746.06	234.33
746.39	234.03
746.71	233.75
747.04	233.48
747.37	233.22
747.70	233.03
748.03	232.68
748.36	232.42
748.68	232.00
749.01	231.65
749.34	231.40
749.67	231.10
750.00	230.96
750.33	230.94
750.65	230.65
750.98	230.25
751.31	230.09
751.64	229.79
751.97	229.56
752.29	229.24
752.62	229.04
752.95	228.75
753.28	228.44
753.60	228.24
753.93	228.12
754.26	227.90
754.59	227.60
754.91	227.36
755.24	227.12
755.57	227.01
755.90	226.91
756.22	226.69
756.55	226.50
756.88	226.20
757.20	225.75
757.53	225.58
757.86	225.38
758.19	225.22
758.51	225.07
758.84	224.81
759.17	224.61
759.49	224.33
759.82	224.30
760.15	224.23
760.47	224.00
760.80	223.71
761.13	223.61
761.45	223.54
761.78	223.46
762.11	223.34
762.43	223.20
762.76	223.05
763.08	222.93
763.41	222.82
763.74	222.68
764.06	222.57
764.39	222.41
764.71	222.35
765.04	222.19
765.37	222.04
765.69	221.96
766.02	221.86
766.34	221.74
766.67	221.48
767.00	221.34
767.32	221.44
767.65	221.46
767.97	221.28
768.30	221.10
768.62	220.96
768.95	220.75
769.27	220.64
769.60	220.49
769.92	220.38
770.25	220.26
770.57	220.15
770.90	220.02
771.22	219.94
771.55	219.82
771.87	219.70
772.20	219.56
772.52	219.58
772.85	219.66
773.17	219.56
773.50	219.54
773.82	219.45
774.15	219.22
774.47	219.04
774.80	218.92
775.12	218.79
775.45	218.67
775.77	218.63
776.09	218.49
776.42	218.43
776.74	218.34
777.07	218.25
777.39	218.10
777.72	218.01
778.04	217.91
778.36	217.81
778.69	217.81
779.01	217.74
779.33	217.50
779.66	217.27
779.98	217.18
780.31	217.09
780.63	217.10
780.95	217.11
781.28	217.05
781.60	217.00
781.92	217.05
782.25	217.05
782.57	217.03
782.89	216.92
783.22	216.93
783.54	216.85
783.86	216.79
784.19	216.77
784.51	216.85
784.83	216.88
785.16	216.83
785.48	216.69
785.80	216.75
786.12	216.73
786.45	216.66
786.77	216.68
787.09	216.63
787.42	216.54
787.74	216.50
788.06	216.39
788.38	216.36
788.71	216.37
789.03	216.25
789.35	216.22
789.67	216.22
789.99	216.12
790.32	216.05
790.64	216.05
790.96	216.15
791.28	216.01
791.61	215.91
791.93	215.87
792.25	215.82
792.57	215.85
792.89	215.75
793.21	215.76
793.54	215.67
793.86	215.62
794.18	215.57
794.50	215.41
794.82	215.39
795.14	215.31
795.47	215.24
795.79	215.24
796.11	215.09
796.43	215.02
796.75	215.00
797.07	214.96
797.39	214.88
797.71	214.68
798.04	214.62
798.36	214.57
798.68	214.53
799.00	214.57
799.32	214.46
799.64	214.48
799.96	214.38
800.28	214.44
800.60	214.41
800.92	214.35
801.24	214.31
801.56	214.33
801.89	214.37
802.21	214.32
802.53	214.28
802.85	214.40
803.17	214.46
803.49	214.45
803.81	214.43
804.13	214.41
804.45	214.42
804.77	214.45
805.09	214.46
805.41	214.48
805.73	214.32
806.05	214.28
806.37	214.30
806.69	214.26
807.01	214.21
807.33	214.19
807.65	214.10
807.97	214.20
808.28	214.12
808.60	214.08
808.92	214.08
809.24	214.19
809.56	214.10
809.88	213.96
810.20	213.88
810.52	213.90
810.84	213.85
811.16	213.82
811.48	213.74
811.80	213.84
812.12	213.79
812.43	213.86
812.75	213.83
813.07	213.76
813.39	213.85
813.71	213.81
814.03	213.75
814.35	213.76
814.67	213.65
814.98	213.60
815.30	213.65
815.62	213.58
815.94	213.33
816.26	213.33
816.58	213.33
816.89	213.36
817.21	213.30
817.53	213.29
817.85	213.30
818.17	213.39
818.48	213.21
818.80	213.24
819.12	213.23
819.44	213.20
819.76	213.17
820.07	213.13
820.39	213.15
820.71	213.15
821.03	213.16
821.34	213.15
821.66	213.14
821.98	213.11
822.30	213.07
822.61	213.25
822.93	213.19
823.25	213.18
823.57	213.13
823.88	213.17
824.20	213.14
824.52	213.11
824.83	213.01
825.15	212.99
825.47	212.92
825.79	212.92
826.10	212.86
826.42	212.87
826.74	212.85
827.05	212.75
827.37	212.80
827.69	212.75
828.00	212.80
828.32	212.85
828.64	212.80
828.95	212.90
829.27	212.82
829.58	212.82
829.90	212.81
830.22	212.80
830.53	212.76
830.85	212.76
831.17	212.73
831.48	212.65
831.80	212.69
832.11	212.74
832.43	212.69
832.75	212.71
833.06	212.82
833.38	212.75
833.69	212.65
834.01	212.63
834.32	212.64
834.64	212.60
834.96	212.55
835.27	212.53
835.59	212.45
835.90	212.41
836.22	212.37
836.53	212.35
836.85	212.30
837.16	212.45
837.48	212.38
837.79	212.43
838.11	212.44
838.42	212.40
838.74	212.34
839.05	212.30
839.37	212.27
839.68	212.14
840.00	212.06
840.31	212.17
840.63	212.07
840.94	212.00
841.26	211.95
841.57	211.97
841.88	211.92
842.20	211.87
842.51	211.79
842.83	211.82
843.14	212.02
843.46	212.06
843.77	211.92
844.08	212.01
844.40	211.94
844.71	211.97
845.03	211.95
845.34	211.88
845.65	211.86
845.97	211.79
846.28	211.76
846.60	211.75
846.91	211.71
847.22	211.73
847.54	211.75
847.85	211.73
848.16	211.67
848.48	211.61
848.79	211.70
849.10	211.78
849.42	211.77
849.73	211.54
850.04	211.50
850.36	211.42
850.67	211.36
850.98	211.38
851.30	211.41
851.61	211.44
851.92	211.45
852.23	211.52
852.55	211.58
852.86	211.55
853.17	211.64
853.49	211.68
853.80	211.67
854.11	211.78
854.42	211.75
854.74	211.78
855.05	211.90
855.36	211.81
855.67	211.83
855.99	211.83
856.30	212.02
856.61	211.97
856.92	212.04
857.23	212.04
857.55	211.97
857.86	211.91
858.17	211.93
858.48	211.93
858.79	211.90
859.11	211.93
859.42	211.99
859.73	211.91
860.04	211.92
860.35	211.95
860.66	211.87
860.98	211.92
861.29	211.89
861.60	211.82
861.91	211.86
862.22	211.81
862.53	211.75
862.84	211.61
863.16	211.68
863.47	211.59
863.78	211.67
864.09	211.76
864.40	211.80
864.71	211.75
865.02	211.78
865.33	211.80
865.64	211.70
865.95	211.67
866.27	211.74
866.58	211.70
866.89	211.63
867.20	211.60
867.51	211.48
867.82	211.43
868.13	211.51
868.44	211.49
868.75	211.53
869.06	211.55
869.37	211.52
869.68	211.46
869.99	211.47
870.30	211.43
870.61	211.40
870.92	211.34
871.23	211.29
871.54	211.30
871.85	211.33
872.16	211.37
872.47	211.30
872.78	211.24
873.09	211.27
873.40	211.32
873.71	211.35
874.02	211.42
874.33	211.46
874.64	211.37
874.95	211.33
875.26	211.26
875.56	211.27
875.87	211.21
876.18	211.22
876.49	211.44
876.80	211.41
877.11	211.39
877.42	211.44
877.73	211.47
878.04	211.44
878.35	211.36
878.66	211.37
878.96	211.43
879.27	211.43
879.58	211.43
879.89	211.32
880.20	211.35
880.51	211.35
880.82	211.36
881.12	211.40
881.43	211.37
881.74	211.42
882.05	211.44
882.36	211.55
882.67	211.59
882.97	211.41
883.28	211.41
883.59	211.37
883.90	211.39
884.21	211.44
884.51	211.39
884.82	211.44
885.13	211.50
885.44	211.48
885.74	211.48
886.05	211.44
886.36	211.49
886.67	211.45
886.98	211.59
887.28	211.61
887.59	211.64
887.90	211.75
888.20	211.67
888.51	211.72
888.82	211.70
889.13	211.67
889.43	211.72
889.74	211.69
890.05	211.77
890.35	211.76
890.66	211.73
890.97	211.76
891.28	211.70
891.58	211.67
891.89	211.72
892.20	211.68
892.50	211.67
892.81	211.70
893.12	211.68
893.42	211.54
893.73	211.49
894.04	211.48
894.34	211.43
894.65	211.43
894.95	211.36
895.26	211.38
895.57	211.50
895.87	211.45
896.18	211.46
896.48	211.40
896.79	211.35
897.10	211.36
897.40	211.32
897.71	211.37
898.01	211.31
898.32	211.29
898.63	211.35
898.93	211.29
899.24	211.24
899.54	211.22
899.85	211.32
900.15	211.34
900.46	211.32
900.76	211.37
901.07	211.39
901.38	211.42
901.68	211.29
901.99	211.19
902.29	211.15
902.60	211.14
902.90	211.16
903.21	211.15
903.51	211.17
903.82	211.23
904.12	211.21
904.43	211.25
904.73	211.25
905.03	211.24
905.34	211.49
905.64	211.58
905.95	211.57
906.25	211.50
906.56	211.48
906.86	211.44
907.17	211.38
907.47	211.41
907.77	211.40
908.08	211.45
908.38	211.44
908.69	211.45
908.99	211.49
909.30	211.50
909.60	211.58
909.90	211.57
910.21	211.53
910.51	211.46
910.81	211.47
911.12	211.47
911.42	211.56
911.73	211.33
912.03	211.32
912.33	211.40
912.64	211.43
912.94	211.48
913.24	211.53
913.55	211.54
913.85	211.55
914.15	211.57
914.46	211.60
914.76	211.68
915.06	211.76
915.37	211.73
915.67	211.69
915.97	211.70
916.27	211.72
916.58	211.69
916.88	211.78
917.18	211.79
917.49	211.86
917.79	211.79
918.09	211.88
918.39	211.92
918.70	211.87
919.00	211.85
919.30	211.93
919.60	211.89
919.91	211.84
920.21	211.86
920.51	211.76
920.81	211.72
921.12	211.65
921.42	211.57
921.72	211.59
922.02	211.57
922.32	211.55
922.63	211.59
922.93	211.76
923.23	211.76
923.53	211.73
923.83	211.66
924.13	211.67
924.44	211.67
924.74	211.70
925.04	211.71
925.34	211.64
925.64	211.52
925.94	211.53
926.24	211.63
926.55	211.58
926.85	211.64
927.15	211.66
927.45	211.68
927.75	211.71
928.05	211.74
928.35	211.83
928.65	211.83
928.95	211.73
929.26	211.61
929.56	211.59
929.86	211.53
930.16	211.52
930.46	211.49
930.76	211.43
931.06	211.34
931.36	211.36
931.66	211.38
931.96	211.41
932.26	211.36
932.56	211.31
932.86	211.33
933.16	211.26
933.46	211.28
933.76	211.26
934.06	211.32
934.36	211.35
934.66	211.21
934.96	211.22
935.26	211.27
935.56	211.30
935.86	211.27
936.16	211.29
936.46	211.32
936.76	211.34
937.06	211.30
937.36	211.31
937.66	211.26
937.96	211.28
938.26	211.23
938.56	211.25
938.86	211.23
939.16	211.27
939.46	211.36
939.76	211.31
940.06	211.25
940.35	211.20
940.65	211.03
940.95	211.11
941.25	211.00
941.55	210.91
941.85	210.87
942.15	210.86
942.45	210.86
942.75	210.85
943.04	210.81
943.34	210.85
943.64	210.82
943.94	210.83
944.24	210.84
944.54	210.91
944.84	210.95
945.13	210.91
945.43	210.87
945.73	210.85
946.03	210.90
946.33	210.93
946.62	210.89
946.92	210.87
947.22	210.82
947.52	210.84
947.82	210.90
948.11	210.92
948.41	210.86
948.71	210.88
949.01	210.85
949.31	210.83
949.60	210.89
949.90	210.85
950.20	210.79
950.50	210.75
950.79	210.74
951.09	210.72
951.39	210.70
951.69	210.72
951.98	210.78
952.28	210.74
952.58	210.74
952.87	210.73
953.17	210.84
953.47	210.88
953.76	210.92
954.06	210.91
954.36	210.85
954.66	210.94
954.95	210.95
955.25	211.03
955.55	211.06
955.84	211.00
956.14	211.01
956.44	211.04
956.73	211.08
957.03	211.09
957.32	211.06
957.62	211.17
957.92	211.13
958.21	211.03
958.51	211.23
958.81	211.24
959.10	211.30
959.40	211.36
959.69	211.35
959.99	211.36
960.29	211.32
960.58	211.42
960.88	211.41
961.17	211.39
961.47	211.38
961.76	211.37
962.06	211.37
962.36	211.39
962.65	211.45
962.95	211.40
963.24	211.37
963.54	211.45
963.83	211.41
964.13	211.44
964.42	211.48
964.72	211.36
965.01	211.36
965.31	211.29
965.60	211.25
965.90	211.42
966.19	211.41
966.49	211.45
966.78	211.38
967.08	211.45
967.37	211.41
967.67	211.43
967.96	211.42
968.26	211.43
968.55	211.48
968.85	211.46
969.14	211.48
969.43	211.51
969.73	211.53
970.02	211.51
970.32	211.42
970.61	211.38
970.91	211.34
971.20	211.34
971.49	211.38
971.79	211.33
972.08	211.09
972.38	211.07
972.67	211.06
972.96	211.14
973.26	211.09
973.55	211.24
973.85	211.21
974.14	211.26
974.43	211.31
974.73	211.30
975.02	211.25
975.31	211.19
975.61	211.15
975.90	210.98
976.19	210.92
976.49	210.97
976.78	210.97
977.07	210.91
977.37	210.94
977.66	210.91
977.95	210.94
978.24	211.01
978.54	211.04
978.83	211.04
979.12	211.01
979.42	210.97
979.71	210.93
980.00	210.88
980.29	210.86
980.59	210.89
980.88	210.87
981.17	210.90
981.46	210.96
981.76	210.97
982.05	211.10
982.34	211.16
982.63	211.20
982.93	211.23
983.22	211.30
983.51	211.28
983.80	211.30
984.09	211.31
984.39	211.30
984.68	211.29
984.97	211.33
985.26	211.27
985.55	211.30
985.85	211.25
986.14	211.27
986.43	211.31
986.72	211.26
987.01	211.28
987.30	211.30
987.59	211.30
987.89	211.36
988.18	211.34
988.47	211.31
988.76	211.23
989.05	211.18
989.34	211.10
989.63	211.10
989.92	211.07
990.22	211.03
990.51	211.02
990.80	211.00
991.09	210.98
991.38	210.93
991.67	210.89
991.96	210.81
992.25	210.86
992.54	210.80
992.83	210.72
993.12	210.67
993.41	210.65
993.70	210.70
993.99	210.66
994.28	210.58
994.58	210.64
994.87	210.74
995.16	210.72
995.45	210.71
995.74	210.67
996.03	210.69
996.32	210.76
996.61	210.85
996.90	210.88
997.19	210.91
997.48	210.99
997.77	210.95
998.06	210.95
998.34	210.87
998.63	210.86
998.92	210.90
999.21	210.90
999.50	210.90
999.79	210.82
1000.08	210.80
1000.37	210.82
1000.66	210.78
1000.95	210.76
1001.24	210.78
1001.53	210.81
1001.82	210.91
1002.11	210.80
1002.40	210.79
1002.68	210.72
1002.97	210.76
1003.26	210.69
1003.55	210.61
1003.84	210.67
1004.13	210.74
1004.42	210.72
1004.71	210.67
1004.99	210.65
1005.28	210.72
1005.57	210.66
1005.86	210.68
1006.15	210.64
1006.44	210.55
1006.72	210.58
1007.01	210.59
1007.30	210.62
1007.59	210.64
1007.88	210.59
1008.17	210.68
1008.45	210.60
1008.74	210.64
1009.03	210.60
1009.32	210.67
1009.60	210.74
1009.89	210.69
1010.18	210.66
1010.47	210.73
1010.76	210.76
1011.04	210.76
1011.33	210.71
1011.62	210.77
1011.91	210.79
1012.19	210.83
1012.48	210.98
1012.77	210.97
1013.05	211.03
1013.34	211.04
1013.63	211.04
1013.92	211.01
1014.20	211.00
1014.49	211.06
1014.78	211.01
1015.06	210.90
1015.35	210.86
1015.64	210.93
1015.92	210.96
1016.21	210.95
1016.50	210.94
1016.78	211.01
1017.07	211.02
1017.36	211.05
1017.64	211.08
1017.93	211.01
1018.22	211.01
1018.50	210.95
1018.79	210.96
1019.08	210.90
1019.36	210.92
1019.65	210.84
1019.93	210.93
1020.22	210.92
1020.51	210.96
1020.79	211.05
1021.08	210.55
1021.36	210.60
1021.65	211.30
1021.94	212.10
1022.22	211.35
1022.51	209.85
1022.79	211.80
1023.08	210.30
1023.36	212.35
1023.65	212.20
>>>>>End Processed Spectral Data<<<<<
