SpectraSuite Data File
++++++++++++++++++++++++++++++++++++
Date: Mon Feb 25 17:33:06 EST 2013
User: group
Dark Spectrum Present: No
Reference Spectrum Present: No
Number of Sampled Component Spectra: 1
Spectrometers: USB2E7196
Integration Time (usec): 52000 (USB2E7196)
Spectra Averaged: 20 (USB2E7196)
Boxcar Smoothing: 10 (USB2E7196)
Correct for Electrical Dark: No (USB2E7196)
Strobe/Lamp Enabled: No (USB2E7196)
Correct for Detector Non-linearity: No (USB2E7196)
Correct for Stray Light: No (USB2E7196)
Number of Pixels in Processed Spectrum: 2048
>>>>>Begin Processed Spectral Data<<<<<
339.09	0.00
339.48	199.55
339.86	200.50
340.24	201.35
340.63	203.55
341.01	206.70
341.39	206.35
341.78	207.00
342.16	208.55
342.54	209.50
342.93	198.24
343.31	208.25
343.69	208.79
344.07	209.28
344.46	209.72
344.84	210.10
345.22	210.28
345.60	210.52
345.99	210.73
346.37	210.86
346.75	210.93
347.13	211.01
347.52	211.13
347.90	211.21
348.28	211.35
348.66	211.35
349.05	211.26
349.43	211.34
349.81	211.39
350.19	211.26
350.57	211.31
350.96	211.39
351.34	211.47
351.72	211.48
352.10	211.52
352.48	211.55
352.87	211.55
353.25	211.68
353.63	211.77
354.01	211.80
354.39	211.91
354.77	212.04
355.15	212.07
355.54	212.11
355.92	212.19
356.30	212.18
356.68	212.38
357.06	212.43
357.44	212.47
357.82	212.55
358.20	212.65
358.58	212.76
358.97	212.86
359.35	212.96
359.73	213.11
360.11	213.17
360.49	213.24
360.87	213.32
361.25	213.39
361.63	213.45
362.01	213.49
362.39	213.55
362.77	213.56
363.15	213.65
363.53	213.61
363.91	213.56
364.29	213.63
364.67	213.46
365.05	213.54
365.43	213.56
365.81	213.59
366.19	213.76
366.57	213.85
366.95	213.84
367.33	213.83
367.71	213.85
368.09	213.88
368.47	213.85
368.85	213.83
369.23	213.86
369.61	213.79
369.99	213.85
370.37	213.73
370.75	213.84
371.13	213.76
371.51	213.77
371.89	213.81
372.27	213.76
372.65	213.76
373.03	213.71
373.41	213.73
373.78	213.68
374.16	213.58
374.54	213.45
374.92	213.42
375.30	213.38
375.68	213.29
376.06	213.24
376.44	213.29
376.82	213.25
377.19	213.13
377.57	213.05
377.95	212.90
378.33	212.89
378.71	212.73
379.09	212.70
379.47	212.72
379.84	212.67
380.22	212.60
380.60	212.47
380.98	212.50
381.36	212.40
381.73	212.30
382.11	212.25
382.49	212.22
382.87	212.10
383.25	212.06
383.62	212.21
384.00	212.12
384.38	212.04
384.76	212.02
385.13	212.09
385.51	211.96
385.89	212.00
386.27	211.95
386.64	211.88
387.02	211.77
387.40	211.71
387.78	211.64
388.15	211.57
388.53	211.58
388.91	211.49
389.29	211.47
389.66	211.46
390.04	211.40
390.42	211.41
390.79	211.38
391.17	211.34
391.55	211.07
391.92	211.07
392.30	211.08
392.68	211.01
393.05	210.96
393.43	211.07
393.81	210.99
394.18	211.01
394.56	211.02
394.94	211.15
395.31	211.11
395.69	211.16
396.06	211.23
396.44	211.27
396.82	211.25
397.19	211.32
397.57	211.35
397.95	211.42
398.32	211.36
398.70	211.45
399.07	211.51
399.45	211.59
399.82	211.65
400.20	211.68
400.58	211.76
400.95	211.81
401.33	211.87
401.70	212.10
402.08	212.11
402.45	212.18
402.83	212.26
403.20	212.34
403.58	212.42
403.95	212.50
404.33	212.59
404.71	212.60
405.08	212.77
405.46	212.89
405.83	212.97
406.21	213.15
406.58	213.25
406.96	213.40
407.33	213.55
407.70	213.74
408.08	214.08
408.45	214.32
408.83	214.54
409.20	214.72
409.58	214.91
409.95	215.24
410.33	215.57
410.70	215.80
411.08	216.13
411.45	216.51
411.82	216.88
412.20	217.43
412.57	218.04
412.95	218.40
413.32	218.88
413.69	219.39
414.07	219.90
414.44	220.53
414.82	221.13
415.19	221.91
415.56	222.68
415.94	223.34
416.31	224.26
416.68	225.09
417.06	226.14
417.43	227.04
417.81	228.12
418.18	229.30
418.55	230.55
418.93	231.79
419.30	233.03
419.67	234.45
420.04	235.83
420.42	237.25
420.79	239.08
421.16	240.90
421.54	242.75
421.91	244.68
422.28	246.65
422.66	248.66
423.03	250.73
423.40	252.75
423.77	254.96
424.15	257.11
424.52	259.47
424.89	261.99
425.26	264.51
425.64	266.88
426.01	269.34
426.38	272.03
426.75	274.74
427.13	277.59
427.50	280.53
427.87	283.56
428.24	286.63
428.61	289.49
428.99	292.73
429.36	296.25
429.73	299.70
430.10	303.14
430.47	306.71
430.85	310.35
431.22	314.20
431.59	318.38
431.96	322.31
432.33	326.74
432.70	330.94
433.08	335.84
433.45	340.44
433.82	345.10
434.19	350.23
434.56	355.29
434.93	360.06
435.30	364.82
435.68	370.07
436.05	375.21
436.42	380.37
436.79	384.99
437.16	390.01
437.53	395.39
437.90	400.77
438.27	405.96
438.64	411.23
439.01	416.27
439.38	420.70
439.75	424.96
440.13	429.71
440.50	434.25
440.87	437.89
441.24	441.75
441.61	445.92
441.98	449.05
442.35	452.66
442.72	456.38
443.09	459.89
443.46	461.96
443.83	463.41
444.20	464.59
444.57	466.38
444.94	467.18
445.31	467.88
445.68	468.52
446.05	468.79
446.42	468.18
446.79	467.37
447.16	466.44
447.53	465.84
447.90	463.73
448.27	461.62
448.64	458.71
449.01	456.56
449.37	452.99
449.74	449.43
450.11	445.35
450.48	440.80
450.85	436.14
451.22	432.19
451.59	428.48
451.96	424.87
452.33	420.16
452.70	415.75
453.07	410.56
453.43	405.31
453.80	400.33
454.17	395.59
454.54	391.05
454.91	386.36
455.28	381.58
455.65	377.29
456.02	372.99
456.38	369.32
456.75	364.74
457.12	360.85
457.49	356.98
457.86	353.16
458.23	349.96
458.59	346.57
458.96	343.08
459.33	339.94
459.70	336.85
460.07	334.25
460.43	331.51
460.80	328.76
461.17	326.39
461.54	323.96
461.91	321.64
462.27	319.30
462.64	317.19
463.01	315.04
463.38	312.81
463.74	310.58
464.11	308.70
464.48	307.07
464.85	305.38
465.21	304.12
465.58	302.77
465.95	301.12
466.32	299.76
466.68	298.35
467.05	296.93
467.42	295.65
467.78	294.21
468.15	292.82
468.52	291.96
468.88	290.74
469.25	289.49
469.62	288.54
469.98	287.51
470.35	286.57
470.72	285.75
471.08	284.89
471.45	284.11
471.82	283.33
472.18	282.43
472.55	281.73
472.92	280.97
473.28	280.37
473.65	279.69
474.02	279.04
474.38	278.62
474.75	278.28
475.11	277.78
475.48	277.54
475.85	277.39
476.21	277.16
476.58	276.95
476.94	276.85
477.31	276.78
477.67	276.79
478.04	276.80
478.41	276.83
478.77	277.10
479.14	277.28
479.50	277.60
479.87	277.95
480.23	278.37
480.60	278.74
480.96	279.12
481.33	279.83
481.69	280.36
482.06	280.96
482.42	281.59
482.79	282.34
483.15	283.23
483.52	284.15
483.88	285.05
484.25	286.11
484.61	287.19
484.98	288.27
485.34	289.53
485.71	290.89
486.07	292.39
486.44	293.60
486.80	295.16
487.17	296.68
487.53	298.47
487.90	300.33
488.26	302.27
488.62	304.42
488.99	306.29
489.35	308.57
489.72	310.83
490.08	313.22
490.44	315.70
490.81	318.25
491.17	320.82
491.54	323.70
491.90	326.67
492.26	330.01
492.63	333.25
492.99	336.68
493.36	340.32
493.72	344.06
494.08	348.09
494.45	352.31
494.81	356.84
495.17	361.40
495.54	366.17
495.90	371.11
496.26	376.20
496.63	381.83
496.99	387.57
497.35	393.65
497.72	399.82
498.08	406.31
498.44	413.09
498.80	420.25
499.17	427.61
499.53	435.25
499.89	443.28
500.26	451.47
500.62	459.86
500.98	468.70
501.34	477.72
501.71	487.15
502.07	496.91
502.43	506.92
502.79	517.10
503.16	527.89
503.52	538.83
503.88	550.09
504.24	561.54
504.60	573.47
504.97	585.78
505.33	598.30
505.69	611.66
506.05	625.17
506.41	638.80
506.78	652.70
507.14	666.74
507.50	681.03
507.86	696.03
508.22	711.59
508.59	727.18
508.95	743.28
509.31	759.41
509.67	776.16
510.03	792.99
510.39	810.68
510.75	828.26
511.12	846.45
511.48	864.60
511.84	883.22
512.20	901.70
512.56	921.01
512.92	940.75
513.28	960.20
513.64	979.95
514.00	1000.02
514.37	1020.15
514.73	1041.11
515.09	1061.97
515.45	1082.70
515.81	1103.79
516.17	1125.10
516.53	1146.46
516.89	1168.35
517.25	1189.62
517.61	1211.39
517.97	1232.74
518.33	1254.10
518.69	1275.71
519.05	1297.85
519.41	1319.96
519.77	1342.53
520.13	1364.51
520.49	1386.48
520.85	1409.22
521.21	1431.79
521.57	1454.89
521.93	1477.19
522.29	1500.09
522.65	1522.67
523.01	1545.56
523.37	1567.56
523.73	1589.91
524.09	1612.01
524.45	1634.11
524.81	1656.70
525.17	1678.98
525.53	1701.44
525.89	1724.06
526.25	1745.99
526.61	1767.56
526.97	1789.39
527.33	1810.63
527.68	1832.13
528.04	1853.00
528.40	1873.08
528.76	1893.81
529.12	1914.47
529.48	1936.18
529.84	1956.15
530.20	1976.37
530.56	1996.65
530.91	2017.48
531.27	2038.05
531.63	2058.05
531.99	2077.77
532.35	2096.97
532.71	2116.10
533.07	2135.56
533.42	2154.23
533.78	2173.69
534.14	2192.01
534.50	2209.05
534.86	2227.14
535.21	2243.82
535.57	2262.01
535.93	2279.58
536.29	2296.31
536.65	2312.54
537.00	2327.76
537.36	2343.63
537.72	2358.98
538.08	2373.95
538.44	2389.30
538.79	2404.15
539.15	2418.73
539.51	2433.44
539.87	2448.60
540.22	2463.16
540.58	2478.00
540.94	2492.34
541.29	2504.77
541.65	2516.93
542.01	2530.54
542.37	2542.39
542.72	2555.13
543.08	2565.93
543.44	2577.53
543.79	2587.86
544.15	2598.00
544.51	2608.91
544.87	2619.22
545.22	2628.58
545.58	2637.46
545.94	2644.50
546.29	2651.22
546.65	2657.94
547.01	2664.18
547.36	2669.83
547.72	2675.31
548.07	2679.38
548.43	2683.26
548.79	2687.36
549.14	2692.14
549.50	2696.62
549.86	2701.07
550.21	2704.94
550.57	2709.05
550.92	2711.69
551.28	2714.30
551.64	2717.14
551.99	2720.03
552.35	2721.71
552.70	2724.38
553.06	2727.25
553.41	2730.67
553.77	2733.64
554.13	2735.94
554.48	2738.22
554.84	2739.34
555.19	2740.06
555.55	2740.68
555.90	2741.43
556.26	2741.84
556.61	2742.17
556.97	2740.54
557.32	2739.69
557.68	2737.68
558.03	2736.38
558.39	2734.92
558.74	2734.52
559.10	2733.40
559.45	2731.51
559.81	2730.51
560.16	2727.89
560.52	2725.24
560.87	2721.82
561.23	2717.98
561.58	2715.77
561.94	2712.60
562.29	2709.29
562.64	2707.12
563.00	2704.71
563.35	2702.24
563.71	2700.41
564.06	2697.87
564.42	2696.03
564.77	2693.93
565.12	2692.30
565.48	2689.04
565.83	2686.30
566.19	2683.06
566.54	2678.75
566.89	2674.70
567.25	2671.06
567.60	2667.88
567.96	2664.21
568.31	2660.83
568.66	2657.11
569.02	2652.48
569.37	2647.33
569.72	2643.56
570.08	2638.05
570.43	2632.26
570.78	2626.37
571.14	2619.90
571.49	2613.57
571.84	2607.95
572.20	2600.78
572.55	2594.22
572.90	2587.30
573.26	2580.34
573.61	2573.32
573.96	2566.65
574.31	2559.02
574.67	2551.03
575.02	2542.67
575.37	2533.65
575.72	2524.67
576.08	2517.01
576.43	2508.04
576.78	2500.07
577.13	2491.82
577.49	2483.77
577.84	2476.19
578.19	2468.77
578.54	2461.52
578.90	2454.44
579.25	2445.42
579.60	2436.59
579.95	2427.37
580.30	2419.52
580.66	2411.28
581.01	2401.97
581.36	2392.46
581.71	2384.03
582.06	2375.23
582.42	2366.69
582.77	2358.10
583.12	2349.18
583.47	2340.45
583.82	2332.30
584.17	2323.19
584.53	2314.20
584.88	2305.29
585.23	2295.65
585.58	2285.90
585.93	2275.75
586.28	2266.29
586.63	2257.34
586.98	2248.86
587.34	2240.16
587.69	2230.72
588.04	2221.71
588.39	2213.56
588.74	2204.95
589.09	2196.24
589.44	2186.99
589.79	2178.46
590.14	2170.59
590.49	2162.05
590.84	2152.69
591.19	2144.54
591.54	2135.89
591.89	2125.80
592.25	2116.68
592.60	2107.75
592.95	2098.23
593.30	2089.15
593.65	2079.57
594.00	2070.08
594.35	2061.76
594.70	2052.55
595.05	2044.12
595.40	2035.06
595.75	2025.46
596.10	2017.22
596.45	2008.48
596.80	2000.43
597.15	1992.03
597.50	1982.81
597.85	1974.65
598.19	1966.35
598.54	1957.65
598.89	1949.57
599.24	1942.93
599.59	1935.52
599.94	1928.21
600.29	1920.80
600.64	1912.95
600.99	1904.30
601.34	1897.26
601.69	1888.42
602.04	1880.70
602.39	1872.31
602.74	1864.48
603.08	1857.92
603.43	1850.75
603.78	1842.57
604.13	1834.67
604.48	1826.83
604.83	1819.66
605.18	1812.16
605.53	1804.83
605.87	1797.02
606.22	1790.09
606.57	1781.93
606.92	1773.55
607.27	1765.36
607.62	1758.08
607.96	1751.44
608.31	1745.48
608.66	1737.51
609.01	1730.02
609.36	1722.15
609.70	1714.58
610.05	1706.76
610.40	1698.41
610.75	1689.81
611.10	1682.30
611.44	1673.01
611.79	1663.91
612.14	1654.84
612.49	1645.60
612.83	1636.60
613.18	1627.20
613.53	1617.55
613.88	1607.88
614.22	1599.02
614.57	1589.92
614.92	1580.51
615.27	1570.86
615.61	1561.03
615.96	1552.00
616.31	1543.61
616.65	1535.72
617.00	1527.20
617.35	1518.56
617.70	1509.69
618.04	1500.68
618.39	1491.28
618.74	1483.00
619.08	1474.53
619.43	1466.19
619.78	1458.32
620.12	1449.99
620.47	1442.13
620.82	1433.54
621.16	1425.47
621.51	1417.34
621.85	1409.07
622.20	1400.73
622.55	1392.35
622.89	1384.10
623.24	1375.94
623.59	1366.93
623.93	1358.30
624.28	1350.18
624.62	1342.03
624.97	1333.84
625.32	1325.98
625.66	1319.00
626.01	1311.71
626.35	1304.32
626.70	1296.51
627.04	1288.98
627.39	1281.68
627.73	1274.17
628.08	1267.34
628.43	1259.71
628.77	1252.06
629.12	1244.59
629.46	1237.75
629.81	1230.58
630.15	1223.23
630.50	1216.01
630.84	1209.07
631.19	1201.84
631.53	1194.85
631.88	1187.11
632.22	1179.67
632.57	1172.96
632.91	1165.07
633.26	1157.45
633.60	1150.41
633.95	1143.94
634.29	1136.66
634.64	1129.91
634.98	1122.84
635.32	1115.65
635.67	1109.33
636.01	1102.77
636.36	1096.00
636.70	1089.38
637.05	1082.91
637.39	1076.67
637.73	1070.33
638.08	1064.38
638.42	1058.35
638.77	1051.93
639.11	1045.88
639.45	1039.85
639.80	1033.08
640.14	1026.95
640.49	1020.88
640.83	1014.50
641.17	1007.93
641.52	1001.87
641.86	995.22
642.20	989.05
642.55	982.49
642.89	975.85
643.23	969.40
643.58	963.38
643.92	956.76
644.26	950.43
644.61	944.25
644.95	938.13
645.29	931.87
645.64	925.40
645.98	919.13
646.32	912.95
646.66	906.65
647.01	900.61
647.35	894.70
647.69	888.41
648.04	882.40
648.38	876.37
648.72	870.28
649.06	864.23
649.41	858.24
649.75	852.43
650.09	846.77
650.43	840.90
650.78	834.72
651.12	828.78
651.46	823.09
651.80	817.13
652.14	811.21
652.49	805.25
652.83	799.59
653.17	793.31
653.51	787.59
653.85	781.93
654.20	776.07
654.54	770.15
654.88	764.64
655.22	758.82
655.56	752.94
655.90	746.99
656.25	741.26
656.59	735.62
656.93	730.52
657.27	725.38
657.61	719.89
657.95	714.90
658.29	709.76
658.64	704.52
658.98	699.33
659.32	693.91
659.66	688.71
660.00	683.23
660.34	678.39
660.68	673.37
661.02	668.35
661.36	663.71
661.70	658.96
662.05	654.24
662.39	649.93
662.73	645.49
663.07	641.29
663.41	636.97
663.75	632.62
664.09	627.82
664.43	623.07
664.77	618.82
665.11	614.21
665.45	609.95
665.79	605.47
666.13	601.12
666.47	597.02
666.81	592.90
667.15	588.88
667.49	584.83
667.83	580.88
668.17	576.94
668.51	573.05
668.85	569.19
669.19	565.58
669.53	561.50
669.87	557.61
670.21	553.85
670.55	549.89
670.89	546.35
671.23	543.05
671.57	539.54
671.91	535.87
672.25	532.32
672.58	528.62
672.92	525.25
673.26	522.07
673.60	518.75
673.94	515.30
674.28	512.04
674.62	508.99
674.96	505.84
675.30	502.83
675.64	499.80
675.97	496.66
676.31	493.49
676.65	490.62
676.99	487.94
677.33	484.90
677.67	482.10
678.01	478.94
678.34	475.85
678.68	472.87
679.02	470.12
679.36	467.47
679.70	464.78
680.04	461.77
680.37	458.77
680.71	456.07
681.05	453.62
681.39	450.89
681.73	448.17
682.06	445.57
682.40	442.88
682.74	440.09
683.08	437.54
683.42	434.92
683.75	432.39
684.09	429.61
684.43	427.16
684.77	424.60
685.10	422.23
685.44	419.74
685.78	417.30
686.12	414.92
686.45	412.47
686.79	410.13
687.13	408.13
687.46	405.91
687.80	403.60
688.14	401.16
688.48	399.06
688.81	396.81
689.15	394.56
689.49	392.28
689.82	390.15
690.16	387.82
690.50	385.62
690.83	383.34
691.17	381.25
691.51	378.98
691.84	376.85
692.18	374.78
692.52	372.74
692.85	370.95
693.19	369.07
693.52	367.18
693.86	365.16
694.20	363.17
694.53	361.36
694.87	359.49
695.21	357.60
695.54	355.68
695.88	353.81
696.21	352.01
696.55	350.35
696.88	348.61
697.22	346.83
697.56	345.16
697.89	343.60
698.23	342.00
698.56	340.44
698.90	339.06
699.23	337.37
699.57	335.88
699.90	334.17
700.24	332.41
700.58	330.85
700.91	329.37
701.25	328.05
701.58	326.59
701.92	325.14
702.25	323.86
702.59	322.39
702.92	321.03
703.26	319.60
703.59	318.29
703.93	317.04
704.26	315.85
704.60	314.60
704.93	313.32
705.26	312.03
705.60	310.85
705.93	309.41
706.27	308.29
706.60	307.05
706.94	305.93
707.27	304.85
707.61	303.79
707.94	302.57
708.27	301.22
708.61	300.06
708.94	298.91
709.28	297.77
709.61	296.76
709.94	295.85
710.28	294.89
710.61	293.87
710.95	292.65
711.28	291.76
711.61	290.76
711.95	289.81
712.28	288.83
712.61	287.82
712.95	287.02
713.28	286.13
713.61	285.13
713.95	284.22
714.28	283.36
714.61	282.30
714.95	281.46
715.28	280.52
715.61	279.57
715.95	278.63
716.28	277.71
716.61	276.78
716.95	275.79
717.28	274.95
717.61	274.06
717.94	273.41
718.28	272.49
718.61	271.73
718.94	270.85
719.27	270.01
719.61	269.31
719.94	268.47
720.27	267.61
720.60	266.92
720.94	266.19
721.27	265.40
721.60	264.75
721.93	264.08
722.27	263.53
722.60	262.97
722.93	262.40
723.26	261.79
723.59	261.19
723.93	260.55
724.26	259.96
724.59	259.33
724.92	258.76
725.25	258.26
725.59	257.68
725.92	257.35
726.25	256.90
726.58	256.39
726.91	255.89
727.24	255.46
727.57	254.98
727.91	254.41
728.24	254.03
728.57	253.56
728.90	253.11
729.23	252.59
729.56	252.24
729.89	251.77
730.22	251.28
730.55	250.88
730.89	250.49
731.22	250.02
731.55	249.67
731.88	249.19
732.21	248.69
732.54	248.22
732.87	247.69
733.20	247.24
733.53	246.84
733.86	246.45
734.19	245.93
734.52	245.62
734.85	245.50
735.18	245.04
735.51	244.75
735.84	244.42
736.17	244.10
736.50	243.55
736.83	243.38
737.16	243.07
737.49	242.77
737.82	242.42
738.15	242.00
738.48	241.63
738.81	241.26
739.14	240.92
739.47	240.61
739.80	240.26
740.13	239.93
740.46	239.46
740.79	239.07
741.12	238.77
741.45	238.36
741.78	237.85
742.11	237.53
742.44	237.20
742.77	236.87
743.10	236.58
743.43	236.26
743.75	235.71
744.08	235.58
744.41	235.28
744.74	235.01
745.07	234.76
745.40	234.49
745.73	234.30
746.06	234.10
746.39	233.83
746.71	233.54
747.04	233.25
747.37	232.96
747.70	232.77
748.03	232.67
748.36	232.47
748.68	232.18
749.01	231.88
749.34	231.60
749.67	231.38
750.00	231.10
750.33	230.94
750.65	230.82
750.98	230.33
751.31	230.05
751.64	229.74
751.97	229.53
752.29	229.30
752.62	228.96
752.95	228.76
753.28	228.50
753.60	228.25
753.93	228.09
754.26	227.97
754.59	227.63
754.91	227.25
755.24	227.00
755.57	226.77
755.90	226.58
756.22	226.29
756.55	226.09
756.88	225.89
757.20	225.63
757.53	225.35
757.86	225.23
758.19	225.07
758.51	224.96
758.84	224.76
759.17	224.55
759.49	224.43
759.82	224.30
760.15	224.11
760.47	223.94
760.80	223.75
761.13	223.57
761.45	223.47
761.78	223.37
762.11	223.21
762.43	223.07
762.76	222.97
763.08	222.85
763.41	222.69
763.74	222.57
764.06	222.49
764.39	222.44
764.71	222.35
765.04	222.21
765.37	222.03
765.69	221.84
766.02	221.72
766.34	221.57
766.67	221.37
767.00	221.35
767.32	221.36
767.65	221.34
767.97	221.24
768.30	221.09
768.62	220.97
768.95	220.90
769.27	220.84
769.60	220.71
769.92	220.62
770.25	220.47
770.57	220.33
770.90	220.24
771.22	220.08
771.55	219.98
771.87	219.86
772.20	219.69
772.52	219.69
772.85	219.84
773.17	219.82
773.50	219.68
773.82	219.52
774.15	219.34
774.47	219.17
774.80	218.99
775.12	218.96
775.45	218.89
775.77	218.80
776.09	218.71
776.42	218.63
776.74	218.59
777.07	218.50
777.39	218.46
777.72	218.34
778.04	218.28
778.36	218.12
778.69	218.09
779.01	218.14
779.33	218.04
779.66	217.75
779.98	217.67
780.31	217.62
780.63	217.59
780.95	217.60
781.28	217.50
781.60	217.45
781.92	217.35
782.25	217.31
782.57	217.22
782.89	217.09
783.22	217.09
783.54	217.01
783.86	217.00
784.19	216.90
784.51	216.80
784.83	216.69
785.16	216.67
785.48	216.57
785.80	216.47
786.12	216.40
786.45	216.37
786.77	216.25
787.09	216.13
787.42	216.05
787.74	215.96
788.06	215.90
788.38	215.89
788.71	215.80
789.03	215.77
789.35	215.78
789.67	215.73
789.99	215.65
790.32	215.53
790.64	215.50
790.96	215.56
791.28	215.54
791.61	215.46
791.93	215.41
792.25	215.41
792.57	215.56
792.89	215.50
793.21	215.46
793.54	215.35
793.86	215.39
794.18	215.34
794.50	215.30
794.82	215.25
795.14	215.22
795.47	215.24
795.79	215.13
796.11	215.02
796.43	214.96
796.75	214.93
797.07	214.91
797.39	214.88
797.71	214.76
798.04	214.75
798.36	214.72
798.68	214.64
799.00	214.56
799.32	214.41
799.64	214.43
799.96	214.40
800.28	214.52
800.60	214.51
800.92	214.46
801.24	214.37
801.56	214.39
801.89	214.33
802.21	214.25
802.53	214.20
802.85	214.28
803.17	214.32
803.49	214.26
803.81	214.25
804.13	214.13
804.45	214.00
804.77	214.00
805.09	214.01
805.41	214.05
805.73	214.00
806.05	213.92
806.37	213.89
806.69	213.85
807.01	213.81
807.33	213.75
807.65	213.71
807.97	213.76
808.28	213.75
808.60	213.75
808.92	213.74
809.24	213.86
809.56	213.76
809.88	213.72
810.20	213.70
810.52	213.67
810.84	213.70
811.16	213.76
811.48	213.68
811.80	213.77
812.12	213.74
812.43	213.73
812.75	213.70
813.07	213.60
813.39	213.53
813.71	213.40
814.03	213.35
814.35	213.37
814.67	213.34
814.98	213.22
815.30	213.18
815.62	213.14
815.94	212.96
816.26	212.95
816.58	212.91
816.89	212.90
817.21	212.88
817.53	212.92
817.85	212.89
818.17	212.95
818.48	212.88
818.80	212.90
819.12	212.87
819.44	212.82
819.76	212.80
820.07	212.82
820.39	212.80
820.71	212.82
821.03	212.74
821.34	212.68
821.66	212.77
821.98	212.76
822.30	212.81
822.61	212.92
822.93	212.93
823.25	212.92
823.57	212.90
823.88	212.90
824.20	212.85
824.52	212.89
824.83	212.83
825.15	212.76
825.47	212.70
825.79	212.71
826.10	212.70
826.42	212.67
826.74	212.72
827.05	212.69
827.37	212.71
827.69	212.70
828.00	212.65
828.32	212.65
828.64	212.72
828.95	212.83
829.27	212.71
829.58	212.60
829.90	212.65
830.22	212.69
830.53	212.67
830.85	212.67
831.17	212.61
831.48	212.56
831.80	212.58
832.11	212.56
832.43	212.57
832.75	212.64
833.06	212.75
833.38	212.62
833.69	212.69
834.01	212.63
834.32	212.63
834.64	212.62
834.96	212.51
835.27	212.45
835.59	212.27
835.90	212.28
836.22	212.31
836.53	212.23
836.85	212.14
837.16	212.28
837.48	212.20
837.79	212.18
838.11	212.18
838.42	212.19
838.74	212.14
839.05	212.04
839.37	211.91
839.68	211.78
840.00	211.80
840.31	211.75
840.63	211.72
840.94	211.75
841.26	211.74
841.57	211.79
841.88	211.73
842.20	211.77
842.51	211.71
842.83	211.71
843.14	211.88
843.46	211.86
843.77	211.68
844.08	211.70
844.40	211.63
844.71	211.57
845.03	211.51
845.34	211.53
845.65	211.54
845.97	211.61
846.28	211.67
846.60	211.68
846.91	211.60
847.22	211.63
847.54	211.61
847.85	211.63
848.16	211.60
848.48	211.60
848.79	211.65
849.10	211.70
849.42	211.72
849.73	211.53
850.04	211.57
850.36	211.56
850.67	211.61
850.98	211.61
851.30	211.69
851.61	211.68
851.92	211.70
852.23	211.71
852.55	211.68
852.86	211.59
853.17	211.55
853.49	211.58
853.80	211.62
854.11	211.63
854.42	211.66
854.74	211.66
855.05	211.67
855.36	211.57
855.67	211.52
855.99	211.48
856.30	211.72
856.61	211.66
856.92	211.68
857.23	211.63
857.55	211.63
857.86	211.55
858.17	211.62
858.48	211.55
858.79	211.51
859.11	211.49
859.42	211.52
859.73	211.48
860.04	211.59
860.35	211.54
860.66	211.58
860.98	211.58
861.29	211.54
861.60	211.55
861.91	211.60
862.22	211.68
862.53	211.65
862.84	211.35
863.16	211.45
863.47	211.45
863.78	211.45
864.09	211.45
864.40	211.54
864.71	211.50
865.02	211.54
865.33	211.57
865.64	211.55
865.95	211.54
866.27	211.62
866.58	211.55
866.89	211.57
867.20	211.48
867.51	211.41
867.82	211.42
868.13	211.44
868.44	211.40
868.75	211.39
869.06	211.42
869.37	211.48
869.68	211.40
869.99	211.44
870.30	211.52
870.61	211.57
870.92	211.48
871.23	211.47
871.54	211.54
871.85	211.62
872.16	211.69
872.47	211.73
872.78	211.70
873.09	211.72
873.40	211.72
873.71	211.70
874.02	211.75
874.33	211.76
874.64	211.71
874.95	211.64
875.26	211.63
875.56	211.68
875.87	211.71
876.18	211.75
876.49	211.92
876.80	211.81
877.11	211.76
877.42	211.81
877.73	211.82
878.04	211.75
878.35	211.73
878.66	211.67
878.96	211.60
879.27	211.62
879.58	211.58
879.89	211.56
880.20	211.65
880.51	211.63
880.82	211.55
881.12	211.58
881.43	211.67
881.74	211.67
882.05	211.65
882.36	211.57
882.67	211.58
882.97	211.42
883.28	211.41
883.59	211.48
883.90	211.48
884.21	211.45
884.51	211.45
884.82	211.42
885.13	211.43
885.44	211.45
885.74	211.39
886.05	211.46
886.36	211.43
886.67	211.40
886.98	211.56
887.28	211.60
887.59	211.65
887.90	211.60
888.20	211.58
888.51	211.60
888.82	211.58
889.13	211.56
889.43	211.60
889.74	211.52
890.05	211.43
890.35	211.47
890.66	211.48
890.97	211.47
891.28	211.47
891.58	211.41
891.89	211.42
892.20	211.41
892.50	211.34
892.81	211.36
893.12	211.40
893.42	211.26
893.73	211.30
894.04	211.31
894.34	211.35
894.65	211.32
894.95	211.29
895.26	211.33
895.57	211.38
895.87	211.25
896.18	211.36
896.48	211.46
896.79	211.39
897.10	211.36
897.40	211.32
897.71	211.37
898.01	211.34
898.32	211.40
898.63	211.43
898.93	211.49
899.24	211.45
899.54	211.36
899.85	211.39
900.15	211.38
900.46	211.38
900.76	211.37
901.07	211.30
901.38	211.25
901.68	211.29
901.99	211.16
902.29	211.23
902.60	211.22
902.90	211.14
903.21	211.17
903.51	211.15
903.82	211.19
904.12	211.16
904.43	211.31
904.73	211.26
905.03	211.27
905.34	211.32
905.64	211.34
905.95	211.36
906.25	211.28
906.56	211.27
906.86	211.18
907.17	211.19
907.47	211.27
907.77	211.29
908.08	211.25
908.38	211.36
908.69	211.45
908.99	211.50
909.30	211.51
909.60	211.55
909.90	211.60
910.21	211.62
910.51	211.65
910.81	211.62
911.12	211.66
911.42	211.65
911.73	211.53
912.03	211.54
912.33	211.54
912.64	211.52
912.94	211.47
913.24	211.49
913.55	211.46
913.85	211.44
914.15	211.42
914.46	211.45
914.76	211.41
915.06	211.26
915.37	211.22
915.67	211.25
915.97	211.19
916.27	211.15
916.58	211.11
916.88	211.07
917.18	210.99
917.49	211.13
917.79	211.05
918.09	211.12
918.39	211.14
918.70	211.19
919.00	211.31
919.30	211.39
919.60	211.38
919.91	211.34
920.21	211.35
920.51	211.32
920.81	211.30
921.12	211.31
921.42	211.31
921.72	211.31
922.02	211.30
922.32	211.36
922.63	211.35
922.93	211.52
923.23	211.50
923.53	211.52
923.83	211.35
924.13	211.43
924.44	211.38
924.74	211.42
925.04	211.41
925.34	211.35
925.64	211.28
925.94	211.27
926.24	211.39
926.55	211.39
926.85	211.45
927.15	211.40
927.45	211.42
927.75	211.42
928.05	211.43
928.35	211.43
928.65	211.45
928.95	211.50
929.26	211.37
929.56	211.42
929.86	211.45
930.16	211.45
930.46	211.41
930.76	211.45
931.06	211.39
931.36	211.36
931.66	211.41
931.96	211.40
932.26	211.46
932.56	211.41
932.86	211.40
933.16	211.42
933.46	211.47
933.76	211.45
934.06	211.55
934.36	211.60
934.66	211.63
934.96	211.56
935.26	211.52
935.56	211.50
935.86	211.48
936.16	211.45
936.46	211.41
936.76	211.46
937.06	211.46
937.36	211.48
937.66	211.46
937.96	211.44
938.26	211.45
938.56	211.43
938.86	211.39
939.16	211.55
939.46	211.59
939.76	211.58
940.06	211.62
940.35	211.59
940.65	211.57
940.95	211.52
941.25	211.52
941.55	211.59
941.85	211.61
942.15	211.64
942.45	211.73
942.75	211.76
943.04	211.80
943.34	211.75
943.64	211.70
943.94	211.73
944.24	211.75
944.54	211.82
944.84	211.77
945.13	211.76
945.43	211.68
945.73	211.61
946.03	211.60
946.33	211.54
946.62	211.51
946.92	211.52
947.22	211.55
947.52	211.64
947.82	211.68
948.11	211.64
948.41	211.61
948.71	211.51
949.01	211.57
949.31	211.50
949.60	211.55
949.90	211.58
950.20	211.57
950.50	211.50
950.79	211.45
951.09	211.51
951.39	211.49
951.69	211.43
951.98	211.43
952.28	211.42
952.58	211.37
952.87	211.35
953.17	211.27
953.47	211.27
953.76	211.14
954.06	211.12
954.36	211.07
954.66	211.05
954.95	211.14
955.25	211.17
955.55	211.19
955.84	211.12
956.14	211.12
956.44	211.13
956.73	211.13
957.03	211.14
957.32	211.13
957.62	211.18
957.92	211.19
958.21	211.19
958.51	211.37
958.81	211.39
959.10	211.38
959.40	211.48
959.69	211.41
959.99	211.50
960.29	211.44
960.58	211.47
960.88	211.53
961.17	211.48
961.47	211.44
961.76	211.36
962.06	211.42
962.36	211.41
962.65	211.37
962.95	211.40
963.24	211.33
963.54	211.34
963.83	211.33
964.13	211.44
964.42	211.45
964.72	211.30
965.01	211.38
965.31	211.37
965.60	211.40
965.90	211.55
966.19	211.52
966.49	211.46
966.78	211.46
967.08	211.41
967.37	211.37
967.67	211.30
967.96	211.41
968.26	211.41
968.55	211.36
968.85	211.37
969.14	211.39
969.43	211.40
969.73	211.37
970.02	211.32
970.32	211.21
970.61	211.14
970.91	211.16
971.20	211.16
971.49	211.16
971.79	211.13
972.08	210.97
972.38	210.93
972.67	211.01
972.96	211.07
973.26	211.03
973.55	211.09
973.85	211.02
974.14	210.99
974.43	211.01
974.73	211.07
975.02	211.06
975.31	211.04
975.61	211.00
975.90	211.04
976.19	211.00
976.49	210.97
976.78	210.97
977.07	210.93
977.37	210.91
977.66	210.92
977.95	210.87
978.24	211.00
978.54	211.04
978.83	211.01
979.12	211.02
979.42	211.08
979.71	211.06
980.00	211.11
980.29	211.14
980.59	211.04
980.88	211.07
981.17	211.12
981.46	211.12
981.76	211.18
982.05	211.19
982.34	211.25
982.63	211.29
982.93	211.31
983.22	211.32
983.51	211.33
983.80	211.33
984.09	211.38
984.39	211.33
984.68	211.29
984.97	211.17
985.26	211.11
985.55	211.14
985.85	211.09
986.14	211.12
986.43	211.11
986.72	211.17
987.01	211.08
987.30	211.05
987.59	211.01
987.89	211.00
988.18	210.92
988.47	210.87
988.76	210.85
989.05	210.75
989.34	210.80
989.63	210.76
989.92	210.75
990.22	210.66
990.51	210.53
990.80	210.55
991.09	210.67
991.38	210.70
991.67	210.61
991.96	210.64
992.25	210.65
992.54	210.59
992.83	210.51
993.12	210.43
993.41	210.44
993.70	210.52
993.99	210.53
994.28	210.53
994.58	210.59
994.87	210.52
995.16	210.51
995.45	210.43
995.74	210.36
996.03	210.37
996.32	210.41
996.61	210.54
996.90	210.53
997.19	210.47
997.48	210.46
997.77	210.36
998.06	210.30
998.34	210.28
998.63	210.26
998.92	210.31
999.21	210.31
999.50	210.28
999.79	210.23
1000.08	210.22
1000.37	210.27
1000.66	210.27
1000.95	210.42
1001.24	210.50
1001.53	210.51
1001.82	210.48
1002.11	210.47
1002.40	210.44
1002.68	210.45
1002.97	210.55
1003.26	210.55
1003.55	210.54
1003.84	210.64
1004.13	210.73
1004.42	210.71
1004.71	210.77
1004.99	210.78
1005.28	210.94
1005.57	210.91
1005.86	210.92
1006.15	210.92
1006.44	210.86
1006.72	210.82
1007.01	210.72
1007.30	210.69
1007.59	210.69
1007.88	210.73
1008.17	210.67
1008.45	210.66
1008.74	210.61
1009.03	210.54
1009.32	210.51
1009.60	210.51
1009.89	210.49
1010.18	210.39
1010.47	210.42
1010.76	210.44
1011.04	210.44
1011.33	210.38
1011.62	210.44
1011.91	210.39
1012.19	210.39
1012.48	210.45
1012.77	210.45
1013.05	210.56
1013.34	210.61
1013.63	210.64
1013.92	210.65
1014.20	210.71
1014.49	210.74
1014.78	210.78
1015.06	210.75
1015.35	210.80
1015.64	210.84
1015.92	210.90
1016.21	210.90
1016.50	210.94
1016.78	210.94
1017.07	210.99
1017.36	210.98
1017.64	210.96
1017.93	210.98
1018.22	210.95
1018.50	210.90
1018.79	210.92
1019.08	210.83
1019.36	210.86
1019.65	210.86
1019.93	210.91
1020.22	210.97
1020.51	211.05
1020.79	211.00
1021.08	210.05
1021.36	210.80
1021.65	210.20
1021.94	210.40
1022.22	211.45
1022.51	211.30
1022.79	211.45
1023.08	211.65
1023.36	212.80
1023.65	210.30
>>>>>End Processed Spectral Data<<<<<
