SpectraSuite Data File
++++++++++++++++++++++++++++++++++++
Date: Mon Feb 25 17:30:08 EST 2013
User: group
Dark Spectrum Present: No
Reference Spectrum Present: No
Number of Sampled Component Spectra: 1
Spectrometers: USB2E7196
Integration Time (usec): 52000 (USB2E7196)
Spectra Averaged: 20 (USB2E7196)
Boxcar Smoothing: 10 (USB2E7196)
Correct for Electrical Dark: No (USB2E7196)
Strobe/Lamp Enabled: No (USB2E7196)
Correct for Detector Non-linearity: No (USB2E7196)
Correct for Stray Light: No (USB2E7196)
Number of Pixels in Processed Spectrum: 2048
>>>>>Begin Processed Spectral Data<<<<<
339.09	0.00
339.48	198.75
339.86	199.90
340.24	201.20
340.63	203.40
341.01	207.35
341.39	205.70
341.78	206.90
342.16	209.45
342.54	208.75
342.93	198.42
343.31	208.40
343.69	208.97
344.07	209.43
344.46	209.88
344.84	210.28
345.22	210.43
345.60	210.70
345.99	210.89
346.37	210.98
346.75	211.05
347.13	211.10
347.52	211.15
347.90	211.17
348.28	211.06
348.66	211.13
349.05	211.07
349.43	211.08
349.81	211.10
350.19	211.15
350.57	211.16
350.96	211.23
351.34	211.37
351.72	211.40
352.10	211.50
352.48	211.59
352.87	211.61
353.25	211.67
353.63	211.70
354.01	211.75
354.39	211.79
354.77	211.96
355.15	212.00
355.54	212.04
355.92	212.13
356.30	212.28
356.68	212.38
357.06	212.43
357.44	212.45
357.82	212.51
358.20	212.54
358.58	212.63
358.97	212.69
359.35	212.80
359.73	212.93
360.11	213.04
360.49	213.13
360.87	213.23
361.25	213.34
361.63	213.46
362.01	213.52
362.39	213.60
362.77	213.63
363.15	213.63
363.53	213.73
363.91	213.71
364.29	213.76
364.67	213.66
365.05	213.78
365.43	213.80
365.81	213.91
366.19	213.97
366.57	214.01
366.95	214.06
367.33	214.00
367.71	214.01
368.09	214.07
368.47	214.06
368.85	213.98
369.23	214.01
369.61	213.95
369.99	214.03
370.37	214.09
370.75	214.07
371.13	214.11
371.51	214.10
371.89	214.08
372.27	214.06
372.65	214.07
373.03	214.00
373.41	214.02
373.78	213.90
374.16	213.78
374.54	213.80
374.92	213.75
375.30	213.70
375.68	213.60
376.06	213.49
376.44	213.35
376.82	213.36
377.19	213.27
377.57	213.24
377.95	213.11
378.33	212.91
378.71	212.83
379.09	212.78
379.47	212.73
379.84	212.67
380.22	212.66
380.60	212.57
380.98	212.52
381.36	212.40
381.73	212.28
382.11	212.33
382.49	212.20
382.87	212.11
383.25	212.03
383.62	212.17
384.00	212.12
384.38	212.13
384.76	212.14
385.13	212.16
385.51	212.10
385.89	212.04
386.27	212.05
386.64	212.01
387.02	211.93
387.40	211.87
387.78	211.90
388.15	211.84
388.53	211.73
388.91	211.70
389.29	211.75
389.66	211.90
390.04	211.79
390.42	211.88
390.79	211.91
391.17	212.00
391.55	211.80
391.92	211.77
392.30	211.74
392.68	211.67
393.05	211.66
393.43	211.66
393.81	211.64
394.18	211.66
394.56	211.68
394.94	211.71
395.31	211.67
395.69	211.69
396.06	211.74
396.44	211.84
396.82	211.79
397.19	211.83
397.57	211.80
397.95	211.90
398.32	211.75
398.70	211.78
399.07	211.81
399.45	211.85
399.82	211.90
400.20	211.98
400.58	212.05
400.95	212.06
401.33	212.12
401.70	212.40
402.08	212.53
402.45	212.56
402.83	212.72
403.20	212.87
403.58	212.90
403.95	212.94
404.33	213.05
404.71	213.17
405.08	213.41
405.46	213.45
405.83	213.60
406.21	213.70
406.58	213.81
406.96	213.90
407.33	214.09
407.70	214.29
408.08	214.61
408.45	214.85
408.83	215.06
409.20	215.31
409.58	215.43
409.95	215.67
410.33	216.00
410.70	216.18
411.08	216.55
411.45	216.93
411.82	217.26
412.20	217.66
412.57	218.18
412.95	218.47
413.32	218.90
413.69	219.30
414.07	219.93
414.44	220.55
414.82	221.12
415.19	221.85
415.56	222.51
415.94	223.14
416.31	223.96
416.68	224.83
417.06	225.75
417.43	226.62
417.81	227.68
418.18	228.71
418.55	229.96
418.93	231.14
419.30	232.44
419.67	233.82
420.04	235.23
420.42	236.70
420.79	238.43
421.16	240.15
421.54	242.00
421.91	243.77
422.28	245.64
422.66	247.61
423.03	249.54
423.40	251.56
423.77	253.69
424.15	255.83
424.52	258.11
424.89	260.56
425.26	262.95
425.64	265.20
426.01	267.75
426.38	270.29
426.75	272.92
427.13	275.52
427.50	278.31
427.87	281.26
428.24	284.20
428.61	286.95
428.99	290.15
429.36	293.50
429.73	296.79
430.10	300.05
430.47	303.50
430.85	307.01
431.22	310.77
431.59	314.88
431.96	318.58
432.33	322.70
432.70	326.74
433.08	331.59
433.45	336.10
433.82	340.52
434.19	345.45
434.56	350.28
434.93	355.00
435.30	359.62
435.68	364.70
436.05	369.74
436.42	374.74
436.79	379.25
437.16	384.10
437.53	389.26
437.90	394.46
438.27	399.39
438.64	404.58
439.01	409.38
439.38	413.51
439.75	417.71
440.13	422.39
440.50	426.85
440.87	430.29
441.24	433.90
441.61	437.84
441.98	440.69
442.35	444.15
442.72	447.78
443.09	451.11
443.46	453.07
443.83	454.29
444.20	455.49
444.57	457.11
444.94	457.85
445.31	458.63
445.68	459.39
446.05	459.65
446.42	458.91
446.79	458.14
447.16	457.32
447.53	456.78
447.90	454.83
448.27	452.77
448.64	449.96
449.01	447.94
449.37	444.58
449.74	441.36
450.11	437.50
450.48	433.00
450.85	428.68
451.22	424.94
451.59	421.44
451.96	417.91
452.33	413.37
452.70	409.26
453.07	404.25
453.43	399.12
453.80	394.36
454.17	389.91
454.54	385.59
454.91	380.98
455.28	376.27
455.65	371.98
456.02	367.80
456.38	364.29
456.75	359.87
457.12	356.14
457.49	352.40
457.86	348.65
458.23	345.58
458.59	342.16
458.96	338.70
459.33	335.61
459.70	332.58
460.07	330.20
460.43	327.32
460.80	324.82
461.17	322.54
461.54	320.23
461.91	317.92
462.27	315.64
462.64	313.66
463.01	311.56
463.38	309.52
463.74	307.38
464.11	305.63
464.48	304.00
464.85	302.29
465.21	301.00
465.58	299.68
465.95	298.05
466.32	296.72
466.68	295.39
467.05	294.06
467.42	292.68
467.78	291.17
468.15	289.95
468.52	288.94
468.88	287.65
469.25	286.47
469.62	285.59
469.98	284.64
470.35	283.74
470.72	282.93
471.08	282.02
471.45	281.31
471.82	280.55
472.18	279.70
472.55	279.12
472.92	278.43
473.28	277.79
473.65	277.25
474.02	276.70
474.38	276.29
474.75	275.93
475.11	275.63
475.48	275.46
475.85	275.19
476.21	275.00
476.58	274.93
476.94	274.90
477.31	274.90
477.67	274.83
478.04	274.82
478.41	274.95
478.77	275.28
479.14	275.41
479.50	275.69
479.87	276.11
480.23	276.51
480.60	276.91
480.96	277.34
481.33	277.91
481.69	278.57
482.06	279.19
482.42	279.87
482.79	280.62
483.15	281.47
483.52	282.51
483.88	283.46
484.25	284.48
484.61	285.48
484.98	286.53
485.34	287.84
485.71	289.26
486.07	290.70
486.44	291.93
486.80	293.47
487.17	294.96
487.53	296.68
487.90	298.44
488.26	300.33
488.62	302.46
488.99	304.43
489.35	306.54
489.72	308.89
490.08	311.36
490.44	313.75
490.81	316.35
491.17	319.02
491.54	321.90
491.90	324.88
492.26	328.17
492.63	331.44
492.99	334.93
493.36	338.58
493.72	342.51
494.08	346.59
494.45	350.94
494.81	355.43
495.17	359.90
495.54	364.83
495.90	369.84
496.26	374.88
496.63	380.45
496.99	386.18
497.35	392.04
497.72	398.19
498.08	404.68
498.44	411.33
498.80	418.50
499.17	425.93
499.53	433.53
499.89	441.44
500.26	449.61
500.62	457.66
500.98	466.33
501.34	475.26
501.71	484.48
502.07	493.90
502.43	503.76
502.79	514.04
503.16	524.54
503.52	535.40
503.88	546.61
504.24	558.04
504.60	569.86
504.97	581.97
505.33	594.49
505.69	607.59
506.05	620.93
506.41	634.31
506.78	647.98
507.14	662.01
507.50	676.29
507.86	691.05
508.22	706.57
508.59	721.72
508.95	737.36
509.31	753.32
509.67	769.76
510.03	786.61
510.39	803.68
510.75	821.01
511.12	838.88
511.48	856.98
511.84	875.37
512.20	893.81
512.56	912.88
512.92	932.02
513.28	951.08
513.64	970.54
514.00	990.05
514.37	1009.82
514.73	1030.01
515.09	1050.48
515.45	1070.87
515.81	1091.25
516.17	1112.33
516.53	1133.44
516.89	1154.64
517.25	1175.59
517.61	1196.60
517.97	1217.71
518.33	1238.85
518.69	1260.05
519.05	1281.41
519.41	1303.01
519.77	1324.87
520.13	1346.30
520.49	1367.73
520.85	1389.75
521.21	1411.39
521.57	1433.70
521.93	1455.61
522.29	1477.80
522.65	1499.68
523.01	1521.62
523.37	1543.03
523.73	1565.00
524.09	1586.50
524.45	1608.20
524.81	1629.99
525.17	1651.76
525.53	1673.54
525.89	1695.41
526.25	1716.66
526.61	1737.39
526.97	1758.15
527.33	1778.53
527.68	1799.24
528.04	1819.91
528.40	1839.57
528.76	1859.75
529.12	1879.38
529.48	1899.86
529.84	1919.73
530.20	1939.17
530.56	1958.85
530.91	1978.96
531.27	1998.30
531.63	2017.44
531.99	2036.47
532.35	2054.82
532.71	2072.84
533.07	2091.44
533.42	2108.86
533.78	2126.66
534.14	2144.40
534.50	2160.75
534.86	2178.12
535.21	2194.29
535.57	2211.17
535.93	2227.91
536.29	2244.19
536.65	2260.29
537.00	2274.90
537.36	2289.28
537.72	2303.47
538.08	2317.89
538.44	2332.39
538.79	2346.95
539.15	2360.90
539.51	2374.81
539.87	2389.50
540.22	2403.24
540.58	2417.47
540.94	2431.43
541.29	2444.06
541.65	2455.43
542.01	2467.99
542.37	2479.23
542.72	2490.75
543.08	2500.72
543.44	2511.80
543.79	2521.25
544.15	2530.75
544.51	2541.14
544.87	2551.37
545.22	2560.34
545.58	2568.15
545.94	2574.47
546.29	2580.16
546.65	2585.96
547.01	2591.39
547.36	2596.40
547.72	2601.40
548.07	2604.74
548.43	2607.78
548.79	2610.76
549.14	2614.91
549.50	2618.71
549.86	2622.33
550.21	2625.59
550.57	2629.25
550.92	2631.33
551.28	2633.70
551.64	2635.53
551.99	2637.86
552.35	2638.65
552.70	2640.79
553.06	2643.02
553.41	2645.87
553.77	2648.12
554.13	2650.00
554.48	2651.47
554.84	2652.15
555.19	2652.75
555.55	2652.88
555.90	2653.24
556.26	2653.66
556.61	2653.10
556.97	2651.72
557.32	2650.59
557.68	2648.76
558.03	2647.14
558.39	2645.22
558.74	2644.46
559.10	2643.25
559.45	2640.68
559.81	2639.34
560.16	2637.16
560.52	2634.20
560.87	2631.06
561.23	2627.43
561.58	2624.52
561.94	2621.33
562.29	2617.81
562.64	2614.94
563.00	2612.06
563.35	2609.13
563.71	2606.84
564.06	2604.64
564.42	2602.55
564.77	2600.08
565.12	2598.24
565.48	2594.66
565.83	2591.37
566.19	2587.95
566.54	2583.68
566.89	2579.38
567.25	2575.73
567.60	2571.84
567.96	2568.54
568.31	2564.87
568.66	2560.96
569.02	2556.75
569.37	2551.69
569.72	2547.77
570.08	2542.64
570.43	2537.43
570.78	2532.11
571.14	2526.24
571.49	2519.78
571.84	2513.73
572.20	2506.81
572.55	2500.12
572.90	2493.74
573.26	2487.17
573.61	2479.95
573.96	2473.86
574.31	2466.45
574.67	2458.65
575.02	2450.42
575.37	2441.80
575.72	2432.62
576.08	2425.25
576.43	2416.80
576.78	2408.96
577.13	2400.88
577.49	2393.06
577.84	2385.57
578.19	2377.95
578.54	2370.59
578.90	2364.09
579.25	2355.84
579.60	2347.15
579.95	2338.20
580.30	2330.52
580.66	2322.53
581.01	2314.06
581.36	2304.47
581.71	2296.36
582.06	2288.21
582.42	2280.17
582.77	2271.78
583.12	2263.51
583.47	2255.20
583.82	2247.14
584.17	2238.52
584.53	2229.86
584.88	2221.05
585.23	2211.76
585.58	2202.54
585.93	2193.07
586.28	2183.80
586.63	2175.40
586.98	2167.78
587.34	2159.89
587.69	2150.66
588.04	2142.27
588.39	2134.02
588.74	2125.69
589.09	2117.47
589.44	2108.00
589.79	2099.81
590.14	2092.10
590.49	2084.29
590.84	2075.51
591.19	2067.83
591.54	2059.63
591.89	2050.21
592.25	2041.70
592.60	2032.89
592.95	2024.35
593.30	2015.39
593.65	2006.23
594.00	1996.77
594.35	1988.55
594.70	1979.93
595.05	1972.10
595.40	1963.59
595.75	1954.59
596.10	1946.70
596.45	1938.54
596.80	1931.23
597.15	1923.17
597.50	1914.64
597.85	1906.61
598.19	1898.23
598.54	1889.84
598.89	1882.14
599.24	1875.68
599.59	1868.66
599.94	1861.92
600.29	1854.61
600.64	1847.05
600.99	1839.12
601.34	1832.40
601.69	1824.29
602.04	1816.45
602.39	1808.17
602.74	1800.42
603.08	1794.02
603.43	1787.30
603.78	1779.80
604.13	1771.99
604.48	1764.32
604.83	1757.52
605.18	1750.81
605.53	1743.82
605.87	1736.77
606.22	1730.07
606.57	1722.46
606.92	1714.77
607.27	1707.15
607.62	1699.94
607.96	1693.53
608.31	1687.86
608.66	1680.30
609.01	1672.92
609.36	1665.55
609.70	1658.22
610.05	1651.05
610.40	1643.12
610.75	1635.03
611.10	1627.61
611.44	1618.95
611.79	1610.46
612.14	1601.68
612.49	1592.41
612.83	1584.23
613.18	1574.79
613.53	1565.73
613.88	1556.02
614.22	1547.17
614.57	1538.25
614.92	1529.33
615.27	1520.38
615.61	1510.91
615.96	1502.55
616.31	1494.38
616.65	1486.77
617.00	1479.10
617.35	1470.78
617.70	1462.19
618.04	1453.48
618.39	1444.56
618.74	1436.76
619.08	1428.64
619.43	1420.70
619.78	1413.22
620.12	1405.26
620.47	1397.85
620.82	1389.54
621.16	1382.18
621.51	1374.29
621.85	1366.35
622.20	1358.12
622.55	1349.92
622.89	1341.80
623.24	1334.31
623.59	1325.98
623.93	1317.43
624.28	1309.26
624.62	1301.35
624.97	1293.51
625.32	1285.75
625.66	1278.54
626.01	1271.42
626.35	1264.36
626.70	1256.85
627.04	1249.59
627.39	1242.35
627.73	1235.04
628.08	1228.62
628.43	1221.38
628.77	1214.31
629.12	1206.94
629.46	1200.60
629.81	1193.83
630.15	1186.89
630.50	1179.47
630.84	1172.75
631.19	1165.87
631.53	1159.20
631.88	1151.91
632.22	1144.75
632.57	1138.40
632.91	1131.31
633.26	1124.15
633.60	1117.09
633.95	1110.37
634.29	1103.32
634.64	1096.53
634.98	1089.81
635.32	1082.52
635.67	1076.42
636.01	1069.87
636.36	1063.74
636.70	1057.11
637.05	1050.74
637.39	1044.70
637.73	1038.59
638.08	1032.67
638.42	1027.03
638.77	1020.86
639.11	1014.81
639.45	1009.14
639.80	1002.55
640.14	996.11
640.49	990.16
640.83	984.34
641.17	978.33
641.52	972.50
641.86	966.39
642.20	960.25
642.55	954.08
642.89	947.78
643.23	941.69
643.58	935.95
643.92	929.84
644.26	923.65
644.61	917.74
644.95	911.89
645.29	905.80
645.64	899.51
645.98	893.36
646.32	887.83
646.66	881.79
647.01	876.10
647.35	870.79
647.69	864.69
648.04	858.87
648.38	853.15
648.72	847.33
649.06	841.47
649.41	835.79
649.75	830.29
650.09	824.63
650.43	819.02
650.78	813.00
651.12	807.03
651.46	801.41
651.80	795.54
652.14	789.78
652.49	784.20
652.83	778.71
653.17	773.09
653.51	767.23
653.85	761.87
654.20	756.16
654.54	750.32
654.88	745.19
655.22	739.69
655.56	734.04
655.90	728.45
656.25	723.10
656.59	717.80
656.93	712.86
657.27	707.90
657.61	702.56
657.95	697.48
658.29	692.73
658.64	687.97
658.98	683.00
659.32	677.82
659.66	672.74
660.00	667.47
660.34	662.32
660.68	657.36
661.02	652.41
661.36	648.05
661.70	643.42
662.05	638.86
662.39	634.50
662.73	630.29
663.07	626.25
663.41	621.93
663.75	617.68
664.09	613.02
664.43	608.37
664.77	604.23
665.11	600.13
665.45	595.91
665.79	591.63
666.13	587.44
666.47	583.32
666.81	579.24
667.15	575.39
667.49	571.74
667.83	568.05
668.17	564.16
668.51	560.33
668.85	556.88
669.19	553.29
669.53	549.51
669.87	545.57
670.21	541.71
670.55	537.98
670.89	534.44
671.23	531.28
671.57	527.89
671.91	524.35
672.25	520.83
672.58	517.43
672.92	514.14
673.26	511.00
673.60	507.81
673.94	504.78
674.28	501.68
674.62	498.54
674.96	495.41
675.30	492.53
675.64	489.48
675.97	486.43
676.31	483.31
676.65	480.44
676.99	477.91
677.33	475.11
677.67	472.19
678.01	469.26
678.34	466.27
678.68	463.46
679.02	460.75
679.36	457.97
679.70	455.28
680.04	452.47
680.37	449.62
680.71	446.98
681.05	444.27
681.39	441.59
681.73	439.01
682.06	436.54
682.40	434.06
682.74	431.60
683.08	429.13
683.42	426.64
683.75	424.17
684.09	421.61
684.43	419.33
684.77	416.97
685.10	414.49
685.44	412.13
685.78	409.79
686.12	407.55
686.45	405.28
686.79	403.07
687.13	401.00
687.46	398.98
687.80	396.81
688.14	394.50
688.48	392.49
688.81	390.28
689.15	388.12
689.49	385.86
689.82	383.63
690.16	381.33
690.50	379.19
690.83	376.95
691.17	374.75
691.51	372.45
691.84	370.47
692.18	368.53
692.52	366.67
692.85	364.89
693.19	363.02
693.52	361.16
693.86	359.12
694.20	357.29
694.53	355.44
694.87	353.70
695.21	352.02
695.54	350.14
695.88	348.44
696.21	346.74
696.55	345.09
696.88	343.50
697.22	341.78
697.56	340.25
697.89	338.76
698.23	337.26
698.56	335.76
698.90	334.27
699.23	332.72
699.57	331.16
699.90	329.55
700.24	328.03
700.58	326.54
700.91	325.18
701.25	323.85
701.58	322.41
701.92	320.90
702.25	319.55
702.59	318.13
702.92	316.79
703.26	315.43
703.59	314.20
703.93	313.05
704.26	311.90
704.60	310.66
704.93	309.46
705.26	308.26
705.60	307.10
705.93	305.93
706.27	304.76
706.60	303.69
706.94	302.67
707.27	301.47
707.61	300.44
707.94	299.35
708.27	298.02
708.61	296.90
708.94	295.90
709.28	294.80
709.61	293.80
709.94	292.84
710.28	291.85
710.61	290.77
710.95	289.62
711.28	288.78
711.61	287.75
711.95	286.80
712.28	285.88
712.61	284.94
712.95	284.04
713.28	283.28
713.61	282.27
713.95	281.31
714.28	280.54
714.61	279.64
714.95	278.79
715.28	277.93
715.61	277.03
715.95	276.17
716.28	275.30
716.61	274.56
716.95	273.82
717.28	272.99
717.61	272.28
717.94	271.50
718.28	270.60
718.61	269.86
718.94	269.07
719.27	268.32
719.61	267.70
719.94	266.91
720.27	266.02
720.60	265.38
720.94	264.64
721.27	263.95
721.60	263.29
721.93	262.74
722.27	262.22
722.60	261.73
722.93	261.13
723.26	260.60
723.59	259.94
723.93	259.26
724.26	258.63
724.59	258.05
724.92	257.48
725.25	256.94
725.59	256.40
725.92	255.89
726.25	255.33
726.58	254.77
726.91	254.32
727.24	253.86
727.57	253.41
727.91	252.96
728.24	252.51
728.57	252.01
728.90	251.55
729.23	251.03
729.56	250.62
729.89	250.20
730.22	249.67
730.55	249.27
730.89	248.78
731.22	248.33
731.55	247.83
731.88	247.43
732.21	247.01
732.54	246.62
732.87	246.23
733.20	245.84
733.53	245.42
733.86	245.01
734.19	244.62
734.52	244.20
734.85	243.96
735.18	243.52
735.51	243.20
735.84	242.83
736.17	242.48
736.50	242.01
736.83	241.85
737.16	241.56
737.49	241.21
737.82	240.87
738.15	240.58
738.48	240.28
738.81	239.94
739.14	239.66
739.47	239.32
739.80	239.05
740.13	238.67
740.46	238.29
740.79	237.90
741.12	237.58
741.45	237.21
741.78	236.74
742.11	236.51
742.44	236.15
742.77	235.80
743.10	235.53
743.43	235.23
743.75	234.77
744.08	234.63
744.41	234.39
744.74	234.12
745.07	233.81
745.40	233.57
745.73	233.34
746.06	233.03
746.39	232.75
746.71	232.43
747.04	232.27
747.37	232.09
747.70	231.83
748.03	231.71
748.36	231.63
748.68	231.48
749.01	231.20
749.34	230.96
749.67	230.84
750.00	230.64
750.33	230.51
750.65	230.30
750.98	229.92
751.31	229.70
751.64	229.53
751.97	229.47
752.29	229.23
752.62	228.95
752.95	228.77
753.28	228.55
753.60	228.31
753.93	228.10
754.26	227.85
754.59	227.68
754.91	227.38
755.24	227.08
755.57	226.81
755.90	226.63
756.22	226.45
756.55	226.19
756.88	225.93
757.20	225.62
757.53	225.36
757.86	225.15
758.19	224.92
758.51	224.73
758.84	224.42
759.17	224.28
759.49	224.15
759.82	223.98
760.15	223.82
760.47	223.62
760.80	223.37
761.13	223.29
761.45	223.20
761.78	222.97
762.11	222.80
762.43	222.73
762.76	222.62
763.08	222.51
763.41	222.31
763.74	222.23
764.06	222.07
764.39	221.93
764.71	221.79
765.04	221.64
765.37	221.44
765.69	221.33
766.02	221.24
766.34	221.13
766.67	220.93
767.00	220.90
767.32	220.97
767.65	220.98
767.97	220.83
768.30	220.65
768.62	220.56
768.95	220.40
769.27	220.21
769.60	220.05
769.92	219.95
770.25	219.86
770.57	219.73
770.90	219.67
771.22	219.60
771.55	219.50
771.87	219.43
772.20	219.33
772.52	219.40
772.85	219.45
773.17	219.40
773.50	219.38
773.82	219.20
774.15	218.97
774.47	218.76
774.80	218.67
775.12	218.62
775.45	218.64
775.77	218.63
776.09	218.60
776.42	218.54
776.74	218.43
777.07	218.26
777.39	218.21
777.72	218.11
778.04	218.07
778.36	217.98
778.69	217.96
779.01	218.00
779.33	217.73
779.66	217.50
779.98	217.38
780.31	217.25
780.63	217.30
780.95	217.24
781.28	217.18
781.60	217.09
781.92	216.95
782.25	216.78
782.57	216.75
782.89	216.66
783.22	216.55
783.54	216.49
783.86	216.54
784.19	216.45
784.51	216.47
784.83	216.42
785.16	216.38
785.48	216.29
785.80	216.18
786.12	216.12
786.45	216.00
786.77	215.97
787.09	216.00
787.42	215.83
787.74	215.86
788.06	215.80
788.38	215.75
788.71	215.68
789.03	215.70
789.35	215.68
789.67	215.63
789.99	215.66
790.32	215.52
790.64	215.43
790.96	215.52
791.28	215.43
791.61	215.34
791.93	215.31
792.25	215.26
792.57	215.37
792.89	215.41
793.21	215.38
793.54	215.30
793.86	215.25
794.18	215.29
794.50	215.16
794.82	215.17
795.14	215.20
795.47	215.28
795.79	215.24
796.11	215.13
796.43	215.08
796.75	215.07
797.07	215.10
797.39	215.11
797.71	214.94
798.04	214.91
798.36	214.85
798.68	214.80
799.00	214.82
799.32	214.63
799.64	214.64
799.96	214.65
800.28	214.72
800.60	214.64
800.92	214.62
801.24	214.62
801.56	214.61
801.89	214.48
802.21	214.43
802.53	214.38
802.85	214.38
803.17	214.49
803.49	214.37
803.81	214.37
804.13	214.34
804.45	214.35
804.77	214.35
805.09	214.36
805.41	214.39
805.73	214.35
806.05	214.35
806.37	214.26
806.69	214.27
807.01	214.20
807.33	214.24
807.65	214.11
807.97	214.14
808.28	214.13
808.60	214.13
808.92	214.03
809.24	214.15
809.56	214.14
809.88	214.04
810.20	214.12
810.52	214.17
810.84	214.12
811.16	214.10
811.48	214.05
811.80	214.09
812.12	214.02
812.43	214.00
812.75	213.99
813.07	213.93
813.39	213.90
813.71	213.78
814.03	213.64
814.35	213.64
814.67	213.52
814.98	213.46
815.30	213.46
815.62	213.45
815.94	213.30
816.26	213.20
816.58	213.12
816.89	213.02
817.21	212.90
817.53	212.88
817.85	212.77
818.17	212.80
818.48	212.76
818.80	212.72
819.12	212.65
819.44	212.63
819.76	212.63
820.07	212.56
820.39	212.64
820.71	212.72
821.03	212.71
821.34	212.67
821.66	212.66
821.98	212.64
822.30	212.62
822.61	212.64
822.93	212.66
823.25	212.60
823.57	212.59
823.88	212.63
824.20	212.62
824.52	212.70
824.83	212.59
825.15	212.47
825.47	212.54
825.79	212.53
826.10	212.47
826.42	212.43
826.74	212.48
827.05	212.46
827.37	212.43
827.69	212.42
828.00	212.47
828.32	212.39
828.64	212.36
828.95	212.45
829.27	212.39
829.58	212.37
829.90	212.41
830.22	212.38
830.53	212.32
830.85	212.28
831.17	212.14
831.48	212.13
831.80	212.17
832.11	212.10
832.43	212.03
832.75	212.03
833.06	212.12
833.38	212.08
833.69	212.07
834.01	212.01
834.32	212.01
834.64	212.00
834.96	212.05
835.27	212.08
835.59	212.05
835.90	212.07
836.22	212.05
836.53	212.01
836.85	212.03
837.16	212.19
837.48	212.23
837.79	212.27
838.11	212.32
838.42	212.33
838.74	212.33
839.05	212.34
839.37	212.37
839.68	212.23
840.00	212.19
840.31	212.18
840.63	212.24
840.94	212.15
841.26	212.12
841.57	212.13
841.88	212.12
842.20	212.04
842.51	212.02
842.83	211.97
843.14	212.13
843.46	212.12
843.77	211.99
844.08	211.93
844.40	211.91
844.71	211.92
845.03	211.90
845.34	211.92
845.65	211.90
845.97	211.85
846.28	211.84
846.60	211.84
846.91	211.80
847.22	211.81
847.54	211.89
847.85	211.89
848.16	211.89
848.48	211.81
848.79	211.87
849.10	211.85
849.42	211.88
849.73	211.70
850.04	211.72
850.36	211.68
850.67	211.74
850.98	211.73
851.30	211.68
851.61	211.63
851.92	211.58
852.23	211.65
852.55	211.69
852.86	211.67
853.17	211.64
853.49	211.69
853.80	211.65
854.11	211.65
854.42	211.65
854.74	211.58
855.05	211.60
855.36	211.51
855.67	211.54
855.99	211.59
856.30	211.79
856.61	211.80
856.92	211.83
857.23	211.81
857.55	211.82
857.86	211.82
858.17	211.85
858.48	211.88
858.79	211.90
859.11	211.84
859.42	211.89
859.73	211.86
860.04	211.82
860.35	211.82
860.66	211.71
860.98	211.65
861.29	211.68
861.60	211.61
861.91	211.63
862.22	211.61
862.53	211.54
862.84	211.33
863.16	211.31
863.47	211.23
863.78	211.20
864.09	211.23
864.40	211.28
864.71	211.24
865.02	211.19
865.33	211.18
865.64	211.19
865.95	211.14
866.27	211.26
866.58	211.25
866.89	211.22
867.20	211.26
867.51	211.30
867.82	211.37
868.13	211.49
868.44	211.45
868.75	211.48
869.06	211.46
869.37	211.47
869.68	211.39
869.99	211.48
870.30	211.50
870.61	211.49
870.92	211.41
871.23	211.39
871.54	211.46
871.85	211.41
872.16	211.42
872.47	211.42
872.78	211.35
873.09	211.36
873.40	211.38
873.71	211.39
874.02	211.37
874.33	211.29
874.64	211.21
874.95	211.27
875.26	211.13
875.56	211.14
875.87	211.11
876.18	211.18
876.49	211.33
876.80	211.34
877.11	211.32
877.42	211.29
877.73	211.36
878.04	211.26
878.35	211.27
878.66	211.30
878.96	211.32
879.27	211.33
879.58	211.32
879.89	211.29
880.20	211.32
880.51	211.34
880.82	211.38
881.12	211.43
881.43	211.41
881.74	211.50
882.05	211.55
882.36	211.57
882.67	211.56
882.97	211.34
883.28	211.31
883.59	211.25
883.90	211.38
884.21	211.34
884.51	211.35
884.82	211.31
885.13	211.35
885.44	211.31
885.74	211.32
886.05	211.28
886.36	211.27
886.67	211.21
886.98	211.25
887.28	211.23
887.59	211.17
887.90	211.10
888.20	211.10
888.51	211.08
888.82	211.08
889.13	211.09
889.43	211.27
889.74	211.29
890.05	211.28
890.35	211.23
890.66	211.29
890.97	211.36
891.28	211.38
891.58	211.38
891.89	211.39
892.20	211.34
892.50	211.34
892.81	211.33
893.12	211.36
893.42	211.32
893.73	211.39
894.04	211.36
894.34	211.37
894.65	211.27
894.95	211.30
895.26	211.27
895.57	211.33
895.87	211.07
896.18	211.10
896.48	211.13
896.79	211.11
897.10	211.09
897.40	211.01
897.71	210.97
898.01	210.92
898.32	210.92
898.63	210.90
898.93	210.94
899.24	210.87
899.54	210.81
899.85	210.79
900.15	210.68
900.46	210.72
900.76	210.79
901.07	210.86
901.38	210.83
901.68	210.90
901.99	210.83
902.29	210.90
902.60	210.85
902.90	210.84
903.21	210.83
903.51	210.85
903.82	210.88
904.12	210.94
904.43	210.98
904.73	211.03
905.03	211.03
905.34	211.16
905.64	211.22
905.95	211.24
906.25	211.27
906.56	211.28
906.86	211.26
907.17	211.22
907.47	211.23
907.77	211.17
908.08	211.18
908.38	211.23
908.69	211.22
908.99	211.24
909.30	211.21
909.60	211.14
909.90	211.10
910.21	211.09
910.51	211.07
910.81	211.05
911.12	211.01
911.42	211.04
911.73	210.82
912.03	210.85
912.33	210.93
912.64	210.94
912.94	210.96
913.24	211.02
913.55	211.00
913.85	210.95
914.15	211.00
914.46	210.94
914.76	210.84
915.06	210.86
915.37	210.85
915.67	210.93
915.97	210.98
916.27	210.98
916.58	210.98
916.88	210.90
917.18	210.86
917.49	211.00
917.79	211.01
918.09	211.06
918.39	211.09
918.70	211.04
919.00	211.05
919.30	211.08
919.60	211.07
919.91	211.10
920.21	211.12
920.51	211.06
920.81	211.05
921.12	211.10
921.42	211.14
921.72	211.07
922.02	211.10
922.32	211.15
922.63	211.16
922.93	211.21
923.23	211.26
923.53	211.30
923.83	211.15
924.13	211.13
924.44	211.14
924.74	211.15
925.04	211.21
925.34	211.18
925.64	211.13
925.94	211.07
926.24	211.08
926.55	211.07
926.85	211.13
927.15	211.12
927.45	211.13
927.75	211.10
928.05	211.20
928.35	211.08
928.65	211.14
928.95	211.09
929.26	211.04
929.56	211.06
929.86	211.04
930.16	211.02
930.46	210.97
930.76	210.95
931.06	210.92
931.36	210.79
931.66	210.76
931.96	210.70
932.26	210.69
932.56	210.73
932.86	210.73
933.16	210.74
933.46	210.76
933.76	210.70
934.06	210.71
934.36	210.77
934.66	210.77
934.96	210.70
935.26	210.67
935.56	210.65
935.86	210.59
936.16	210.56
936.46	210.55
936.76	210.67
937.06	210.64
937.36	210.62
937.66	210.76
937.96	210.76
938.26	210.75
938.56	210.80
938.86	210.73
939.16	210.73
939.46	210.74
939.76	210.75
940.06	210.79
940.35	210.76
940.65	210.65
940.95	210.69
941.25	210.62
941.55	210.68
941.85	210.72
942.15	210.78
942.45	210.83
942.75	210.81
943.04	210.75
943.34	210.80
943.64	210.73
943.94	210.62
944.24	210.69
944.54	210.71
944.84	210.84
945.13	210.79
945.43	210.83
945.73	210.85
946.03	210.80
946.33	210.85
946.62	210.82
946.92	210.83
947.22	210.83
947.52	210.81
947.82	210.80
948.11	210.75
948.41	210.78
948.71	210.80
949.01	210.83
949.31	210.76
949.60	210.76
949.90	210.84
950.20	210.86
950.50	210.84
950.79	210.86
951.09	210.75
951.39	210.79
951.69	210.78
951.98	210.77
952.28	210.78
952.58	210.78
952.87	210.80
953.17	210.85
953.47	210.83
953.76	210.85
954.06	210.84
954.36	210.84
954.66	210.78
954.95	210.72
955.25	210.68
955.55	210.76
955.84	210.68
956.14	210.63
956.44	210.63
956.73	210.59
957.03	210.60
957.32	210.60
957.62	210.55
957.92	210.51
958.21	210.51
958.51	210.76
958.81	210.67
959.10	210.63
959.40	210.65
959.69	210.75
959.99	210.80
960.29	210.86
960.58	210.80
960.88	210.89
961.17	210.93
961.47	211.06
961.76	211.04
962.06	211.14
962.36	211.17
962.65	211.20
962.95	211.26
963.24	211.22
963.54	211.23
963.83	211.34
964.13	211.35
964.42	211.26
964.72	211.06
965.01	211.07
965.31	211.02
965.60	210.96
965.90	210.99
966.19	210.94
966.49	210.91
966.78	210.96
967.08	210.91
967.37	210.93
967.67	210.83
967.96	210.82
968.26	210.78
968.55	210.82
968.85	210.79
969.14	210.76
969.43	210.80
969.73	210.79
970.02	210.73
970.32	210.71
970.61	210.81
970.91	210.78
971.20	210.81
971.49	210.85
971.79	210.85
972.08	210.73
972.38	210.73
972.67	210.68
972.96	210.67
973.26	210.66
973.55	210.70
973.85	210.77
974.14	210.81
974.43	210.84
974.73	210.73
975.02	210.77
975.31	210.72
975.61	210.69
975.90	210.67
976.19	210.69
976.49	210.71
976.78	210.65
977.07	210.70
977.37	210.72
977.66	210.75
977.95	210.81
978.24	210.87
978.54	210.98
978.83	211.05
979.12	211.08
979.42	211.08
979.71	210.98
980.00	210.94
980.29	210.91
980.59	210.94
980.88	210.98
981.17	210.97
981.46	211.03
981.76	210.99
982.05	211.03
982.34	211.00
982.63	211.00
982.93	211.01
983.22	211.01
983.51	211.00
983.80	211.04
984.09	210.98
984.39	210.94
984.68	210.85
984.97	210.79
985.26	210.72
985.55	210.76
985.85	210.80
986.14	210.84
986.43	210.87
986.72	210.82
987.01	210.83
987.30	210.80
987.59	210.78
987.89	210.82
988.18	210.77
988.47	210.81
988.76	210.79
989.05	210.77
989.34	210.72
989.63	210.83
989.92	210.77
990.22	210.80
990.51	210.84
990.80	210.83
991.09	210.89
991.38	210.96
991.67	210.90
991.96	210.85
992.25	210.90
992.54	210.86
992.83	210.93
993.12	210.97
993.41	211.01
993.70	211.08
993.99	211.13
994.28	211.15
994.58	211.21
994.87	211.17
995.16	211.19
995.45	211.21
995.74	211.04
996.03	211.10
996.32	211.09
996.61	211.06
996.90	211.04
997.19	210.97
997.48	210.98
997.77	211.01
998.06	211.06
998.34	210.96
998.63	210.94
998.92	210.91
999.21	210.94
999.50	210.95
999.79	210.87
1000.08	210.84
1000.37	210.87
1000.66	210.73
1000.95	210.82
1001.24	210.78
1001.53	210.77
1001.82	210.74
1002.11	210.65
1002.40	210.70
1002.68	210.67
1002.97	210.82
1003.26	210.82
1003.55	210.81
1003.84	210.80
1004.13	210.84
1004.42	210.88
1004.71	210.84
1004.99	210.82
1005.28	210.84
1005.57	210.83
1005.86	210.80
1006.15	210.77
1006.44	210.65
1006.72	210.71
1007.01	210.71
1007.30	210.72
1007.59	210.71
1007.88	210.87
1008.17	210.93
1008.45	210.86
1008.74	210.86
1009.03	210.79
1009.32	210.80
1009.60	210.85
1009.89	210.78
1010.18	210.75
1010.47	210.73
1010.76	210.73
1011.04	210.62
1011.33	210.57
1011.62	210.50
1011.91	210.58
1012.19	210.58
1012.48	210.62
1012.77	210.62
1013.05	210.73
1013.34	210.77
1013.63	210.75
1013.92	210.63
1014.20	210.56
1014.49	210.54
1014.78	210.57
1015.06	210.47
1015.35	210.48
1015.64	210.45
1015.92	210.57
1016.21	210.56
1016.50	210.59
1016.78	210.73
1017.07	210.83
1017.36	210.83
1017.64	210.91
1017.93	210.84
1018.22	210.81
1018.50	210.85
1018.79	210.83
1019.08	210.73
1019.36	210.70
1019.65	210.64
1019.93	210.72
1020.22	210.78
1020.51	210.88
1020.79	210.81
1021.08	210.00
1021.36	210.35
1021.65	210.25
1021.94	211.25
1022.22	210.25
1022.51	208.50
1022.79	211.90
1023.08	211.10
1023.36	212.45
1023.65	209.05
>>>>>End Processed Spectral Data<<<<<
