SpectraSuite Data File
++++++++++++++++++++++++++++++++++++
Date: Mon Feb 25 17:31:58 EST 2013
User: group
Dark Spectrum Present: No
Reference Spectrum Present: No
Number of Sampled Component Spectra: 1
Spectrometers: USB2E7196
Integration Time (usec): 52000 (USB2E7196)
Spectra Averaged: 20 (USB2E7196)
Boxcar Smoothing: 10 (USB2E7196)
Correct for Electrical Dark: No (USB2E7196)
Strobe/Lamp Enabled: No (USB2E7196)
Correct for Detector Non-linearity: No (USB2E7196)
Correct for Stray Light: No (USB2E7196)
Number of Pixels in Processed Spectrum: 2048
>>>>>Begin Processed Spectral Data<<<<<
339.09	0.00
339.48	198.15
339.86	200.80
340.24	201.25
340.63	203.45
341.01	206.85
341.39	206.15
341.78	206.35
342.16	208.75
342.54	207.50
342.93	198.10
343.31	208.11
343.69	208.68
344.07	209.11
344.46	209.56
344.84	210.00
345.22	210.27
345.60	210.54
345.99	210.79
346.37	210.98
346.75	211.14
347.13	211.18
347.52	211.28
347.90	211.40
348.28	211.47
348.66	211.63
349.05	211.59
349.43	211.71
349.81	211.78
350.19	211.82
350.57	211.86
350.96	211.98
351.34	212.17
351.72	212.27
352.10	212.42
352.48	212.51
352.87	212.49
353.25	212.48
353.63	212.53
354.01	212.60
354.39	212.63
354.77	212.76
355.15	212.89
355.54	212.94
355.92	212.94
356.30	213.03
356.68	213.13
357.06	213.20
357.44	213.20
357.82	213.26
358.20	213.29
358.58	213.30
358.97	213.36
359.35	213.35
359.73	213.47
360.11	213.47
360.49	213.55
360.87	213.55
361.25	213.63
361.63	213.78
362.01	213.79
362.39	213.84
362.77	213.79
363.15	213.84
363.53	213.84
363.91	213.94
364.29	213.97
364.67	213.80
365.05	213.81
365.43	213.93
365.81	214.00
366.19	214.14
366.57	214.26
366.95	214.25
367.33	214.27
367.71	214.27
368.09	214.35
368.47	214.30
368.85	214.35
369.23	214.36
369.61	214.26
369.99	214.36
370.37	214.31
370.75	214.41
371.13	214.31
371.51	214.23
371.89	214.18
372.27	214.11
372.65	214.11
373.03	214.10
373.41	214.04
373.78	214.02
374.16	213.86
374.54	213.77
374.92	213.72
375.30	213.68
375.68	213.57
376.06	213.52
376.44	213.50
376.82	213.44
377.19	213.41
377.57	213.37
377.95	213.22
378.33	213.22
378.71	213.05
379.09	213.01
379.47	213.10
379.84	213.11
380.22	213.04
380.60	212.98
380.98	212.90
381.36	212.88
381.73	212.74
382.11	212.79
382.49	212.79
382.87	212.76
383.25	212.65
383.62	212.84
384.00	212.75
384.38	212.72
384.76	212.75
385.13	212.80
385.51	212.71
385.89	212.70
386.27	212.63
386.64	212.68
387.02	212.65
387.40	212.51
387.78	212.38
388.15	212.40
388.53	212.31
388.91	212.22
389.29	212.12
389.66	212.15
390.04	212.01
390.42	211.98
390.79	211.97
391.17	211.93
391.55	211.70
391.92	211.77
392.30	211.73
392.68	211.66
393.05	211.56
393.43	211.57
393.81	211.54
394.18	211.51
394.56	211.47
394.94	211.47
395.31	211.44
395.69	211.48
396.06	211.48
396.44	211.53
396.82	211.54
397.19	211.60
397.57	211.56
397.95	211.67
398.32	211.61
398.70	211.64
399.07	211.77
399.45	211.86
399.82	211.76
400.20	211.78
400.58	211.90
400.95	211.93
401.33	212.02
401.70	212.21
402.08	212.25
402.45	212.35
402.83	212.45
403.20	212.58
403.58	212.69
403.95	212.84
404.33	212.97
404.71	213.08
405.08	213.34
405.46	213.50
405.83	213.62
406.21	213.82
406.58	213.88
406.96	213.97
407.33	214.04
407.70	214.33
408.08	214.76
408.45	214.84
408.83	215.07
409.20	215.23
409.58	215.36
409.95	215.70
410.33	216.03
410.70	216.27
411.08	216.65
411.45	216.95
411.82	217.23
412.20	217.73
412.57	218.24
412.95	218.50
413.32	218.97
413.69	219.49
414.07	220.07
414.44	220.75
414.82	221.38
415.19	222.14
415.56	222.88
415.94	223.52
416.31	224.44
416.68	225.36
417.06	226.43
417.43	227.35
417.81	228.37
418.18	229.49
418.55	230.75
418.93	231.96
419.30	233.28
419.67	234.67
420.04	236.01
420.42	237.48
420.79	239.28
421.16	241.06
421.54	242.92
421.91	244.75
422.28	246.62
422.66	248.66
423.03	250.66
423.40	252.70
423.77	254.84
424.15	257.06
424.52	259.29
424.89	261.82
425.26	264.32
425.64	266.60
426.01	269.10
426.38	271.70
426.75	274.43
427.13	277.23
427.50	280.11
427.87	283.17
428.24	286.25
428.61	289.13
428.99	292.33
429.36	295.80
429.73	299.15
430.10	302.56
430.47	306.19
430.85	309.77
431.22	313.67
431.59	317.84
431.96	321.73
432.33	326.06
432.70	330.14
433.08	335.04
433.45	339.69
433.82	344.26
434.19	349.41
434.56	354.35
434.93	359.09
435.30	363.87
435.68	369.05
436.05	374.21
436.42	379.33
436.79	383.91
437.16	388.78
437.53	394.05
437.90	399.34
438.27	404.38
438.64	409.67
439.01	414.40
439.38	418.73
439.75	422.99
440.13	427.77
440.50	432.22
440.87	435.78
441.24	439.55
441.61	443.85
441.98	446.82
442.35	450.41
442.72	454.02
443.09	457.40
443.46	459.45
443.83	460.76
444.20	461.82
444.57	463.59
444.94	464.35
445.31	465.09
445.68	465.87
446.05	466.06
446.42	465.48
446.79	464.81
447.16	463.94
447.53	463.25
447.90	461.15
448.27	459.26
448.64	456.54
449.01	454.49
449.37	450.74
449.74	447.31
450.11	443.27
450.48	438.74
450.85	434.19
451.22	430.32
451.59	426.74
451.96	423.22
452.33	418.52
452.70	414.27
453.07	409.30
453.43	404.06
453.80	399.16
454.17	394.41
454.54	390.08
454.91	385.39
455.28	380.78
455.65	376.42
456.02	372.10
456.38	368.37
456.75	363.76
457.12	360.05
457.49	356.22
457.86	352.44
458.23	349.36
458.59	346.05
458.96	342.56
459.33	339.29
459.70	336.19
460.07	333.68
460.43	330.90
460.80	328.29
461.17	326.03
461.54	323.51
461.91	321.22
462.27	318.72
462.64	316.66
463.01	314.47
463.38	312.41
463.74	310.19
464.11	308.35
464.48	306.84
464.85	305.00
465.21	303.75
465.58	302.35
465.95	300.65
466.32	299.22
466.68	297.85
467.05	296.53
467.42	295.20
467.78	293.76
468.15	292.37
468.52	291.31
468.88	290.00
469.25	288.96
469.62	288.03
469.98	286.96
470.35	286.05
470.72	285.11
471.08	284.14
471.45	283.36
471.82	282.52
472.18	281.59
472.55	281.04
472.92	280.33
473.28	279.81
473.65	279.20
474.02	278.59
474.38	278.06
474.75	277.72
475.11	277.24
475.48	277.05
475.85	276.89
476.21	276.75
476.58	276.52
476.94	276.46
477.31	276.40
477.67	276.50
478.04	276.54
478.41	276.81
478.77	277.14
479.14	277.29
479.50	277.57
479.87	278.03
480.23	278.45
480.60	278.81
480.96	279.14
481.33	279.89
481.69	280.46
482.06	281.17
482.42	281.76
482.79	282.64
483.15	283.44
483.52	284.35
483.88	285.24
484.25	286.25
484.61	287.21
484.98	288.33
485.34	289.53
485.71	290.81
486.07	292.13
486.44	293.40
486.80	294.97
487.17	296.58
487.53	298.26
487.90	300.04
488.26	301.92
488.62	303.96
488.99	305.92
489.35	308.10
489.72	310.38
490.08	312.77
490.44	315.14
490.81	317.80
491.17	320.53
491.54	323.37
491.90	326.36
492.26	329.56
492.63	332.90
492.99	336.40
493.36	340.02
493.72	343.83
494.08	347.86
494.45	352.00
494.81	356.47
495.17	360.93
495.54	365.75
495.90	370.73
496.26	375.92
496.63	381.41
496.99	387.15
497.35	393.17
497.72	399.51
498.08	406.02
498.44	412.71
498.80	419.84
499.17	427.32
499.53	435.07
499.89	443.05
500.26	451.10
500.62	459.43
500.98	468.26
501.34	477.51
501.71	486.99
502.07	496.65
502.43	506.65
502.79	516.92
503.16	527.61
503.52	538.66
503.88	549.94
504.24	561.48
504.60	573.47
504.97	585.68
505.33	598.20
505.69	611.43
506.05	624.79
506.41	638.20
506.78	651.94
507.14	666.06
507.50	680.50
507.86	695.45
508.22	710.76
508.59	726.14
508.95	742.01
509.31	758.07
509.67	774.73
510.03	791.45
510.39	808.98
510.75	826.59
511.12	844.62
511.48	862.91
511.84	881.39
512.20	899.89
512.56	919.12
512.92	938.47
513.28	957.91
513.64	977.48
514.00	997.37
514.37	1017.56
514.73	1038.24
515.09	1059.02
515.45	1079.84
515.81	1101.07
516.17	1122.35
516.53	1143.48
516.89	1164.95
517.25	1186.26
517.61	1207.88
517.97	1229.37
518.33	1250.71
518.69	1272.44
519.05	1294.26
519.41	1316.30
519.77	1338.62
520.13	1360.51
520.49	1382.50
520.85	1404.95
521.21	1427.34
521.57	1450.20
521.93	1472.31
522.29	1494.91
522.65	1517.23
523.01	1539.35
523.37	1561.03
523.73	1583.17
524.09	1605.09
524.45	1627.07
524.81	1649.50
525.17	1671.63
525.53	1693.79
525.89	1716.25
526.25	1738.11
526.61	1759.58
526.97	1781.32
527.33	1802.64
527.68	1824.00
528.04	1845.10
528.40	1865.40
528.76	1885.82
529.12	1906.52
529.48	1927.97
529.84	1948.35
530.20	1968.72
530.56	1989.31
530.91	2009.99
531.27	2030.24
531.63	2050.00
531.99	2069.80
532.35	2088.76
532.71	2107.90
533.07	2127.36
533.42	2145.51
533.78	2164.28
534.14	2182.47
534.50	2199.46
534.86	2217.60
535.21	2233.99
535.57	2251.63
535.93	2268.67
536.29	2285.68
536.65	2301.56
537.00	2316.59
537.36	2331.57
537.72	2346.52
538.08	2361.51
538.44	2376.83
538.79	2392.23
539.15	2407.16
539.51	2421.84
539.87	2436.95
540.22	2451.03
540.58	2465.62
540.94	2479.82
541.29	2492.37
541.65	2504.37
542.01	2517.53
542.37	2528.88
542.72	2541.05
543.08	2551.92
543.44	2563.80
543.79	2573.60
544.15	2584.26
544.51	2595.22
544.87	2606.05
545.22	2615.13
545.58	2623.51
545.94	2630.68
546.29	2636.85
546.65	2643.10
547.01	2649.06
547.36	2654.48
547.72	2659.59
548.07	2663.13
548.43	2666.98
548.79	2670.64
549.14	2675.10
549.50	2679.13
549.86	2682.62
550.21	2686.54
550.57	2690.03
550.92	2692.64
551.28	2695.65
551.64	2697.49
551.99	2699.75
552.35	2701.14
552.70	2703.60
553.06	2705.82
553.41	2708.61
553.77	2710.99
554.13	2712.93
554.48	2714.92
554.84	2716.28
555.19	2717.10
555.55	2717.92
555.90	2718.23
556.26	2718.80
556.61	2718.95
556.97	2717.51
557.32	2717.30
557.68	2715.84
558.03	2714.55
558.39	2712.53
558.74	2711.85
559.10	2710.70
559.45	2708.80
559.81	2707.62
560.16	2705.07
560.52	2702.89
560.87	2699.62
561.23	2696.06
561.58	2693.86
561.94	2690.35
562.29	2686.82
562.64	2684.69
563.00	2682.08
563.35	2680.06
563.71	2678.29
564.06	2675.74
564.42	2673.78
564.77	2671.60
565.12	2669.58
565.48	2666.37
565.83	2663.60
566.19	2660.43
566.54	2656.42
566.89	2652.43
567.25	2648.62
567.60	2645.56
567.96	2641.98
568.31	2638.68
568.66	2634.92
569.02	2630.07
569.37	2625.31
569.72	2621.09
570.08	2615.70
570.43	2610.07
570.78	2604.11
571.14	2597.45
571.49	2590.86
571.84	2585.04
572.20	2578.08
572.55	2571.56
572.90	2565.13
573.26	2558.19
573.61	2551.00
573.96	2544.47
574.31	2537.02
574.67	2529.09
575.02	2520.39
575.37	2511.71
575.72	2502.56
576.08	2495.25
576.43	2486.68
576.78	2478.77
577.13	2471.15
577.49	2462.97
577.84	2455.30
578.19	2447.59
578.54	2440.48
578.90	2433.75
579.25	2425.30
579.60	2416.20
579.95	2407.09
580.30	2398.86
580.66	2390.56
581.01	2381.54
581.36	2372.12
581.71	2363.60
582.06	2354.90
582.42	2346.75
582.77	2337.86
583.12	2329.17
583.47	2320.31
583.82	2312.46
584.17	2302.99
584.53	2293.48
584.88	2284.64
585.23	2275.29
585.58	2266.09
585.93	2256.28
586.28	2247.37
586.63	2238.51
586.98	2230.32
587.34	2221.90
587.69	2213.31
588.04	2204.45
588.39	2196.33
588.74	2187.79
589.09	2179.10
589.44	2169.59
589.79	2161.23
590.14	2153.34
590.49	2144.91
590.84	2135.85
591.19	2127.71
591.54	2119.49
591.89	2109.69
592.25	2100.65
592.60	2091.45
592.95	2082.03
593.30	2072.73
593.65	2062.92
594.00	2053.40
594.35	2045.11
594.70	2036.31
595.05	2027.23
595.40	2018.42
595.75	2008.55
596.10	2000.18
596.45	1991.94
596.80	1984.40
597.15	1976.07
597.50	1967.00
597.85	1958.76
598.19	1950.27
598.54	1941.61
598.89	1933.77
599.24	1927.14
599.59	1919.90
599.94	1913.13
600.29	1905.38
600.64	1897.58
600.99	1889.01
601.34	1881.96
601.69	1873.33
602.04	1865.02
602.39	1856.90
602.74	1849.23
603.08	1842.71
603.43	1835.54
603.78	1827.32
604.13	1819.17
604.48	1811.44
604.83	1804.69
605.18	1797.70
605.53	1790.34
605.87	1782.58
606.22	1775.53
606.57	1767.75
606.92	1759.86
607.27	1751.25
607.62	1744.16
607.96	1737.63
608.31	1731.46
608.66	1723.34
609.01	1715.96
609.36	1708.32
609.70	1700.61
610.05	1692.70
610.40	1684.93
610.75	1676.48
611.10	1669.19
611.44	1660.25
611.79	1651.26
612.14	1641.76
612.49	1632.12
612.83	1623.51
613.18	1614.06
613.53	1604.52
613.88	1594.92
614.22	1586.03
614.57	1577.12
614.92	1567.89
615.27	1558.42
615.61	1548.97
615.96	1540.16
616.31	1531.75
616.65	1523.91
617.00	1515.72
617.35	1507.24
617.70	1498.35
618.04	1489.68
618.39	1480.15
618.74	1472.11
619.08	1463.64
619.43	1455.75
619.78	1448.06
620.12	1439.74
620.47	1432.35
620.82	1423.97
621.16	1415.98
621.51	1407.56
621.85	1399.45
622.20	1391.27
622.55	1383.03
622.89	1374.60
623.24	1366.79
623.59	1357.96
623.93	1349.34
624.28	1341.16
624.62	1333.09
624.97	1324.99
625.32	1317.36
625.66	1309.99
626.01	1302.64
626.35	1295.37
626.70	1287.37
627.04	1279.98
627.39	1272.55
627.73	1264.81
628.08	1257.96
628.43	1250.32
628.77	1242.55
629.12	1235.24
629.46	1228.30
629.81	1221.05
630.15	1214.18
630.50	1206.80
630.84	1199.71
631.19	1192.74
631.53	1185.67
631.88	1178.28
632.22	1170.72
632.57	1163.55
632.91	1156.31
633.26	1148.73
633.60	1141.58
633.95	1135.24
634.29	1127.99
634.64	1121.51
634.98	1114.56
635.32	1107.63
635.67	1101.48
636.01	1095.53
636.36	1088.83
636.70	1082.44
637.05	1075.92
637.39	1069.45
637.73	1063.31
638.08	1057.72
638.42	1051.71
638.77	1045.29
639.11	1039.00
639.45	1032.98
639.80	1026.36
640.14	1020.07
640.49	1014.07
640.83	1007.68
641.17	1001.28
641.52	995.22
641.86	988.65
642.20	982.40
642.55	975.95
642.89	969.49
643.23	962.97
643.58	957.35
643.92	950.94
644.26	944.80
644.61	938.73
644.95	932.54
645.29	926.06
645.64	919.58
645.98	913.52
646.32	907.75
646.66	901.67
647.01	895.90
647.35	890.05
647.69	883.73
648.04	877.97
648.38	871.96
648.72	866.02
649.06	859.82
649.41	853.81
649.75	847.99
650.09	842.17
650.43	836.41
650.78	829.98
651.12	823.69
651.46	818.01
651.80	812.00
652.14	806.10
652.49	800.26
652.83	794.65
653.17	788.73
653.51	782.92
653.85	777.37
654.20	771.56
654.54	765.65
654.88	760.28
655.22	754.42
655.56	748.60
655.90	742.80
656.25	737.33
656.59	731.93
656.93	726.75
657.27	721.55
657.61	716.05
657.95	710.98
658.29	706.25
658.64	701.07
658.98	695.99
659.32	690.75
659.66	685.64
660.00	680.38
660.34	674.99
660.68	669.80
661.02	664.71
661.36	660.12
661.70	655.38
662.05	650.66
662.39	646.30
662.73	642.10
663.07	637.99
663.41	633.75
663.75	629.18
664.09	624.45
664.43	619.76
664.77	615.45
665.11	611.14
665.45	606.57
665.79	602.11
666.13	597.80
666.47	593.65
666.81	589.61
667.15	585.51
667.49	581.81
667.83	577.90
668.17	574.09
668.51	570.21
668.85	566.59
669.19	562.88
669.53	559.01
669.87	555.00
670.21	550.99
670.55	547.15
670.89	543.81
671.23	540.41
671.57	536.95
671.91	533.38
672.25	529.82
672.58	526.41
672.92	522.94
673.26	519.78
673.60	516.40
673.94	513.04
674.28	509.80
674.62	506.80
674.96	503.63
675.30	500.58
675.64	497.33
675.97	494.15
676.31	491.17
676.65	488.36
676.99	485.68
677.33	482.72
677.67	479.71
678.01	476.56
678.34	473.67
678.68	470.75
679.02	467.91
679.36	465.08
679.70	462.31
680.04	459.54
680.37	456.56
680.71	453.92
681.05	451.29
681.39	448.58
681.73	445.73
682.06	443.23
682.40	440.56
682.74	438.17
683.08	435.70
683.42	433.05
683.75	430.52
684.09	427.94
684.43	425.54
684.77	423.08
685.10	420.73
685.44	418.24
685.78	415.85
686.12	413.49
686.45	411.17
686.79	408.98
687.13	406.82
687.46	404.74
687.80	402.55
688.14	400.15
688.48	397.95
688.81	395.71
689.15	393.54
689.49	391.32
689.82	389.00
690.16	386.71
690.50	384.58
690.83	382.31
691.17	379.96
691.51	377.74
691.84	375.65
692.18	373.65
692.52	371.70
692.85	369.81
693.19	367.98
693.52	366.02
693.86	363.96
694.20	362.08
694.53	360.13
694.87	358.24
695.21	356.48
695.54	354.67
695.88	352.89
696.21	351.07
696.55	349.40
696.88	347.73
697.22	346.05
697.56	344.45
697.89	342.72
698.23	341.10
698.56	339.51
698.90	338.16
699.23	336.39
699.57	334.71
699.90	333.08
700.24	331.42
700.58	329.92
700.91	328.44
701.25	327.03
701.58	325.69
701.92	324.29
702.25	322.86
702.59	321.43
702.92	320.06
703.26	318.75
703.59	317.44
703.93	316.27
704.26	315.00
704.60	313.72
704.93	312.51
705.26	311.36
705.60	310.25
705.93	308.80
706.27	307.74
706.60	306.71
706.94	305.68
707.27	304.63
707.61	303.48
707.94	302.35
708.27	301.12
708.61	299.96
708.94	298.77
709.28	297.58
709.61	296.56
709.94	295.62
710.28	294.45
710.61	293.39
710.95	292.11
711.28	291.20
711.61	290.20
711.95	289.28
712.28	288.26
712.61	287.19
712.95	286.40
713.28	285.55
713.61	284.48
713.95	283.55
714.28	282.60
714.61	281.63
714.95	280.65
715.28	279.71
715.61	278.79
715.95	277.93
716.28	277.15
716.61	276.32
716.95	275.40
717.28	274.65
717.61	273.84
717.94	273.14
718.28	272.31
718.61	271.50
718.94	270.75
719.27	270.05
719.61	269.40
719.94	268.57
720.27	267.75
720.60	267.08
720.94	266.32
721.27	265.64
721.60	265.19
721.93	264.64
722.27	264.07
722.60	263.42
722.93	262.89
723.26	262.34
723.59	261.72
723.93	261.22
724.26	260.59
724.59	260.04
724.92	259.51
725.25	258.97
725.59	258.45
725.92	257.96
726.25	257.43
726.58	256.86
726.91	256.40
727.24	255.89
727.57	255.45
727.91	254.92
728.24	254.49
728.57	253.85
728.90	253.43
729.23	252.93
729.56	252.52
729.89	252.00
730.22	251.46
730.55	251.01
730.89	250.46
731.22	250.05
731.55	249.56
731.88	249.05
732.21	248.46
732.54	248.02
732.87	247.49
733.20	246.96
733.53	246.55
733.86	246.09
734.19	245.62
734.52	245.25
734.85	244.95
735.18	244.44
735.51	244.10
735.84	243.68
736.17	243.37
736.50	242.90
736.83	242.74
737.16	242.43
737.49	242.05
737.82	241.67
738.15	241.32
738.48	240.99
738.81	240.69
739.14	240.44
739.47	240.13
739.80	239.81
740.13	239.60
740.46	239.18
740.79	238.87
741.12	238.63
741.45	238.28
741.78	237.98
742.11	237.76
742.44	237.38
742.77	237.09
743.10	236.69
743.43	236.42
743.75	235.92
744.08	235.77
744.41	235.46
744.74	235.18
745.07	234.83
745.40	234.62
745.73	234.40
746.06	234.08
746.39	233.77
746.71	233.44
747.04	233.14
747.37	232.89
747.70	232.61
748.03	232.36
748.36	232.15
748.68	231.89
749.01	231.59
749.34	231.32
749.67	231.06
750.00	230.95
750.33	230.83
750.65	230.61
750.98	230.25
751.31	230.02
751.64	229.81
751.97	229.72
752.29	229.44
752.62	229.10
752.95	228.91
753.28	228.61
753.60	228.39
753.93	228.25
754.26	228.11
754.59	227.86
754.91	227.66
755.24	227.37
755.57	227.15
755.90	226.96
756.22	226.83
756.55	226.62
756.88	226.30
757.20	225.99
757.53	225.75
757.86	225.50
758.19	225.31
758.51	225.14
758.84	224.83
759.17	224.65
759.49	224.56
759.82	224.42
760.15	224.30
760.47	224.22
760.80	223.88
761.13	223.75
761.45	223.66
761.78	223.51
762.11	223.46
762.43	223.25
762.76	223.11
763.08	223.02
763.41	222.95
763.74	222.85
764.06	222.73
764.39	222.58
764.71	222.48
765.04	222.41
765.37	222.24
765.69	222.23
766.02	222.12
766.34	221.92
766.67	221.78
767.00	221.78
767.32	221.75
767.65	221.86
767.97	221.73
768.30	221.57
768.62	221.38
768.95	221.20
769.27	221.18
769.60	221.10
769.92	220.95
770.25	220.81
770.57	220.63
770.90	220.54
771.22	220.44
771.55	220.32
771.87	220.15
772.20	220.04
772.52	220.06
772.85	220.20
773.17	220.16
773.50	220.05
773.82	219.85
774.15	219.62
774.47	219.36
774.80	219.24
775.12	219.20
775.45	219.10
775.77	219.04
776.09	218.95
776.42	218.83
776.74	218.77
777.07	218.61
777.39	218.61
777.72	218.52
778.04	218.50
778.36	218.44
778.69	218.41
779.01	218.39
779.33	218.10
779.66	217.80
779.98	217.72
780.31	217.68
780.63	217.73
780.95	217.72
781.28	217.66
781.60	217.57
781.92	217.49
782.25	217.46
782.57	217.27
782.89	217.17
783.22	217.12
783.54	217.00
783.86	216.92
784.19	216.85
784.51	216.81
784.83	216.78
785.16	216.72
785.48	216.68
785.80	216.63
786.12	216.65
786.45	216.59
786.77	216.60
787.09	216.50
787.42	216.36
787.74	216.27
788.06	216.23
788.38	216.22
788.71	216.19
789.03	216.13
789.35	216.24
789.67	216.18
789.99	216.13
790.32	216.13
790.64	216.17
790.96	216.15
791.28	216.01
791.61	215.87
791.93	215.80
792.25	215.73
792.57	215.80
792.89	215.70
793.21	215.72
793.54	215.63
793.86	215.57
794.18	215.48
794.50	215.46
794.82	215.46
795.14	215.42
795.47	215.37
795.79	215.32
796.11	215.15
796.43	215.10
796.75	215.00
797.07	214.97
797.39	214.92
797.71	214.91
798.04	214.93
798.36	214.96
798.68	214.98
799.00	214.90
799.32	214.75
799.64	214.75
799.96	214.71
800.28	214.71
800.60	214.66
800.92	214.72
801.24	214.66
801.56	214.61
801.89	214.56
802.21	214.53
802.53	214.49
802.85	214.57
803.17	214.61
803.49	214.58
803.81	214.51
804.13	214.46
804.45	214.34
804.77	214.35
805.09	214.25
805.41	214.15
805.73	214.12
806.05	214.05
806.37	214.03
806.69	213.94
807.01	213.85
807.33	213.90
807.65	213.80
807.97	213.87
808.28	213.84
808.60	213.81
808.92	213.74
809.24	213.80
809.56	213.73
809.88	213.62
810.20	213.65
810.52	213.63
810.84	213.61
811.16	213.59
811.48	213.59
811.80	213.65
812.12	213.65
812.43	213.60
812.75	213.60
813.07	213.55
813.39	213.51
813.71	213.47
814.03	213.35
814.35	213.38
814.67	213.25
814.98	213.21
815.30	213.12
815.62	213.06
815.94	212.96
816.26	212.93
816.58	212.90
816.89	212.88
817.21	212.82
817.53	212.78
817.85	212.80
818.17	212.65
818.48	212.73
818.80	212.70
819.12	212.72
819.44	212.70
819.76	212.71
820.07	212.74
820.39	212.74
820.71	212.75
821.03	212.69
821.34	212.66
821.66	212.75
821.98	212.76
822.30	212.74
822.61	212.88
822.93	212.86
823.25	212.80
823.57	212.80
823.88	212.82
824.20	212.81
824.52	212.84
824.83	212.86
825.15	212.66
825.47	212.69
825.79	212.72
826.10	212.69
826.42	212.62
826.74	212.67
827.05	212.65
827.37	212.65
827.69	212.61
828.00	212.60
828.32	212.54
828.64	212.59
828.95	212.71
829.27	212.65
829.58	212.65
829.90	212.69
830.22	212.61
830.53	212.62
830.85	212.59
831.17	212.50
831.48	212.50
831.80	212.48
832.11	212.40
832.43	212.36
832.75	212.36
833.06	212.43
833.38	212.36
833.69	212.36
834.01	212.38
834.32	212.43
834.64	212.40
834.96	212.40
835.27	212.36
835.59	212.29
835.90	212.19
836.22	212.20
836.53	212.20
836.85	212.25
837.16	212.40
837.48	212.42
837.79	212.51
838.11	212.52
838.42	212.54
838.74	212.57
839.05	212.52
839.37	212.47
839.68	212.42
840.00	212.40
840.31	212.42
840.63	212.37
840.94	212.36
841.26	212.35
841.57	212.25
841.88	212.25
842.20	212.22
842.51	212.21
842.83	212.18
843.14	212.32
843.46	212.31
843.77	212.20
844.08	212.23
844.40	212.13
844.71	212.12
845.03	212.11
845.34	212.14
845.65	212.10
845.97	212.13
846.28	212.17
846.60	212.17
846.91	212.12
847.22	212.12
847.54	212.11
847.85	212.14
848.16	212.21
848.48	212.14
848.79	212.20
849.10	212.20
849.42	212.21
849.73	211.94
850.04	211.92
850.36	211.83
850.67	211.84
850.98	211.92
851.30	211.90
851.61	211.93
851.92	211.85
852.23	211.87
852.55	211.83
852.86	211.77
853.17	211.76
853.49	211.79
853.80	211.85
854.11	211.84
854.42	211.79
854.74	211.75
855.05	211.82
855.36	211.65
855.67	211.64
855.99	211.62
856.30	211.92
856.61	211.84
856.92	211.80
857.23	211.76
857.55	211.66
857.86	211.61
858.17	211.61
858.48	211.65
858.79	211.69
859.11	211.69
859.42	211.70
859.73	211.66
860.04	211.65
860.35	211.55
860.66	211.50
860.98	211.53
861.29	211.56
861.60	211.50
861.91	211.61
862.22	211.64
862.53	211.63
862.84	211.39
863.16	211.46
863.47	211.39
863.78	211.35
864.09	211.33
864.40	211.37
864.71	211.39
865.02	211.40
865.33	211.32
865.64	211.28
865.95	211.26
866.27	211.41
866.58	211.44
866.89	211.53
867.20	211.55
867.51	211.50
867.82	211.46
868.13	211.55
868.44	211.52
868.75	211.51
869.06	211.50
869.37	211.56
869.68	211.54
869.99	211.66
870.30	211.67
870.61	211.78
870.92	211.75
871.23	211.73
871.54	211.71
871.85	211.80
872.16	211.86
872.47	211.86
872.78	211.70
873.09	211.58
873.40	211.53
873.71	211.52
874.02	211.56
874.33	211.61
874.64	211.59
874.95	211.61
875.26	211.58
875.56	211.55
875.87	211.52
876.18	211.50
876.49	211.69
876.80	211.72
877.11	211.67
877.42	211.67
877.73	211.68
878.04	211.66
878.35	211.65
878.66	211.62
878.96	211.63
879.27	211.69
879.58	211.75
879.89	211.74
880.20	211.90
880.51	211.90
880.82	211.84
881.12	211.80
881.43	211.75
881.74	211.78
882.05	211.73
882.36	211.75
882.67	211.75
882.97	211.53
883.28	211.50
883.59	211.50
883.90	211.52
884.21	211.52
884.51	211.59
884.82	211.56
885.13	211.62
885.44	211.57
885.74	211.44
886.05	211.45
886.36	211.45
886.67	211.32
886.98	211.33
887.28	211.40
887.59	211.40
887.90	211.40
888.20	211.30
888.51	211.35
888.82	211.31
889.13	211.30
889.43	211.40
889.74	211.38
890.05	211.36
890.35	211.37
890.66	211.31
890.97	211.28
891.28	211.22
891.58	211.19
891.89	211.20
892.20	211.27
892.50	211.20
892.81	211.20
893.12	211.20
893.42	211.10
893.73	211.03
894.04	211.01
894.34	211.02
894.65	211.02
894.95	210.98
895.26	211.00
895.57	211.03
895.87	210.92
896.18	210.95
896.48	210.95
896.79	210.91
897.10	211.01
897.40	210.95
897.71	210.98
898.01	210.95
898.32	210.96
898.63	210.94
898.93	211.00
899.24	210.95
899.54	210.90
899.85	210.97
900.15	211.00
900.46	210.96
900.76	211.02
901.07	211.12
901.38	211.14
901.68	211.15
901.99	211.13
902.29	211.11
902.60	211.10
902.90	211.05
903.21	211.11
903.51	211.03
903.82	211.09
904.12	211.12
904.43	211.17
904.73	211.12
905.03	211.16
905.34	211.35
905.64	211.39
905.95	211.47
906.25	211.47
906.56	211.45
906.86	211.46
907.17	211.44
907.47	211.42
907.77	211.40
908.08	211.42
908.38	211.43
908.69	211.50
908.99	211.55
909.30	211.58
909.60	211.53
909.90	211.49
910.21	211.46
910.51	211.45
910.81	211.47
911.12	211.55
911.42	211.49
911.73	211.35
912.03	211.35
912.33	211.33
912.64	211.32
912.94	211.28
913.24	211.30
913.55	211.31
913.85	211.27
914.15	211.31
914.46	211.33
914.76	211.39
915.06	211.35
915.37	211.29
915.67	211.29
915.97	211.36
916.27	211.39
916.58	211.38
916.88	211.39
917.18	211.27
917.49	211.42
917.79	211.51
918.09	211.46
918.39	211.53
918.70	211.49
919.00	211.55
919.30	211.72
919.60	211.72
919.91	211.70
920.21	211.72
920.51	211.69
920.81	211.70
921.12	211.66
921.42	211.60
921.72	211.63
922.02	211.64
922.32	211.61
922.63	211.63
922.93	211.68
923.23	211.67
923.53	211.70
923.83	211.52
924.13	211.41
924.44	211.46
924.74	211.43
925.04	211.50
925.34	211.44
925.64	211.32
925.94	211.31
926.24	211.37
926.55	211.30
926.85	211.34
927.15	211.34
927.45	211.29
927.75	211.33
928.05	211.31
928.35	211.36
928.65	211.37
928.95	211.40
929.26	211.36
929.56	211.40
929.86	211.45
930.16	211.44
930.46	211.52
930.76	211.46
931.06	211.46
931.36	211.35
931.66	211.40
931.96	211.39
932.26	211.45
932.56	211.35
932.86	211.47
933.16	211.45
933.46	211.38
933.76	211.42
934.06	211.48
934.36	211.43
934.66	211.39
934.96	211.38
935.26	211.30
935.56	211.27
935.86	211.18
936.16	211.10
936.46	211.13
936.76	211.06
937.06	211.05
937.36	210.97
937.66	211.03
937.96	210.95
938.26	210.92
938.56	210.89
938.86	210.92
939.16	210.90
939.46	210.99
939.76	211.05
940.06	210.98
940.35	210.90
940.65	210.91
940.95	210.95
941.25	210.92
941.55	210.92
941.85	210.90
942.15	211.02
942.45	211.06
942.75	211.05
943.04	211.05
943.34	211.12
943.64	211.11
943.94	211.08
944.24	211.10
944.54	211.14
944.84	211.15
945.13	211.11
945.43	211.05
945.73	210.98
946.03	210.88
946.33	210.94
946.62	211.00
946.92	210.98
947.22	211.01
947.52	211.02
947.82	211.11
948.11	211.14
948.41	211.09
948.71	211.07
949.01	211.02
949.31	211.11
949.60	211.12
949.90	211.18
950.20	211.19
950.50	211.23
950.79	211.21
951.09	211.20
951.39	211.24
951.69	211.20
951.98	211.22
952.28	211.30
952.58	211.29
952.87	211.25
953.17	211.27
953.47	211.19
953.76	211.17
954.06	211.12
954.36	211.13
954.66	211.12
954.95	211.26
955.25	211.29
955.55	211.21
955.84	211.13
956.14	211.14
956.44	211.16
956.73	211.15
957.03	211.20
957.32	211.19
957.62	211.13
957.92	211.20
958.21	211.24
958.51	211.41
958.81	211.51
959.10	211.49
959.40	211.49
959.69	211.49
959.99	211.50
960.29	211.53
960.58	211.55
960.88	211.65
961.17	211.59
961.47	211.67
961.76	211.64
962.06	211.74
962.36	211.74
962.65	211.71
962.95	211.69
963.24	211.64
963.54	211.60
963.83	211.65
964.13	211.68
964.42	211.59
964.72	211.44
965.01	211.32
965.31	211.30
965.60	211.29
965.90	211.43
966.19	211.41
966.49	211.32
966.78	211.30
967.08	211.21
967.37	211.15
967.67	211.07
967.96	211.11
968.26	211.03
968.55	210.95
968.85	210.91
969.14	210.88
969.43	210.86
969.73	210.85
970.02	210.84
970.32	210.79
970.61	210.82
970.91	210.75
971.20	210.74
971.49	210.74
971.79	210.72
972.08	210.54
972.38	210.48
972.67	210.56
972.96	210.55
973.26	210.53
973.55	210.62
973.85	210.59
974.14	210.61
974.43	210.60
974.73	210.61
975.02	210.58
975.31	210.65
975.61	210.62
975.90	210.66
976.19	210.62
976.49	210.60
976.78	210.62
977.07	210.62
977.37	210.65
977.66	210.69
977.95	210.73
978.24	210.75
978.54	210.85
978.83	210.86
979.12	210.80
979.42	210.78
979.71	210.70
980.00	210.68
980.29	210.60
980.59	210.57
980.88	210.63
981.17	210.61
981.46	210.56
981.76	210.58
982.05	210.61
982.34	210.65
982.63	210.67
982.93	210.71
983.22	210.78
983.51	210.79
983.80	210.79
984.09	210.84
984.39	210.84
984.68	210.80
984.97	210.77
985.26	210.85
985.55	210.89
985.85	210.86
986.14	210.96
986.43	211.02
986.72	211.03
987.01	210.97
987.30	211.01
987.59	211.01
987.89	211.01
988.18	210.92
988.47	210.86
988.76	210.86
989.05	210.75
989.34	210.71
989.63	210.73
989.92	210.71
990.22	210.69
990.51	210.73
990.80	210.75
991.09	210.77
991.38	210.71
991.67	210.68
991.96	210.70
992.25	210.68
992.54	210.67
992.83	210.66
993.12	210.70
993.41	210.70
993.70	210.73
993.99	210.80
994.28	210.87
994.58	210.93
994.87	210.95
995.16	211.01
995.45	211.02
995.74	210.95
996.03	210.99
996.32	210.96
996.61	210.99
996.90	210.94
997.19	210.97
997.48	211.05
997.77	211.07
998.06	211.03
998.34	211.00
998.63	210.98
998.92	211.00
999.21	211.00
999.50	211.03
999.79	210.98
1000.08	210.91
1000.37	210.89
1000.66	210.81
1000.95	210.85
1001.24	210.79
1001.53	210.83
1001.82	210.82
1002.11	210.77
1002.40	210.82
1002.68	210.83
1002.97	210.97
1003.26	210.84
1003.55	210.73
1003.84	210.68
1004.13	210.82
1004.42	210.81
1004.71	210.86
1004.99	210.85
1005.28	210.90
1005.57	210.96
1005.86	211.06
1006.15	211.20
1006.44	211.12
1006.72	211.18
1007.01	211.14
1007.30	211.14
1007.59	211.07
1007.88	211.07
1008.17	211.02
1008.45	211.03
1008.74	210.90
1009.03	210.85
1009.32	210.85
1009.60	210.91
1009.89	210.96
1010.18	210.76
1010.47	210.73
1010.76	210.71
1011.04	210.70
1011.33	210.67
1011.62	210.63
1011.91	210.55
1012.19	210.47
1012.48	210.56
1012.77	210.53
1013.05	210.56
1013.34	210.48
1013.63	210.44
1013.92	210.41
1014.20	210.47
1014.49	210.50
1014.78	210.53
1015.06	210.42
1015.35	210.45
1015.64	210.45
1015.92	210.45
1016.21	210.55
1016.50	210.55
1016.78	210.55
1017.07	210.51
1017.36	210.46
1017.64	210.42
1017.93	210.48
1018.22	210.46
1018.50	210.40
1018.79	210.34
1019.08	210.25
1019.36	210.28
1019.65	210.31
1019.93	210.36
1020.22	210.38
1020.51	210.38
1020.79	210.39
1021.08	210.80
1021.36	209.65
1021.65	209.20
1021.94	209.80
1022.22	209.70
1022.51	209.90
1022.79	210.45
1023.08	211.00
1023.36	212.65
1023.65	210.55
>>>>>End Processed Spectral Data<<<<<
