SpectraSuite Data File
++++++++++++++++++++++++++++++++++++
Date: Mon Feb 25 17:32:16 EST 2013
User: group
Dark Spectrum Present: No
Reference Spectrum Present: No
Number of Sampled Component Spectra: 1
Spectrometers: USB2E7196
Integration Time (usec): 52000 (USB2E7196)
Spectra Averaged: 20 (USB2E7196)
Boxcar Smoothing: 10 (USB2E7196)
Correct for Electrical Dark: No (USB2E7196)
Strobe/Lamp Enabled: No (USB2E7196)
Correct for Detector Non-linearity: No (USB2E7196)
Correct for Stray Light: No (USB2E7196)
Number of Pixels in Processed Spectrum: 2048
>>>>>Begin Processed Spectral Data<<<<<
339.09	0.00
339.48	198.65
339.86	199.45
340.24	200.60
340.63	202.85
341.01	206.40
341.39	205.30
341.78	206.85
342.16	207.35
342.54	209.00
342.93	197.80
343.31	207.81
343.69	208.29
344.07	208.72
344.46	209.16
344.84	209.65
345.22	209.90
345.60	210.10
345.99	210.36
346.37	210.58
346.75	210.77
347.13	210.83
347.52	210.90
347.90	210.96
348.28	211.03
348.66	211.16
349.05	211.25
349.43	211.34
349.81	211.42
350.19	211.51
350.57	211.57
350.96	211.66
351.34	211.80
351.72	212.06
352.10	212.31
352.48	212.45
352.87	212.45
353.25	212.52
353.63	212.69
354.01	212.78
354.39	212.86
354.77	212.86
355.15	213.00
355.54	213.09
355.92	213.11
356.30	213.20
356.68	213.35
357.06	213.40
357.44	213.43
357.82	213.53
358.20	213.60
358.58	213.72
358.97	213.81
359.35	213.87
359.73	213.87
360.11	213.90
360.49	214.03
360.87	214.14
361.25	214.25
361.63	214.32
362.01	214.42
362.39	214.44
362.77	214.53
363.15	214.58
363.53	214.59
363.91	214.69
364.29	214.69
364.67	214.55
365.05	214.60
365.43	214.69
365.81	214.74
366.19	214.78
366.57	214.90
366.95	214.87
367.33	214.80
367.71	214.85
368.09	214.90
368.47	214.85
368.85	214.81
369.23	214.82
369.61	214.76
369.99	214.68
370.37	214.65
370.75	214.67
371.13	214.62
371.51	214.53
371.89	214.41
372.27	214.43
372.65	214.38
373.03	214.37
373.41	214.31
373.78	214.19
374.16	214.13
374.54	213.96
374.92	213.92
375.30	214.00
375.68	213.91
376.06	213.85
376.44	213.73
376.82	213.70
377.19	213.62
377.57	213.60
377.95	213.53
378.33	213.51
378.71	213.35
379.09	213.26
379.47	213.28
379.84	213.30
380.22	213.22
380.60	213.21
380.98	213.12
381.36	212.98
381.73	213.01
382.11	212.98
382.49	213.03
382.87	212.92
383.25	212.74
383.62	212.89
384.00	212.76
384.38	212.73
384.76	212.65
385.13	212.68
385.51	212.60
385.89	212.57
386.27	212.52
386.64	212.51
387.02	212.47
387.40	212.39
387.78	212.30
388.15	212.21
388.53	212.13
388.91	212.10
389.29	212.12
389.66	212.06
390.04	212.00
390.42	211.93
390.79	211.97
391.17	211.97
391.55	211.75
391.92	211.73
392.30	211.74
392.68	211.69
393.05	211.56
393.43	211.61
393.81	211.52
394.18	211.53
394.56	211.55
394.94	211.60
395.31	211.62
395.69	211.73
396.06	211.82
396.44	211.87
396.82	211.83
397.19	211.98
397.57	212.02
397.95	212.04
398.32	212.01
398.70	212.06
399.07	212.17
399.45	212.21
399.82	212.27
400.20	212.30
400.58	212.32
400.95	212.39
401.33	212.43
401.70	212.61
402.08	212.64
402.45	212.64
402.83	212.72
403.20	212.78
403.58	212.80
403.95	212.89
404.33	212.95
404.71	213.06
405.08	213.22
405.46	213.32
405.83	213.43
406.21	213.60
406.58	213.75
406.96	213.83
407.33	213.98
407.70	214.17
408.08	214.51
408.45	214.84
408.83	215.11
409.20	215.29
409.58	215.50
409.95	215.83
410.33	216.14
410.70	216.46
411.08	216.87
411.45	217.26
411.82	217.55
412.20	218.03
412.57	218.59
412.95	218.89
413.32	219.30
413.69	219.88
414.07	220.39
414.44	220.95
414.82	221.63
415.19	222.41
415.56	223.11
415.94	223.77
416.31	224.56
416.68	225.44
417.06	226.35
417.43	227.23
417.81	228.30
418.18	229.46
418.55	230.60
418.93	231.81
419.30	233.08
419.67	234.47
420.04	235.89
420.42	237.32
420.79	239.15
421.16	240.91
421.54	242.67
421.91	244.53
422.28	246.45
422.66	248.48
423.03	250.46
423.40	252.52
423.77	254.81
424.15	257.08
424.52	259.35
424.89	261.91
425.26	264.41
425.64	266.64
426.01	269.10
426.38	271.87
426.75	274.49
427.13	277.21
427.50	280.17
427.87	283.25
428.24	286.25
428.61	289.13
428.99	292.34
429.36	295.76
429.73	299.11
430.10	302.56
430.47	306.03
430.85	309.71
431.22	313.48
431.59	317.47
431.96	321.36
432.33	325.60
432.70	329.79
433.08	334.64
433.45	339.36
433.82	343.97
434.19	349.00
434.56	354.10
434.93	358.96
435.30	363.74
435.68	368.97
436.05	374.18
436.42	379.30
436.79	383.97
437.16	389.11
437.53	394.45
437.90	399.75
438.27	404.94
438.64	410.23
439.01	415.26
439.38	419.68
439.75	423.91
440.13	428.86
440.50	433.32
440.87	437.09
441.24	440.91
441.61	445.11
441.98	448.11
442.35	451.66
442.72	455.28
443.09	458.70
443.46	460.68
443.83	462.00
444.20	463.09
444.57	464.85
444.94	465.57
445.31	466.37
445.68	467.08
446.05	467.24
446.42	466.50
446.79	465.77
447.16	464.87
447.53	464.26
447.90	462.07
448.27	460.14
448.64	457.19
449.01	455.12
449.37	451.45
449.74	447.91
450.11	443.76
450.48	439.20
450.85	434.66
451.22	430.79
451.59	427.05
451.96	423.49
452.33	418.81
452.70	414.38
453.07	409.35
453.43	404.09
453.80	399.16
454.17	394.43
454.54	389.91
454.91	385.16
455.28	380.37
455.65	376.08
456.02	371.68
456.38	367.97
456.75	363.35
457.12	359.56
457.49	355.76
457.86	352.18
458.23	349.04
458.59	345.49
458.96	341.98
459.33	338.89
459.70	335.81
460.07	333.21
460.43	330.46
460.80	327.77
461.17	325.45
461.54	323.03
461.91	320.72
462.27	318.32
462.64	316.35
463.01	314.19
463.38	312.08
463.74	309.88
464.11	308.08
464.48	306.39
464.85	304.69
465.21	303.37
465.58	301.89
465.95	300.19
466.32	298.84
466.68	297.43
467.05	296.01
467.42	294.64
467.78	293.23
468.15	292.00
468.52	290.92
468.88	289.60
469.25	288.44
469.62	287.52
469.98	286.56
470.35	285.66
470.72	284.79
471.08	283.84
471.45	283.17
471.82	282.36
472.18	281.55
472.55	280.97
472.92	280.31
473.28	279.70
473.65	279.14
474.02	278.60
474.38	278.23
474.75	277.91
475.11	277.45
475.48	277.22
475.85	276.92
476.21	276.71
476.58	276.61
476.94	276.55
477.31	276.51
477.67	276.51
478.04	276.51
478.41	276.60
478.77	276.96
479.14	277.08
479.50	277.38
479.87	277.79
480.23	278.17
480.60	278.50
480.96	278.98
481.33	279.54
481.69	280.20
482.06	280.80
482.42	281.40
482.79	282.27
483.15	283.02
483.52	284.05
483.88	285.02
484.25	285.92
484.61	287.01
484.98	288.13
485.34	289.36
485.71	290.63
486.07	292.04
486.44	293.31
486.80	294.81
487.17	296.43
487.53	298.19
487.90	300.00
488.26	301.98
488.62	303.96
488.99	306.06
489.35	308.16
489.72	310.42
490.08	312.82
490.44	315.28
490.81	318.00
491.17	320.71
491.54	323.64
491.90	326.77
492.26	329.90
492.63	333.22
492.99	336.57
493.36	340.27
493.72	344.15
494.08	348.15
494.45	352.50
494.81	356.93
495.17	361.42
495.54	366.22
495.90	371.11
496.26	376.29
496.63	381.82
496.99	387.63
497.35	393.61
497.72	399.91
498.08	406.42
498.44	413.20
498.80	420.34
499.17	427.62
499.53	435.35
499.89	443.29
500.26	451.49
500.62	459.91
500.98	468.76
501.34	477.82
501.71	487.35
502.07	496.89
502.43	506.86
502.79	517.06
503.16	527.77
503.52	538.80
503.88	549.96
504.24	561.48
504.60	573.26
504.97	585.53
505.33	598.01
505.69	611.18
506.05	624.59
506.41	638.00
506.78	651.73
507.14	665.75
507.50	680.34
507.86	695.14
508.22	710.58
508.59	726.10
508.95	742.09
509.31	758.22
509.67	774.91
510.03	791.70
510.39	809.17
510.75	826.90
511.12	844.89
511.48	863.31
511.84	881.87
512.20	900.51
512.56	919.73
512.92	939.09
513.28	958.59
513.64	978.10
514.00	998.16
514.37	1018.79
514.73	1039.51
515.09	1060.33
515.45	1081.06
515.81	1102.01
516.17	1123.11
516.53	1144.19
516.89	1165.63
517.25	1186.92
517.61	1208.61
517.97	1230.06
518.33	1251.23
518.69	1272.69
519.05	1294.78
519.41	1316.89
519.77	1339.44
520.13	1361.33
520.49	1383.46
520.85	1406.04
521.21	1428.52
521.57	1451.47
521.93	1473.21
522.29	1495.93
522.65	1518.24
523.01	1540.94
523.37	1563.03
523.73	1585.38
524.09	1607.67
524.45	1629.76
524.81	1652.20
525.17	1674.42
525.53	1696.74
525.89	1719.23
526.25	1741.38
526.61	1762.38
526.97	1783.66
527.33	1804.97
527.68	1826.53
528.04	1847.64
528.40	1867.59
528.76	1888.32
529.12	1908.72
529.48	1930.16
529.84	1950.44
530.20	1971.09
530.56	1991.10
530.91	2011.90
531.27	2031.94
531.63	2051.83
531.99	2071.62
532.35	2090.71
532.71	2109.69
533.07	2128.96
533.42	2147.39
533.78	2166.30
534.14	2184.69
534.50	2202.05
534.86	2219.75
535.21	2236.18
535.57	2253.93
535.93	2271.73
536.29	2288.48
536.65	2304.60
537.00	2319.63
537.36	2334.90
537.72	2349.68
538.08	2365.09
538.44	2380.29
538.79	2395.54
539.15	2410.21
539.51	2424.79
539.87	2439.92
540.22	2454.34
540.58	2469.03
540.94	2483.66
541.29	2496.37
541.65	2508.74
542.01	2521.75
542.37	2533.36
542.72	2545.96
543.08	2556.48
543.44	2568.02
543.79	2578.15
544.15	2588.56
544.51	2599.68
544.87	2610.49
545.22	2619.32
545.58	2627.69
545.94	2634.56
546.29	2641.18
546.65	2647.45
547.01	2653.50
547.36	2658.76
547.72	2664.25
548.07	2667.99
548.43	2671.33
548.79	2675.00
549.14	2679.41
549.50	2684.01
549.86	2688.19
550.21	2691.95
550.57	2696.22
550.92	2698.44
551.28	2701.15
551.64	2703.53
551.99	2705.91
552.35	2707.18
552.70	2710.08
553.06	2712.69
553.41	2715.77
553.77	2718.29
554.13	2720.34
554.48	2722.12
554.84	2723.59
555.19	2724.02
555.55	2724.93
555.90	2725.50
556.26	2726.28
556.61	2726.55
556.97	2725.13
557.32	2724.82
557.68	2722.99
558.03	2721.49
558.39	2720.15
558.74	2719.56
559.10	2718.24
559.45	2716.35
559.81	2714.97
560.16	2712.34
560.52	2709.61
560.87	2706.48
561.23	2703.09
561.58	2701.18
561.94	2697.78
562.29	2694.13
562.64	2692.08
563.00	2689.54
563.35	2687.36
563.71	2685.17
564.06	2683.17
564.42	2681.33
564.77	2678.63
565.12	2676.83
565.48	2673.40
565.83	2670.30
566.19	2667.00
566.54	2663.01
566.89	2659.08
567.25	2655.53
567.60	2652.03
567.96	2648.32
568.31	2644.94
568.66	2640.94
569.02	2635.87
569.37	2631.41
569.72	2627.71
570.08	2621.99
570.43	2616.29
570.78	2610.44
571.14	2604.04
571.49	2596.69
571.84	2590.70
572.20	2583.85
572.55	2577.36
572.90	2570.62
573.26	2563.85
573.61	2556.81
573.96	2550.18
574.31	2542.42
574.67	2534.27
575.02	2525.84
575.37	2517.52
575.72	2508.34
576.08	2500.94
576.43	2492.52
576.78	2484.46
577.13	2476.30
577.49	2468.24
577.84	2460.57
578.19	2453.09
578.54	2445.83
578.90	2439.03
579.25	2430.18
579.60	2421.07
579.95	2411.70
580.30	2404.17
580.66	2395.93
581.01	2386.94
581.36	2377.60
581.71	2369.37
582.06	2361.00
582.42	2352.98
582.77	2344.15
583.12	2335.27
583.47	2326.45
583.82	2318.20
584.17	2309.18
584.53	2300.23
584.88	2291.50
585.23	2282.12
585.58	2272.28
585.93	2262.48
586.28	2253.34
586.63	2244.46
586.98	2236.52
587.34	2228.34
587.69	2218.98
588.04	2209.90
588.39	2201.70
588.74	2193.02
589.09	2184.02
589.44	2174.61
589.79	2166.31
590.14	2158.51
590.49	2150.30
590.84	2141.15
591.19	2132.95
591.54	2124.14
591.89	2114.05
592.25	2104.97
592.60	2095.74
592.95	2086.64
593.30	2077.19
593.65	2067.25
594.00	2057.78
594.35	2049.34
594.70	2040.09
595.05	2031.25
595.40	2022.45
595.75	2012.94
596.10	2004.68
596.45	1996.60
596.80	1988.94
597.15	1980.41
597.50	1971.06
597.85	1962.78
598.19	1954.34
598.54	1945.71
598.89	1938.01
599.24	1931.36
599.59	1924.03
599.94	1917.02
600.29	1909.26
600.64	1901.82
600.99	1893.87
601.34	1886.75
601.69	1878.04
602.04	1869.83
602.39	1861.78
602.74	1853.86
603.08	1847.06
603.43	1840.03
603.78	1831.69
604.13	1823.49
604.48	1815.62
604.83	1808.77
605.18	1801.56
605.53	1794.22
605.87	1786.86
606.22	1779.55
606.57	1771.80
606.92	1763.84
607.27	1755.82
607.62	1748.64
607.96	1741.60
608.31	1735.38
608.66	1727.35
609.01	1719.79
609.36	1712.32
609.70	1704.73
610.05	1697.10
610.40	1689.25
610.75	1680.59
611.10	1673.20
611.44	1664.20
611.79	1655.11
612.14	1645.70
612.49	1636.14
612.83	1627.24
613.18	1617.29
613.53	1608.05
613.88	1598.24
614.22	1589.28
614.57	1580.17
614.92	1570.93
615.27	1561.88
615.61	1551.99
615.96	1543.31
616.31	1534.95
616.65	1527.17
617.00	1518.86
617.35	1510.58
617.70	1501.34
618.04	1492.42
618.39	1483.26
618.74	1474.96
619.08	1466.52
619.43	1458.45
619.78	1450.94
620.12	1442.91
620.47	1435.43
620.82	1426.89
621.16	1418.80
621.51	1410.50
621.85	1402.22
622.20	1393.68
622.55	1385.23
622.89	1377.35
623.24	1369.61
623.59	1360.72
623.93	1352.00
624.28	1343.58
624.62	1335.10
624.97	1327.12
625.32	1319.41
625.66	1312.06
626.01	1304.90
626.35	1297.75
626.70	1290.19
627.04	1282.87
627.39	1275.16
627.73	1267.58
628.08	1260.73
628.43	1253.28
628.77	1245.96
629.12	1238.41
629.46	1231.94
629.81	1224.54
630.15	1217.12
630.50	1209.53
630.84	1202.46
631.19	1195.43
631.53	1188.86
631.88	1181.38
632.22	1173.61
632.57	1166.76
632.91	1159.25
633.26	1151.77
633.60	1144.62
633.95	1137.71
634.29	1130.36
634.64	1123.70
634.98	1116.80
635.32	1109.57
635.67	1103.30
636.01	1096.54
636.36	1090.12
636.70	1083.39
637.05	1077.10
637.39	1070.75
637.73	1064.40
638.08	1058.93
638.42	1053.11
638.77	1046.37
639.11	1040.19
639.45	1034.58
639.80	1027.90
640.14	1021.61
640.49	1015.65
640.83	1009.35
641.17	1003.02
641.52	996.90
641.86	990.57
642.20	984.45
642.55	978.11
642.89	971.59
643.23	965.21
643.58	959.31
643.92	952.85
644.26	946.68
644.61	940.65
644.95	934.75
645.29	928.17
645.64	921.50
645.98	915.45
646.32	909.57
646.66	903.36
647.01	897.50
647.35	891.70
647.69	885.23
648.04	879.27
648.38	873.25
648.72	867.22
649.06	861.07
649.41	854.87
649.75	848.98
650.09	843.28
650.43	837.50
650.78	831.20
651.12	825.20
651.46	819.30
651.80	813.39
652.14	807.46
652.49	801.66
652.83	795.82
653.17	789.87
653.51	784.13
653.85	778.50
654.20	772.70
654.54	766.77
654.88	761.36
655.22	755.59
655.56	749.99
655.90	744.27
656.25	738.57
656.59	733.19
656.93	728.25
657.27	723.02
657.61	717.68
657.95	712.52
658.29	707.52
658.64	702.61
658.98	697.43
659.32	691.94
659.66	686.75
660.00	681.57
660.34	676.33
660.68	671.27
661.02	666.33
661.36	661.57
661.70	656.94
662.05	652.25
662.39	648.00
662.73	643.60
663.07	639.21
663.41	634.87
663.75	630.33
664.09	625.48
664.43	620.72
664.77	616.29
665.11	611.93
665.45	607.57
665.79	603.08
666.13	598.75
666.47	594.57
666.81	590.52
667.15	586.51
667.49	582.65
667.83	578.70
668.17	574.76
668.51	570.98
668.85	567.32
669.19	563.73
669.53	559.78
669.87	555.90
670.21	552.05
670.55	548.19
670.89	544.79
671.23	541.45
671.57	538.14
671.91	534.58
672.25	531.12
672.58	527.61
672.92	524.16
673.26	521.08
673.60	517.97
673.94	514.59
674.28	511.24
674.62	508.12
674.96	504.90
675.30	501.82
675.64	498.57
675.97	495.29
676.31	492.17
676.65	489.11
676.99	486.47
677.33	483.66
677.67	480.99
678.01	477.95
678.34	474.90
678.68	472.00
679.02	469.09
679.36	466.23
679.70	463.38
680.04	460.59
680.37	457.50
680.71	454.76
681.05	452.06
681.39	449.42
681.73	446.76
682.06	444.28
682.40	441.67
682.74	439.20
683.08	436.77
683.42	434.07
683.75	431.59
684.09	428.91
684.43	426.31
684.77	423.64
685.10	421.21
685.44	418.84
685.78	416.35
686.12	414.13
686.45	411.70
686.79	409.44
687.13	407.23
687.46	405.12
687.80	402.89
688.14	400.65
688.48	398.62
688.81	396.38
689.15	394.10
689.49	391.82
689.82	389.49
690.16	387.11
690.50	384.96
690.83	382.79
691.17	380.51
691.51	378.38
691.84	376.42
692.18	374.32
692.52	372.31
692.85	370.43
693.19	368.51
693.52	366.61
693.86	364.55
694.20	362.70
694.53	360.87
694.87	358.80
695.21	356.98
695.54	355.02
695.88	353.20
696.21	351.33
696.55	349.75
696.88	348.02
697.22	346.33
697.56	344.69
697.89	342.97
698.23	341.34
698.56	339.75
698.90	338.20
699.23	336.56
699.57	334.93
699.90	333.23
700.24	331.58
700.58	330.05
700.91	328.65
701.25	327.21
701.58	325.73
701.92	324.32
702.25	322.90
702.59	321.53
702.92	320.12
703.26	318.76
703.59	317.36
703.93	316.28
704.26	315.10
704.60	313.87
704.93	312.69
705.26	311.43
705.60	310.16
705.93	308.79
706.27	307.66
706.60	306.53
706.94	305.48
707.27	304.32
707.61	303.15
707.94	301.96
708.27	300.71
708.61	299.52
708.94	298.51
709.28	297.38
709.61	296.27
709.94	295.26
710.28	294.24
710.61	293.19
710.95	292.01
711.28	291.00
711.61	289.98
711.95	289.02
712.28	288.01
712.61	287.05
712.95	286.21
713.28	285.33
713.61	284.33
713.95	283.40
714.28	282.57
714.61	281.68
714.95	280.78
715.28	279.87
715.61	278.95
715.95	278.03
716.28	277.14
716.61	276.31
716.95	275.46
717.28	274.61
717.61	273.88
717.94	273.10
718.28	272.23
718.61	271.41
718.94	270.62
719.27	269.89
719.61	269.23
719.94	268.53
720.27	267.77
720.60	267.12
720.94	266.37
721.27	265.67
721.60	265.09
721.93	264.53
722.27	263.94
722.60	263.35
722.93	262.77
723.26	262.25
723.59	261.56
723.93	260.93
724.26	260.36
724.59	259.71
724.92	259.20
725.25	258.71
725.59	258.20
725.92	257.65
726.25	257.11
726.58	256.59
726.91	255.96
727.24	255.45
727.57	254.95
727.91	254.37
728.24	253.91
728.57	253.39
728.90	252.91
729.23	252.44
729.56	252.06
729.89	251.55
730.22	251.01
730.55	250.59
730.89	250.11
731.22	249.70
731.55	249.21
731.88	248.68
732.21	248.24
732.54	247.72
732.87	247.34
733.20	246.93
733.53	246.51
733.86	246.22
734.19	245.77
734.52	245.38
734.85	245.24
735.18	244.78
735.51	244.47
735.84	244.01
736.17	243.70
736.50	243.26
736.83	243.10
737.16	242.75
737.49	242.44
737.82	242.09
738.15	241.76
738.48	241.45
738.81	241.11
739.14	240.74
739.47	240.40
739.80	239.98
740.13	239.69
740.46	239.29
740.79	238.85
741.12	238.53
741.45	238.14
741.78	237.70
742.11	237.42
742.44	237.02
742.77	236.84
743.10	236.44
743.43	236.07
743.75	235.58
744.08	235.55
744.41	235.19
744.74	234.89
745.07	234.55
745.40	234.33
745.73	234.09
746.06	233.80
746.39	233.55
746.71	233.27
747.04	232.94
747.37	232.67
747.70	232.50
748.03	232.28
748.36	232.10
748.68	231.88
749.01	231.57
749.34	231.39
749.67	231.12
750.00	230.87
750.33	230.84
750.65	230.61
750.98	230.12
751.31	229.90
751.64	229.65
751.97	229.50
752.29	229.25
752.62	228.91
752.95	228.67
753.28	228.53
753.60	228.36
753.93	228.20
754.26	227.98
754.59	227.65
754.91	227.42
755.24	227.20
755.57	226.94
755.90	226.78
756.22	226.53
756.55	226.34
756.88	226.19
757.20	225.82
757.53	225.57
757.86	225.37
758.19	225.27
758.51	225.15
758.84	224.86
759.17	224.66
759.49	224.48
759.82	224.43
760.15	224.18
760.47	224.02
760.80	223.77
761.13	223.69
761.45	223.57
761.78	223.44
762.11	223.28
762.43	223.07
762.76	222.91
763.08	222.81
763.41	222.60
763.74	222.43
764.06	222.27
764.39	222.16
764.71	222.05
765.04	221.80
765.37	221.62
765.69	221.53
766.02	221.34
766.34	221.31
766.67	221.14
767.00	221.06
767.32	221.04
767.65	220.98
767.97	220.80
768.30	220.71
768.62	220.51
768.95	220.37
769.27	220.35
769.60	220.27
769.92	220.06
770.25	219.95
770.57	219.85
770.90	219.76
771.22	219.67
771.55	219.60
771.87	219.54
772.20	219.44
772.52	219.45
772.85	219.59
773.17	219.50
773.50	219.29
773.82	219.20
774.15	219.00
774.47	218.85
774.80	218.76
775.12	218.70
775.45	218.64
775.77	218.61
776.09	218.50
776.42	218.40
776.74	218.45
777.07	218.30
777.39	218.16
777.72	218.06
778.04	217.96
778.36	217.86
778.69	217.81
779.01	217.73
779.33	217.52
779.66	217.32
779.98	217.24
780.31	217.24
780.63	217.20
780.95	217.13
781.28	217.05
781.60	216.97
781.92	216.87
782.25	216.80
782.57	216.78
782.89	216.70
783.22	216.56
783.54	216.40
783.86	216.46
784.19	216.40
784.51	216.44
784.83	216.36
785.16	216.32
785.48	216.28
785.80	216.29
786.12	216.25
786.45	216.16
786.77	216.13
787.09	216.09
787.42	215.99
787.74	216.00
788.06	215.98
788.38	215.95
788.71	215.90
789.03	215.86
789.35	215.82
789.67	215.75
789.99	215.81
790.32	215.84
790.64	215.74
790.96	215.90
791.28	215.77
791.61	215.72
791.93	215.70
792.25	215.63
792.57	215.66
792.89	215.61
793.21	215.55
793.54	215.50
793.86	215.38
794.18	215.43
794.50	215.32
794.82	215.22
795.14	215.18
795.47	215.16
795.79	215.16
796.11	215.03
796.43	215.01
796.75	214.98
797.07	214.92
797.39	214.88
797.71	214.69
798.04	214.68
798.36	214.73
798.68	214.69
799.00	214.62
799.32	214.53
799.64	214.55
799.96	214.52
800.28	214.53
800.60	214.55
800.92	214.51
801.24	214.42
801.56	214.40
801.89	214.38
802.21	214.39
802.53	214.36
802.85	214.39
803.17	214.46
803.49	214.36
803.81	214.39
804.13	214.38
804.45	214.34
804.77	214.31
805.09	214.22
805.41	214.11
805.73	214.14
806.05	214.03
806.37	213.99
806.69	213.93
807.01	213.83
807.33	213.81
807.65	213.65
807.97	213.73
808.28	213.73
808.60	213.69
808.92	213.67
809.24	213.68
809.56	213.66
809.88	213.55
810.20	213.54
810.52	213.49
810.84	213.50
811.16	213.46
811.48	213.45
811.80	213.56
812.12	213.60
812.43	213.58
812.75	213.64
813.07	213.63
813.39	213.61
813.71	213.60
814.03	213.55
814.35	213.59
814.67	213.43
814.98	213.41
815.30	213.43
815.62	213.27
815.94	213.14
816.26	213.14
816.58	213.07
816.89	213.02
817.21	212.91
817.53	212.83
817.85	212.83
818.17	212.81
818.48	212.64
818.80	212.66
819.12	212.63
819.44	212.55
819.76	212.53
820.07	212.45
820.39	212.41
820.71	212.42
821.03	212.38
821.34	212.45
821.66	212.50
821.98	212.50
822.30	212.58
822.61	212.65
822.93	212.57
823.25	212.52
823.57	212.57
823.88	212.59
824.20	212.59
824.52	212.60
824.83	212.49
825.15	212.52
825.47	212.51
825.79	212.50
826.10	212.46
826.42	212.40
826.74	212.45
827.05	212.46
827.37	212.47
827.69	212.49
828.00	212.46
828.32	212.41
828.64	212.35
828.95	212.38
829.27	212.33
829.58	212.35
829.90	212.39
830.22	212.34
830.53	212.35
830.85	212.34
831.17	212.23
831.48	212.29
831.80	212.25
832.11	212.19
832.43	212.16
832.75	212.12
833.06	212.20
833.38	212.15
833.69	212.13
834.01	212.14
834.32	212.09
834.64	212.08
834.96	212.08
835.27	212.09
835.59	212.13
835.90	212.11
836.22	212.10
836.53	212.12
836.85	212.12
837.16	212.22
837.48	212.23
837.79	212.35
838.11	212.36
838.42	212.39
838.74	212.38
839.05	212.31
839.37	212.40
839.68	212.27
840.00	212.26
840.31	212.29
840.63	212.29
840.94	212.30
841.26	212.26
841.57	212.27
841.88	212.23
842.20	212.10
842.51	212.06
842.83	212.02
843.14	212.13
843.46	212.14
843.77	212.04
844.08	212.02
844.40	211.93
844.71	211.90
845.03	211.88
845.34	211.89
845.65	211.92
845.97	211.82
846.28	211.86
846.60	211.88
846.91	211.82
847.22	211.84
847.54	211.92
847.85	211.97
848.16	211.95
848.48	211.95
848.79	212.06
849.10	212.05
849.42	212.12
849.73	211.87
850.04	211.85
850.36	211.86
850.67	211.95
850.98	211.94
851.30	211.99
851.61	212.00
851.92	212.02
852.23	212.09
852.55	212.11
852.86	212.10
853.17	212.06
853.49	212.12
853.80	212.11
854.11	211.98
854.42	211.96
854.74	211.87
855.05	211.85
855.36	211.78
855.67	211.75
855.99	211.72
856.30	211.98
856.61	211.99
856.92	212.00
857.23	211.93
857.55	211.92
857.86	211.86
858.17	211.86
858.48	211.82
858.79	211.80
859.11	211.79
859.42	211.77
859.73	211.84
860.04	211.76
860.35	211.75
860.66	211.80
860.98	211.81
861.29	211.87
861.60	211.87
861.91	211.92
862.22	211.92
862.53	211.86
862.84	211.71
863.16	211.68
863.47	211.60
863.78	211.54
864.09	211.55
864.40	211.51
864.71	211.47
865.02	211.51
865.33	211.46
865.64	211.43
865.95	211.42
866.27	211.52
866.58	211.58
866.89	211.56
867.20	211.46
867.51	211.46
867.82	211.45
868.13	211.55
868.44	211.48
868.75	211.55
869.06	211.62
869.37	211.56
869.68	211.61
869.99	211.65
870.30	211.70
870.61	211.72
870.92	211.73
871.23	211.75
871.54	211.73
871.85	211.77
872.16	211.81
872.47	211.88
872.78	211.69
873.09	211.68
873.40	211.64
873.71	211.67
874.02	211.65
874.33	211.61
874.64	211.48
874.95	211.49
875.26	211.44
875.56	211.43
875.87	211.45
876.18	211.44
876.49	211.61
876.80	211.58
877.11	211.49
877.42	211.57
877.73	211.49
878.04	211.42
878.35	211.41
878.66	211.44
878.96	211.39
879.27	211.40
879.58	211.36
879.89	211.30
880.20	211.40
880.51	211.39
880.82	211.44
881.12	211.50
881.43	211.48
881.74	211.47
882.05	211.48
882.36	211.45
882.67	211.43
882.97	211.21
883.28	211.27
883.59	211.32
883.90	211.32
884.21	211.41
884.51	211.47
884.82	211.43
885.13	211.38
885.44	211.34
885.74	211.36
886.05	211.39
886.36	211.38
886.67	211.29
886.98	211.32
887.28	211.33
887.59	211.34
887.90	211.25
888.20	211.21
888.51	211.22
888.82	211.29
889.13	211.24
889.43	211.37
889.74	211.29
890.05	211.30
890.35	211.27
890.66	211.18
890.97	211.21
891.28	211.22
891.58	211.25
891.89	211.34
892.20	211.34
892.50	211.31
892.81	211.36
893.12	211.35
893.42	211.33
893.73	211.31
894.04	211.32
894.34	211.37
894.65	211.41
894.95	211.41
895.26	211.40
895.57	211.51
895.87	211.40
896.18	211.43
896.48	211.44
896.79	211.45
897.10	211.53
897.40	211.44
897.71	211.43
898.01	211.40
898.32	211.41
898.63	211.44
898.93	211.49
899.24	211.49
899.54	211.54
899.85	211.52
900.15	211.59
900.46	211.57
900.76	211.60
901.07	211.59
901.38	211.54
901.68	211.51
901.99	211.44
902.29	211.42
902.60	211.50
902.90	211.45
903.21	211.45
903.51	211.40
903.82	211.50
904.12	211.52
904.43	211.52
904.73	211.47
905.03	211.48
905.34	211.65
905.64	211.65
905.95	211.59
906.25	211.52
906.56	211.43
906.86	211.44
907.17	211.44
907.47	211.45
907.77	211.43
908.08	211.51
908.38	211.47
908.69	211.51
908.99	211.48
909.30	211.44
909.60	211.44
909.90	211.54
910.21	211.51
910.51	211.48
910.81	211.54
911.12	211.53
911.42	211.47
911.73	211.24
912.03	211.19
912.33	211.32
912.64	211.34
912.94	211.33
913.24	211.33
913.55	211.31
913.85	211.27
914.15	211.33
914.46	211.28
914.76	211.34
915.06	211.37
915.37	211.35
915.67	211.41
915.97	211.40
916.27	211.35
916.58	211.34
916.88	211.34
917.18	211.33
917.49	211.51
917.79	211.51
918.09	211.58
918.39	211.70
918.70	211.63
919.00	211.63
919.30	211.73
919.60	211.64
919.91	211.65
920.21	211.66
920.51	211.61
920.81	211.63
921.12	211.63
921.42	211.57
921.72	211.61
922.02	211.58
922.32	211.64
922.63	211.59
922.93	211.66
923.23	211.64
923.53	211.62
923.83	211.38
924.13	211.43
924.44	211.43
924.74	211.43
925.04	211.47
925.34	211.50
925.64	211.46
925.94	211.51
926.24	211.62
926.55	211.56
926.85	211.53
927.15	211.38
927.45	211.32
927.75	211.30
928.05	211.24
928.35	211.25
928.65	211.24
928.95	211.20
929.26	211.15
929.56	211.24
929.86	211.20
930.16	211.26
930.46	211.20
930.76	211.16
931.06	211.05
931.36	210.95
931.66	210.95
931.96	210.94
932.26	210.92
932.56	210.80
932.86	210.80
933.16	210.85
933.46	210.85
933.76	210.81
934.06	210.79
934.36	210.82
934.66	210.70
934.96	210.67
935.26	210.75
935.56	210.73
935.86	210.63
936.16	210.62
936.46	210.61
936.76	210.59
937.06	210.55
937.36	210.51
937.66	210.54
937.96	210.48
938.26	210.42
938.56	210.44
938.86	210.48
939.16	210.50
939.46	210.52
939.76	210.57
940.06	210.61
940.35	210.54
940.65	210.48
940.95	210.52
941.25	210.52
941.55	210.50
941.85	210.46
942.15	210.54
942.45	210.54
942.75	210.49
943.04	210.61
943.34	210.70
943.64	210.73
943.94	210.72
944.24	210.79
944.54	210.78
944.84	210.75
945.13	210.69
945.43	210.70
945.73	210.72
946.03	210.72
946.33	210.71
946.62	210.81
946.92	210.79
947.22	210.85
947.52	210.83
947.82	210.80
948.11	210.84
948.41	210.78
948.71	210.75
949.01	210.80
949.31	210.72
949.60	210.66
949.90	210.71
950.20	210.72
950.50	210.79
950.79	210.79
951.09	210.85
951.39	210.81
951.69	210.82
951.98	210.83
952.28	210.84
952.58	210.83
952.87	210.83
953.17	210.97
953.47	210.98
953.76	210.92
954.06	210.92
954.36	210.88
954.66	210.90
954.95	211.04
955.25	210.98
955.55	210.98
955.84	210.93
956.14	210.92
956.44	210.89
956.73	210.84
957.03	210.89
957.32	210.88
957.62	210.95
957.92	210.94
958.21	210.91
958.51	211.16
958.81	211.20
959.10	211.18
959.40	211.09
959.69	211.06
959.99	211.10
960.29	211.12
960.58	211.10
960.88	211.13
961.17	211.04
961.47	211.09
961.76	211.10
962.06	211.11
962.36	211.09
962.65	211.09
962.95	211.05
963.24	211.01
963.54	211.01
963.83	211.05
964.13	211.06
964.42	211.01
964.72	210.84
965.01	210.78
965.31	210.83
965.60	210.82
965.90	210.96
966.19	210.92
966.49	210.89
966.78	210.88
967.08	210.81
967.37	210.89
967.67	210.89
967.96	210.87
968.26	210.91
968.55	210.88
968.85	210.92
969.14	210.92
969.43	210.90
969.73	210.90
970.02	210.79
970.32	210.80
970.61	210.83
970.91	210.69
971.20	210.66
971.49	210.58
971.79	210.65
972.08	210.47
972.38	210.45
972.67	210.37
972.96	210.39
973.26	210.39
973.55	210.38
973.85	210.38
974.14	210.40
974.43	210.37
974.73	210.38
975.02	210.30
975.31	210.30
975.61	210.31
975.90	210.27
976.19	210.29
976.49	210.26
976.78	210.20
977.07	210.26
977.37	210.29
977.66	210.37
977.95	210.33
978.24	210.44
978.54	210.56
978.83	210.62
979.12	210.65
979.42	210.66
979.71	210.63
980.00	210.62
980.29	210.68
980.59	210.68
980.88	210.73
981.17	210.81
981.46	210.82
981.76	210.85
982.05	210.93
982.34	211.03
982.63	211.09
982.93	211.25
983.22	211.31
983.51	211.36
983.80	211.32
984.09	211.35
984.39	211.28
984.68	211.21
984.97	211.27
985.26	211.27
985.55	211.32
985.85	211.30
986.14	211.33
986.43	211.36
986.72	211.39
987.01	211.40
987.30	211.34
987.59	211.41
987.89	211.46
988.18	211.42
988.47	211.31
988.76	211.23
989.05	211.10
989.34	211.08
989.63	211.15
989.92	211.10
990.22	211.06
990.51	211.04
990.80	211.07
991.09	211.05
991.38	211.06
991.67	211.05
991.96	211.07
992.25	211.12
992.54	211.05
992.83	211.06
993.12	211.05
993.41	211.17
993.70	211.22
993.99	211.18
994.28	211.20
994.58	211.25
994.87	211.34
995.16	211.35
995.45	211.34
995.74	211.25
996.03	211.36
996.32	211.37
996.61	211.42
996.90	211.40
997.19	211.44
997.48	211.48
997.77	211.48
998.06	211.48
998.34	211.41
998.63	211.43
998.92	211.48
999.21	211.45
999.50	211.43
999.79	211.38
1000.08	211.47
1000.37	211.50
1000.66	211.52
1000.95	211.50
1001.24	211.54
1001.53	211.60
1001.82	211.64
1002.11	211.56
1002.40	211.56
1002.68	211.65
1002.97	211.79
1003.26	211.74
1003.55	211.67
1003.84	211.63
1004.13	211.68
1004.42	211.63
1004.71	211.63
1004.99	211.54
1005.28	211.67
1005.57	211.65
1005.86	211.58
1006.15	211.49
1006.44	211.46
1006.72	211.44
1007.01	211.50
1007.30	211.45
1007.59	211.38
1007.88	211.37
1008.17	211.44
1008.45	211.49
1008.74	211.38
1009.03	211.30
1009.32	211.30
1009.60	211.31
1009.89	211.35
1010.18	211.25
1010.47	211.37
1010.76	211.31
1011.04	211.33
1011.33	211.23
1011.62	211.15
1011.91	211.19
1012.19	211.19
1012.48	211.11
1012.77	211.12
1013.05	211.07
1013.34	211.09
1013.63	211.10
1013.92	211.11
1014.20	211.05
1014.49	211.10
1014.78	211.21
1015.06	211.17
1015.35	211.18
1015.64	211.27
1015.92	211.31
1016.21	211.30
1016.50	211.27
1016.78	211.33
1017.07	211.36
1017.36	211.40
1017.64	211.42
1017.93	211.41
1018.22	211.38
1018.50	211.43
1018.79	211.46
1019.08	211.47
1019.36	211.43
1019.65	211.36
1019.93	211.40
1020.22	211.47
1020.51	211.54
1020.79	211.52
1021.08	210.60
1021.36	210.90
1021.65	211.90
1021.94	211.45
1022.22	210.15
1022.51	209.75
1022.79	212.45
1023.08	211.90
1023.36	214.55
1023.65	211.95
>>>>>End Processed Spectral Data<<<<<
