SpectraSuite Data File
++++++++++++++++++++++++++++++++++++
Date: Mon Feb 25 17:34:25 EST 2013
User: group
Dark Spectrum Present: No
Reference Spectrum Present: No
Number of Sampled Component Spectra: 1
Spectrometers: USB2E7196
Integration Time (usec): 52000 (USB2E7196)
Spectra Averaged: 20 (USB2E7196)
Boxcar Smoothing: 10 (USB2E7196)
Correct for Electrical Dark: No (USB2E7196)
Strobe/Lamp Enabled: No (USB2E7196)
Correct for Detector Non-linearity: No (USB2E7196)
Correct for Stray Light: No (USB2E7196)
Number of Pixels in Processed Spectrum: 2048
>>>>>Begin Processed Spectral Data<<<<<
339.09	0.00
339.48	198.75
339.86	200.65
340.24	199.75
340.63	203.25
341.01	206.40
341.39	205.30
341.78	206.40
342.16	208.95
342.54	207.15
342.93	197.85
343.31	207.93
343.69	208.51
344.07	208.97
344.46	209.52
344.84	209.87
345.22	210.10
345.60	210.40
345.99	210.56
346.37	210.71
346.75	210.95
347.13	211.02
347.52	211.12
347.90	211.28
348.28	211.30
348.66	211.34
349.05	211.33
349.43	211.41
349.81	211.51
350.19	211.61
350.57	211.75
350.96	211.91
351.34	212.01
351.72	212.14
352.10	212.24
352.48	212.29
352.87	212.42
353.25	212.48
353.63	212.59
354.01	212.74
354.39	212.78
354.77	212.80
355.15	212.95
355.54	213.04
355.92	212.96
356.30	213.16
356.68	213.38
357.06	213.43
357.44	213.51
357.82	213.58
358.20	213.60
358.58	213.62
358.97	213.71
359.35	213.80
359.73	213.87
360.11	213.94
360.49	213.94
360.87	214.04
361.25	214.08
361.63	214.07
362.01	214.18
362.39	214.20
362.77	214.30
363.15	214.35
363.53	214.34
363.91	214.42
364.29	214.37
364.67	214.23
365.05	214.30
365.43	214.34
365.81	214.35
366.19	214.47
366.57	214.62
366.95	214.56
367.33	214.50
367.71	214.55
368.09	214.54
368.47	214.68
368.85	214.62
369.23	214.69
369.61	214.66
369.99	214.69
370.37	214.74
370.75	214.75
371.13	214.72
371.51	214.74
371.89	214.67
372.27	214.59
372.65	214.52
373.03	214.51
373.41	214.42
373.78	214.36
374.16	214.23
374.54	214.08
374.92	214.04
375.30	213.94
375.68	213.73
376.06	213.76
376.44	213.65
376.82	213.57
377.19	213.48
377.57	213.41
377.95	213.30
378.33	213.20
378.71	213.10
379.09	212.96
379.47	212.93
379.84	212.89
380.22	212.90
380.60	212.85
380.98	212.72
381.36	212.72
381.73	212.65
382.11	212.67
382.49	212.67
382.87	212.56
383.25	212.52
383.62	212.70
384.00	212.56
384.38	212.62
384.76	212.64
385.13	212.67
385.51	212.68
385.89	212.59
386.27	212.62
386.64	212.60
387.02	212.64
387.40	212.58
387.78	212.52
388.15	212.46
388.53	212.40
388.91	212.41
389.29	212.38
389.66	212.35
390.04	212.30
390.42	212.28
390.79	212.31
391.17	212.31
391.55	212.12
391.92	212.13
392.30	212.03
392.68	211.93
393.05	211.91
393.43	211.89
393.81	211.92
394.18	211.80
394.56	211.84
394.94	211.87
395.31	211.85
395.69	211.89
396.06	211.92
396.44	211.91
396.82	211.94
397.19	211.96
397.57	212.00
397.95	212.00
398.32	212.03
398.70	212.05
399.07	212.12
399.45	212.16
399.82	212.23
400.20	212.24
400.58	212.33
400.95	212.31
401.33	212.41
401.70	212.53
402.08	212.61
402.45	212.63
402.83	212.66
403.20	212.66
403.58	212.76
403.95	212.90
404.33	213.07
404.71	213.12
405.08	213.35
405.46	213.45
405.83	213.57
406.21	213.68
406.58	213.81
406.96	213.91
407.33	214.08
407.70	214.22
408.08	214.57
408.45	214.76
408.83	215.08
409.20	215.24
409.58	215.47
409.95	215.81
410.33	216.03
410.70	216.32
411.08	216.78
411.45	217.10
411.82	217.44
412.20	217.85
412.57	218.39
412.95	218.67
413.32	219.15
413.69	219.70
414.07	220.29
414.44	220.97
414.82	221.64
415.19	222.42
415.56	223.21
415.94	223.86
416.31	224.76
416.68	225.51
417.06	226.57
417.43	227.49
417.81	228.54
418.18	229.78
418.55	230.99
418.93	232.25
419.30	233.57
419.67	234.97
420.04	236.37
420.42	237.84
420.79	239.69
421.16	241.47
421.54	243.36
421.91	245.11
422.28	246.96
422.66	249.03
423.03	250.99
423.40	253.03
423.77	255.36
424.15	257.56
424.52	259.95
424.89	262.46
425.26	264.86
425.64	267.19
426.01	269.74
426.38	272.46
426.75	275.20
427.13	278.05
427.50	280.99
427.87	284.02
428.24	287.03
428.61	289.90
428.99	293.20
429.36	296.70
429.73	300.23
430.10	303.82
430.47	307.37
430.85	311.10
431.22	315.06
431.59	319.14
431.96	323.08
432.33	327.49
432.70	331.75
433.08	336.73
433.45	341.47
433.82	346.06
434.19	351.13
434.56	356.16
434.93	360.99
435.30	365.79
435.68	371.20
436.05	376.46
436.42	381.67
436.79	386.34
437.16	391.42
437.53	396.85
437.90	402.08
438.27	407.35
438.64	412.74
439.01	417.78
439.38	422.04
439.75	426.44
440.13	431.36
440.50	435.83
440.87	439.54
441.24	443.36
441.61	447.66
441.98	450.93
442.35	454.50
442.72	458.15
443.09	461.75
443.46	463.78
443.83	465.17
444.20	466.32
444.57	468.10
444.94	468.84
445.31	469.61
445.68	470.42
446.05	470.62
446.42	469.87
446.79	469.02
447.16	468.27
447.53	467.54
447.90	465.34
448.27	463.19
448.64	460.32
449.01	458.23
449.37	454.61
449.74	451.00
450.11	446.82
450.48	442.29
450.85	437.57
451.22	433.51
451.59	429.72
451.96	426.04
452.33	421.22
452.70	416.83
453.07	411.57
453.43	406.26
453.80	401.15
454.17	396.33
454.54	391.77
454.91	386.99
455.28	382.31
455.65	377.91
456.02	373.74
456.38	369.93
456.75	365.22
457.12	361.30
457.49	357.39
457.86	353.64
458.23	350.42
458.59	346.88
458.96	343.48
459.33	340.30
459.70	337.28
460.07	334.71
460.43	331.74
460.80	329.05
461.17	326.69
461.54	324.23
461.91	321.98
462.27	319.67
462.64	317.54
463.01	315.23
463.38	313.12
463.74	310.81
464.11	308.89
464.48	307.26
464.85	305.43
465.21	304.06
465.58	302.60
465.95	300.82
466.32	299.46
466.68	297.98
467.05	296.66
467.42	295.25
467.78	293.86
468.15	292.63
468.52	291.57
468.88	290.16
469.25	289.01
469.62	288.03
469.98	286.92
470.35	285.98
470.72	285.13
471.08	284.10
471.45	283.34
471.82	282.60
472.18	281.72
472.55	281.12
472.92	280.39
473.28	279.87
473.65	279.37
474.02	278.85
474.38	278.47
474.75	278.05
475.11	277.59
475.48	277.32
475.85	277.08
476.21	276.93
476.58	276.85
476.94	276.80
477.31	276.65
477.67	276.63
478.04	276.68
478.41	276.81
478.77	277.19
479.14	277.37
479.50	277.68
479.87	278.10
480.23	278.53
480.60	278.91
480.96	279.26
481.33	279.85
481.69	280.39
482.06	281.05
482.42	281.75
482.79	282.48
483.15	283.29
483.52	284.31
483.88	285.30
484.25	286.33
484.61	287.46
484.98	288.68
485.34	289.99
485.71	291.33
486.07	292.70
486.44	293.96
486.80	295.48
487.17	297.13
487.53	298.83
487.90	300.67
488.26	302.62
488.62	304.71
488.99	306.76
489.35	308.89
489.72	311.16
490.08	313.57
490.44	316.10
490.81	318.73
491.17	321.36
491.54	324.21
491.90	327.24
492.26	330.37
492.63	333.70
492.99	337.15
493.36	340.87
493.72	344.76
494.08	348.84
494.45	353.06
494.81	357.54
495.17	362.04
495.54	366.89
495.90	372.09
496.26	377.28
496.63	382.72
496.99	388.50
497.35	394.48
497.72	400.76
498.08	407.34
498.44	414.03
498.80	421.20
499.17	428.62
499.53	436.36
499.89	444.34
500.26	452.43
500.62	460.79
500.98	469.67
501.34	478.82
501.71	488.26
502.07	497.95
502.43	507.89
502.79	518.22
503.16	528.82
503.52	539.62
503.88	550.87
504.24	562.51
504.60	574.36
504.97	586.67
505.33	599.33
505.69	612.59
506.05	626.20
506.41	639.81
506.78	653.74
507.14	667.83
507.50	682.54
507.86	697.56
508.22	713.16
508.59	728.64
508.95	744.68
509.31	760.90
509.67	777.54
510.03	794.54
510.39	812.02
510.75	830.02
511.12	848.17
511.48	866.61
511.84	885.37
512.20	904.19
512.56	923.64
512.92	943.11
513.28	962.77
513.64	982.60
514.00	1002.67
514.37	1022.92
514.73	1043.81
515.09	1064.73
515.45	1085.68
515.81	1106.93
516.17	1128.42
516.53	1149.58
516.89	1171.19
517.25	1193.05
517.61	1214.54
517.97	1236.14
518.33	1257.52
518.69	1279.42
519.05	1301.62
519.41	1324.05
519.77	1346.76
520.13	1368.97
520.49	1391.07
520.85	1413.71
521.21	1436.41
521.57	1459.16
521.93	1481.27
522.29	1504.05
522.65	1526.45
523.01	1549.12
523.37	1571.06
523.73	1593.57
524.09	1616.08
524.45	1638.50
524.81	1660.68
525.17	1683.33
525.53	1706.06
525.89	1728.91
526.25	1751.26
526.61	1772.34
526.97	1794.10
527.33	1815.60
527.68	1837.07
528.04	1858.35
528.40	1878.78
528.76	1899.49
529.12	1920.68
529.48	1942.77
529.84	1963.25
530.20	1983.83
530.56	2004.23
530.91	2025.28
531.27	2045.47
531.63	2066.01
531.99	2085.82
532.35	2105.48
532.71	2124.83
533.07	2144.34
533.42	2162.56
533.78	2181.29
534.14	2200.48
534.50	2217.95
534.86	2236.24
535.21	2253.29
535.57	2271.33
535.93	2288.79
536.29	2305.82
536.65	2322.27
537.00	2337.46
537.36	2353.19
537.72	2368.65
538.08	2384.37
538.44	2399.88
538.79	2415.56
539.15	2430.19
539.51	2445.35
539.87	2460.59
540.22	2475.50
540.58	2490.48
540.94	2505.35
541.29	2518.40
541.65	2530.56
542.01	2543.87
542.37	2555.72
542.72	2567.90
543.08	2579.14
543.44	2591.34
543.79	2601.82
544.15	2612.30
544.51	2623.57
544.87	2634.52
545.22	2643.88
545.58	2652.53
545.94	2659.84
546.29	2666.31
546.65	2672.97
547.01	2679.09
547.36	2684.95
547.72	2690.43
548.07	2694.77
548.43	2698.75
548.79	2702.95
549.14	2707.90
549.50	2712.30
549.86	2716.56
550.21	2720.82
550.57	2724.98
550.92	2727.54
551.28	2730.15
551.64	2732.83
551.99	2735.42
552.35	2736.80
552.70	2739.64
553.06	2742.57
553.41	2745.68
553.77	2748.91
554.13	2751.27
554.48	2753.40
554.84	2754.93
555.19	2755.72
555.55	2756.01
555.90	2756.33
556.26	2756.83
556.61	2756.89
556.97	2755.45
557.32	2754.86
557.68	2753.24
558.03	2751.43
558.39	2750.28
558.74	2750.29
559.10	2749.26
559.45	2747.59
559.81	2746.87
560.16	2744.29
560.52	2741.47
560.87	2738.72
561.23	2734.95
561.58	2732.77
561.94	2729.57
562.29	2725.87
562.64	2723.67
563.00	2721.12
563.35	2719.56
563.71	2717.96
564.06	2715.58
564.42	2713.95
564.77	2711.66
565.12	2710.02
565.48	2707.37
565.83	2704.24
566.19	2700.62
566.54	2696.08
566.89	2692.04
567.25	2687.93
567.60	2684.79
567.96	2681.23
568.31	2677.61
568.66	2673.82
569.02	2668.96
569.37	2663.80
569.72	2659.91
570.08	2654.52
570.43	2649.13
570.78	2642.90
571.14	2636.16
571.49	2629.74
571.84	2623.65
572.20	2616.81
572.55	2610.05
572.90	2603.00
573.26	2595.87
573.61	2588.74
573.96	2582.40
574.31	2574.98
574.67	2567.14
575.02	2558.56
575.37	2550.17
575.72	2541.00
576.08	2533.56
576.43	2524.57
576.78	2516.79
577.13	2508.77
577.49	2500.31
577.84	2492.72
578.19	2485.10
578.54	2478.30
578.90	2471.38
579.25	2462.89
579.60	2453.67
579.95	2444.47
580.30	2436.49
580.66	2428.50
581.01	2419.44
581.36	2410.09
581.71	2401.24
582.06	2392.67
582.42	2384.16
582.77	2374.76
583.12	2366.00
583.47	2357.15
583.82	2349.16
584.17	2340.14
584.53	2330.92
584.88	2322.13
585.23	2312.80
585.58	2302.99
585.93	2292.54
586.28	2283.13
586.63	2274.00
586.98	2265.67
587.34	2257.05
587.69	2247.57
588.04	2237.92
588.39	2229.55
588.74	2220.58
589.09	2211.85
589.44	2202.04
589.79	2193.85
590.14	2185.99
590.49	2177.49
590.84	2168.08
591.19	2159.54
591.54	2150.57
591.89	2140.30
592.25	2130.96
592.60	2121.38
592.95	2112.30
593.30	2102.92
593.65	2092.95
594.00	2083.10
594.35	2074.81
594.70	2065.49
595.05	2056.70
595.40	2048.21
595.75	2038.46
596.10	2030.15
596.45	2021.71
596.80	2013.89
597.15	2005.09
597.50	1995.79
597.85	1987.09
598.19	1978.54
598.54	1970.23
598.89	1962.42
599.24	1955.99
599.59	1948.62
599.94	1941.39
600.29	1933.41
600.64	1925.48
600.99	1916.90
601.34	1909.52
601.69	1900.63
602.04	1892.71
602.39	1884.70
602.74	1876.73
603.08	1870.09
603.43	1862.77
603.78	1854.56
604.13	1846.70
604.48	1838.71
604.83	1831.89
605.18	1825.05
605.53	1817.40
605.87	1809.53
606.22	1802.30
606.57	1793.90
606.92	1785.69
607.27	1777.58
607.62	1770.26
607.96	1763.45
608.31	1757.45
608.66	1749.86
609.01	1742.06
609.36	1734.20
609.70	1726.02
610.05	1717.91
610.40	1709.54
610.75	1701.11
611.10	1693.21
611.44	1683.80
611.79	1674.75
612.14	1665.32
612.49	1655.53
612.83	1646.81
613.18	1636.98
613.53	1627.18
613.88	1617.56
614.22	1608.37
614.57	1598.82
614.92	1589.30
615.27	1579.72
615.61	1569.84
615.96	1560.76
616.31	1552.21
616.65	1544.35
617.00	1536.27
617.35	1527.75
617.70	1518.68
618.04	1509.56
618.39	1500.05
618.74	1491.57
619.08	1482.67
619.43	1474.41
619.78	1466.53
620.12	1458.08
620.47	1450.55
620.82	1441.90
621.16	1433.70
621.51	1425.34
621.85	1417.29
622.20	1408.80
622.55	1400.13
622.89	1391.78
623.24	1383.82
623.59	1375.09
623.93	1366.23
624.28	1357.80
624.62	1349.59
624.97	1341.44
625.32	1333.35
625.66	1326.11
626.01	1318.85
626.35	1311.78
626.70	1303.86
627.04	1296.25
627.39	1288.51
627.73	1280.55
628.08	1274.10
628.43	1266.53
628.77	1259.15
629.12	1251.56
629.46	1244.80
629.81	1237.83
630.15	1230.49
630.50	1222.73
630.84	1215.45
631.19	1208.23
631.53	1201.18
631.88	1193.23
632.22	1185.71
632.57	1178.90
632.91	1171.43
633.26	1163.73
633.60	1156.58
633.95	1149.90
634.29	1142.55
634.64	1136.07
634.98	1129.04
635.32	1121.60
635.67	1115.20
636.01	1108.51
636.36	1102.01
636.70	1095.34
637.05	1088.52
637.39	1082.14
637.73	1075.85
638.08	1069.94
638.42	1064.01
638.77	1057.40
639.11	1051.30
639.45	1045.14
639.80	1038.37
640.14	1031.72
640.49	1025.50
640.83	1018.97
641.17	1012.39
641.52	1006.31
641.86	999.54
642.20	993.13
642.55	986.48
642.89	979.93
643.23	973.57
643.58	967.34
643.92	960.86
644.26	954.69
644.61	948.36
644.95	942.40
645.29	936.06
645.64	929.45
645.98	923.33
646.32	917.55
646.66	911.50
647.01	905.52
647.35	899.67
647.69	893.54
648.04	887.63
648.38	881.66
648.72	875.50
649.06	869.44
649.41	863.53
649.75	857.74
650.09	851.89
650.43	845.75
650.78	839.70
651.12	833.44
651.46	827.60
651.80	821.63
652.14	815.55
652.49	809.45
652.83	803.63
653.17	797.47
653.51	791.44
653.85	785.70
654.20	779.75
654.54	773.94
654.88	768.51
655.22	762.60
655.56	756.50
655.90	750.59
656.25	744.95
656.59	739.28
656.93	733.92
657.27	728.73
657.61	723.36
657.95	718.08
658.29	712.93
658.64	707.86
658.98	702.73
659.32	697.20
659.66	692.18
660.00	686.66
660.34	681.54
660.68	676.50
661.02	671.47
661.36	666.93
661.70	662.21
662.05	657.33
662.39	652.89
662.73	648.64
663.07	644.35
663.41	640.06
663.75	635.69
664.09	631.00
664.43	626.23
664.77	621.77
665.11	617.20
665.45	612.88
665.79	608.38
666.13	603.91
666.47	599.78
666.81	595.57
667.15	591.60
667.49	587.74
667.83	583.74
668.17	579.78
668.51	575.77
668.85	572.00
669.19	568.28
669.53	564.32
669.87	560.25
670.21	556.34
670.55	552.37
670.89	548.85
671.23	545.37
671.57	541.89
671.91	538.26
672.25	534.67
672.58	531.17
672.92	527.58
673.26	524.49
673.60	521.27
673.94	517.83
674.28	514.56
674.62	511.32
674.96	508.00
675.30	504.80
675.64	501.60
675.97	498.28
676.31	495.24
676.65	492.34
676.99	489.60
677.33	486.69
677.67	483.70
678.01	480.60
678.34	477.63
678.68	474.59
679.02	471.74
679.36	468.98
679.70	466.21
680.04	463.47
680.37	460.36
680.71	457.55
681.05	454.91
681.39	452.12
681.73	449.52
682.06	447.07
682.40	444.49
682.74	441.88
683.08	439.36
683.42	436.71
683.75	434.12
684.09	431.56
684.43	428.94
684.77	426.49
685.10	423.90
685.44	421.31
685.78	418.85
686.12	416.49
686.45	414.10
686.79	411.82
687.13	409.65
687.46	407.58
687.80	405.42
688.14	403.18
688.48	401.11
688.81	398.78
689.15	396.52
689.49	394.25
689.82	392.04
690.16	389.75
690.50	387.43
690.83	385.14
691.17	382.90
691.51	380.73
691.84	378.63
692.18	376.64
692.52	374.72
692.85	372.86
693.19	370.99
693.52	368.94
693.86	366.86
694.20	364.93
694.53	362.98
694.87	360.86
695.21	358.86
695.54	356.91
695.88	355.00
696.21	353.15
696.55	351.39
696.88	349.51
697.22	347.76
697.56	346.24
697.89	344.54
698.23	342.90
698.56	341.23
698.90	339.62
699.23	337.94
699.57	336.32
699.90	334.56
700.24	332.80
700.58	331.30
700.91	329.74
701.25	328.18
701.58	326.70
701.92	325.31
702.25	323.85
702.59	322.49
702.92	321.12
703.26	319.75
703.59	318.45
703.93	317.41
704.26	316.14
704.60	314.75
704.93	313.53
705.26	312.23
705.60	311.11
705.93	309.81
706.27	308.66
706.60	307.62
706.94	306.60
707.27	305.53
707.61	304.40
707.94	303.27
708.27	302.09
708.61	300.92
708.94	299.79
709.28	298.75
709.61	297.58
709.94	296.45
710.28	295.37
710.61	294.31
710.95	293.00
711.28	292.05
711.61	290.98
711.95	289.96
712.28	288.90
712.61	287.85
712.95	286.98
713.28	286.07
713.61	284.98
713.95	283.95
714.28	283.08
714.61	282.11
714.95	281.18
715.28	280.26
715.61	279.30
715.95	278.40
716.28	277.50
716.61	276.68
716.95	275.86
717.28	274.94
717.61	274.13
717.94	273.39
718.28	272.54
718.61	271.78
718.94	271.02
719.27	270.28
719.61	269.50
719.94	268.75
720.27	267.94
720.60	267.21
720.94	266.50
721.27	265.73
721.60	265.07
721.93	264.47
722.27	263.99
722.60	263.45
722.93	262.84
723.26	262.20
723.59	261.53
723.93	261.00
724.26	260.50
724.59	259.89
724.92	259.36
725.25	258.80
725.59	258.24
725.92	257.76
726.25	257.25
726.58	256.79
726.91	256.24
727.24	255.77
727.57	255.30
727.91	254.84
728.24	254.37
728.57	254.02
728.90	253.57
729.23	252.94
729.56	252.53
729.89	252.03
730.22	251.65
730.55	251.20
730.89	250.70
731.22	250.20
731.55	249.74
731.88	249.29
732.21	248.86
732.54	248.45
732.87	248.00
733.20	247.64
733.53	247.29
733.86	246.88
734.19	246.50
734.52	246.20
734.85	245.89
735.18	245.55
735.51	245.15
735.84	244.75
736.17	244.41
736.50	243.90
736.83	243.78
737.16	243.36
737.49	243.03
737.82	242.66
738.15	242.31
738.48	242.01
738.81	241.72
739.14	241.31
739.47	240.91
739.80	240.48
740.13	240.11
740.46	239.61
740.79	239.27
741.12	238.93
741.45	238.49
741.78	238.12
742.11	237.81
742.44	237.36
742.77	237.11
743.10	236.80
743.43	236.56
743.75	236.05
744.08	235.93
744.41	235.62
744.74	235.30
745.07	235.00
745.40	234.71
745.73	234.47
746.06	234.22
746.39	234.01
746.71	233.75
747.04	233.41
747.37	233.22
747.70	232.96
748.03	232.73
748.36	232.50
748.68	232.24
749.01	231.92
749.34	231.74
749.67	231.43
750.00	231.21
750.33	231.14
750.65	230.93
750.98	230.52
751.31	230.26
751.64	230.00
751.97	229.91
752.29	229.65
752.62	229.31
752.95	229.06
753.28	228.78
753.60	228.57
753.93	228.44
754.26	228.24
754.59	228.04
754.91	227.77
755.24	227.53
755.57	227.26
755.90	227.09
756.22	226.82
756.55	226.60
756.88	226.27
757.20	225.86
757.53	225.64
757.86	225.40
758.19	225.27
758.51	225.15
758.84	224.88
759.17	224.66
759.49	224.61
759.82	224.54
760.15	224.42
760.47	224.27
760.80	224.14
761.13	223.95
761.45	223.72
761.78	223.55
762.11	223.42
762.43	223.26
762.76	223.11
763.08	222.98
763.41	222.94
763.74	222.87
764.06	222.75
764.39	222.57
764.71	222.49
765.04	222.25
765.37	222.06
765.69	221.93
766.02	221.78
766.34	221.58
766.67	221.46
767.00	221.37
767.32	221.34
767.65	221.24
767.97	221.16
768.30	221.14
768.62	221.03
768.95	220.87
769.27	220.81
769.60	220.67
769.92	220.62
770.25	220.44
770.57	220.31
770.90	220.24
771.22	220.07
771.55	219.93
771.87	219.92
772.20	219.81
772.52	219.86
772.85	220.06
773.17	219.90
773.50	219.65
773.82	219.55
774.15	219.35
774.47	219.20
774.80	219.06
775.12	218.92
775.45	218.84
775.77	218.79
776.09	218.77
776.42	218.68
776.74	218.63
777.07	218.51
777.39	218.40
777.72	218.25
778.04	218.27
778.36	218.24
778.69	218.15
779.01	218.07
779.33	217.87
779.66	217.67
779.98	217.58
780.31	217.60
780.63	217.51
780.95	217.44
781.28	217.40
781.60	217.28
781.92	217.17
782.25	217.04
782.57	216.91
782.89	216.72
783.22	216.63
783.54	216.49
783.86	216.37
784.19	216.31
784.51	216.37
784.83	216.24
785.16	216.24
785.48	216.16
785.80	216.15
786.12	216.08
786.45	215.92
786.77	215.95
787.09	215.88
787.42	215.79
787.74	215.78
788.06	215.65
788.38	215.62
788.71	215.57
789.03	215.58
789.35	215.55
789.67	215.55
789.99	215.56
790.32	215.48
790.64	215.55
790.96	215.65
791.28	215.45
791.61	215.43
791.93	215.26
792.25	215.21
792.57	215.24
792.89	215.20
793.21	215.17
793.54	215.07
793.86	214.99
794.18	214.96
794.50	214.85
794.82	214.82
795.14	214.78
795.47	214.72
795.79	214.63
796.11	214.60
796.43	214.54
796.75	214.49
797.07	214.46
797.39	214.47
797.71	214.31
798.04	214.35
798.36	214.33
798.68	214.37
799.00	214.39
799.32	214.28
799.64	214.23
799.96	214.22
800.28	214.23
800.60	214.17
800.92	214.15
801.24	214.15
801.56	214.14
801.89	214.14
802.21	214.22
802.53	214.23
802.85	214.30
803.17	214.30
803.49	214.22
803.81	214.26
804.13	214.20
804.45	214.18
804.77	214.16
805.09	214.11
805.41	213.99
805.73	213.92
806.05	213.90
806.37	213.93
806.69	213.88
807.01	213.88
807.33	213.90
807.65	213.84
807.97	213.92
808.28	213.92
808.60	213.89
808.92	213.82
809.24	213.91
809.56	213.80
809.88	213.81
810.20	213.82
810.52	213.75
810.84	213.70
811.16	213.70
811.48	213.67
811.80	213.70
812.12	213.71
812.43	213.73
812.75	213.77
813.07	213.70
813.39	213.65
813.71	213.59
814.03	213.61
814.35	213.57
814.67	213.52
814.98	213.42
815.30	213.33
815.62	213.32
815.94	213.14
816.26	213.14
816.58	213.07
816.89	213.06
817.21	213.04
817.53	213.06
817.85	213.02
818.17	212.96
818.48	212.89
818.80	212.94
819.12	212.96
819.44	212.83
819.76	212.81
820.07	212.78
820.39	212.80
820.71	212.76
821.03	212.75
821.34	212.68
821.66	212.81
821.98	212.89
822.30	212.84
822.61	212.91
822.93	212.83
823.25	212.81
823.57	212.75
823.88	212.72
824.20	212.70
824.52	212.77
824.83	212.83
825.15	212.80
825.47	212.73
825.79	212.68
826.10	212.72
826.42	212.72
826.74	212.83
827.05	212.75
827.37	212.81
827.69	212.81
828.00	212.82
828.32	212.82
828.64	212.77
828.95	212.96
829.27	212.93
829.58	212.94
829.90	213.01
830.22	213.08
830.53	213.08
830.85	213.02
831.17	212.95
831.48	212.97
831.80	213.01
832.11	213.12
832.43	213.09
832.75	213.06
833.06	213.13
833.38	213.02
833.69	213.05
834.01	212.94
834.32	212.93
834.64	212.86
834.96	212.80
835.27	212.83
835.59	212.64
835.90	212.64
836.22	212.68
836.53	212.56
836.85	212.50
837.16	212.66
837.48	212.65
837.79	212.67
838.11	212.56
838.42	212.56
838.74	212.48
839.05	212.45
839.37	212.46
839.68	212.34
840.00	212.25
840.31	212.25
840.63	212.24
840.94	212.26
841.26	212.23
841.57	212.20
841.88	212.19
842.20	212.17
842.51	212.05
842.83	212.04
843.14	212.20
843.46	212.20
843.77	212.18
844.08	212.15
844.40	212.11
844.71	212.08
845.03	212.00
845.34	212.06
845.65	212.05
845.97	212.06
846.28	212.06
846.60	212.10
846.91	212.05
847.22	212.03
847.54	212.03
847.85	212.10
848.16	212.06
848.48	212.02
848.79	212.10
849.10	212.23
849.42	212.21
849.73	212.05
850.04	211.97
850.36	211.83
850.67	211.92
850.98	211.87
851.30	211.97
851.61	212.00
851.92	211.90
852.23	211.95
852.55	211.88
852.86	211.85
853.17	211.86
853.49	211.94
853.80	211.98
854.11	211.98
854.42	211.97
854.74	211.93
855.05	211.91
855.36	211.79
855.67	211.67
855.99	211.69
856.30	211.90
856.61	211.98
856.92	211.96
857.23	211.91
857.55	211.90
857.86	211.78
858.17	211.79
858.48	211.80
858.79	211.81
859.11	211.87
859.42	211.88
859.73	211.85
860.04	211.77
860.35	211.72
860.66	211.63
860.98	211.59
861.29	211.64
861.60	211.65
861.91	211.72
862.22	211.70
862.53	211.63
862.84	211.46
863.16	211.50
863.47	211.47
863.78	211.49
864.09	211.53
864.40	211.70
864.71	211.70
865.02	211.67
865.33	211.60
865.64	211.61
865.95	211.61
866.27	211.70
866.58	211.73
866.89	211.77
867.20	211.78
867.51	211.80
867.82	211.76
868.13	211.79
868.44	211.69
868.75	211.80
869.06	211.84
869.37	211.82
869.68	211.74
869.99	211.74
870.30	211.68
870.61	211.67
870.92	211.52
871.23	211.54
871.54	211.57
871.85	211.61
872.16	211.66
872.47	211.70
872.78	211.55
873.09	211.57
873.40	211.50
873.71	211.55
874.02	211.54
874.33	211.52
874.64	211.54
874.95	211.64
875.26	211.63
875.56	211.62
875.87	211.63
876.18	211.65
876.49	211.88
876.80	211.94
877.11	211.95
877.42	211.99
877.73	211.89
878.04	211.93
878.35	211.95
878.66	211.84
878.96	211.84
879.27	211.94
879.58	211.85
879.89	211.88
880.20	211.91
880.51	211.85
880.82	211.88
881.12	211.82
881.43	211.75
881.74	211.69
882.05	211.69
882.36	211.62
882.67	211.58
882.97	211.36
883.28	211.31
883.59	211.34
883.90	211.41
884.21	211.49
884.51	211.44
884.82	211.36
885.13	211.41
885.44	211.32
885.74	211.23
886.05	211.28
886.36	211.29
886.67	211.27
886.98	211.38
887.28	211.35
887.59	211.33
887.90	211.36
888.20	211.40
888.51	211.40
888.82	211.45
889.13	211.48
889.43	211.61
889.74	211.63
890.05	211.58
890.35	211.57
890.66	211.55
890.97	211.56
891.28	211.64
891.58	211.55
891.89	211.61
892.20	211.69
892.50	211.68
892.81	211.65
893.12	211.59
893.42	211.56
893.73	211.61
894.04	211.62
894.34	211.62
894.65	211.56
894.95	211.55
895.26	211.55
895.57	211.56
895.87	211.40
896.18	211.38
896.48	211.34
896.79	211.31
897.10	211.34
897.40	211.35
897.71	211.19
898.01	211.24
898.32	211.23
898.63	211.16
898.93	211.21
899.24	211.26
899.54	211.28
899.85	211.27
900.15	211.26
900.46	211.24
900.76	211.26
901.07	211.36
901.38	211.35
901.68	211.34
901.99	211.35
902.29	211.44
902.60	211.43
902.90	211.44
903.21	211.40
903.51	211.37
903.82	211.39
904.12	211.46
904.43	211.46
904.73	211.49
905.03	211.53
905.34	211.61
905.64	211.57
905.95	211.53
906.25	211.54
906.56	211.58
906.86	211.64
907.17	211.61
907.47	211.55
907.77	211.56
908.08	211.53
908.38	211.52
908.69	211.47
908.99	211.61
909.30	211.59
909.60	211.65
909.90	211.65
910.21	211.57
910.51	211.57
910.81	211.62
911.12	211.62
911.42	211.64
911.73	211.55
912.03	211.56
912.33	211.63
912.64	211.60
912.94	211.50
913.24	211.43
913.55	211.48
913.85	211.45
914.15	211.47
914.46	211.50
914.76	211.49
915.06	211.46
915.37	211.34
915.67	211.35
915.97	211.31
916.27	211.26
916.58	211.27
916.88	211.26
917.18	211.24
917.49	211.31
917.79	211.35
918.09	211.32
918.39	211.35
918.70	211.25
919.00	211.24
919.30	211.31
919.60	211.28
919.91	211.22
920.21	211.20
920.51	211.15
920.81	211.21
921.12	211.25
921.42	211.32
921.72	211.33
922.02	211.27
922.32	211.23
922.63	211.24
922.93	211.36
923.23	211.42
923.53	211.39
923.83	211.27
924.13	211.24
924.44	211.23
924.74	211.25
925.04	211.33
925.34	211.29
925.64	211.26
925.94	211.25
926.24	211.32
926.55	211.30
926.85	211.30
927.15	211.21
927.45	211.14
927.75	211.10
928.05	211.06
928.35	211.12
928.65	211.20
928.95	211.15
929.26	211.09
929.56	211.05
929.86	211.08
930.16	211.09
930.46	211.04
930.76	211.00
931.06	210.94
931.36	210.88
931.66	210.96
931.96	210.96
932.26	211.06
932.56	211.03
932.86	211.09
933.16	211.03
933.46	211.05
933.76	210.99
934.06	210.95
934.36	211.04
934.66	211.01
934.96	210.92
935.26	210.94
935.56	210.87
935.86	210.85
936.16	210.79
936.46	210.74
936.76	210.68
937.06	210.71
937.36	210.69
937.66	210.76
937.96	210.62
938.26	210.56
938.56	210.48
938.86	210.51
939.16	210.51
939.46	210.62
939.76	210.62
940.06	210.70
940.35	210.72
940.65	210.60
940.95	210.56
941.25	210.61
941.55	210.60
941.85	210.60
942.15	210.60
942.45	210.65
942.75	210.69
943.04	210.79
943.34	210.81
943.64	210.83
943.94	210.76
944.24	210.90
944.54	210.86
944.84	210.90
945.13	210.78
945.43	210.76
945.73	210.71
946.03	210.63
946.33	210.65
946.62	210.60
946.92	210.64
947.22	210.67
947.52	210.63
947.82	210.75
948.11	210.78
948.41	210.77
948.71	210.71
949.01	210.67
949.31	210.64
949.60	210.59
949.90	210.57
950.20	210.60
950.50	210.54
950.79	210.57
951.09	210.53
951.39	210.54
951.69	210.50
951.98	210.55
952.28	210.60
952.58	210.57
952.87	210.66
953.17	210.62
953.47	210.60
953.76	210.66
954.06	210.47
954.36	210.50
954.66	210.48
954.95	210.51
955.25	210.52
955.55	210.50
955.84	210.47
956.14	210.52
956.44	210.49
956.73	210.42
957.03	210.46
957.32	210.51
957.62	210.52
957.92	210.52
958.21	210.49
958.51	210.69
958.81	210.78
959.10	210.75
959.40	210.76
959.69	210.80
959.99	210.83
960.29	210.90
960.58	210.79
960.88	210.93
961.17	210.94
961.47	211.02
961.76	211.01
962.06	211.11
962.36	211.06
962.65	211.06
962.95	211.09
963.24	211.13
963.54	211.08
963.83	211.04
964.13	211.09
964.42	211.07
964.72	210.92
965.01	210.85
965.31	210.84
965.60	210.85
965.90	210.92
966.19	210.89
966.49	210.92
966.78	211.04
967.08	210.95
967.37	210.98
967.67	210.88
967.96	210.90
968.26	210.86
968.55	210.90
968.85	210.99
969.14	211.05
969.43	211.01
969.73	211.05
970.02	211.15
970.32	211.12
970.61	211.09
970.91	211.04
971.20	211.04
971.49	211.01
971.79	211.06
972.08	210.96
972.38	210.94
972.67	210.89
972.96	210.80
973.26	210.76
973.55	210.79
973.85	210.82
974.14	210.77
974.43	210.74
974.73	210.70
975.02	210.58
975.31	210.57
975.61	210.55
975.90	210.55
976.19	210.50
976.49	210.52
976.78	210.58
977.07	210.54
977.37	210.49
977.66	210.55
977.95	210.49
978.24	210.53
978.54	210.56
978.83	210.54
979.12	210.56
979.42	210.54
979.71	210.45
980.00	210.36
980.29	210.45
980.59	210.42
980.88	210.50
981.17	210.55
981.46	210.51
981.76	210.50
982.05	210.50
982.34	210.50
982.63	210.40
982.93	210.38
983.22	210.45
983.51	210.49
983.80	210.45
984.09	210.45
984.39	210.34
984.68	210.32
984.97	210.45
985.26	210.36
985.55	210.39
985.85	210.41
986.14	210.48
986.43	210.41
986.72	210.42
987.01	210.33
987.30	210.39
987.59	210.36
987.89	210.43
988.18	210.40
988.47	210.44
988.76	210.50
989.05	210.51
989.34	210.49
989.63	210.54
989.92	210.52
990.22	210.54
990.51	210.60
990.80	210.60
991.09	210.54
991.38	210.65
991.67	210.67
991.96	210.65
992.25	210.66
992.54	210.70
992.83	210.70
993.12	210.69
993.41	210.67
993.70	210.79
993.99	210.84
994.28	210.88
994.58	210.90
994.87	210.91
995.16	210.93
995.45	210.93
995.74	210.87
996.03	210.92
996.32	210.96
996.61	211.04
996.90	211.09
997.19	211.08
997.48	211.11
997.77	211.04
998.06	211.11
998.34	211.08
998.63	211.14
998.92	211.15
999.21	211.13
999.50	211.10
999.79	211.04
1000.08	210.97
1000.37	211.07
1000.66	211.07
1000.95	211.06
1001.24	211.05
1001.53	211.12
1001.82	211.10
1002.11	211.14
1002.40	211.11
1002.68	211.13
1002.97	211.24
1003.26	211.21
1003.55	211.20
1003.84	211.28
1004.13	211.32
1004.42	211.37
1004.71	211.29
1004.99	211.29
1005.28	211.44
1005.57	211.45
1005.86	211.39
1006.15	211.38
1006.44	211.28
1006.72	211.24
1007.01	211.26
1007.30	211.23
1007.59	211.15
1007.88	211.12
1008.17	211.08
1008.45	211.07
1008.74	211.00
1009.03	210.87
1009.32	210.91
1009.60	210.90
1009.89	210.85
1010.18	210.70
1010.47	210.72
1010.76	210.80
1011.04	210.83
1011.33	210.83
1011.62	210.85
1011.91	210.92
1012.19	210.94
1012.48	210.95
1012.77	210.95
1013.05	211.03
1013.34	211.04
1013.63	211.09
1013.92	211.15
1014.20	211.14
1014.49	211.10
1014.78	211.10
1015.06	211.00
1015.35	210.99
1015.64	211.02
1015.92	211.09
1016.21	211.18
1016.50	211.16
1016.78	211.09
1017.07	211.09
1017.36	211.01
1017.64	211.01
1017.93	210.98
1018.22	211.02
1018.50	210.99
1018.79	210.98
1019.08	210.89
1019.36	210.85
1019.65	210.80
1019.93	210.84
1020.22	210.88
1020.51	210.95
1020.79	210.92
1021.08	212.05
1021.36	210.40
1021.65	210.60
1021.94	210.45
1022.22	210.05
1022.51	210.80
1022.79	211.75
1023.08	211.60
1023.36	211.85
1023.65	210.20
>>>>>End Processed Spectral Data<<<<<
