SpectraSuite Data File
++++++++++++++++++++++++++++++++++++
Date: Mon Feb 25 17:34:23 EST 2013
User: group
Dark Spectrum Present: No
Reference Spectrum Present: No
Number of Sampled Component Spectra: 1
Spectrometers: USB2E7196
Integration Time (usec): 52000 (USB2E7196)
Spectra Averaged: 20 (USB2E7196)
Boxcar Smoothing: 10 (USB2E7196)
Correct for Electrical Dark: No (USB2E7196)
Strobe/Lamp Enabled: No (USB2E7196)
Correct for Detector Non-linearity: No (USB2E7196)
Correct for Stray Light: No (USB2E7196)
Number of Pixels in Processed Spectrum: 2048
>>>>>Begin Processed Spectral Data<<<<<
339.09	0.00
339.48	198.45
339.86	200.00
340.24	202.75
340.63	203.75
341.01	206.75
341.39	205.05
341.78	207.70
342.16	207.65
342.54	208.95
342.93	198.37
343.31	208.42
343.69	209.04
344.07	209.48
344.46	209.82
344.84	210.22
345.22	210.43
345.60	210.70
345.99	210.92
346.37	211.04
346.75	211.10
347.13	211.17
347.52	211.25
347.90	211.28
348.28	211.23
348.66	211.17
349.05	211.19
349.43	211.20
349.81	211.26
350.19	211.23
350.57	211.29
350.96	211.34
351.34	211.36
351.72	211.40
352.10	211.60
352.48	211.72
352.87	211.73
353.25	211.82
353.63	211.88
354.01	211.82
354.39	212.05
354.77	212.15
355.15	212.18
355.54	212.25
355.92	212.24
356.30	212.35
356.68	212.66
357.06	212.69
357.44	212.75
357.82	212.84
358.20	212.90
358.58	212.96
358.97	213.00
359.35	213.11
359.73	213.20
360.11	213.20
360.49	213.27
360.87	213.31
361.25	213.36
361.63	213.49
362.01	213.62
362.39	213.58
362.77	213.63
363.15	213.70
363.53	213.72
363.91	213.82
364.29	213.82
364.67	213.66
365.05	213.71
365.43	213.77
365.81	213.75
366.19	213.93
366.57	214.00
366.95	214.05
367.33	214.01
367.71	214.02
368.09	214.11
368.47	214.03
368.85	214.03
369.23	214.08
369.61	214.00
369.99	214.07
370.37	214.04
370.75	214.19
371.13	214.18
371.51	214.14
371.89	214.11
372.27	214.17
372.65	214.17
373.03	214.10
373.41	214.08
373.78	214.08
374.16	213.87
374.54	213.77
374.92	213.69
375.30	213.68
375.68	213.63
376.06	213.58
376.44	213.68
376.82	213.73
377.19	213.58
377.57	213.56
377.95	213.38
378.33	213.35
378.71	213.25
379.09	213.19
379.47	213.22
379.84	213.13
380.22	212.96
380.60	212.83
380.98	212.78
381.36	212.73
381.73	212.64
382.11	212.72
382.49	212.65
382.87	212.61
383.25	212.53
383.62	212.58
384.00	212.47
384.38	212.32
384.76	212.23
385.13	212.30
385.51	212.23
385.89	212.22
386.27	212.18
386.64	212.03
387.02	212.04
387.40	211.92
387.78	211.90
388.15	211.89
388.53	211.84
388.91	211.83
389.29	211.76
389.66	211.80
390.04	211.68
390.42	211.70
390.79	211.73
391.17	211.76
391.55	211.60
391.92	211.55
392.30	211.60
392.68	211.52
393.05	211.49
393.43	211.51
393.81	211.51
394.18	211.48
394.56	211.54
394.94	211.60
395.31	211.57
395.69	211.68
396.06	211.72
396.44	211.77
396.82	211.77
397.19	211.90
397.57	211.88
397.95	211.93
398.32	211.86
398.70	211.91
399.07	211.94
399.45	212.00
399.82	212.10
400.20	212.08
400.58	212.11
400.95	212.08
401.33	212.11
401.70	212.30
402.08	212.40
402.45	212.45
402.83	212.50
403.20	212.67
403.58	212.68
403.95	212.85
404.33	212.95
404.71	213.10
405.08	213.21
405.46	213.29
405.83	213.50
406.21	213.63
406.58	213.75
406.96	213.91
407.33	214.06
407.70	214.22
408.08	214.57
408.45	214.91
408.83	215.19
409.20	215.37
409.58	215.53
409.95	215.79
410.33	216.06
410.70	216.29
411.08	216.64
411.45	217.07
411.82	217.34
412.20	217.76
412.57	218.31
412.95	218.70
413.32	219.17
413.69	219.62
414.07	220.23
414.44	220.85
414.82	221.45
415.19	222.24
415.56	222.99
415.94	223.73
416.31	224.61
416.68	225.52
417.06	226.62
417.43	227.56
417.81	228.68
418.18	229.76
418.55	231.01
418.93	232.26
419.30	233.54
419.67	235.00
420.04	236.44
420.42	237.86
420.79	239.62
421.16	241.51
421.54	243.37
421.91	245.25
422.28	247.20
422.66	249.29
423.03	251.37
423.40	253.45
423.77	255.65
424.15	257.86
424.52	260.23
424.89	262.80
425.26	265.19
425.64	267.55
426.01	270.20
426.38	272.88
426.75	275.57
427.13	278.43
427.50	281.42
427.87	284.52
428.24	287.61
428.61	290.58
428.99	293.80
429.36	297.32
429.73	300.83
430.10	304.20
430.47	307.79
430.85	311.42
431.22	315.32
431.59	319.60
431.96	323.45
432.33	327.72
432.70	331.94
433.08	337.02
433.45	341.69
433.82	346.27
434.19	351.40
434.56	356.51
434.93	361.17
435.30	365.96
435.68	371.27
436.05	376.44
436.42	381.61
436.79	386.23
437.16	391.32
437.53	396.62
437.90	401.85
438.27	407.10
438.64	412.36
439.01	417.36
439.38	421.67
439.75	425.99
440.13	430.90
440.50	435.44
440.87	439.20
441.24	443.02
441.61	447.34
441.98	450.50
442.35	454.04
442.72	457.81
443.09	461.30
443.46	463.33
443.83	464.76
444.20	465.83
444.57	467.65
444.94	468.45
445.31	469.23
445.68	470.05
446.05	470.15
446.42	469.60
446.79	468.90
447.16	468.02
447.53	467.34
447.90	465.26
448.27	463.17
448.64	460.25
449.01	458.13
449.37	454.49
449.74	450.89
450.11	446.77
450.48	442.28
450.85	437.70
451.22	433.72
451.59	429.91
451.96	426.38
452.33	421.66
452.70	417.19
453.07	412.11
453.43	406.89
453.80	401.92
454.17	397.03
454.54	392.44
454.91	387.69
455.28	383.06
455.65	378.60
456.02	374.20
456.38	370.41
456.75	365.74
457.12	361.78
457.49	358.00
457.86	354.32
458.23	351.05
458.59	347.65
458.96	344.19
459.33	341.09
459.70	337.94
460.07	335.34
460.43	332.55
460.80	329.80
461.17	327.44
461.54	324.91
461.91	322.66
462.27	320.27
462.64	318.16
463.01	315.94
463.38	313.80
463.74	311.53
464.11	309.57
464.48	307.95
464.85	306.21
465.21	304.84
465.58	303.38
465.95	301.64
466.32	300.11
466.68	298.60
467.05	297.15
467.42	295.79
467.78	294.35
468.15	293.00
468.52	291.95
468.88	290.62
469.25	289.44
469.62	288.42
469.98	287.45
470.35	286.54
470.72	285.60
471.08	284.63
471.45	283.88
471.82	283.17
472.18	282.25
472.55	281.68
472.92	280.88
473.28	280.23
473.65	279.71
474.02	279.00
474.38	278.57
474.75	278.15
475.11	277.71
475.48	277.43
475.85	277.15
476.21	277.03
476.58	276.88
476.94	276.88
477.31	276.83
477.67	276.77
478.04	276.67
478.41	276.78
478.77	277.05
479.14	277.17
479.50	277.36
479.87	277.77
480.23	278.16
480.60	278.57
480.96	278.97
481.33	279.55
481.69	280.32
482.06	281.04
482.42	281.69
482.79	282.34
483.15	283.19
483.52	284.19
483.88	285.05
484.25	286.09
484.61	287.21
484.98	288.31
485.34	289.60
485.71	291.02
486.07	292.44
486.44	293.75
486.80	295.30
487.17	296.96
487.53	298.78
487.90	300.51
488.26	302.51
488.62	304.56
488.99	306.67
489.35	308.75
489.72	310.96
490.08	313.48
490.44	316.01
490.81	318.68
491.17	321.38
491.54	324.38
491.90	327.46
492.26	330.67
492.63	334.07
492.99	337.52
493.36	341.13
493.72	345.04
494.08	349.11
494.45	353.46
494.81	357.90
495.17	362.50
495.54	367.29
495.90	372.28
496.26	377.62
496.63	383.05
496.99	388.94
497.35	394.92
497.72	401.14
498.08	407.64
498.44	414.32
498.80	421.46
499.17	428.79
499.53	436.37
499.89	444.25
500.26	452.30
500.62	460.63
500.98	469.33
501.34	478.43
501.71	487.97
502.07	497.46
502.43	507.32
502.79	517.52
503.16	528.33
503.52	539.26
503.88	550.44
504.24	561.97
504.60	573.76
504.97	586.23
505.33	598.83
505.69	612.18
506.05	625.90
506.41	639.49
506.78	653.36
507.14	667.49
507.50	682.09
507.86	697.14
508.22	712.49
508.59	728.20
508.95	744.14
509.31	760.46
509.67	777.36
510.03	794.38
510.39	811.92
510.75	829.80
511.12	847.96
511.48	866.41
511.84	885.04
512.20	903.50
512.56	922.58
512.92	942.09
513.28	961.83
513.64	981.50
514.00	1001.44
514.37	1021.67
514.73	1042.80
515.09	1063.66
515.45	1084.52
515.81	1105.92
516.17	1127.10
516.53	1148.63
516.89	1170.27
517.25	1191.96
517.61	1213.78
517.97	1235.25
518.33	1256.80
518.69	1278.73
519.05	1300.72
519.41	1322.98
519.77	1345.70
520.13	1368.04
520.49	1390.24
520.85	1412.84
521.21	1435.13
521.57	1458.17
521.93	1480.23
522.29	1502.93
522.65	1525.68
523.01	1548.36
523.37	1570.36
523.73	1593.05
524.09	1615.44
524.45	1637.96
524.81	1660.40
525.17	1683.43
525.53	1706.09
525.89	1728.39
526.25	1750.15
526.61	1771.63
526.97	1793.58
527.33	1815.35
527.68	1837.08
528.04	1858.35
528.40	1878.78
528.76	1899.89
529.12	1920.65
529.48	1942.71
529.84	1963.13
530.20	1983.73
530.56	2004.46
530.91	2025.68
531.27	2046.56
531.63	2066.84
531.99	2086.56
532.35	2106.21
532.71	2124.76
533.07	2144.13
533.42	2162.80
533.78	2182.24
534.14	2201.16
534.50	2218.60
534.86	2236.59
535.21	2253.49
535.57	2271.82
535.93	2289.29
536.29	2306.39
536.65	2323.09
537.00	2338.71
537.36	2354.28
537.72	2369.55
538.08	2384.79
538.44	2399.82
538.79	2415.35
539.15	2430.25
539.51	2445.22
539.87	2460.22
540.22	2475.27
540.58	2490.65
540.94	2505.47
541.29	2518.50
541.65	2530.64
542.01	2544.26
542.37	2556.54
542.72	2569.11
543.08	2580.01
543.44	2592.00
543.79	2602.33
544.15	2613.05
544.51	2624.05
544.87	2635.06
545.22	2644.22
545.58	2652.67
545.94	2660.10
546.29	2666.00
546.65	2672.27
547.01	2678.52
547.36	2684.26
547.72	2689.60
548.07	2693.40
548.43	2697.12
548.79	2701.19
549.14	2706.11
549.50	2710.22
549.86	2714.38
550.21	2718.27
550.57	2722.50
550.92	2725.36
551.28	2728.40
551.64	2730.76
551.99	2733.28
552.35	2735.05
552.70	2738.05
553.06	2741.22
553.41	2744.64
553.77	2747.86
554.13	2750.35
554.48	2752.65
554.84	2754.30
555.19	2755.04
555.55	2755.90
555.90	2756.66
556.26	2757.11
556.61	2757.18
556.97	2755.94
557.32	2755.40
557.68	2753.87
558.03	2752.40
558.39	2750.71
558.74	2750.53
559.10	2749.70
559.45	2748.15
559.81	2747.19
560.16	2744.52
560.52	2741.73
560.87	2738.71
561.23	2735.13
561.58	2732.84
561.94	2729.28
562.29	2725.47
562.64	2723.17
563.00	2720.88
563.35	2718.68
563.71	2717.02
564.06	2714.88
564.42	2713.11
564.77	2710.68
565.12	2709.06
565.48	2705.88
565.83	2702.96
566.19	2699.42
566.54	2695.22
566.89	2691.23
567.25	2687.48
567.60	2684.40
567.96	2681.24
568.31	2677.63
568.66	2673.77
569.02	2669.06
569.37	2664.34
569.72	2660.92
570.08	2655.68
570.43	2649.88
570.78	2644.41
571.14	2638.03
571.49	2631.36
571.84	2625.40
572.20	2618.50
572.55	2611.84
572.90	2605.41
573.26	2598.50
573.61	2591.19
573.96	2584.50
574.31	2576.66
574.67	2568.44
575.02	2559.75
575.37	2550.94
575.72	2542.36
576.08	2534.84
576.43	2526.10
576.78	2518.07
577.13	2509.84
577.49	2501.74
577.84	2493.99
578.19	2486.13
578.54	2478.60
578.90	2471.58
579.25	2462.73
579.60	2453.55
579.95	2444.00
580.30	2435.45
580.66	2427.14
581.01	2418.02
581.36	2408.84
581.71	2400.39
582.06	2391.65
582.42	2383.41
582.77	2374.32
583.12	2365.03
583.47	2356.28
583.82	2347.92
584.17	2338.51
584.53	2329.05
584.88	2320.06
585.23	2310.48
585.58	2300.72
585.93	2291.06
586.28	2281.95
586.63	2273.42
586.98	2265.37
587.34	2256.94
587.69	2247.66
588.04	2238.38
588.39	2230.21
588.74	2221.06
589.09	2212.23
589.44	2202.48
589.79	2193.93
590.14	2185.90
590.49	2177.47
590.84	2168.00
591.19	2159.76
591.54	2151.39
591.89	2141.33
592.25	2132.25
592.60	2122.94
592.95	2113.65
593.30	2104.03
593.65	2093.96
594.00	2084.04
594.35	2075.34
594.70	2066.34
595.05	2057.48
595.40	2048.64
595.75	2038.94
596.10	2030.49
596.45	2022.00
596.80	2014.14
597.15	2005.69
597.50	1996.27
597.85	1987.86
598.19	1979.32
598.54	1970.69
598.89	1962.40
599.24	1955.72
599.59	1948.18
599.94	1941.05
600.29	1933.33
600.64	1925.40
600.99	1916.86
601.34	1909.58
601.69	1900.89
602.04	1892.59
602.39	1884.59
602.74	1876.68
603.08	1869.73
603.43	1862.66
603.78	1854.49
604.13	1846.79
604.48	1838.76
604.83	1832.23
605.18	1824.88
605.53	1817.23
605.87	1809.24
606.22	1802.05
606.57	1793.81
606.92	1785.38
607.27	1777.44
607.62	1769.75
607.96	1762.79
608.31	1756.85
608.66	1748.85
609.01	1741.15
609.36	1733.42
609.70	1725.15
610.05	1717.54
610.40	1709.23
610.75	1700.39
611.10	1692.65
611.44	1683.14
611.79	1673.85
612.14	1664.16
612.49	1654.57
612.83	1645.76
613.18	1636.15
613.53	1626.70
613.88	1617.25
614.22	1608.54
614.57	1599.14
614.92	1589.90
615.27	1580.51
615.61	1570.40
615.96	1561.44
616.31	1553.00
616.65	1545.17
617.00	1537.09
617.35	1527.94
617.70	1518.90
618.04	1509.70
618.39	1500.20
618.74	1491.94
619.08	1483.45
619.43	1475.05
619.78	1467.15
620.12	1458.91
620.47	1451.37
620.82	1442.47
621.16	1434.05
621.51	1425.62
621.85	1417.17
622.20	1408.81
622.55	1400.37
622.89	1391.88
623.24	1383.65
623.59	1374.74
623.93	1365.70
624.28	1357.39
624.62	1349.62
624.97	1341.44
625.32	1333.58
625.66	1326.20
626.01	1318.67
626.35	1311.25
626.70	1303.78
627.04	1296.22
627.39	1288.52
627.73	1280.79
628.08	1274.16
628.43	1266.56
628.77	1258.90
629.12	1251.50
629.46	1244.65
629.81	1237.23
630.15	1230.07
630.50	1222.93
630.84	1215.56
631.19	1208.32
631.53	1201.11
631.88	1193.49
632.22	1185.99
632.57	1179.09
632.91	1171.65
633.26	1164.09
633.60	1157.07
633.95	1150.17
634.29	1142.85
634.64	1136.08
634.98	1128.93
635.32	1121.68
635.67	1115.36
636.01	1108.68
636.36	1101.88
636.70	1095.11
637.05	1088.37
637.39	1082.24
637.73	1075.70
638.08	1069.88
638.42	1064.05
638.77	1057.58
639.11	1051.04
639.45	1044.98
639.80	1038.36
640.14	1031.92
640.49	1025.89
640.83	1019.44
641.17	1012.91
641.52	1006.80
641.86	1000.27
642.20	993.99
642.55	987.27
642.89	980.76
643.23	974.27
643.58	968.26
643.92	961.79
644.26	955.57
644.61	949.29
644.95	943.18
645.29	936.65
645.64	929.96
645.98	923.80
646.32	917.97
646.66	911.66
647.01	905.73
647.35	899.85
647.69	893.29
648.04	887.27
648.38	881.28
648.72	875.20
649.06	869.06
649.41	863.03
649.75	857.10
650.09	851.15
650.43	845.30
650.78	838.95
651.12	832.75
651.46	827.05
651.80	820.90
652.14	814.77
652.49	808.88
652.83	802.90
653.17	796.73
653.51	790.78
653.85	785.21
654.20	779.31
654.54	773.29
654.88	767.96
655.22	762.23
655.56	756.38
655.90	750.48
656.25	744.87
656.59	739.35
656.93	734.19
657.27	728.99
657.61	723.45
657.95	718.40
658.29	713.35
658.64	708.10
658.98	702.89
659.32	697.54
659.66	692.53
660.00	687.34
660.34	682.14
660.68	676.92
661.02	671.78
661.36	666.97
661.70	662.13
662.05	657.28
662.39	652.82
662.73	648.41
663.07	644.01
663.41	639.69
663.75	635.03
664.09	630.44
664.43	625.56
664.77	621.23
665.11	616.72
665.45	612.20
665.79	607.74
666.13	603.28
666.47	599.14
666.81	594.94
667.15	590.85
667.49	587.06
667.83	583.21
668.17	579.41
668.51	575.58
668.85	571.93
669.19	568.24
669.53	564.28
669.87	560.20
670.21	556.26
670.55	552.38
670.89	548.95
671.23	545.49
671.57	542.15
671.91	538.67
672.25	535.20
672.58	531.70
672.92	528.16
673.26	524.94
673.60	521.66
673.94	518.26
674.28	515.02
674.62	511.87
674.96	508.62
675.30	505.44
675.64	502.26
675.97	499.06
676.31	496.06
676.65	493.04
676.99	490.29
677.33	487.33
677.67	484.30
678.01	481.26
678.34	478.19
678.68	475.15
679.02	472.08
679.36	469.23
679.70	466.33
680.04	463.59
680.37	460.62
680.71	457.85
681.05	455.10
681.39	452.41
681.73	449.66
682.06	447.18
682.40	444.59
682.74	441.99
683.08	439.48
683.42	436.80
683.75	434.26
684.09	431.67
684.43	429.28
684.77	426.82
685.10	424.26
685.44	421.84
685.78	419.34
686.12	417.16
686.45	414.78
686.79	412.56
687.13	410.40
687.46	408.32
687.80	406.08
688.14	403.81
688.48	401.59
688.81	399.32
689.15	397.01
689.49	394.74
689.82	392.48
690.16	389.91
690.50	387.53
690.83	385.21
691.17	382.90
691.51	380.64
691.84	378.46
692.18	376.39
692.52	374.31
692.85	372.59
693.19	370.53
693.52	368.63
693.86	366.55
694.20	364.51
694.53	362.59
694.87	360.55
695.21	358.58
695.54	356.61
695.88	354.71
696.21	352.78
696.55	351.05
696.88	349.29
697.22	347.75
697.56	346.24
697.89	344.62
698.23	343.01
698.56	341.36
698.90	339.75
699.23	338.15
699.57	336.52
699.90	334.75
700.24	333.10
700.58	331.37
700.91	329.90
701.25	328.54
701.58	326.99
701.92	325.60
702.25	324.17
702.59	322.78
702.92	321.46
703.26	320.11
703.59	318.72
703.93	317.59
704.26	316.28
704.60	314.86
704.93	313.69
705.26	312.40
705.60	311.24
705.93	309.98
706.27	308.80
706.60	307.67
706.94	306.60
707.27	305.46
707.61	304.39
707.94	303.20
708.27	301.98
708.61	300.87
708.94	299.68
709.28	298.60
709.61	297.46
709.94	296.42
710.28	295.43
710.61	294.45
710.95	293.26
711.28	292.32
711.61	291.39
711.95	290.39
712.28	289.41
712.61	288.27
712.95	287.35
713.28	286.41
713.61	285.38
713.95	284.37
714.28	283.44
714.61	282.43
714.95	281.58
715.28	280.54
715.61	279.59
715.95	278.68
716.28	277.83
716.61	276.99
716.95	276.03
717.28	275.19
717.61	274.25
717.94	273.44
718.28	272.55
718.61	271.72
718.94	270.78
719.27	270.01
719.61	269.39
719.94	268.70
720.27	267.88
720.60	267.13
720.94	266.40
721.27	265.74
721.60	265.16
721.93	264.50
722.27	264.03
722.60	263.45
722.93	262.84
723.26	262.31
723.59	261.70
723.93	261.25
724.26	260.65
724.59	260.11
724.92	259.55
725.25	259.04
725.59	258.60
725.92	258.11
726.25	257.61
726.58	257.14
726.91	256.61
727.24	256.21
727.57	255.83
727.91	255.31
728.24	254.82
728.57	254.31
728.90	253.91
729.23	253.31
729.56	252.95
729.89	252.52
730.22	251.95
730.55	251.52
730.89	250.93
731.22	250.48
731.55	250.07
731.88	249.68
732.21	249.25
732.54	248.73
732.87	248.32
733.20	247.86
733.53	247.45
733.86	247.05
734.19	246.59
734.52	246.16
734.85	245.92
735.18	245.46
735.51	245.09
735.84	244.64
736.17	244.34
736.50	243.82
736.83	243.66
737.16	243.27
737.49	242.99
737.82	242.58
738.15	242.23
738.48	241.86
738.81	241.48
739.14	241.03
739.47	240.67
739.80	240.28
740.13	239.93
740.46	239.53
740.79	239.10
741.12	238.78
741.45	238.42
741.78	238.03
742.11	237.80
742.44	237.37
742.77	237.08
743.10	236.73
743.43	236.40
743.75	235.88
744.08	235.88
744.41	235.52
744.74	235.34
745.07	235.03
745.40	234.78
745.73	234.50
746.06	234.29
746.39	233.93
746.71	233.70
747.04	233.46
747.37	233.16
747.70	232.93
748.03	232.67
748.36	232.44
748.68	232.13
749.01	231.81
749.34	231.65
749.67	231.46
750.00	231.27
750.33	231.17
750.65	230.94
750.98	230.41
751.31	230.17
751.64	229.92
751.97	229.79
752.29	229.47
752.62	229.17
752.95	228.97
753.28	228.84
753.60	228.62
753.93	228.41
754.26	228.21
754.59	228.00
754.91	227.72
755.24	227.53
755.57	227.30
755.90	227.14
756.22	226.94
756.55	226.69
756.88	226.46
757.20	226.07
757.53	225.84
757.86	225.65
758.19	225.46
758.51	225.20
758.84	224.86
759.17	224.73
759.49	224.69
759.82	224.59
760.15	224.40
760.47	224.21
760.80	223.98
761.13	223.85
761.45	223.71
761.78	223.55
762.11	223.35
762.43	223.19
762.76	223.03
763.08	222.91
763.41	222.78
763.74	222.66
764.06	222.59
764.39	222.46
764.71	222.33
765.04	222.22
765.37	222.13
765.69	222.06
766.02	221.94
766.34	221.75
766.67	221.59
767.00	221.54
767.32	221.57
767.65	221.57
767.97	221.45
768.30	221.42
768.62	221.42
768.95	221.31
769.27	221.21
769.60	221.14
769.92	221.05
770.25	220.89
770.57	220.76
770.90	220.66
771.22	220.57
771.55	220.48
771.87	220.38
772.20	220.25
772.52	220.25
772.85	220.33
773.17	220.23
773.50	220.05
773.82	219.89
774.15	219.69
774.47	219.48
774.80	219.42
775.12	219.28
775.45	219.13
775.77	219.01
776.09	219.00
776.42	218.90
776.74	218.78
777.07	218.70
777.39	218.67
777.72	218.58
778.04	218.56
778.36	218.49
778.69	218.38
779.01	218.43
779.33	218.28
779.66	218.07
779.98	217.95
780.31	217.84
780.63	217.88
780.95	217.77
781.28	217.69
781.60	217.55
781.92	217.50
782.25	217.35
782.57	217.30
782.89	217.12
783.22	217.00
783.54	216.93
783.86	216.83
784.19	216.70
784.51	216.70
784.83	216.52
785.16	216.43
785.48	216.34
785.80	216.20
786.12	216.13
786.45	216.01
786.77	216.00
787.09	215.95
787.42	215.81
787.74	215.86
788.06	215.84
788.38	215.80
788.71	215.64
789.03	215.67
789.35	215.68
789.67	215.67
789.99	215.65
790.32	215.61
790.64	215.66
790.96	215.78
791.28	215.70
791.61	215.73
791.93	215.72
792.25	215.68
792.57	215.79
792.89	215.66
793.21	215.59
793.54	215.53
793.86	215.54
794.18	215.52
794.50	215.40
794.82	215.34
795.14	215.31
795.47	215.41
795.79	215.34
796.11	215.28
796.43	215.32
796.75	215.31
797.07	215.35
797.39	215.28
797.71	215.10
798.04	215.06
798.36	215.06
798.68	214.99
799.00	215.00
799.32	214.80
799.64	214.83
799.96	214.85
800.28	214.86
800.60	214.85
800.92	214.91
801.24	214.86
801.56	214.84
801.89	214.78
802.21	214.72
802.53	214.62
802.85	214.59
803.17	214.50
803.49	214.44
803.81	214.35
804.13	214.36
804.45	214.27
804.77	214.22
805.09	214.14
805.41	214.15
805.73	214.08
806.05	214.05
806.37	214.08
806.69	214.06
807.01	214.01
807.33	213.96
807.65	213.84
807.97	213.87
808.28	213.86
808.60	213.82
808.92	213.70
809.24	213.86
809.56	213.85
809.88	213.81
810.20	213.85
810.52	213.83
810.84	213.73
811.16	213.70
811.48	213.70
811.80	213.75
812.12	213.71
812.43	213.75
812.75	213.70
813.07	213.65
813.39	213.65
813.71	213.55
814.03	213.47
814.35	213.43
814.67	213.35
814.98	213.33
815.30	213.36
815.62	213.33
815.94	213.17
816.26	213.09
816.58	213.01
816.89	212.89
817.21	212.80
817.53	212.79
817.85	212.81
818.17	212.81
818.48	212.72
818.80	212.69
819.12	212.63
819.44	212.59
819.76	212.54
820.07	212.45
820.39	212.45
820.71	212.46
821.03	212.40
821.34	212.32
821.66	212.30
821.98	212.28
822.30	212.32
822.61	212.44
822.93	212.38
823.25	212.34
823.57	212.30
823.88	212.37
824.20	212.36
824.52	212.32
824.83	212.18
825.15	212.11
825.47	212.14
825.79	212.10
826.10	212.16
826.42	212.14
826.74	212.14
827.05	212.10
827.37	212.09
827.69	212.08
828.00	212.06
828.32	212.00
828.64	211.87
828.95	211.95
829.27	211.81
829.58	211.87
829.90	211.94
830.22	211.98
830.53	211.88
830.85	211.86
831.17	211.80
831.48	211.80
831.80	211.78
832.11	211.74
832.43	211.71
832.75	211.63
833.06	211.67
833.38	211.65
833.69	211.67
834.01	211.57
834.32	211.55
834.64	211.62
834.96	211.68
835.27	211.73
835.59	211.68
835.90	211.73
836.22	211.73
836.53	211.65
836.85	211.57
837.16	211.77
837.48	211.73
837.79	211.82
838.11	211.86
838.42	211.92
838.74	211.92
839.05	211.89
839.37	211.84
839.68	211.80
840.00	211.80
840.31	211.85
840.63	211.86
840.94	211.85
841.26	211.78
841.57	211.79
841.88	211.78
842.20	211.78
842.51	211.79
842.83	211.83
843.14	212.02
843.46	212.10
843.77	212.03
844.08	212.08
844.40	212.02
844.71	212.02
845.03	211.99
845.34	211.98
845.65	212.00
845.97	212.08
846.28	212.06
846.60	212.03
846.91	211.99
847.22	212.01
847.54	212.11
847.85	212.22
848.16	212.10
848.48	212.13
848.79	212.19
849.10	212.15
849.42	212.11
849.73	211.92
850.04	211.86
850.36	211.74
850.67	211.75
850.98	211.73
851.30	211.70
851.61	211.63
851.92	211.62
852.23	211.74
852.55	211.73
852.86	211.76
853.17	211.81
853.49	211.88
853.80	211.92
854.11	211.88
854.42	211.83
854.74	211.84
855.05	211.88
855.36	211.72
855.67	211.78
855.99	211.73
856.30	211.99
856.61	212.00
856.92	212.05
857.23	212.07
857.55	212.03
857.86	211.95
858.17	211.97
858.48	211.95
858.79	211.81
859.11	211.82
859.42	211.76
859.73	211.71
860.04	211.70
860.35	211.64
860.66	211.60
860.98	211.61
861.29	211.63
861.60	211.57
861.91	211.62
862.22	211.54
862.53	211.52
862.84	211.25
863.16	211.35
863.47	211.26
863.78	211.23
864.09	211.30
864.40	211.43
864.71	211.45
865.02	211.50
865.33	211.49
865.64	211.47
865.95	211.55
866.27	211.61
866.58	211.56
866.89	211.59
867.20	211.54
867.51	211.50
867.82	211.55
868.13	211.58
868.44	211.58
868.75	211.61
869.06	211.64
869.37	211.78
869.68	211.67
869.99	211.76
870.30	211.74
870.61	211.72
870.92	211.68
871.23	211.74
871.54	211.74
871.85	211.75
872.16	211.73
872.47	211.72
872.78	211.70
873.09	211.68
873.40	211.69
873.71	211.70
874.02	211.71
874.33	211.69
874.64	211.66
874.95	211.68
875.26	211.62
875.56	211.62
875.87	211.48
876.18	211.45
876.49	211.58
876.80	211.52
877.11	211.50
877.42	211.54
877.73	211.46
878.04	211.40
878.35	211.48
878.66	211.48
878.96	211.49
879.27	211.42
879.58	211.41
879.89	211.30
880.20	211.36
880.51	211.29
880.82	211.25
881.12	211.18
881.43	211.12
881.74	211.09
882.05	211.06
882.36	211.12
882.67	211.12
882.97	210.93
883.28	211.05
883.59	211.03
883.90	211.00
884.21	211.03
884.51	211.04
884.82	210.95
885.13	210.88
885.44	210.80
885.74	210.79
886.05	210.80
886.36	210.88
886.67	210.85
886.98	210.98
887.28	211.00
887.59	211.11
887.90	211.10
888.20	211.12
888.51	211.12
888.82	211.10
889.13	211.10
889.43	211.19
889.74	211.09
890.05	211.06
890.35	211.06
890.66	211.06
890.97	211.06
891.28	211.12
891.58	211.17
891.89	211.24
892.20	211.26
892.50	211.24
892.81	211.21
893.12	211.20
893.42	211.08
893.73	211.07
894.04	211.03
894.34	211.10
894.65	211.10
894.95	211.10
895.26	211.10
895.57	211.22
895.87	211.14
896.18	211.16
896.48	211.18
896.79	211.18
897.10	211.17
897.40	211.16
897.71	211.14
898.01	211.15
898.32	211.10
898.63	211.12
898.93	211.12
899.24	211.15
899.54	211.13
899.85	211.21
900.15	211.24
900.46	211.30
900.76	211.29
901.07	211.29
901.38	211.29
901.68	211.35
901.99	211.30
902.29	211.26
902.60	211.28
902.90	211.30
903.21	211.35
903.51	211.36
903.82	211.40
904.12	211.45
904.43	211.48
904.73	211.50
905.03	211.51
905.34	211.73
905.64	211.69
905.95	211.74
906.25	211.69
906.56	211.66
906.86	211.54
907.17	211.54
907.47	211.57
907.77	211.62
908.08	211.58
908.38	211.51
908.69	211.60
908.99	211.64
909.30	211.67
909.60	211.60
909.90	211.63
910.21	211.59
910.51	211.52
910.81	211.50
911.12	211.50
911.42	211.43
911.73	211.17
912.03	211.16
912.33	211.19
912.64	211.20
912.94	211.15
913.24	211.21
913.55	211.24
913.85	211.18
914.15	211.16
914.46	211.17
914.76	211.21
915.06	211.20
915.37	211.18
915.67	211.13
915.97	211.19
916.27	211.21
916.58	211.22
916.88	211.24
917.18	211.22
917.49	211.35
917.79	211.37
918.09	211.42
918.39	211.56
918.70	211.53
919.00	211.59
919.30	211.67
919.60	211.61
919.91	211.59
920.21	211.67
920.51	211.68
920.81	211.66
921.12	211.64
921.42	211.55
921.72	211.59
922.02	211.59
922.32	211.57
922.63	211.59
922.93	211.67
923.23	211.66
923.53	211.61
923.83	211.49
924.13	211.50
924.44	211.50
924.74	211.48
925.04	211.45
925.34	211.37
925.64	211.33
925.94	211.32
926.24	211.34
926.55	211.29
926.85	211.23
927.15	211.22
927.45	211.23
927.75	211.23
928.05	211.14
928.35	211.17
928.65	211.24
928.95	211.24
929.26	211.15
929.56	211.23
929.86	211.27
930.16	211.30
930.46	211.34
930.76	211.44
931.06	211.42
931.36	211.43
931.66	211.51
931.96	211.46
932.26	211.47
932.56	211.42
932.86	211.39
933.16	211.38
933.46	211.37
933.76	211.36
934.06	211.44
934.36	211.44
934.66	211.43
934.96	211.28
935.26	211.19
935.56	211.12
935.86	210.93
936.16	210.91
936.46	210.84
936.76	210.82
937.06	210.74
937.36	210.67
937.66	210.65
937.96	210.58
938.26	210.57
938.56	210.59
938.86	210.60
939.16	210.62
939.46	210.70
939.76	210.73
940.06	210.72
940.35	210.65
940.65	210.57
940.95	210.55
941.25	210.56
941.55	210.55
941.85	210.67
942.15	210.74
942.45	210.83
942.75	210.83
943.04	210.80
943.34	210.81
943.64	210.74
943.94	210.67
944.24	210.73
944.54	210.73
944.84	210.69
945.13	210.65
945.43	210.59
945.73	210.52
946.03	210.49
946.33	210.45
946.62	210.45
946.92	210.53
947.22	210.55
947.52	210.57
947.82	210.60
948.11	210.53
948.41	210.52
948.71	210.46
949.01	210.45
949.31	210.41
949.60	210.45
949.90	210.59
950.20	210.63
950.50	210.59
950.79	210.58
951.09	210.61
951.39	210.63
951.69	210.70
951.98	210.76
952.28	210.78
952.58	210.88
952.87	210.86
953.17	210.87
953.47	210.80
953.76	210.84
954.06	210.75
954.36	210.73
954.66	210.76
954.95	210.78
955.25	210.81
955.55	210.87
955.84	210.86
956.14	210.82
956.44	210.86
956.73	210.89
957.03	210.94
957.32	210.93
957.62	210.97
957.92	211.02
958.21	211.00
958.51	211.21
958.81	211.18
959.10	211.31
959.40	211.34
959.69	211.44
959.99	211.41
960.29	211.54
960.58	211.55
960.88	211.67
961.17	211.63
961.47	211.65
961.76	211.52
962.06	211.52
962.36	211.43
962.65	211.43
962.95	211.39
963.24	211.35
963.54	211.37
963.83	211.28
964.13	211.26
964.42	211.24
964.72	211.14
965.01	211.09
965.31	211.02
965.60	210.99
965.90	211.05
966.19	211.03
966.49	211.00
966.78	210.98
967.08	210.94
967.37	210.97
967.67	210.98
967.96	211.14
968.26	211.13
968.55	211.21
968.85	211.17
969.14	211.19
969.43	211.22
969.73	211.27
970.02	211.27
970.32	211.27
970.61	211.25
970.91	211.10
971.20	211.11
971.49	211.07
971.79	211.07
972.08	210.99
972.38	210.97
972.67	210.95
972.96	210.98
973.26	210.86
973.55	210.92
973.85	210.92
974.14	210.92
974.43	210.94
974.73	210.82
975.02	210.80
975.31	210.82
975.61	210.80
975.90	210.73
976.19	210.77
976.49	210.76
976.78	210.83
977.07	210.84
977.37	210.91
977.66	210.96
977.95	210.92
978.24	210.90
978.54	210.92
978.83	210.94
979.12	210.98
979.42	211.04
979.71	210.99
980.00	210.99
980.29	210.85
980.59	210.80
980.88	210.87
981.17	210.90
981.46	210.85
981.76	210.85
982.05	210.88
982.34	210.87
982.63	210.83
982.93	210.74
983.22	210.75
983.51	210.72
983.80	210.72
984.09	210.73
984.39	210.66
984.68	210.69
984.97	210.63
985.26	210.52
985.55	210.42
985.85	210.37
986.14	210.37
986.43	210.44
986.72	210.44
987.01	210.43
987.30	210.43
987.59	210.40
987.89	210.39
988.18	210.35
988.47	210.33
988.76	210.32
989.05	210.33
989.34	210.32
989.63	210.35
989.92	210.35
990.22	210.34
990.51	210.43
990.80	210.38
991.09	210.40
991.38	210.45
991.67	210.60
991.96	210.65
992.25	210.71
992.54	210.63
992.83	210.61
993.12	210.63
993.41	210.67
993.70	210.77
993.99	210.82
994.28	210.83
994.58	210.91
994.87	210.94
995.16	210.99
995.45	211.03
995.74	210.98
996.03	211.00
996.32	211.01
996.61	211.00
996.90	211.04
997.19	211.12
997.48	211.14
997.77	211.04
998.06	211.06
998.34	210.95
998.63	211.05
998.92	211.11
999.21	211.10
999.50	211.09
999.79	211.07
1000.08	211.01
1000.37	211.03
1000.66	211.00
1000.95	211.07
1001.24	211.07
1001.53	211.05
1001.82	211.00
1002.11	211.05
1002.40	211.03
1002.68	211.10
1002.97	211.15
1003.26	211.09
1003.55	211.10
1003.84	211.18
1004.13	211.14
1004.42	211.12
1004.71	211.13
1004.99	211.08
1005.28	211.17
1005.57	211.25
1005.86	211.21
1006.15	211.29
1006.44	211.22
1006.72	211.24
1007.01	211.11
1007.30	211.12
1007.59	211.19
1007.88	211.19
1008.17	211.12
1008.45	211.18
1008.74	211.10
1009.03	211.10
1009.32	211.13
1009.60	211.11
1009.89	211.08
1010.18	211.05
1010.47	211.05
1010.76	211.04
1011.04	211.02
1011.33	211.01
1011.62	210.94
1011.91	210.96
1012.19	210.93
1012.48	210.99
1012.77	210.93
1013.05	211.05
1013.34	211.03
1013.63	210.95
1013.92	210.99
1014.20	210.91
1014.49	210.90
1014.78	211.02
1015.06	210.93
1015.35	210.90
1015.64	210.90
1015.92	210.89
1016.21	210.90
1016.50	210.86
1016.78	210.87
1017.07	210.95
1017.36	210.89
1017.64	210.83
1017.93	210.84
1018.22	210.79
1018.50	210.80
1018.79	210.80
1019.08	210.72
1019.36	210.66
1019.65	210.64
1019.93	210.70
1020.22	210.78
1020.51	210.88
1020.79	210.77
1021.08	210.15
1021.36	210.80
1021.65	209.85
1021.94	211.10
1022.22	209.95
1022.51	210.05
1022.79	212.15
1023.08	210.75
1023.36	213.60
1023.65	210.70
>>>>>End Processed Spectral Data<<<<<
