SpectraSuite Data File
++++++++++++++++++++++++++++++++++++
Date: Mon Feb 25 17:35:11 EST 2013
User: group
Dark Spectrum Present: No
Reference Spectrum Present: No
Number of Sampled Component Spectra: 1
Spectrometers: USB2E7196
Integration Time (usec): 52000 (USB2E7196)
Spectra Averaged: 20 (USB2E7196)
Boxcar Smoothing: 10 (USB2E7196)
Correct for Electrical Dark: No (USB2E7196)
Strobe/Lamp Enabled: No (USB2E7196)
Correct for Detector Non-linearity: No (USB2E7196)
Correct for Stray Light: No (USB2E7196)
Number of Pixels in Processed Spectrum: 2048
>>>>>Begin Processed Spectral Data<<<<<
339.09	0.00
339.48	199.35
339.86	199.85
340.24	202.95
340.63	203.35
341.01	208.50
341.39	206.45
341.78	208.55
342.16	209.45
342.54	209.05
342.93	198.52
343.31	208.56
343.69	209.08
344.07	209.55
344.46	209.93
344.84	210.31
345.22	210.46
345.60	210.66
345.99	210.77
346.37	210.79
346.75	210.94
347.13	211.01
347.52	211.05
347.90	211.13
348.28	211.09
348.66	211.15
349.05	211.10
349.43	211.18
349.81	211.17
350.19	211.27
350.57	211.35
350.96	211.39
351.34	211.42
351.72	211.53
352.10	211.66
352.48	211.71
352.87	211.72
353.25	211.77
353.63	211.84
354.01	211.91
354.39	211.98
354.77	212.02
355.15	212.11
355.54	212.19
355.92	212.19
356.30	212.24
356.68	212.42
357.06	212.48
357.44	212.44
357.82	212.52
358.20	212.56
358.58	212.63
358.97	212.69
359.35	212.79
359.73	212.86
360.11	212.90
360.49	212.99
360.87	213.03
361.25	213.06
361.63	213.22
362.01	213.24
362.39	213.35
362.77	213.38
363.15	213.50
363.53	213.47
363.91	213.49
364.29	213.56
364.67	213.36
365.05	213.49
365.43	213.51
365.81	213.54
366.19	213.68
366.57	213.78
366.95	213.75
367.33	213.76
367.71	213.72
368.09	213.76
368.47	213.67
368.85	213.67
369.23	213.64
369.61	213.48
369.99	213.58
370.37	213.49
370.75	213.50
371.13	213.39
371.51	213.38
371.89	213.39
372.27	213.39
372.65	213.44
373.03	213.28
373.41	213.23
373.78	213.31
374.16	213.21
374.54	213.07
374.92	213.05
375.30	212.96
375.68	212.84
376.06	212.81
376.44	212.81
376.82	212.83
377.19	212.82
377.57	212.89
377.95	212.76
378.33	212.77
378.71	212.68
379.09	212.65
379.47	212.69
379.84	212.62
380.22	212.55
380.60	212.46
380.98	212.51
381.36	212.51
381.73	212.31
382.11	212.34
382.49	212.29
382.87	212.28
383.25	212.27
383.62	212.54
384.00	212.45
384.38	212.45
384.76	212.46
385.13	212.53
385.51	212.45
385.89	212.41
386.27	212.37
386.64	212.34
387.02	212.30
387.40	212.19
387.78	212.18
388.15	212.17
388.53	212.13
388.91	212.10
389.29	212.04
389.66	212.07
390.04	211.94
390.42	212.00
390.79	211.97
391.17	211.92
391.55	211.69
391.92	211.65
392.30	211.59
392.68	211.50
393.05	211.42
393.43	211.39
393.81	211.41
394.18	211.35
394.56	211.35
394.94	211.36
395.31	211.33
395.69	211.42
396.06	211.44
396.44	211.49
396.82	211.40
397.19	211.53
397.57	211.55
397.95	211.63
398.32	211.60
398.70	211.60
399.07	211.75
399.45	211.77
399.82	211.89
400.20	211.97
400.58	211.97
400.95	211.96
401.33	212.08
401.70	212.24
402.08	212.40
402.45	212.48
402.83	212.64
403.20	212.78
403.58	212.82
403.95	212.96
404.33	213.06
404.71	213.19
405.08	213.33
405.46	213.49
405.83	213.59
406.21	213.76
406.58	213.94
406.96	214.05
407.33	214.24
407.70	214.39
408.08	214.70
408.45	214.96
408.83	215.22
409.20	215.45
409.58	215.58
409.95	215.75
410.33	216.07
410.70	216.35
411.08	216.65
411.45	217.00
411.82	217.30
412.20	217.68
412.57	218.20
412.95	218.55
413.32	219.04
413.69	219.66
414.07	220.25
414.44	220.92
414.82	221.53
415.19	222.32
415.56	223.13
415.94	223.89
416.31	224.83
416.68	225.77
417.06	226.80
417.43	227.83
417.81	229.00
418.18	230.15
418.55	231.34
418.93	232.68
419.30	234.01
419.67	235.48
420.04	236.94
420.42	238.52
420.79	240.31
421.16	242.09
421.54	243.90
421.91	245.75
422.28	247.65
422.66	249.72
423.03	251.75
423.40	253.77
423.77	256.00
424.15	258.20
424.52	260.51
424.89	263.07
425.26	265.55
425.64	267.92
426.01	270.47
426.38	273.20
426.75	275.91
427.13	278.75
427.50	281.71
427.87	284.87
428.24	287.87
428.61	290.82
428.99	294.05
429.36	297.47
429.73	300.95
430.10	304.45
430.47	308.02
430.85	311.64
431.22	315.54
431.59	319.71
431.96	323.74
432.33	328.16
432.70	332.34
433.08	337.37
433.45	341.97
433.82	346.65
434.19	351.84
434.56	356.87
434.93	361.82
435.30	366.59
435.68	371.88
436.05	377.16
436.42	382.39
436.79	387.13
437.16	392.31
437.53	397.73
437.90	403.06
438.27	408.32
438.64	413.75
439.01	418.81
439.38	423.26
439.75	427.39
440.13	432.24
440.50	436.77
440.87	440.51
441.24	444.37
441.61	448.60
441.98	451.70
442.35	455.26
442.72	458.89
443.09	462.50
443.46	464.56
443.83	465.91
444.20	467.09
444.57	468.95
444.94	469.63
445.31	470.24
445.68	471.09
446.05	471.31
446.42	470.65
446.79	469.94
447.16	469.12
447.53	468.66
447.90	466.43
448.27	464.39
448.64	461.34
449.01	459.34
449.37	455.77
449.74	452.10
450.11	447.90
450.48	443.35
450.85	438.70
451.22	434.81
451.59	431.04
451.96	427.35
452.33	422.49
452.70	418.16
453.07	413.14
453.43	407.70
453.80	402.69
454.17	397.92
454.54	393.26
454.91	388.29
455.28	383.41
455.65	379.15
456.02	374.76
456.38	371.05
456.75	366.33
457.12	362.31
457.49	358.46
457.86	354.81
458.23	351.54
458.59	348.00
458.96	344.33
459.33	341.16
459.70	338.06
460.07	335.39
460.43	332.52
460.80	329.82
461.17	327.47
461.54	324.89
461.91	322.46
462.27	319.98
462.64	317.93
463.01	315.73
463.38	313.51
463.74	311.28
464.11	309.42
464.48	307.70
464.85	305.90
465.21	304.65
465.58	303.20
465.95	301.44
466.32	300.01
466.68	298.53
467.05	297.17
467.42	295.72
467.78	294.32
468.15	292.92
468.52	291.84
468.88	290.43
469.25	289.28
469.62	288.31
469.98	287.40
470.35	286.48
470.72	285.66
471.08	284.67
471.45	283.83
471.82	282.98
472.18	282.14
472.55	281.64
472.92	280.90
473.28	280.29
473.65	279.67
474.02	279.12
474.38	278.77
474.75	278.37
475.11	277.90
475.48	277.64
475.85	277.46
476.21	277.25
476.58	277.20
476.94	277.09
477.31	277.04
477.67	277.02
478.04	277.03
478.41	277.07
478.77	277.40
479.14	277.49
479.50	277.78
479.87	278.18
480.23	278.53
480.60	278.83
480.96	279.25
481.33	279.92
481.69	280.44
482.06	281.08
482.42	281.70
482.79	282.45
483.15	283.25
483.52	284.23
483.88	285.13
484.25	286.10
484.61	287.19
484.98	288.28
485.34	289.54
485.71	290.85
486.07	292.29
486.44	293.48
486.80	295.05
487.17	296.60
487.53	298.34
487.90	300.13
488.26	302.13
488.62	304.16
488.99	306.15
489.35	308.37
489.72	310.59
490.08	313.00
490.44	315.53
490.81	318.29
491.17	320.90
491.54	323.92
491.90	326.95
492.26	330.14
492.63	333.53
492.99	336.98
493.36	340.64
493.72	344.50
494.08	348.66
494.45	353.01
494.81	357.50
495.17	362.03
495.54	366.96
495.90	372.05
496.26	377.30
496.63	382.81
496.99	388.52
497.35	394.51
497.72	400.86
498.08	407.35
498.44	414.06
498.80	421.30
499.17	428.71
499.53	436.30
499.89	444.21
500.26	452.34
500.62	460.65
500.98	469.51
501.34	478.50
501.71	487.89
502.07	497.69
502.43	507.75
502.79	518.04
503.16	528.64
503.52	539.51
503.88	550.80
504.24	562.39
504.60	574.44
504.97	586.79
505.33	599.34
505.69	612.76
506.05	626.17
506.41	639.74
506.78	653.43
507.14	667.59
507.50	682.31
507.86	697.32
508.22	712.71
508.59	728.15
508.95	744.25
509.31	760.59
509.67	777.14
510.03	793.98
510.39	811.66
510.75	829.61
511.12	847.85
511.48	866.29
511.84	885.18
512.20	903.87
512.56	923.06
512.92	942.68
513.28	962.20
513.64	982.24
514.00	1002.30
514.37	1022.79
514.73	1043.53
515.09	1064.53
515.45	1085.77
515.81	1107.25
516.17	1128.74
516.53	1150.15
516.89	1172.10
517.25	1193.86
517.61	1215.77
517.97	1237.47
518.33	1258.98
518.69	1280.70
519.05	1303.11
519.41	1325.30
519.77	1348.21
520.13	1370.65
520.49	1392.93
520.85	1415.72
521.21	1438.14
521.57	1461.22
521.93	1483.42
522.29	1506.56
522.65	1528.99
523.01	1551.62
523.37	1573.76
523.73	1596.38
524.09	1618.97
524.45	1641.44
524.81	1663.91
525.17	1686.57
525.53	1708.93
525.89	1731.53
526.25	1753.90
526.61	1775.14
526.97	1796.90
527.33	1818.07
527.68	1839.75
528.04	1861.01
528.40	1881.50
528.76	1902.63
529.12	1923.51
529.48	1945.30
529.84	1965.89
530.20	1986.82
530.56	2007.45
530.91	2028.54
531.27	2049.33
531.63	2069.45
531.99	2089.22
532.35	2108.39
532.71	2127.51
533.07	2147.47
533.42	2166.17
533.78	2184.91
534.14	2203.63
534.50	2221.08
534.86	2239.64
535.21	2256.63
535.57	2274.64
535.93	2292.30
536.29	2309.33
536.65	2326.30
537.00	2341.99
537.36	2357.46
537.72	2372.73
538.08	2387.94
538.44	2403.51
538.79	2418.85
539.15	2433.96
539.51	2448.97
539.87	2465.00
540.22	2479.86
540.58	2494.89
540.94	2509.70
541.29	2523.15
541.65	2535.65
542.01	2549.44
542.37	2561.30
542.72	2573.63
543.08	2584.71
543.44	2596.70
543.79	2607.15
544.15	2617.42
544.51	2629.00
544.87	2640.30
545.22	2649.82
545.58	2658.55
545.94	2665.95
546.29	2672.74
546.65	2679.19
547.01	2685.63
547.36	2691.11
547.72	2696.99
548.07	2700.92
548.43	2704.78
548.79	2709.17
549.14	2714.14
549.50	2718.14
549.86	2722.28
550.21	2726.92
550.57	2731.30
550.92	2734.11
551.28	2737.19
551.64	2739.80
551.99	2742.08
552.35	2743.69
552.70	2746.61
553.06	2749.43
553.41	2752.38
553.77	2755.22
554.13	2757.47
554.48	2759.27
554.84	2761.09
555.19	2761.61
555.55	2762.34
555.90	2763.27
556.26	2763.70
556.61	2763.79
556.97	2762.66
557.32	2762.77
557.68	2760.89
558.03	2759.82
558.39	2758.55
558.74	2758.22
559.10	2757.25
559.45	2755.35
559.81	2754.63
560.16	2752.01
560.52	2749.86
560.87	2747.04
561.23	2743.39
561.58	2741.44
561.94	2737.99
562.29	2734.24
562.64	2731.97
563.00	2729.71
563.35	2727.51
563.71	2725.56
564.06	2723.53
564.42	2721.79
564.77	2718.96
565.12	2716.99
565.48	2713.38
565.83	2710.26
566.19	2706.84
566.54	2702.70
566.89	2699.20
567.25	2695.24
567.60	2691.90
567.96	2688.16
568.31	2684.71
568.66	2681.06
569.02	2676.31
569.37	2671.76
569.72	2667.98
570.08	2662.89
570.43	2657.37
570.78	2651.25
571.14	2644.92
571.49	2637.96
571.84	2632.12
572.20	2625.59
572.55	2619.42
572.90	2612.63
573.26	2605.65
573.61	2598.46
573.96	2591.67
574.31	2583.46
574.67	2575.22
575.02	2566.75
575.37	2558.07
575.72	2548.73
576.08	2540.80
576.43	2532.09
576.78	2524.29
577.13	2516.02
577.49	2507.58
577.84	2499.53
578.19	2492.13
578.54	2484.62
578.90	2477.90
579.25	2469.20
579.60	2459.98
579.95	2450.51
580.30	2442.35
580.66	2434.17
581.01	2425.07
581.36	2416.07
581.71	2407.86
582.06	2399.53
582.42	2391.28
582.77	2382.29
583.12	2373.63
583.47	2365.05
583.82	2356.68
584.17	2347.07
584.53	2337.92
584.88	2329.01
585.23	2319.85
585.58	2310.07
585.93	2300.28
586.28	2290.82
586.63	2281.91
586.98	2273.20
587.34	2264.77
587.69	2255.53
588.04	2246.15
588.39	2237.62
588.74	2228.11
589.09	2219.22
589.44	2209.33
589.79	2200.61
590.14	2192.62
590.49	2184.15
590.84	2175.04
591.19	2166.65
591.54	2158.05
591.89	2147.78
592.25	2138.56
592.60	2129.01
592.95	2119.29
593.30	2109.78
593.65	2099.73
594.00	2089.83
594.35	2081.61
594.70	2072.17
595.05	2063.47
595.40	2054.63
595.75	2044.85
596.10	2036.72
596.45	2027.79
596.80	2019.98
597.15	2011.56
597.50	2001.92
597.85	1993.55
598.19	1984.70
598.54	1976.04
598.89	1967.96
599.24	1961.37
599.59	1953.64
599.94	1946.50
600.29	1938.94
600.64	1930.91
600.99	1922.53
601.34	1915.20
601.69	1906.16
602.04	1897.89
602.39	1889.60
602.74	1881.62
603.08	1875.00
603.43	1867.59
603.78	1859.59
604.13	1851.40
604.48	1843.09
604.83	1836.47
605.18	1829.04
605.53	1821.44
605.87	1813.59
606.22	1806.61
606.57	1798.45
606.92	1790.27
607.27	1781.91
607.62	1774.59
607.96	1767.70
608.31	1761.30
608.66	1753.41
609.01	1745.85
609.36	1738.20
609.70	1730.59
610.05	1722.85
610.40	1714.60
610.75	1706.07
611.10	1698.27
611.44	1689.07
611.79	1680.06
612.14	1670.54
612.49	1660.69
612.83	1651.68
613.18	1641.98
613.53	1632.19
613.88	1621.91
614.22	1612.99
614.57	1603.50
614.92	1594.06
615.27	1584.39
615.61	1574.46
615.96	1565.55
616.31	1556.89
616.65	1548.80
617.00	1540.08
617.35	1531.30
617.70	1521.95
618.04	1512.84
618.39	1503.48
618.74	1494.85
619.08	1486.13
619.43	1477.63
619.78	1469.89
620.12	1461.67
620.47	1453.89
620.82	1445.19
621.16	1437.18
621.51	1428.65
621.85	1420.50
622.20	1411.65
622.55	1403.38
622.89	1395.05
623.24	1386.77
623.59	1378.05
623.93	1369.27
624.28	1361.09
624.62	1352.88
624.97	1344.66
625.32	1336.79
625.66	1329.47
626.01	1322.08
626.35	1314.85
626.70	1307.00
627.04	1299.63
627.39	1291.99
627.73	1284.42
628.08	1277.62
628.43	1270.28
628.77	1262.66
629.12	1255.05
629.46	1248.30
629.81	1240.94
630.15	1233.55
630.50	1226.19
630.84	1218.93
631.19	1211.78
631.53	1204.49
631.88	1196.60
632.22	1189.28
632.57	1182.26
632.91	1174.64
633.26	1166.94
633.60	1159.74
633.95	1153.05
634.29	1145.50
634.64	1138.69
634.98	1131.44
635.32	1124.36
635.67	1117.80
636.01	1111.28
636.36	1104.57
636.70	1097.91
637.05	1091.25
637.39	1084.86
637.73	1078.40
638.08	1072.51
638.42	1066.67
638.77	1060.13
639.11	1053.83
639.45	1047.71
639.80	1041.15
640.14	1034.60
640.49	1028.58
640.83	1022.16
641.17	1015.59
641.52	1009.45
641.86	1002.84
642.20	996.59
642.55	989.65
642.89	983.24
643.23	976.80
643.58	970.87
643.92	964.42
644.26	958.24
644.61	951.98
644.95	945.79
645.29	939.28
645.64	932.45
645.98	926.06
646.32	920.16
646.66	913.84
647.01	907.64
647.35	901.60
647.69	895.36
648.04	889.46
648.38	883.35
648.72	877.13
649.06	870.93
649.41	864.88
649.75	859.23
650.09	853.19
650.43	847.22
650.78	840.80
651.12	834.60
651.46	828.66
651.80	822.85
652.14	816.77
652.49	810.80
652.83	804.89
653.17	799.15
653.51	793.39
653.85	787.63
654.20	781.83
654.54	776.17
654.88	770.57
655.22	764.62
655.56	758.80
655.90	753.04
656.25	747.46
656.59	742.01
656.93	736.59
657.27	731.45
657.61	725.92
657.95	720.80
658.29	715.69
658.64	710.68
658.98	705.33
659.32	700.02
659.66	694.78
660.00	689.33
660.34	684.02
660.68	678.70
661.02	673.64
661.36	668.85
661.70	664.03
662.05	659.42
662.39	654.98
662.73	650.63
663.07	646.32
663.41	641.95
663.75	637.37
664.09	632.74
664.43	627.95
664.77	623.63
665.11	619.15
665.45	614.74
665.79	610.20
666.13	605.82
666.47	601.67
666.81	597.54
667.15	593.46
667.49	589.59
667.83	585.68
668.17	581.88
668.51	578.01
668.85	574.14
669.19	570.20
669.53	566.18
669.87	562.14
670.21	558.13
670.55	554.10
670.89	550.53
671.23	547.09
671.57	543.58
671.91	539.97
672.25	536.40
672.58	532.88
672.92	529.37
673.26	526.23
673.60	522.83
673.94	519.37
674.28	516.11
674.62	512.85
674.96	509.70
675.30	506.41
675.64	503.13
675.97	499.88
676.31	496.90
676.65	494.03
676.99	491.36
677.33	488.38
677.67	485.51
678.01	482.31
678.34	479.27
678.68	476.19
679.02	473.34
679.36	470.57
679.70	467.66
680.04	464.74
680.37	461.79
680.71	458.91
681.05	456.29
681.39	453.60
681.73	450.80
682.06	448.20
682.40	445.64
682.74	443.05
683.08	440.60
683.42	437.78
683.75	435.08
684.09	432.29
684.43	429.76
684.77	427.18
685.10	424.65
685.44	422.13
685.78	419.71
686.12	417.31
686.45	414.83
686.79	412.56
687.13	410.42
687.46	408.15
687.80	405.92
688.14	403.61
688.48	401.37
688.81	399.13
689.15	396.82
689.49	394.55
689.82	392.24
690.16	389.74
690.50	387.58
690.83	385.23
691.17	383.02
691.51	380.74
691.84	378.57
692.18	376.60
692.52	374.57
692.85	372.74
693.19	370.83
693.52	368.84
693.86	366.70
694.20	364.70
694.53	362.77
694.87	360.85
695.21	358.81
695.54	356.88
695.88	355.00
696.21	353.12
696.55	351.30
696.88	349.60
697.22	347.91
697.56	346.30
697.89	344.74
698.23	343.00
698.56	341.55
698.90	340.08
699.23	338.45
699.57	336.80
699.90	335.03
700.24	333.24
700.58	331.68
700.91	330.27
701.25	328.78
701.58	327.36
701.92	325.93
702.25	324.66
702.59	323.35
702.92	322.05
703.26	320.69
703.59	319.46
703.93	318.28
704.26	317.13
704.60	315.82
704.93	314.55
705.26	313.36
705.60	312.13
705.93	310.86
706.27	309.66
706.60	308.57
706.94	307.53
707.27	306.39
707.61	305.35
707.94	304.27
708.27	302.98
708.61	301.72
708.94	300.61
709.28	299.40
709.61	298.27
709.94	297.11
710.28	296.12
710.61	295.00
710.95	293.77
711.28	292.81
711.61	291.75
711.95	290.83
712.28	289.67
712.61	288.57
712.95	287.61
713.28	286.68
713.61	285.64
713.95	284.72
714.28	283.89
714.61	282.90
714.95	281.91
715.28	280.97
715.61	280.03
715.95	279.13
716.28	278.26
716.61	277.46
716.95	276.68
717.28	275.67
717.61	274.85
717.94	274.08
718.28	273.12
718.61	272.22
718.94	271.37
719.27	270.74
719.61	269.99
719.94	269.30
720.27	268.51
720.60	267.77
720.94	266.95
721.27	266.12
721.60	265.49
721.93	264.86
722.27	264.30
722.60	263.81
722.93	263.15
723.26	262.45
723.59	261.76
723.93	261.14
724.26	260.60
724.59	260.08
724.92	259.47
725.25	258.93
725.59	258.46
725.92	257.93
726.25	257.35
726.58	256.85
726.91	256.23
727.24	255.73
727.57	255.23
727.91	254.69
728.24	254.24
728.57	253.68
728.90	253.13
729.23	252.70
729.56	252.18
729.89	251.77
730.22	251.44
730.55	250.95
730.89	250.51
731.22	250.08
731.55	249.55
731.88	249.15
732.21	248.70
732.54	248.22
732.87	247.79
733.20	247.43
733.53	246.94
733.86	246.53
734.19	246.03
734.52	245.72
734.85	245.48
735.18	245.05
735.51	244.75
735.84	244.47
736.17	244.11
736.50	243.63
736.83	243.46
737.16	243.03
737.49	242.65
737.82	242.21
738.15	241.84
738.48	241.52
738.81	241.13
739.14	240.85
739.47	240.58
739.80	240.21
740.13	239.93
740.46	239.57
740.79	239.29
741.12	239.02
741.45	238.59
741.78	238.28
742.11	238.07
742.44	237.69
742.77	237.35
743.10	237.01
743.43	236.80
743.75	236.36
744.08	236.30
744.41	236.00
744.74	235.74
745.07	235.47
745.40	235.21
745.73	234.96
746.06	234.65
746.39	234.41
746.71	234.13
747.04	233.84
747.37	233.63
747.70	233.37
748.03	233.15
748.36	232.98
748.68	232.65
749.01	232.38
749.34	232.06
749.67	231.90
750.00	231.64
750.33	231.46
750.65	231.14
750.98	230.70
751.31	230.56
751.64	230.33
751.97	230.14
752.29	229.86
752.62	229.65
752.95	229.43
753.28	229.11
753.60	228.84
753.93	228.65
754.26	228.44
754.59	228.17
754.91	227.93
755.24	227.69
755.57	227.45
755.90	227.26
756.22	227.14
756.55	226.90
756.88	226.70
757.20	226.46
757.53	226.26
757.86	226.05
758.19	225.77
758.51	225.64
758.84	225.39
759.17	225.26
759.49	225.08
759.82	224.95
760.15	224.77
760.47	224.67
760.80	224.43
761.13	224.34
761.45	224.16
761.78	224.00
762.11	223.82
762.43	223.66
762.76	223.42
763.08	223.25
763.41	223.14
763.74	222.97
764.06	222.85
764.39	222.73
764.71	222.59
765.04	222.49
765.37	222.32
765.69	222.13
766.02	222.02
766.34	221.85
766.67	221.66
767.00	221.64
767.32	221.54
767.65	221.52
767.97	221.37
768.30	221.30
768.62	221.11
768.95	220.97
769.27	220.88
769.60	220.82
769.92	220.71
770.25	220.56
770.57	220.47
770.90	220.30
771.22	220.20
771.55	220.09
771.87	220.03
772.20	219.94
772.52	220.03
772.85	219.96
773.17	219.92
773.50	219.77
773.82	219.60
774.15	219.45
774.47	219.24
774.80	219.16
775.12	219.12
775.45	219.12
775.77	219.06
776.09	219.00
776.42	218.90
776.74	218.88
777.07	218.76
777.39	218.64
777.72	218.57
778.04	218.44
778.36	218.41
778.69	218.27
779.01	218.20
779.33	218.07
779.66	217.93
779.98	217.82
780.31	217.80
780.63	217.83
780.95	217.78
781.28	217.70
781.60	217.54
781.92	217.41
782.25	217.36
782.57	217.27
782.89	217.18
783.22	217.15
783.54	217.03
783.86	217.00
784.19	216.95
784.51	216.89
784.83	216.77
785.16	216.61
785.48	216.58
785.80	216.50
786.12	216.38
786.45	216.30
786.77	216.18
787.09	216.03
787.42	215.91
787.74	215.86
788.06	215.84
788.38	215.83
788.71	215.75
789.03	215.62
789.35	215.62
789.67	215.57
789.99	215.51
790.32	215.48
790.64	215.42
790.96	215.49
791.28	215.41
791.61	215.33
791.93	215.34
792.25	215.31
792.57	215.39
792.89	215.29
793.21	215.25
793.54	215.23
793.86	215.35
794.18	215.30
794.50	215.27
794.82	215.20
795.14	215.12
795.47	215.14
795.79	215.14
796.11	215.06
796.43	215.09
796.75	214.98
797.07	214.91
797.39	214.85
797.71	214.66
798.04	214.62
798.36	214.63
798.68	214.55
799.00	214.47
799.32	214.36
799.64	214.34
799.96	214.27
800.28	214.25
800.60	214.10
800.92	214.06
801.24	214.01
801.56	214.00
801.89	213.96
802.21	213.93
802.53	213.85
802.85	213.82
803.17	213.74
803.49	213.80
803.81	213.75
804.13	213.71
804.45	213.69
804.77	213.71
805.09	213.74
805.41	213.73
805.73	213.65
806.05	213.57
806.37	213.57
806.69	213.61
807.01	213.64
807.33	213.65
807.65	213.60
807.97	213.63
808.28	213.60
808.60	213.60
808.92	213.51
809.24	213.62
809.56	213.63
809.88	213.52
810.20	213.42
810.52	213.43
810.84	213.43
811.16	213.45
811.48	213.38
811.80	213.39
812.12	213.40
812.43	213.44
812.75	213.48
813.07	213.50
813.39	213.43
813.71	213.39
814.03	213.39
814.35	213.31
814.67	213.18
814.98	213.14
815.30	213.07
815.62	213.10
815.94	212.87
816.26	212.81
816.58	212.73
816.89	212.74
817.21	212.67
817.53	212.64
817.85	212.55
818.17	212.52
818.48	212.43
818.80	212.45
819.12	212.44
819.44	212.36
819.76	212.24
820.07	212.31
820.39	212.21
820.71	212.17
821.03	212.14
821.34	212.20
821.66	212.20
821.98	212.22
822.30	212.15
822.61	212.33
822.93	212.35
823.25	212.40
823.57	212.42
823.88	212.50
824.20	212.54
824.52	212.57
824.83	212.55
825.15	212.50
825.47	212.50
825.79	212.45
826.10	212.42
826.42	212.38
826.74	212.30
827.05	212.29
827.37	212.22
827.69	212.24
828.00	212.21
828.32	212.15
828.64	212.12
828.95	212.19
829.27	212.10
829.58	212.01
829.90	212.07
830.22	212.07
830.53	211.95
830.85	211.86
831.17	211.81
831.48	211.87
831.80	211.89
832.11	211.79
832.43	211.70
832.75	211.71
833.06	211.85
833.38	211.76
833.69	211.77
834.01	211.81
834.32	211.83
834.64	211.78
834.96	211.84
835.27	211.79
835.59	211.81
835.90	211.77
836.22	211.79
836.53	211.61
836.85	211.48
837.16	211.74
837.48	211.71
837.79	211.78
838.11	211.74
838.42	211.77
838.74	211.86
839.05	211.91
839.37	211.90
839.68	211.85
840.00	211.85
840.31	211.84
840.63	211.77
840.94	211.74
841.26	211.72
841.57	211.73
841.88	211.75
842.20	211.61
842.51	211.56
842.83	211.62
843.14	211.88
843.46	211.94
843.77	211.81
844.08	211.76
844.40	211.72
844.71	211.70
845.03	211.67
845.34	211.60
845.65	211.63
845.97	211.55
846.28	211.49
846.60	211.55
846.91	211.64
847.22	211.72
847.54	211.74
847.85	211.80
848.16	211.73
848.48	211.75
848.79	211.90
849.10	211.91
849.42	211.86
849.73	211.73
850.04	211.69
850.36	211.56
850.67	211.63
850.98	211.64
851.30	211.63
851.61	211.65
851.92	211.74
852.23	211.76
852.55	211.82
852.86	211.82
853.17	211.76
853.49	211.74
853.80	211.75
854.11	211.81
854.42	211.75
854.74	211.82
855.05	211.81
855.36	211.70
855.67	211.72
855.99	211.73
856.30	211.91
856.61	211.94
856.92	211.96
857.23	211.98
857.55	211.96
857.86	211.98
858.17	211.94
858.48	211.78
858.79	211.67
859.11	211.71
859.42	211.68
859.73	211.70
860.04	211.64
860.35	211.55
860.66	211.47
860.98	211.47
861.29	211.40
861.60	211.45
861.91	211.47
862.22	211.50
862.53	211.52
862.84	211.29
863.16	211.38
863.47	211.38
863.78	211.30
864.09	211.25
864.40	211.24
864.71	211.28
865.02	211.31
865.33	211.35
865.64	211.35
865.95	211.36
866.27	211.48
866.58	211.54
866.89	211.64
867.20	211.65
867.51	211.61
867.82	211.60
868.13	211.57
868.44	211.56
868.75	211.52
869.06	211.49
869.37	211.57
869.68	211.51
869.99	211.46
870.30	211.57
870.61	211.62
870.92	211.59
871.23	211.59
871.54	211.65
871.85	211.70
872.16	211.63
872.47	211.58
872.78	211.52
873.09	211.47
873.40	211.36
873.71	211.36
874.02	211.38
874.33	211.45
874.64	211.40
874.95	211.42
875.26	211.45
875.56	211.45
875.87	211.38
876.18	211.38
876.49	211.57
876.80	211.50
877.11	211.46
877.42	211.50
877.73	211.50
878.04	211.50
878.35	211.47
878.66	211.54
878.96	211.61
879.27	211.61
879.58	211.62
879.89	211.64
880.20	211.61
880.51	211.67
880.82	211.65
881.12	211.70
881.43	211.61
881.74	211.51
882.05	211.50
882.36	211.48
882.67	211.47
882.97	211.33
883.28	211.35
883.59	211.34
883.90	211.37
884.21	211.34
884.51	211.31
884.82	211.29
885.13	211.34
885.44	211.28
885.74	211.24
886.05	211.14
886.36	211.15
886.67	211.16
886.98	211.27
887.28	211.28
887.59	211.27
887.90	211.30
888.20	211.33
888.51	211.37
888.82	211.40
889.13	211.39
889.43	211.53
889.74	211.48
890.05	211.50
890.35	211.45
890.66	211.49
890.97	211.46
891.28	211.39
891.58	211.29
891.89	211.30
892.20	211.25
892.50	211.32
892.81	211.34
893.12	211.33
893.42	211.20
893.73	211.24
894.04	211.33
894.34	211.39
894.65	211.33
894.95	211.38
895.26	211.41
895.57	211.48
895.87	211.28
896.18	211.33
896.48	211.34
896.79	211.36
897.10	211.37
897.40	211.41
897.71	211.52
898.01	211.52
898.32	211.59
898.63	211.57
898.93	211.56
899.24	211.57
899.54	211.56
899.85	211.55
900.15	211.47
900.46	211.36
900.76	211.34
901.07	211.36
901.38	211.33
901.68	211.37
901.99	211.36
902.29	211.42
902.60	211.45
902.90	211.40
903.21	211.40
903.51	211.35
903.82	211.34
904.12	211.34
904.43	211.30
904.73	211.28
905.03	211.35
905.34	211.52
905.64	211.50
905.95	211.48
906.25	211.45
906.56	211.51
906.86	211.50
907.17	211.50
907.47	211.56
907.77	211.47
908.08	211.38
908.38	211.36
908.69	211.35
908.99	211.38
909.30	211.37
909.60	211.39
909.90	211.41
910.21	211.44
910.51	211.40
910.81	211.54
911.12	211.60
911.42	211.55
911.73	211.40
912.03	211.40
912.33	211.51
912.64	211.51
912.94	211.44
913.24	211.44
913.55	211.34
913.85	211.31
914.15	211.36
914.46	211.35
914.76	211.26
915.06	211.23
915.37	211.16
915.67	211.18
915.97	211.20
916.27	211.16
916.58	211.10
916.88	211.13
917.18	211.04
917.49	211.08
917.79	211.09
918.09	211.09
918.39	211.14
918.70	210.98
919.00	211.03
919.30	211.12
919.60	211.08
919.91	211.14
920.21	211.13
920.51	211.11
920.81	211.11
921.12	211.16
921.42	211.18
921.72	211.21
922.02	211.15
922.32	211.07
922.63	211.05
922.93	211.17
923.23	211.14
923.53	211.15
923.83	211.06
924.13	211.02
924.44	210.99
924.74	210.97
925.04	211.10
925.34	211.03
925.64	210.94
925.94	210.90
926.24	211.04
926.55	211.02
926.85	211.04
927.15	211.10
927.45	211.10
927.75	211.07
928.05	211.02
928.35	211.07
928.65	211.09
928.95	211.09
929.26	211.01
929.56	211.05
929.86	211.05
930.16	210.98
930.46	211.04
930.76	211.03
931.06	210.98
931.36	210.92
931.66	210.99
931.96	211.01
932.26	211.11
932.56	211.01
932.86	211.05
933.16	211.03
933.46	210.99
933.76	210.97
934.06	210.98
934.36	211.11
934.66	211.14
934.96	211.19
935.26	211.15
935.56	211.15
935.86	211.10
936.16	211.02
936.46	210.98
936.76	210.94
937.06	210.98
937.36	210.98
937.66	211.00
937.96	210.95
938.26	211.01
938.56	211.02
938.86	210.98
939.16	211.03
939.46	211.11
939.76	211.14
940.06	211.11
940.35	211.17
940.65	211.09
940.95	211.07
941.25	211.01
941.55	211.04
941.85	211.05
942.15	211.05
942.45	211.11
942.75	211.22
943.04	211.25
943.34	211.26
943.64	211.22
943.94	211.22
944.24	211.25
944.54	211.20
944.84	211.23
945.13	211.19
945.43	211.17
945.73	211.06
946.03	211.01
946.33	210.99
946.62	210.92
946.92	210.82
947.22	210.81
947.52	210.86
947.82	210.88
948.11	210.95
948.41	210.91
948.71	210.87
949.01	210.87
949.31	210.87
949.60	210.81
949.90	210.85
950.20	210.79
950.50	210.84
950.79	210.82
951.09	210.83
951.39	210.82
951.69	210.76
951.98	210.83
952.28	210.85
952.58	210.89
952.87	210.85
953.17	210.91
953.47	210.87
953.76	210.85
954.06	210.79
954.36	210.65
954.66	210.66
954.95	210.72
955.25	210.68
955.55	210.67
955.84	210.75
956.14	210.74
956.44	210.76
956.73	210.68
957.03	210.65
957.32	210.62
957.62	210.66
957.92	210.76
958.21	210.75
958.51	210.88
958.81	210.85
959.10	210.90
959.40	210.91
959.69	210.95
959.99	210.95
960.29	210.93
960.58	210.95
960.88	211.02
961.17	210.95
961.47	211.06
961.76	211.02
962.06	210.98
962.36	210.99
962.65	211.05
962.95	211.07
963.24	211.14
963.54	211.18
963.83	211.15
964.13	211.01
964.42	211.00
964.72	210.84
965.01	210.88
965.31	210.91
965.60	210.86
965.90	210.93
966.19	210.87
966.49	210.91
966.78	210.93
967.08	210.96
967.37	210.96
967.67	210.83
967.96	210.88
968.26	210.82
968.55	210.84
968.85	210.78
969.14	210.74
969.43	210.64
969.73	210.57
970.02	210.60
970.32	210.63
970.61	210.54
970.91	210.51
971.20	210.54
971.49	210.48
971.79	210.56
972.08	210.47
972.38	210.53
972.67	210.51
972.96	210.49
973.26	210.38
973.55	210.50
973.85	210.50
974.14	210.52
974.43	210.55
974.73	210.55
975.02	210.54
975.31	210.57
975.61	210.55
975.90	210.46
976.19	210.45
976.49	210.53
976.78	210.59
977.07	210.62
977.37	210.60
977.66	210.58
977.95	210.49
978.24	210.52
978.54	210.56
978.83	210.55
979.12	210.57
979.42	210.58
979.71	210.54
980.00	210.56
980.29	210.50
980.59	210.46
980.88	210.46
981.17	210.49
981.46	210.50
981.76	210.50
982.05	210.67
982.34	210.65
982.63	210.55
982.93	210.55
983.22	210.54
983.51	210.56
983.80	210.62
984.09	210.66
984.39	210.70
984.68	210.61
984.97	210.62
985.26	210.66
985.55	210.67
985.85	210.60
986.14	210.65
986.43	210.66
986.72	210.68
987.01	210.59
987.30	210.56
987.59	210.47
987.89	210.52
988.18	210.45
988.47	210.42
988.76	210.50
989.05	210.50
989.34	210.52
989.63	210.59
989.92	210.58
990.22	210.58
990.51	210.56
990.80	210.55
991.09	210.57
991.38	210.57
991.67	210.56
991.96	210.58
992.25	210.52
992.54	210.46
992.83	210.44
993.12	210.58
993.41	210.63
993.70	210.75
993.99	210.75
994.28	210.79
994.58	210.85
994.87	210.76
995.16	210.72
995.45	210.70
995.74	210.60
996.03	210.61
996.32	210.60
996.61	210.63
996.90	210.63
997.19	210.58
997.48	210.60
997.77	210.57
998.06	210.55
998.34	210.56
998.63	210.66
998.92	210.65
999.21	210.55
999.50	210.50
999.79	210.47
1000.08	210.50
1000.37	210.46
1000.66	210.42
1000.95	210.54
1001.24	210.60
1001.53	210.65
1001.82	210.58
1002.11	210.52
1002.40	210.60
1002.68	210.60
1002.97	210.81
1003.26	210.81
1003.55	210.73
1003.84	210.72
1004.13	210.87
1004.42	210.89
1004.71	210.86
1004.99	210.87
1005.28	210.88
1005.57	210.96
1005.86	210.95
1006.15	210.91
1006.44	210.90
1006.72	210.91
1007.01	210.83
1007.30	210.90
1007.59	210.83
1007.88	210.93
1008.17	210.95
1008.45	210.88
1008.74	210.82
1009.03	210.65
1009.32	210.65
1009.60	210.67
1009.89	210.67
1010.18	210.52
1010.47	210.55
1010.76	210.56
1011.04	210.64
1011.33	210.68
1011.62	210.60
1011.91	210.65
1012.19	210.69
1012.48	210.72
1012.77	210.74
1013.05	210.80
1013.34	210.70
1013.63	210.73
1013.92	210.76
1014.20	210.73
1014.49	210.75
1014.78	210.76
1015.06	210.74
1015.35	210.81
1015.64	210.81
1015.92	210.85
1016.21	210.84
1016.50	210.80
1016.78	210.81
1017.07	210.79
1017.36	210.80
1017.64	210.87
1017.93	210.82
1018.22	210.75
1018.50	210.69
1018.79	210.65
1019.08	210.58
1019.36	210.59
1019.65	210.56
1019.93	210.58
1020.22	210.60
1020.51	210.65
1020.79	210.65
1021.08	209.95
1021.36	210.00
1021.65	210.00
1021.94	210.30
1022.22	210.05
1022.51	210.35
1022.79	212.25
1023.08	209.90
1023.36	212.25
1023.65	210.90
>>>>>End Processed Spectral Data<<<<<
