SpectraSuite Data File
++++++++++++++++++++++++++++++++++++
Date: Mon Feb 25 17:30:14 EST 2013
User: group
Dark Spectrum Present: No
Reference Spectrum Present: No
Number of Sampled Component Spectra: 1
Spectrometers: USB2E7196
Integration Time (usec): 52000 (USB2E7196)
Spectra Averaged: 20 (USB2E7196)
Boxcar Smoothing: 10 (USB2E7196)
Correct for Electrical Dark: No (USB2E7196)
Strobe/Lamp Enabled: No (USB2E7196)
Correct for Detector Non-linearity: No (USB2E7196)
Correct for Stray Light: No (USB2E7196)
Number of Pixels in Processed Spectrum: 2048
>>>>>Begin Processed Spectral Data<<<<<
339.09	0.00
339.48	198.30
339.86	200.85
340.24	202.20
340.63	203.30
341.01	207.10
341.39	204.95
341.78	207.25
342.16	209.35
342.54	208.45
342.93	198.13
343.31	208.18
343.69	208.75
344.07	209.19
344.46	209.63
344.84	210.04
345.22	210.22
345.60	210.58
345.99	210.73
346.37	210.83
346.75	211.01
347.13	211.06
347.52	211.19
347.90	211.37
348.28	211.43
348.66	211.51
349.05	211.46
349.43	211.50
349.81	211.60
350.19	211.67
350.57	211.70
350.96	211.82
351.34	211.92
351.72	212.07
352.10	212.20
352.48	212.22
352.87	212.29
353.25	212.34
353.63	212.37
354.01	212.51
354.39	212.58
354.77	212.59
355.15	212.78
355.54	212.81
355.92	212.85
356.30	212.95
356.68	213.11
357.06	213.16
357.44	213.19
357.82	213.18
358.20	213.21
358.58	213.30
358.97	213.34
359.35	213.43
359.73	213.48
360.11	213.57
360.49	213.65
360.87	213.67
361.25	213.75
361.63	213.84
362.01	213.89
362.39	213.89
362.77	213.99
363.15	214.00
363.53	214.05
363.91	214.02
364.29	214.02
364.67	213.86
365.05	213.88
365.43	213.96
365.81	214.02
366.19	214.13
366.57	214.19
366.95	214.24
367.33	214.11
367.71	214.05
368.09	214.03
368.47	214.03
368.85	214.02
369.23	214.08
369.61	214.02
369.99	214.03
370.37	214.04
370.75	214.06
371.13	213.99
371.51	213.94
371.89	213.92
372.27	213.90
372.65	213.81
373.03	213.80
373.41	213.66
373.78	213.65
374.16	213.53
374.54	213.45
374.92	213.39
375.30	213.36
375.68	213.27
376.06	213.23
376.44	213.18
376.82	213.08
377.19	213.06
377.57	212.97
377.95	212.88
378.33	212.80
378.71	212.62
379.09	212.56
379.47	212.50
379.84	212.43
380.22	212.37
380.60	212.34
380.98	212.29
381.36	212.26
381.73	212.21
382.11	212.20
382.49	212.14
382.87	212.07
383.25	212.03
383.62	212.28
384.00	212.27
384.38	212.21
384.76	212.23
385.13	212.25
385.51	212.19
385.89	212.14
386.27	212.18
386.64	212.19
387.02	212.16
387.40	212.15
387.78	212.19
388.15	212.14
388.53	212.19
388.91	212.15
389.29	212.15
389.66	212.04
390.04	212.01
390.42	212.13
390.79	212.09
391.17	212.06
391.55	211.77
391.92	211.69
392.30	211.76
392.68	211.66
393.05	211.62
393.43	211.62
393.81	211.59
394.18	211.56
394.56	211.56
394.94	211.62
395.31	211.61
395.69	211.66
396.06	211.72
396.44	211.71
396.82	211.68
397.19	211.77
397.57	211.84
397.95	211.88
398.32	211.78
398.70	211.82
399.07	211.88
399.45	211.94
399.82	211.95
400.20	211.90
400.58	211.96
400.95	211.87
401.33	211.98
401.70	212.14
402.08	212.18
402.45	212.23
402.83	212.30
403.20	212.37
403.58	212.35
403.95	212.42
404.33	212.55
404.71	212.67
405.08	212.80
405.46	212.88
405.83	213.00
406.21	213.15
406.58	213.24
406.96	213.32
407.33	213.47
407.70	213.69
408.08	214.00
408.45	214.23
408.83	214.52
409.20	214.75
409.58	214.90
409.95	215.18
410.33	215.50
410.70	215.79
411.08	216.09
411.45	216.51
411.82	216.88
412.20	217.27
412.57	217.81
412.95	218.17
413.32	218.71
413.69	219.20
414.07	219.76
414.44	220.36
414.82	221.05
415.19	221.84
415.56	222.53
415.94	223.24
416.31	224.11
416.68	224.92
417.06	225.80
417.43	226.80
417.81	227.78
418.18	228.82
418.55	229.92
418.93	231.12
419.30	232.30
419.67	233.59
420.04	234.97
420.42	236.37
420.79	238.12
421.16	239.82
421.54	241.49
421.91	243.30
422.28	245.21
422.66	247.20
423.03	249.18
423.40	251.25
423.77	253.38
424.15	255.58
424.52	257.92
424.89	260.45
425.26	262.77
425.64	265.09
426.01	267.68
426.38	270.31
426.75	273.01
427.13	275.80
427.50	278.70
427.87	281.72
428.24	284.76
428.61	287.58
428.99	290.69
429.36	294.10
429.73	297.40
430.10	300.82
430.47	304.21
430.85	307.70
431.22	311.43
431.59	315.47
431.96	319.31
432.33	323.48
432.70	327.52
433.08	332.39
433.45	336.94
433.82	341.40
434.19	346.39
434.56	351.12
434.93	355.73
435.30	360.28
435.68	365.28
436.05	370.36
436.42	375.20
436.79	379.79
437.16	384.82
437.53	390.05
437.90	395.16
438.27	400.23
438.64	405.45
439.01	410.28
439.38	414.60
439.75	418.66
440.13	423.25
440.50	427.66
440.87	431.14
441.24	434.94
441.61	438.98
441.98	441.90
442.35	445.55
442.72	449.09
443.09	452.68
443.46	454.67
443.83	455.93
444.20	457.17
444.57	458.87
444.94	459.52
445.31	460.22
445.68	460.91
446.05	461.03
446.42	460.32
446.79	459.55
447.16	458.56
447.53	457.97
447.90	455.96
448.27	453.98
448.64	451.15
449.01	449.02
449.37	445.48
449.74	442.06
450.11	438.06
450.48	433.69
450.85	429.11
451.22	425.26
451.59	421.62
451.96	418.17
452.33	413.44
452.70	409.33
453.07	404.36
453.43	399.19
453.80	394.37
454.17	389.85
454.54	385.47
454.91	380.95
455.28	376.32
455.65	372.25
456.02	368.05
456.38	364.48
456.75	359.93
457.12	356.20
457.49	352.55
457.86	348.89
458.23	345.82
458.59	342.48
458.96	339.10
459.33	336.07
459.70	333.01
460.07	330.72
460.43	327.88
460.80	325.23
461.17	323.08
461.54	320.76
461.91	318.41
462.27	316.22
462.64	314.26
463.01	312.20
463.38	310.01
463.74	307.75
464.11	305.96
464.48	304.47
464.85	302.81
465.21	301.47
465.58	300.09
465.95	298.31
466.32	296.87
466.68	295.58
467.05	294.18
467.42	292.81
467.78	291.40
468.15	290.08
468.52	289.14
468.88	287.83
469.25	286.65
469.62	285.76
469.98	284.70
470.35	283.70
470.72	282.80
471.08	281.93
471.45	281.27
471.82	280.53
472.18	279.65
472.55	279.06
472.92	278.41
473.28	277.83
473.65	277.44
474.02	276.94
474.38	276.46
474.75	276.14
475.11	275.76
475.48	275.45
475.85	275.33
476.21	275.16
476.58	275.08
476.94	275.09
477.31	275.13
477.67	275.09
478.04	275.17
478.41	275.41
478.77	275.68
479.14	275.81
479.50	276.10
479.87	276.44
480.23	276.86
480.60	277.23
480.96	277.64
481.33	278.21
481.69	278.88
482.06	279.57
482.42	280.27
482.79	281.08
483.15	281.96
483.52	282.83
483.88	283.77
484.25	284.78
484.61	285.82
484.98	286.83
485.34	288.13
485.71	289.48
486.07	290.76
486.44	292.06
486.80	293.70
487.17	295.25
487.53	296.95
487.90	298.67
488.26	300.58
488.62	302.66
488.99	304.68
489.35	306.75
489.72	309.06
490.08	311.51
490.44	313.88
490.81	316.50
491.17	319.20
491.54	322.07
491.90	325.01
492.26	328.26
492.63	331.56
492.99	334.89
493.36	338.55
493.72	342.36
494.08	346.33
494.45	350.42
494.81	354.91
495.17	359.61
495.54	364.55
495.90	369.65
496.26	374.79
496.63	380.28
496.99	385.90
497.35	391.74
497.72	397.87
498.08	404.39
498.44	411.14
498.80	418.30
499.17	425.64
499.53	433.25
499.89	441.14
500.26	449.23
500.62	457.56
500.98	466.24
501.34	475.37
501.71	484.77
502.07	494.46
502.43	504.37
502.79	514.32
503.16	524.76
503.52	535.51
503.88	546.63
504.24	557.97
504.60	569.75
504.97	581.98
505.33	594.40
505.69	607.50
506.05	620.66
506.41	633.86
506.78	647.63
507.14	661.51
507.50	675.69
507.86	690.51
508.22	705.84
508.59	721.33
508.95	737.09
509.31	753.11
509.67	769.58
510.03	786.29
510.39	803.51
510.75	821.03
511.12	838.84
511.48	857.05
511.84	875.35
512.20	893.95
512.56	913.03
512.92	932.15
513.28	951.25
513.64	970.61
514.00	990.33
514.37	1010.20
514.73	1030.76
515.09	1051.39
515.45	1071.85
515.81	1092.43
516.17	1113.07
516.53	1133.86
516.89	1154.88
517.25	1175.79
517.61	1196.99
517.97	1218.17
518.33	1239.03
518.69	1260.46
519.05	1281.91
519.41	1303.82
519.77	1325.79
520.13	1347.39
520.49	1369.12
520.85	1391.18
521.21	1413.29
521.57	1436.00
521.93	1457.37
522.29	1479.56
522.65	1501.53
523.01	1523.54
523.37	1545.07
523.73	1566.72
524.09	1588.40
524.45	1610.16
524.81	1632.00
525.17	1653.75
525.53	1675.43
525.89	1697.49
526.25	1718.80
526.61	1739.66
526.97	1760.70
527.33	1781.35
527.68	1801.94
528.04	1822.40
528.40	1842.12
528.76	1862.13
529.12	1881.62
529.48	1902.64
529.84	1922.32
530.20	1941.88
530.56	1961.40
530.91	1981.78
531.27	2001.77
531.63	2021.14
531.99	2040.37
532.35	2058.92
532.71	2077.08
533.07	2095.89
533.42	2113.65
533.78	2131.94
534.14	2149.65
534.50	2166.11
534.86	2183.35
535.21	2199.29
535.57	2216.42
535.93	2233.15
536.29	2248.94
536.65	2265.07
537.00	2279.77
537.36	2294.37
537.72	2308.78
538.08	2323.59
538.44	2337.88
538.79	2352.09
539.15	2366.13
539.51	2379.75
539.87	2394.56
540.22	2408.63
540.58	2422.73
540.94	2436.42
541.29	2448.64
541.65	2460.35
542.01	2473.08
542.37	2484.42
542.72	2496.07
543.08	2506.16
543.44	2517.25
543.79	2527.15
544.15	2536.65
544.51	2547.01
544.87	2557.22
545.22	2565.94
545.58	2573.58
545.94	2580.20
546.29	2586.11
546.65	2591.97
547.01	2597.94
547.36	2602.74
547.72	2607.57
548.07	2610.91
548.43	2613.88
548.79	2617.02
549.14	2620.88
549.50	2624.16
549.86	2627.54
550.21	2631.23
550.57	2634.84
550.92	2637.32
551.28	2639.73
551.64	2641.88
551.99	2643.76
552.35	2644.94
552.70	2647.14
553.06	2649.50
553.41	2652.03
553.77	2654.91
554.13	2656.36
554.48	2657.76
554.84	2658.86
555.19	2659.04
555.55	2659.26
555.90	2660.13
556.26	2660.59
556.61	2660.06
556.97	2659.11
557.32	2658.37
557.68	2656.56
558.03	2654.90
558.39	2652.90
558.74	2652.33
559.10	2650.95
559.45	2649.20
559.81	2647.86
560.16	2645.21
560.52	2642.71
560.87	2639.42
561.23	2635.38
561.58	2633.02
561.94	2629.76
562.29	2625.98
562.64	2623.45
563.00	2620.91
563.35	2618.04
563.71	2615.94
564.06	2613.66
564.42	2611.19
564.77	2608.52
565.12	2606.43
565.48	2603.15
565.83	2599.97
566.19	2596.51
566.54	2592.16
566.89	2587.95
567.25	2584.05
567.60	2580.65
567.96	2576.92
568.31	2573.42
568.66	2569.60
569.02	2564.96
569.37	2559.75
569.72	2555.88
570.08	2550.66
570.43	2544.75
570.78	2538.97
571.14	2532.70
571.49	2526.51
571.84	2520.62
572.20	2513.99
572.55	2507.51
572.90	2500.74
573.26	2493.73
573.61	2486.37
573.96	2479.92
574.31	2472.55
574.67	2464.63
575.02	2456.28
575.37	2447.85
575.72	2439.06
576.08	2431.64
576.43	2423.34
576.78	2415.72
577.13	2407.81
577.49	2400.15
577.84	2392.94
578.19	2385.87
578.54	2378.59
578.90	2371.85
579.25	2363.74
579.60	2354.87
579.95	2345.72
580.30	2338.10
580.66	2330.43
581.01	2321.84
581.36	2312.90
581.71	2304.41
582.06	2296.13
582.42	2288.43
582.77	2279.49
583.12	2271.07
583.47	2262.27
583.82	2254.28
584.17	2245.40
584.53	2236.40
584.88	2227.61
585.23	2218.85
585.58	2209.25
585.93	2200.10
586.28	2190.94
586.63	2182.27
586.98	2174.48
587.34	2166.60
587.69	2157.65
588.04	2148.74
588.39	2140.55
588.74	2131.71
589.09	2123.46
589.44	2114.34
589.79	2106.04
590.14	2098.41
590.49	2090.39
590.84	2081.86
591.19	2074.10
591.54	2065.94
591.89	2056.47
592.25	2047.58
592.60	2038.23
592.95	2029.60
593.30	2020.16
593.65	2010.98
594.00	2001.50
594.35	1993.32
594.70	1984.61
595.05	1976.42
595.40	1968.06
595.75	1959.04
596.10	1951.13
596.45	1943.18
596.80	1935.43
597.15	1927.39
597.50	1918.89
597.85	1910.62
598.19	1902.82
598.54	1894.43
598.89	1887.05
599.24	1880.57
599.59	1873.59
599.94	1867.17
600.29	1859.84
600.64	1852.51
600.99	1844.25
601.34	1837.78
601.69	1829.70
602.04	1821.77
602.39	1813.82
602.74	1806.39
603.08	1800.04
603.43	1793.36
603.78	1785.73
604.13	1778.31
604.48	1770.28
604.83	1763.57
605.18	1757.33
605.53	1749.64
605.87	1742.32
606.22	1735.50
606.57	1727.77
606.92	1720.06
607.27	1712.20
607.62	1705.18
607.96	1698.55
608.31	1692.91
608.66	1685.28
609.01	1677.90
609.36	1670.55
609.70	1662.98
610.05	1655.62
610.40	1647.82
610.75	1639.32
611.10	1631.77
611.44	1623.03
611.79	1614.58
612.14	1605.60
612.49	1596.00
612.83	1587.83
613.18	1578.50
613.53	1569.00
613.88	1559.99
614.22	1551.27
614.57	1542.40
614.92	1533.25
615.27	1524.27
615.61	1514.69
615.96	1505.70
616.31	1497.54
616.65	1490.01
617.00	1482.09
617.35	1473.82
617.70	1465.36
618.04	1457.08
618.39	1447.88
618.74	1439.93
619.08	1431.92
619.43	1424.08
619.78	1416.79
620.12	1408.99
620.47	1401.76
620.82	1393.68
621.16	1385.50
621.51	1377.41
621.85	1369.35
622.20	1361.16
622.55	1352.85
622.89	1345.09
623.24	1337.61
623.59	1329.04
623.93	1320.38
624.28	1312.40
624.62	1304.25
624.97	1296.18
625.32	1288.59
625.66	1281.74
626.01	1274.75
626.35	1267.85
626.70	1260.40
627.04	1252.89
627.39	1245.54
627.73	1238.15
628.08	1231.57
628.43	1224.56
628.77	1217.65
629.12	1210.41
629.46	1204.04
629.81	1197.38
630.15	1190.07
630.50	1182.86
630.84	1175.93
631.19	1169.34
631.53	1162.66
631.88	1155.49
632.22	1148.19
632.57	1141.51
632.91	1134.15
633.26	1126.60
633.60	1119.42
633.95	1112.68
634.29	1105.45
634.64	1098.85
634.98	1092.20
635.32	1085.23
635.67	1079.06
636.01	1072.60
636.36	1066.20
636.70	1059.71
637.05	1053.17
637.39	1047.08
637.73	1041.18
638.08	1035.40
638.42	1029.58
638.77	1023.43
639.11	1017.35
639.45	1011.60
639.80	1005.46
640.14	999.47
640.49	993.58
640.83	987.66
641.17	981.70
641.52	975.92
641.86	969.61
642.20	963.52
642.55	957.01
642.89	950.56
643.23	944.22
643.58	938.47
643.92	931.99
644.26	926.07
644.61	920.17
644.95	914.14
645.29	908.30
645.64	901.89
645.98	895.70
646.32	889.98
646.66	884.06
647.01	878.14
647.35	872.32
647.69	866.27
648.04	860.46
648.38	854.61
648.72	848.72
649.06	842.88
649.41	836.99
649.75	831.55
650.09	826.02
650.43	820.38
650.78	814.38
651.12	808.73
651.46	803.04
651.80	797.24
652.14	791.53
652.49	785.64
652.83	780.06
653.17	774.05
653.51	768.28
653.85	762.82
654.20	757.17
654.54	751.57
654.88	746.30
655.22	740.60
655.56	734.89
655.90	729.37
656.25	723.94
656.59	718.59
656.93	713.64
657.27	708.46
657.61	703.25
657.95	698.45
658.29	693.45
658.64	688.60
658.98	683.65
659.32	678.38
659.66	673.39
660.00	668.15
660.34	663.36
660.68	658.38
661.02	653.38
661.36	648.67
661.70	643.89
662.05	639.30
662.39	635.01
662.73	630.92
663.07	626.79
663.41	622.48
663.75	618.25
664.09	613.56
664.43	609.10
664.77	604.77
665.11	600.30
665.45	596.02
665.79	591.66
666.13	587.45
666.47	583.46
666.81	579.49
667.15	575.81
667.49	572.06
667.83	568.30
668.17	564.75
668.51	560.99
668.85	557.44
669.19	553.84
669.53	550.10
669.87	546.05
670.21	542.32
670.55	538.65
670.89	535.19
671.23	531.88
671.57	528.66
671.91	525.30
672.25	521.93
672.58	518.58
672.92	515.15
673.26	511.98
673.60	508.70
673.94	505.38
674.28	502.07
674.62	498.94
674.96	495.90
675.30	492.84
675.64	489.73
675.97	486.60
676.31	483.66
676.65	480.80
676.99	478.25
677.33	475.35
677.67	472.53
678.01	469.54
678.34	466.57
678.68	463.59
679.02	460.62
679.36	457.88
679.70	455.28
680.04	452.63
680.37	449.82
680.71	447.28
681.05	444.73
681.39	442.18
681.73	439.55
682.06	437.11
682.40	434.55
682.74	432.05
683.08	429.75
683.42	427.23
683.75	424.65
684.09	422.07
684.43	419.70
684.77	417.10
685.10	414.70
685.44	412.35
685.78	410.04
686.12	408.08
686.45	405.80
686.79	403.53
687.13	401.26
687.46	399.05
687.80	396.82
688.14	394.64
688.48	392.52
688.81	390.36
689.15	388.13
689.49	385.94
689.82	383.82
690.16	381.29
690.50	379.15
690.83	377.08
691.17	374.98
691.51	372.90
691.84	370.93
692.18	368.98
692.52	367.18
692.85	365.38
693.19	363.38
693.52	361.60
693.86	359.60
694.20	357.85
694.53	356.11
694.87	354.34
695.21	352.52
695.54	350.65
695.88	348.83
696.21	347.05
696.55	345.31
696.88	343.54
697.22	342.12
697.56	340.58
697.89	338.94
698.23	337.37
698.56	335.77
698.90	334.37
699.23	332.72
699.57	331.08
699.90	329.46
700.24	327.83
700.58	326.22
700.91	324.76
701.25	323.48
701.58	321.99
701.92	320.56
702.25	319.16
702.59	317.86
702.92	316.63
703.26	315.37
703.59	314.11
703.93	313.13
704.26	311.93
704.60	310.60
704.93	309.48
705.26	308.26
705.60	307.09
705.93	305.80
706.27	304.68
706.60	303.68
706.94	302.62
707.27	301.55
707.61	300.48
707.94	299.40
708.27	298.17
708.61	297.15
708.94	296.04
709.28	295.02
709.61	293.95
709.94	292.91
710.28	291.89
710.61	290.89
710.95	289.71
711.28	288.76
711.61	287.78
711.95	286.71
712.28	285.75
712.61	284.80
712.95	283.95
713.28	283.09
713.61	282.19
713.95	281.31
714.28	280.49
714.61	279.53
714.95	278.72
715.28	277.85
715.61	276.87
715.95	276.05
716.28	275.13
716.61	274.28
716.95	273.49
717.28	272.74
717.61	271.92
717.94	271.19
718.28	270.37
718.61	269.67
718.94	269.05
719.27	268.33
719.61	267.68
719.94	266.99
720.27	266.23
720.60	265.45
720.94	264.68
721.27	263.99
721.60	263.43
721.93	262.76
722.27	262.20
722.60	261.68
722.93	261.14
723.26	260.63
723.59	260.04
723.93	259.45
724.26	258.91
724.59	258.42
724.92	257.81
725.25	257.31
725.59	256.80
725.92	256.27
726.25	255.74
726.58	255.15
726.91	254.60
727.24	254.14
727.57	253.65
727.91	253.15
728.24	252.75
728.57	252.25
728.90	251.88
729.23	251.35
729.56	250.96
729.89	250.45
730.22	250.05
730.55	249.59
730.89	249.21
731.22	248.69
731.55	248.22
731.88	247.88
732.21	247.43
732.54	246.94
732.87	246.42
733.20	246.00
733.53	245.69
733.86	245.36
734.19	244.98
734.52	244.65
734.85	244.39
735.18	243.94
735.51	243.65
735.84	243.25
736.17	242.88
736.50	242.49
736.83	242.34
737.16	241.96
737.49	241.64
737.82	241.24
738.15	240.92
738.48	240.58
738.81	240.25
739.14	239.95
739.47	239.61
739.80	239.25
740.13	239.02
740.46	238.73
740.79	238.35
741.12	237.96
741.45	237.57
741.78	237.21
742.11	236.94
742.44	236.55
742.77	236.21
743.10	236.00
743.43	235.66
743.75	235.20
744.08	235.07
744.41	234.80
744.74	234.55
745.07	234.32
745.40	234.04
745.73	233.83
746.06	233.52
746.39	233.25
746.71	233.08
747.04	232.73
747.37	232.36
747.70	232.09
748.03	231.84
748.36	231.64
748.68	231.33
749.01	231.10
749.34	230.90
749.67	230.71
750.00	230.48
750.33	230.38
750.65	230.14
750.98	229.72
751.31	229.46
751.64	229.22
751.97	229.02
752.29	228.86
752.62	228.54
752.95	228.28
753.28	228.08
753.60	227.87
753.93	227.75
754.26	227.55
754.59	227.33
754.91	227.13
755.24	226.93
755.57	226.74
755.90	226.44
756.22	226.27
756.55	226.14
756.88	225.92
757.20	225.59
757.53	225.36
757.86	225.15
758.19	225.11
758.51	224.87
758.84	224.61
759.17	224.36
759.49	224.23
759.82	224.15
760.15	224.02
760.47	223.85
760.80	223.61
761.13	223.45
761.45	223.29
761.78	223.16
762.11	223.04
762.43	222.96
762.76	222.90
763.08	222.76
763.41	222.55
763.74	222.49
764.06	222.35
764.39	222.26
764.71	222.13
765.04	221.90
765.37	221.84
765.69	221.72
766.02	221.58
766.34	221.47
766.67	221.37
767.00	221.24
767.32	221.19
767.65	221.19
767.97	221.13
768.30	221.11
768.62	221.09
768.95	220.94
769.27	220.80
769.60	220.73
769.92	220.60
770.25	220.43
770.57	220.22
770.90	220.11
771.22	220.05
771.55	219.97
771.87	219.92
772.20	219.75
772.52	219.81
772.85	219.95
773.17	219.81
773.50	219.68
773.82	219.60
774.15	219.35
774.47	219.15
774.80	219.02
775.12	218.87
775.45	218.68
775.77	218.63
776.09	218.54
776.42	218.40
776.74	218.33
777.07	218.23
777.39	218.24
777.72	218.21
778.04	218.12
778.36	218.09
778.69	218.01
779.01	218.01
779.33	217.80
779.66	217.57
779.98	217.51
780.31	217.44
780.63	217.41
780.95	217.50
781.28	217.45
781.60	217.36
781.92	217.32
782.25	217.24
782.57	217.16
782.89	217.03
783.22	216.98
783.54	216.87
783.86	216.85
784.19	216.80
784.51	216.78
784.83	216.74
785.16	216.69
785.48	216.61
785.80	216.59
786.12	216.61
786.45	216.49
786.77	216.40
787.09	216.33
787.42	216.24
787.74	216.14
788.06	216.11
788.38	216.09
788.71	216.04
789.03	216.03
789.35	216.02
789.67	216.01
789.99	215.96
790.32	215.94
790.64	215.93
790.96	215.94
791.28	215.76
791.61	215.64
791.93	215.53
792.25	215.43
792.57	215.46
792.89	215.33
793.21	215.29
793.54	215.33
793.86	215.30
794.18	215.27
794.50	215.25
794.82	215.14
795.14	215.11
795.47	215.07
795.79	215.05
796.11	214.97
796.43	214.98
796.75	214.98
797.07	214.93
797.39	214.92
797.71	214.81
798.04	214.82
798.36	214.79
798.68	214.80
799.00	214.79
799.32	214.65
799.64	214.61
799.96	214.62
800.28	214.64
800.60	214.61
800.92	214.59
801.24	214.50
801.56	214.55
801.89	214.52
802.21	214.50
802.53	214.40
802.85	214.37
803.17	214.36
803.49	214.34
803.81	214.25
804.13	214.16
804.45	214.05
804.77	214.06
805.09	214.04
805.41	213.89
805.73	213.88
806.05	213.85
806.37	213.80
806.69	213.75
807.01	213.72
807.33	213.64
807.65	213.58
807.97	213.65
808.28	213.56
808.60	213.54
808.92	213.50
809.24	213.61
809.56	213.54
809.88	213.44
810.20	213.40
810.52	213.45
810.84	213.46
811.16	213.46
811.48	213.45
811.80	213.49
812.12	213.56
812.43	213.55
812.75	213.51
813.07	213.54
813.39	213.52
813.71	213.44
814.03	213.40
814.35	213.31
814.67	213.15
814.98	213.12
815.30	213.05
815.62	212.99
815.94	212.81
816.26	212.85
816.58	212.85
816.89	212.82
817.21	212.73
817.53	212.69
817.85	212.71
818.17	212.69
818.48	212.66
818.80	212.63
819.12	212.62
819.44	212.63
819.76	212.59
820.07	212.53
820.39	212.48
820.71	212.48
821.03	212.48
821.34	212.45
821.66	212.50
821.98	212.50
822.30	212.48
822.61	212.64
822.93	212.54
823.25	212.50
823.57	212.53
823.88	212.64
824.20	212.65
824.52	212.64
824.83	212.60
825.15	212.54
825.47	212.57
825.79	212.55
826.10	212.48
826.42	212.42
826.74	212.41
827.05	212.41
827.37	212.42
827.69	212.45
828.00	212.52
828.32	212.54
828.64	212.58
828.95	212.66
829.27	212.61
829.58	212.71
829.90	212.71
830.22	212.69
830.53	212.60
830.85	212.55
831.17	212.44
831.48	212.43
831.80	212.42
832.11	212.42
832.43	212.36
832.75	212.30
833.06	212.46
833.38	212.45
833.69	212.49
834.01	212.51
834.32	212.49
834.64	212.44
834.96	212.37
835.27	212.38
835.59	212.23
835.90	212.19
836.22	212.14
836.53	212.14
836.85	212.11
837.16	212.27
837.48	212.28
837.79	212.35
838.11	212.37
838.42	212.37
838.74	212.38
839.05	212.45
839.37	212.50
839.68	212.32
840.00	212.28
840.31	212.28
840.63	212.27
840.94	212.21
841.26	212.18
841.57	212.22
841.88	212.17
842.20	212.20
842.51	212.14
842.83	212.12
843.14	212.27
843.46	212.21
843.77	212.09
844.08	212.06
844.40	211.99
844.71	211.91
845.03	211.93
845.34	211.89
845.65	211.85
845.97	211.84
846.28	211.85
846.60	211.90
846.91	211.82
847.22	211.80
847.54	211.86
847.85	211.87
848.16	211.84
848.48	211.84
848.79	211.85
849.10	211.87
849.42	211.85
849.73	211.71
850.04	211.75
850.36	211.72
850.67	211.74
850.98	211.75
851.30	211.81
851.61	211.78
851.92	211.79
852.23	211.82
852.55	211.84
852.86	211.85
853.17	211.88
853.49	211.97
853.80	212.02
854.11	212.06
854.42	212.15
854.74	212.09
855.05	212.03
855.36	212.03
855.67	212.08
855.99	212.09
856.30	212.31
856.61	212.23
856.92	212.25
857.23	212.26
857.55	212.25
857.86	212.31
858.17	212.30
858.48	212.24
858.79	212.15
859.11	212.15
859.42	212.11
859.73	212.07
860.04	212.03
860.35	211.99
860.66	211.83
860.98	211.72
861.29	211.78
861.60	211.82
861.91	211.87
862.22	211.76
862.53	211.73
862.84	211.53
863.16	211.65
863.47	211.63
863.78	211.52
864.09	211.59
864.40	211.55
864.71	211.62
865.02	211.61
865.33	211.66
865.64	211.63
865.95	211.67
866.27	211.80
866.58	211.84
866.89	211.85
867.20	211.90
867.51	211.86
867.82	211.81
868.13	211.91
868.44	211.81
868.75	211.93
869.06	211.98
869.37	211.92
869.68	211.82
869.99	211.89
870.30	212.00
870.61	211.93
870.92	211.87
871.23	211.81
871.54	211.89
871.85	211.94
872.16	211.90
872.47	211.90
872.78	211.73
873.09	211.68
873.40	211.63
873.71	211.65
874.02	211.67
874.33	211.70
874.64	211.61
874.95	211.71
875.26	211.61
875.56	211.58
875.87	211.56
876.18	211.61
876.49	211.70
876.80	211.64
877.11	211.65
877.42	211.70
877.73	211.68
878.04	211.66
878.35	211.52
878.66	211.60
878.96	211.57
879.27	211.57
879.58	211.56
879.89	211.55
880.20	211.59
880.51	211.58
880.82	211.55
881.12	211.58
881.43	211.47
881.74	211.42
882.05	211.38
882.36	211.44
882.67	211.37
882.97	211.15
883.28	211.12
883.59	211.06
883.90	210.97
884.21	211.01
884.51	210.98
884.82	211.05
885.13	211.08
885.44	211.07
885.74	211.05
886.05	211.05
886.36	211.06
886.67	210.91
886.98	211.02
887.28	211.05
887.59	210.97
887.90	211.05
888.20	211.00
888.51	211.03
888.82	211.02
889.13	211.05
889.43	211.23
889.74	211.23
890.05	211.30
890.35	211.34
890.66	211.29
890.97	211.20
891.28	211.14
891.58	211.06
891.89	211.04
892.20	210.98
892.50	210.94
892.81	210.96
893.12	211.08
893.42	211.00
893.73	210.97
894.04	210.97
894.34	210.84
894.65	210.95
894.95	210.92
895.26	210.86
895.57	210.92
895.87	210.77
896.18	210.79
896.48	210.80
896.79	210.84
897.10	210.87
897.40	210.93
897.71	210.92
898.01	210.92
898.32	210.95
898.63	211.05
898.93	211.09
899.24	211.07
899.54	210.97
899.85	210.92
900.15	210.97
900.46	210.99
900.76	211.14
901.07	211.08
901.38	211.07
901.68	211.15
901.99	211.01
902.29	211.00
902.60	211.05
902.90	211.01
903.21	210.95
903.51	210.90
903.82	210.95
904.12	210.92
904.43	210.95
904.73	210.98
905.03	210.96
905.34	211.10
905.64	211.03
905.95	211.06
906.25	211.07
906.56	211.11
906.86	211.13
907.17	211.07
907.47	211.07
907.77	211.09
908.08	211.04
908.38	211.13
908.69	211.14
908.99	211.10
909.30	211.12
909.60	211.12
909.90	211.19
910.21	211.10
910.51	211.09
910.81	211.07
911.12	210.99
911.42	210.93
911.73	210.79
912.03	210.77
912.33	210.84
912.64	210.89
912.94	210.82
913.24	210.85
913.55	210.81
913.85	210.87
914.15	210.97
914.46	211.04
914.76	210.97
915.06	210.90
915.37	210.89
915.67	210.86
915.97	210.90
916.27	210.77
916.58	210.75
916.88	210.78
917.18	210.79
917.49	210.99
917.79	211.04
918.09	211.07
918.39	211.14
918.70	211.12
919.00	211.01
919.30	211.13
919.60	211.05
919.91	211.02
920.21	211.01
920.51	210.87
920.81	210.82
921.12	210.87
921.42	210.93
921.72	210.93
922.02	210.99
922.32	210.97
922.63	211.02
922.93	211.16
923.23	211.14
923.53	211.09
923.83	210.93
924.13	210.99
924.44	211.06
924.74	211.18
925.04	211.23
925.34	211.28
925.64	211.18
925.94	211.23
926.24	211.32
926.55	211.29
926.85	211.33
927.15	211.31
927.45	211.35
927.75	211.35
928.05	211.42
928.35	211.37
928.65	211.42
928.95	211.45
929.26	211.37
929.56	211.38
929.86	211.44
930.16	211.47
930.46	211.40
930.76	211.29
931.06	211.15
931.36	211.12
931.66	211.22
931.96	211.21
932.26	211.19
932.56	211.16
932.86	211.09
933.16	211.08
933.46	211.10
933.76	211.05
934.06	211.05
934.36	211.04
934.66	211.05
934.96	211.02
935.26	211.05
935.56	211.04
935.86	211.04
936.16	211.06
936.46	210.97
936.76	210.94
937.06	210.97
937.36	210.92
937.66	210.90
937.96	210.86
938.26	210.79
938.56	210.81
938.86	210.76
939.16	210.88
939.46	210.93
939.76	210.90
940.06	210.96
940.35	210.90
940.65	210.85
940.95	210.84
941.25	210.84
941.55	210.80
941.85	210.85
942.15	210.90
942.45	210.89
942.75	210.98
943.04	211.01
943.34	210.99
943.64	211.03
943.94	211.00
944.24	210.97
944.54	211.01
944.84	210.92
945.13	210.85
945.43	210.86
945.73	210.82
946.03	210.85
946.33	210.81
946.62	210.82
946.92	210.77
947.22	210.78
947.52	210.76
947.82	210.82
948.11	210.79
948.41	210.70
948.71	210.70
949.01	210.68
949.31	210.65
949.60	210.63
949.90	210.69
950.20	210.65
950.50	210.62
950.79	210.64
951.09	210.74
951.39	210.84
951.69	210.85
951.98	210.97
952.28	210.99
952.58	210.96
952.87	211.00
953.17	211.06
953.47	211.06
953.76	211.14
954.06	211.15
954.36	211.15
954.66	211.20
954.95	211.19
955.25	211.19
955.55	211.23
955.84	211.21
956.14	211.15
956.44	211.24
956.73	211.28
957.03	211.25
957.32	211.26
957.62	211.32
957.92	211.32
958.21	211.26
958.51	211.45
958.81	211.51
959.10	211.56
959.40	211.60
959.69	211.64
959.99	211.64
960.29	211.58
960.58	211.63
960.88	211.72
961.17	211.78
961.47	211.80
961.76	211.86
962.06	211.89
962.36	211.89
962.65	211.88
962.95	211.95
963.24	211.97
963.54	211.91
963.83	211.82
964.13	211.79
964.42	211.72
964.72	211.51
965.01	211.51
965.31	211.48
965.60	211.43
965.90	211.45
966.19	211.41
966.49	211.43
966.78	211.41
967.08	211.38
967.37	211.33
967.67	211.28
967.96	211.27
968.26	211.30
968.55	211.39
968.85	211.37
969.14	211.26
969.43	211.22
969.73	211.20
970.02	211.24
970.32	211.19
970.61	211.17
970.91	211.14
971.20	211.10
971.49	211.04
971.79	211.03
972.08	210.92
972.38	210.86
972.67	210.84
972.96	210.85
973.26	210.83
973.55	210.87
973.85	210.88
974.14	210.87
974.43	210.82
974.73	210.79
975.02	210.78
975.31	210.83
975.61	210.85
975.90	210.92
976.19	210.81
976.49	210.83
976.78	210.95
977.07	211.03
977.37	211.00
977.66	211.01
977.95	211.06
978.24	211.15
978.54	211.23
978.83	211.19
979.12	211.17
979.42	211.13
979.71	211.07
980.00	211.09
980.29	211.14
980.59	211.14
980.88	211.15
981.17	211.11
981.46	211.12
981.76	211.11
982.05	211.17
982.34	211.17
982.63	211.17
982.93	211.11
983.22	211.12
983.51	211.19
983.80	211.24
984.09	211.25
984.39	211.17
984.68	211.10
984.97	211.12
985.26	211.09
985.55	211.05
985.85	211.05
986.14	211.03
986.43	210.94
986.72	210.92
987.01	210.89
987.30	210.91
987.59	210.89
987.89	210.93
988.18	210.79
988.47	210.81
988.76	210.82
989.05	210.78
989.34	210.70
989.63	210.69
989.92	210.70
990.22	210.64
990.51	210.67
990.80	210.62
991.09	210.68
991.38	210.68
991.67	210.73
991.96	210.72
992.25	210.76
992.54	210.76
992.83	210.78
993.12	210.79
993.41	210.86
993.70	210.90
993.99	210.90
994.28	210.90
994.58	210.96
994.87	210.93
995.16	210.95
995.45	211.01
995.74	210.97
996.03	210.99
996.32	210.94
996.61	211.00
996.90	211.08
997.19	211.03
997.48	211.02
997.77	210.98
998.06	210.94
998.34	210.91
998.63	210.92
998.92	210.96
999.21	210.95
999.50	210.87
999.79	210.82
1000.08	210.83
1000.37	210.91
1000.66	210.89
1000.95	210.93
1001.24	210.90
1001.53	210.84
1001.82	210.85
1002.11	210.79
1002.40	210.82
1002.68	210.79
1002.97	210.86
1003.26	210.88
1003.55	210.89
1003.84	210.84
1004.13	210.90
1004.42	210.88
1004.71	210.86
1004.99	210.81
1005.28	210.83
1005.57	210.87
1005.86	210.86
1006.15	210.87
1006.44	210.79
1006.72	210.79
1007.01	210.74
1007.30	210.78
1007.59	210.75
1007.88	210.72
1008.17	210.70
1008.45	210.69
1008.74	210.70
1009.03	210.64
1009.32	210.65
1009.60	210.62
1009.89	210.70
1010.18	210.68
1010.47	210.68
1010.76	210.63
1011.04	210.60
1011.33	210.66
1011.62	210.69
1011.91	210.64
1012.19	210.61
1012.48	210.57
1012.77	210.63
1013.05	210.74
1013.34	210.82
1013.63	210.92
1013.92	210.85
1014.20	210.83
1014.49	210.85
1014.78	210.81
1015.06	210.74
1015.35	210.76
1015.64	210.79
1015.92	210.80
1016.21	210.82
1016.50	210.84
1016.78	210.95
1017.07	211.00
1017.36	210.97
1017.64	210.96
1017.93	211.09
1018.22	211.07
1018.50	211.21
1018.79	211.14
1019.08	211.03
1019.36	210.97
1019.65	210.93
1019.93	211.05
1020.22	211.14
1020.51	211.25
1020.79	211.29
1021.08	210.35
1021.36	211.75
1021.65	210.35
1021.94	210.45
1022.22	211.20
1022.51	211.35
1022.79	211.65
1023.08	211.50
1023.36	213.10
1023.65	211.15
>>>>>End Processed Spectral Data<<<<<
