SpectraSuite Data File
++++++++++++++++++++++++++++++++++++
Date: Mon Feb 25 17:34:30 EST 2013
User: group
Dark Spectrum Present: No
Reference Spectrum Present: No
Number of Sampled Component Spectra: 1
Spectrometers: USB2E7196
Integration Time (usec): 52000 (USB2E7196)
Spectra Averaged: 20 (USB2E7196)
Boxcar Smoothing: 10 (USB2E7196)
Correct for Electrical Dark: No (USB2E7196)
Strobe/Lamp Enabled: No (USB2E7196)
Correct for Detector Non-linearity: No (USB2E7196)
Correct for Stray Light: No (USB2E7196)
Number of Pixels in Processed Spectrum: 2048
>>>>>Begin Processed Spectral Data<<<<<
339.09	0.00
339.48	199.45
339.86	201.05
340.24	200.90
340.63	202.80
341.01	207.60
341.39	205.30
341.78	207.05
342.16	208.85
342.54	209.40
342.93	198.44
343.31	208.50
343.69	209.05
344.07	209.52
344.46	210.01
344.84	210.40
345.22	210.60
345.60	210.90
345.99	211.04
346.37	211.19
346.75	211.27
347.13	211.35
347.52	211.47
347.90	211.53
348.28	211.60
348.66	211.65
349.05	211.63
349.43	211.69
349.81	211.78
350.19	211.91
350.57	211.96
350.96	212.06
351.34	212.16
351.72	212.27
352.10	212.36
352.48	212.45
352.87	212.55
353.25	212.60
353.63	212.65
354.01	212.85
354.39	213.00
354.77	213.04
355.15	213.25
355.54	213.28
355.92	213.21
356.30	213.35
356.68	213.49
357.06	213.61
357.44	213.66
357.82	213.74
358.20	213.68
358.58	213.75
358.97	213.79
359.35	213.87
359.73	213.90
360.11	213.98
360.49	214.05
360.87	214.10
361.25	214.17
361.63	214.24
362.01	214.24
362.39	214.21
362.77	214.29
363.15	214.21
363.53	214.21
363.91	214.31
364.29	214.29
364.67	214.11
365.05	214.10
365.43	214.12
365.81	214.14
366.19	214.21
366.57	214.25
366.95	214.24
367.33	214.21
367.71	214.20
368.09	214.26
368.47	214.23
368.85	214.23
369.23	214.20
369.61	214.18
369.99	214.22
370.37	214.20
370.75	214.24
371.13	214.18
371.51	214.13
371.89	214.10
372.27	214.07
372.65	214.02
373.03	213.95
373.41	213.86
373.78	213.80
374.16	213.69
374.54	213.59
374.92	213.52
375.30	213.46
375.68	213.43
376.06	213.25
376.44	213.14
376.82	213.06
377.19	213.10
377.57	213.00
377.95	212.88
378.33	212.80
378.71	212.72
379.09	212.65
379.47	212.66
379.84	212.55
380.22	212.49
380.60	212.48
380.98	212.51
381.36	212.49
381.73	212.42
382.11	212.42
382.49	212.37
382.87	212.32
383.25	212.21
383.62	212.35
384.00	212.31
384.38	212.30
384.76	212.25
385.13	212.20
385.51	212.20
385.89	212.07
386.27	212.06
386.64	212.06
387.02	212.04
387.40	211.99
387.78	211.96
388.15	212.00
388.53	212.00
388.91	211.92
389.29	211.93
389.66	211.92
390.04	211.94
390.42	211.90
390.79	211.87
391.17	211.87
391.55	211.67
391.92	211.71
392.30	211.78
392.68	211.81
393.05	211.74
393.43	211.68
393.81	211.78
394.18	211.77
394.56	211.70
394.94	211.77
395.31	211.71
395.69	211.87
396.06	211.85
396.44	211.88
396.82	211.95
397.19	212.02
397.57	211.98
397.95	212.03
398.32	212.07
398.70	212.15
399.07	212.22
399.45	212.19
399.82	212.21
400.20	212.17
400.58	212.24
400.95	212.31
401.33	212.40
401.70	212.55
402.08	212.56
402.45	212.72
402.83	212.82
403.20	212.87
403.58	212.85
403.95	212.93
404.33	213.05
404.71	213.10
405.08	213.25
405.46	213.42
405.83	213.50
406.21	213.56
406.58	213.69
406.96	213.86
407.33	214.11
407.70	214.33
408.08	214.70
408.45	214.94
408.83	215.16
409.20	215.39
409.58	215.58
409.95	215.95
410.33	216.19
410.70	216.43
411.08	216.83
411.45	217.19
411.82	217.55
412.20	217.93
412.57	218.48
412.95	218.84
413.32	219.35
413.69	219.93
414.07	220.56
414.44	221.21
414.82	221.86
415.19	222.59
415.56	223.29
415.94	223.96
416.31	224.75
416.68	225.62
417.06	226.65
417.43	227.65
417.81	228.72
418.18	229.80
418.55	231.05
418.93	232.35
419.30	233.66
419.67	235.07
420.04	236.46
420.42	237.93
420.79	239.73
421.16	241.48
421.54	243.26
421.91	245.07
422.28	246.95
422.66	248.95
423.03	250.94
423.40	253.03
423.77	255.28
424.15	257.58
424.52	259.92
424.89	262.47
425.26	264.86
425.64	267.21
426.01	269.85
426.38	272.56
426.75	275.31
427.13	278.17
427.50	281.10
427.87	284.26
428.24	287.35
428.61	290.27
428.99	293.62
429.36	297.08
429.73	300.62
430.10	304.09
430.47	307.58
430.85	311.28
431.22	315.11
431.59	319.30
431.96	323.29
432.33	327.67
432.70	331.88
433.08	336.94
433.45	341.60
433.82	346.29
434.19	351.42
434.56	356.38
434.93	361.15
435.30	365.98
435.68	371.18
436.05	376.37
436.42	381.60
436.79	386.20
437.16	391.29
437.53	396.65
437.90	401.85
438.27	407.11
438.64	412.45
439.01	417.47
439.38	421.79
439.75	426.03
440.13	430.87
440.50	435.42
440.87	439.10
441.24	442.95
441.61	447.03
441.98	450.13
442.35	453.76
442.72	457.45
443.09	460.90
443.46	463.00
443.83	464.36
444.20	465.54
444.57	467.38
444.94	468.00
445.31	468.81
445.68	469.75
446.05	470.02
446.42	469.54
446.79	468.82
447.16	468.02
447.53	467.34
447.90	465.19
448.27	463.01
448.64	460.04
449.01	457.91
449.37	454.35
449.74	450.78
450.11	446.60
450.48	442.11
450.85	437.48
451.22	433.56
451.59	429.81
451.96	426.24
452.33	421.50
452.70	417.31
453.07	412.15
453.43	406.83
453.80	401.83
454.17	396.96
454.54	392.42
454.91	387.62
455.28	383.00
455.65	378.65
456.02	374.40
456.38	370.72
456.75	366.09
457.12	362.21
457.49	358.49
457.86	354.77
458.23	351.58
458.59	348.10
458.96	344.50
459.33	341.31
459.70	338.14
460.07	335.53
460.43	332.60
460.80	329.88
461.17	327.53
461.54	325.04
461.91	322.67
462.27	320.28
462.64	318.17
463.01	315.86
463.38	313.74
463.74	311.42
464.11	309.45
464.48	307.83
464.85	305.99
465.21	304.55
465.58	303.08
465.95	301.28
466.32	299.93
466.68	298.59
467.05	297.19
467.42	295.70
467.78	294.21
468.15	292.98
468.52	291.93
468.88	290.61
469.25	289.42
469.62	288.49
469.98	287.43
470.35	286.51
470.72	285.64
471.08	284.62
471.45	283.95
471.82	283.24
472.18	282.28
472.55	281.69
472.92	280.99
473.28	280.44
473.65	279.87
474.02	279.28
474.38	278.79
474.75	278.51
475.11	278.12
475.48	277.92
475.85	277.66
476.21	277.42
476.58	277.23
476.94	277.20
477.31	277.04
477.67	277.07
478.04	277.18
478.41	277.29
478.77	277.70
479.14	277.87
479.50	278.15
479.87	278.62
480.23	279.01
480.60	279.39
480.96	279.81
481.33	280.51
481.69	281.12
482.06	281.70
482.42	282.25
482.79	283.03
483.15	283.86
483.52	284.85
483.88	285.80
484.25	286.86
484.61	287.98
484.98	289.14
485.34	290.45
485.71	291.71
486.07	293.15
486.44	294.40
486.80	295.91
487.17	297.51
487.53	299.16
487.90	301.09
488.26	303.05
488.62	305.00
488.99	306.95
489.35	309.11
489.72	311.55
490.08	314.02
490.44	316.51
490.81	319.04
491.17	321.73
491.54	324.65
491.90	327.60
492.26	330.79
492.63	334.10
492.99	337.61
493.36	341.27
493.72	345.10
494.08	349.13
494.45	353.40
494.81	357.80
495.17	362.30
495.54	367.05
495.90	372.04
496.26	377.27
496.63	382.89
496.99	388.57
497.35	394.58
497.72	400.81
498.08	407.34
498.44	414.21
498.80	421.37
499.17	428.83
499.53	436.38
499.89	444.35
500.26	452.55
500.62	460.72
500.98	469.56
501.34	478.55
501.71	488.05
502.07	497.58
502.43	507.73
502.79	518.02
503.16	528.72
503.52	539.56
503.88	550.85
504.24	562.22
504.60	574.33
504.97	586.53
505.33	599.02
505.69	612.25
506.05	625.62
506.41	639.13
506.78	652.83
507.14	667.25
507.50	681.68
507.86	696.70
508.22	712.14
508.59	727.62
508.95	743.90
509.31	760.12
509.67	777.04
510.03	794.03
510.39	811.64
510.75	829.47
511.12	847.59
511.48	866.15
511.84	884.92
512.20	903.59
512.56	922.85
512.92	942.56
513.28	962.06
513.64	981.86
514.00	1001.80
514.37	1022.33
514.73	1043.15
515.09	1064.11
515.45	1085.04
515.81	1106.34
516.17	1127.69
516.53	1148.83
516.89	1170.61
517.25	1192.16
517.61	1213.80
517.97	1235.42
518.33	1256.77
518.69	1278.70
519.05	1300.74
519.41	1323.05
519.77	1345.80
520.13	1368.01
520.49	1390.09
520.85	1412.91
521.21	1435.49
521.57	1458.72
521.93	1481.00
522.29	1503.92
522.65	1526.77
523.01	1549.47
523.37	1571.70
523.73	1594.03
524.09	1616.66
524.45	1638.93
524.81	1661.67
525.17	1684.31
525.53	1706.73
525.89	1729.43
526.25	1751.72
526.61	1773.33
526.97	1795.10
527.33	1816.51
527.68	1838.41
528.04	1860.00
528.40	1880.43
528.76	1901.40
529.12	1922.37
529.48	1943.96
529.84	1964.58
530.20	1984.85
530.56	2005.37
530.91	2026.52
531.27	2047.25
531.63	2067.36
531.99	2087.44
532.35	2106.82
532.71	2125.92
533.07	2145.77
533.42	2164.42
533.78	2183.46
534.14	2202.15
534.50	2219.65
534.86	2237.83
535.21	2254.46
535.57	2272.15
535.93	2289.51
536.29	2306.54
536.65	2323.04
537.00	2338.68
537.36	2353.86
537.72	2369.23
538.08	2384.65
538.44	2399.96
538.79	2415.37
539.15	2430.24
539.51	2444.81
539.87	2460.11
540.22	2474.84
540.58	2489.65
540.94	2504.46
541.29	2517.51
541.65	2529.81
542.01	2543.15
542.37	2555.31
542.72	2567.87
543.08	2578.91
543.44	2591.03
543.79	2601.82
544.15	2612.44
544.51	2623.87
544.87	2634.95
545.22	2644.36
545.58	2652.87
545.94	2660.29
546.29	2667.00
546.65	2673.48
547.01	2679.99
547.36	2685.76
547.72	2691.42
548.07	2695.54
548.43	2699.50
548.79	2703.43
549.14	2708.28
549.50	2713.03
549.86	2716.90
550.21	2721.26
550.57	2725.70
550.92	2728.59
551.28	2731.37
551.64	2733.84
551.99	2735.99
552.35	2737.70
552.70	2740.96
553.06	2744.15
553.41	2746.96
553.77	2750.06
554.13	2752.39
554.48	2754.31
554.84	2756.02
555.19	2756.75
555.55	2757.72
555.90	2758.20
556.26	2759.13
556.61	2759.05
556.97	2757.57
557.32	2757.39
557.68	2755.45
558.03	2753.98
558.39	2752.51
558.74	2752.02
559.10	2751.05
559.45	2749.35
559.81	2748.50
560.16	2745.54
560.52	2743.05
560.87	2740.60
561.23	2736.99
561.58	2734.76
561.94	2731.64
562.29	2727.72
562.64	2725.27
563.00	2722.67
563.35	2720.54
563.71	2718.75
564.06	2717.06
564.42	2715.33
564.77	2712.85
565.12	2711.28
565.48	2708.02
565.83	2705.15
566.19	2701.56
566.54	2697.24
566.89	2693.34
567.25	2689.14
567.60	2686.00
567.96	2682.21
568.31	2678.57
568.66	2674.37
569.02	2669.80
569.37	2664.85
569.72	2661.00
570.08	2655.76
570.43	2649.99
570.78	2644.14
571.14	2637.72
571.49	2630.71
571.84	2624.69
572.20	2617.67
572.55	2611.09
572.90	2604.02
573.26	2597.04
573.61	2589.92
573.96	2583.53
574.31	2575.89
574.67	2567.94
575.02	2559.06
575.37	2550.55
575.72	2541.44
576.08	2534.10
576.43	2525.20
576.78	2517.35
577.13	2509.11
577.49	2500.85
577.84	2493.15
578.19	2485.42
578.54	2477.70
578.90	2470.65
579.25	2461.45
579.60	2452.49
579.95	2442.98
580.30	2435.35
580.66	2426.80
581.01	2417.60
581.36	2407.90
581.71	2399.52
582.06	2390.96
582.42	2383.03
582.77	2373.83
583.12	2364.69
583.47	2355.87
583.82	2347.45
584.17	2338.48
584.53	2329.49
584.88	2320.72
585.23	2311.36
585.58	2302.01
585.93	2292.38
586.28	2283.05
586.63	2274.44
586.98	2266.15
587.34	2257.72
587.69	2248.47
588.04	2239.40
588.39	2231.23
588.74	2222.45
589.09	2213.51
589.44	2203.88
589.79	2195.14
590.14	2186.99
590.49	2178.72
590.84	2169.70
591.19	2161.78
591.54	2152.63
591.89	2142.52
592.25	2133.30
592.60	2123.75
592.95	2114.24
593.30	2104.46
593.65	2094.39
594.00	2084.80
594.35	2076.41
594.70	2067.16
595.05	2058.18
595.40	2049.47
595.75	2039.80
596.10	2031.44
596.45	2022.90
596.80	2015.29
597.15	2007.09
597.50	1998.05
597.85	1989.21
598.19	1980.34
598.54	1971.57
598.89	1963.73
599.24	1956.97
599.59	1949.44
599.94	1942.28
600.29	1934.45
600.64	1926.57
600.99	1918.27
601.34	1911.10
601.69	1901.91
602.04	1893.70
602.39	1885.76
602.74	1877.59
603.08	1871.24
603.43	1864.00
603.78	1855.90
604.13	1847.54
604.48	1839.13
604.83	1831.97
605.18	1825.03
605.53	1817.40
605.87	1809.54
606.22	1802.20
606.57	1794.08
606.92	1785.70
607.27	1777.42
607.62	1770.13
607.96	1763.35
608.31	1757.14
608.66	1749.19
609.01	1741.75
609.36	1734.11
609.70	1725.97
610.05	1718.44
610.40	1709.80
610.75	1701.14
611.10	1693.24
611.44	1683.86
611.79	1674.85
612.14	1665.56
612.49	1655.70
612.83	1647.03
613.18	1637.16
613.53	1627.50
613.88	1617.81
614.22	1608.96
614.57	1599.99
614.92	1590.38
615.27	1580.82
615.61	1570.84
615.96	1561.65
616.31	1553.07
616.65	1544.88
617.00	1536.53
617.35	1527.57
617.70	1518.45
618.04	1509.25
618.39	1499.94
618.74	1491.70
619.08	1483.11
619.43	1474.78
619.78	1467.25
620.12	1458.73
620.47	1451.22
620.82	1442.90
621.16	1434.48
621.51	1425.92
621.85	1417.26
622.20	1408.66
622.55	1400.17
622.89	1391.91
623.24	1384.07
623.59	1375.30
623.93	1366.73
624.28	1358.40
624.62	1350.20
624.97	1342.00
625.32	1334.20
625.66	1326.84
626.01	1319.78
626.35	1312.30
626.70	1304.41
627.04	1296.80
627.39	1289.32
627.73	1281.52
628.08	1274.43
628.43	1266.69
628.77	1259.32
629.12	1252.20
629.46	1245.64
629.81	1238.37
630.15	1231.13
630.50	1223.58
630.84	1216.27
631.19	1209.19
631.53	1201.80
631.88	1194.16
632.22	1186.50
632.57	1179.53
632.91	1171.84
633.26	1163.78
633.60	1156.67
633.95	1150.12
634.29	1142.73
634.64	1135.94
634.98	1128.97
635.32	1121.89
635.67	1115.82
636.01	1109.09
636.36	1102.10
636.70	1095.24
637.05	1088.76
637.39	1082.42
637.73	1076.19
638.08	1070.25
638.42	1064.04
638.77	1057.80
639.11	1051.54
639.45	1045.62
639.80	1038.99
640.14	1032.59
640.49	1026.48
640.83	1020.30
641.17	1013.80
641.52	1007.57
641.86	1001.00
642.20	994.77
642.55	987.89
642.89	981.17
643.23	975.00
643.58	969.15
643.92	962.75
644.26	956.42
644.61	950.14
644.95	943.75
645.29	937.46
645.64	930.85
645.98	924.76
646.32	918.81
646.66	912.65
647.01	906.63
647.35	900.77
647.69	894.55
648.04	888.47
648.38	882.37
648.72	876.35
649.06	870.38
649.41	864.39
649.75	858.74
650.09	852.92
650.43	846.88
650.78	840.62
651.12	834.34
651.46	828.53
651.80	822.52
652.14	816.58
652.49	810.37
652.83	804.58
653.17	798.42
653.51	792.55
653.85	786.78
654.20	781.12
654.54	775.38
654.88	769.81
655.22	764.10
655.56	758.21
655.90	752.29
656.25	746.42
656.59	740.74
656.93	735.49
657.27	730.22
657.61	724.69
657.95	719.60
658.29	714.53
658.64	709.43
658.98	704.23
659.32	698.74
659.66	693.77
660.00	688.20
660.34	682.93
660.68	677.77
661.02	672.71
661.36	667.56
661.70	662.65
662.05	657.94
662.39	653.34
662.73	649.02
663.07	644.73
663.41	640.33
663.75	635.79
664.09	630.94
664.43	626.13
664.77	621.80
665.11	617.20
665.45	612.89
665.79	608.39
666.13	603.91
666.47	599.79
666.81	595.58
667.15	591.72
667.49	587.95
667.83	583.90
668.17	579.88
668.51	576.07
668.85	572.23
669.19	568.68
669.53	564.68
669.87	560.47
670.21	556.68
670.55	552.78
670.89	549.37
671.23	546.10
671.57	542.62
671.91	538.81
672.25	535.09
672.58	531.41
672.92	527.82
673.26	524.80
673.60	521.62
673.94	518.30
674.28	515.06
674.62	511.73
674.96	508.62
675.30	505.50
675.64	502.30
675.97	499.09
676.31	495.94
676.65	493.06
676.99	490.32
677.33	487.23
677.67	484.39
678.01	481.21
678.34	478.03
678.68	475.13
679.02	472.31
679.36	469.58
679.70	466.79
680.04	463.91
680.37	460.76
680.71	457.85
681.05	455.15
681.39	452.47
681.73	449.82
682.06	447.25
682.40	444.65
682.74	442.16
683.08	439.51
683.42	436.89
683.75	434.20
684.09	431.65
684.43	429.29
684.77	426.67
685.10	424.16
685.44	421.71
685.78	419.24
686.12	416.94
686.45	414.60
686.79	412.29
687.13	410.16
687.46	408.06
687.80	405.86
688.14	403.56
688.48	401.24
688.81	399.01
689.15	396.70
689.49	394.52
689.82	392.16
690.16	390.01
690.50	387.64
690.83	385.42
691.17	383.00
691.51	380.73
691.84	378.74
692.18	376.68
692.52	374.73
692.85	372.85
693.19	370.94
693.52	368.92
693.86	367.05
694.20	365.08
694.53	363.11
694.87	361.05
695.21	359.08
695.54	357.23
695.88	355.23
696.21	353.35
696.55	351.55
696.88	349.88
697.22	348.02
697.56	346.46
697.89	344.89
698.23	343.34
698.56	341.75
698.90	340.14
699.23	338.56
699.57	336.97
699.90	335.30
700.24	333.48
700.58	331.97
700.91	330.33
701.25	328.79
701.58	327.41
701.92	326.08
702.25	324.75
702.59	323.28
702.92	322.03
703.26	320.77
703.59	319.45
703.93	318.16
704.26	316.89
704.60	315.52
704.93	314.23
705.26	312.97
705.60	311.70
705.93	310.36
706.27	309.12
706.60	308.02
706.94	306.89
707.27	305.80
707.61	304.65
707.94	303.47
708.27	302.32
708.61	301.11
708.94	299.92
709.28	298.70
709.61	297.58
709.94	296.51
710.28	295.43
710.61	294.33
710.95	293.19
711.28	292.31
711.61	291.26
711.95	290.18
712.28	289.18
712.61	288.15
712.95	287.23
713.28	286.24
713.61	285.20
713.95	284.23
714.28	283.41
714.61	282.47
714.95	281.57
715.28	280.63
715.61	279.70
715.95	278.74
716.28	277.90
716.61	277.09
716.95	276.23
717.28	275.34
717.61	274.50
717.94	273.71
718.28	272.84
718.61	272.11
718.94	271.36
719.27	270.62
719.61	269.83
719.94	269.06
720.27	268.30
720.60	267.57
720.94	266.77
721.27	265.91
721.60	265.26
721.93	264.65
722.27	264.09
722.60	263.51
722.93	262.92
723.26	262.40
723.59	261.74
723.93	261.10
724.26	260.58
724.59	259.98
724.92	259.51
725.25	259.01
725.59	258.39
725.92	257.86
726.25	257.27
726.58	256.83
726.91	256.36
727.24	255.88
727.57	255.38
727.91	254.92
728.24	254.51
728.57	254.03
728.90	253.55
729.23	252.98
729.56	252.49
729.89	252.05
730.22	251.55
730.55	251.08
730.89	250.53
731.22	250.02
731.55	249.57
731.88	249.01
732.21	248.53
732.54	248.16
732.87	247.71
733.20	247.38
733.53	246.88
733.86	246.42
734.19	246.03
734.52	245.65
734.85	245.42
735.18	245.13
735.51	244.72
735.84	244.32
736.17	244.04
736.50	243.53
736.83	243.36
737.16	242.94
737.49	242.60
737.82	242.25
738.15	241.90
738.48	241.62
738.81	241.20
739.14	240.79
739.47	240.40
739.80	240.05
740.13	239.70
740.46	239.44
740.79	239.11
741.12	238.73
741.45	238.32
741.78	237.94
742.11	237.55
742.44	237.22
742.77	237.06
743.10	236.73
743.43	236.53
743.75	235.99
744.08	235.98
744.41	235.68
744.74	235.42
745.07	235.07
745.40	234.81
745.73	234.69
746.06	234.39
746.39	234.18
746.71	233.94
747.04	233.64
747.37	233.32
747.70	233.07
748.03	232.83
748.36	232.61
748.68	232.30
749.01	232.05
749.34	231.80
749.67	231.50
750.00	231.22
750.33	231.11
750.65	230.90
750.98	230.40
751.31	230.19
751.64	230.01
751.97	229.95
752.29	229.65
752.62	229.29
752.95	229.04
753.28	228.70
753.60	228.39
753.93	228.22
754.26	227.98
754.59	227.70
754.91	227.49
755.24	227.31
755.57	227.06
755.90	226.86
756.22	226.59
756.55	226.28
756.88	226.08
757.20	225.74
757.53	225.58
757.86	225.37
758.19	225.22
758.51	225.05
758.84	224.77
759.17	224.54
759.49	224.42
759.82	224.40
760.15	224.30
760.47	224.16
760.80	223.93
761.13	223.85
761.45	223.78
761.78	223.60
762.11	223.45
762.43	223.37
762.76	223.19
763.08	223.07
763.41	223.06
763.74	222.97
764.06	222.77
764.39	222.52
764.71	222.41
765.04	222.21
765.37	222.08
765.69	221.96
766.02	221.97
766.34	221.93
766.67	221.69
767.00	221.59
767.32	221.66
767.65	221.66
767.97	221.52
768.30	221.36
768.62	221.22
768.95	221.14
769.27	221.03
769.60	220.94
769.92	220.83
770.25	220.64
770.57	220.50
770.90	220.46
771.22	220.39
771.55	220.29
771.87	220.17
772.20	220.01
772.52	220.01
772.85	220.06
773.17	219.97
773.50	219.96
773.82	219.89
774.15	219.74
774.47	219.53
774.80	219.51
775.12	219.44
775.45	219.38
775.77	219.30
776.09	219.19
776.42	219.22
776.74	219.22
777.07	219.17
777.39	219.11
777.72	219.00
778.04	218.92
778.36	218.85
778.69	218.85
779.01	218.86
779.33	218.58
779.66	218.36
779.98	218.20
780.31	218.09
780.63	218.07
780.95	217.98
781.28	217.93
781.60	217.75
781.92	217.64
782.25	217.60
782.57	217.56
782.89	217.44
783.22	217.29
783.54	217.12
783.86	217.07
784.19	216.98
784.51	217.06
784.83	216.89
785.16	216.83
785.48	216.73
785.80	216.69
786.12	216.70
786.45	216.56
786.77	216.45
787.09	216.37
787.42	216.26
787.74	216.14
788.06	216.04
788.38	216.03
788.71	216.01
789.03	215.91
789.35	215.83
789.67	215.80
789.99	215.75
790.32	215.68
790.64	215.61
790.96	215.74
791.28	215.55
791.61	215.63
791.93	215.60
792.25	215.56
792.57	215.52
792.89	215.45
793.21	215.44
793.54	215.48
793.86	215.44
794.18	215.40
794.50	215.36
794.82	215.27
795.14	215.25
795.47	215.24
795.79	215.23
796.11	215.10
796.43	215.05
796.75	214.97
797.07	214.98
797.39	214.92
797.71	214.69
798.04	214.69
798.36	214.68
798.68	214.62
799.00	214.58
799.32	214.52
799.64	214.50
799.96	214.53
800.28	214.44
800.60	214.40
800.92	214.41
801.24	214.30
801.56	214.33
801.89	214.23
802.21	214.19
802.53	214.09
802.85	214.15
803.17	214.21
803.49	214.25
803.81	214.16
804.13	214.10
804.45	214.05
804.77	214.02
805.09	213.96
805.41	213.90
805.73	213.86
806.05	213.82
806.37	213.77
806.69	213.69
807.01	213.74
807.33	213.70
807.65	213.60
807.97	213.78
808.28	213.68
808.60	213.73
808.92	213.66
809.24	213.83
809.56	213.80
809.88	213.73
810.20	213.62
810.52	213.65
810.84	213.66
811.16	213.71
811.48	213.71
811.80	213.79
812.12	213.73
812.43	213.74
812.75	213.68
813.07	213.69
813.39	213.70
813.71	213.63
814.03	213.58
814.35	213.54
814.67	213.41
814.98	213.45
815.30	213.37
815.62	213.36
815.94	213.20
816.26	213.17
816.58	213.16
816.89	213.25
817.21	213.21
817.53	213.17
817.85	213.10
818.17	213.05
818.48	212.98
818.80	213.09
819.12	213.05
819.44	213.06
819.76	212.98
820.07	212.91
820.39	212.90
820.71	212.94
821.03	212.96
821.34	212.97
821.66	212.97
821.98	212.96
822.30	212.94
822.61	212.98
822.93	212.92
823.25	212.83
823.57	212.80
823.88	212.88
824.20	212.88
824.52	212.91
824.83	212.87
825.15	212.81
825.47	212.78
825.79	212.78
826.10	212.75
826.42	212.76
826.74	212.85
827.05	212.82
827.37	212.75
827.69	212.68
828.00	212.61
828.32	212.60
828.64	212.56
828.95	212.66
829.27	212.69
829.58	212.65
829.90	212.72
830.22	212.70
830.53	212.55
830.85	212.50
831.17	212.34
831.48	212.32
831.80	212.32
832.11	212.22
832.43	212.21
832.75	212.14
833.06	212.25
833.38	212.13
833.69	212.15
834.01	212.17
834.32	212.16
834.64	212.15
834.96	212.09
835.27	212.10
835.59	211.98
835.90	211.86
836.22	211.90
836.53	211.80
836.85	211.69
837.16	211.92
837.48	211.92
837.79	211.97
838.11	212.00
838.42	211.90
838.74	211.99
839.05	211.95
839.37	211.96
839.68	211.86
840.00	211.88
840.31	211.81
840.63	211.85
840.94	211.81
841.26	211.72
841.57	211.77
841.88	211.76
842.20	211.75
842.51	211.73
842.83	211.67
843.14	211.85
843.46	211.88
843.77	211.73
844.08	211.78
844.40	211.79
844.71	211.71
845.03	211.74
845.34	211.64
845.65	211.58
845.97	211.58
846.28	211.56
846.60	211.49
846.91	211.53
847.22	211.43
847.54	211.47
847.85	211.53
848.16	211.55
848.48	211.53
848.79	211.59
849.10	211.62
849.42	211.65
849.73	211.53
850.04	211.51
850.36	211.46
850.67	211.48
850.98	211.42
851.30	211.39
851.61	211.36
851.92	211.38
852.23	211.43
852.55	211.45
852.86	211.46
853.17	211.53
853.49	211.50
853.80	211.60
854.11	211.62
854.42	211.63
854.74	211.58
855.05	211.60
855.36	211.43
855.67	211.49
855.99	211.58
856.30	211.70
856.61	211.65
856.92	211.68
857.23	211.62
857.55	211.64
857.86	211.69
858.17	211.68
858.48	211.67
858.79	211.71
859.11	211.68
859.42	211.62
859.73	211.58
860.04	211.58
860.35	211.53
860.66	211.45
860.98	211.42
861.29	211.44
861.60	211.40
861.91	211.52
862.22	211.47
862.53	211.35
862.84	211.15
863.16	211.25
863.47	211.24
863.78	211.28
864.09	211.34
864.40	211.32
864.71	211.41
865.02	211.44
865.33	211.45
865.64	211.45
865.95	211.50
866.27	211.59
866.58	211.58
866.89	211.60
867.20	211.62
867.51	211.63
867.82	211.56
868.13	211.62
868.44	211.61
868.75	211.64
869.06	211.65
869.37	211.73
869.68	211.63
869.99	211.59
870.30	211.61
870.61	211.61
870.92	211.57
871.23	211.54
871.54	211.52
871.85	211.50
872.16	211.53
872.47	211.46
872.78	211.40
873.09	211.46
873.40	211.43
873.71	211.50
874.02	211.49
874.33	211.56
874.64	211.50
874.95	211.52
875.26	211.40
875.56	211.39
875.87	211.32
876.18	211.36
876.49	211.59
876.80	211.53
877.11	211.45
877.42	211.52
877.73	211.46
878.04	211.43
878.35	211.42
878.66	211.40
878.96	211.42
879.27	211.45
879.58	211.39
879.89	211.39
880.20	211.36
880.51	211.43
880.82	211.45
881.12	211.47
881.43	211.41
881.74	211.45
882.05	211.47
882.36	211.51
882.67	211.55
882.97	211.34
883.28	211.33
883.59	211.37
883.90	211.32
884.21	211.35
884.51	211.39
884.82	211.36
885.13	211.42
885.44	211.41
885.74	211.31
886.05	211.26
886.36	211.26
886.67	211.19
886.98	211.24
887.28	211.19
887.59	211.25
887.90	211.26
888.20	211.28
888.51	211.31
888.82	211.33
889.13	211.33
889.43	211.51
889.74	211.54
890.05	211.50
890.35	211.50
890.66	211.51
890.97	211.44
891.28	211.45
891.58	211.48
891.89	211.59
892.20	211.60
892.50	211.65
892.81	211.64
893.12	211.70
893.42	211.58
893.73	211.54
894.04	211.53
894.34	211.50
894.65	211.45
894.95	211.44
895.26	211.44
895.57	211.49
895.87	211.38
896.18	211.37
896.48	211.46
896.79	211.52
897.10	211.53
897.40	211.58
897.71	211.58
898.01	211.48
898.32	211.47
898.63	211.47
898.93	211.45
899.24	211.45
899.54	211.44
899.85	211.42
900.15	211.48
900.46	211.44
900.76	211.49
901.07	211.52
901.38	211.50
901.68	211.45
901.99	211.39
902.29	211.29
902.60	211.31
902.90	211.24
903.21	211.24
903.51	211.20
903.82	211.21
904.12	211.24
904.43	211.30
904.73	211.25
905.03	211.23
905.34	211.41
905.64	211.40
905.95	211.36
906.25	211.40
906.56	211.40
906.86	211.40
907.17	211.43
907.47	211.45
907.77	211.46
908.08	211.42
908.38	211.41
908.69	211.47
908.99	211.52
909.30	211.52
909.60	211.50
909.90	211.53
910.21	211.55
910.51	211.47
910.81	211.40
911.12	211.40
911.42	211.46
911.73	211.25
912.03	211.34
912.33	211.41
912.64	211.42
912.94	211.35
913.24	211.35
913.55	211.30
913.85	211.26
914.15	211.32
914.46	211.37
914.76	211.38
915.06	211.28
915.37	211.21
915.67	211.22
915.97	211.26
916.27	211.21
916.58	211.22
916.88	211.15
917.18	211.19
917.49	211.27
917.79	211.19
918.09	211.18
918.39	211.14
918.70	211.15
919.00	211.18
919.30	211.29
919.60	211.28
919.91	211.25
920.21	211.28
920.51	211.19
920.81	211.19
921.12	211.21
921.42	211.26
921.72	211.28
922.02	211.30
922.32	211.29
922.63	211.25
922.93	211.29
923.23	211.37
923.53	211.34
923.83	211.26
924.13	211.35
924.44	211.41
924.74	211.42
925.04	211.39
925.34	211.31
925.64	211.26
925.94	211.26
926.24	211.34
926.55	211.28
926.85	211.28
927.15	211.25
927.45	211.23
927.75	211.19
928.05	211.20
928.35	211.15
928.65	211.26
928.95	211.35
929.26	211.28
929.56	211.26
929.86	211.37
930.16	211.35
930.46	211.33
930.76	211.39
931.06	211.36
931.36	211.33
931.66	211.37
931.96	211.42
932.26	211.40
932.56	211.29
932.86	211.32
933.16	211.40
933.46	211.46
933.76	211.45
934.06	211.53
934.36	211.58
934.66	211.62
934.96	211.50
935.26	211.51
935.56	211.59
935.86	211.61
936.16	211.53
936.46	211.55
936.76	211.56
937.06	211.45
937.36	211.41
937.66	211.45
937.96	211.47
938.26	211.40
938.56	211.43
938.86	211.50
939.16	211.61
939.46	211.54
939.76	211.51
940.06	211.47
940.35	211.40
940.65	211.36
940.95	211.33
941.25	211.35
941.55	211.28
941.85	211.18
942.15	211.19
942.45	211.20
942.75	211.19
943.04	211.22
943.34	211.26
943.64	211.23
943.94	211.17
944.24	211.16
944.54	211.17
944.84	211.18
945.13	211.16
945.43	211.04
945.73	211.08
946.03	211.09
946.33	211.09
946.62	211.14
946.92	211.12
947.22	211.08
947.52	211.02
947.82	211.03
948.11	211.07
948.41	211.05
948.71	211.00
949.01	210.96
949.31	210.90
949.60	210.87
949.90	210.90
950.20	210.94
950.50	210.86
950.79	210.83
951.09	210.85
951.39	210.82
951.69	210.82
951.98	210.82
952.28	210.83
952.58	210.81
952.87	210.79
953.17	210.71
953.47	210.74
953.76	210.71
954.06	210.69
954.36	210.65
954.66	210.67
954.95	210.75
955.25	210.80
955.55	210.88
955.84	210.89
956.14	210.93
956.44	210.94
956.73	210.93
957.03	210.92
957.32	210.91
957.62	210.93
957.92	210.93
958.21	210.92
958.51	211.12
958.81	211.22
959.10	211.20
959.40	211.25
959.69	211.31
959.99	211.39
960.29	211.43
960.58	211.42
960.88	211.41
961.17	211.34
961.47	211.42
961.76	211.31
962.06	211.32
962.36	211.25
962.65	211.24
962.95	211.31
963.24	211.30
963.54	211.25
963.83	211.30
964.13	211.28
964.42	211.22
964.72	211.05
965.01	210.96
965.31	210.90
965.60	210.86
965.90	210.96
966.19	210.87
966.49	210.89
966.78	210.95
967.08	210.98
967.37	211.01
967.67	210.81
967.96	210.87
968.26	210.88
968.55	210.91
968.85	210.90
969.14	210.80
969.43	210.78
969.73	210.79
970.02	210.77
970.32	210.79
970.61	210.83
970.91	210.77
971.20	210.82
971.49	210.81
971.79	210.83
972.08	210.66
972.38	210.66
972.67	210.62
972.96	210.65
973.26	210.57
973.55	210.58
973.85	210.64
974.14	210.55
974.43	210.52
974.73	210.49
975.02	210.54
975.31	210.62
975.61	210.64
975.90	210.55
976.19	210.51
976.49	210.53
976.78	210.48
977.07	210.52
977.37	210.53
977.66	210.59
977.95	210.52
978.24	210.54
978.54	210.59
978.83	210.56
979.12	210.46
979.42	210.49
979.71	210.50
980.00	210.49
980.29	210.52
980.59	210.49
980.88	210.55
981.17	210.53
981.46	210.50
981.76	210.50
982.05	210.56
982.34	210.53
982.63	210.51
982.93	210.61
983.22	210.60
983.51	210.55
983.80	210.55
984.09	210.68
984.39	210.63
984.68	210.65
984.97	210.67
985.26	210.66
985.55	210.66
985.85	210.64
986.14	210.66
986.43	210.69
986.72	210.68
987.01	210.67
987.30	210.63
987.59	210.59
987.89	210.55
988.18	210.55
988.47	210.49
988.76	210.50
989.05	210.42
989.34	210.40
989.63	210.45
989.92	210.45
990.22	210.38
990.51	210.45
990.80	210.40
991.09	210.47
991.38	210.50
991.67	210.48
991.96	210.40
992.25	210.37
992.54	210.39
992.83	210.39
993.12	210.42
993.41	210.45
993.70	210.56
993.99	210.56
994.28	210.59
994.58	210.76
994.87	210.77
995.16	210.79
995.45	210.80
995.74	210.71
996.03	210.73
996.32	210.73
996.61	210.73
996.90	210.81
997.19	210.70
997.48	210.75
997.77	210.78
998.06	210.84
998.34	210.92
998.63	210.84
998.92	210.87
999.21	210.86
999.50	210.92
999.79	210.88
1000.08	210.96
1000.37	210.99
1000.66	210.90
1000.95	210.94
1001.24	210.91
1001.53	210.96
1001.82	210.97
1002.11	210.93
1002.40	211.00
1002.68	211.05
1002.97	211.11
1003.26	211.21
1003.55	211.16
1003.84	211.15
1004.13	211.18
1004.42	211.17
1004.71	211.19
1004.99	211.21
1005.28	211.28
1005.57	211.28
1005.86	211.20
1006.15	211.17
1006.44	211.10
1006.72	211.14
1007.01	211.10
1007.30	211.17
1007.59	211.15
1007.88	211.20
1008.17	211.25
1008.45	211.19
1008.74	211.15
1009.03	211.07
1009.32	211.00
1009.60	210.99
1009.89	210.96
1010.18	210.96
1010.47	210.93
1010.76	210.96
1011.04	210.90
1011.33	210.83
1011.62	210.78
1011.91	210.83
1012.19	210.82
1012.48	210.86
1012.77	210.86
1013.05	210.95
1013.34	210.87
1013.63	210.86
1013.92	210.89
1014.20	210.90
1014.49	210.90
1014.78	210.87
1015.06	210.88
1015.35	210.86
1015.64	210.87
1015.92	210.96
1016.21	211.00
1016.50	211.04
1016.78	211.04
1017.07	211.06
1017.36	211.02
1017.64	211.05
1017.93	211.09
1018.22	211.08
1018.50	211.12
1018.79	211.11
1019.08	211.01
1019.36	211.05
1019.65	211.02
1019.93	210.98
1020.22	211.00
1020.51	211.07
1020.79	211.04
1021.08	210.05
1021.36	211.50
1021.65	211.15
1021.94	210.90
1022.22	210.95
1022.51	210.60
1022.79	210.50
1023.08	211.60
1023.36	212.10
1023.65	209.95
>>>>>End Processed Spectral Data<<<<<
