SpectraSuite Data File
++++++++++++++++++++++++++++++++++++
Date: Mon Feb 25 17:29:52 EST 2013
User: group
Dark Spectrum Present: No
Reference Spectrum Present: No
Number of Sampled Component Spectra: 1
Spectrometers: USB2E7196
Integration Time (usec): 52000 (USB2E7196)
Spectra Averaged: 20 (USB2E7196)
Boxcar Smoothing: 10 (USB2E7196)
Correct for Electrical Dark: No (USB2E7196)
Strobe/Lamp Enabled: No (USB2E7196)
Correct for Detector Non-linearity: No (USB2E7196)
Correct for Stray Light: No (USB2E7196)
Number of Pixels in Processed Spectrum: 2048
>>>>>Begin Processed Spectral Data<<<<<
339.09	0.00
339.48	198.20
339.86	199.40
340.24	201.10
340.63	203.70
341.01	206.60
341.39	205.10
341.78	208.10
342.16	208.60
342.54	208.30
342.93	197.90
343.31	207.91
343.69	208.49
344.07	209.00
344.46	209.48
344.84	209.78
345.22	209.99
345.60	210.32
345.99	210.45
346.37	210.59
346.75	210.74
347.13	210.87
347.52	210.94
347.90	211.05
348.28	211.09
348.66	211.12
349.05	211.15
349.43	211.32
349.81	211.38
350.19	211.46
350.57	211.58
350.96	211.74
351.34	211.80
351.72	211.86
352.10	212.00
352.48	212.02
352.87	212.12
353.25	212.20
353.63	212.26
354.01	212.36
354.39	212.45
354.77	212.50
355.15	212.63
355.54	212.69
355.92	212.77
356.30	212.90
356.68	213.13
357.06	213.25
357.44	213.27
357.82	213.30
358.20	213.35
358.58	213.40
358.97	213.45
359.35	213.59
359.73	213.67
360.11	213.67
360.49	213.78
360.87	213.82
361.25	213.92
361.63	214.02
362.01	214.08
362.39	214.21
362.77	214.29
363.15	214.32
363.53	214.39
363.91	214.35
364.29	214.33
364.67	214.16
365.05	214.14
365.43	214.10
365.81	214.10
366.19	214.15
366.57	214.21
366.95	214.16
367.33	214.13
367.71	214.14
368.09	214.16
368.47	214.11
368.85	214.17
369.23	214.16
369.61	214.07
369.99	214.11
370.37	214.00
370.75	214.05
371.13	213.98
371.51	213.92
371.89	213.98
372.27	213.94
372.65	213.90
373.03	213.87
373.41	213.88
373.78	213.84
374.16	213.72
374.54	213.63
374.92	213.65
375.30	213.60
375.68	213.51
376.06	213.47
376.44	213.47
376.82	213.37
377.19	213.32
377.57	213.27
377.95	213.07
378.33	213.00
378.71	212.85
379.09	212.77
379.47	212.71
379.84	212.62
380.22	212.60
380.60	212.50
380.98	212.45
381.36	212.42
381.73	212.34
382.11	212.29
382.49	212.26
382.87	212.25
383.25	212.19
383.62	212.36
384.00	212.30
384.38	212.27
384.76	212.27
385.13	212.23
385.51	212.10
385.89	212.10
386.27	212.05
386.64	212.08
387.02	212.04
387.40	212.01
387.78	212.01
388.15	211.91
388.53	211.90
388.91	211.90
389.29	211.76
389.66	211.73
390.04	211.72
390.42	211.69
390.79	211.54
391.17	211.52
391.55	211.28
391.92	211.26
392.30	211.28
392.68	211.20
393.05	211.22
393.43	211.31
393.81	211.37
394.18	211.35
394.56	211.32
394.94	211.40
395.31	211.40
395.69	211.40
396.06	211.46
396.44	211.49
396.82	211.51
397.19	211.63
397.57	211.66
397.95	211.82
398.32	211.80
398.70	211.90
399.07	211.89
399.45	211.99
399.82	212.05
400.20	212.03
400.58	212.11
400.95	212.07
401.33	212.12
401.70	212.17
402.08	212.32
402.45	212.32
402.83	212.44
403.20	212.50
403.58	212.50
403.95	212.62
404.33	212.74
404.71	212.83
405.08	212.98
405.46	213.10
405.83	213.08
406.21	213.28
406.58	213.37
406.96	213.50
407.33	213.64
407.70	213.77
408.08	214.02
408.45	214.23
408.83	214.45
409.20	214.60
409.58	214.76
409.95	214.92
410.33	215.20
410.70	215.34
411.08	215.65
411.45	215.99
411.82	216.21
412.20	216.54
412.57	216.99
412.95	217.29
413.32	217.69
413.69	218.19
414.07	218.56
414.44	219.11
414.82	219.72
415.19	220.32
415.56	220.98
415.94	221.64
416.31	222.35
416.68	223.17
417.06	224.08
417.43	224.95
417.81	225.91
418.18	226.91
418.55	228.01
418.93	229.08
419.30	230.18
419.67	231.38
420.04	232.65
420.42	233.82
420.79	235.42
421.16	236.96
421.54	238.59
421.91	240.36
422.28	242.00
422.66	243.77
423.03	245.57
423.40	247.39
423.77	249.33
424.15	251.27
424.52	253.29
424.89	255.45
425.26	257.60
425.64	259.71
426.01	261.84
426.38	264.17
426.75	266.59
427.13	269.05
427.50	271.67
427.87	274.36
428.24	277.02
428.61	279.45
428.99	282.25
429.36	285.22
429.73	288.06
430.10	291.01
430.47	294.15
430.85	297.24
431.22	300.64
431.59	304.26
431.96	307.73
432.33	311.47
432.70	315.15
433.08	319.28
433.45	323.26
433.82	327.37
434.19	331.73
434.56	335.96
434.93	340.18
435.30	344.29
435.68	348.79
436.05	353.37
436.42	357.85
436.79	361.99
437.16	366.45
437.53	371.12
437.90	375.84
438.27	380.33
438.64	385.03
439.01	389.30
439.38	393.07
439.75	396.72
440.13	400.97
440.50	404.87
440.87	408.17
441.24	411.48
441.61	415.24
441.98	417.97
442.35	421.29
442.72	424.45
443.09	427.55
443.46	429.45
443.83	430.75
444.20	431.72
444.57	433.29
444.94	433.95
445.31	434.74
445.68	435.44
446.05	435.65
446.42	435.12
446.79	434.58
447.16	433.93
447.53	433.48
447.90	431.69
448.27	429.95
448.64	427.58
449.01	425.85
449.37	422.78
449.74	419.78
450.11	416.20
450.48	412.24
450.85	408.35
451.22	405.00
451.59	401.70
451.96	398.73
452.33	394.64
452.70	391.00
453.07	386.57
453.43	382.09
453.80	377.92
454.17	373.83
454.54	369.90
454.91	365.78
455.28	361.77
455.65	358.01
456.02	354.36
456.38	351.13
456.75	347.11
457.12	343.71
457.49	340.46
457.86	337.27
458.23	334.60
458.59	331.60
458.96	328.50
459.33	325.83
459.70	323.20
460.07	321.04
460.43	318.45
460.80	316.09
461.17	314.01
461.54	311.80
461.91	309.76
462.27	307.77
462.64	305.97
463.01	304.04
463.38	302.18
463.74	300.20
464.11	298.58
464.48	297.20
464.85	295.73
465.21	294.63
465.58	293.38
465.95	291.91
466.32	290.78
466.68	289.68
467.05	288.45
467.42	287.32
467.78	286.04
468.15	284.95
468.52	284.19
468.88	283.01
469.25	281.99
469.62	281.18
469.98	280.33
470.35	279.54
470.72	278.76
471.08	277.93
471.45	277.37
471.82	276.72
472.18	276.03
472.55	275.54
472.92	274.97
473.28	274.49
473.65	274.05
474.02	273.55
474.38	273.10
474.75	272.98
475.11	272.57
475.48	272.43
475.85	272.30
476.21	272.09
476.58	272.06
476.94	272.07
477.31	272.08
477.67	272.06
478.04	272.20
478.41	272.46
478.77	272.89
479.14	273.14
479.50	273.51
479.87	273.91
480.23	274.28
480.60	274.67
480.96	275.16
481.33	275.87
481.69	276.53
482.06	277.26
482.42	277.77
482.79	278.60
483.15	279.43
483.52	280.44
483.88	281.55
484.25	282.62
484.61	283.72
484.98	284.88
485.34	286.16
485.71	287.53
486.07	288.96
486.44	290.28
486.80	291.80
487.17	293.42
487.53	295.20
487.90	297.01
488.26	298.97
488.62	301.03
488.99	303.05
489.35	305.21
489.72	307.54
490.08	310.05
490.44	312.54
490.81	315.25
491.17	317.91
491.54	320.68
491.90	323.65
492.26	326.95
492.63	330.24
492.99	333.77
493.36	337.36
493.72	341.22
494.08	345.12
494.45	349.36
494.81	353.77
495.17	358.28
495.54	363.09
495.90	368.04
496.26	373.18
496.63	378.61
496.99	384.22
497.35	390.00
497.72	396.19
498.08	402.55
498.44	409.13
498.80	416.16
499.17	423.38
499.53	430.95
499.89	438.72
500.26	446.79
500.62	454.86
500.98	463.39
501.34	472.18
501.71	481.43
502.07	490.76
502.43	500.40
502.79	510.16
503.16	520.54
503.52	531.10
503.88	541.90
504.24	552.89
504.60	564.27
504.97	576.20
505.33	588.12
505.69	600.85
506.05	613.71
506.41	626.61
506.78	639.65
507.14	653.02
507.50	666.76
507.86	680.85
508.22	695.40
508.59	710.18
508.95	725.20
509.31	740.46
509.67	756.07
510.03	771.84
510.39	788.63
510.75	805.13
511.12	822.03
511.48	839.37
511.84	856.78
512.20	874.20
512.56	892.01
512.92	910.15
513.28	928.23
513.64	946.44
514.00	965.00
514.37	983.70
514.73	1002.93
515.09	1022.00
515.45	1041.24
515.81	1060.59
516.17	1079.94
516.53	1099.50
516.89	1119.27
517.25	1138.96
517.61	1158.64
517.97	1177.92
518.33	1197.72
518.69	1217.32
519.05	1237.26
519.41	1257.39
519.77	1278.00
520.13	1298.18
520.49	1318.19
520.85	1338.54
521.21	1358.63
521.57	1379.32
521.93	1399.14
522.29	1419.42
522.65	1439.60
523.01	1459.58
523.37	1479.43
523.73	1499.39
524.09	1519.07
524.45	1538.58
524.81	1558.50
525.17	1578.33
525.53	1598.22
525.89	1617.81
526.25	1637.20
526.61	1655.47
526.97	1674.27
527.33	1692.43
527.68	1710.96
528.04	1729.26
528.40	1746.46
528.76	1764.60
529.12	1782.15
529.48	1800.81
529.84	1818.28
530.20	1835.69
530.56	1853.11
530.91	1870.75
531.27	1887.98
531.63	1905.01
531.99	1921.84
532.35	1938.01
532.71	1954.20
533.07	1970.55
533.42	1986.00
533.78	2001.94
534.14	2017.41
534.50	2031.67
534.86	2046.65
535.21	2060.30
535.57	2074.93
535.93	2089.45
536.29	2103.16
536.65	2116.79
537.00	2129.29
537.36	2141.79
537.72	2154.04
538.08	2166.50
538.44	2178.98
538.79	2191.38
539.15	2203.40
539.51	2215.21
539.87	2227.37
540.22	2238.79
540.58	2250.30
540.94	2261.74
541.29	2271.92
541.65	2282.15
542.01	2292.83
542.37	2302.19
542.72	2311.92
543.08	2320.53
543.44	2329.76
543.79	2337.41
544.15	2344.79
544.51	2353.36
544.87	2361.84
545.22	2368.66
545.58	2374.67
545.94	2379.50
546.29	2383.71
546.65	2387.71
547.01	2391.57
547.36	2395.08
547.72	2398.52
548.07	2401.12
548.43	2403.33
548.79	2405.26
549.14	2407.53
549.50	2409.68
549.86	2411.77
550.21	2413.74
550.57	2415.94
550.92	2417.01
551.28	2418.35
551.64	2419.65
551.99	2420.53
552.35	2420.23
552.70	2421.30
553.06	2422.58
553.41	2424.12
553.77	2425.60
554.13	2426.39
554.48	2427.18
554.84	2427.25
555.19	2426.59
555.55	2425.43
555.90	2424.50
556.26	2423.70
556.61	2422.43
556.97	2420.18
557.32	2418.60
557.68	2416.05
558.03	2413.71
558.39	2411.00
558.74	2409.55
559.10	2407.40
559.45	2404.60
559.81	2402.58
560.16	2399.52
560.52	2396.37
560.87	2392.70
561.23	2388.44
561.58	2385.24
561.94	2381.31
562.29	2377.07
562.64	2374.06
563.00	2371.10
563.35	2368.33
563.71	2365.81
564.06	2363.24
564.42	2360.94
564.77	2358.15
565.12	2355.69
565.48	2351.95
565.83	2348.74
566.19	2344.83
566.54	2340.35
566.89	2336.13
567.25	2332.24
567.60	2328.55
567.96	2324.45
568.31	2320.57
568.66	2316.57
569.02	2312.03
569.37	2307.32
569.72	2303.59
570.08	2298.55
570.43	2293.37
570.78	2287.94
571.14	2281.88
571.49	2275.48
571.84	2269.62
572.20	2263.17
572.55	2257.31
572.90	2251.26
573.26	2244.67
573.61	2238.04
573.96	2232.31
574.31	2225.16
574.67	2217.83
575.02	2209.79
575.37	2202.12
575.72	2194.07
576.08	2187.30
576.43	2179.48
576.78	2172.30
577.13	2165.24
577.49	2157.86
577.84	2150.99
578.19	2144.28
578.54	2137.83
578.90	2131.49
579.25	2123.80
579.60	2115.90
579.95	2107.74
580.30	2100.60
580.66	2093.76
581.01	2086.01
581.36	2077.52
581.71	2070.55
582.06	2062.91
582.42	2056.02
582.77	2048.10
583.12	2040.47
583.47	2032.79
583.82	2025.84
584.17	2018.00
584.53	2009.94
584.88	2002.39
585.23	1994.17
585.58	1985.64
585.93	1977.39
586.28	1969.46
586.63	1962.16
586.98	1955.28
587.34	1948.31
587.69	1940.53
588.04	1932.65
588.39	1925.39
588.74	1917.50
589.09	1909.71
589.44	1901.75
589.79	1894.56
590.14	1888.03
590.49	1881.11
590.84	1873.52
591.19	1866.65
591.54	1859.48
591.89	1850.75
592.25	1843.24
592.60	1835.20
592.95	1827.49
593.30	1819.39
593.65	1811.25
594.00	1803.02
594.35	1795.75
594.70	1787.91
595.05	1780.32
595.40	1772.79
595.75	1765.02
596.10	1758.39
596.45	1751.42
596.80	1744.91
597.15	1737.74
597.50	1729.98
597.85	1722.53
598.19	1715.25
598.54	1707.73
598.89	1700.88
599.24	1695.35
599.59	1689.01
599.94	1683.22
600.29	1676.79
600.64	1670.10
600.99	1662.93
601.34	1656.79
601.69	1649.29
602.04	1642.05
602.39	1635.01
602.74	1628.23
603.08	1622.28
603.43	1616.23
603.78	1609.31
604.13	1602.29
604.48	1595.60
604.83	1589.79
605.18	1583.90
605.53	1577.77
605.87	1571.36
606.22	1565.45
606.57	1558.57
606.92	1551.60
607.27	1544.70
607.62	1538.20
607.96	1532.30
608.31	1527.10
608.66	1520.57
609.01	1514.37
609.36	1508.03
609.70	1501.26
610.05	1494.69
610.40	1487.89
610.75	1480.56
611.10	1474.16
611.44	1466.65
611.79	1459.14
612.14	1451.17
612.49	1443.17
612.83	1435.54
613.18	1427.40
613.53	1418.80
613.88	1410.80
614.22	1403.29
614.57	1395.30
614.92	1387.48
615.27	1379.66
615.61	1371.44
615.96	1363.84
616.31	1356.21
616.65	1349.34
617.00	1342.60
617.35	1335.42
617.70	1327.77
618.04	1319.99
618.39	1311.81
618.74	1304.55
619.08	1297.05
619.43	1289.94
619.78	1283.14
620.12	1276.02
620.47	1269.45
620.82	1262.48
621.16	1255.23
621.51	1247.97
621.85	1241.06
622.20	1233.73
622.55	1226.42
622.89	1219.29
623.24	1212.36
623.59	1205.08
623.93	1197.74
624.28	1190.40
624.62	1183.50
624.97	1176.50
625.32	1169.87
625.66	1163.76
626.01	1157.80
626.35	1151.75
626.70	1145.17
627.04	1138.69
627.39	1132.25
627.73	1125.64
628.08	1119.87
628.43	1113.85
628.77	1107.63
629.12	1101.35
629.46	1095.73
629.81	1089.65
630.15	1083.15
630.50	1076.89
630.84	1070.69
631.19	1064.70
631.53	1058.81
631.88	1052.12
632.22	1045.53
632.57	1039.60
632.91	1033.18
633.26	1026.47
633.60	1020.14
633.95	1014.47
634.29	1008.23
634.64	1002.34
634.98	996.32
635.32	990.23
635.67	984.81
636.01	979.22
636.36	973.20
636.70	967.34
637.05	961.76
637.39	956.54
637.73	950.90
638.08	945.93
638.42	940.63
638.77	935.22
639.11	929.87
639.45	924.81
639.80	919.31
640.14	913.83
640.49	908.68
640.83	903.57
641.17	897.93
641.52	892.75
641.86	887.13
642.20	881.90
642.55	876.04
642.89	870.06
643.23	864.46
643.58	859.54
643.92	853.82
644.26	848.35
644.61	843.18
644.95	838.00
645.29	832.41
645.64	826.86
645.98	821.48
646.32	816.46
646.66	811.24
647.01	805.99
647.35	801.07
647.69	795.39
648.04	790.11
648.38	785.03
648.72	779.83
649.06	774.58
649.41	769.17
649.75	764.31
650.09	759.57
650.43	754.48
650.78	749.08
651.12	744.04
651.46	739.04
651.80	733.88
652.14	728.76
652.49	723.76
652.83	718.75
653.17	713.42
653.51	708.27
653.85	703.38
654.20	698.26
654.54	693.05
654.88	688.50
655.22	683.50
655.56	678.37
655.90	673.27
656.25	668.58
656.59	664.16
656.93	659.55
657.27	654.92
657.61	650.18
657.95	645.78
658.29	641.34
658.64	636.87
658.98	632.45
659.32	627.81
659.66	623.39
660.00	618.68
660.34	614.36
660.68	609.83
661.02	605.39
661.36	601.40
661.70	597.22
662.05	593.11
662.39	589.20
662.73	585.51
663.07	581.73
663.41	578.00
663.75	573.84
664.09	569.81
664.43	565.71
664.77	561.99
665.11	558.18
665.45	554.43
665.79	550.62
666.13	546.80
666.47	543.27
666.81	539.56
667.15	536.30
667.49	532.94
667.83	529.67
668.17	526.44
668.51	523.18
668.85	520.03
669.19	516.85
669.53	513.46
669.87	509.89
670.21	506.67
670.55	503.26
670.89	500.34
671.23	497.42
671.57	494.40
671.91	491.22
672.25	488.13
672.58	485.11
672.92	482.15
673.26	479.41
673.60	476.58
673.94	473.65
674.28	470.73
674.62	467.98
674.96	465.23
675.30	462.44
675.64	459.55
675.97	456.81
676.31	454.21
676.65	451.75
676.99	449.49
677.33	446.97
677.67	444.40
678.01	441.80
678.34	439.20
678.68	436.83
679.02	434.23
679.36	431.74
679.70	429.42
680.04	427.10
680.37	424.60
680.71	422.22
681.05	420.10
681.39	417.85
681.73	415.47
682.06	413.32
682.40	411.08
682.74	408.96
683.08	406.80
683.42	404.52
683.75	402.25
684.09	399.90
684.43	397.71
684.77	395.58
685.10	393.36
685.44	391.23
685.78	389.05
686.12	387.26
686.45	385.23
686.79	383.14
687.13	381.20
687.46	379.24
687.80	377.26
688.14	375.26
688.48	373.42
688.81	371.45
689.15	369.55
689.49	367.72
689.82	365.80
690.16	363.68
690.50	361.83
690.83	359.99
691.17	358.14
691.51	356.29
691.84	354.40
692.18	352.59
692.52	350.89
692.85	349.19
693.19	347.64
693.52	346.01
693.86	344.42
694.20	342.75
694.53	341.15
694.87	339.39
695.21	337.76
695.54	336.08
695.88	334.53
696.21	332.89
696.55	331.39
696.88	329.78
697.22	328.26
697.56	326.74
697.89	325.23
698.23	323.78
698.56	322.43
698.90	321.17
699.23	319.78
699.57	318.43
699.90	317.00
700.24	315.51
700.58	314.23
700.91	312.89
701.25	311.76
701.58	310.60
701.92	309.52
702.25	308.43
702.59	307.20
702.92	306.08
703.26	304.88
703.59	303.73
703.93	302.86
704.26	301.86
704.60	300.83
704.93	299.77
705.26	298.80
705.60	297.74
705.93	296.68
706.27	295.70
706.60	294.66
706.94	293.86
707.27	292.78
707.61	291.69
707.94	290.71
708.27	289.56
708.61	288.44
708.94	287.49
709.28	286.41
709.61	285.42
709.94	284.53
710.28	283.61
710.61	282.70
710.95	281.62
711.28	280.83
711.61	279.87
711.95	278.99
712.28	277.98
712.61	277.05
712.95	276.27
713.28	275.60
713.61	274.84
713.95	273.93
714.28	273.19
714.61	272.45
714.95	271.60
715.28	270.81
715.61	270.04
715.95	269.23
716.28	268.47
716.61	267.81
716.95	267.08
717.28	266.26
717.61	265.60
717.94	264.88
718.28	264.10
718.61	263.48
718.94	262.76
719.27	262.22
719.61	261.67
719.94	260.99
720.27	260.20
720.60	259.53
720.94	258.86
721.27	258.25
721.60	257.70
721.93	257.14
722.27	256.65
722.60	256.14
722.93	255.60
723.26	255.12
723.59	254.53
723.93	254.03
724.26	253.67
724.59	253.23
724.92	252.83
725.25	252.54
725.59	252.00
725.92	251.63
726.25	251.16
726.58	250.69
726.91	250.31
727.24	249.86
727.57	249.49
727.91	249.07
728.24	248.65
728.57	248.25
728.90	247.92
729.23	247.46
729.56	247.11
729.89	246.73
730.22	246.28
730.55	245.87
730.89	245.46
731.22	244.99
731.55	244.50
731.88	244.01
732.21	243.54
732.54	243.21
732.87	242.87
733.20	242.47
733.53	242.12
733.86	241.80
734.19	241.47
734.52	241.15
734.85	240.94
735.18	240.63
735.51	240.34
735.84	240.01
736.17	239.67
736.50	239.28
736.83	239.18
737.16	238.87
737.49	238.59
737.82	238.29
738.15	237.99
738.48	237.69
738.81	237.42
739.14	237.07
739.47	236.79
739.80	236.47
740.13	236.30
740.46	236.02
740.79	235.59
741.12	235.15
741.45	234.84
741.78	234.52
742.11	234.27
742.44	233.93
742.77	233.71
743.10	233.46
743.43	233.21
743.75	232.75
744.08	232.70
744.41	232.40
744.74	232.12
745.07	231.88
745.40	231.72
745.73	231.54
746.06	231.25
746.39	230.95
746.71	230.71
747.04	230.34
747.37	230.02
747.70	229.83
748.03	229.74
748.36	229.51
748.68	229.22
749.01	228.98
749.34	228.76
749.67	228.53
750.00	228.36
750.33	228.26
750.65	228.00
750.98	227.63
751.31	227.42
751.64	227.24
751.97	227.19
752.29	226.92
752.62	226.70
752.95	226.51
753.28	226.35
753.60	226.15
753.93	226.00
754.26	225.86
754.59	225.60
754.91	225.42
755.24	225.22
755.57	225.00
755.90	224.87
756.22	224.62
756.55	224.43
756.88	224.22
757.20	223.92
757.53	223.72
757.86	223.53
758.19	223.48
758.51	223.30
758.84	223.02
759.17	222.81
759.49	222.70
759.82	222.61
760.15	222.46
760.47	222.30
760.80	222.13
761.13	222.04
761.45	221.91
761.78	221.78
762.11	221.71
762.43	221.58
762.76	221.42
763.08	221.37
763.41	221.20
763.74	221.09
764.06	220.91
764.39	220.95
764.71	220.81
765.04	220.63
765.37	220.48
765.69	220.27
766.02	220.26
766.34	220.15
766.67	220.09
767.00	220.05
767.32	220.11
767.65	220.13
767.97	220.00
768.30	219.93
768.62	219.81
768.95	219.67
769.27	219.63
769.60	219.48
769.92	219.36
770.25	219.27
770.57	219.14
770.90	219.11
771.22	218.96
771.55	218.93
771.87	218.79
772.20	218.66
772.52	218.76
772.85	218.85
773.17	218.74
773.50	218.54
773.82	218.40
774.15	218.15
774.47	217.98
774.80	217.91
775.12	217.89
775.45	217.82
775.77	217.72
776.09	217.67
776.42	217.66
776.74	217.65
777.07	217.57
777.39	217.59
777.72	217.46
778.04	217.36
778.36	217.20
778.69	217.20
779.01	217.16
779.33	217.05
779.66	216.74
779.98	216.65
780.31	216.62
780.63	216.71
780.95	216.65
781.28	216.56
781.60	216.46
781.92	216.39
782.25	216.30
782.57	216.25
782.89	216.14
783.22	216.05
783.54	215.98
783.86	215.96
784.19	215.83
784.51	215.87
784.83	215.82
785.16	215.80
785.48	215.70
785.80	215.68
786.12	215.57
786.45	215.60
786.77	215.55
787.09	215.44
787.42	215.26
787.74	215.28
788.06	215.22
788.38	215.16
788.71	215.10
789.03	215.13
789.35	215.11
789.67	215.04
789.99	215.07
790.32	215.00
790.64	215.00
790.96	215.07
791.28	215.05
791.61	214.98
791.93	214.97
792.25	214.90
792.57	214.97
792.89	214.97
793.21	214.88
793.54	214.88
793.86	214.89
794.18	214.86
794.50	214.79
794.82	214.76
795.14	214.81
795.47	214.80
795.79	214.70
796.11	214.67
796.43	214.66
796.75	214.51
797.07	214.54
797.39	214.43
797.71	214.30
798.04	214.24
798.36	214.21
798.68	214.17
799.00	214.24
799.32	214.20
799.64	214.14
799.96	214.15
800.28	214.16
800.60	214.14
800.92	214.14
801.24	214.13
801.56	214.13
801.89	214.07
802.21	214.10
802.53	214.06
802.85	214.00
803.17	214.11
803.49	214.10
803.81	213.96
804.13	213.95
804.45	213.89
804.77	213.91
805.09	213.92
805.41	213.91
805.73	213.85
806.05	213.76
806.37	213.77
806.69	213.72
807.01	213.57
807.33	213.51
807.65	213.40
807.97	213.42
808.28	213.35
808.60	213.33
808.92	213.27
809.24	213.40
809.56	213.40
809.88	213.26
810.20	213.30
810.52	213.29
810.84	213.27
811.16	213.27
811.48	213.25
811.80	213.24
812.12	213.20
812.43	213.18
812.75	213.17
813.07	213.06
813.39	213.06
813.71	213.18
814.03	213.19
814.35	213.20
814.67	213.10
814.98	213.10
815.30	213.11
815.62	213.01
815.94	212.87
816.26	212.91
816.58	212.86
816.89	212.85
817.21	212.88
817.53	212.92
817.85	212.96
818.17	212.86
818.48	212.85
818.80	212.83
819.12	212.80
819.44	212.79
819.76	212.82
820.07	212.75
820.39	212.64
820.71	212.63
821.03	212.57
821.34	212.57
821.66	212.61
821.98	212.55
822.30	212.55
822.61	212.69
822.93	212.64
823.25	212.61
823.57	212.66
823.88	212.65
824.20	212.60
824.52	212.60
824.83	212.65
825.15	212.57
825.47	212.59
825.79	212.62
826.10	212.55
826.42	212.54
826.74	212.53
827.05	212.52
827.37	212.51
827.69	212.58
828.00	212.61
828.32	212.55
828.64	212.57
828.95	212.64
829.27	212.53
829.58	212.49
829.90	212.55
830.22	212.45
830.53	212.40
830.85	212.32
831.17	212.28
831.48	212.19
831.80	212.19
832.11	212.18
832.43	212.07
832.75	212.02
833.06	212.12
833.38	212.13
833.69	212.08
834.01	212.10
834.32	212.05
834.64	211.97
834.96	211.93
835.27	211.90
835.59	211.87
835.90	211.85
836.22	211.86
836.53	211.80
836.85	211.82
837.16	212.00
837.48	212.08
837.79	212.09
838.11	212.16
838.42	212.18
838.74	212.17
839.05	212.17
839.37	212.18
839.68	212.08
840.00	212.12
840.31	212.18
840.63	212.18
840.94	212.13
841.26	212.15
841.57	212.16
841.88	212.14
842.20	212.17
842.51	212.14
842.83	212.11
843.14	212.29
843.46	212.35
843.77	212.20
844.08	212.14
844.40	212.10
844.71	212.11
845.03	212.04
845.34	211.97
845.65	212.08
845.97	212.13
846.28	212.06
846.60	212.00
846.91	212.03
847.22	211.99
847.54	212.06
847.85	212.11
848.16	212.17
848.48	212.20
848.79	212.20
849.10	212.21
849.42	212.22
849.73	212.05
850.04	211.99
850.36	211.96
850.67	212.04
850.98	211.96
851.30	211.91
851.61	211.96
851.92	212.05
852.23	212.05
852.55	212.07
852.86	212.09
853.17	212.09
853.49	212.07
853.80	212.17
854.11	212.19
854.42	212.14
854.74	212.13
855.05	212.07
855.36	211.96
855.67	211.99
855.99	211.98
856.30	212.14
856.61	212.09
856.92	212.09
857.23	212.05
857.55	212.08
857.86	212.06
858.17	212.11
858.48	212.02
858.79	211.97
859.11	211.91
859.42	211.87
859.73	211.87
860.04	211.90
860.35	211.84
860.66	211.74
860.98	211.72
861.29	211.68
861.60	211.73
861.91	211.77
862.22	211.69
862.53	211.68
862.84	211.51
863.16	211.53
863.47	211.50
863.78	211.50
864.09	211.51
864.40	211.54
864.71	211.46
865.02	211.48
865.33	211.41
865.64	211.44
865.95	211.49
866.27	211.62
866.58	211.60
866.89	211.54
867.20	211.60
867.51	211.55
867.82	211.56
868.13	211.60
868.44	211.58
868.75	211.65
869.06	211.68
869.37	211.71
869.68	211.68
869.99	211.67
870.30	211.65
870.61	211.68
870.92	211.62
871.23	211.61
871.54	211.63
871.85	211.66
872.16	211.66
872.47	211.59
872.78	211.50
873.09	211.41
873.40	211.47
873.71	211.50
874.02	211.55
874.33	211.53
874.64	211.44
874.95	211.45
875.26	211.37
875.56	211.35
875.87	211.28
876.18	211.29
876.49	211.50
876.80	211.55
877.11	211.47
877.42	211.44
877.73	211.45
878.04	211.46
878.35	211.48
878.66	211.45
878.96	211.45
879.27	211.43
879.58	211.49
879.89	211.37
880.20	211.41
880.51	211.39
880.82	211.36
881.12	211.37
881.43	211.40
881.74	211.37
882.05	211.33
882.36	211.32
882.67	211.30
882.97	211.05
883.28	211.00
883.59	211.05
883.90	211.11
884.21	211.18
884.51	211.12
884.82	211.10
885.13	211.10
885.44	211.14
885.74	211.05
886.05	211.01
886.36	211.05
886.67	210.94
886.98	211.01
887.28	211.11
887.59	211.10
887.90	211.03
888.20	211.01
888.51	211.04
888.82	211.03
889.13	211.08
889.43	211.27
889.74	211.21
890.05	211.12
890.35	211.05
890.66	210.97
890.97	210.97
891.28	210.97
891.58	211.00
891.89	211.02
892.20	211.15
892.50	211.19
892.81	211.14
893.12	211.16
893.42	211.10
893.73	211.00
894.04	211.08
894.34	211.15
894.65	211.21
894.95	211.20
895.26	211.26
895.57	211.31
895.87	211.17
896.18	211.24
896.48	211.30
896.79	211.35
897.10	211.40
897.40	211.44
897.71	211.53
898.01	211.53
898.32	211.48
898.63	211.43
898.93	211.42
899.24	211.56
899.54	211.57
899.85	211.57
900.15	211.63
900.46	211.55
900.76	211.56
901.07	211.54
901.38	211.54
901.68	211.56
901.99	211.46
902.29	211.53
902.60	211.51
902.90	211.46
903.21	211.44
903.51	211.43
903.82	211.47
904.12	211.40
904.43	211.39
904.73	211.39
905.03	211.40
905.34	211.59
905.64	211.53
905.95	211.56
906.25	211.55
906.56	211.59
906.86	211.59
907.17	211.56
907.47	211.54
907.77	211.56
908.08	211.47
908.38	211.45
908.69	211.35
908.99	211.34
909.30	211.36
909.60	211.39
909.90	211.34
910.21	211.26
910.51	211.27
910.81	211.29
911.12	211.32
911.42	211.26
911.73	211.10
912.03	211.12
912.33	211.08
912.64	211.06
912.94	210.99
913.24	211.02
913.55	210.98
913.85	211.00
914.15	211.02
914.46	211.07
914.76	211.15
915.06	211.20
915.37	211.23
915.67	211.21
915.97	211.15
916.27	211.10
916.58	211.12
916.88	211.07
917.18	210.94
917.49	211.06
917.79	211.01
918.09	210.98
918.39	210.99
918.70	210.94
919.00	210.94
919.30	211.04
919.60	210.96
919.91	210.99
920.21	210.96
920.51	210.86
920.81	210.90
921.12	210.90
921.42	210.90
921.72	210.93
922.02	211.00
922.32	211.07
922.63	211.12
922.93	211.12
923.23	211.17
923.53	211.32
923.83	211.16
924.13	211.24
924.44	211.26
924.74	211.33
925.04	211.40
925.34	211.35
925.64	211.32
925.94	211.36
926.24	211.45
926.55	211.48
926.85	211.51
927.15	211.42
927.45	211.35
927.75	211.30
928.05	211.30
928.35	211.24
928.65	211.28
928.95	211.31
929.26	211.38
929.56	211.38
929.86	211.36
930.16	211.38
930.46	211.36
930.76	211.35
931.06	211.17
931.36	211.09
931.66	211.19
931.96	211.14
932.26	211.15
932.56	211.07
932.86	211.01
933.16	211.05
933.46	211.03
933.76	211.00
934.06	211.09
934.36	211.14
934.66	211.13
934.96	211.13
935.26	211.15
935.56	211.14
935.86	211.08
936.16	211.05
936.46	211.05
936.76	211.10
937.06	211.06
937.36	211.15
937.66	211.13
937.96	211.10
938.26	211.07
938.56	211.06
938.86	211.07
939.16	211.17
939.46	211.12
939.76	211.10
940.06	211.18
940.35	211.09
940.65	210.90
940.95	210.93
941.25	210.88
941.55	210.84
941.85	210.76
942.15	210.79
942.45	210.81
942.75	210.79
943.04	210.84
943.34	210.90
943.64	210.86
943.94	210.87
944.24	210.80
944.54	210.83
944.84	210.91
945.13	210.86
945.43	210.82
945.73	210.92
946.03	211.00
946.33	211.00
946.62	211.07
946.92	211.20
947.22	211.17
947.52	211.14
947.82	211.16
948.11	211.20
948.41	211.13
948.71	211.13
949.01	211.13
949.31	211.07
949.60	211.05
949.90	211.09
950.20	211.13
950.50	211.16
950.79	211.18
951.09	211.12
951.39	211.16
951.69	211.10
951.98	211.13
952.28	211.09
952.58	211.15
952.87	211.10
953.17	211.08
953.47	211.05
953.76	211.04
954.06	211.01
954.36	210.95
954.66	210.97
954.95	211.04
955.25	211.05
955.55	210.99
955.84	210.97
956.14	210.94
956.44	211.00
956.73	211.03
957.03	211.07
957.32	211.09
957.62	211.05
957.92	211.15
958.21	211.10
958.51	211.31
958.81	211.23
959.10	211.25
959.40	211.31
959.69	211.38
959.99	211.47
960.29	211.46
960.58	211.51
960.88	211.64
961.17	211.59
961.47	211.64
961.76	211.68
962.06	211.70
962.36	211.71
962.65	211.68
962.95	211.65
963.24	211.59
963.54	211.56
963.83	211.55
964.13	211.57
964.42	211.55
964.72	211.40
965.01	211.46
965.31	211.44
965.60	211.42
965.90	211.54
966.19	211.45
966.49	211.46
966.78	211.44
967.08	211.35
967.37	211.38
967.67	211.38
967.96	211.37
968.26	211.39
968.55	211.49
968.85	211.50
969.14	211.53
969.43	211.57
969.73	211.57
970.02	211.67
970.32	211.53
970.61	211.46
970.91	211.35
971.20	211.28
971.49	211.26
971.79	211.26
972.08	211.12
972.38	211.13
972.67	211.13
972.96	211.22
973.26	211.24
973.55	211.23
973.85	211.22
974.14	211.25
974.43	211.29
974.73	211.21
975.02	211.21
975.31	211.16
975.61	211.17
975.90	211.10
976.19	211.03
976.49	211.15
976.78	211.25
977.07	211.34
977.37	211.37
977.66	211.41
977.95	211.41
978.24	211.40
978.54	211.43
978.83	211.45
979.12	211.32
979.42	211.28
979.71	211.26
980.00	211.23
980.29	211.23
980.59	211.16
980.88	211.15
981.17	211.09
981.46	211.08
981.76	211.07
982.05	211.13
982.34	211.18
982.63	211.15
982.93	211.09
983.22	211.15
983.51	211.15
983.80	211.12
984.09	211.08
984.39	211.07
984.68	211.05
984.97	211.07
985.26	211.10
985.55	211.17
985.85	211.14
986.14	211.13
986.43	211.14
986.72	211.11
987.01	211.14
987.30	211.11
987.59	211.11
987.89	211.03
988.18	210.98
988.47	210.92
988.76	210.92
989.05	210.92
989.34	210.86
989.63	210.87
989.92	210.84
990.22	210.81
990.51	210.88
990.80	210.86
991.09	210.78
991.38	210.79
991.67	210.71
991.96	210.68
992.25	210.72
992.54	210.65
992.83	210.62
993.12	210.56
993.41	210.66
993.70	210.78
993.99	210.81
994.28	210.86
994.58	210.92
994.87	210.95
995.16	210.95
995.45	210.91
995.74	210.90
996.03	210.96
996.32	211.00
996.61	210.99
996.90	211.00
997.19	211.01
997.48	210.98
997.77	210.96
998.06	210.98
998.34	210.94
998.63	210.96
998.92	211.00
999.21	211.07
999.50	211.04
999.79	210.82
1000.08	210.82
1000.37	210.79
1000.66	210.69
1000.95	210.66
1001.24	210.68
1001.53	210.73
1001.82	210.65
1002.11	210.54
1002.40	210.49
1002.68	210.52
1002.97	210.59
1003.26	210.62
1003.55	210.63
1003.84	210.64
1004.13	210.70
1004.42	210.69
1004.71	210.67
1004.99	210.71
1005.28	210.70
1005.57	210.70
1005.86	210.80
1006.15	210.76
1006.44	210.72
1006.72	210.70
1007.01	210.69
1007.30	210.69
1007.59	210.65
1007.88	210.74
1008.17	210.76
1008.45	210.78
1008.74	210.73
1009.03	210.76
1009.32	210.73
1009.60	210.72
1009.89	210.72
1010.18	210.67
1010.47	210.69
1010.76	210.64
1011.04	210.55
1011.33	210.56
1011.62	210.58
1011.91	210.62
1012.19	210.65
1012.48	210.71
1012.77	210.75
1013.05	210.82
1013.34	210.78
1013.63	210.82
1013.92	210.77
1014.20	210.78
1014.49	210.84
1014.78	210.79
1015.06	210.73
1015.35	210.71
1015.64	210.74
1015.92	210.74
1016.21	210.73
1016.50	210.72
1016.78	210.80
1017.07	210.89
1017.36	210.82
1017.64	210.76
1017.93	210.79
1018.22	210.82
1018.50	210.80
1018.79	210.85
1019.08	210.86
1019.36	210.95
1019.65	210.93
1019.93	210.95
1020.22	211.00
1020.51	211.05
1020.79	211.07
1021.08	210.90
1021.36	210.70
1021.65	211.45
1021.94	212.25
1022.22	211.90
1022.51	211.40
1022.79	211.05
1023.08	211.30
1023.36	212.60
1023.65	210.75
>>>>>End Processed Spectral Data<<<<<
