SpectraSuite Data File
++++++++++++++++++++++++++++++++++++
Date: Mon Feb 25 17:29:56 EST 2013
User: group
Dark Spectrum Present: No
Reference Spectrum Present: No
Number of Sampled Component Spectra: 1
Spectrometers: USB2E7196
Integration Time (usec): 52000 (USB2E7196)
Spectra Averaged: 20 (USB2E7196)
Boxcar Smoothing: 10 (USB2E7196)
Correct for Electrical Dark: No (USB2E7196)
Strobe/Lamp Enabled: No (USB2E7196)
Correct for Detector Non-linearity: No (USB2E7196)
Correct for Stray Light: No (USB2E7196)
Number of Pixels in Processed Spectrum: 2048
>>>>>Begin Processed Spectral Data<<<<<
339.09	0.00
339.48	197.90
339.86	200.10
340.24	200.95
340.63	203.70
341.01	207.60
341.39	205.35
341.78	207.50
342.16	209.20
342.54	207.25
342.93	198.09
343.31	208.10
343.69	208.73
344.07	209.19
344.46	209.66
344.84	210.04
345.22	210.23
345.60	210.49
345.99	210.70
346.37	210.81
346.75	211.05
347.13	211.12
347.52	211.21
347.90	211.28
348.28	211.35
348.66	211.38
349.05	211.34
349.43	211.49
349.81	211.52
350.19	211.61
350.57	211.71
350.96	211.82
351.34	211.94
351.72	212.06
352.10	212.22
352.48	212.29
352.87	212.33
353.25	212.40
353.63	212.53
354.01	212.61
354.39	212.72
354.77	212.72
355.15	212.87
355.54	212.84
355.92	212.87
356.30	212.95
356.68	213.23
357.06	213.30
357.44	213.37
357.82	213.49
358.20	213.55
358.58	213.64
358.97	213.61
359.35	213.69
359.73	213.73
360.11	213.73
360.49	213.81
360.87	213.92
361.25	213.96
361.63	214.01
362.01	214.07
362.39	214.04
362.77	214.07
363.15	214.06
363.53	214.15
363.91	214.15
364.29	214.13
364.67	213.92
365.05	213.96
365.43	213.86
365.81	213.93
366.19	213.99
366.57	214.02
366.95	214.03
367.33	213.97
367.71	213.96
368.09	213.99
368.47	214.03
368.85	213.99
369.23	214.05
369.61	213.97
369.99	213.96
370.37	214.01
370.75	214.10
371.13	213.98
371.51	213.90
371.89	213.90
372.27	213.93
372.65	213.91
373.03	213.89
373.41	213.91
373.78	213.85
374.16	213.72
374.54	213.63
374.92	213.54
375.30	213.46
375.68	213.41
376.06	213.40
376.44	213.25
376.82	213.21
377.19	213.18
377.57	213.14
377.95	212.99
378.33	212.90
378.71	212.78
379.09	212.78
379.47	212.66
379.84	212.55
380.22	212.39
380.60	212.34
380.98	212.12
381.36	212.00
381.73	211.92
382.11	211.93
382.49	211.91
382.87	211.94
383.25	211.94
383.62	212.05
384.00	211.95
384.38	211.88
384.76	211.89
385.13	211.88
385.51	211.84
385.89	211.83
386.27	211.76
386.64	211.69
387.02	211.70
387.40	211.76
387.78	211.78
388.15	211.81
388.53	211.73
388.91	211.80
389.29	211.85
389.66	211.80
390.04	211.68
390.42	211.64
390.79	211.63
391.17	211.60
391.55	211.38
391.92	211.38
392.30	211.37
392.68	211.25
393.05	211.19
393.43	211.17
393.81	211.19
394.18	211.17
394.56	211.25
394.94	211.26
395.31	211.23
395.69	211.26
396.06	211.28
396.44	211.35
396.82	211.40
397.19	211.52
397.57	211.49
397.95	211.58
398.32	211.55
398.70	211.55
399.07	211.63
399.45	211.64
399.82	211.65
400.20	211.68
400.58	211.78
400.95	211.73
401.33	211.91
401.70	212.03
402.08	212.13
402.45	212.11
402.83	212.24
403.20	212.28
403.58	212.33
403.95	212.48
404.33	212.51
404.71	212.60
405.08	212.69
405.46	212.71
405.83	212.85
406.21	212.95
406.58	213.14
406.96	213.22
407.33	213.43
407.70	213.61
408.08	213.95
408.45	214.16
408.83	214.37
409.20	214.49
409.58	214.61
409.95	214.84
410.33	215.10
410.70	215.29
411.08	215.64
411.45	215.96
411.82	216.25
412.20	216.67
412.57	217.16
412.95	217.42
413.32	218.01
413.69	218.49
414.07	219.03
414.44	219.48
414.82	220.10
415.19	220.70
415.56	221.31
415.94	221.91
416.31	222.64
416.68	223.41
417.06	224.28
417.43	225.09
417.81	226.03
418.18	226.98
418.55	228.01
418.93	229.08
419.30	230.21
419.67	231.39
420.04	232.68
420.42	233.93
420.79	235.50
421.16	236.93
421.54	238.46
421.91	240.00
422.28	241.73
422.66	243.46
423.03	245.28
423.40	247.11
423.77	249.03
424.15	250.97
424.52	252.96
424.89	255.21
425.26	257.41
425.64	259.50
426.01	261.80
426.38	264.07
426.75	266.47
427.13	268.91
427.50	271.45
427.87	274.05
428.24	276.78
428.61	279.29
428.99	282.11
429.36	285.20
429.73	288.30
430.10	291.23
430.47	294.23
430.85	297.41
431.22	300.73
431.59	304.28
431.96	307.64
432.33	311.37
432.70	314.89
433.08	319.19
433.45	323.23
433.82	327.12
434.19	331.61
434.56	335.87
434.93	340.00
435.30	344.11
435.68	348.63
436.05	353.00
436.42	357.42
436.79	361.63
437.16	366.01
437.53	370.61
437.90	375.26
438.27	379.78
438.64	384.45
439.01	388.85
439.38	392.69
439.75	396.48
440.13	400.77
440.50	404.85
440.87	408.02
441.24	411.30
441.61	415.10
441.98	417.84
442.35	421.08
442.72	424.32
443.09	427.58
443.46	429.48
443.83	430.76
444.20	431.95
444.57	433.45
444.94	434.18
445.31	435.06
445.68	435.77
446.05	436.09
446.42	435.53
446.79	435.01
447.16	434.47
447.53	434.05
447.90	432.22
448.27	430.40
448.64	427.99
449.01	426.38
449.37	423.23
449.74	420.25
450.11	416.64
450.48	412.75
450.85	408.76
451.22	405.39
451.59	402.25
451.96	399.16
452.33	395.00
452.70	391.18
453.07	386.61
453.43	382.08
453.80	377.85
454.17	373.79
454.54	369.81
454.91	365.57
455.28	361.45
455.65	357.77
456.02	354.11
456.38	350.83
456.75	346.67
457.12	343.39
457.49	340.11
457.86	336.99
458.23	334.29
458.59	331.26
458.96	328.22
459.33	325.50
459.70	322.75
460.07	320.59
460.43	318.22
460.80	315.89
461.17	313.89
461.54	311.77
461.91	309.70
462.27	307.64
462.64	305.92
463.01	303.92
463.38	302.15
463.74	300.13
464.11	298.59
464.48	297.16
464.85	295.54
465.21	294.41
465.58	293.24
465.95	291.81
466.32	290.58
466.68	289.42
467.05	288.26
467.42	287.05
467.78	285.88
468.15	284.73
468.52	283.93
468.88	282.81
469.25	281.77
469.62	281.05
469.98	280.29
470.35	279.53
470.72	278.79
471.08	277.92
471.45	277.35
471.82	276.73
472.18	276.07
472.55	275.66
472.92	275.01
473.28	274.51
473.65	273.99
474.02	273.46
474.38	273.11
474.75	272.81
475.11	272.56
475.48	272.42
475.85	272.25
476.21	272.04
476.58	271.94
476.94	272.04
477.31	272.10
477.67	272.09
478.04	272.13
478.41	272.40
478.77	272.79
479.14	272.97
479.50	273.24
479.87	273.71
480.23	274.14
480.60	274.51
480.96	274.96
481.33	275.65
481.69	276.42
482.06	277.06
482.42	277.69
482.79	278.39
483.15	279.20
483.52	280.23
483.88	281.23
484.25	282.31
484.61	283.39
484.98	284.32
485.34	285.68
485.71	287.03
486.07	288.49
486.44	289.78
486.80	291.24
487.17	292.90
487.53	294.57
487.90	296.37
488.26	298.32
488.62	300.32
488.99	302.31
489.35	304.30
489.72	306.59
490.08	309.03
490.44	311.59
490.81	314.24
491.17	316.80
491.54	319.68
491.90	322.64
492.26	325.82
492.63	329.25
492.99	332.71
493.36	336.40
493.72	340.25
494.08	344.20
494.45	348.59
494.81	353.05
495.17	357.57
495.54	362.57
495.90	367.55
496.26	372.76
496.63	378.19
496.99	383.95
497.35	389.96
497.72	396.14
498.08	402.48
498.44	409.03
498.80	416.12
499.17	423.44
499.53	430.92
499.89	438.68
500.26	446.63
500.62	454.63
500.98	463.19
501.34	472.01
501.71	481.26
502.07	490.62
502.43	500.27
502.79	510.20
503.16	520.27
503.52	530.90
503.88	541.64
504.24	552.82
504.60	564.16
504.97	575.77
505.33	587.80
505.69	600.55
506.05	613.53
506.41	626.36
506.78	639.37
507.14	652.79
507.50	666.46
507.86	680.73
508.22	695.43
508.59	709.85
508.95	724.90
509.31	740.13
509.67	755.79
510.03	771.61
510.39	788.06
510.75	804.61
511.12	821.60
511.48	838.59
511.84	855.82
512.20	873.44
512.56	891.35
512.92	909.13
513.28	927.14
513.64	945.19
514.00	963.95
514.37	982.94
514.73	1002.34
515.09	1021.57
515.45	1040.65
515.81	1060.09
516.17	1079.78
516.53	1099.06
516.89	1118.66
517.25	1138.23
517.61	1158.08
517.97	1177.75
518.33	1197.36
518.69	1217.05
519.05	1237.20
519.41	1257.09
519.77	1277.33
520.13	1297.27
520.49	1317.42
520.85	1337.65
521.21	1358.05
521.57	1378.35
521.93	1397.81
522.29	1417.88
522.65	1437.83
523.01	1457.89
523.37	1477.16
523.73	1496.90
524.09	1516.75
524.45	1536.58
524.81	1556.25
525.17	1575.89
525.53	1595.47
525.89	1615.60
526.25	1634.71
526.61	1653.32
526.97	1672.26
527.33	1690.95
527.68	1709.47
528.04	1727.79
528.40	1745.34
528.76	1763.06
529.12	1780.79
529.48	1799.80
529.84	1817.24
530.20	1834.68
530.56	1852.07
530.91	1869.86
531.27	1887.11
531.63	1904.03
531.99	1920.73
532.35	1937.00
532.71	1953.16
533.07	1969.73
533.42	1984.70
533.78	2000.85
534.14	2016.42
534.50	2030.92
534.86	2045.88
535.21	2059.70
535.57	2074.61
535.93	2088.91
536.29	2102.86
536.65	2116.82
537.00	2128.91
537.36	2141.47
537.72	2153.71
538.08	2165.87
538.44	2178.38
538.79	2191.30
539.15	2203.08
539.51	2214.70
539.87	2226.83
540.22	2238.07
540.58	2249.71
540.94	2261.09
541.29	2270.74
541.65	2279.78
542.01	2290.13
542.37	2298.77
542.72	2308.60
543.08	2316.65
543.44	2325.54
543.79	2333.28
544.15	2340.68
544.51	2349.15
544.87	2357.42
545.22	2364.46
545.58	2370.86
545.94	2375.72
546.29	2379.56
546.65	2383.70
547.01	2387.93
547.36	2391.55
547.72	2395.22
548.07	2397.40
548.43	2399.63
548.79	2401.64
549.14	2404.43
549.50	2406.60
549.86	2409.03
550.21	2411.26
550.57	2413.94
550.92	2415.44
551.28	2416.47
551.64	2417.29
551.99	2418.35
552.35	2418.84
552.70	2419.69
553.06	2421.12
553.41	2422.70
553.77	2424.18
554.13	2425.14
554.48	2425.64
554.84	2425.68
555.19	2425.05
555.55	2424.40
555.90	2423.60
556.26	2423.33
556.61	2422.22
556.97	2420.24
557.32	2418.73
557.68	2415.84
558.03	2413.26
558.39	2410.51
558.74	2408.87
559.10	2406.92
559.45	2404.00
559.81	2401.77
560.16	2398.75
560.52	2395.34
560.87	2391.81
561.23	2387.69
561.58	2384.88
561.94	2381.12
562.29	2377.29
562.64	2374.39
563.00	2371.39
563.35	2368.81
563.71	2366.29
564.06	2363.70
564.42	2361.56
564.77	2358.93
565.12	2356.59
565.48	2353.06
565.83	2349.91
566.19	2346.35
566.54	2341.65
566.89	2337.65
567.25	2333.20
567.60	2329.76
567.96	2325.89
568.31	2322.05
568.66	2318.03
569.02	2313.04
569.37	2308.38
569.72	2304.38
570.08	2299.36
570.43	2293.84
570.78	2288.13
571.14	2282.09
571.49	2276.07
571.84	2270.24
572.20	2263.84
572.55	2257.77
572.90	2251.42
573.26	2245.02
573.61	2238.70
573.96	2233.17
574.31	2225.90
574.67	2218.60
575.02	2210.71
575.37	2202.95
575.72	2194.70
576.08	2187.59
576.43	2180.07
576.78	2172.49
577.13	2165.07
577.49	2157.85
577.84	2150.76
578.19	2144.16
578.54	2137.66
578.90	2131.45
579.25	2123.54
579.60	2115.22
579.95	2107.24
580.30	2099.96
580.66	2092.82
581.01	2085.13
581.36	2076.42
581.71	2069.29
582.06	2061.93
582.42	2054.97
582.77	2046.98
583.12	2039.38
583.47	2031.89
583.82	2024.59
584.17	2017.02
584.53	2009.15
584.88	2001.19
585.23	1993.34
585.58	1984.79
585.93	1976.14
586.28	1968.03
586.63	1960.75
586.98	1954.07
587.34	1946.88
587.69	1939.31
588.04	1931.46
588.39	1923.90
588.74	1916.29
589.09	1908.78
589.44	1900.57
589.79	1892.89
590.14	1886.15
590.49	1879.20
590.84	1871.56
591.19	1864.91
591.54	1857.49
591.89	1849.20
592.25	1841.57
592.60	1833.69
592.95	1825.88
593.30	1818.07
593.65	1810.10
594.00	1801.79
594.35	1794.51
594.70	1786.58
595.05	1779.08
595.40	1771.72
595.75	1763.68
596.10	1757.15
596.45	1749.92
596.80	1743.47
597.15	1736.91
597.50	1729.28
597.85	1722.00
598.19	1714.72
598.54	1707.09
598.89	1700.51
599.24	1694.49
599.59	1688.23
599.94	1682.21
600.29	1675.62
600.64	1668.83
600.99	1661.85
601.34	1656.17
601.69	1648.81
602.04	1642.23
602.39	1635.66
602.74	1628.65
603.08	1623.10
603.43	1616.92
603.78	1610.18
604.13	1603.37
604.48	1596.45
604.83	1590.60
605.18	1584.75
605.53	1578.15
605.87	1571.63
606.22	1565.49
606.57	1558.91
606.92	1551.72
607.27	1544.69
607.62	1538.36
607.96	1532.51
608.31	1526.91
608.66	1519.80
609.01	1513.37
609.36	1506.74
609.70	1499.50
610.05	1493.05
610.40	1485.90
610.75	1478.31
611.10	1472.01
611.44	1464.28
611.79	1456.54
612.14	1448.67
612.49	1440.45
612.83	1433.01
613.18	1424.88
613.53	1416.75
613.88	1408.39
614.22	1401.03
614.57	1393.32
614.92	1385.48
615.27	1377.33
615.61	1369.08
615.96	1361.51
616.31	1354.32
616.65	1347.49
617.00	1340.78
617.35	1333.41
617.70	1326.10
618.04	1318.79
618.39	1310.66
618.74	1303.42
619.08	1296.02
619.43	1288.94
619.78	1282.24
620.12	1275.47
620.47	1268.90
620.82	1261.87
621.16	1254.95
621.51	1247.77
621.85	1240.69
622.20	1233.69
622.55	1226.79
622.89	1219.76
623.24	1212.85
623.59	1205.30
623.93	1197.77
624.28	1190.49
624.62	1183.74
624.97	1176.61
625.32	1169.81
625.66	1163.53
626.01	1157.42
626.35	1151.43
626.70	1144.73
627.04	1138.30
627.39	1131.83
627.73	1125.30
628.08	1119.38
628.43	1113.16
628.77	1106.98
629.12	1100.62
629.46	1094.76
629.81	1088.65
630.15	1082.35
630.50	1076.17
630.84	1070.00
631.19	1063.90
631.53	1058.16
631.88	1051.41
632.22	1044.90
632.57	1039.00
632.91	1032.52
633.26	1026.22
633.60	1019.84
633.95	1014.12
634.29	1007.80
634.64	1001.98
634.98	996.23
635.32	990.20
635.67	984.82
636.01	979.00
636.36	973.28
636.70	967.75
637.05	962.11
637.39	956.76
637.73	951.32
638.08	946.41
638.42	941.21
638.77	935.62
639.11	930.39
639.45	925.36
639.80	919.78
640.14	914.26
640.49	908.73
640.83	903.45
641.17	898.00
641.52	892.94
641.86	887.35
642.20	881.86
642.55	875.84
642.89	870.07
643.23	864.66
643.58	859.49
643.92	853.57
644.26	848.17
644.61	842.83
644.95	837.69
645.29	832.19
645.64	826.69
645.98	821.43
646.32	816.26
646.66	810.83
647.01	805.62
647.35	800.71
647.69	795.35
648.04	790.24
648.38	785.06
648.72	779.80
649.06	774.72
649.41	769.47
649.75	764.54
650.09	759.50
650.43	754.34
650.78	749.16
651.12	744.07
651.46	738.96
651.80	733.87
652.14	728.54
652.49	723.38
652.83	718.57
653.17	713.25
653.51	708.39
653.85	703.58
654.20	698.61
654.54	693.44
654.88	688.81
655.22	683.82
655.56	678.73
655.90	673.64
656.25	668.63
656.59	664.07
656.93	659.68
657.27	655.20
657.61	650.44
657.95	645.81
658.29	641.37
658.64	637.11
658.98	632.60
659.32	627.99
659.66	623.48
660.00	618.74
660.34	614.23
660.68	609.51
661.02	605.07
661.36	600.95
661.70	596.81
662.05	592.54
662.39	588.63
662.73	584.91
663.07	581.24
663.41	577.47
663.75	573.46
664.09	569.30
664.43	565.15
664.77	561.45
665.11	557.82
665.45	554.06
665.79	550.16
666.13	546.45
666.47	542.86
666.81	539.20
667.15	535.66
667.49	532.28
667.83	528.90
668.17	525.54
668.51	522.24
668.85	519.17
669.19	516.23
669.53	512.88
669.87	509.39
670.21	506.13
670.55	502.80
670.89	499.69
671.23	496.87
671.57	493.81
671.91	490.77
672.25	487.71
672.58	484.72
672.92	481.75
673.26	479.00
673.60	476.23
673.94	473.37
674.28	470.59
674.62	467.89
674.96	465.27
675.30	462.74
675.64	459.96
675.97	456.94
676.31	454.09
676.65	451.47
676.99	449.22
677.33	446.52
677.67	444.05
678.01	441.37
678.34	438.74
678.68	436.36
679.02	433.83
679.36	431.30
679.70	428.84
680.04	426.36
680.37	423.60
680.71	421.13
681.05	418.91
681.39	416.59
681.73	414.32
682.06	412.01
682.40	409.74
682.74	407.54
683.08	405.57
683.42	403.42
683.75	401.28
684.09	398.95
684.43	396.90
684.77	394.70
685.10	392.67
685.44	390.47
685.78	388.35
686.12	386.39
686.45	384.37
686.79	382.41
687.13	380.62
687.46	378.83
687.80	376.98
688.14	375.02
688.48	373.20
688.81	371.26
689.15	369.45
689.49	367.49
689.82	365.60
690.16	363.48
690.50	361.52
690.83	359.60
691.17	357.66
691.51	355.65
691.84	353.79
692.18	352.02
692.52	350.41
692.85	348.85
693.19	347.18
693.52	345.54
693.86	343.89
694.20	342.16
694.53	340.60
694.87	338.81
695.21	337.28
695.54	335.58
695.88	333.90
696.21	332.29
696.55	330.80
696.88	329.25
697.22	327.85
697.56	326.56
697.89	325.21
698.23	323.86
698.56	322.50
698.90	321.21
699.23	319.80
699.57	318.41
699.90	316.88
700.24	315.48
700.58	314.10
700.91	312.85
701.25	311.71
701.58	310.41
701.92	309.32
702.25	307.99
702.59	306.80
702.92	305.70
703.26	304.57
703.59	303.41
703.93	302.48
704.26	301.36
704.60	300.19
704.93	299.04
705.26	297.89
705.60	296.97
705.93	295.95
706.27	294.93
706.60	293.92
706.94	293.06
707.27	292.07
707.61	291.09
707.94	290.00
708.27	288.92
708.61	287.91
708.94	286.93
709.28	285.92
709.61	285.01
709.94	284.11
710.28	283.14
710.61	282.19
710.95	281.11
711.28	280.38
711.61	279.50
711.95	278.70
712.28	277.88
712.61	277.00
712.95	276.14
713.28	275.36
713.61	274.57
713.95	273.76
714.28	273.01
714.61	272.20
714.95	271.40
715.28	270.62
715.61	269.88
715.95	269.03
716.28	268.39
716.61	267.74
716.95	266.98
717.28	266.28
717.61	265.64
717.94	264.96
718.28	264.14
718.61	263.50
718.94	262.77
719.27	262.17
719.61	261.61
719.94	260.99
720.27	260.35
720.60	259.74
720.94	259.10
721.27	258.50
721.60	257.99
721.93	257.52
722.27	256.98
722.60	256.48
722.93	256.04
723.26	255.51
723.59	254.91
723.93	254.39
724.26	253.93
724.59	253.47
724.92	252.99
725.25	252.55
725.59	252.01
725.92	251.58
726.25	251.07
726.58	250.60
726.91	250.11
727.24	249.65
727.57	249.21
727.91	248.71
728.24	248.28
728.57	247.86
728.90	247.49
729.23	247.00
729.56	246.69
729.89	246.23
730.22	245.87
730.55	245.50
730.89	245.14
731.22	244.74
731.55	244.30
731.88	243.95
732.21	243.60
732.54	243.26
732.87	242.90
733.20	242.50
733.53	242.08
733.86	241.77
734.19	241.37
734.52	241.10
734.85	240.94
735.18	240.64
735.51	240.38
735.84	239.98
736.17	239.71
736.50	239.26
736.83	239.25
737.16	238.84
737.49	238.47
737.82	238.16
738.15	237.86
738.48	237.65
738.81	237.29
739.14	236.92
739.47	236.60
739.80	236.31
740.13	236.02
740.46	235.71
740.79	235.40
741.12	235.17
741.45	234.83
741.78	234.51
742.11	234.19
742.44	233.85
742.77	233.61
743.10	233.39
743.43	233.13
743.75	232.58
744.08	232.60
744.41	232.38
744.74	232.14
745.07	231.88
745.40	231.58
745.73	231.52
746.06	231.36
746.39	231.20
746.71	230.99
747.04	230.77
747.37	230.55
747.70	230.36
748.03	230.18
748.36	230.00
748.68	229.71
749.01	229.50
749.34	229.30
749.67	229.15
750.00	228.94
750.33	228.86
750.65	228.73
750.98	228.30
751.31	228.12
751.64	227.89
751.97	227.74
752.29	227.59
752.62	227.20
752.95	227.00
753.28	226.67
753.60	226.47
753.93	226.34
754.26	226.12
754.59	225.91
754.91	225.69
755.24	225.49
755.57	225.32
755.90	225.16
756.22	224.99
756.55	224.77
756.88	224.53
757.20	224.22
757.53	224.03
757.86	223.88
758.19	223.73
758.51	223.50
758.84	223.30
759.17	223.13
759.49	223.06
759.82	222.94
760.15	222.81
760.47	222.61
760.80	222.36
761.13	222.27
761.45	222.05
761.78	221.94
762.11	221.81
762.43	221.68
762.76	221.51
763.08	221.37
763.41	221.27
763.74	221.15
764.06	221.06
764.39	220.94
764.71	220.79
765.04	220.69
765.37	220.66
765.69	220.55
766.02	220.38
766.34	220.25
766.67	220.14
767.00	220.17
767.32	220.18
767.65	220.26
767.97	220.15
768.30	220.12
768.62	219.91
768.95	219.77
769.27	219.63
769.60	219.61
769.92	219.51
770.25	219.35
770.57	219.25
770.90	219.15
771.22	219.05
771.55	218.88
771.87	218.78
772.20	218.67
772.52	218.72
772.85	218.84
773.17	218.74
773.50	218.65
773.82	218.54
774.15	218.37
774.47	218.17
774.80	218.05
775.12	217.96
775.45	217.99
775.77	217.95
776.09	217.93
776.42	217.81
776.74	217.76
777.07	217.78
777.39	217.75
777.72	217.70
778.04	217.68
778.36	217.72
778.69	217.71
779.01	217.70
779.33	217.51
779.66	217.30
779.98	217.20
780.31	217.17
780.63	217.16
780.95	217.14
781.28	217.15
781.60	217.15
781.92	217.13
782.25	217.02
782.57	216.92
782.89	216.80
783.22	216.79
783.54	216.71
783.86	216.57
784.19	216.41
784.51	216.41
784.83	216.23
785.16	216.19
785.48	216.14
785.80	216.08
786.12	216.05
786.45	216.00
786.77	216.00
787.09	215.91
787.42	215.83
787.74	215.83
788.06	215.75
788.38	215.69
788.71	215.65
789.03	215.61
789.35	215.63
789.67	215.58
789.99	215.48
790.32	215.49
790.64	215.47
790.96	215.69
791.28	215.62
791.61	215.69
791.93	215.61
792.25	215.51
792.57	215.54
792.89	215.46
793.21	215.36
793.54	215.32
793.86	215.33
794.18	215.19
794.50	215.06
794.82	214.99
795.14	214.98
795.47	214.93
795.79	214.96
796.11	214.87
796.43	214.90
796.75	214.94
797.07	214.92
797.39	214.94
797.71	214.71
798.04	214.64
798.36	214.60
798.68	214.57
799.00	214.54
799.32	214.52
799.64	214.48
799.96	214.52
800.28	214.56
800.60	214.44
800.92	214.40
801.24	214.45
801.56	214.46
801.89	214.41
802.21	214.39
802.53	214.32
802.85	214.34
803.17	214.36
803.49	214.28
803.81	214.15
804.13	214.01
804.45	213.99
804.77	214.03
805.09	214.03
805.41	213.95
805.73	213.90
806.05	213.72
806.37	213.69
806.69	213.66
807.01	213.54
807.33	213.55
807.65	213.51
807.97	213.51
808.28	213.42
808.60	213.46
808.92	213.46
809.24	213.43
809.56	213.45
809.88	213.28
810.20	213.31
810.52	213.30
810.84	213.33
811.16	213.29
811.48	213.22
811.80	213.19
812.12	213.23
812.43	213.26
812.75	213.30
813.07	213.25
813.39	213.20
813.71	213.12
814.03	213.06
814.35	213.08
814.67	212.97
814.98	212.98
815.30	212.92
815.62	212.83
815.94	212.81
816.26	212.69
816.58	212.72
816.89	212.63
817.21	212.64
817.53	212.63
817.85	212.56
818.17	212.57
818.48	212.54
818.80	212.61
819.12	212.59
819.44	212.55
819.76	212.53
820.07	212.54
820.39	212.59
820.71	212.64
821.03	212.59
821.34	212.61
821.66	212.65
821.98	212.63
822.30	212.61
822.61	212.68
822.93	212.65
823.25	212.73
823.57	212.79
823.88	212.84
824.20	212.83
824.52	212.86
824.83	212.83
825.15	212.77
825.47	212.72
825.79	212.73
826.10	212.70
826.42	212.60
826.74	212.60
827.05	212.59
827.37	212.60
827.69	212.61
828.00	212.52
828.32	212.43
828.64	212.35
828.95	212.46
829.27	212.42
829.58	212.47
829.90	212.44
830.22	212.36
830.53	212.28
830.85	212.32
831.17	212.34
831.48	212.30
831.80	212.31
832.11	212.23
832.43	212.13
832.75	212.17
833.06	212.37
833.38	212.34
833.69	212.25
834.01	212.19
834.32	212.15
834.64	212.15
834.96	212.19
835.27	212.23
835.59	212.16
835.90	212.14
836.22	212.08
836.53	212.03
836.85	212.08
837.16	212.25
837.48	212.18
837.79	212.16
838.11	212.14
838.42	212.13
838.74	212.17
839.05	212.20
839.37	212.11
839.68	212.01
840.00	211.95
840.31	212.02
840.63	211.99
840.94	212.01
841.26	212.01
841.57	211.96
841.88	211.95
842.20	211.90
842.51	211.85
842.83	211.82
843.14	211.96
843.46	211.90
843.77	211.76
844.08	211.75
844.40	211.70
844.71	211.73
845.03	211.78
845.34	211.71
845.65	211.73
845.97	211.82
846.28	211.80
846.60	211.88
846.91	211.82
847.22	211.81
847.54	211.83
847.85	211.87
848.16	211.93
848.48	211.90
848.79	212.04
849.10	212.06
849.42	212.05
849.73	211.87
850.04	211.84
850.36	211.82
850.67	211.84
850.98	211.87
851.30	211.84
851.61	211.74
851.92	211.79
852.23	211.79
852.55	211.75
852.86	211.70
853.17	211.67
853.49	211.72
853.80	211.84
854.11	211.85
854.42	211.89
854.74	211.91
855.05	211.89
855.36	211.80
855.67	211.79
855.99	211.87
856.30	212.10
856.61	212.11
856.92	212.09
857.23	212.13
857.55	212.07
857.86	212.07
858.17	212.09
858.48	212.05
858.79	212.02
859.11	212.05
859.42	212.01
859.73	212.06
860.04	212.05
860.35	211.95
860.66	211.85
860.98	211.79
861.29	211.73
861.60	211.75
861.91	211.75
862.22	211.67
862.53	211.59
862.84	211.40
863.16	211.42
863.47	211.42
863.78	211.44
864.09	211.54
864.40	211.56
864.71	211.55
865.02	211.59
865.33	211.52
865.64	211.52
865.95	211.61
866.27	211.67
866.58	211.67
866.89	211.70
867.20	211.72
867.51	211.73
867.82	211.71
868.13	211.75
868.44	211.75
868.75	211.81
869.06	211.86
869.37	211.93
869.68	211.94
869.99	211.98
870.30	211.98
870.61	211.93
870.92	211.96
871.23	211.96
871.54	211.94
871.85	211.99
872.16	212.00
872.47	211.98
872.78	211.82
873.09	211.81
873.40	211.78
873.71	211.82
874.02	211.84
874.33	211.86
874.64	211.86
874.95	211.85
875.26	211.84
875.56	211.77
875.87	211.70
876.18	211.60
876.49	211.78
876.80	211.73
877.11	211.70
877.42	211.70
877.73	211.69
878.04	211.71
878.35	211.74
878.66	211.69
878.96	211.67
879.27	211.71
879.58	211.66
879.89	211.65
880.20	211.73
880.51	211.70
880.82	211.63
881.12	211.60
881.43	211.58
881.74	211.58
882.05	211.57
882.36	211.52
882.67	211.60
882.97	211.38
883.28	211.33
883.59	211.31
883.90	211.25
884.21	211.29
884.51	211.23
884.82	211.16
885.13	211.20
885.44	211.17
885.74	211.18
886.05	211.26
886.36	211.27
886.67	211.21
886.98	211.24
887.28	211.28
887.59	211.27
887.90	211.27
888.20	211.21
888.51	211.31
888.82	211.36
889.13	211.37
889.43	211.48
889.74	211.46
890.05	211.41
890.35	211.37
890.66	211.35
890.97	211.34
891.28	211.37
891.58	211.31
891.89	211.34
892.20	211.30
892.50	211.26
892.81	211.23
893.12	211.15
893.42	211.10
893.73	211.14
894.04	211.16
894.34	211.16
894.65	211.17
894.95	211.07
895.26	211.02
895.57	211.06
895.87	210.89
896.18	210.94
896.48	210.99
896.79	210.99
897.10	210.96
897.40	210.94
897.71	210.95
898.01	210.91
898.32	210.92
898.63	210.95
898.93	210.95
899.24	210.99
899.54	210.98
899.85	210.99
900.15	210.94
900.46	210.93
900.76	210.92
901.07	210.95
901.38	211.02
901.68	211.13
901.99	211.08
902.29	211.13
902.60	211.11
902.90	211.13
903.21	211.22
903.51	211.24
903.82	211.30
904.12	211.28
904.43	211.32
904.73	211.35
905.03	211.38
905.34	211.52
905.64	211.49
905.95	211.48
906.25	211.49
906.56	211.40
906.86	211.34
907.17	211.34
907.47	211.29
907.77	211.28
908.08	211.17
908.38	211.19
908.69	211.17
908.99	211.19
909.30	211.21
909.60	211.15
909.90	211.20
910.21	211.19
910.51	211.18
910.81	211.21
911.12	211.20
911.42	211.16
911.73	210.96
912.03	210.95
912.33	211.06
912.64	211.08
912.94	211.13
913.24	211.18
913.55	211.17
913.85	211.16
914.15	211.20
914.46	211.23
914.76	211.16
915.06	211.15
915.37	211.19
915.67	211.14
915.97	211.15
916.27	211.06
916.58	211.04
916.88	211.04
917.18	210.99
917.49	211.14
917.79	211.09
918.09	211.12
918.39	211.20
918.70	211.08
919.00	211.11
919.30	211.20
919.60	211.19
919.91	211.25
920.21	211.29
920.51	211.28
920.81	211.34
921.12	211.35
921.42	211.35
921.72	211.26
922.02	211.29
922.32	211.32
922.63	211.33
922.93	211.45
923.23	211.43
923.53	211.48
923.83	211.31
924.13	211.36
924.44	211.45
924.74	211.44
925.04	211.52
925.34	211.43
925.64	211.41
925.94	211.39
926.24	211.41
926.55	211.46
926.85	211.44
927.15	211.42
927.45	211.49
927.75	211.52
928.05	211.50
928.35	211.56
928.65	211.57
928.95	211.57
929.26	211.47
929.56	211.51
929.86	211.54
930.16	211.54
930.46	211.54
930.76	211.48
931.06	211.40
931.36	211.40
931.66	211.45
931.96	211.46
932.26	211.45
932.56	211.38
932.86	211.35
933.16	211.35
933.46	211.28
933.76	211.23
934.06	211.27
934.36	211.42
934.66	211.35
934.96	211.28
935.26	211.30
935.56	211.34
935.86	211.30
936.16	211.25
936.46	211.24
936.76	211.24
937.06	211.26
937.36	211.35
937.66	211.36
937.96	211.34
938.26	211.25
938.56	211.25
938.86	211.26
939.16	211.25
939.46	211.29
939.76	211.27
940.06	211.23
940.35	211.15
940.65	211.02
940.95	211.05
941.25	211.03
941.55	211.07
941.85	211.07
942.15	211.14
942.45	211.15
942.75	211.13
943.04	211.11
943.34	211.09
943.64	210.99
943.94	210.92
944.24	210.93
944.54	210.95
944.84	210.96
945.13	210.94
945.43	210.90
945.73	210.89
946.03	210.93
946.33	210.96
946.62	210.93
946.92	210.96
947.22	210.96
947.52	210.94
947.82	210.90
948.11	210.86
948.41	210.79
948.71	210.74
949.01	210.69
949.31	210.73
949.60	210.68
949.90	210.77
950.20	210.81
950.50	210.82
950.79	210.76
951.09	210.74
951.39	210.69
951.69	210.69
951.98	210.69
952.28	210.69
952.58	210.68
952.87	210.68
953.17	210.69
953.47	210.65
953.76	210.79
954.06	210.74
954.36	210.72
954.66	210.74
954.95	210.83
955.25	210.88
955.55	210.86
955.84	210.85
956.14	210.83
956.44	210.83
956.73	210.76
957.03	210.81
957.32	210.86
957.62	210.84
957.92	210.89
958.21	210.90
958.51	211.14
958.81	211.21
959.10	211.28
959.40	211.30
959.69	211.28
959.99	211.19
960.29	211.28
960.58	211.31
960.88	211.31
961.17	211.29
961.47	211.33
961.76	211.35
962.06	211.35
962.36	211.35
962.65	211.39
962.95	211.45
963.24	211.49
963.54	211.52
963.83	211.60
964.13	211.61
964.42	211.53
964.72	211.31
965.01	211.25
965.31	211.22
965.60	211.16
965.90	211.28
966.19	211.32
966.49	211.31
966.78	211.35
967.08	211.35
967.37	211.41
967.67	211.40
967.96	211.43
968.26	211.41
968.55	211.41
968.85	211.35
969.14	211.38
969.43	211.34
969.73	211.28
970.02	211.29
970.32	211.32
970.61	211.30
970.91	211.24
971.20	211.26
971.49	211.22
971.79	211.33
972.08	211.22
972.38	211.30
972.67	211.24
972.96	211.25
973.26	211.30
973.55	211.30
973.85	211.36
974.14	211.28
974.43	211.31
974.73	211.24
975.02	211.20
975.31	211.13
975.61	211.14
975.90	211.13
976.19	211.13
976.49	211.10
976.78	211.16
977.07	211.21
977.37	211.18
977.66	211.22
977.95	211.11
978.24	211.15
978.54	211.10
978.83	211.14
979.12	211.06
979.42	211.02
979.71	210.96
980.00	210.89
980.29	210.90
980.59	210.91
980.88	211.02
981.17	211.05
981.46	211.07
981.76	211.06
982.05	211.16
982.34	211.13
982.63	211.14
982.93	211.15
983.22	211.14
983.51	211.19
983.80	211.17
984.09	211.24
984.39	211.18
984.68	211.16
984.97	211.13
985.26	211.10
985.55	211.08
985.85	211.08
986.14	211.05
986.43	211.11
986.72	211.06
987.01	211.05
987.30	211.05
987.59	211.04
987.89	211.05
988.18	210.98
988.47	211.00
988.76	210.90
989.05	210.84
989.34	210.84
989.63	210.88
989.92	210.90
990.22	210.89
990.51	210.87
990.80	210.85
991.09	210.83
991.38	210.88
991.67	210.88
991.96	210.86
992.25	210.93
992.54	210.92
992.83	210.98
993.12	210.95
993.41	210.96
993.70	211.02
993.99	211.01
994.28	211.02
994.58	211.05
994.87	211.16
995.16	211.16
995.45	211.18
995.74	211.13
996.03	211.13
996.32	211.14
996.61	211.26
996.90	211.28
997.19	211.32
997.48	211.36
997.77	211.31
998.06	211.24
998.34	211.17
998.63	211.06
998.92	211.07
999.21	211.11
999.50	211.14
999.79	211.09
1000.08	211.12
1000.37	211.03
1000.66	210.91
1000.95	210.86
1001.24	210.86
1001.53	210.85
1001.82	210.82
1002.11	210.70
1002.40	210.76
1002.68	210.72
1002.97	210.85
1003.26	210.82
1003.55	210.70
1003.84	210.71
1004.13	210.80
1004.42	210.83
1004.71	210.88
1004.99	210.87
1005.28	210.89
1005.57	210.84
1005.86	210.81
1006.15	210.78
1006.44	210.80
1006.72	210.90
1007.01	210.90
1007.30	210.94
1007.59	210.92
1007.88	210.94
1008.17	211.03
1008.45	210.95
1008.74	210.85
1009.03	210.71
1009.32	210.69
1009.60	210.69
1009.89	210.78
1010.18	210.75
1010.47	210.72
1010.76	210.75
1011.04	210.72
1011.33	210.70
1011.62	210.76
1011.91	210.79
1012.19	210.81
1012.48	210.81
1012.77	210.78
1013.05	210.79
1013.34	210.71
1013.63	210.69
1013.92	210.70
1014.20	210.65
1014.49	210.72
1014.78	210.72
1015.06	210.72
1015.35	210.77
1015.64	210.88
1015.92	210.88
1016.21	210.89
1016.50	210.90
1016.78	210.94
1017.07	210.89
1017.36	210.82
1017.64	210.81
1017.93	210.86
1018.22	210.85
1018.50	210.89
1018.79	210.86
1019.08	210.91
1019.36	210.95
1019.65	210.95
1019.93	211.00
1020.22	211.15
1020.51	211.16
1020.79	211.26
1021.08	211.00
1021.36	210.90
1021.65	210.15
1021.94	212.45
1022.22	210.45
1022.51	210.30
1022.79	212.00
1023.08	212.90
1023.36	212.60
1023.65	211.75
>>>>>End Processed Spectral Data<<<<<
