SpectraSuite Data File
++++++++++++++++++++++++++++++++++++
Date: Mon Feb 25 17:34:38 EST 2013
User: group
Dark Spectrum Present: No
Reference Spectrum Present: No
Number of Sampled Component Spectra: 1
Spectrometers: USB2E7196
Integration Time (usec): 52000 (USB2E7196)
Spectra Averaged: 20 (USB2E7196)
Boxcar Smoothing: 10 (USB2E7196)
Correct for Electrical Dark: No (USB2E7196)
Strobe/Lamp Enabled: No (USB2E7196)
Correct for Detector Non-linearity: No (USB2E7196)
Correct for Stray Light: No (USB2E7196)
Number of Pixels in Processed Spectrum: 2048
>>>>>Begin Processed Spectral Data<<<<<
339.09	0.00
339.48	199.05
339.86	200.50
340.24	201.90
340.63	201.80
341.01	205.80
341.39	205.70
341.78	207.00
342.16	208.15
342.54	209.20
342.93	197.57
343.31	207.54
343.69	208.04
344.07	208.49
344.46	208.95
344.84	209.37
345.22	209.61
345.60	209.86
345.99	210.04
346.37	210.18
346.75	210.24
347.13	210.29
347.52	210.39
347.90	210.51
348.28	210.56
348.66	210.67
349.05	210.72
349.43	210.86
349.81	210.96
350.19	211.06
350.57	211.11
350.96	211.23
351.34	211.33
351.72	211.43
352.10	211.53
352.48	211.55
352.87	211.56
353.25	211.60
353.63	211.68
354.01	211.74
354.39	211.81
354.77	211.95
355.15	212.19
355.54	212.28
355.92	212.35
356.30	212.49
356.68	212.68
357.06	212.83
357.44	212.83
357.82	212.84
358.20	212.91
358.58	212.94
358.97	213.04
359.35	213.14
359.73	213.33
360.11	213.46
360.49	213.54
360.87	213.73
361.25	213.80
361.63	213.88
362.01	214.02
362.39	214.11
362.77	214.12
363.15	214.06
363.53	214.16
363.91	214.12
364.29	214.10
364.67	213.95
365.05	213.95
365.43	214.05
365.81	214.10
366.19	214.24
366.57	214.35
366.95	214.35
367.33	214.35
367.71	214.29
368.09	214.24
368.47	214.26
368.85	214.19
369.23	214.26
369.61	214.26
369.99	214.24
370.37	214.14
370.75	214.29
371.13	214.21
371.51	214.08
371.89	214.15
372.27	214.16
372.65	214.10
373.03	214.00
373.41	213.90
373.78	213.89
374.16	213.73
374.54	213.59
374.92	213.49
375.30	213.40
375.68	213.29
376.06	213.31
376.44	213.28
376.82	213.25
377.19	213.20
377.57	213.09
377.95	213.03
378.33	213.01
378.71	212.78
379.09	212.78
379.47	212.70
379.84	212.65
380.22	212.45
380.60	212.46
380.98	212.45
381.36	212.42
381.73	212.34
382.11	212.32
382.49	212.35
382.87	212.30
383.25	212.34
383.62	212.52
384.00	212.40
384.38	212.34
384.76	212.37
385.13	212.34
385.51	212.35
385.89	212.27
386.27	212.23
386.64	212.24
387.02	212.20
387.40	212.17
387.78	212.07
388.15	212.11
388.53	212.05
388.91	211.98
389.29	211.95
389.66	211.93
390.04	211.86
390.42	211.92
390.79	211.92
391.17	211.84
391.55	211.63
391.92	211.59
392.30	211.66
392.68	211.60
393.05	211.54
393.43	211.54
393.81	211.55
394.18	211.58
394.56	211.54
394.94	211.61
395.31	211.64
395.69	211.67
396.06	211.72
396.44	211.76
396.82	211.76
397.19	211.85
397.57	211.96
397.95	211.98
398.32	211.86
398.70	211.83
399.07	211.92
399.45	211.96
399.82	212.08
400.20	212.02
400.58	211.98
400.95	212.02
401.33	212.01
401.70	212.15
402.08	212.20
402.45	212.35
402.83	212.42
403.20	212.53
403.58	212.63
403.95	212.73
404.33	212.86
404.71	212.95
405.08	213.24
405.46	213.31
405.83	213.47
406.21	213.61
406.58	213.81
406.96	214.01
407.33	214.17
407.70	214.31
408.08	214.61
408.45	214.88
408.83	215.21
409.20	215.43
409.58	215.60
409.95	215.86
410.33	216.09
410.70	216.27
411.08	216.62
411.45	217.00
411.82	217.33
412.20	217.74
412.57	218.35
412.95	218.61
413.32	219.09
413.69	219.62
414.07	220.22
414.44	220.86
414.82	221.47
415.19	222.22
415.56	223.01
415.94	223.73
416.31	224.62
416.68	225.41
417.06	226.45
417.43	227.49
417.81	228.59
418.18	229.70
418.55	230.91
418.93	232.22
419.30	233.46
419.67	234.87
420.04	236.29
420.42	237.75
420.79	239.60
421.16	241.35
421.54	243.26
421.91	245.07
422.28	246.98
422.66	249.02
423.03	251.01
423.40	253.03
423.77	255.25
424.15	257.49
424.52	259.90
424.89	262.48
425.26	264.94
425.64	267.27
426.01	269.88
426.38	272.60
426.75	275.27
427.13	278.20
427.50	281.25
427.87	284.33
428.24	287.46
428.61	290.28
428.99	293.54
429.36	296.90
429.73	300.45
430.10	303.89
430.47	307.35
430.85	311.14
431.22	315.06
431.59	319.28
431.96	323.29
432.33	327.65
432.70	331.85
433.08	336.71
433.45	341.41
433.82	346.11
434.19	351.23
434.56	356.29
434.93	361.06
435.30	365.80
435.68	371.04
436.05	376.13
436.42	381.30
436.79	386.14
437.16	391.22
437.53	396.61
437.90	401.91
438.27	407.13
438.64	412.52
439.01	417.50
439.38	421.90
439.75	426.10
440.13	431.06
440.50	435.60
440.87	439.45
441.24	443.28
441.61	447.52
441.98	450.70
442.35	454.23
442.72	458.00
443.09	461.57
443.46	463.70
443.83	465.20
444.20	466.46
444.57	468.15
444.94	469.04
445.31	469.74
445.68	470.44
446.05	470.71
446.42	469.98
446.79	469.25
447.16	468.30
447.53	467.72
447.90	465.45
448.27	463.38
448.64	460.43
449.01	458.31
449.37	454.55
449.74	450.93
450.11	446.92
450.48	442.26
450.85	437.66
451.22	433.68
451.59	429.76
451.96	426.08
452.33	421.28
452.70	416.88
453.07	411.71
453.43	406.51
453.80	401.50
454.17	396.67
454.54	392.15
454.91	387.33
455.28	382.53
455.65	378.05
456.02	373.65
456.38	369.92
456.75	365.25
457.12	361.46
457.49	357.67
457.86	353.87
458.23	350.67
458.59	347.09
458.96	343.52
459.33	340.48
459.70	337.25
460.07	334.68
460.43	331.81
460.80	329.15
461.17	326.81
461.54	324.31
461.91	321.93
462.27	319.49
462.64	317.51
463.01	315.42
463.38	313.35
463.74	311.09
464.11	309.03
464.48	307.50
464.85	305.63
465.21	304.30
465.58	302.79
465.95	301.00
466.32	299.55
466.68	298.20
467.05	296.85
467.42	295.52
467.78	293.99
468.15	292.66
468.52	291.66
468.88	290.33
469.25	289.17
469.62	288.28
469.98	287.24
470.35	286.28
470.72	285.35
471.08	284.48
471.45	283.73
471.82	283.12
472.18	282.19
472.55	281.63
472.92	280.84
473.28	280.26
473.65	279.70
474.02	279.12
474.38	278.66
474.75	278.27
475.11	277.89
475.48	277.72
475.85	277.49
476.21	277.27
476.58	277.10
476.94	277.04
477.31	277.00
477.67	277.02
478.04	277.00
478.41	277.08
478.77	277.35
479.14	277.53
479.50	277.75
479.87	278.13
480.23	278.54
480.60	279.02
480.96	279.46
481.33	280.15
481.69	280.81
482.06	281.48
482.42	282.12
482.79	282.89
483.15	283.76
483.52	284.66
483.88	285.56
484.25	286.65
484.61	287.74
484.98	288.86
485.34	290.19
485.71	291.55
486.07	292.98
486.44	294.22
486.80	295.78
487.17	297.34
487.53	299.02
487.90	300.90
488.26	302.78
488.62	304.87
488.99	306.84
489.35	308.97
489.72	311.21
490.08	313.65
490.44	316.07
490.81	318.75
491.17	321.49
491.54	324.44
491.90	327.39
492.26	330.59
492.63	333.97
492.99	337.42
493.36	341.15
493.72	344.97
494.08	348.98
494.45	353.23
494.81	357.71
495.17	362.34
495.54	367.18
495.90	372.21
496.26	377.40
496.63	383.03
496.99	388.81
497.35	394.84
497.72	401.01
498.08	407.51
498.44	414.20
498.80	421.36
499.17	428.78
499.53	436.48
499.89	444.54
500.26	452.56
500.62	460.80
500.98	469.63
501.34	478.78
501.71	488.37
502.07	498.07
502.43	508.29
502.79	518.58
503.16	529.13
503.52	540.06
503.88	551.44
504.24	562.80
504.60	574.63
504.97	586.96
505.33	599.52
505.69	612.93
506.05	626.38
506.41	639.84
506.78	653.68
507.14	667.84
507.50	682.42
507.86	697.47
508.22	712.89
508.59	728.27
508.95	744.19
509.31	760.32
509.67	777.10
510.03	794.15
510.39	811.85
510.75	829.62
511.12	847.94
511.48	866.19
511.84	884.87
512.20	903.70
512.56	922.94
512.92	942.60
513.28	962.09
513.64	981.81
514.00	1001.80
514.37	1022.02
514.73	1042.86
515.09	1063.81
515.45	1084.72
515.81	1105.99
516.17	1127.61
516.53	1148.95
516.89	1170.59
517.25	1192.33
517.61	1213.74
517.97	1235.33
518.33	1256.97
518.69	1278.46
519.05	1300.75
519.41	1323.21
519.77	1345.89
520.13	1368.20
520.49	1390.28
520.85	1413.02
521.21	1435.70
521.57	1459.12
521.93	1481.37
522.29	1504.40
522.65	1527.06
523.01	1549.72
523.37	1572.15
523.73	1594.42
524.09	1617.00
524.45	1639.52
524.81	1661.88
525.17	1684.30
525.53	1707.05
525.89	1729.50
526.25	1752.10
526.61	1773.33
526.97	1794.96
527.33	1816.31
527.68	1838.08
528.04	1859.46
528.40	1879.91
528.76	1900.96
529.12	1921.67
529.48	1943.79
529.84	1964.16
530.20	1984.51
530.56	2005.10
530.91	2025.82
531.27	2046.55
531.63	2066.82
531.99	2086.69
532.35	2105.75
532.71	2125.18
533.07	2144.53
533.42	2163.16
533.78	2181.77
534.14	2200.57
534.50	2218.12
534.86	2236.56
535.21	2253.39
535.57	2271.31
535.93	2288.80
536.29	2305.78
536.65	2322.62
537.00	2337.95
537.36	2353.34
537.72	2368.70
538.08	2384.20
538.44	2399.67
538.79	2415.02
539.15	2429.84
539.51	2445.30
539.87	2461.13
540.22	2476.11
540.58	2491.09
540.94	2506.08
541.29	2519.52
541.65	2531.70
542.01	2545.26
542.37	2557.32
542.72	2569.65
543.08	2580.57
543.44	2592.55
543.79	2603.15
544.15	2613.52
544.51	2624.62
544.87	2636.05
545.22	2645.64
545.58	2654.22
545.94	2661.74
546.29	2668.20
546.65	2674.69
547.01	2680.53
547.36	2686.12
547.72	2691.52
548.07	2695.74
548.43	2699.77
548.79	2703.56
549.14	2708.67
549.50	2712.95
549.86	2716.99
550.21	2721.55
550.57	2725.91
550.92	2728.96
551.28	2731.62
551.64	2734.34
551.99	2737.39
552.35	2738.80
552.70	2741.47
553.06	2744.51
553.41	2747.63
553.77	2750.87
554.13	2753.25
554.48	2755.75
554.84	2757.49
555.19	2758.11
555.55	2758.76
555.90	2759.04
556.26	2759.84
556.61	2760.11
556.97	2758.91
557.32	2758.19
557.68	2756.50
558.03	2755.52
558.39	2754.01
558.74	2753.76
559.10	2752.25
559.45	2750.42
559.81	2749.22
560.16	2746.91
560.52	2744.49
560.87	2741.39
561.23	2737.82
561.58	2735.58
561.94	2732.12
562.29	2728.34
562.64	2726.26
563.00	2723.95
563.35	2722.18
563.71	2720.45
564.06	2718.55
564.42	2717.16
564.77	2715.10
565.12	2713.26
565.48	2710.09
565.83	2706.90
566.19	2703.75
566.54	2699.90
566.89	2695.97
567.25	2692.12
567.60	2688.69
567.96	2684.84
568.31	2681.55
568.66	2677.88
569.02	2673.26
569.37	2668.10
569.72	2664.39
570.08	2658.91
570.43	2653.10
570.78	2647.05
571.14	2640.75
571.49	2633.61
571.84	2627.23
572.20	2620.43
572.55	2613.83
572.90	2607.03
573.26	2600.36
573.61	2593.17
573.96	2586.48
574.31	2578.33
574.67	2570.62
575.02	2562.08
575.37	2553.62
575.72	2544.55
576.08	2536.95
576.43	2528.41
576.78	2520.67
577.13	2512.72
577.49	2504.66
577.84	2497.00
578.19	2489.43
578.54	2481.98
578.90	2475.09
579.25	2466.48
579.60	2457.31
579.95	2448.13
580.30	2439.90
580.66	2431.74
581.01	2422.39
581.36	2413.19
581.71	2405.10
582.06	2396.52
582.42	2388.56
582.77	2379.26
583.12	2370.26
583.47	2361.09
583.82	2352.61
584.17	2343.28
584.53	2334.24
584.88	2325.20
585.23	2315.63
585.58	2305.77
585.93	2295.77
586.28	2286.50
586.63	2277.59
586.98	2269.41
587.34	2260.65
587.69	2251.29
588.04	2241.93
588.39	2233.89
588.74	2224.68
589.09	2215.61
589.44	2205.85
589.79	2196.87
590.14	2188.85
590.49	2180.56
590.84	2171.58
591.19	2163.23
591.54	2154.46
591.89	2143.96
592.25	2134.90
592.60	2125.42
592.95	2116.09
593.30	2106.48
593.65	2096.44
594.00	2086.54
594.35	2077.96
594.70	2068.70
595.05	2059.85
595.40	2051.04
595.75	2040.97
596.10	2032.65
596.45	2023.95
596.80	2016.50
597.15	2007.90
597.50	1998.78
597.85	1990.28
598.19	1981.52
598.54	1972.99
598.89	1964.90
599.24	1957.98
599.59	1950.40
599.94	1943.43
600.29	1935.60
600.64	1927.70
600.99	1919.39
601.34	1912.16
601.69	1903.06
602.04	1894.78
602.39	1886.60
602.74	1878.62
603.08	1871.78
603.43	1864.29
603.78	1856.26
604.13	1847.71
604.48	1839.89
604.83	1832.81
605.18	1825.59
605.53	1817.90
605.87	1810.13
606.22	1803.12
606.57	1795.31
606.92	1787.12
607.27	1778.94
607.62	1771.59
607.96	1764.84
608.31	1758.51
608.66	1750.71
609.01	1743.38
609.36	1735.69
609.70	1727.66
610.05	1719.77
610.40	1711.50
610.75	1702.94
611.10	1695.38
611.44	1686.18
611.79	1677.12
612.14	1667.60
612.49	1657.93
612.83	1649.09
613.18	1639.28
613.53	1629.59
613.88	1619.59
614.22	1610.45
614.57	1600.94
614.92	1591.57
615.27	1581.92
615.61	1572.20
615.96	1562.98
616.31	1554.32
616.65	1546.69
617.00	1538.20
617.35	1529.37
617.70	1520.49
618.04	1511.40
618.39	1501.70
618.74	1493.46
619.08	1484.65
619.43	1476.52
619.78	1468.53
620.12	1460.14
620.47	1452.39
620.82	1443.53
621.16	1435.15
621.51	1426.75
621.85	1418.51
622.20	1410.01
622.55	1401.75
622.89	1393.14
623.24	1385.05
623.59	1376.07
623.93	1366.82
624.28	1358.64
624.62	1350.33
624.97	1342.02
625.32	1334.23
625.66	1326.82
626.01	1319.26
626.35	1311.87
626.70	1304.27
627.04	1296.89
627.39	1289.39
627.73	1281.65
628.08	1274.85
628.43	1267.26
628.77	1259.92
629.12	1252.42
629.46	1245.55
629.81	1238.12
630.15	1230.82
630.50	1223.38
630.84	1216.31
631.19	1209.26
631.53	1202.42
631.88	1194.95
632.22	1187.40
632.57	1180.58
632.91	1173.02
633.26	1165.60
633.60	1158.41
633.95	1151.40
634.29	1143.66
634.64	1136.84
634.98	1129.64
635.32	1122.65
635.67	1116.74
636.01	1109.94
636.36	1103.22
636.70	1096.65
637.05	1090.02
637.39	1083.53
637.73	1077.42
638.08	1071.45
638.42	1065.40
638.77	1058.55
639.11	1052.30
639.45	1046.01
639.80	1039.29
640.14	1032.79
640.49	1026.50
640.83	1020.43
641.17	1013.92
641.52	1008.01
641.86	1001.63
642.20	995.69
642.55	988.85
642.89	981.94
643.23	975.58
643.58	969.60
643.92	962.89
644.26	956.65
644.61	950.70
644.95	944.32
645.29	937.72
645.64	930.96
645.98	924.71
646.32	918.49
646.66	912.50
647.01	906.42
647.35	900.72
647.69	894.43
648.04	888.39
648.38	882.42
648.72	876.38
649.06	870.12
649.41	863.93
649.75	858.16
650.09	852.26
650.43	846.13
650.78	839.88
651.12	833.77
651.46	827.93
651.80	821.83
652.14	815.79
652.49	810.16
652.83	804.45
653.17	798.46
653.51	792.71
653.85	786.88
654.20	781.14
654.54	775.17
654.88	769.55
655.22	763.39
655.56	757.42
655.90	751.45
656.25	745.68
656.59	740.07
656.93	734.81
657.27	729.71
657.61	724.35
657.95	719.13
658.29	714.06
658.64	708.81
658.98	703.69
659.32	698.25
659.66	692.90
660.00	687.50
660.34	682.38
660.68	677.16
661.02	672.17
661.36	667.25
661.70	662.45
662.05	657.84
662.39	653.55
662.73	649.20
663.07	644.81
663.41	640.51
663.75	635.93
664.09	631.02
664.43	626.04
664.77	621.69
665.11	617.09
665.45	612.74
665.79	608.41
666.13	603.87
666.47	599.65
666.81	595.41
667.15	591.39
667.49	587.48
667.83	583.46
668.17	579.53
668.51	575.70
668.85	571.79
669.19	568.06
669.53	563.96
669.87	560.01
670.21	556.21
670.55	552.21
670.89	548.74
671.23	545.59
671.57	542.31
671.91	538.69
672.25	535.22
672.58	531.66
672.92	528.10
673.26	524.92
673.60	521.72
673.94	518.49
674.28	515.24
674.62	512.09
674.96	509.06
675.30	506.00
675.64	502.59
675.97	499.48
676.31	496.31
676.65	493.36
676.99	490.47
677.33	487.36
677.67	484.55
678.01	481.45
678.34	478.22
678.68	475.20
679.02	472.20
679.36	469.37
679.70	466.41
680.04	463.56
680.37	460.66
680.71	457.87
681.05	455.08
681.39	452.32
681.73	449.55
682.06	446.88
682.40	444.18
682.74	441.78
683.08	439.19
683.42	436.46
683.75	433.95
684.09	431.28
684.43	428.81
684.77	426.15
685.10	423.65
685.44	421.15
685.78	418.75
686.12	416.47
686.45	414.06
686.79	411.80
687.13	409.53
687.46	407.23
687.80	405.06
688.14	402.90
688.48	400.71
688.81	398.42
689.15	396.14
689.49	393.98
689.82	391.75
690.16	389.40
690.50	387.21
690.83	385.00
691.17	382.75
691.51	380.57
691.84	378.48
692.18	376.50
692.52	374.55
692.85	372.67
693.19	370.76
693.52	368.81
693.86	366.76
694.20	364.94
694.53	363.08
694.87	361.05
695.21	358.99
695.54	357.03
695.88	355.15
696.21	353.38
696.55	351.55
696.88	349.74
697.22	348.12
697.56	346.48
697.89	344.77
698.23	343.18
698.56	341.57
698.90	340.07
699.23	338.37
699.57	336.83
699.90	335.05
700.24	333.24
700.58	331.62
700.91	330.11
701.25	328.68
701.58	327.20
701.92	325.75
702.25	324.36
702.59	323.05
702.92	321.72
703.26	320.33
703.59	319.00
703.93	317.85
704.26	316.61
704.60	315.27
704.93	314.05
705.26	312.79
705.60	311.55
705.93	310.23
706.27	309.04
706.60	307.82
706.94	306.82
707.27	305.72
707.61	304.60
707.94	303.50
708.27	302.21
708.61	301.00
708.94	299.85
709.28	298.67
709.61	297.60
709.94	296.43
710.28	295.33
710.61	294.23
710.95	293.05
711.28	292.00
711.61	291.07
711.95	290.09
712.28	289.21
712.61	288.23
712.95	287.36
713.28	286.45
713.61	285.38
713.95	284.44
714.28	283.58
714.61	282.68
714.95	281.79
715.28	280.80
715.61	279.92
715.95	279.05
716.28	278.23
716.61	277.30
716.95	276.50
717.28	275.71
717.61	274.95
717.94	274.08
718.28	273.20
718.61	272.36
718.94	271.61
719.27	270.81
719.61	270.01
719.94	269.23
720.27	268.40
720.60	267.81
720.94	267.02
721.27	266.41
721.60	265.83
721.93	265.21
722.27	264.73
722.60	264.17
722.93	263.57
723.26	263.01
723.59	262.39
723.93	261.87
724.26	261.22
724.59	260.61
724.92	260.19
725.25	259.72
725.59	259.13
725.92	258.62
726.25	258.06
726.58	257.58
726.91	257.08
727.24	256.64
727.57	256.11
727.91	255.53
728.24	254.92
728.57	254.30
728.90	253.77
729.23	253.22
729.56	252.85
729.89	252.36
730.22	251.86
730.55	251.42
730.89	250.90
731.22	250.48
731.55	250.02
731.88	249.48
732.21	248.95
732.54	248.48
732.87	247.93
733.20	247.46
733.53	247.05
733.86	246.64
734.19	246.15
734.52	245.74
734.85	245.55
735.18	245.14
735.51	244.83
735.84	244.52
736.17	244.14
736.50	243.60
736.83	243.41
737.16	243.01
737.49	242.61
737.82	242.25
738.15	241.96
738.48	241.65
738.81	241.30
739.14	240.99
739.47	240.63
739.80	240.34
740.13	240.02
740.46	239.63
740.79	239.22
741.12	238.92
741.45	238.61
741.78	238.17
742.11	237.97
742.44	237.58
742.77	237.27
743.10	236.95
743.43	236.61
743.75	236.15
744.08	236.09
744.41	235.75
744.74	235.45
745.07	235.10
745.40	234.82
745.73	234.56
746.06	234.23
746.39	234.02
746.71	233.72
747.04	233.48
747.37	233.21
747.70	233.00
748.03	232.79
748.36	232.52
748.68	232.21
749.01	231.84
749.34	231.60
749.67	231.31
750.00	231.10
750.33	230.96
750.65	230.66
750.98	230.14
751.31	229.93
751.64	229.68
751.97	229.53
752.29	229.31
752.62	229.03
752.95	228.81
753.28	228.57
753.60	228.33
753.93	228.12
754.26	227.93
754.59	227.66
754.91	227.39
755.24	227.13
755.57	227.00
755.90	226.83
756.22	226.60
756.55	226.38
756.88	226.12
757.20	225.82
757.53	225.60
757.86	225.50
758.19	225.31
758.51	225.15
758.84	224.85
759.17	224.66
759.49	224.53
759.82	224.46
760.15	224.31
760.47	224.11
760.80	223.89
761.13	223.79
761.45	223.66
761.78	223.52
762.11	223.29
762.43	223.09
762.76	222.98
763.08	222.88
763.41	222.69
763.74	222.57
764.06	222.41
764.39	222.34
764.71	222.21
765.04	222.11
765.37	221.96
765.69	221.85
766.02	221.68
766.34	221.51
766.67	221.23
767.00	221.15
767.32	221.16
767.65	221.13
767.97	220.95
768.30	220.80
768.62	220.71
768.95	220.67
769.27	220.59
769.60	220.46
769.92	220.36
770.25	220.22
770.57	220.13
770.90	220.04
771.22	219.94
771.55	219.81
771.87	219.71
772.20	219.65
772.52	219.71
772.85	219.84
773.17	219.83
773.50	219.79
773.82	219.65
774.15	219.49
774.47	219.38
774.80	219.33
775.12	219.27
775.45	219.11
775.77	219.02
776.09	218.90
776.42	218.79
776.74	218.71
777.07	218.69
777.39	218.58
777.72	218.54
778.04	218.51
778.36	218.42
778.69	218.27
779.01	218.20
779.33	217.97
779.66	217.67
779.98	217.53
780.31	217.54
780.63	217.49
780.95	217.45
781.28	217.30
781.60	217.16
781.92	217.10
782.25	217.09
782.57	217.00
782.89	216.93
783.22	216.85
783.54	216.81
783.86	216.74
784.19	216.64
784.51	216.64
784.83	216.44
785.16	216.35
785.48	216.32
785.80	216.33
786.12	216.29
786.45	216.31
786.77	216.28
787.09	216.17
787.42	216.06
787.74	216.00
788.06	215.93
788.38	215.91
788.71	215.79
789.03	215.74
789.35	215.72
789.67	215.70
789.99	215.66
790.32	215.52
790.64	215.48
790.96	215.63
791.28	215.51
791.61	215.53
791.93	215.57
792.25	215.50
792.57	215.52
792.89	215.43
793.21	215.33
793.54	215.23
793.86	215.18
794.18	215.19
794.50	215.08
794.82	215.06
795.14	215.00
795.47	215.01
795.79	214.94
796.11	214.83
796.43	214.75
796.75	214.77
797.07	214.80
797.39	214.77
797.71	214.60
798.04	214.52
798.36	214.47
798.68	214.45
799.00	214.48
799.32	214.40
799.64	214.44
799.96	214.36
800.28	214.40
800.60	214.33
800.92	214.29
801.24	214.30
801.56	214.28
801.89	214.26
802.21	214.27
802.53	214.27
802.85	214.32
803.17	214.35
803.49	214.29
803.81	214.19
804.13	214.13
804.45	214.10
804.77	214.14
805.09	214.11
805.41	214.06
805.73	214.04
806.05	213.93
806.37	213.84
806.69	213.82
807.01	213.77
807.33	213.78
807.65	213.66
807.97	213.66
808.28	213.65
808.60	213.62
808.92	213.60
809.24	213.68
809.56	213.62
809.88	213.60
810.20	213.58
810.52	213.60
810.84	213.55
811.16	213.47
811.48	213.39
811.80	213.43
812.12	213.33
812.43	213.34
812.75	213.35
813.07	213.34
813.39	213.43
813.71	213.41
814.03	213.41
814.35	213.42
814.67	213.41
814.98	213.44
815.30	213.42
815.62	213.36
815.94	213.21
816.26	213.20
816.58	213.18
816.89	213.14
817.21	213.09
817.53	213.10
817.85	213.14
818.17	213.12
818.48	213.00
818.80	213.02
819.12	212.94
819.44	212.85
819.76	212.81
820.07	212.72
820.39	212.67
820.71	212.66
821.03	212.70
821.34	212.62
821.66	212.60
821.98	212.59
822.30	212.51
822.61	212.59
822.93	212.60
823.25	212.57
823.57	212.54
823.88	212.59
824.20	212.63
824.52	212.62
824.83	212.59
825.15	212.61
825.47	212.59
825.79	212.59
826.10	212.63
826.42	212.58
826.74	212.56
827.05	212.52
827.37	212.50
827.69	212.48
828.00	212.48
828.32	212.44
828.64	212.42
828.95	212.54
829.27	212.54
829.58	212.50
829.90	212.49
830.22	212.46
830.53	212.42
830.85	212.33
831.17	212.25
831.48	212.28
831.80	212.28
832.11	212.22
832.43	212.26
832.75	212.18
833.06	212.29
833.38	212.29
833.69	212.26
834.01	212.27
834.32	212.26
834.64	212.18
834.96	212.14
835.27	212.10
835.59	212.01
835.90	211.91
836.22	211.90
836.53	211.83
836.85	211.86
837.16	212.04
837.48	212.07
837.79	212.16
838.11	212.16
838.42	212.13
838.74	212.15
839.05	212.06
839.37	212.13
839.68	212.06
840.00	212.09
840.31	212.12
840.63	212.06
840.94	211.97
841.26	212.08
841.57	212.07
841.88	212.08
842.20	212.10
842.51	212.03
842.83	212.06
843.14	212.20
843.46	212.21
843.77	212.11
844.08	212.12
844.40	212.04
844.71	212.06
845.03	212.07
845.34	212.08
845.65	212.08
845.97	212.06
846.28	212.02
846.60	211.95
846.91	211.96
847.22	212.02
847.54	212.12
847.85	212.08
848.16	212.11
848.48	212.11
848.79	212.18
849.10	212.27
849.42	212.21
849.73	212.09
850.04	212.04
850.36	211.95
850.67	211.96
850.98	211.97
851.30	211.96
851.61	211.99
851.92	212.05
852.23	212.13
852.55	212.16
852.86	212.15
853.17	212.20
853.49	212.21
853.80	212.14
854.11	212.14
854.42	212.16
854.74	212.14
855.05	212.10
855.36	211.93
855.67	211.92
855.99	211.93
856.30	212.20
856.61	212.21
856.92	212.23
857.23	212.21
857.55	212.23
857.86	212.17
858.17	212.16
858.48	212.11
858.79	212.03
859.11	211.98
859.42	211.97
859.73	211.86
860.04	211.85
860.35	211.86
860.66	211.88
860.98	211.85
861.29	211.85
861.60	211.87
861.91	211.99
862.22	211.90
862.53	211.92
862.84	211.65
863.16	211.70
863.47	211.60
863.78	211.55
864.09	211.56
864.40	211.67
864.71	211.69
865.02	211.70
865.33	211.77
865.64	211.75
865.95	211.79
866.27	211.93
866.58	211.94
866.89	211.93
867.20	211.78
867.51	211.70
867.82	211.70
868.13	211.70
868.44	211.64
868.75	211.71
869.06	211.69
869.37	211.70
869.68	211.63
869.99	211.70
870.30	211.70
870.61	211.64
870.92	211.61
871.23	211.54
871.54	211.53
871.85	211.52
872.16	211.55
872.47	211.52
872.78	211.43
873.09	211.39
873.40	211.40
873.71	211.48
874.02	211.55
874.33	211.54
874.64	211.56
874.95	211.61
875.26	211.62
875.56	211.61
875.87	211.59
876.18	211.61
876.49	211.77
876.80	211.71
877.11	211.64
877.42	211.56
877.73	211.59
878.04	211.51
878.35	211.50
878.66	211.46
878.96	211.43
879.27	211.52
879.58	211.53
879.89	211.53
880.20	211.61
880.51	211.61
880.82	211.58
881.12	211.59
881.43	211.56
881.74	211.53
882.05	211.52
882.36	211.56
882.67	211.52
882.97	211.33
883.28	211.41
883.59	211.47
883.90	211.50
884.21	211.51
884.51	211.47
884.82	211.44
885.13	211.45
885.44	211.44
885.74	211.32
886.05	211.30
886.36	211.29
886.67	211.18
886.98	211.21
887.28	211.23
887.59	211.21
887.90	211.18
888.20	211.09
888.51	211.11
888.82	211.05
889.13	211.05
889.43	211.19
889.74	211.11
890.05	211.16
890.35	211.17
890.66	211.15
890.97	211.20
891.28	211.19
891.58	211.20
891.89	211.25
892.20	211.22
892.50	211.22
892.81	211.22
893.12	211.25
893.42	211.23
893.73	211.21
894.04	211.20
894.34	211.27
894.65	211.30
894.95	211.28
895.26	211.30
895.57	211.40
895.87	211.28
896.18	211.35
896.48	211.35
896.79	211.31
897.10	211.36
897.40	211.37
897.71	211.35
898.01	211.32
898.32	211.26
898.63	211.33
898.93	211.33
899.24	211.32
899.54	211.36
899.85	211.34
900.15	211.33
900.46	211.44
900.76	211.36
901.07	211.30
901.38	211.25
901.68	211.29
901.99	211.22
902.29	211.25
902.60	211.18
902.90	211.16
903.21	211.20
903.51	211.18
903.82	211.29
904.12	211.28
904.43	211.29
904.73	211.34
905.03	211.31
905.34	211.45
905.64	211.48
905.95	211.45
906.25	211.44
906.56	211.50
906.86	211.38
907.17	211.40
907.47	211.50
907.77	211.53
908.08	211.49
908.38	211.49
908.69	211.43
908.99	211.49
909.30	211.47
909.60	211.44
909.90	211.44
910.21	211.40
910.51	211.39
910.81	211.43
911.12	211.47
911.42	211.40
911.73	211.25
912.03	211.26
912.33	211.29
912.64	211.24
912.94	211.15
913.24	211.15
913.55	211.12
913.85	211.08
914.15	211.10
914.46	211.18
914.76	211.13
915.06	211.16
915.37	211.20
915.67	211.17
915.97	211.17
916.27	211.15
916.58	211.06
916.88	211.05
917.18	211.03
917.49	211.10
917.79	211.11
918.09	211.16
918.39	211.20
918.70	211.09
919.00	211.12
919.30	211.20
919.60	211.27
919.91	211.27
920.21	211.27
920.51	211.22
920.81	211.14
921.12	211.22
921.42	211.20
921.72	211.10
922.02	211.08
922.32	211.02
922.63	211.00
922.93	211.00
923.23	211.05
923.53	211.01
923.83	210.89
924.13	210.91
924.44	210.89
924.74	210.84
925.04	210.90
925.34	210.91
925.64	210.83
925.94	210.78
926.24	210.85
926.55	210.88
926.85	210.90
927.15	210.92
927.45	210.84
927.75	210.76
928.05	210.80
928.35	210.84
928.65	210.92
928.95	210.98
929.26	210.99
929.56	210.95
929.86	210.95
930.16	210.93
930.46	210.91
930.76	210.91
931.06	210.86
931.36	210.86
931.66	210.92
931.96	210.93
932.26	210.95
932.56	210.85
932.86	210.83
933.16	210.87
933.46	210.79
933.76	210.79
934.06	210.86
934.36	210.90
934.66	210.94
934.96	210.90
935.26	210.88
935.56	210.90
935.86	210.86
936.16	210.88
936.46	210.92
936.76	210.95
937.06	210.93
937.36	210.93
937.66	210.94
937.96	210.93
938.26	210.85
938.56	210.89
938.86	210.91
939.16	210.93
939.46	210.91
939.76	211.01
940.06	210.99
940.35	211.07
940.65	210.96
940.95	210.94
941.25	210.92
941.55	210.88
941.85	210.94
942.15	211.02
942.45	211.06
942.75	211.05
943.04	211.01
943.34	211.00
943.64	211.03
943.94	210.99
944.24	210.93
944.54	211.00
944.84	210.93
945.13	210.86
945.43	210.84
945.73	210.86
946.03	210.86
946.33	210.86
946.62	210.80
946.92	210.87
947.22	210.84
947.52	210.81
947.82	210.87
948.11	210.84
948.41	210.83
948.71	210.80
949.01	210.78
949.31	210.78
949.60	210.77
949.90	210.77
950.20	210.79
950.50	210.81
950.79	210.77
951.09	210.80
951.39	210.79
951.69	210.69
951.98	210.71
952.28	210.68
952.58	210.71
952.87	210.70
953.17	210.72
953.47	210.75
953.76	210.85
954.06	210.74
954.36	210.72
954.66	210.65
954.95	210.62
955.25	210.67
955.55	210.72
955.84	210.70
956.14	210.72
956.44	210.69
956.73	210.68
957.03	210.70
957.32	210.67
957.62	210.75
957.92	210.83
958.21	210.77
958.51	210.94
958.81	210.92
959.10	210.95
959.40	210.97
959.69	210.90
959.99	210.80
960.29	210.82
960.58	210.76
960.88	210.78
961.17	210.75
961.47	210.68
961.76	210.67
962.06	210.70
962.36	210.61
962.65	210.60
962.95	210.58
963.24	210.59
963.54	210.67
963.83	210.65
964.13	210.64
964.42	210.70
964.72	210.58
965.01	210.59
965.31	210.55
965.60	210.56
965.90	210.69
966.19	210.71
966.49	210.72
966.78	210.80
967.08	210.90
967.37	210.99
967.67	211.01
967.96	211.00
968.26	210.99
968.55	211.09
968.85	211.13
969.14	211.15
969.43	211.09
969.73	211.07
970.02	211.09
970.32	211.12
970.61	211.04
970.91	211.02
971.20	210.96
971.49	211.01
971.79	211.02
972.08	210.97
972.38	211.04
972.67	211.04
972.96	211.06
973.26	211.04
973.55	211.06
973.85	211.07
974.14	211.12
974.43	211.16
974.73	211.15
975.02	211.11
975.31	211.13
975.61	211.14
975.90	211.12
976.19	211.12
976.49	211.10
976.78	211.08
977.07	211.05
977.37	211.10
977.66	211.06
977.95	210.96
978.24	210.95
978.54	210.95
978.83	210.97
979.12	210.88
979.42	210.84
979.71	210.77
980.00	210.72
980.29	210.70
980.59	210.65
980.88	210.67
981.17	210.70
981.46	210.69
981.76	210.73
982.05	210.73
982.34	210.63
982.63	210.70
982.93	210.74
983.22	210.77
983.51	210.80
983.80	210.77
984.09	210.84
984.39	210.80
984.68	210.74
984.97	210.78
985.26	210.78
985.55	210.75
985.85	210.79
986.14	210.90
986.43	210.90
986.72	210.91
987.01	210.86
987.30	210.85
987.59	210.84
987.89	210.81
988.18	210.79
988.47	210.88
988.76	210.78
989.05	210.75
989.34	210.76
989.63	210.74
989.92	210.77
990.22	210.74
990.51	210.80
990.80	210.79
991.09	210.78
991.38	210.84
991.67	210.84
991.96	210.81
992.25	210.71
992.54	210.73
992.83	210.74
993.12	210.76
993.41	210.82
993.70	210.91
993.99	210.92
994.28	210.95
994.58	210.94
994.87	210.97
995.16	210.94
995.45	210.92
995.74	210.93
996.03	210.98
996.32	211.02
996.61	211.00
996.90	211.06
997.19	211.02
997.48	210.99
997.77	211.05
998.06	211.07
998.34	211.09
998.63	211.04
998.92	211.04
999.21	211.04
999.50	210.96
999.79	210.90
1000.08	210.96
1000.37	210.98
1000.66	211.02
1000.95	211.09
1001.24	211.15
1001.53	211.10
1001.82	211.09
1002.11	211.03
1002.40	211.07
1002.68	211.16
1002.97	211.21
1003.26	211.21
1003.55	211.21
1003.84	211.20
1004.13	211.26
1004.42	211.28
1004.71	211.30
1004.99	211.29
1005.28	211.36
1005.57	211.43
1005.86	211.39
1006.15	211.37
1006.44	211.35
1006.72	211.36
1007.01	211.32
1007.30	211.39
1007.59	211.45
1007.88	211.40
1008.17	211.47
1008.45	211.41
1008.74	211.29
1009.03	211.26
1009.32	211.28
1009.60	211.26
1009.89	211.23
1010.18	211.19
1010.47	211.15
1010.76	211.11
1011.04	211.15
1011.33	211.13
1011.62	211.11
1011.91	211.10
1012.19	211.03
1012.48	210.99
1012.77	210.94
1013.05	211.03
1013.34	210.98
1013.63	210.97
1013.92	210.96
1014.20	210.90
1014.49	210.88
1014.78	210.92
1015.06	210.84
1015.35	210.82
1015.64	210.89
1015.92	210.90
1016.21	210.87
1016.50	210.89
1016.78	210.99
1017.07	210.99
1017.36	210.97
1017.64	210.94
1017.93	211.04
1018.22	211.06
1018.50	211.04
1018.79	211.04
1019.08	210.91
1019.36	210.98
1019.65	210.95
1019.93	211.07
1020.22	211.07
1020.51	211.17
1020.79	211.06
1021.08	210.00
1021.36	209.55
1021.65	210.65
1021.94	210.35
1022.22	212.55
1022.51	210.65
1022.79	211.95
1023.08	210.75
1023.36	213.00
1023.65	209.05
>>>>>End Processed Spectral Data<<<<<
