SpectraSuite Data File
++++++++++++++++++++++++++++++++++++
Date: Mon Feb 25 17:34:24 EST 2013
User: group
Dark Spectrum Present: No
Reference Spectrum Present: No
Number of Sampled Component Spectra: 1
Spectrometers: USB2E7196
Integration Time (usec): 52000 (USB2E7196)
Spectra Averaged: 20 (USB2E7196)
Boxcar Smoothing: 10 (USB2E7196)
Correct for Electrical Dark: No (USB2E7196)
Strobe/Lamp Enabled: No (USB2E7196)
Correct for Detector Non-linearity: No (USB2E7196)
Correct for Stray Light: No (USB2E7196)
Number of Pixels in Processed Spectrum: 2048
>>>>>Begin Processed Spectral Data<<<<<
339.09	0.00
339.48	198.30
339.86	198.45
340.24	201.00
340.63	202.90
341.01	207.40
341.39	205.70
341.78	206.95
342.16	208.60
342.54	208.10
342.93	197.72
343.31	207.68
343.69	208.25
344.07	208.75
344.46	209.16
344.84	209.54
345.22	209.68
345.60	209.96
345.99	210.13
346.37	210.20
346.75	210.34
347.13	210.48
347.52	210.56
347.90	210.71
348.28	210.78
348.66	210.86
349.05	210.85
349.43	211.02
349.81	211.11
350.19	211.20
350.57	211.30
350.96	211.35
351.34	211.49
351.72	211.57
352.10	211.74
352.48	211.87
352.87	211.87
353.25	211.94
353.63	211.95
354.01	211.99
354.39	212.15
354.77	212.23
355.15	212.35
355.54	212.40
355.92	212.41
356.30	212.50
356.68	212.65
357.06	212.70
357.44	212.77
357.82	212.85
358.20	212.99
358.58	213.03
358.97	213.11
359.35	213.24
359.73	213.38
360.11	213.44
360.49	213.55
360.87	213.64
361.25	213.78
361.63	213.90
362.01	214.09
362.39	214.08
362.77	214.17
363.15	214.16
363.53	214.26
363.91	214.29
364.29	214.31
364.67	214.21
365.05	214.30
365.43	214.34
365.81	214.38
366.19	214.45
366.57	214.60
366.95	214.68
367.33	214.62
367.71	214.62
368.09	214.71
368.47	214.67
368.85	214.76
369.23	214.71
369.61	214.68
369.99	214.69
370.37	214.75
370.75	214.77
371.13	214.77
371.51	214.76
371.89	214.74
372.27	214.72
372.65	214.69
373.03	214.60
373.41	214.45
373.78	214.39
374.16	214.29
374.54	214.14
374.92	214.00
375.30	214.01
375.68	213.92
376.06	213.84
376.44	213.74
376.82	213.64
377.19	213.67
377.57	213.63
377.95	213.50
378.33	213.39
378.71	213.26
379.09	213.22
379.47	213.12
379.84	213.04
380.22	213.04
380.60	212.98
380.98	212.95
381.36	212.97
381.73	212.91
382.11	212.87
382.49	212.84
382.87	212.73
383.25	212.61
383.62	212.71
384.00	212.62
384.38	212.65
384.76	212.65
385.13	212.70
385.51	212.65
385.89	212.62
386.27	212.59
386.64	212.61
387.02	212.54
387.40	212.50
387.78	212.49
388.15	212.39
388.53	212.32
388.91	212.27
389.29	212.19
389.66	212.15
390.04	212.14
390.42	212.10
390.79	212.11
391.17	212.15
391.55	212.01
391.92	211.97
392.30	211.91
392.68	211.83
393.05	211.73
393.43	211.67
393.81	211.65
394.18	211.65
394.56	211.56
394.94	211.61
395.31	211.61
395.69	211.61
396.06	211.62
396.44	211.69
396.82	211.71
397.19	211.86
397.57	211.91
397.95	211.94
398.32	211.91
398.70	211.91
399.07	211.91
399.45	211.91
399.82	211.88
400.20	211.95
400.58	212.00
400.95	211.96
401.33	212.09
401.70	212.18
402.08	212.23
402.45	212.32
402.83	212.38
403.20	212.50
403.58	212.54
403.95	212.63
404.33	212.71
404.71	212.83
405.08	212.92
405.46	212.97
405.83	213.06
406.21	213.24
406.58	213.46
406.96	213.59
407.33	213.72
407.70	214.00
408.08	214.34
408.45	214.58
408.83	214.87
409.20	215.05
409.58	215.28
409.95	215.54
410.33	215.85
410.70	216.07
411.08	216.45
411.45	216.85
411.82	217.25
412.20	217.75
412.57	218.28
412.95	218.63
413.32	219.24
413.69	219.80
414.07	220.36
414.44	220.94
414.82	221.58
415.19	222.30
415.56	223.07
415.94	223.84
416.31	224.69
416.68	225.60
417.06	226.64
417.43	227.59
417.81	228.76
418.18	229.94
418.55	231.20
418.93	232.42
419.30	233.75
419.67	235.10
420.04	236.41
420.42	237.90
420.79	239.70
421.16	241.39
421.54	243.29
421.91	245.15
422.28	247.10
422.66	249.20
423.03	251.34
423.40	253.41
423.77	255.55
424.15	257.86
424.52	260.24
424.89	262.74
425.26	265.23
425.64	267.49
426.01	270.08
426.38	272.82
426.75	275.63
427.13	278.49
427.50	281.52
427.87	284.64
428.24	287.67
428.61	290.61
428.99	293.89
429.36	297.32
429.73	300.80
430.10	304.20
430.47	307.70
430.85	311.38
431.22	315.27
431.59	319.48
431.96	323.49
432.33	327.80
432.70	332.05
433.08	337.04
433.45	341.74
433.82	346.38
434.19	351.54
434.56	356.55
434.93	361.35
435.30	366.13
435.68	371.55
436.05	376.63
436.42	381.75
436.79	386.40
437.16	391.47
437.53	396.84
437.90	402.26
438.27	407.33
438.64	412.70
439.01	417.78
439.38	422.14
439.75	426.26
440.13	431.06
440.50	435.73
440.87	439.32
441.24	443.24
441.61	447.34
441.98	450.39
442.35	454.08
442.72	457.78
443.09	461.33
443.46	463.27
443.83	464.84
444.20	466.06
444.57	467.86
444.94	468.66
445.31	469.48
445.68	470.19
446.05	470.59
446.42	469.85
446.79	468.99
447.16	468.01
447.53	467.49
447.90	465.49
448.27	463.27
448.64	460.38
449.01	458.26
449.37	454.69
449.74	451.09
450.11	446.82
450.48	442.17
450.85	437.45
451.22	433.53
451.59	429.76
451.96	426.07
452.33	421.37
452.70	416.93
453.07	411.77
453.43	406.50
453.80	401.47
454.17	396.71
454.54	392.10
454.91	387.41
455.28	382.73
455.65	378.22
456.02	373.94
456.38	370.25
456.75	365.50
457.12	361.58
457.49	357.69
457.86	353.91
458.23	350.71
458.59	347.19
458.96	343.59
459.33	340.32
459.70	337.19
460.07	334.59
460.43	331.77
460.80	329.02
461.17	326.68
461.54	324.20
461.91	321.88
462.27	319.55
462.64	317.50
463.01	315.22
463.38	313.08
463.74	310.82
464.11	308.94
464.48	307.31
464.85	305.63
465.21	304.37
465.58	302.96
465.95	301.20
466.32	299.77
466.68	298.30
467.05	296.97
467.42	295.62
467.78	294.12
468.15	292.74
468.52	291.65
468.88	290.29
469.25	289.14
469.62	288.16
469.98	287.07
470.35	286.14
470.72	285.14
471.08	284.20
471.45	283.34
471.82	282.52
472.18	281.61
472.55	280.97
472.92	280.20
473.28	279.59
473.65	279.03
474.02	278.56
474.38	278.27
474.75	277.90
475.11	277.58
475.48	277.27
475.85	277.11
476.21	276.92
476.58	276.88
476.94	276.80
477.31	276.70
477.67	276.70
478.04	276.64
478.41	276.81
478.77	277.13
479.14	277.29
479.50	277.51
479.87	277.89
480.23	278.24
480.60	278.68
480.96	279.08
481.33	279.76
481.69	280.33
482.06	281.01
482.42	281.68
482.79	282.35
483.15	283.24
483.52	284.14
483.88	285.13
484.25	286.06
484.61	287.09
484.98	288.19
485.34	289.45
485.71	290.87
486.07	292.27
486.44	293.59
486.80	295.15
487.17	296.77
487.53	298.59
487.90	300.40
488.26	302.27
488.62	304.32
488.99	306.37
489.35	308.52
489.72	310.70
490.08	313.07
490.44	315.56
490.81	318.27
491.17	320.98
491.54	323.91
491.90	326.94
492.26	330.13
492.63	333.52
492.99	336.99
493.36	340.61
493.72	344.51
494.08	348.49
494.45	352.72
494.81	357.23
495.17	361.82
495.54	366.74
495.90	371.76
496.26	377.04
496.63	382.61
496.99	388.49
497.35	394.48
497.72	400.71
498.08	407.16
498.44	413.92
498.80	421.12
499.17	428.50
499.53	436.01
499.89	444.07
500.26	452.13
500.62	460.52
500.98	469.55
501.34	478.80
501.71	488.29
502.07	498.02
502.43	508.04
502.79	518.22
503.16	528.80
503.52	539.75
503.88	550.97
504.24	562.36
504.60	574.16
504.97	586.55
505.33	599.13
505.69	612.45
506.05	625.83
506.41	639.34
506.78	653.29
507.14	667.64
507.50	682.18
507.86	697.32
508.22	712.68
508.59	727.84
508.95	743.71
509.31	759.93
509.67	776.60
510.03	793.73
510.39	811.20
510.75	829.04
511.12	847.25
511.48	865.79
511.84	884.58
512.20	903.42
512.56	922.80
512.92	942.35
513.28	962.05
513.64	982.21
514.00	1002.32
514.37	1022.75
514.73	1043.46
515.09	1064.34
515.45	1085.26
515.81	1106.65
516.17	1128.23
516.53	1149.62
516.89	1171.48
517.25	1193.03
517.61	1214.65
517.97	1236.45
518.33	1258.04
518.69	1279.97
519.05	1302.14
519.41	1324.33
519.77	1347.00
520.13	1368.96
520.49	1391.19
520.85	1413.64
521.21	1436.12
521.57	1459.04
521.93	1481.21
522.29	1504.18
522.65	1526.87
523.01	1549.40
523.37	1571.46
523.73	1593.85
524.09	1616.21
524.45	1638.70
524.81	1661.31
525.17	1683.96
525.53	1706.67
525.89	1729.49
526.25	1751.28
526.61	1772.35
526.97	1794.23
527.33	1815.57
527.68	1837.04
528.04	1858.35
528.40	1878.77
528.76	1899.46
529.12	1920.17
529.48	1942.01
529.84	1962.55
530.20	1983.01
530.56	2003.91
530.91	2025.02
531.27	2045.63
531.63	2065.91
531.99	2085.84
532.35	2105.30
532.71	2124.38
533.07	2143.68
533.42	2161.98
533.78	2181.46
534.14	2200.08
534.50	2217.67
534.86	2235.75
535.21	2253.01
535.57	2271.10
535.93	2288.75
536.29	2305.83
536.65	2322.88
537.00	2338.24
537.36	2353.70
537.72	2369.35
538.08	2384.61
538.44	2400.10
538.79	2415.51
539.15	2430.41
539.51	2444.85
539.87	2460.20
540.22	2474.80
540.58	2489.84
540.94	2504.47
541.29	2517.22
541.65	2529.92
542.01	2543.20
542.37	2555.10
542.72	2567.83
543.08	2579.09
543.44	2591.12
543.79	2601.50
544.15	2611.87
544.51	2623.32
544.87	2634.83
545.22	2643.89
545.58	2652.20
545.94	2659.37
546.29	2666.22
546.65	2672.57
547.01	2678.98
547.36	2684.78
547.72	2690.55
548.07	2694.57
548.43	2698.63
548.79	2702.88
549.14	2707.70
549.50	2712.03
549.86	2716.40
550.21	2720.27
550.57	2724.28
550.92	2727.03
551.28	2729.89
551.64	2732.01
551.99	2734.01
552.35	2735.22
552.70	2738.08
553.06	2740.93
553.41	2744.05
553.77	2746.79
554.13	2749.41
554.48	2751.67
554.84	2753.11
555.19	2753.69
555.55	2754.46
555.90	2755.37
556.26	2755.87
556.61	2755.85
556.97	2754.56
557.32	2754.14
557.68	2752.46
558.03	2750.95
558.39	2749.48
558.74	2749.31
559.10	2748.46
559.45	2746.92
559.81	2746.08
560.16	2743.51
560.52	2741.29
560.87	2738.13
561.23	2734.62
561.58	2732.42
561.94	2728.84
562.29	2725.15
562.64	2722.89
563.00	2720.42
563.35	2717.93
563.71	2716.21
564.06	2714.27
564.42	2712.57
564.77	2710.17
565.12	2708.52
565.48	2705.26
565.83	2702.52
566.19	2699.15
566.54	2695.10
566.89	2691.41
567.25	2687.55
567.60	2684.31
567.96	2680.89
568.31	2677.71
568.66	2673.69
569.02	2668.89
569.37	2664.01
569.72	2660.43
570.08	2655.26
570.43	2649.58
570.78	2643.86
571.14	2637.34
571.49	2630.48
571.84	2624.57
572.20	2617.62
572.55	2610.93
572.90	2604.27
573.26	2597.30
573.61	2590.12
573.96	2583.65
574.31	2575.41
574.67	2567.16
575.02	2558.75
575.37	2549.94
575.72	2540.85
576.08	2533.32
576.43	2524.54
576.78	2517.08
577.13	2508.86
577.49	2500.58
577.84	2492.85
578.19	2485.38
578.54	2478.03
578.90	2470.90
579.25	2461.81
579.60	2452.61
579.95	2443.26
580.30	2435.27
580.66	2426.86
581.01	2417.82
581.36	2408.45
581.71	2400.20
582.06	2391.95
582.42	2383.58
582.77	2374.70
583.12	2365.75
583.47	2356.80
583.82	2348.46
584.17	2338.86
584.53	2329.52
584.88	2320.91
585.23	2311.60
585.58	2301.77
585.93	2291.90
586.28	2282.67
586.63	2274.03
586.98	2265.62
587.34	2257.19
587.69	2248.25
588.04	2238.86
588.39	2230.57
588.74	2221.46
589.09	2212.63
589.44	2202.72
589.79	2194.05
590.14	2185.62
590.49	2177.20
590.84	2168.11
591.19	2159.83
591.54	2151.27
591.89	2141.21
592.25	2131.79
592.60	2122.30
592.95	2113.01
593.30	2103.66
593.65	2093.69
594.00	2083.98
594.35	2075.79
594.70	2066.62
595.05	2057.60
595.40	2048.61
595.75	2038.62
596.10	2030.35
596.45	2021.94
596.80	2014.18
597.15	2005.62
597.50	1996.62
597.85	1988.02
598.19	1979.26
598.54	1970.69
598.89	1962.66
599.24	1955.86
599.59	1948.35
599.94	1941.31
600.29	1933.36
600.64	1925.41
600.99	1917.11
601.34	1909.63
601.69	1900.84
602.04	1892.62
602.39	1884.25
602.74	1876.53
603.08	1869.82
603.43	1862.50
603.78	1854.29
604.13	1845.79
604.48	1837.82
604.83	1830.76
605.18	1823.67
605.53	1816.05
605.87	1808.31
606.22	1801.02
606.57	1793.06
606.92	1785.19
607.27	1776.81
607.62	1769.35
607.96	1762.37
608.31	1756.16
608.66	1748.83
609.01	1741.23
609.36	1733.58
609.70	1725.56
610.05	1717.70
610.40	1709.66
610.75	1701.09
611.10	1693.52
611.44	1684.51
611.79	1675.53
612.14	1666.14
612.49	1656.51
612.83	1647.82
613.18	1638.02
613.53	1628.50
613.88	1618.59
614.22	1609.02
614.57	1599.81
614.92	1590.39
615.27	1580.88
615.61	1571.02
615.96	1561.64
616.31	1553.04
616.65	1544.99
617.00	1536.56
617.35	1527.84
617.70	1518.67
618.04	1509.51
618.39	1500.20
618.74	1491.77
619.08	1483.27
619.43	1474.88
619.78	1466.84
620.12	1458.63
620.47	1450.81
620.82	1442.05
621.16	1433.78
621.51	1425.49
621.85	1417.12
622.20	1408.70
622.55	1400.12
622.89	1391.65
623.24	1383.43
623.59	1374.75
623.93	1365.90
624.28	1357.70
624.62	1349.59
624.97	1341.18
625.32	1333.23
625.66	1325.57
626.01	1318.38
626.35	1310.99
626.70	1303.19
627.04	1295.75
627.39	1288.02
627.73	1280.65
628.08	1273.86
628.43	1266.38
628.77	1258.94
629.12	1251.48
629.46	1244.71
629.81	1237.47
630.15	1230.39
630.50	1222.80
630.84	1215.60
631.19	1208.51
631.53	1201.55
631.88	1194.07
632.22	1186.38
632.57	1179.56
632.91	1171.94
633.26	1164.19
633.60	1156.75
633.95	1150.02
634.29	1142.58
634.64	1135.92
634.98	1128.54
635.32	1121.35
635.67	1115.00
636.01	1108.44
636.36	1101.77
636.70	1094.92
637.05	1088.31
637.39	1081.77
637.73	1075.81
638.08	1069.79
638.42	1063.86
638.77	1057.15
639.11	1050.80
639.45	1045.05
639.80	1038.34
640.14	1031.87
640.49	1025.70
640.83	1019.43
641.17	1013.14
641.52	1007.21
641.86	1000.74
642.20	994.59
642.55	987.87
642.89	981.22
643.23	974.54
643.58	968.50
643.92	961.86
644.26	955.59
644.61	949.48
644.95	943.15
645.29	936.82
645.64	929.81
645.98	923.73
646.32	917.75
646.66	911.65
647.01	905.69
647.35	899.83
647.69	893.58
648.04	887.59
648.38	881.35
648.72	875.21
649.06	868.98
649.41	862.88
649.75	856.91
650.09	851.24
650.43	845.43
650.78	839.20
651.12	833.26
651.46	827.45
651.80	821.28
652.14	815.27
652.49	809.22
652.83	803.59
653.17	797.50
653.51	791.61
653.85	785.85
654.20	779.90
654.54	774.07
654.88	768.70
655.22	762.99
655.56	757.22
655.90	751.33
656.25	745.67
656.59	740.02
656.93	734.90
657.27	729.50
657.61	723.98
657.95	718.83
658.29	713.70
658.64	708.76
658.98	703.73
659.32	698.34
659.66	693.21
660.00	687.90
660.34	682.61
660.68	677.35
661.02	672.13
661.36	667.45
661.70	662.46
662.05	657.65
662.39	653.06
662.73	648.76
663.07	644.36
663.41	639.96
663.75	635.43
664.09	630.78
664.43	626.19
664.77	621.94
665.11	617.49
665.45	612.97
665.79	608.31
666.13	603.84
666.47	599.73
666.81	595.43
667.15	591.21
667.49	587.42
667.83	583.64
668.17	579.72
668.51	575.90
668.85	572.26
669.19	568.45
669.53	564.46
669.87	560.31
670.21	556.23
670.55	552.33
670.89	548.95
671.23	545.50
671.57	541.87
671.91	538.11
672.25	534.58
672.58	531.04
672.92	527.64
673.26	524.42
673.60	521.12
673.94	517.72
674.28	514.57
674.62	511.32
674.96	507.97
675.30	504.84
675.64	501.48
675.97	498.37
676.31	495.25
676.65	492.35
676.99	489.81
677.33	486.96
677.67	484.04
678.01	480.96
678.34	477.90
678.68	474.92
679.02	471.88
679.36	469.02
679.70	466.23
680.04	463.35
680.37	460.35
680.71	457.37
681.05	454.82
681.39	452.13
681.73	449.45
682.06	446.92
682.40	444.33
682.74	441.71
683.08	439.15
683.42	436.45
683.75	433.89
684.09	431.08
684.43	428.65
684.77	426.03
685.10	423.41
685.44	420.93
685.78	418.54
686.12	416.41
686.45	414.00
686.79	411.64
687.13	409.48
687.46	407.38
687.80	405.31
688.14	402.88
688.48	400.64
688.81	398.38
689.15	396.15
689.49	393.81
689.82	391.65
690.16	389.20
690.50	387.00
690.83	384.74
691.17	382.58
691.51	380.32
691.84	378.28
692.18	376.30
692.52	374.31
692.85	372.42
693.19	370.47
693.52	368.54
693.86	366.53
694.20	364.56
694.53	362.64
694.87	360.59
695.21	358.72
695.54	356.76
695.88	354.92
696.21	353.01
696.55	351.43
696.88	349.60
697.22	347.94
697.56	346.32
697.89	344.64
698.23	342.96
698.56	341.42
698.90	339.91
699.23	338.30
699.57	336.73
699.90	335.11
700.24	333.41
700.58	331.80
700.91	330.42
701.25	329.01
701.58	327.54
701.92	326.11
702.25	324.82
702.59	323.42
702.92	321.96
703.26	320.58
703.59	319.16
703.93	318.17
704.26	316.88
704.60	315.56
704.93	314.34
705.26	313.01
705.60	311.77
705.93	310.44
706.27	309.25
706.60	308.08
706.94	307.05
707.27	305.83
707.61	304.76
707.94	303.61
708.27	302.34
708.61	301.12
708.94	300.06
709.28	298.80
709.61	297.70
709.94	296.73
710.28	295.64
710.61	294.51
710.95	293.11
711.28	292.13
711.61	291.16
711.95	290.13
712.28	289.25
712.61	288.27
712.95	287.31
713.28	286.35
713.61	285.30
713.95	284.25
714.28	283.39
714.61	282.45
714.95	281.55
715.28	280.69
715.61	279.78
715.95	278.87
716.28	278.01
716.61	277.24
716.95	276.32
717.28	275.55
717.61	274.82
717.94	274.08
718.28	273.23
718.61	272.42
718.94	271.65
719.27	270.85
719.61	270.12
719.94	269.39
720.27	268.67
720.60	268.04
720.94	267.26
721.27	266.58
721.60	265.87
721.93	265.18
722.27	264.55
722.60	264.04
722.93	263.41
723.26	262.82
723.59	262.14
723.93	261.60
724.26	261.07
724.59	260.44
724.92	259.90
725.25	259.37
725.59	258.88
725.92	258.29
726.25	257.73
726.58	257.27
726.91	256.72
727.24	256.20
727.57	255.71
727.91	255.24
728.24	254.78
728.57	254.32
728.90	253.84
729.23	253.31
729.56	252.81
729.89	252.38
730.22	251.88
730.55	251.38
730.89	250.86
731.22	250.28
731.55	249.79
731.88	249.38
732.21	248.89
732.54	248.31
732.87	247.98
733.20	247.61
733.53	247.13
733.86	246.70
734.19	246.27
734.52	245.84
734.85	245.61
735.18	245.14
735.51	244.75
735.84	244.35
736.17	244.02
736.50	243.61
736.83	243.38
737.16	243.09
737.49	242.71
737.82	242.27
738.15	241.95
738.48	241.63
738.81	241.28
739.14	241.01
739.47	240.64
739.80	240.23
740.13	239.84
740.46	239.47
740.79	239.19
741.12	238.79
741.45	238.46
741.78	237.96
742.11	237.76
742.44	237.44
742.77	237.25
743.10	236.87
743.43	236.54
743.75	236.02
744.08	235.89
744.41	235.66
744.74	235.43
745.07	235.03
745.40	234.79
745.73	234.58
746.06	234.26
746.39	234.04
746.71	233.72
747.04	233.45
747.37	233.06
747.70	232.75
748.03	232.55
748.36	232.34
748.68	232.10
749.01	231.72
749.34	231.45
749.67	231.12
750.00	230.90
750.33	230.83
750.65	230.62
750.98	230.17
751.31	229.90
751.64	229.65
751.97	229.61
752.29	229.35
752.62	229.03
752.95	228.70
753.28	228.39
753.60	228.18
753.93	228.00
754.26	227.93
754.59	227.68
754.91	227.38
755.24	227.10
755.57	226.88
755.90	226.74
756.22	226.51
756.55	226.26
756.88	226.11
757.20	225.80
757.53	225.57
757.86	225.37
758.19	225.23
758.51	225.11
758.84	224.82
759.17	224.63
759.49	224.45
759.82	224.49
760.15	224.41
760.47	224.24
760.80	224.07
761.13	223.91
761.45	223.75
761.78	223.64
762.11	223.48
762.43	223.37
762.76	223.17
763.08	223.08
763.41	222.94
763.74	222.74
764.06	222.63
764.39	222.55
764.71	222.41
765.04	222.26
765.37	222.05
765.69	221.92
766.02	221.77
766.34	221.66
766.67	221.44
767.00	221.31
767.32	221.29
767.65	221.21
767.97	221.05
768.30	220.98
768.62	220.87
768.95	220.74
769.27	220.61
769.60	220.53
769.92	220.41
770.25	220.37
770.57	220.22
770.90	219.98
771.22	219.84
771.55	219.70
771.87	219.57
772.20	219.52
772.52	219.55
772.85	219.66
773.17	219.57
773.50	219.44
773.82	219.40
774.15	219.29
774.47	219.10
774.80	218.97
775.12	218.82
775.45	218.72
775.77	218.67
776.09	218.57
776.42	218.44
776.74	218.42
777.07	218.30
777.39	218.26
777.72	218.23
778.04	218.10
778.36	218.01
778.69	217.97
779.01	217.89
779.33	217.71
779.66	217.40
779.98	217.33
780.31	217.31
780.63	217.28
780.95	217.16
781.28	217.10
781.60	217.06
781.92	217.01
782.25	216.95
782.57	216.89
782.89	216.83
783.22	216.75
783.54	216.57
783.86	216.47
784.19	216.37
784.51	216.37
784.83	216.34
785.16	216.38
785.48	216.36
785.80	216.40
786.12	216.30
786.45	216.30
786.77	216.19
787.09	216.14
787.42	215.94
787.74	215.90
788.06	215.86
788.38	215.73
788.71	215.73
789.03	215.76
789.35	215.74
789.67	215.61
789.99	215.70
790.32	215.73
790.64	215.76
790.96	215.80
791.28	215.64
791.61	215.64
791.93	215.55
792.25	215.44
792.57	215.44
792.89	215.39
793.21	215.33
793.54	215.33
793.86	215.18
794.18	215.22
794.50	215.17
794.82	215.10
795.14	215.07
795.47	215.00
795.79	214.91
796.11	214.82
796.43	214.83
796.75	214.73
797.07	214.65
797.39	214.63
797.71	214.58
798.04	214.65
798.36	214.58
798.68	214.50
799.00	214.49
799.32	214.39
799.64	214.41
799.96	214.47
800.28	214.51
800.60	214.58
800.92	214.55
801.24	214.53
801.56	214.51
801.89	214.55
802.21	214.53
802.53	214.46
802.85	214.55
803.17	214.62
803.49	214.60
803.81	214.55
804.13	214.51
804.45	214.39
804.77	214.32
805.09	214.30
805.41	214.26
805.73	214.20
806.05	214.12
806.37	214.05
806.69	213.98
807.01	213.91
807.33	213.84
807.65	213.76
807.97	213.76
808.28	213.75
808.60	213.67
808.92	213.64
809.24	213.68
809.56	213.56
809.88	213.42
810.20	213.35
810.52	213.36
810.84	213.25
811.16	213.25
811.48	213.19
811.80	213.25
812.12	213.22
812.43	213.27
812.75	213.25
813.07	213.19
813.39	213.13
813.71	213.07
814.03	212.98
814.35	212.99
814.67	212.89
814.98	212.89
815.30	212.88
815.62	212.86
815.94	212.76
816.26	212.72
816.58	212.66
816.89	212.71
817.21	212.69
817.53	212.70
817.85	212.67
818.17	212.64
818.48	212.50
818.80	212.54
819.12	212.43
819.44	212.38
819.76	212.35
820.07	212.29
820.39	212.31
820.71	212.34
821.03	212.32
821.34	212.29
821.66	212.29
821.98	212.28
822.30	212.25
822.61	212.30
822.93	212.35
823.25	212.38
823.57	212.31
823.88	212.35
824.20	212.36
824.52	212.38
824.83	212.40
825.15	212.41
825.47	212.36
825.79	212.45
826.10	212.50
826.42	212.51
826.74	212.59
827.05	212.57
827.37	212.52
827.69	212.51
828.00	212.57
828.32	212.55
828.64	212.50
828.95	212.60
829.27	212.57
829.58	212.51
829.90	212.47
830.22	212.41
830.53	212.31
830.85	212.31
831.17	212.23
831.48	212.23
831.80	212.21
832.11	212.17
832.43	212.07
832.75	212.02
833.06	212.19
833.38	212.11
833.69	212.05
834.01	212.08
834.32	212.03
834.64	212.05
834.96	212.00
835.27	212.00
835.59	211.91
835.90	211.86
836.22	211.83
836.53	211.84
836.85	211.86
837.16	212.03
837.48	212.01
837.79	212.10
838.11	212.12
838.42	212.14
838.74	212.21
839.05	212.22
839.37	212.15
839.68	212.00
840.00	212.03
840.31	212.13
840.63	212.18
840.94	212.18
841.26	212.09
841.57	212.13
841.88	212.20
842.20	212.22
842.51	212.20
842.83	212.22
843.14	212.33
843.46	212.32
843.77	212.27
844.08	212.23
844.40	212.10
844.71	212.04
845.03	211.94
845.34	211.87
845.65	211.82
845.97	211.85
846.28	211.88
846.60	211.87
846.91	211.83
847.22	211.77
847.54	211.81
847.85	211.76
848.16	211.74
848.48	211.69
848.79	211.68
849.10	211.73
849.42	211.74
849.73	211.57
850.04	211.61
850.36	211.55
850.67	211.57
850.98	211.68
851.30	211.76
851.61	211.82
851.92	211.86
852.23	211.97
852.55	211.94
852.86	211.87
853.17	211.83
853.49	211.87
853.80	211.89
854.11	211.88
854.42	211.99
854.74	211.96
855.05	211.99
855.36	211.93
855.67	211.93
855.99	211.99
856.30	212.25
856.61	212.24
856.92	212.20
857.23	212.22
857.55	212.17
857.86	212.08
858.17	212.11
858.48	212.06
858.79	211.97
859.11	212.00
859.42	212.01
859.73	212.00
860.04	211.94
860.35	211.91
860.66	211.87
860.98	211.81
861.29	211.83
861.60	211.73
861.91	211.78
862.22	211.68
862.53	211.58
862.84	211.41
863.16	211.40
863.47	211.39
863.78	211.40
864.09	211.34
864.40	211.37
864.71	211.35
865.02	211.32
865.33	211.33
865.64	211.32
865.95	211.33
866.27	211.43
866.58	211.40
866.89	211.45
867.20	211.45
867.51	211.46
867.82	211.43
868.13	211.52
868.44	211.50
868.75	211.56
869.06	211.60
869.37	211.58
869.68	211.52
869.99	211.54
870.30	211.55
870.61	211.63
870.92	211.60
871.23	211.64
871.54	211.70
871.85	211.80
872.16	211.79
872.47	211.73
872.78	211.65
873.09	211.71
873.40	211.60
873.71	211.62
874.02	211.64
874.33	211.67
874.64	211.62
874.95	211.65
875.26	211.55
875.56	211.50
875.87	211.52
876.18	211.55
876.49	211.75
876.80	211.66
877.11	211.66
877.42	211.67
877.73	211.55
878.04	211.55
878.35	211.43
878.66	211.52
878.96	211.59
879.27	211.52
879.58	211.47
879.89	211.51
880.20	211.49
880.51	211.46
880.82	211.40
881.12	211.37
881.43	211.29
881.74	211.31
882.05	211.33
882.36	211.31
882.67	211.34
882.97	211.15
883.28	211.14
883.59	211.05
883.90	211.08
884.21	211.13
884.51	211.09
884.82	211.07
885.13	211.00
885.44	211.01
885.74	211.06
886.05	211.05
886.36	211.07
886.67	211.04
886.98	211.13
887.28	211.19
887.59	211.22
887.90	211.24
888.20	211.28
888.51	211.31
888.82	211.28
889.13	211.30
889.43	211.47
889.74	211.50
890.05	211.54
890.35	211.53
890.66	211.54
890.97	211.56
891.28	211.59
891.58	211.59
891.89	211.60
892.20	211.55
892.50	211.54
892.81	211.55
893.12	211.56
893.42	211.55
893.73	211.58
894.04	211.54
894.34	211.51
894.65	211.46
894.95	211.42
895.26	211.44
895.57	211.46
895.87	211.21
896.18	211.31
896.48	211.33
896.79	211.34
897.10	211.35
897.40	211.40
897.71	211.50
898.01	211.52
898.32	211.47
898.63	211.49
898.93	211.49
899.24	211.52
899.54	211.52
899.85	211.46
900.15	211.45
900.46	211.50
900.76	211.52
901.07	211.56
901.38	211.59
901.68	211.57
901.99	211.46
902.29	211.56
902.60	211.42
902.90	211.45
903.21	211.48
903.51	211.57
903.82	211.61
904.12	211.54
904.43	211.54
904.73	211.55
905.03	211.56
905.34	211.79
905.64	211.71
905.95	211.67
906.25	211.65
906.56	211.63
906.86	211.65
907.17	211.68
907.47	211.68
907.77	211.74
908.08	211.73
908.38	211.84
908.69	211.81
908.99	211.86
909.30	211.86
909.60	211.78
909.90	211.74
910.21	211.68
910.51	211.71
910.81	211.76
911.12	211.77
911.42	211.86
911.73	211.69
912.03	211.75
912.33	211.81
912.64	211.79
912.94	211.74
913.24	211.69
913.55	211.77
913.85	211.77
914.15	211.75
914.46	211.73
914.76	211.68
915.06	211.70
915.37	211.75
915.67	211.75
915.97	211.78
916.27	211.68
916.58	211.70
916.88	211.62
917.18	211.50
917.49	211.62
917.79	211.58
918.09	211.60
918.39	211.59
918.70	211.59
919.00	211.60
919.30	211.70
919.60	211.70
919.91	211.61
920.21	211.60
920.51	211.54
920.81	211.56
921.12	211.53
921.42	211.43
921.72	211.39
922.02	211.31
922.32	211.31
922.63	211.35
922.93	211.32
923.23	211.37
923.53	211.43
923.83	211.28
924.13	211.22
924.44	211.13
924.74	211.09
925.04	211.14
925.34	211.19
925.64	211.10
925.94	211.04
926.24	211.14
926.55	211.10
926.85	211.07
927.15	211.05
927.45	211.11
927.75	211.11
928.05	211.09
928.35	211.14
928.65	211.18
928.95	211.13
929.26	211.11
929.56	211.12
929.86	211.14
930.16	211.10
930.46	211.08
930.76	211.04
931.06	211.02
931.36	211.00
931.66	210.98
931.96	211.03
932.26	211.06
932.56	210.97
932.86	210.93
933.16	211.04
933.46	211.07
933.76	210.96
934.06	211.05
934.36	211.15
934.66	211.16
934.96	211.13
935.26	211.23
935.56	211.27
935.86	211.17
936.16	211.08
936.46	211.07
936.76	211.11
937.06	211.09
937.36	211.13
937.66	211.08
937.96	211.01
938.26	210.96
938.56	211.00
938.86	211.01
939.16	211.01
939.46	211.03
939.76	210.99
940.06	211.09
940.35	211.08
940.65	210.98
940.95	211.00
941.25	210.97
941.55	210.90
941.85	210.82
942.15	210.87
942.45	210.96
942.75	211.05
943.04	211.01
943.34	211.11
943.64	211.03
943.94	211.00
944.24	211.06
944.54	211.07
944.84	211.05
945.13	210.96
945.43	210.97
945.73	210.96
946.03	210.94
946.33	210.94
946.62	210.91
946.92	210.91
947.22	210.98
947.52	210.96
947.82	211.00
948.11	210.99
948.41	210.99
948.71	210.93
949.01	210.91
949.31	210.88
949.60	210.82
949.90	210.89
950.20	210.92
950.50	210.92
950.79	210.95
951.09	210.91
951.39	210.99
951.69	211.01
951.98	210.98
952.28	211.07
952.58	211.04
952.87	211.01
953.17	211.02
953.47	210.89
953.76	210.92
954.06	210.88
954.36	210.82
954.66	210.82
954.95	210.88
955.25	210.94
955.55	210.98
955.84	211.00
956.14	211.00
956.44	211.04
956.73	210.95
957.03	210.93
957.32	210.99
957.62	211.01
957.92	211.01
958.21	211.08
958.51	211.23
958.81	211.20
959.10	211.22
959.40	211.22
959.69	211.28
959.99	211.24
960.29	211.24
960.58	211.34
960.88	211.36
961.17	211.29
961.47	211.21
961.76	211.18
962.06	211.21
962.36	211.16
962.65	211.09
962.95	211.12
963.24	211.11
963.54	211.05
963.83	211.04
964.13	211.07
964.42	210.95
964.72	210.82
965.01	210.84
965.31	210.84
965.60	210.85
965.90	210.90
966.19	210.89
966.49	210.85
966.78	210.84
967.08	210.85
967.37	210.87
967.67	210.85
967.96	210.90
968.26	210.82
968.55	210.92
968.85	210.96
969.14	211.00
969.43	210.96
969.73	210.96
970.02	210.91
970.32	210.82
970.61	210.81
970.91	210.75
971.20	210.72
971.49	210.71
971.79	210.69
972.08	210.58
972.38	210.67
972.67	210.64
972.96	210.72
973.26	210.70
973.55	210.78
973.85	210.82
974.14	210.81
974.43	210.89
974.73	210.89
975.02	210.94
975.31	210.93
975.61	210.96
975.90	210.98
976.19	211.00
976.49	211.03
976.78	210.95
977.07	211.00
977.37	211.01
977.66	210.97
977.95	210.95
978.24	210.91
978.54	210.86
978.83	210.93
979.12	210.87
979.42	210.88
979.71	210.81
980.00	210.77
980.29	210.77
980.59	210.75
980.88	210.80
981.17	210.70
981.46	210.73
981.76	210.70
982.05	210.74
982.34	210.80
982.63	210.89
982.93	211.00
983.22	211.00
983.51	211.01
983.80	211.12
984.09	211.18
984.39	211.25
984.68	211.23
984.97	211.20
985.26	211.19
985.55	211.21
985.85	211.25
986.14	211.27
986.43	211.25
986.72	211.20
987.01	211.08
987.30	211.11
987.59	211.13
987.89	211.14
988.18	211.10
988.47	210.99
988.76	210.95
989.05	210.92
989.34	210.91
989.63	210.90
989.92	210.91
990.22	210.86
990.51	210.79
990.80	210.83
991.09	210.87
991.38	210.96
991.67	210.91
991.96	210.89
992.25	210.91
992.54	210.93
992.83	210.98
993.12	210.98
993.41	211.06
993.70	211.08
993.99	211.14
994.28	211.16
994.58	211.19
994.87	211.17
995.16	211.12
995.45	211.07
995.74	211.15
996.03	211.07
996.32	211.09
996.61	211.22
996.90	211.22
997.19	211.16
997.48	211.12
997.77	211.07
998.06	211.00
998.34	210.94
998.63	210.92
998.92	210.92
999.21	210.95
999.50	210.87
999.79	210.85
1000.08	210.77
1000.37	210.74
1000.66	210.78
1000.95	210.78
1001.24	210.79
1001.53	210.83
1001.82	210.80
1002.11	210.80
1002.40	210.85
1002.68	210.90
1002.97	211.00
1003.26	211.00
1003.55	210.95
1003.84	211.03
1004.13	211.12
1004.42	211.11
1004.71	211.10
1004.99	211.00
1005.28	211.04
1005.57	211.03
1005.86	210.97
1006.15	210.97
1006.44	210.90
1006.72	210.96
1007.01	210.92
1007.30	211.01
1007.59	210.98
1007.88	211.00
1008.17	210.99
1008.45	210.89
1008.74	210.79
1009.03	210.73
1009.32	210.76
1009.60	210.65
1009.89	210.61
1010.18	210.58
1010.47	210.63
1010.76	210.61
1011.04	210.72
1011.33	210.70
1011.62	210.72
1011.91	210.75
1012.19	210.77
1012.48	210.80
1012.77	210.73
1013.05	210.80
1013.34	210.77
1013.63	210.76
1013.92	210.65
1014.20	210.57
1014.49	210.56
1014.78	210.54
1015.06	210.37
1015.35	210.39
1015.64	210.48
1015.92	210.57
1016.21	210.50
1016.50	210.51
1016.78	210.65
1017.07	210.60
1017.36	210.45
1017.64	210.43
1017.93	210.50
1018.22	210.47
1018.50	210.55
1018.79	210.55
1019.08	210.52
1019.36	210.51
1019.65	210.54
1019.93	210.59
1020.22	210.71
1020.51	210.85
1020.79	210.83
1021.08	209.90
1021.36	211.50
1021.65	210.65
1021.94	211.00
1022.22	210.75
1022.51	210.95
1022.79	210.85
1023.08	211.25
1023.36	213.20
1023.65	210.40
>>>>>End Processed Spectral Data<<<<<
