SpectraSuite Data File
++++++++++++++++++++++++++++++++++++
Date: Mon Feb 25 17:36:13 EST 2013
User: group
Dark Spectrum Present: No
Reference Spectrum Present: No
Number of Sampled Component Spectra: 1
Spectrometers: USB2E7196
Integration Time (usec): 52000 (USB2E7196)
Spectra Averaged: 20 (USB2E7196)
Boxcar Smoothing: 10 (USB2E7196)
Correct for Electrical Dark: No (USB2E7196)
Strobe/Lamp Enabled: No (USB2E7196)
Correct for Detector Non-linearity: No (USB2E7196)
Correct for Stray Light: No (USB2E7196)
Number of Pixels in Processed Spectrum: 2048
>>>>>Begin Processed Spectral Data<<<<<
339.09	0.00
339.48	199.40
339.86	200.60
340.24	202.60
340.63	203.40
341.01	207.60
341.39	206.00
341.78	206.60
342.16	210.00
342.54	209.30
342.93	198.28
343.31	208.35
343.69	208.95
344.07	209.43
344.46	209.89
344.84	210.44
345.22	210.70
345.60	211.05
345.99	211.40
346.37	211.57
346.75	211.84
347.13	211.98
347.52	212.17
347.90	212.42
348.28	212.64
348.66	212.82
349.05	212.92
349.43	213.06
349.81	213.16
350.19	213.37
350.57	213.54
350.96	213.69
351.34	213.86
351.72	213.96
352.10	214.13
352.48	214.25
352.87	214.27
353.25	214.40
353.63	214.48
354.01	214.57
354.39	214.70
354.77	214.64
355.15	214.77
355.54	214.84
355.92	214.78
356.30	214.83
356.68	214.96
357.06	215.07
357.44	215.09
357.82	215.18
358.20	215.24
358.58	215.28
358.97	215.36
359.35	215.44
359.73	215.52
360.11	215.57
360.49	215.64
360.87	215.63
361.25	215.67
361.63	215.73
362.01	215.72
362.39	215.68
362.77	215.79
363.15	215.76
363.53	215.78
363.91	215.84
364.29	215.78
364.67	215.71
365.05	215.81
365.43	215.88
365.81	215.93
366.19	216.03
366.57	216.10
366.95	216.12
367.33	216.08
367.71	216.09
368.09	216.18
368.47	216.19
368.85	216.17
369.23	216.20
369.61	216.13
369.99	216.13
370.37	216.20
370.75	216.30
371.13	216.25
371.51	216.25
371.89	216.25
372.27	216.35
372.65	216.33
373.03	216.28
373.41	216.26
373.78	216.22
374.16	216.11
374.54	216.05
374.92	216.01
375.30	215.93
375.68	215.93
376.06	215.85
376.44	215.77
376.82	215.73
377.19	215.62
377.57	215.61
377.95	215.57
378.33	215.45
378.71	215.25
379.09	215.30
379.47	215.34
379.84	215.32
380.22	215.23
380.60	215.09
380.98	215.01
381.36	214.96
381.73	214.90
382.11	214.94
382.49	214.94
382.87	214.84
383.25	214.84
383.62	214.98
384.00	215.03
384.38	215.03
384.76	215.11
385.13	215.13
385.51	215.15
385.89	215.14
386.27	215.20
386.64	215.25
387.02	215.25
387.40	215.14
387.78	215.10
388.15	215.06
388.53	215.11
388.91	215.08
389.29	215.09
389.66	215.13
390.04	215.04
390.42	215.04
390.79	215.15
391.17	215.24
391.55	215.05
391.92	215.01
392.30	215.08
392.68	215.10
393.05	215.15
393.43	215.19
393.81	215.25
394.18	215.23
394.56	215.25
394.94	215.33
395.31	215.35
395.69	215.45
396.06	215.57
396.44	215.66
396.82	215.76
397.19	215.94
397.57	216.00
397.95	216.25
398.32	216.40
398.70	216.51
399.07	216.65
399.45	216.90
399.82	217.06
400.20	217.21
400.58	217.47
400.95	217.69
401.33	218.02
401.70	218.47
402.08	218.87
402.45	219.19
402.83	219.70
403.20	220.22
403.58	220.72
403.95	221.33
404.33	221.90
404.71	222.47
405.08	223.17
405.46	223.91
405.83	224.65
406.21	225.46
406.58	226.43
406.96	227.40
407.33	228.33
407.70	229.53
408.08	230.92
408.45	232.23
408.83	233.68
409.20	235.16
409.58	236.62
409.95	238.35
410.33	240.37
410.70	242.23
411.08	244.35
411.45	246.61
411.82	249.05
412.20	251.69
412.57	254.77
412.95	257.70
413.32	261.00
413.69	264.46
414.07	268.11
414.44	272.06
414.82	276.20
415.19	280.90
415.56	285.74
415.94	290.96
416.31	296.71
416.68	302.44
417.06	308.92
417.43	315.10
417.81	322.22
418.18	329.52
418.55	337.66
418.93	346.11
419.30	355.00
419.67	364.28
420.04	374.00
420.42	384.33
420.79	395.59
421.16	407.41
421.54	419.31
421.91	432.01
422.28	445.26
422.66	459.28
423.03	472.80
423.40	487.19
423.77	502.67
424.15	518.46
424.52	534.98
424.89	553.11
425.26	570.84
425.64	587.77
426.01	606.33
426.38	625.66
426.75	645.20
427.13	665.59
427.50	687.47
427.87	710.35
428.24	733.21
428.61	755.70
428.99	779.20
429.36	805.58
429.73	831.30
430.10	856.80
430.47	883.53
430.85	911.57
431.22	940.71
431.59	971.15
431.96	1001.21
432.33	1034.50
432.70	1066.38
433.08	1103.99
433.45	1139.26
433.82	1175.02
434.19	1214.05
434.56	1252.85
434.93	1290.67
435.30	1327.82
435.68	1368.94
436.05	1409.72
436.42	1450.53
436.79	1488.25
437.16	1529.04
437.53	1572.19
437.90	1615.11
438.27	1656.93
438.64	1701.13
439.01	1742.18
439.38	1779.61
439.75	1815.27
440.13	1855.67
440.50	1894.02
440.87	1926.04
441.24	1959.92
441.61	1996.26
441.98	2024.75
442.35	2057.03
442.72	2089.20
443.09	2120.27
443.46	2141.03
443.83	2156.20
444.20	2170.06
444.57	2188.78
444.94	2199.01
445.31	2209.79
445.68	2218.73
446.05	2225.90
446.42	2225.52
446.79	2223.96
447.16	2222.25
447.53	2221.45
447.90	2209.57
448.27	2197.93
448.64	2180.00
449.01	2166.99
449.37	2142.11
449.74	2118.24
450.11	2088.48
450.48	2056.98
450.85	2024.89
451.22	1997.22
451.59	1970.29
451.96	1944.56
452.33	1909.26
452.70	1877.87
453.07	1839.30
453.43	1801.52
453.80	1763.45
454.17	1727.04
454.54	1693.02
454.91	1655.72
455.28	1620.11
455.65	1586.56
456.02	1550.79
456.38	1521.55
456.75	1485.18
457.12	1455.54
457.49	1425.55
457.86	1397.46
458.23	1371.68
458.59	1343.95
458.96	1315.73
459.33	1291.25
459.70	1266.19
460.07	1246.42
460.43	1223.36
460.80	1201.59
461.17	1182.57
461.54	1162.56
461.91	1143.65
462.27	1124.56
462.64	1108.59
463.01	1090.23
463.38	1072.38
463.74	1056.70
464.11	1041.58
464.48	1028.51
464.85	1013.69
465.21	1002.00
465.58	989.65
465.95	975.50
466.32	963.40
466.68	951.67
467.05	939.69
467.42	927.84
467.78	915.55
468.15	903.96
468.52	895.50
468.88	884.29
469.25	874.45
469.62	866.22
469.98	857.61
470.35	849.43
470.72	841.85
471.08	833.93
471.45	826.60
471.82	819.17
472.18	811.36
472.55	805.93
472.92	799.74
473.28	794.11
473.65	788.74
474.02	783.32
474.38	778.46
474.75	774.38
475.11	770.20
475.48	766.99
475.85	764.21
476.21	761.11
476.58	758.94
476.94	757.23
477.31	755.06
477.67	752.94
478.04	751.47
478.41	750.56
478.77	749.69
479.14	748.95
479.50	748.86
479.87	749.61
480.23	750.24
480.60	750.39
480.96	750.61
481.33	751.99
481.69	753.55
482.06	754.86
482.42	755.95
482.79	757.50
483.15	759.91
483.52	763.33
483.88	766.53
484.25	769.65
484.61	773.05
484.98	776.67
485.34	780.82
485.71	785.40
486.07	790.25
486.44	795.48
486.80	801.21
487.17	807.27
487.53	813.90
487.90	820.70
488.26	828.00
488.62	835.88
488.99	843.68
489.35	851.87
489.72	861.12
490.08	871.18
490.44	881.02
490.81	891.16
491.17	901.03
491.54	912.15
491.90	923.06
492.26	934.67
492.63	947.00
492.99	959.89
493.36	972.81
493.72	986.63
494.08	1000.65
494.45	1015.35
494.81	1030.67
495.17	1046.27
495.54	1062.45
495.90	1079.61
496.26	1096.92
496.63	1114.68
496.99	1132.72
497.35	1150.81
497.72	1169.39
498.08	1188.60
498.44	1208.04
498.80	1228.55
499.17	1248.69
499.53	1269.66
499.89	1291.20
500.26	1312.53
500.62	1333.95
500.98	1356.62
501.34	1378.97
501.71	1401.78
502.07	1425.50
502.43	1448.84
502.79	1472.26
503.16	1495.95
503.52	1519.85
503.88	1543.25
504.24	1567.05
504.60	1591.25
504.97	1616.47
505.33	1640.92
505.69	1666.65
506.05	1691.74
506.41	1716.71
506.78	1741.75
507.14	1766.76
507.50	1791.93
507.86	1817.49
508.22	1843.37
508.59	1868.41
508.95	1893.75
509.31	1919.46
509.67	1944.81
510.03	1970.64
510.39	1996.70
510.75	2022.03
511.12	2046.60
511.48	2071.98
511.84	2097.06
512.20	2121.47
512.56	2146.16
512.92	2171.00
513.28	2195.19
513.64	2219.63
514.00	2243.16
514.37	2267.19
514.73	2291.35
515.09	2314.29
515.45	2337.11
515.81	2359.80
516.17	2382.63
516.53	2405.15
516.89	2427.20
517.25	2447.55
517.61	2467.67
517.97	2487.17
518.33	2506.65
518.69	2526.45
519.05	2546.19
519.41	2565.70
519.77	2585.64
520.13	2604.28
520.49	2622.38
520.85	2640.10
521.21	2657.40
521.57	2675.91
521.93	2692.75
522.29	2710.11
522.65	2727.41
523.01	2743.96
523.37	2759.66
523.73	2775.31
524.09	2790.18
524.45	2804.88
524.81	2819.85
525.17	2835.08
525.53	2850.46
525.89	2865.52
526.25	2880.35
526.61	2893.30
526.97	2906.40
527.33	2918.95
527.68	2932.07
528.04	2945.24
528.40	2957.44
528.76	2969.93
529.12	2981.18
529.48	2993.09
529.84	3002.77
530.20	3013.13
530.56	3024.00
530.91	3035.49
531.27	3046.55
531.63	3057.79
531.99	3068.19
532.35	3077.78
532.71	3086.82
533.07	3097.20
533.42	3106.84
533.78	3116.53
534.14	3126.27
534.50	3135.01
534.86	3144.27
535.21	3151.19
535.57	3159.19
535.93	3166.98
536.29	3173.80
536.65	3181.83
537.00	3188.52
537.36	3195.98
537.72	3203.08
538.08	3210.35
538.44	3216.59
538.79	3222.40
539.15	3228.23
539.51	3234.86
539.87	3242.71
540.22	3249.14
540.58	3254.84
540.94	3260.69
541.29	3265.10
541.65	3268.04
542.01	3272.02
542.37	3275.79
542.72	3280.86
543.08	3284.46
543.44	3288.67
543.79	3291.91
544.15	3293.77
544.51	3297.73
544.87	3301.60
545.22	3303.57
545.58	3304.62
545.94	3305.92
546.29	3307.21
546.65	3307.60
547.01	3307.44
547.36	3307.83
547.72	3308.81
548.07	3307.46
548.43	3306.64
548.79	3305.45
549.14	3306.78
549.50	3307.62
549.86	3308.06
550.21	3306.61
550.57	3306.28
550.92	3304.28
551.28	3302.83
551.64	3301.93
551.99	3300.98
552.35	3299.91
552.70	3299.37
553.06	3299.16
553.41	3298.05
553.77	3297.09
554.13	3296.39
554.48	3297.04
554.84	3295.60
555.19	3293.64
555.55	3293.48
555.90	3292.29
556.26	3291.59
556.61	3289.65
556.97	3286.08
557.32	3282.54
557.68	3280.20
558.03	3276.89
558.39	3274.74
558.74	3274.17
559.10	3273.06
559.45	3270.63
559.81	3268.52
560.16	3266.59
560.52	3264.80
560.87	3262.98
561.23	3259.08
561.58	3255.65
561.94	3250.43
562.29	3245.39
562.64	3241.97
563.00	3237.56
563.35	3232.90
563.71	3229.21
564.06	3225.93
564.42	3223.37
564.77	3220.34
565.12	3217.24
565.48	3214.13
565.83	3210.76
566.19	3207.65
566.54	3204.01
566.89	3199.37
567.25	3193.88
567.60	3189.72
567.96	3183.78
568.31	3178.79
568.66	3175.07
569.02	3171.57
569.37	3168.22
569.72	3164.95
570.08	3160.13
570.43	3154.52
570.78	3150.50
571.14	3145.70
571.49	3140.74
571.84	3135.99
572.20	3130.05
572.55	3125.33
572.90	3119.65
573.26	3113.80
573.61	3106.06
573.96	3098.17
574.31	3090.99
574.67	3084.63
575.02	3076.50
575.37	3069.23
575.72	3061.95
576.08	3054.63
576.43	3046.05
576.78	3037.42
577.13	3029.55
577.49	3022.20
577.84	3014.85
578.19	3006.90
578.54	2998.62
578.90	2990.43
579.25	2980.84
579.60	2972.10
579.95	2962.24
580.30	2953.43
580.66	2944.04
581.01	2934.56
581.36	2924.62
581.71	2915.60
582.06	2906.92
582.42	2899.43
582.77	2889.97
583.12	2880.62
583.47	2871.21
583.82	2862.32
584.17	2853.09
584.53	2843.89
584.88	2833.90
585.23	2823.91
585.58	2814.09
585.93	2804.21
586.28	2794.80
586.63	2786.08
586.98	2777.31
587.34	2768.39
587.69	2758.34
588.04	2749.31
588.39	2740.20
588.74	2730.94
589.09	2721.55
589.44	2710.39
589.79	2699.16
590.14	2689.67
590.49	2678.37
590.84	2668.54
591.19	2659.03
591.54	2648.06
591.89	2636.78
592.25	2626.44
592.60	2615.25
592.95	2604.13
593.30	2593.43
593.65	2582.98
594.00	2572.67
594.35	2563.13
594.70	2552.98
595.05	2543.00
595.40	2532.10
595.75	2521.13
596.10	2510.90
596.45	2500.38
596.80	2491.05
597.15	2480.98
597.50	2470.24
597.85	2461.10
598.19	2449.23
598.54	2437.55
598.89	2427.13
599.24	2417.18
599.59	2406.54
599.94	2397.22
600.29	2387.27
600.64	2376.77
600.99	2364.46
601.34	2354.16
601.69	2342.09
602.04	2330.42
602.39	2320.27
602.74	2311.12
603.08	2302.31
603.43	2293.58
603.78	2283.50
604.13	2273.00
604.48	2262.21
604.83	2253.14
605.18	2243.22
605.53	2234.11
605.87	2224.70
606.22	2215.85
606.57	2205.68
606.92	2194.93
607.27	2184.62
607.62	2174.20
607.96	2164.41
608.31	2156.01
608.66	2145.51
609.01	2135.59
609.36	2125.66
609.70	2114.81
610.05	2103.17
610.40	2091.67
610.75	2079.75
611.10	2068.81
611.44	2057.11
611.79	2046.29
612.14	2034.70
612.49	2022.16
612.83	2010.78
613.18	1998.91
613.53	1986.99
613.88	1974.77
614.22	1963.62
614.57	1952.05
614.92	1940.65
615.27	1929.45
615.61	1917.32
615.96	1905.72
616.31	1894.79
616.65	1884.15
617.00	1873.35
617.35	1862.63
617.70	1851.22
618.04	1839.70
618.39	1828.32
618.74	1817.68
619.08	1806.21
619.43	1794.67
619.78	1784.92
620.12	1774.85
620.47	1764.76
620.82	1754.18
621.16	1744.41
621.51	1734.23
621.85	1723.96
622.20	1713.38
622.55	1702.15
622.89	1691.81
623.24	1681.41
623.59	1670.79
623.93	1660.30
624.28	1649.74
624.62	1639.20
624.97	1629.08
625.32	1619.94
625.66	1610.44
626.01	1600.99
626.35	1592.64
626.70	1584.13
627.04	1574.53
627.39	1564.37
627.73	1554.73
628.08	1545.97
628.43	1536.72
628.77	1528.01
629.12	1518.59
629.46	1509.52
629.81	1499.99
630.15	1490.24
630.50	1480.71
630.84	1470.96
631.19	1460.89
631.53	1451.70
631.88	1442.33
632.22	1433.35
632.57	1424.29
632.91	1415.20
633.26	1406.13
633.60	1396.53
633.95	1387.39
634.29	1378.73
634.64	1370.45
634.98	1361.44
635.32	1352.21
635.67	1343.84
636.01	1334.97
636.36	1326.35
636.70	1317.74
637.05	1310.11
637.39	1302.50
637.73	1294.47
638.08	1287.13
638.42	1279.85
638.77	1272.03
639.11	1264.37
639.45	1256.39
639.80	1248.03
640.14	1240.15
640.49	1232.09
640.83	1223.61
641.17	1215.36
641.52	1207.20
641.86	1199.05
642.20	1191.26
642.55	1182.81
642.89	1174.12
643.23	1165.71
643.58	1157.98
643.92	1150.11
644.26	1142.00
644.61	1133.77
644.95	1125.90
645.29	1117.80
645.64	1109.60
645.98	1101.54
646.32	1093.80
646.66	1086.32
647.01	1078.72
647.35	1070.84
647.69	1063.10
648.04	1056.22
648.38	1048.63
648.72	1041.18
649.06	1033.68
649.41	1026.16
649.75	1018.58
650.09	1011.69
650.43	1004.79
650.78	997.61
651.12	990.52
651.46	983.67
651.80	976.88
652.14	970.27
652.49	963.23
652.83	956.27
653.17	948.99
653.51	941.95
653.85	935.25
654.20	928.67
654.54	922.09
654.88	915.39
655.22	908.15
655.56	900.90
655.90	893.50
656.25	886.17
656.59	879.46
656.93	873.29
657.27	866.79
657.61	860.03
657.95	853.70
658.29	847.24
658.64	841.06
658.98	835.10
659.32	828.70
659.66	822.72
660.00	816.94
660.34	811.58
660.68	805.88
661.02	799.59
661.36	793.63
661.70	787.91
662.05	782.43
662.39	777.04
662.73	772.10
663.07	767.30
663.41	762.79
663.75	757.83
664.09	752.65
664.43	747.27
664.77	742.23
665.11	737.05
665.45	732.21
665.79	727.24
666.13	722.25
666.47	717.65
666.81	712.88
667.15	707.93
667.49	703.05
667.83	698.37
668.17	693.96
668.51	689.40
668.85	684.82
669.19	680.32
669.53	675.78
669.87	670.98
670.21	666.31
670.55	661.47
670.89	657.11
671.23	652.95
671.57	648.55
671.91	644.31
672.25	640.10
672.58	635.86
672.92	631.47
673.26	627.39
673.60	623.14
673.94	619.28
674.28	615.70
674.62	611.92
674.96	608.04
675.30	604.37
675.64	600.68
675.97	597.23
676.31	593.90
676.65	590.58
676.99	587.57
677.33	584.34
677.67	580.97
678.01	577.37
678.34	573.66
678.68	570.34
679.02	567.08
679.36	563.71
679.70	560.38
680.04	556.93
680.37	553.27
680.71	549.95
681.05	546.84
681.39	543.62
681.73	540.37
682.06	537.38
682.40	534.13
682.74	530.70
683.08	527.28
683.42	523.83
683.75	520.50
684.09	517.08
684.43	513.73
684.77	510.60
685.10	507.37
685.44	504.30
685.78	501.07
686.12	497.95
686.45	494.86
686.79	491.96
687.13	489.31
687.46	486.66
687.80	483.81
688.14	480.60
688.48	477.70
688.81	474.76
689.15	471.84
689.49	469.05
689.82	466.34
690.16	463.36
690.50	460.50
690.83	457.77
691.17	454.89
691.51	452.37
691.84	449.70
692.18	447.15
692.52	444.68
692.85	442.26
693.19	439.74
693.52	437.32
693.86	434.70
694.20	432.10
694.53	429.51
694.87	426.85
695.21	424.43
695.54	421.80
695.88	419.51
696.21	416.94
696.55	414.57
696.88	412.48
697.22	410.38
697.56	408.41
697.89	406.34
698.23	404.44
698.56	402.27
698.90	400.25
699.23	398.20
699.57	396.15
699.90	394.12
700.24	392.01
700.58	389.85
700.91	387.96
701.25	386.21
701.58	384.43
701.92	382.77
702.25	381.04
702.59	379.32
702.92	377.50
703.26	375.88
703.59	374.22
703.93	372.78
704.26	371.14
704.60	369.25
704.93	367.38
705.26	365.56
705.60	363.88
705.93	362.24
706.27	360.72
706.60	359.11
706.94	357.60
707.27	355.96
707.61	354.50
707.94	352.77
708.27	351.12
708.61	349.50
708.94	347.90
709.28	346.38
709.61	344.82
709.94	343.28
710.28	341.64
710.61	340.00
710.95	338.08
711.28	336.63
711.61	335.15
711.95	333.84
712.28	332.41
712.61	331.06
712.95	329.71
713.28	328.41
713.61	327.17
713.95	325.85
714.28	324.73
714.61	323.44
714.95	322.28
715.28	320.92
715.61	319.57
715.95	318.38
716.28	317.07
716.61	315.87
716.95	314.61
717.28	313.51
717.61	312.38
717.94	311.25
718.28	310.08
718.61	309.07
718.94	307.98
719.27	306.94
719.61	305.85
719.94	304.80
720.27	303.63
720.60	302.56
720.94	301.61
721.27	300.60
721.60	299.73
721.93	298.80
722.27	297.96
722.60	297.20
722.93	296.27
723.26	295.54
723.59	294.66
723.93	293.86
724.26	293.02
724.59	292.21
724.92	291.55
725.25	290.71
725.59	289.80
725.92	289.00
726.25	288.22
726.58	287.42
726.91	286.58
727.24	285.77
727.57	284.96
727.91	284.14
728.24	283.24
728.57	282.28
728.90	281.49
729.23	280.71
729.56	280.06
729.89	279.28
730.22	278.51
730.55	277.68
730.89	276.91
731.22	276.20
731.55	275.45
731.88	274.64
732.21	273.94
732.54	273.31
732.87	272.66
733.20	271.92
733.53	271.30
733.86	270.67
734.19	270.11
734.52	269.52
734.85	269.06
735.18	268.54
735.51	268.09
735.84	267.54
736.17	266.93
736.50	266.15
736.83	265.77
737.16	265.17
737.49	264.68
737.82	264.10
738.15	263.43
738.48	262.92
738.81	262.42
739.14	261.87
739.47	261.24
739.80	260.66
740.13	260.24
740.46	259.67
740.79	259.15
741.12	258.52
741.45	257.98
741.78	257.26
742.11	256.82
742.44	256.30
742.77	255.88
743.10	255.36
743.43	254.87
743.75	254.19
744.08	253.86
744.41	253.35
744.74	252.90
745.07	252.49
745.40	252.00
745.73	251.49
746.06	251.03
746.39	250.65
746.71	250.21
747.04	249.69
747.37	249.32
747.70	248.92
748.03	248.55
748.36	248.17
748.68	247.75
749.01	247.33
749.34	246.90
749.67	246.42
750.00	246.10
750.33	245.83
750.65	245.45
750.98	244.88
751.31	244.52
751.64	244.11
751.97	243.84
752.29	243.44
752.62	243.07
752.95	242.73
753.28	242.39
753.60	242.04
753.93	241.75
754.26	241.24
754.59	240.92
754.91	240.58
755.24	240.24
755.57	239.95
755.90	239.50
756.22	239.16
756.55	238.72
756.88	238.34
757.20	237.96
757.53	237.58
757.86	237.26
758.19	236.90
758.51	236.61
758.84	236.25
759.17	235.92
759.49	235.64
759.82	235.45
760.15	235.14
760.47	234.78
760.80	234.40
761.13	234.28
761.45	233.86
761.78	233.54
762.11	233.33
762.43	233.09
762.76	232.86
763.08	232.57
763.41	232.43
763.74	232.21
764.06	231.98
764.39	231.78
764.71	231.55
765.04	231.34
765.37	231.09
765.69	230.78
766.02	230.57
766.34	230.36
766.67	229.97
767.00	229.83
767.32	229.73
767.65	229.65
767.97	229.42
768.30	229.28
768.62	229.08
768.95	228.73
769.27	228.54
769.60	228.37
769.92	228.10
770.25	227.91
770.57	227.66
770.90	227.38
771.22	227.10
771.55	226.89
771.87	226.73
772.20	226.50
772.52	226.56
772.85	226.62
773.17	226.42
773.50	226.25
773.82	225.99
774.15	225.74
774.47	225.55
774.80	225.33
775.12	225.15
775.45	225.07
775.77	225.01
776.09	224.87
776.42	224.74
776.74	224.70
777.07	224.54
777.39	224.44
777.72	224.33
778.04	224.34
778.36	224.17
778.69	224.03
779.01	223.96
779.33	223.57
779.66	223.25
779.98	223.15
780.31	223.06
780.63	223.07
780.95	222.98
781.28	222.84
781.60	222.77
781.92	222.62
782.25	222.43
782.57	222.27
782.89	222.11
783.22	222.00
783.54	221.90
783.86	221.83
784.19	221.63
784.51	221.60
784.83	221.47
785.16	221.33
785.48	221.24
785.80	221.19
786.12	221.05
786.45	220.96
786.77	220.90
787.09	220.80
787.42	220.60
787.74	220.53
788.06	220.49
788.38	220.39
788.71	220.38
789.03	220.31
789.35	220.30
789.67	220.20
789.99	220.10
790.32	219.94
790.64	219.87
790.96	220.00
791.28	219.82
791.61	219.66
791.93	219.73
792.25	219.63
792.57	219.59
792.89	219.55
793.21	219.44
793.54	219.31
793.86	219.16
794.18	219.05
794.50	218.89
794.82	218.74
795.14	218.65
795.47	218.56
795.79	218.53
796.11	218.37
796.43	218.27
796.75	218.20
797.07	218.19
797.39	218.11
797.71	217.93
798.04	217.88
798.36	217.84
798.68	217.64
799.00	217.65
799.32	217.52
799.64	217.51
799.96	217.51
800.28	217.51
800.60	217.61
800.92	217.57
801.24	217.52
801.56	217.53
801.89	217.41
802.21	217.41
802.53	217.30
802.85	217.23
803.17	217.31
803.49	217.18
803.81	217.05
804.13	216.99
804.45	216.88
804.77	216.83
805.09	216.70
805.41	216.69
805.73	216.52
806.05	216.46
806.37	216.37
806.69	216.28
807.01	216.14
807.33	215.98
807.65	215.90
807.97	215.98
808.28	215.85
808.60	215.85
808.92	215.71
809.24	215.76
809.56	215.71
809.88	215.53
810.20	215.51
810.52	215.56
810.84	215.44
811.16	215.32
811.48	215.29
811.80	215.33
812.12	215.30
812.43	215.28
812.75	215.22
813.07	215.18
813.39	215.17
813.71	215.16
814.03	215.11
814.35	215.11
814.67	214.96
814.98	214.94
815.30	214.81
815.62	214.77
815.94	214.59
816.26	214.61
816.58	214.64
816.89	214.62
817.21	214.57
817.53	214.56
817.85	214.63
818.17	214.63
818.48	214.60
818.80	214.54
819.12	214.49
819.44	214.45
819.76	214.37
820.07	214.30
820.39	214.23
820.71	214.19
821.03	214.16
821.34	214.11
821.66	214.09
821.98	214.13
822.30	214.10
822.61	214.23
822.93	214.21
823.25	214.14
823.57	214.11
823.88	214.12
824.20	214.11
824.52	214.08
824.83	213.95
825.15	213.88
825.47	213.93
825.79	213.95
826.10	213.99
826.42	214.03
826.74	213.98
827.05	213.99
827.37	213.96
827.69	213.92
828.00	213.91
828.32	213.95
828.64	213.93
828.95	213.98
829.27	213.84
829.58	213.83
829.90	213.84
830.22	213.85
830.53	213.78
830.85	213.75
831.17	213.69
831.48	213.73
831.80	213.76
832.11	213.69
832.43	213.61
832.75	213.52
833.06	213.62
833.38	213.55
833.69	213.58
834.01	213.62
834.32	213.60
834.64	213.58
834.96	213.53
835.27	213.46
835.59	213.44
835.90	213.40
836.22	213.33
836.53	213.27
836.85	213.20
837.16	213.39
837.48	213.35
837.79	213.34
838.11	213.35
838.42	213.29
838.74	213.27
839.05	213.26
839.37	213.24
839.68	213.11
840.00	213.19
840.31	213.15
840.63	213.12
840.94	213.11
841.26	213.05
841.57	212.93
841.88	212.98
842.20	212.91
842.51	212.94
842.83	212.96
843.14	213.09
843.46	213.12
843.77	212.99
844.08	212.94
844.40	212.89
844.71	212.83
845.03	212.82
845.34	212.78
845.65	212.73
845.97	212.77
846.28	212.72
846.60	212.70
846.91	212.65
847.22	212.59
847.54	212.58
847.85	212.54
848.16	212.58
848.48	212.54
848.79	212.61
849.10	212.54
849.42	212.51
849.73	212.35
850.04	212.34
850.36	212.23
850.67	212.30
850.98	212.32
851.30	212.34
851.61	212.30
851.92	212.32
852.23	212.35
852.55	212.36
852.86	212.36
853.17	212.36
853.49	212.35
853.80	212.38
854.11	212.36
854.42	212.47
854.74	212.48
855.05	212.48
855.36	212.33
855.67	212.40
855.99	212.36
856.30	212.61
856.61	212.60
856.92	212.64
857.23	212.55
857.55	212.54
857.86	212.56
858.17	212.63
858.48	212.61
858.79	212.69
859.11	212.62
859.42	212.63
859.73	212.53
860.04	212.63
860.35	212.56
860.66	212.54
860.98	212.46
861.29	212.43
861.60	212.35
861.91	212.45
862.22	212.40
862.53	212.40
862.84	212.17
863.16	212.12
863.47	212.04
863.78	212.04
864.09	212.05
864.40	212.05
864.71	211.98
865.02	211.92
865.33	211.81
865.64	211.75
865.95	211.69
866.27	211.83
866.58	211.78
866.89	211.86
867.20	211.86
867.51	211.84
867.82	211.87
868.13	211.99
868.44	211.85
868.75	211.90
869.06	211.90
869.37	211.88
869.68	211.93
869.99	211.95
870.30	211.96
870.61	211.95
870.92	211.87
871.23	211.89
871.54	211.92
871.85	211.93
872.16	211.95
872.47	211.97
872.78	211.85
873.09	211.79
873.40	211.72
873.71	211.66
874.02	211.68
874.33	211.62
874.64	211.47
874.95	211.57
875.26	211.47
875.56	211.45
875.87	211.40
876.18	211.30
876.49	211.48
876.80	211.46
877.11	211.46
877.42	211.54
877.73	211.49
878.04	211.40
878.35	211.45
878.66	211.51
878.96	211.54
879.27	211.46
879.58	211.48
879.89	211.46
880.20	211.60
880.51	211.63
880.82	211.63
881.12	211.73
881.43	211.71
881.74	211.75
882.05	211.78
882.36	211.77
882.67	211.86
882.97	211.69
883.28	211.66
883.59	211.63
883.90	211.56
884.21	211.61
884.51	211.69
884.82	211.62
885.13	211.55
885.44	211.53
885.74	211.62
886.05	211.59
886.36	211.62
886.67	211.47
886.98	211.56
887.28	211.59
887.59	211.63
887.90	211.57
888.20	211.55
888.51	211.60
888.82	211.63
889.13	211.61
889.43	211.77
889.74	211.84
890.05	211.82
890.35	211.80
890.66	211.80
890.97	211.79
891.28	211.79
891.58	211.81
891.89	211.75
892.20	211.71
892.50	211.79
892.81	211.77
893.12	211.79
893.42	211.65
893.73	211.66
894.04	211.63
894.34	211.68
894.65	211.66
894.95	211.63
895.26	211.70
895.57	211.81
895.87	211.62
896.18	211.69
896.48	211.73
896.79	211.79
897.10	211.75
897.40	211.75
897.71	211.80
898.01	211.79
898.32	211.82
898.63	211.88
898.93	211.79
899.24	211.81
899.54	211.83
899.85	211.82
900.15	211.73
900.46	211.67
900.76	211.64
901.07	211.65
901.38	211.65
901.68	211.64
901.99	211.48
902.29	211.40
902.60	211.36
902.90	211.34
903.21	211.34
903.51	211.41
903.82	211.44
904.12	211.43
904.43	211.49
904.73	211.52
905.03	211.47
905.34	211.68
905.64	211.69
905.95	211.72
906.25	211.76
906.56	211.83
906.86	211.90
907.17	211.92
907.47	211.91
907.77	211.82
908.08	211.71
908.38	211.73
908.69	211.81
908.99	211.78
909.30	211.73
909.60	211.69
909.90	211.61
910.21	211.53
910.51	211.51
910.81	211.43
911.12	211.44
911.42	211.40
911.73	211.21
912.03	211.16
912.33	211.18
912.64	211.17
912.94	211.09
913.24	211.03
913.55	211.01
913.85	210.93
914.15	211.04
914.46	211.07
914.76	211.12
915.06	211.09
915.37	211.07
915.67	211.08
915.97	211.04
916.27	211.01
916.58	211.03
916.88	210.98
917.18	211.01
917.49	211.09
917.79	211.14
918.09	211.20
918.39	211.29
918.70	211.29
919.00	211.22
919.30	211.35
919.60	211.37
919.91	211.29
920.21	211.39
920.51	211.32
920.81	211.34
921.12	211.32
921.42	211.28
921.72	211.33
922.02	211.36
922.32	211.42
922.63	211.48
922.93	211.54
923.23	211.57
923.53	211.56
923.83	211.41
924.13	211.40
924.44	211.40
924.74	211.40
925.04	211.39
925.34	211.41
925.64	211.27
925.94	211.23
926.24	211.40
926.55	211.35
926.85	211.37
927.15	211.33
927.45	211.35
927.75	211.40
928.05	211.34
928.35	211.38
928.65	211.40
928.95	211.49
929.26	211.41
929.56	211.43
929.86	211.43
930.16	211.42
930.46	211.43
930.76	211.33
931.06	211.23
931.36	211.25
931.66	211.30
931.96	211.37
932.26	211.35
932.56	211.25
932.86	211.29
933.16	211.26
933.46	211.30
933.76	211.26
934.06	211.26
934.36	211.36
934.66	211.28
934.96	211.29
935.26	211.27
935.56	211.31
935.86	211.18
936.16	211.18
936.46	211.23
936.76	211.20
937.06	211.20
937.36	211.25
937.66	211.16
937.96	211.14
938.26	211.12
938.56	211.12
938.86	211.15
939.16	211.19
939.46	211.30
939.76	211.25
940.06	211.25
940.35	211.21
940.65	211.10
940.95	211.14
941.25	211.05
941.55	210.94
941.85	210.93
942.15	211.09
942.45	211.08
942.75	211.10
943.04	211.07
943.34	211.16
943.64	211.15
943.94	211.16
944.24	211.22
944.54	211.23
944.84	211.24
945.13	211.20
945.43	211.08
945.73	211.01
946.03	211.06
946.33	211.00
946.62	211.01
946.92	210.98
947.22	210.91
947.52	210.95
947.82	211.04
948.11	211.05
948.41	210.94
948.71	210.86
949.01	210.83
949.31	210.87
949.60	210.82
949.90	210.80
950.20	210.84
950.50	210.72
950.79	210.70
951.09	210.71
951.39	210.73
951.69	210.80
951.98	210.83
952.28	210.77
952.58	210.84
952.87	210.86
953.17	210.91
953.47	210.96
953.76	210.89
954.06	210.81
954.36	210.76
954.66	210.81
954.95	210.92
955.25	210.93
955.55	210.90
955.84	210.82
956.14	210.84
956.44	210.82
956.73	210.81
957.03	210.80
957.32	210.80
957.62	210.78
957.92	210.74
958.21	210.72
958.51	210.95
958.81	210.95
959.10	210.92
959.40	210.99
959.69	210.99
959.99	211.07
960.29	211.12
960.58	211.09
960.88	211.17
961.17	211.12
961.47	211.12
961.76	211.12
962.06	211.23
962.36	211.28
962.65	211.28
962.95	211.31
963.24	211.30
963.54	211.33
963.83	211.32
964.13	211.38
964.42	211.29
964.72	211.12
965.01	211.17
965.31	211.16
965.60	211.06
965.90	211.15
966.19	211.07
966.49	211.10
966.78	211.14
967.08	211.16
967.37	211.12
967.67	211.16
967.96	211.24
968.26	211.20
968.55	211.20
968.85	211.20
969.14	211.21
969.43	211.22
969.73	211.16
970.02	211.15
970.32	211.15
970.61	211.24
970.91	211.22
971.20	211.17
971.49	211.19
971.79	211.22
972.08	211.11
972.38	211.18
972.67	211.17
972.96	211.15
973.26	210.98
973.55	211.10
973.85	211.07
974.14	211.02
974.43	211.05
974.73	210.92
975.02	210.90
975.31	210.88
975.61	210.95
975.90	210.98
976.19	211.00
976.49	211.01
976.78	210.92
977.07	210.91
977.37	210.81
977.66	210.75
977.95	210.77
978.24	210.78
978.54	210.80
978.83	210.71
979.12	210.69
979.42	210.73
979.71	210.68
980.00	210.67
980.29	210.66
980.59	210.63
980.88	210.72
981.17	210.75
981.46	210.76
981.76	210.77
982.05	210.77
982.34	210.68
982.63	210.65
982.93	210.70
983.22	210.74
983.51	210.83
983.80	210.93
984.09	210.89
984.39	210.91
984.68	210.89
984.97	210.94
985.26	210.95
985.55	211.01
985.85	211.03
986.14	211.04
986.43	211.12
986.72	211.14
987.01	211.16
987.30	211.17
987.59	211.15
987.89	211.05
988.18	211.04
988.47	211.14
988.76	211.11
989.05	211.13
989.34	211.13
989.63	211.16
989.92	211.10
990.22	211.11
990.51	211.10
990.80	211.08
991.09	211.11
991.38	211.20
991.67	211.20
991.96	211.19
992.25	211.22
992.54	211.14
992.83	211.15
993.12	211.09
993.41	211.11
993.70	211.25
993.99	211.36
994.28	211.38
994.58	211.39
994.87	211.45
995.16	211.46
995.45	211.46
995.74	211.45
996.03	211.51
996.32	211.55
996.61	211.60
996.90	211.61
997.19	211.59
997.48	211.61
997.77	211.55
998.06	211.53
998.34	211.48
998.63	211.50
998.92	211.47
999.21	211.51
999.50	211.48
999.79	211.40
1000.08	211.30
1000.37	211.29
1000.66	211.32
1000.95	211.32
1001.24	211.35
1001.53	211.34
1001.82	211.33
1002.11	211.29
1002.40	211.28
1002.68	211.30
1002.97	211.38
1003.26	211.32
1003.55	211.21
1003.84	211.22
1004.13	211.30
1004.42	211.32
1004.71	211.34
1004.99	211.30
1005.28	211.40
1005.57	211.35
1005.86	211.27
1006.15	211.28
1006.44	211.25
1006.72	211.15
1007.01	211.09
1007.30	211.05
1007.59	211.05
1007.88	211.08
1008.17	211.07
1008.45	211.02
1008.74	210.94
1009.03	210.92
1009.32	210.95
1009.60	210.94
1009.89	210.93
1010.18	210.79
1010.47	210.79
1010.76	210.76
1011.04	210.78
1011.33	210.74
1011.62	210.78
1011.91	210.84
1012.19	210.87
1012.48	210.92
1012.77	210.93
1013.05	211.06
1013.34	211.06
1013.63	211.04
1013.92	210.99
1014.20	210.98
1014.49	210.99
1014.78	210.97
1015.06	210.86
1015.35	210.87
1015.64	211.01
1015.92	211.09
1016.21	211.18
1016.50	211.17
1016.78	211.19
1017.07	211.12
1017.36	211.07
1017.64	211.07
1017.93	211.10
1018.22	211.10
1018.50	211.05
1018.79	211.05
1019.08	210.87
1019.36	210.79
1019.65	210.81
1019.93	210.88
1020.22	210.89
1020.51	210.99
1020.79	211.00
1021.08	210.75
1021.36	210.00
1021.65	210.15
1021.94	209.55
1022.22	209.60
1022.51	211.70
1022.79	212.15
1023.08	211.00
1023.36	212.65
1023.65	210.65
>>>>>End Processed Spectral Data<<<<<
