SpectraSuite Data File
++++++++++++++++++++++++++++++++++++
Date: Mon Feb 25 17:32:20 EST 2013
User: group
Dark Spectrum Present: No
Reference Spectrum Present: No
Number of Sampled Component Spectra: 1
Spectrometers: USB2E7196
Integration Time (usec): 52000 (USB2E7196)
Spectra Averaged: 20 (USB2E7196)
Boxcar Smoothing: 10 (USB2E7196)
Correct for Electrical Dark: No (USB2E7196)
Strobe/Lamp Enabled: No (USB2E7196)
Correct for Detector Non-linearity: No (USB2E7196)
Correct for Stray Light: No (USB2E7196)
Number of Pixels in Processed Spectrum: 2048
>>>>>Begin Processed Spectral Data<<<<<
339.09	0.00
339.48	197.55
339.86	201.30
340.24	200.90
340.63	204.35
341.01	207.45
341.39	206.30
341.78	208.05
342.16	209.20
342.54	208.80
342.93	198.54
343.31	208.55
343.69	209.10
344.07	209.55
344.46	209.99
344.84	210.33
345.22	210.58
345.60	210.80
345.99	211.00
346.37	211.15
346.75	211.34
347.13	211.45
347.52	211.55
347.90	211.72
348.28	211.72
348.66	211.85
349.05	211.74
349.43	211.85
349.81	211.85
350.19	211.80
350.57	211.86
350.96	211.94
351.34	212.06
351.72	212.25
352.10	212.33
352.48	212.44
352.87	212.48
353.25	212.50
353.63	212.62
354.01	212.59
354.39	212.60
354.77	212.62
355.15	212.73
355.54	212.70
355.92	212.70
356.30	212.75
356.68	212.85
357.06	212.95
357.44	213.00
357.82	213.09
358.20	213.23
358.58	213.19
358.97	213.33
359.35	213.39
359.73	213.44
360.11	213.41
360.49	213.44
360.87	213.47
361.25	213.48
361.63	213.57
362.01	213.68
362.39	213.69
362.77	213.69
363.15	213.72
363.53	213.79
363.91	213.83
364.29	213.84
364.67	213.77
365.05	213.80
365.43	213.76
365.81	213.77
366.19	213.78
366.57	213.93
366.95	213.93
367.33	213.86
367.71	213.86
368.09	213.98
368.47	213.99
368.85	214.00
369.23	214.05
369.61	213.88
369.99	213.92
370.37	213.98
370.75	214.09
371.13	213.97
371.51	213.92
371.89	213.86
372.27	213.91
372.65	213.81
373.03	213.81
373.41	213.80
373.78	213.71
374.16	213.60
374.54	213.49
374.92	213.32
375.30	213.30
375.68	213.20
376.06	213.19
376.44	213.17
376.82	213.12
377.19	213.09
377.57	213.10
377.95	212.98
378.33	212.95
378.71	212.82
379.09	212.80
379.47	212.84
379.84	212.77
380.22	212.65
380.60	212.61
380.98	212.47
381.36	212.43
381.73	212.43
382.11	212.45
382.49	212.43
382.87	212.43
383.25	212.42
383.62	212.59
384.00	212.48
384.38	212.37
384.76	212.38
385.13	212.35
385.51	212.25
385.89	212.22
386.27	212.20
386.64	212.18
387.02	212.16
387.40	212.14
387.78	212.17
388.15	212.11
388.53	212.06
388.91	212.10
389.29	211.98
389.66	212.01
390.04	211.97
390.42	211.92
390.79	211.86
391.17	211.82
391.55	211.64
391.92	211.63
392.30	211.69
392.68	211.70
393.05	211.70
393.43	211.71
393.81	211.69
394.18	211.56
394.56	211.58
394.94	211.62
395.31	211.53
395.69	211.59
396.06	211.70
396.44	211.72
396.82	211.73
397.19	211.90
397.57	211.94
397.95	212.01
398.32	212.00
398.70	212.05
399.07	212.10
399.45	212.13
399.82	212.10
400.20	212.07
400.58	212.03
400.95	212.00
401.33	212.15
401.70	212.30
402.08	212.42
402.45	212.48
402.83	212.53
403.20	212.62
403.58	212.65
403.95	212.70
404.33	212.81
404.71	212.92
405.08	213.07
405.46	213.11
405.83	213.15
406.21	213.28
406.58	213.47
406.96	213.70
407.33	213.85
407.70	214.09
408.08	214.44
408.45	214.70
408.83	215.02
409.20	215.18
409.58	215.30
409.95	215.58
410.33	215.83
410.70	216.11
411.08	216.51
411.45	216.83
411.82	217.16
412.20	217.61
412.57	218.11
412.95	218.47
413.32	218.95
413.69	219.49
414.07	220.11
414.44	220.77
414.82	221.36
415.19	222.11
415.56	222.85
415.94	223.56
416.31	224.47
416.68	225.25
417.06	226.28
417.43	227.27
417.81	228.35
418.18	229.47
418.55	230.64
418.93	231.88
419.30	233.20
419.67	234.60
420.04	236.05
420.42	237.47
420.79	239.22
421.16	240.96
421.54	242.80
421.91	244.58
422.28	246.42
422.66	248.44
423.03	250.44
423.40	252.51
423.77	254.75
424.15	256.95
424.52	259.34
424.89	261.88
425.26	264.29
425.64	266.61
426.01	269.13
426.38	271.77
426.75	274.51
427.13	277.29
427.50	280.22
427.87	283.16
428.24	286.29
428.61	289.17
428.99	292.42
429.36	295.80
429.73	299.34
430.10	302.75
430.47	306.34
430.85	310.05
431.22	313.96
431.59	318.04
431.96	321.94
432.33	326.34
432.70	330.43
433.08	335.33
433.45	339.97
433.82	344.61
434.19	349.79
434.56	354.58
434.93	359.36
435.30	364.11
435.68	369.30
436.05	374.39
436.42	379.48
436.79	384.21
437.16	389.26
437.53	394.45
437.90	399.68
438.27	404.81
438.64	410.12
439.01	415.08
439.38	419.45
439.75	423.65
440.13	428.37
440.50	433.02
440.87	436.88
441.24	440.69
441.61	444.90
441.98	447.91
442.35	451.59
442.72	455.25
443.09	458.71
443.46	460.92
443.83	462.46
444.20	463.74
444.57	465.50
444.94	466.27
445.31	467.23
445.68	468.11
446.05	468.28
446.42	467.52
446.79	466.73
447.16	465.86
447.53	465.32
447.90	463.15
448.27	461.04
448.64	457.98
449.01	455.85
449.37	452.25
449.74	448.72
450.11	444.70
450.48	440.24
450.85	435.75
451.22	431.77
451.59	427.88
451.96	424.25
452.33	419.38
452.70	415.07
453.07	409.84
453.43	404.57
453.80	399.55
454.17	394.89
454.54	390.38
454.91	385.61
455.28	380.86
455.65	376.58
456.02	372.30
456.38	368.62
456.75	364.03
457.12	360.25
457.49	356.56
457.86	352.86
458.23	349.63
458.59	346.05
458.96	342.65
459.33	339.53
459.70	336.42
460.07	333.95
460.43	331.16
460.80	328.49
461.17	326.17
461.54	323.66
461.91	321.34
462.27	318.96
462.64	316.94
463.01	314.83
463.38	312.69
463.74	310.37
464.11	308.56
464.48	306.91
464.85	305.07
465.21	303.67
465.58	302.15
465.95	300.49
466.32	299.11
466.68	297.63
467.05	296.25
467.42	294.85
467.78	293.37
468.15	291.98
468.52	291.01
468.88	289.58
469.25	288.52
469.62	287.56
469.98	286.51
470.35	285.62
470.72	284.60
471.08	283.65
471.45	282.93
471.82	282.16
472.18	281.34
472.55	280.79
472.92	280.07
473.28	279.48
473.65	278.88
474.02	278.32
474.38	277.78
474.75	277.44
475.11	277.05
475.48	276.85
475.85	276.68
476.21	276.47
476.58	276.44
476.94	276.45
477.31	276.38
477.67	276.35
478.04	276.32
478.41	276.52
478.77	276.85
479.14	276.90
479.50	277.13
479.87	277.45
480.23	277.84
480.60	278.19
480.96	278.65
481.33	279.29
481.69	279.88
482.06	280.50
482.42	281.07
482.79	281.87
483.15	282.72
483.52	283.77
483.88	284.71
484.25	285.67
484.61	286.73
484.98	287.79
485.34	289.10
485.71	290.49
486.07	291.82
486.44	293.11
486.80	294.70
487.17	296.26
487.53	298.00
487.90	299.78
488.26	301.70
488.62	303.73
488.99	305.69
489.35	307.94
489.72	310.31
490.08	312.80
490.44	315.29
490.81	317.93
491.17	320.53
491.54	323.44
491.90	326.44
492.26	329.50
492.63	332.85
492.99	336.27
493.36	339.79
493.72	343.67
494.08	347.63
494.45	352.01
494.81	356.50
495.17	361.09
495.54	365.88
495.90	371.01
496.26	376.19
496.63	381.75
496.99	387.38
497.35	393.41
497.72	399.61
498.08	406.06
498.44	412.69
498.80	419.84
499.17	427.17
499.53	434.74
499.89	442.76
500.26	451.05
500.62	459.41
500.98	468.37
501.34	477.45
501.71	486.89
502.07	496.33
502.43	506.26
502.79	516.55
503.16	527.13
503.52	537.93
503.88	549.28
504.24	560.72
504.60	572.65
504.97	584.96
505.33	597.58
505.69	610.83
506.05	624.29
506.41	637.85
506.78	651.68
507.14	665.93
507.50	680.36
507.86	695.15
508.22	710.58
508.59	725.89
508.95	741.88
509.31	758.13
509.67	774.95
510.03	791.89
510.39	809.37
510.75	827.19
511.12	845.25
511.48	863.26
511.84	881.99
512.20	900.64
512.56	919.91
512.92	939.43
513.28	958.67
513.64	978.17
514.00	998.14
514.37	1018.29
514.73	1038.80
515.09	1059.66
515.45	1080.63
515.81	1101.58
516.17	1122.95
516.53	1144.07
516.89	1165.56
517.25	1186.83
517.61	1208.65
517.97	1229.84
518.33	1251.43
518.69	1272.92
519.05	1295.35
519.41	1317.35
519.77	1339.85
520.13	1361.65
520.49	1383.50
520.85	1406.05
521.21	1428.73
521.57	1451.47
521.93	1473.51
522.29	1496.35
522.65	1519.00
523.01	1541.43
523.37	1563.39
523.73	1585.66
524.09	1607.89
524.45	1630.20
524.81	1652.62
525.17	1674.76
525.53	1697.19
525.89	1719.42
526.25	1741.52
526.61	1762.48
526.97	1783.96
527.33	1804.85
527.68	1826.28
528.04	1847.77
528.40	1868.07
528.76	1888.79
529.12	1909.34
529.48	1931.05
529.84	1951.26
530.20	1971.33
530.56	1991.78
530.91	2012.53
531.27	2032.97
531.63	2052.99
531.99	2072.80
532.35	2091.95
532.71	2110.56
533.07	2129.88
533.42	2148.47
533.78	2167.30
534.14	2185.88
534.50	2203.10
534.86	2221.33
535.21	2237.99
535.57	2255.16
535.93	2272.70
536.29	2289.39
536.65	2305.92
537.00	2321.15
537.36	2336.49
537.72	2351.61
538.08	2366.48
538.44	2381.40
538.79	2396.36
539.15	2410.94
539.51	2425.23
539.87	2440.20
540.22	2454.86
540.58	2469.79
540.94	2483.94
541.29	2496.74
541.65	2508.68
542.01	2521.81
542.37	2533.39
542.72	2546.30
543.08	2557.34
543.44	2568.82
543.79	2579.14
544.15	2589.15
544.51	2600.29
544.87	2610.90
545.22	2619.81
545.58	2628.30
545.94	2635.70
546.29	2642.02
546.65	2648.32
547.01	2654.35
547.36	2660.05
547.72	2665.40
548.07	2669.13
548.43	2672.60
548.79	2676.36
549.14	2681.20
549.50	2685.46
549.86	2689.50
550.21	2692.94
550.57	2696.95
550.92	2699.52
551.28	2701.91
551.64	2704.36
551.99	2706.07
552.35	2707.87
552.70	2710.65
553.06	2713.24
553.41	2716.29
553.77	2719.03
554.13	2721.25
554.48	2723.39
554.84	2724.74
555.19	2725.45
555.55	2725.83
555.90	2726.30
556.26	2726.58
556.61	2726.28
556.97	2725.06
557.32	2724.65
557.68	2722.88
558.03	2721.32
558.39	2719.93
558.74	2719.72
559.10	2718.80
559.45	2717.09
559.81	2715.94
560.16	2713.44
560.52	2710.74
560.87	2707.52
561.23	2704.12
561.58	2701.72
561.94	2698.55
562.29	2694.43
562.64	2692.19
563.00	2689.78
563.35	2687.52
563.71	2686.03
564.06	2683.79
564.42	2681.94
564.77	2679.50
565.12	2677.58
565.48	2674.58
565.83	2671.55
566.19	2667.77
566.54	2663.13
566.89	2659.22
567.25	2655.36
567.60	2652.00
567.96	2648.59
568.31	2645.18
568.66	2641.40
569.02	2636.76
569.37	2631.75
569.72	2628.07
570.08	2622.47
570.43	2616.99
570.78	2611.78
571.14	2605.26
571.49	2598.70
571.84	2592.85
572.20	2585.71
572.55	2578.99
572.90	2572.18
573.26	2565.04
573.61	2558.23
573.96	2551.89
574.31	2544.27
574.67	2535.89
575.02	2527.62
575.37	2518.88
575.72	2509.64
576.08	2501.91
576.43	2493.42
576.78	2485.36
577.13	2477.64
577.49	2469.73
577.84	2462.18
578.19	2454.15
578.54	2446.92
578.90	2440.24
579.25	2431.21
579.60	2422.47
579.95	2413.20
580.30	2405.10
580.66	2396.95
581.01	2387.83
581.36	2378.47
581.71	2370.37
582.06	2362.34
582.42	2354.29
582.77	2345.21
583.12	2336.62
583.47	2327.83
583.82	2319.48
584.17	2310.24
584.53	2301.18
584.88	2292.42
585.23	2283.34
585.58	2273.96
585.93	2264.01
586.28	2254.62
586.63	2246.19
586.98	2237.66
587.34	2229.29
587.69	2220.30
588.04	2211.36
588.39	2203.22
588.74	2194.43
589.09	2185.73
589.44	2175.76
589.79	2166.99
590.14	2159.43
590.49	2151.31
590.84	2142.21
591.19	2133.96
591.54	2125.42
591.89	2115.36
592.25	2106.10
592.60	2096.23
592.95	2086.92
593.30	2077.87
593.65	2068.10
594.00	2058.36
594.35	2050.25
594.70	2041.05
595.05	2032.23
595.40	2023.48
595.75	2013.74
596.10	2005.53
596.45	1996.67
596.80	1989.04
597.15	1980.79
597.50	1971.52
597.85	1962.95
598.19	1954.51
598.54	1945.97
598.89	1938.30
599.24	1931.68
599.59	1924.41
599.94	1917.68
600.29	1909.89
600.64	1901.75
600.99	1893.65
601.34	1886.44
601.69	1877.83
602.04	1870.13
602.39	1862.21
602.74	1854.61
603.08	1848.56
603.43	1841.56
603.78	1833.63
604.13	1825.87
604.48	1817.91
604.83	1811.27
605.18	1804.33
605.53	1796.83
605.87	1789.20
606.22	1782.02
606.57	1774.11
606.92	1765.90
607.27	1757.65
607.62	1750.62
607.96	1744.00
608.31	1737.72
608.66	1729.85
609.01	1722.25
609.36	1714.32
609.70	1706.49
610.05	1698.70
610.40	1689.90
610.75	1681.45
611.10	1674.15
611.44	1664.87
611.79	1655.90
612.14	1646.43
612.49	1637.05
612.83	1628.37
613.18	1618.77
613.53	1609.26
613.88	1599.43
614.22	1590.62
614.57	1581.48
614.92	1572.05
615.27	1562.80
615.61	1552.86
615.96	1543.85
616.31	1535.34
616.65	1527.54
617.00	1519.18
617.35	1510.57
617.70	1501.92
618.04	1492.69
618.39	1483.32
618.74	1475.10
619.08	1466.59
619.43	1458.29
619.78	1450.43
620.12	1442.51
620.47	1435.06
620.82	1426.48
621.16	1418.47
621.51	1410.41
621.85	1402.54
622.20	1394.27
622.55	1385.67
622.89	1377.46
623.24	1369.80
623.59	1361.26
623.93	1352.87
624.28	1344.33
624.62	1336.19
624.97	1328.05
625.32	1320.61
625.66	1313.20
626.01	1305.89
626.35	1298.68
626.70	1291.37
627.04	1283.80
627.39	1275.89
627.73	1268.21
628.08	1261.61
628.43	1254.09
628.77	1246.64
629.12	1238.91
629.46	1232.26
629.81	1225.28
630.15	1218.30
630.50	1210.79
630.84	1203.68
631.19	1196.64
631.53	1190.24
631.88	1182.48
632.22	1174.97
632.57	1167.79
632.91	1160.24
633.26	1152.86
633.60	1145.75
633.95	1138.97
634.29	1131.66
634.64	1125.43
634.98	1118.46
635.32	1111.35
635.67	1105.18
636.01	1098.56
636.36	1091.85
636.70	1085.07
637.05	1078.60
637.39	1072.42
637.73	1066.23
638.08	1060.37
638.42	1054.27
638.77	1047.63
639.11	1041.53
639.45	1035.69
639.80	1029.29
640.14	1023.04
640.49	1016.78
640.83	1010.44
641.17	1003.98
641.52	997.98
641.86	991.35
642.20	985.19
642.55	978.54
642.89	972.07
643.23	965.71
643.58	960.10
643.92	953.70
644.26	947.47
644.61	941.17
644.95	935.08
645.29	928.83
645.64	922.53
645.98	916.39
646.32	910.64
646.66	904.38
647.01	898.38
647.35	892.50
647.69	886.54
648.04	880.59
648.38	874.47
648.72	868.48
649.06	862.34
649.41	856.40
649.75	850.53
650.09	844.57
650.43	838.66
650.78	832.16
651.12	826.21
651.46	820.34
651.80	814.37
652.14	808.54
652.49	802.46
652.83	796.40
653.17	790.35
653.51	784.31
653.85	778.53
654.20	772.72
654.54	767.02
654.88	761.57
655.22	755.86
655.56	750.13
655.90	744.28
656.25	738.65
656.59	733.17
656.93	728.15
657.27	723.05
657.61	717.55
657.95	712.62
658.29	707.49
658.64	702.33
658.98	697.15
659.32	691.86
659.66	686.86
660.00	681.55
660.34	676.35
660.68	671.22
661.02	666.35
661.36	661.84
661.70	657.08
662.05	652.30
662.39	647.99
662.73	643.75
663.07	639.40
663.41	635.06
663.75	630.48
664.09	625.69
664.43	620.95
664.77	616.74
665.11	612.31
665.45	607.88
665.79	603.50
666.13	599.18
666.47	594.88
666.81	590.75
667.15	586.79
667.49	583.07
667.83	579.23
668.17	575.38
668.51	571.51
668.85	567.86
669.19	564.22
669.53	560.28
669.87	556.19
670.21	552.45
670.55	548.65
670.89	545.16
671.23	541.86
671.57	538.47
671.91	534.92
672.25	531.40
672.58	527.96
672.92	524.56
673.26	521.55
673.60	518.26
673.94	514.85
674.28	511.76
674.62	508.52
674.96	505.44
675.30	502.24
675.64	498.97
675.97	495.74
676.31	492.54
676.65	489.62
676.99	487.05
677.33	484.04
677.67	481.08
678.01	478.02
678.34	475.10
678.68	472.18
679.02	469.21
679.36	466.38
679.70	463.65
680.04	460.80
680.37	457.91
680.71	455.18
681.05	452.56
681.39	449.89
681.73	447.25
682.06	444.72
682.40	442.21
682.74	439.51
683.08	436.98
683.42	434.42
683.75	431.80
684.09	429.16
684.43	426.74
684.77	424.21
685.10	421.74
685.44	419.23
685.78	416.77
686.12	414.48
686.45	412.21
686.79	409.85
687.13	407.66
687.46	405.31
687.80	403.17
688.14	400.87
688.48	398.55
688.81	396.25
689.15	394.04
689.49	391.79
689.82	389.67
690.16	387.39
690.50	385.16
690.83	382.85
691.17	380.47
691.51	378.32
691.84	376.25
692.18	374.21
692.52	372.20
692.85	370.37
693.19	368.56
693.52	366.56
693.86	364.55
694.20	362.68
694.53	360.79
694.87	358.75
695.21	356.85
695.54	355.03
695.88	353.13
696.21	351.29
696.55	349.50
696.88	347.86
697.22	346.05
697.56	344.47
697.89	342.91
698.23	341.51
698.56	339.90
698.90	338.36
699.23	336.80
699.57	335.21
699.90	333.47
700.24	331.69
700.58	330.11
700.91	328.60
701.25	327.11
701.58	325.62
701.92	324.29
702.25	322.90
702.59	321.44
702.92	320.23
703.26	318.90
703.59	317.58
703.93	316.42
704.26	315.23
704.60	313.82
704.93	312.54
705.26	311.15
705.60	309.93
705.93	308.66
706.27	307.47
706.60	306.40
706.94	305.39
707.27	304.20
707.61	303.12
707.94	301.99
708.27	300.75
708.61	299.65
708.94	298.45
709.28	297.26
709.61	296.15
709.94	295.03
710.28	293.90
710.61	292.99
710.95	291.71
711.28	290.70
711.61	289.75
711.95	288.78
712.28	287.81
712.61	286.85
712.95	285.89
713.28	284.90
713.61	283.89
713.95	282.88
714.28	282.08
714.61	281.07
714.95	280.18
715.28	279.33
715.61	278.33
715.95	277.47
716.28	276.70
716.61	275.93
716.95	275.07
717.28	274.20
717.61	273.25
717.94	272.48
718.28	271.60
718.61	270.81
718.94	270.01
719.27	269.26
719.61	268.47
719.94	267.85
720.27	267.12
720.60	266.38
720.94	265.67
721.27	264.93
721.60	264.35
721.93	263.70
722.27	263.20
722.60	262.67
722.93	262.11
723.26	261.54
723.59	260.92
723.93	260.40
724.26	259.97
724.59	259.45
724.92	258.87
725.25	258.40
725.59	257.88
725.92	257.33
726.25	256.85
726.58	256.35
726.91	255.78
727.24	255.29
727.57	254.80
727.91	254.34
728.24	253.91
728.57	253.42
728.90	253.00
729.23	252.40
729.56	252.06
729.89	251.56
730.22	251.15
730.55	250.70
730.89	250.10
731.22	249.60
731.55	249.13
731.88	248.72
732.21	248.20
732.54	247.82
732.87	247.37
733.20	246.88
733.53	246.46
733.86	246.10
734.19	245.70
734.52	245.28
734.85	244.97
735.18	244.46
735.51	244.06
735.84	243.69
736.17	243.38
736.50	242.94
736.83	242.77
737.16	242.34
737.49	241.94
737.82	241.60
738.15	241.25
738.48	240.91
738.81	240.57
739.14	240.28
739.47	239.79
739.80	239.52
740.13	239.24
740.46	238.86
740.79	238.35
741.12	237.98
741.45	237.78
741.78	237.46
742.11	237.20
742.44	236.86
742.77	236.63
743.10	236.33
743.43	235.96
743.75	235.48
744.08	235.43
744.41	235.16
744.74	234.92
745.07	234.60
745.40	234.39
745.73	234.22
746.06	233.82
746.39	233.69
746.71	233.35
747.04	233.06
747.37	232.82
747.70	232.73
748.03	232.52
748.36	232.19
748.68	231.86
749.01	231.62
749.34	231.43
749.67	231.14
750.00	230.86
750.33	230.76
750.65	230.58
750.98	230.12
751.31	229.86
751.64	229.63
751.97	229.55
752.29	229.27
752.62	228.99
752.95	228.83
753.28	228.60
753.60	228.40
753.93	228.18
754.26	228.03
754.59	227.68
754.91	227.40
755.24	227.18
755.57	226.95
755.90	226.72
756.22	226.55
756.55	226.35
756.88	226.18
757.20	225.86
757.53	225.53
757.86	225.40
758.19	225.27
758.51	225.07
758.84	224.69
759.17	224.45
759.49	224.29
759.82	224.13
760.15	223.88
760.47	223.70
760.80	223.57
761.13	223.35
761.45	223.25
761.78	223.10
762.11	222.96
762.43	222.77
762.76	222.70
763.08	222.53
763.41	222.43
763.74	222.26
764.06	222.14
764.39	222.09
764.71	221.81
765.04	221.64
765.37	221.61
765.69	221.57
766.02	221.50
766.34	221.32
766.67	221.22
767.00	221.18
767.32	221.15
767.65	221.11
767.97	221.02
768.30	220.92
768.62	220.80
768.95	220.76
769.27	220.73
769.60	220.64
769.92	220.51
770.25	220.36
770.57	220.24
770.90	220.13
771.22	219.94
771.55	219.83
771.87	219.76
772.20	219.61
772.52	219.60
772.85	219.74
773.17	219.64
773.50	219.61
773.82	219.45
774.15	219.27
774.47	219.07
774.80	218.96
775.12	218.89
775.45	218.88
775.77	218.69
776.09	218.63
776.42	218.53
776.74	218.53
777.07	218.43
777.39	218.36
777.72	218.25
778.04	218.22
778.36	218.23
778.69	218.12
779.01	218.10
779.33	217.89
779.66	217.65
779.98	217.60
780.31	217.45
780.63	217.51
780.95	217.52
781.28	217.50
781.60	217.42
781.92	217.33
782.25	217.27
782.57	217.25
782.89	217.12
783.22	217.03
783.54	216.97
783.86	216.92
784.19	216.86
784.51	216.84
784.83	216.77
785.16	216.70
785.48	216.66
785.80	216.58
786.12	216.57
786.45	216.51
786.77	216.43
787.09	216.35
787.42	216.19
787.74	216.13
788.06	216.07
788.38	216.02
788.71	215.97
789.03	215.86
789.35	215.82
789.67	215.79
789.99	215.82
790.32	215.69
790.64	215.66
790.96	215.75
791.28	215.67
791.61	215.60
791.93	215.58
792.25	215.52
792.57	215.63
792.89	215.59
793.21	215.51
793.54	215.48
793.86	215.45
794.18	215.45
794.50	215.35
794.82	215.29
795.14	215.31
795.47	215.26
795.79	215.26
796.11	215.17
796.43	215.10
796.75	214.97
797.07	214.99
797.39	214.94
797.71	214.78
798.04	214.72
798.36	214.71
798.68	214.68
799.00	214.67
799.32	214.51
799.64	214.44
799.96	214.43
800.28	214.45
800.60	214.44
800.92	214.46
801.24	214.39
801.56	214.36
801.89	214.28
802.21	214.32
802.53	214.34
802.85	214.36
803.17	214.38
803.49	214.33
803.81	214.29
804.13	214.29
804.45	214.22
804.77	214.27
805.09	214.26
805.41	214.18
805.73	214.17
806.05	214.06
806.37	214.05
806.69	214.05
807.01	213.99
807.33	213.98
807.65	213.87
807.97	214.00
808.28	213.98
808.60	213.96
808.92	213.88
809.24	213.88
809.56	213.84
809.88	213.90
810.20	213.89
810.52	213.85
810.84	213.70
811.16	213.68
811.48	213.62
811.80	213.68
812.12	213.68
812.43	213.70
812.75	213.70
813.07	213.65
813.39	213.61
813.71	213.53
814.03	213.48
814.35	213.47
814.67	213.40
814.98	213.35
815.30	213.40
815.62	213.38
815.94	213.21
816.26	213.26
816.58	213.18
816.89	213.17
817.21	213.11
817.53	213.20
817.85	213.20
818.17	213.19
818.48	213.08
818.80	213.13
819.12	213.07
819.44	213.10
819.76	213.07
820.07	213.05
820.39	213.07
820.71	213.04
821.03	212.97
821.34	212.95
821.66	213.00
821.98	212.95
822.30	212.86
822.61	213.02
822.93	212.87
823.25	212.78
823.57	212.76
823.88	212.85
824.20	212.76
824.52	212.78
824.83	212.77
825.15	212.74
825.47	212.65
825.79	212.55
826.10	212.42
826.42	212.45
826.74	212.40
827.05	212.44
827.37	212.47
827.69	212.43
828.00	212.40
828.32	212.36
828.64	212.29
828.95	212.42
829.27	212.35
829.58	212.34
829.90	212.27
830.22	212.23
830.53	212.14
830.85	212.15
831.17	212.11
831.48	212.09
831.80	212.06
832.11	212.01
832.43	212.02
832.75	212.08
833.06	212.15
833.38	212.09
833.69	211.95
834.01	211.95
834.32	211.96
834.64	211.87
834.96	211.81
835.27	211.80
835.59	211.70
835.90	211.59
836.22	211.59
836.53	211.62
836.85	211.60
837.16	211.75
837.48	211.74
837.79	211.74
838.11	211.74
838.42	211.69
838.74	211.74
839.05	211.75
839.37	211.71
839.68	211.54
840.00	211.55
840.31	211.60
840.63	211.53
840.94	211.52
841.26	211.54
841.57	211.58
841.88	211.62
842.20	211.55
842.51	211.52
842.83	211.45
843.14	211.62
843.46	211.59
843.77	211.50
844.08	211.48
844.40	211.42
844.71	211.39
845.03	211.44
845.34	211.40
845.65	211.41
845.97	211.42
846.28	211.47
846.60	211.49
846.91	211.45
847.22	211.42
847.54	211.44
847.85	211.41
848.16	211.34
848.48	211.21
848.79	211.39
849.10	211.42
849.42	211.46
849.73	211.33
850.04	211.36
850.36	211.30
850.67	211.26
850.98	211.24
851.30	211.26
851.61	211.25
851.92	211.27
852.23	211.27
852.55	211.30
852.86	211.32
853.17	211.32
853.49	211.38
853.80	211.44
854.11	211.42
854.42	211.45
854.74	211.44
855.05	211.47
855.36	211.36
855.67	211.43
855.99	211.47
856.30	211.59
856.61	211.61
856.92	211.59
857.23	211.63
857.55	211.65
857.86	211.64
858.17	211.69
858.48	211.68
858.79	211.59
859.11	211.55
859.42	211.49
859.73	211.44
860.04	211.40
860.35	211.40
860.66	211.42
860.98	211.44
861.29	211.48
861.60	211.42
861.91	211.45
862.22	211.36
862.53	211.32
862.84	211.07
863.16	211.16
863.47	211.19
863.78	211.13
864.09	211.19
864.40	211.22
864.71	211.19
865.02	211.19
865.33	211.25
865.64	211.32
865.95	211.32
866.27	211.43
866.58	211.44
866.89	211.47
867.20	211.47
867.51	211.47
867.82	211.47
868.13	211.62
868.44	211.63
868.75	211.64
869.06	211.66
869.37	211.75
869.68	211.58
869.99	211.59
870.30	211.61
870.61	211.57
870.92	211.51
871.23	211.50
871.54	211.50
871.85	211.54
872.16	211.47
872.47	211.45
872.78	211.37
873.09	211.41
873.40	211.32
873.71	211.30
874.02	211.30
874.33	211.29
874.64	211.23
874.95	211.20
875.26	211.22
875.56	211.26
875.87	211.27
876.18	211.33
876.49	211.52
876.80	211.49
877.11	211.54
877.42	211.53
877.73	211.56
878.04	211.57
878.35	211.62
878.66	211.58
878.96	211.62
879.27	211.63
879.58	211.61
879.89	211.67
880.20	211.72
880.51	211.73
880.82	211.75
881.12	211.81
881.43	211.79
881.74	211.76
882.05	211.73
882.36	211.75
882.67	211.76
882.97	211.59
883.28	211.68
883.59	211.63
883.90	211.70
884.21	211.66
884.51	211.74
884.82	211.75
885.13	211.82
885.44	211.82
885.74	211.77
886.05	211.79
886.36	211.79
886.67	211.80
886.98	211.86
887.28	211.88
887.59	211.86
887.90	211.90
888.20	211.86
888.51	211.90
888.82	211.85
889.13	211.83
889.43	211.98
889.74	211.95
890.05	211.98
890.35	211.94
890.66	211.94
890.97	211.89
891.28	211.80
891.58	211.84
891.89	211.77
892.20	211.77
892.50	211.72
892.81	211.71
893.12	211.60
893.42	211.56
893.73	211.58
894.04	211.53
894.34	211.54
894.65	211.56
894.95	211.54
895.26	211.53
895.57	211.60
895.87	211.33
896.18	211.35
896.48	211.36
896.79	211.33
897.10	211.25
897.40	211.21
897.71	211.20
898.01	211.14
898.32	211.19
898.63	211.18
898.93	211.21
899.24	211.17
899.54	211.20
899.85	211.12
900.15	211.08
900.46	211.09
900.76	211.05
901.07	211.03
901.38	211.01
901.68	211.05
901.99	210.93
902.29	211.00
902.60	210.94
902.90	210.91
903.21	210.85
903.51	210.86
903.82	210.84
904.12	210.87
904.43	210.87
904.73	210.85
905.03	210.85
905.34	210.93
905.64	210.90
905.95	210.92
906.25	210.94
906.56	210.93
906.86	210.91
907.17	210.89
907.47	210.90
907.77	210.93
908.08	210.94
908.38	210.99
908.69	210.96
908.99	211.03
909.30	211.02
909.60	211.13
909.90	211.20
910.21	211.15
910.51	211.13
910.81	211.15
911.12	211.21
911.42	211.18
911.73	211.05
912.03	211.08
912.33	211.10
912.64	211.07
912.94	211.04
913.24	211.04
913.55	211.10
913.85	211.11
914.15	211.17
914.46	211.20
914.76	211.19
915.06	211.26
915.37	211.21
915.67	211.19
915.97	211.15
916.27	211.12
916.58	211.24
916.88	211.23
917.18	211.19
917.49	211.29
917.79	211.35
918.09	211.36
918.39	211.39
918.70	211.35
919.00	211.43
919.30	211.55
919.60	211.55
919.91	211.48
920.21	211.49
920.51	211.40
920.81	211.42
921.12	211.40
921.42	211.37
921.72	211.44
922.02	211.43
922.32	211.49
922.63	211.54
922.93	211.57
923.23	211.61
923.53	211.54
923.83	211.40
924.13	211.46
924.44	211.44
924.74	211.49
925.04	211.51
925.34	211.51
925.64	211.43
925.94	211.46
926.24	211.57
926.55	211.53
926.85	211.55
927.15	211.47
927.45	211.51
927.75	211.46
928.05	211.48
928.35	211.52
928.65	211.56
928.95	211.53
929.26	211.47
929.56	211.47
929.86	211.55
930.16	211.54
930.46	211.54
930.76	211.58
931.06	211.55
931.36	211.57
931.66	211.53
931.96	211.45
932.26	211.44
932.56	211.39
932.86	211.37
933.16	211.37
933.46	211.35
933.76	211.32
934.06	211.37
934.36	211.43
934.66	211.42
934.96	211.33
935.26	211.38
935.56	211.35
935.86	211.34
936.16	211.31
936.46	211.34
936.76	211.22
937.06	211.21
937.36	211.12
937.66	211.11
937.96	211.07
938.26	211.09
938.56	211.06
938.86	211.07
939.16	211.21
939.46	211.18
939.76	211.18
940.06	211.15
940.35	211.11
940.65	210.91
940.95	210.85
941.25	210.77
941.55	210.69
941.85	210.70
942.15	210.71
942.45	210.77
942.75	210.75
943.04	210.77
943.34	210.77
943.64	210.78
943.94	210.73
944.24	210.76
944.54	210.79
944.84	210.77
945.13	210.67
945.43	210.58
945.73	210.61
946.03	210.58
946.33	210.62
946.62	210.60
946.92	210.64
947.22	210.70
947.52	210.79
947.82	210.80
948.11	210.70
948.41	210.61
948.71	210.57
949.01	210.57
949.31	210.59
949.60	210.56
949.90	210.69
950.20	210.66
950.50	210.70
950.79	210.70
951.09	210.75
951.39	210.84
951.69	210.82
951.98	210.87
952.28	210.94
952.58	210.88
952.87	210.85
953.17	210.90
953.47	210.88
953.76	210.87
954.06	210.84
954.36	210.86
954.66	210.89
954.95	210.87
955.25	210.90
955.55	210.91
955.84	210.85
956.14	210.85
956.44	210.84
956.73	210.73
957.03	210.75
957.32	210.74
957.62	210.71
957.92	210.79
958.21	210.76
958.51	211.00
958.81	210.98
959.10	211.01
959.40	211.00
959.69	211.01
959.99	211.06
960.29	211.06
960.58	211.10
960.88	211.23
961.17	211.25
961.47	211.15
961.76	211.17
962.06	211.33
962.36	211.16
962.65	211.23
962.95	211.25
963.24	211.18
963.54	211.14
963.83	211.21
964.13	211.14
964.42	211.14
964.72	210.95
965.01	211.00
965.31	210.97
965.60	210.96
965.90	211.10
966.19	211.04
966.49	211.08
966.78	211.02
967.08	210.89
967.37	210.83
967.67	210.94
967.96	210.88
968.26	210.79
968.55	210.90
968.85	210.91
969.14	210.89
969.43	210.94
969.73	210.86
970.02	210.80
970.32	210.83
970.61	210.75
970.91	210.67
971.20	210.61
971.49	210.60
971.79	210.51
972.08	210.38
972.38	210.35
972.67	210.33
972.96	210.39
973.26	210.38
973.55	210.47
973.85	210.40
974.14	210.39
974.43	210.45
974.73	210.43
975.02	210.38
975.31	210.41
975.61	210.36
975.90	210.46
976.19	210.44
976.49	210.45
976.78	210.53
977.07	210.57
977.37	210.61
977.66	210.67
977.95	210.72
978.24	210.71
978.54	210.80
978.83	210.79
979.12	210.77
979.42	210.81
979.71	210.74
980.00	210.76
980.29	210.77
980.59	210.67
980.88	210.66
981.17	210.67
981.46	210.73
981.76	210.77
982.05	210.76
982.34	210.77
982.63	210.75
982.93	210.69
983.22	210.72
983.51	210.69
983.80	210.67
984.09	210.70
984.39	210.72
984.68	210.67
984.97	210.65
985.26	210.65
985.55	210.67
985.85	210.71
986.14	210.70
986.43	210.77
986.72	210.81
987.01	210.75
987.30	210.73
987.59	210.70
987.89	210.74
988.18	210.70
988.47	210.65
988.76	210.65
989.05	210.64
989.34	210.59
989.63	210.67
989.92	210.70
990.22	210.71
990.51	210.73
990.80	210.79
991.09	210.85
991.38	210.88
991.67	210.88
991.96	210.90
992.25	211.01
992.54	210.97
992.83	210.94
993.12	210.92
993.41	210.99
993.70	211.04
993.99	211.06
994.28	211.09
994.58	211.18
994.87	211.17
995.16	211.15
995.45	211.19
995.74	211.16
996.03	211.09
996.32	211.08
996.61	211.12
996.90	211.08
997.19	211.05
997.48	211.03
997.77	210.99
998.06	210.93
998.34	210.81
998.63	210.81
998.92	210.86
999.21	210.97
999.50	210.89
999.79	210.90
1000.08	210.86
1000.37	210.87
1000.66	210.80
1000.95	210.91
1001.24	210.94
1001.53	210.93
1001.82	210.90
1002.11	210.93
1002.40	210.99
1002.68	211.05
1002.97	211.18
1003.26	211.13
1003.55	211.14
1003.84	211.14
1004.13	211.21
1004.42	211.27
1004.71	211.27
1004.99	211.29
1005.28	211.30
1005.57	211.30
1005.86	211.18
1006.15	211.23
1006.44	211.21
1006.72	211.19
1007.01	211.08
1007.30	211.01
1007.59	210.97
1007.88	210.97
1008.17	211.06
1008.45	210.98
1008.74	210.85
1009.03	210.74
1009.32	210.76
1009.60	210.73
1009.89	210.73
1010.18	210.60
1010.47	210.50
1010.76	210.55
1011.04	210.50
1011.33	210.49
1011.62	210.56
1011.91	210.62
1012.19	210.57
1012.48	210.56
1012.77	210.64
1013.05	210.69
1013.34	210.74
1013.63	210.80
1013.92	210.84
1014.20	210.70
1014.49	210.72
1014.78	210.70
1015.06	210.68
1015.35	210.70
1015.64	210.81
1015.92	210.84
1016.21	210.97
1016.50	211.00
1016.78	211.02
1017.07	211.10
1017.36	211.03
1017.64	211.00
1017.93	210.98
1018.22	210.97
1018.50	210.98
1018.79	210.93
1019.08	210.82
1019.36	210.81
1019.65	210.75
1019.93	210.81
1020.22	210.87
1020.51	210.95
1020.79	210.92
1021.08	210.80
1021.36	210.35
1021.65	210.45
1021.94	209.50
1022.22	210.15
1022.51	210.45
1022.79	212.45
1023.08	210.30
1023.36	213.00
1023.65	209.55
>>>>>End Processed Spectral Data<<<<<
