SpectraSuite Data File
++++++++++++++++++++++++++++++++++++
Date: Mon Feb 25 17:30:21 EST 2013
User: group
Dark Spectrum Present: No
Reference Spectrum Present: No
Number of Sampled Component Spectra: 1
Spectrometers: USB2E7196
Integration Time (usec): 52000 (USB2E7196)
Spectra Averaged: 20 (USB2E7196)
Boxcar Smoothing: 10 (USB2E7196)
Correct for Electrical Dark: No (USB2E7196)
Strobe/Lamp Enabled: No (USB2E7196)
Correct for Detector Non-linearity: No (USB2E7196)
Correct for Stray Light: No (USB2E7196)
Number of Pixels in Processed Spectrum: 2048
>>>>>Begin Processed Spectral Data<<<<<
339.09	0.00
339.48	199.55
339.86	201.20
340.24	201.50
340.63	204.50
341.01	207.85
341.39	207.20
341.78	208.55
342.16	209.05
342.54	210.50
342.93	198.90
343.31	208.93
343.69	209.43
344.07	209.84
344.46	210.31
344.84	210.58
345.22	210.75
345.60	210.95
345.99	211.10
346.37	211.19
346.75	211.24
347.13	211.31
347.52	211.29
347.90	211.37
348.28	211.32
348.66	211.34
349.05	211.24
349.43	211.21
349.81	211.25
350.19	211.29
350.57	211.29
350.96	211.25
351.34	211.34
351.72	211.40
352.10	211.45
352.48	211.42
352.87	211.46
353.25	211.43
353.63	211.45
354.01	211.44
354.39	211.50
354.77	211.51
355.15	211.57
355.54	211.59
355.92	211.51
356.30	211.60
356.68	211.75
357.06	211.81
357.44	211.85
357.82	211.87
358.20	211.92
358.58	211.97
358.97	212.09
359.35	212.18
359.73	212.29
360.11	212.36
360.49	212.41
360.87	212.46
361.25	212.53
361.63	212.62
362.01	212.65
362.39	212.69
362.77	212.74
363.15	212.78
363.53	212.83
363.91	212.92
364.29	212.98
364.67	212.86
365.05	212.90
365.43	212.92
365.81	212.91
366.19	213.05
366.57	213.10
366.95	213.15
367.33	213.10
367.71	213.06
368.09	213.15
368.47	213.20
368.85	213.25
369.23	213.28
369.61	213.24
369.99	213.33
370.37	213.37
370.75	213.45
371.13	213.47
371.51	213.51
371.89	213.57
372.27	213.51
372.65	213.53
373.03	213.52
373.41	213.53
373.78	213.55
374.16	213.41
374.54	213.35
374.92	213.31
375.30	213.28
375.68	213.22
376.06	213.17
376.44	213.14
376.82	213.11
377.19	213.10
377.57	213.08
377.95	213.03
378.33	212.93
378.71	212.80
379.09	212.67
379.47	212.60
379.84	212.48
380.22	212.43
380.60	212.43
380.98	212.37
381.36	212.36
381.73	212.29
382.11	212.28
382.49	212.29
382.87	212.22
383.25	212.13
383.62	212.30
384.00	212.23
384.38	212.19
384.76	212.16
385.13	212.21
385.51	212.18
385.89	212.06
386.27	212.11
386.64	212.15
387.02	212.16
387.40	212.06
387.78	212.05
388.15	212.02
388.53	211.98
388.91	211.95
389.29	211.87
389.66	211.84
390.04	211.76
390.42	211.69
390.79	211.66
391.17	211.69
391.55	211.45
391.92	211.43
392.30	211.42
392.68	211.36
393.05	211.34
393.43	211.33
393.81	211.36
394.18	211.26
394.56	211.19
394.94	211.28
395.31	211.35
395.69	211.40
396.06	211.42
396.44	211.40
396.82	211.38
397.19	211.53
397.57	211.51
397.95	211.63
398.32	211.66
398.70	211.70
399.07	211.73
399.45	211.76
399.82	211.83
400.20	211.90
400.58	211.93
400.95	211.92
401.33	211.97
401.70	212.13
402.08	212.24
402.45	212.33
402.83	212.41
403.20	212.43
403.58	212.49
403.95	212.62
404.33	212.77
404.71	212.90
405.08	213.02
405.46	213.15
405.83	213.26
406.21	213.30
406.58	213.44
406.96	213.53
407.33	213.76
407.70	213.86
408.08	214.13
408.45	214.39
408.83	214.65
409.20	214.86
409.58	215.01
409.95	215.27
410.33	215.57
410.70	215.88
411.08	216.25
411.45	216.61
411.82	216.93
412.20	217.35
412.57	217.84
412.95	218.17
413.32	218.65
413.69	219.11
414.07	219.74
414.44	220.34
414.82	220.91
415.19	221.57
415.56	222.28
415.94	223.02
416.31	223.88
416.68	224.68
417.06	225.65
417.43	226.55
417.81	227.66
418.18	228.71
418.55	229.85
418.93	231.11
419.30	232.38
419.67	233.76
420.04	235.18
420.42	236.61
420.79	238.32
421.16	240.06
421.54	241.85
421.91	243.67
422.28	245.56
422.66	247.73
423.03	249.78
423.40	251.83
423.77	253.92
424.15	256.09
424.52	258.43
424.89	260.99
425.26	263.51
425.64	265.81
426.01	268.31
426.38	270.93
426.75	273.59
427.13	276.29
427.50	279.09
427.87	282.05
428.24	285.14
428.61	288.08
428.99	291.22
429.36	294.70
429.73	298.06
430.10	301.42
430.47	304.75
430.85	308.30
431.22	312.15
431.59	316.23
431.96	320.06
432.33	324.18
432.70	328.20
433.08	332.91
433.45	337.43
433.82	341.93
434.19	346.88
434.56	351.76
434.93	356.48
435.30	361.12
435.68	366.17
436.05	371.24
436.42	376.15
436.79	380.70
437.16	385.54
437.53	390.67
437.90	395.82
438.27	400.93
438.64	406.12
439.01	410.87
439.38	415.17
439.75	419.26
440.13	423.97
440.50	428.42
440.87	431.99
441.24	435.72
441.61	439.76
441.98	442.73
442.35	446.13
442.72	449.51
443.09	452.88
443.46	454.82
443.83	456.16
444.20	457.29
444.57	459.12
444.94	459.82
445.31	460.57
445.68	461.33
446.05	461.59
446.42	460.91
446.79	460.16
447.16	459.28
447.53	458.69
447.90	456.63
448.27	454.60
448.64	451.76
449.01	449.69
449.37	446.19
449.74	442.71
450.11	438.79
450.48	434.60
450.85	430.19
451.22	426.45
451.59	422.67
451.96	419.18
452.33	414.41
452.70	410.18
453.07	405.28
453.43	400.16
453.80	395.25
454.17	390.70
454.54	386.42
454.91	381.79
455.28	377.15
455.65	372.94
456.02	368.64
456.38	365.11
456.75	360.56
457.12	356.85
457.49	353.20
457.86	349.56
458.23	346.34
458.59	342.97
458.96	339.56
459.33	336.58
459.70	333.58
460.07	331.24
460.43	328.49
460.80	325.86
461.17	323.50
461.54	320.94
461.91	318.64
462.27	316.24
462.64	314.17
463.01	312.10
463.38	310.03
463.74	307.89
464.11	305.98
464.48	304.38
464.85	302.68
465.21	301.38
465.58	300.05
465.95	298.49
466.32	297.15
466.68	295.77
467.05	294.42
467.42	292.98
467.78	291.54
468.15	290.23
468.52	289.25
468.88	288.00
469.25	287.02
469.62	286.11
469.98	285.17
470.35	284.33
470.72	283.52
471.08	282.58
471.45	281.99
471.82	281.29
472.18	280.39
472.55	279.81
472.92	279.14
473.28	278.53
473.65	277.97
474.02	277.41
474.38	277.01
474.75	276.65
475.11	276.33
475.48	276.09
475.85	275.99
476.21	275.79
476.58	275.65
476.94	275.68
477.31	275.63
477.67	275.61
478.04	275.64
478.41	275.73
478.77	276.04
479.14	276.08
479.50	276.37
479.87	276.82
480.23	277.34
480.60	277.64
480.96	277.99
481.33	278.61
481.69	279.25
482.06	279.92
482.42	280.55
482.79	281.36
483.15	282.24
483.52	283.17
483.88	284.22
484.25	285.21
484.61	286.29
484.98	287.42
485.34	288.79
485.71	290.10
486.07	291.57
486.44	292.96
486.80	294.55
487.17	296.08
487.53	297.77
487.90	299.47
488.26	301.48
488.62	303.60
488.99	305.61
489.35	307.70
489.72	309.91
490.08	312.36
490.44	314.80
490.81	317.35
491.17	320.00
491.54	322.81
491.90	325.76
492.26	328.83
492.63	332.13
492.99	335.39
493.36	339.02
493.72	342.85
494.08	346.84
494.45	351.04
494.81	355.54
495.17	360.12
495.54	364.95
495.90	369.93
496.26	375.13
496.63	380.65
496.99	386.36
497.35	392.34
497.72	398.43
498.08	404.80
498.44	411.55
498.80	418.76
499.17	426.16
499.53	433.81
499.89	441.73
500.26	449.76
500.62	458.10
500.98	466.86
501.34	475.86
501.71	485.35
502.07	494.85
502.43	504.82
502.79	515.04
503.16	525.47
503.52	536.30
503.88	547.49
504.24	558.86
504.60	570.75
504.97	582.86
505.33	595.34
505.69	608.60
506.05	621.87
506.41	635.19
506.78	648.78
507.14	662.69
507.50	677.12
507.86	691.90
508.22	706.96
508.59	722.28
508.95	737.99
509.31	753.91
509.67	770.30
510.03	786.86
510.39	804.16
510.75	822.07
511.12	839.93
511.48	858.13
511.84	876.34
512.20	894.75
512.56	913.94
512.92	933.25
513.28	952.43
513.64	971.92
514.00	991.54
514.37	1011.38
514.73	1031.93
515.09	1052.17
515.45	1072.75
515.81	1093.56
516.17	1114.53
516.53	1135.37
516.89	1156.38
517.25	1177.58
517.61	1198.75
517.97	1219.71
518.33	1240.50
518.69	1261.81
519.05	1283.28
519.41	1305.15
519.77	1327.38
520.13	1348.79
520.49	1370.22
520.85	1392.31
521.21	1414.27
521.57	1436.91
521.93	1458.75
522.29	1481.04
522.65	1503.38
523.01	1525.21
523.37	1546.80
523.73	1568.83
524.09	1590.48
524.45	1612.41
524.81	1634.17
525.17	1656.20
525.53	1677.95
525.89	1699.70
526.25	1721.02
526.61	1741.75
526.97	1763.02
527.33	1783.51
527.68	1804.30
528.04	1824.81
528.40	1844.39
528.76	1864.68
529.12	1884.44
529.48	1905.46
529.84	1925.29
530.20	1944.82
530.56	1964.44
530.91	1984.62
531.27	2004.11
531.63	2023.58
531.99	2042.86
532.35	2061.50
532.71	2079.95
533.07	2099.05
533.42	2117.01
533.78	2135.58
534.14	2153.50
534.50	2169.74
534.86	2186.90
535.21	2202.92
535.57	2220.06
535.93	2236.68
536.29	2252.54
536.65	2268.63
537.00	2283.24
537.36	2297.84
537.72	2312.61
538.08	2327.52
538.44	2342.25
538.79	2356.86
539.15	2371.02
539.51	2385.12
539.87	2399.76
540.22	2413.40
540.58	2427.37
540.94	2441.07
541.29	2453.20
541.65	2464.71
542.01	2477.50
542.37	2489.05
542.72	2501.01
543.08	2511.36
543.44	2522.62
543.79	2532.35
544.15	2541.82
544.51	2552.31
544.87	2562.54
545.22	2571.13
545.58	2579.02
545.94	2585.76
546.29	2591.50
546.65	2597.13
547.01	2602.40
547.36	2607.69
547.72	2612.72
548.07	2616.47
548.43	2619.88
548.79	2623.24
549.14	2627.41
549.50	2631.20
549.86	2634.64
550.21	2638.35
550.57	2642.06
550.92	2644.64
551.28	2646.90
551.64	2649.32
551.99	2651.15
552.35	2652.40
552.70	2654.48
553.06	2657.04
553.41	2659.32
553.77	2661.73
554.13	2663.86
554.48	2665.42
554.84	2666.54
555.19	2666.75
555.55	2666.95
555.90	2667.06
556.26	2667.34
556.61	2667.00
556.97	2665.30
557.32	2664.35
557.68	2662.31
558.03	2660.62
558.39	2658.58
558.74	2657.87
559.10	2656.07
559.45	2654.12
559.81	2652.74
560.16	2650.21
560.52	2647.25
560.87	2644.26
561.23	2640.70
561.58	2638.01
561.94	2634.74
562.29	2630.38
562.64	2628.05
563.00	2625.21
563.35	2623.16
563.71	2620.96
564.06	2618.80
564.42	2616.96
564.77	2614.42
565.12	2612.20
565.48	2609.25
565.83	2606.39
566.19	2603.17
566.54	2598.81
566.89	2594.97
567.25	2591.31
567.60	2587.58
567.96	2584.17
568.31	2580.60
568.66	2576.80
569.02	2572.18
569.37	2567.33
569.72	2563.72
570.08	2558.45
570.43	2552.87
570.78	2547.09
571.14	2540.76
571.49	2534.19
571.84	2528.22
572.20	2521.61
572.55	2515.16
572.90	2508.02
573.26	2500.80
573.61	2493.65
573.96	2487.50
574.31	2479.74
574.67	2471.48
575.02	2463.25
575.37	2454.70
575.72	2445.87
576.08	2438.21
576.43	2429.84
576.78	2422.19
577.13	2414.37
577.49	2406.60
577.84	2398.99
578.19	2391.70
578.54	2384.92
578.90	2378.11
579.25	2369.64
579.60	2360.82
579.95	2351.77
580.30	2344.22
580.66	2336.56
581.01	2327.72
581.36	2318.48
581.71	2310.23
582.06	2302.21
582.42	2294.75
582.77	2285.91
583.12	2277.31
583.47	2268.98
583.82	2261.15
584.17	2252.30
584.53	2243.56
584.88	2234.69
585.23	2225.83
585.58	2216.47
585.93	2206.76
586.28	2197.61
586.63	2189.30
586.98	2181.47
587.34	2173.45
587.69	2164.60
588.04	2155.52
588.39	2147.43
588.74	2138.94
589.09	2130.55
589.44	2121.15
589.79	2112.59
590.14	2105.20
590.49	2097.23
590.84	2088.48
591.19	2080.60
591.54	2072.01
591.89	2062.45
592.25	2053.73
592.60	2044.81
592.95	2035.79
593.30	2026.95
593.65	2017.76
594.00	2008.31
594.35	2000.49
594.70	1991.72
595.05	1983.19
595.40	1975.16
595.75	1966.40
596.10	1958.39
596.45	1950.34
596.80	1943.14
597.15	1935.25
597.50	1926.18
597.85	1918.17
598.19	1909.99
598.54	1901.45
598.89	1894.25
599.24	1887.55
599.59	1880.40
599.94	1873.61
600.29	1866.14
600.64	1858.38
600.99	1850.19
601.34	1843.45
601.69	1834.72
602.04	1826.87
602.39	1819.10
602.74	1811.44
603.08	1804.98
603.43	1798.16
603.78	1790.35
604.13	1782.27
604.48	1774.55
604.83	1768.26
605.18	1761.33
605.53	1753.94
605.87	1746.72
606.22	1739.62
606.57	1732.20
606.92	1724.52
607.27	1716.67
607.62	1709.61
607.96	1702.96
608.31	1697.13
608.66	1689.36
609.01	1682.30
609.36	1675.02
609.70	1667.30
610.05	1659.82
610.40	1651.80
610.75	1643.55
611.10	1636.12
611.44	1627.48
611.79	1618.75
612.14	1609.56
612.49	1600.28
612.83	1592.06
613.18	1582.67
613.53	1573.48
613.88	1563.67
614.22	1555.02
614.57	1546.05
614.92	1536.88
615.27	1527.75
615.61	1518.31
615.96	1509.39
616.31	1501.01
616.65	1493.47
617.00	1485.76
617.35	1477.30
617.70	1468.86
618.04	1460.25
618.39	1451.40
618.74	1443.38
619.08	1435.19
619.43	1427.26
619.78	1419.61
620.12	1411.71
620.47	1404.58
620.82	1396.36
621.16	1388.92
621.51	1380.81
621.85	1373.02
622.20	1365.01
622.55	1356.95
622.89	1348.89
623.24	1341.67
623.59	1333.27
623.93	1324.76
624.28	1316.46
624.62	1308.78
624.97	1300.74
625.32	1293.17
625.66	1285.84
626.01	1278.91
626.35	1271.69
626.70	1264.25
627.04	1257.11
627.39	1249.82
627.73	1242.34
628.08	1235.76
628.43	1228.45
628.77	1221.52
629.12	1214.27
629.46	1207.70
629.81	1200.89
630.15	1193.93
630.50	1186.61
630.84	1179.69
631.19	1172.68
631.53	1166.14
631.88	1158.71
632.22	1151.36
632.57	1144.55
632.91	1137.45
633.26	1129.86
633.60	1122.87
633.95	1116.09
634.29	1109.05
634.64	1102.28
634.98	1095.45
635.32	1088.66
635.67	1082.69
636.01	1076.13
636.36	1069.35
636.70	1062.86
637.05	1056.37
637.39	1050.11
637.73	1043.95
638.08	1038.29
638.42	1032.65
638.77	1026.38
639.11	1020.15
639.45	1014.41
639.80	1008.21
640.14	1002.15
640.49	996.39
640.83	990.53
641.17	984.50
641.52	978.50
641.86	972.36
642.20	966.35
642.55	959.46
642.89	952.76
643.23	946.39
643.58	940.66
643.92	934.34
644.26	928.22
644.61	922.27
644.95	916.34
645.29	910.09
645.64	903.61
645.98	897.56
646.32	891.98
646.66	886.02
647.01	879.98
647.35	874.25
647.69	868.11
648.04	862.18
648.38	856.16
648.72	850.40
649.06	844.47
649.41	838.44
649.75	833.09
650.09	827.50
650.43	821.81
650.78	815.91
651.12	810.09
651.46	804.55
651.80	798.79
652.14	792.96
652.49	787.14
652.83	781.58
653.17	775.71
653.51	770.05
653.85	764.38
654.20	758.77
654.54	752.93
654.88	747.73
655.22	742.11
655.56	736.42
655.90	730.78
656.25	725.27
656.59	720.15
656.93	715.13
657.27	710.18
657.61	704.85
657.95	699.91
658.29	694.82
658.64	689.85
658.98	684.95
659.32	679.78
659.66	674.90
660.00	669.62
660.34	664.50
660.68	659.40
661.02	654.45
661.36	649.99
661.70	645.35
662.05	640.66
662.39	636.36
662.73	632.25
663.07	628.01
663.41	623.70
663.75	619.21
664.09	614.56
664.43	609.88
664.77	605.77
665.11	601.40
665.45	597.27
665.79	592.83
666.13	588.48
666.47	584.45
666.81	580.43
667.15	576.66
667.49	573.07
667.83	569.25
668.17	565.61
668.51	561.90
668.85	558.27
669.19	554.74
669.53	550.79
669.87	546.93
670.21	543.19
670.55	539.54
670.89	536.16
671.23	532.79
671.57	529.54
671.91	525.98
672.25	522.58
672.58	519.11
672.92	515.90
673.26	512.85
673.60	509.65
673.94	506.26
674.28	503.06
674.62	499.96
674.96	497.13
675.30	494.07
675.64	490.94
675.97	487.83
676.31	484.82
676.65	482.09
676.99	479.46
677.33	476.64
677.67	473.81
678.01	470.79
678.34	467.91
678.68	465.03
679.02	462.18
679.36	459.40
679.70	456.70
680.04	453.96
680.37	451.00
680.71	448.32
681.05	445.82
681.39	443.10
681.73	440.50
682.06	437.90
682.40	435.55
682.74	433.07
683.08	430.73
683.42	428.17
683.75	425.67
684.09	423.14
684.43	420.68
684.77	418.27
685.10	415.87
685.44	413.51
685.78	411.14
686.12	408.94
686.45	406.76
686.79	404.56
687.13	402.39
687.46	400.34
687.80	398.29
688.14	396.09
688.48	394.10
688.81	391.81
689.15	389.57
689.49	387.30
689.82	384.99
690.16	382.62
690.50	380.39
690.83	378.17
691.17	375.85
691.51	373.72
691.84	371.73
692.18	369.73
692.52	367.77
692.85	365.87
693.19	364.02
693.52	362.16
693.86	360.26
694.20	358.39
694.53	356.55
694.87	354.52
695.21	352.62
695.54	350.76
695.88	348.91
696.21	347.07
696.55	345.32
696.88	343.70
697.22	342.05
697.56	340.54
697.89	339.00
698.23	337.60
698.56	336.09
698.90	334.51
699.23	333.05
699.57	331.61
699.90	330.00
700.24	328.40
700.58	326.84
700.91	325.38
701.25	324.04
701.58	322.63
701.92	321.27
702.25	319.90
702.59	318.60
702.92	317.41
703.26	316.09
703.59	314.76
703.93	313.62
704.26	312.43
704.60	311.15
704.93	309.90
705.26	308.64
705.60	307.49
705.93	306.25
706.27	305.02
706.60	303.86
706.94	302.88
707.27	301.72
707.61	300.60
707.94	299.62
708.27	298.44
708.61	297.35
708.94	296.37
709.28	295.38
709.61	294.30
709.94	293.25
710.28	292.29
710.61	291.37
710.95	290.30
711.28	289.46
711.61	288.44
711.95	287.50
712.28	286.58
712.61	285.58
712.95	284.77
713.28	283.93
713.61	282.93
713.95	281.97
714.28	281.15
714.61	280.25
714.95	279.34
715.28	278.34
715.61	277.42
715.95	276.57
716.28	275.79
716.61	274.92
716.95	274.07
717.28	273.29
717.61	272.46
717.94	271.65
718.28	270.82
718.61	270.15
718.94	269.49
719.27	268.77
719.61	268.00
719.94	267.21
720.27	266.41
720.60	265.79
720.94	265.12
721.27	264.52
721.60	263.95
721.93	263.23
722.27	262.77
722.60	262.21
722.93	261.54
723.26	260.91
723.59	260.32
723.93	259.77
724.26	259.16
724.59	258.59
724.92	258.07
725.25	257.49
725.59	256.91
725.92	256.33
726.25	255.82
726.58	255.48
726.91	254.95
727.24	254.53
727.57	253.98
727.91	253.40
728.24	252.88
728.57	252.39
728.90	251.98
729.23	251.46
729.56	251.07
729.89	250.62
730.22	250.09
730.55	249.62
730.89	249.23
731.22	248.77
731.55	248.38
731.88	247.97
732.21	247.50
732.54	247.09
732.87	246.69
733.20	246.25
733.53	245.76
733.86	245.34
734.19	244.97
734.52	244.64
734.85	244.43
735.18	244.02
735.51	243.59
735.84	243.20
736.17	242.92
736.50	242.47
736.83	242.31
737.16	241.98
737.49	241.69
737.82	241.33
738.15	241.00
738.48	240.55
738.81	240.27
739.14	239.90
739.47	239.52
739.80	239.15
740.13	238.78
740.46	238.40
740.79	238.07
741.12	237.73
741.45	237.33
741.78	236.95
742.11	236.70
742.44	236.40
742.77	236.09
743.10	235.84
743.43	235.57
743.75	235.09
744.08	235.00
744.41	234.69
744.74	234.35
745.07	234.05
745.40	233.84
745.73	233.44
746.06	233.22
746.39	232.98
746.71	232.73
747.04	232.48
747.37	232.23
747.70	231.96
748.03	231.66
748.36	231.43
748.68	231.15
749.01	230.84
749.34	230.56
749.67	230.33
750.00	229.97
750.33	229.81
750.65	229.58
750.98	229.19
751.31	228.96
751.64	228.69
751.97	228.56
752.29	228.39
752.62	228.15
752.95	227.94
753.28	227.73
753.60	227.51
753.93	227.37
754.26	227.17
754.59	226.97
754.91	226.74
755.24	226.59
755.57	226.46
755.90	226.31
756.22	226.19
756.55	225.95
756.88	225.79
757.20	225.55
757.53	225.35
757.86	225.15
758.19	225.00
758.51	224.90
758.84	224.69
759.17	224.51
759.49	224.34
759.82	224.29
760.15	224.21
760.47	224.00
760.80	223.77
761.13	223.65
761.45	223.55
761.78	223.45
762.11	223.33
762.43	223.11
762.76	222.90
763.08	222.82
763.41	222.76
763.74	222.63
764.06	222.43
764.39	222.33
764.71	222.18
765.04	222.00
765.37	221.80
765.69	221.60
766.02	221.46
766.34	221.45
766.67	221.22
767.00	221.10
767.32	221.16
767.65	221.21
767.97	221.07
768.30	220.95
768.62	220.81
768.95	220.63
769.27	220.50
769.60	220.40
769.92	220.20
770.25	220.07
770.57	219.99
770.90	219.93
771.22	219.77
771.55	219.70
771.87	219.69
772.20	219.60
772.52	219.70
772.85	219.82
773.17	219.74
773.50	219.72
773.82	219.57
774.15	219.34
774.47	219.07
774.80	218.93
775.12	218.85
775.45	218.82
775.77	218.78
776.09	218.77
776.42	218.74
776.74	218.70
777.07	218.57
777.39	218.45
777.72	218.38
778.04	218.34
778.36	218.27
778.69	218.21
779.01	218.21
779.33	217.97
779.66	217.64
779.98	217.39
780.31	217.20
780.63	217.16
780.95	217.15
781.28	217.13
781.60	217.07
781.92	216.98
782.25	216.88
782.57	216.82
782.89	216.67
783.22	216.60
783.54	216.51
783.86	216.47
784.19	216.34
784.51	216.33
784.83	216.26
785.16	216.15
785.48	216.09
785.80	215.99
786.12	215.95
786.45	215.90
786.77	216.01
787.09	216.04
787.42	215.89
787.74	215.85
788.06	215.79
788.38	215.76
788.71	215.69
789.03	215.62
789.35	215.58
789.67	215.58
789.99	215.59
790.32	215.57
790.64	215.52
790.96	215.65
791.28	215.54
791.61	215.46
791.93	215.51
792.25	215.45
792.57	215.59
792.89	215.52
793.21	215.52
793.54	215.41
793.86	215.30
794.18	215.32
794.50	215.17
794.82	215.15
795.14	215.05
795.47	215.07
795.79	215.11
796.11	215.03
796.43	215.00
796.75	214.84
797.07	214.75
797.39	214.64
797.71	214.56
798.04	214.52
798.36	214.52
798.68	214.41
799.00	214.44
799.32	214.25
799.64	214.18
799.96	214.14
800.28	214.12
800.60	214.17
800.92	214.15
801.24	214.19
801.56	214.17
801.89	214.25
802.21	214.22
802.53	214.14
802.85	214.21
803.17	214.27
803.49	214.30
803.81	214.33
804.13	214.41
804.45	214.26
804.77	214.19
805.09	214.11
805.41	214.08
805.73	213.96
806.05	213.91
806.37	213.88
806.69	213.81
807.01	213.74
807.33	213.68
807.65	213.67
807.97	213.70
808.28	213.69
808.60	213.64
808.92	213.65
809.24	213.74
809.56	213.66
809.88	213.49
810.20	213.53
810.52	213.54
810.84	213.43
811.16	213.48
811.48	213.45
811.80	213.58
812.12	213.57
812.43	213.62
812.75	213.60
813.07	213.64
813.39	213.67
813.71	213.64
814.03	213.59
814.35	213.54
814.67	213.43
814.98	213.31
815.30	213.25
815.62	213.10
815.94	212.93
816.26	212.87
816.58	212.87
816.89	212.76
817.21	212.70
817.53	212.71
817.85	212.68
818.17	212.71
818.48	212.59
818.80	212.57
819.12	212.45
819.44	212.35
819.76	212.32
820.07	212.30
820.39	212.35
820.71	212.35
821.03	212.32
821.34	212.30
821.66	212.39
821.98	212.48
822.30	212.47
822.61	212.52
822.93	212.54
823.25	212.55
823.57	212.50
823.88	212.51
824.20	212.52
824.52	212.49
824.83	212.45
825.15	212.39
825.47	212.36
825.79	212.39
826.10	212.48
826.42	212.41
826.74	212.44
827.05	212.36
827.37	212.36
827.69	212.41
828.00	212.43
828.32	212.37
828.64	212.24
828.95	212.31
829.27	212.32
829.58	212.25
829.90	212.28
830.22	212.35
830.53	212.22
830.85	212.17
831.17	212.16
831.48	212.16
831.80	212.24
832.11	212.31
832.43	212.31
832.75	212.27
833.06	212.43
833.38	212.37
833.69	212.42
834.01	212.41
834.32	212.33
834.64	212.31
834.96	212.36
835.27	212.47
835.59	212.51
835.90	212.48
836.22	212.45
836.53	212.39
836.85	212.32
837.16	212.62
837.48	212.65
837.79	212.61
838.11	212.58
838.42	212.55
838.74	212.49
839.05	212.51
839.37	212.45
839.68	212.34
840.00	212.24
840.31	212.24
840.63	212.21
840.94	212.25
841.26	212.19
841.57	212.14
841.88	212.11
842.20	211.97
842.51	211.94
842.83	211.99
843.14	212.15
843.46	212.20
843.77	212.05
844.08	212.05
844.40	212.06
844.71	212.08
845.03	212.03
845.34	212.04
845.65	211.95
845.97	212.06
846.28	212.03
846.60	212.20
846.91	212.21
847.22	212.17
847.54	212.15
847.85	212.23
848.16	212.16
848.48	212.11
848.79	212.25
849.10	212.15
849.42	212.15
849.73	211.98
850.04	211.95
850.36	211.84
850.67	211.82
850.98	211.82
851.30	211.82
851.61	211.80
851.92	211.73
852.23	211.77
852.55	211.71
852.86	211.68
853.17	211.55
853.49	211.50
853.80	211.57
854.11	211.58
854.42	211.54
854.74	211.51
855.05	211.50
855.36	211.34
855.67	211.40
855.99	211.41
856.30	211.61
856.61	211.58
856.92	211.57
857.23	211.58
857.55	211.65
857.86	211.61
858.17	211.59
858.48	211.61
858.79	211.62
859.11	211.66
859.42	211.65
859.73	211.66
860.04	211.68
860.35	211.63
860.66	211.56
860.98	211.54
861.29	211.62
861.60	211.56
861.91	211.61
862.22	211.60
862.53	211.56
862.84	211.35
863.16	211.40
863.47	211.43
863.78	211.37
864.09	211.38
864.40	211.34
864.71	211.38
865.02	211.43
865.33	211.39
865.64	211.33
865.95	211.37
866.27	211.51
866.58	211.54
866.89	211.50
867.20	211.53
867.51	211.53
867.82	211.52
868.13	211.60
868.44	211.64
868.75	211.70
869.06	211.70
869.37	211.73
869.68	211.74
869.99	211.80
870.30	211.89
870.61	211.83
870.92	211.81
871.23	211.83
871.54	211.73
871.85	211.74
872.16	211.80
872.47	211.76
872.78	211.59
873.09	211.62
873.40	211.65
873.71	211.69
874.02	211.77
874.33	211.71
874.64	211.72
874.95	211.70
875.26	211.59
875.56	211.53
875.87	211.50
876.18	211.39
876.49	211.45
876.80	211.40
877.11	211.39
877.42	211.45
877.73	211.43
878.04	211.45
878.35	211.47
878.66	211.40
878.96	211.44
879.27	211.51
879.58	211.45
879.89	211.47
880.20	211.48
880.51	211.38
880.82	211.42
881.12	211.40
881.43	211.34
881.74	211.32
882.05	211.37
882.36	211.35
882.67	211.41
882.97	211.21
883.28	211.20
883.59	211.21
883.90	211.24
884.21	211.33
884.51	211.33
884.82	211.35
885.13	211.37
885.44	211.34
885.74	211.28
886.05	211.32
886.36	211.31
886.67	211.23
886.98	211.32
887.28	211.34
887.59	211.24
887.90	211.31
888.20	211.40
888.51	211.43
888.82	211.45
889.13	211.45
889.43	211.67
889.74	211.63
890.05	211.58
890.35	211.56
890.66	211.52
890.97	211.45
891.28	211.40
891.58	211.42
891.89	211.38
892.20	211.38
892.50	211.29
892.81	211.25
893.12	211.27
893.42	211.27
893.73	211.28
894.04	211.43
894.34	211.33
894.65	211.27
894.95	211.20
895.26	211.22
895.57	211.24
895.87	211.03
896.18	211.04
896.48	211.01
896.79	211.07
897.10	211.10
897.40	211.16
897.71	211.20
898.01	211.16
898.32	211.20
898.63	211.19
898.93	211.21
899.24	211.22
899.54	211.22
899.85	211.15
900.15	211.07
900.46	211.00
900.76	211.01
901.07	210.96
901.38	210.97
901.68	210.96
901.99	210.96
902.29	210.99
902.60	210.98
902.90	211.06
903.21	210.90
903.51	210.80
903.82	210.80
904.12	210.77
904.43	210.75
904.73	210.78
905.03	210.80
905.34	210.97
905.64	210.96
905.95	210.88
906.25	210.88
906.56	210.90
906.86	210.91
907.17	210.89
907.47	210.92
907.77	210.96
908.08	210.89
908.38	210.83
908.69	210.87
908.99	210.89
909.30	210.81
909.60	210.88
909.90	210.94
910.21	210.93
910.51	210.90
910.81	210.97
911.12	210.92
911.42	210.93
911.73	210.72
912.03	210.64
912.33	210.75
912.64	210.75
912.94	210.79
913.24	210.72
913.55	210.78
913.85	210.87
914.15	210.86
914.46	210.97
914.76	211.03
915.06	210.95
915.37	210.91
915.67	210.85
915.97	210.86
916.27	210.78
916.58	210.80
916.88	210.84
917.18	210.78
917.49	210.99
917.79	210.97
918.09	211.01
918.39	211.12
918.70	211.10
919.00	211.09
919.30	211.10
919.60	211.13
919.91	211.07
920.21	211.00
920.51	210.95
920.81	210.92
921.12	210.93
921.42	210.98
921.72	211.00
922.02	211.05
922.32	211.10
922.63	211.15
922.93	211.26
923.23	211.22
923.53	211.15
923.83	211.00
924.13	211.00
924.44	210.97
924.74	211.00
925.04	211.06
925.34	211.07
925.64	211.04
925.94	211.04
926.24	211.16
926.55	211.16
926.85	211.10
927.15	211.05
927.45	211.01
927.75	211.00
928.05	211.02
928.35	211.12
928.65	211.12
928.95	211.15
929.26	211.06
929.56	211.10
929.86	211.17
930.16	211.10
930.46	211.11
930.76	211.15
931.06	211.06
931.36	210.99
931.66	210.98
931.96	210.97
932.26	211.00
932.56	210.91
932.86	210.91
933.16	210.98
933.46	210.98
933.76	210.99
934.06	211.05
934.36	211.11
934.66	211.04
934.96	210.99
935.26	210.90
935.56	210.94
935.86	210.90
936.16	210.93
936.46	210.95
936.76	210.91
937.06	210.89
937.36	210.96
937.66	210.96
937.96	211.00
938.26	210.87
938.56	210.87
938.86	210.89
939.16	210.93
939.46	211.00
939.76	211.01
940.06	211.03
940.35	210.91
940.65	210.88
940.95	210.90
941.25	210.93
941.55	210.95
941.85	210.91
942.15	210.91
942.45	210.93
942.75	210.93
943.04	210.95
943.34	210.97
943.64	210.95
943.94	210.90
944.24	210.81
944.54	210.92
944.84	210.88
945.13	210.88
945.43	210.90
945.73	210.87
946.03	210.84
946.33	210.77
946.62	210.84
946.92	210.73
947.22	210.72
947.52	210.62
947.82	210.65
948.11	210.61
948.41	210.60
948.71	210.48
949.01	210.52
949.31	210.45
949.60	210.44
949.90	210.42
950.20	210.41
950.50	210.43
950.79	210.40
951.09	210.51
951.39	210.45
951.69	210.42
951.98	210.40
952.28	210.42
952.58	210.48
952.87	210.48
953.17	210.56
953.47	210.60
953.76	210.67
954.06	210.62
954.36	210.64
954.66	210.63
954.95	210.74
955.25	210.71
955.55	210.81
955.84	210.81
956.14	210.83
956.44	210.91
956.73	210.91
957.03	210.96
957.32	210.84
957.62	210.84
957.92	210.83
958.21	210.87
958.51	211.09
958.81	211.04
959.10	210.98
959.40	211.01
959.69	210.97
959.99	210.97
960.29	211.00
960.58	211.01
960.88	211.11
961.17	211.09
961.47	211.12
961.76	211.06
962.06	211.05
962.36	211.05
962.65	211.00
962.95	211.00
963.24	210.95
963.54	210.95
963.83	211.02
964.13	211.02
964.42	210.97
964.72	210.83
965.01	210.85
965.31	210.94
965.60	210.96
965.90	211.08
966.19	211.01
966.49	211.04
966.78	210.97
967.08	210.89
967.37	210.85
967.67	210.83
967.96	210.82
968.26	210.92
968.55	210.91
968.85	210.88
969.14	210.94
969.43	210.96
969.73	211.04
970.02	211.02
970.32	211.10
970.61	211.10
970.91	211.03
971.20	211.06
971.49	210.93
971.79	210.96
972.08	210.85
972.38	210.86
972.67	210.77
972.96	210.86
973.26	210.89
973.55	210.98
973.85	210.95
974.14	210.95
974.43	210.87
974.73	210.92
975.02	210.94
975.31	210.96
975.61	210.90
975.90	210.87
976.19	210.84
976.49	210.86
976.78	210.79
977.07	210.82
977.37	210.78
977.66	210.90
977.95	210.75
978.24	210.78
978.54	210.85
978.83	210.92
979.12	210.90
979.42	210.90
979.71	210.90
980.00	210.90
980.29	210.94
980.59	210.99
980.88	211.00
981.17	210.97
981.46	210.91
981.76	211.01
982.05	211.09
982.34	211.07
982.63	211.02
982.93	211.09
983.22	211.13
983.51	211.19
983.80	211.22
984.09	211.27
984.39	211.27
984.68	211.23
984.97	211.20
985.26	211.20
985.55	211.16
985.85	211.12
986.14	211.17
986.43	211.14
986.72	211.13
987.01	211.12
987.30	211.12
987.59	211.15
987.89	211.15
988.18	211.05
988.47	211.01
988.76	210.97
989.05	210.93
989.34	210.85
989.63	210.82
989.92	210.72
990.22	210.74
990.51	210.70
990.80	210.67
991.09	210.70
991.38	210.69
991.67	210.71
991.96	210.69
992.25	210.64
992.54	210.62
992.83	210.54
993.12	210.49
993.41	210.58
993.70	210.62
993.99	210.62
994.28	210.66
994.58	210.73
994.87	210.72
995.16	210.69
995.45	210.65
995.74	210.56
996.03	210.62
996.32	210.61
996.61	210.70
996.90	210.74
997.19	210.67
997.48	210.69
997.77	210.65
998.06	210.64
998.34	210.65
998.63	210.67
998.92	210.70
999.21	210.70
999.50	210.60
999.79	210.50
1000.08	210.50
1000.37	210.46
1000.66	210.46
1000.95	210.52
1001.24	210.60
1001.53	210.63
1001.82	210.67
1002.11	210.60
1002.40	210.60
1002.68	210.58
1002.97	210.71
1003.26	210.79
1003.55	210.80
1003.84	210.87
1004.13	210.95
1004.42	210.91
1004.71	210.91
1004.99	210.95
1005.28	210.99
1005.57	211.01
1005.86	211.04
1006.15	211.03
1006.44	211.01
1006.72	211.10
1007.01	210.99
1007.30	210.96
1007.59	211.02
1007.88	211.03
1008.17	211.03
1008.45	211.03
1008.74	210.99
1009.03	210.90
1009.32	210.83
1009.60	210.76
1009.89	210.75
1010.18	210.70
1010.47	210.77
1010.76	210.78
1011.04	210.75
1011.33	210.95
1011.62	210.90
1011.91	210.90
1012.19	210.89
1012.48	210.89
1012.77	210.83
1013.05	210.94
1013.34	210.92
1013.63	210.90
1013.92	210.91
1014.20	210.93
1014.49	210.84
1014.78	210.88
1015.06	210.81
1015.35	210.85
1015.64	210.86
1015.92	210.90
1016.21	210.90
1016.50	210.85
1016.78	210.90
1017.07	210.93
1017.36	210.65
1017.64	210.70
1017.93	210.72
1018.22	210.70
1018.50	210.69
1018.79	210.68
1019.08	210.60
1019.36	210.58
1019.65	210.57
1019.93	210.63
1020.22	210.62
1020.51	210.75
1020.79	210.72
1021.08	210.30
1021.36	210.45
1021.65	210.95
1021.94	210.70
1022.22	209.15
1022.51	210.85
1022.79	211.60
1023.08	210.40
1023.36	211.65
1023.65	211.10
>>>>>End Processed Spectral Data<<<<<
