SpectraSuite Data File
++++++++++++++++++++++++++++++++++++
Date: Mon Feb 25 17:29:36 EST 2013
User: group
Dark Spectrum Present: No
Reference Spectrum Present: No
Number of Sampled Component Spectra: 1
Spectrometers: USB2E7196
Integration Time (usec): 52000 (USB2E7196)
Spectra Averaged: 20 (USB2E7196)
Boxcar Smoothing: 10 (USB2E7196)
Correct for Electrical Dark: No (USB2E7196)
Strobe/Lamp Enabled: No (USB2E7196)
Correct for Detector Non-linearity: No (USB2E7196)
Correct for Stray Light: No (USB2E7196)
Number of Pixels in Processed Spectrum: 2048
>>>>>Begin Processed Spectral Data<<<<<
339.09	0.00
339.48	199.80
339.86	200.95
340.24	201.85
340.63	204.30
341.01	208.50
341.39	206.75
341.78	208.45
342.16	209.60
342.54	208.45
342.93	198.90
343.31	208.97
343.69	209.54
344.07	209.95
344.46	210.42
344.84	210.79
345.22	210.98
345.60	211.21
345.99	211.38
346.37	211.51
346.75	211.70
347.13	211.77
347.52	211.80
347.90	211.85
348.28	211.80
348.66	212.00
349.05	211.93
349.43	211.94
349.81	211.89
350.19	211.90
350.57	211.89
350.96	211.99
351.34	212.02
351.72	212.06
352.10	212.20
352.48	212.19
352.87	212.18
353.25	212.22
353.63	212.20
354.01	212.23
354.39	212.26
354.77	212.31
355.15	212.39
355.54	212.37
355.92	212.27
356.30	212.23
356.68	212.30
357.06	212.39
357.44	212.34
357.82	212.45
358.20	212.61
358.58	212.69
358.97	212.69
359.35	212.78
359.73	212.86
360.11	212.88
360.49	212.96
360.87	213.02
361.25	212.99
361.63	213.13
362.01	213.20
362.39	213.22
362.77	213.16
363.15	213.14
363.53	213.18
363.91	213.25
364.29	213.33
364.67	213.23
365.05	213.21
365.43	213.31
365.81	213.31
366.19	213.24
366.57	213.25
366.95	213.20
367.33	213.13
367.71	213.03
368.09	213.07
368.47	213.04
368.85	213.03
369.23	213.06
369.61	213.00
369.99	213.05
370.37	213.00
370.75	213.11
371.13	213.13
371.51	213.08
371.89	213.06
372.27	213.01
372.65	212.98
373.03	212.93
373.41	212.90
373.78	212.88
374.16	212.77
374.54	212.80
374.92	212.77
375.30	212.78
375.68	212.73
376.06	212.66
376.44	212.61
376.82	212.52
377.19	212.49
377.57	212.46
377.95	212.29
378.33	212.27
378.71	212.17
379.09	212.17
379.47	212.17
379.84	212.11
380.22	212.12
380.60	212.09
380.98	212.07
381.36	212.02
381.73	211.95
382.11	212.00
382.49	211.83
382.87	211.78
383.25	211.71
383.62	211.88
384.00	211.83
384.38	211.81
384.76	211.94
385.13	212.01
385.51	211.97
385.89	211.94
386.27	211.98
386.64	211.91
387.02	211.94
387.40	211.92
387.78	211.94
388.15	211.95
388.53	211.97
388.91	212.01
389.29	211.94
389.66	211.99
390.04	211.93
390.42	212.03
390.79	212.01
391.17	212.01
391.55	211.81
391.92	211.84
392.30	211.85
392.68	211.70
393.05	211.61
393.43	211.54
393.81	211.59
394.18	211.50
394.56	211.56
394.94	211.51
395.31	211.48
395.69	211.45
396.06	211.50
396.44	211.44
396.82	211.32
397.19	211.47
397.57	211.43
397.95	211.50
398.32	211.51
398.70	211.60
399.07	211.58
399.45	211.65
399.82	211.69
400.20	211.68
400.58	211.73
400.95	211.79
401.33	211.82
401.70	211.96
402.08	212.00
402.45	212.05
402.83	212.10
403.20	212.15
403.58	212.25
403.95	212.25
404.33	212.31
404.71	212.47
405.08	212.60
405.46	212.66
405.83	212.74
406.21	212.79
406.58	212.85
406.96	213.05
407.33	213.13
407.70	213.21
408.08	213.50
408.45	213.70
408.83	213.88
409.20	214.15
409.58	214.28
409.95	214.55
410.33	214.80
410.70	215.04
411.08	215.36
411.45	215.63
411.82	216.02
412.20	216.41
412.57	216.85
412.95	217.11
413.32	217.64
413.69	218.09
414.07	218.62
414.44	219.22
414.82	219.81
415.19	220.43
415.56	221.12
415.94	221.76
416.31	222.53
416.68	223.29
417.06	224.18
417.43	224.99
417.81	225.96
418.18	226.95
418.55	228.01
418.93	229.11
419.30	230.30
419.67	231.39
420.04	232.69
420.42	233.96
420.79	235.52
421.16	237.04
421.54	238.60
421.91	240.22
422.28	241.84
422.66	243.57
423.03	245.46
423.40	247.25
423.77	249.26
424.15	251.22
424.52	253.25
424.89	255.39
425.26	257.50
425.64	259.48
426.01	261.69
426.38	264.05
426.75	266.46
427.13	268.88
427.50	271.56
427.87	274.26
428.24	276.91
428.61	279.44
428.99	282.19
429.36	285.29
429.73	288.25
430.10	291.29
430.47	294.31
430.85	297.36
431.22	300.71
431.59	304.21
431.96	307.60
432.33	311.36
432.70	315.00
433.08	319.34
433.45	323.36
433.82	327.42
434.19	331.83
434.56	336.11
434.93	340.29
435.30	344.42
435.68	349.07
436.05	353.63
436.42	358.07
436.79	362.17
437.16	366.44
437.53	371.10
437.90	375.67
438.27	380.14
438.64	384.92
439.01	389.28
439.38	393.09
439.75	396.79
440.13	400.98
440.50	404.97
440.87	408.17
441.24	411.59
441.61	415.21
441.98	417.95
442.35	421.05
442.72	424.27
443.09	427.40
443.46	429.09
443.83	430.28
444.20	431.36
444.57	432.88
444.94	433.71
445.31	434.41
445.68	435.12
446.05	435.40
446.42	434.87
446.79	434.31
447.16	433.58
447.53	433.04
447.90	431.30
448.27	429.52
448.64	427.12
449.01	425.40
449.37	422.28
449.74	419.28
450.11	415.89
450.48	412.07
450.85	408.06
451.22	404.67
451.59	401.52
451.96	398.41
452.33	394.29
452.70	390.61
453.07	386.35
453.43	381.88
453.80	377.71
454.17	373.56
454.54	369.65
454.91	365.50
455.28	361.52
455.65	357.68
456.02	354.11
456.38	350.82
456.75	346.72
457.12	343.42
457.49	340.12
457.86	336.80
458.23	334.01
458.59	331.04
458.96	328.16
459.33	325.39
459.70	322.69
460.07	320.66
460.43	318.15
460.80	315.76
461.17	313.67
461.54	311.48
461.91	309.52
462.27	307.39
462.64	305.69
463.01	303.71
463.38	301.99
463.74	299.92
464.11	298.31
464.48	296.98
464.85	295.50
465.21	294.38
465.58	293.24
465.95	291.73
466.32	290.56
466.68	289.25
467.05	288.08
467.42	286.90
467.78	285.63
468.15	284.42
468.52	283.61
468.88	282.50
469.25	281.58
469.62	280.85
469.98	280.09
470.35	279.32
470.72	278.65
471.08	277.88
471.45	277.31
471.82	276.75
472.18	276.02
472.55	275.58
472.92	274.98
473.28	274.47
473.65	273.98
474.02	273.41
474.38	273.13
474.75	272.85
475.11	272.55
475.48	272.39
475.85	272.25
476.21	272.08
476.58	272.08
476.94	272.13
477.31	272.06
477.67	272.12
478.04	272.17
478.41	272.36
478.77	272.69
479.14	272.96
479.50	273.22
479.87	273.57
480.23	273.91
480.60	274.30
480.96	274.72
481.33	275.45
481.69	276.13
482.06	276.77
482.42	277.48
482.79	278.32
483.15	279.11
483.52	280.09
483.88	281.09
484.25	282.07
484.61	283.00
484.98	284.06
485.34	285.34
485.71	286.75
486.07	288.14
486.44	289.42
486.80	291.00
487.17	292.58
487.53	294.39
487.90	296.23
488.26	298.24
488.62	300.24
488.99	302.19
489.35	304.34
489.72	306.65
490.08	309.06
490.44	311.52
490.81	314.21
491.17	316.85
491.54	319.67
491.90	322.67
492.26	325.88
492.63	329.29
492.99	332.71
493.36	336.29
493.72	340.12
494.08	344.09
494.45	348.14
494.81	352.57
495.17	357.09
495.54	361.84
495.90	366.77
496.26	371.96
496.63	377.38
496.99	383.01
497.35	388.86
497.72	394.90
498.08	401.28
498.44	407.89
498.80	414.99
499.17	422.32
499.53	429.81
499.89	437.61
500.26	445.59
500.62	453.73
500.98	462.37
501.34	471.24
501.71	480.45
502.07	489.92
502.43	499.53
502.79	509.38
503.16	519.74
503.52	530.24
503.88	541.07
504.24	552.24
504.60	563.70
504.97	575.45
505.33	587.56
505.69	600.23
506.05	612.95
506.41	625.76
506.78	638.47
507.14	651.75
507.50	665.56
507.86	679.61
508.22	693.99
508.59	708.51
508.95	723.54
509.31	738.91
509.67	754.55
510.03	770.46
510.39	786.89
510.75	803.36
511.12	820.31
511.48	837.51
511.84	854.97
512.20	872.34
512.56	890.38
512.92	908.52
513.28	926.55
513.64	944.91
514.00	963.39
514.37	982.80
514.73	1002.13
515.09	1021.33
515.45	1040.50
515.81	1060.02
516.17	1079.70
516.53	1099.12
516.89	1119.04
517.25	1138.55
517.61	1158.22
517.97	1177.81
518.33	1197.32
518.69	1217.03
519.05	1237.02
519.41	1256.82
519.77	1277.23
520.13	1297.09
520.49	1316.95
520.85	1337.13
521.21	1357.00
521.57	1377.64
521.93	1396.97
522.29	1417.17
522.65	1437.21
523.01	1457.44
523.37	1477.31
523.73	1496.90
524.09	1516.62
524.45	1536.00
524.81	1556.05
525.17	1576.01
525.53	1595.85
525.89	1615.57
526.25	1634.81
526.61	1653.10
526.97	1672.14
527.33	1690.44
527.68	1709.08
528.04	1727.49
528.40	1745.20
528.76	1763.56
529.12	1781.34
529.48	1800.19
529.84	1817.73
530.20	1834.97
530.56	1852.09
530.91	1869.50
531.27	1886.93
531.63	1903.86
531.99	1920.46
532.35	1936.50
532.71	1952.29
533.07	1968.42
533.42	1983.94
533.78	1999.81
534.14	2015.63
534.50	2029.77
534.86	2044.95
535.21	2058.82
535.57	2073.43
535.93	2087.67
536.29	2101.22
536.65	2114.98
537.00	2127.35
537.36	2139.44
537.72	2151.97
538.08	2164.54
538.44	2176.84
538.79	2189.09
539.15	2201.00
539.51	2212.68
539.87	2224.75
540.22	2236.38
540.58	2248.21
540.94	2259.61
541.29	2269.46
541.65	2278.45
542.01	2288.55
542.37	2297.38
542.72	2306.86
543.08	2315.17
543.44	2324.44
543.79	2332.05
544.15	2339.21
544.51	2347.52
544.87	2356.07
545.22	2362.99
545.58	2368.74
545.94	2373.73
546.29	2378.18
546.65	2382.20
547.01	2386.66
547.36	2390.33
547.72	2393.90
548.07	2396.10
548.43	2398.24
548.79	2400.28
549.14	2403.61
549.50	2406.50
549.86	2409.05
550.21	2411.21
550.57	2413.69
550.92	2414.64
551.28	2416.23
551.64	2417.31
551.99	2417.99
552.35	2418.23
552.70	2419.05
553.06	2420.50
553.41	2422.06
553.77	2423.48
554.13	2424.60
554.48	2425.08
554.84	2425.07
555.19	2424.35
555.55	2423.63
555.90	2422.99
556.26	2422.85
556.61	2421.53
556.97	2419.21
557.32	2417.51
557.68	2414.97
558.03	2412.56
558.39	2410.21
558.74	2408.55
559.10	2406.50
559.45	2404.23
559.81	2402.28
560.16	2399.05
560.52	2395.71
560.87	2392.02
561.23	2387.66
561.58	2384.73
561.94	2380.82
562.29	2376.85
562.64	2373.85
563.00	2370.63
563.35	2367.65
563.71	2364.72
564.06	2361.95
564.42	2359.66
564.77	2356.78
565.12	2354.44
565.48	2350.79
565.83	2347.40
566.19	2343.51
566.54	2339.09
566.89	2334.86
567.25	2330.80
567.60	2327.04
567.96	2323.43
568.31	2319.62
568.66	2315.71
569.02	2310.93
569.37	2306.13
569.72	2302.03
570.08	2296.95
570.43	2291.73
570.78	2286.36
571.14	2280.43
571.49	2274.27
571.84	2268.45
572.20	2262.01
572.55	2255.60
572.90	2249.35
573.26	2242.59
573.61	2236.21
573.96	2230.21
574.31	2223.01
574.67	2215.37
575.02	2207.99
575.37	2200.28
575.72	2192.61
576.08	2185.67
576.43	2177.93
576.78	2170.67
577.13	2163.51
577.49	2156.32
577.84	2149.40
578.19	2142.39
578.54	2135.92
578.90	2129.63
579.25	2121.97
579.60	2114.15
579.95	2106.22
580.30	2098.76
580.66	2091.63
581.01	2083.94
581.36	2075.95
581.71	2068.85
582.06	2061.57
582.42	2054.45
582.77	2046.60
583.12	2038.85
583.47	2031.30
583.82	2024.00
584.17	2016.46
584.53	2008.65
584.88	2000.95
585.23	1993.22
585.58	1985.28
585.93	1976.82
586.28	1968.79
586.63	1961.59
586.98	1954.38
587.34	1947.52
587.69	1939.97
588.04	1932.02
588.39	1924.72
588.74	1916.98
589.09	1909.24
589.44	1901.09
589.79	1893.54
590.14	1886.71
590.49	1879.43
590.84	1871.78
591.19	1865.18
591.54	1857.59
591.89	1849.00
592.25	1841.60
592.60	1833.38
592.95	1825.48
593.30	1817.74
593.65	1809.78
594.00	1801.33
594.35	1794.50
594.70	1786.28
595.05	1778.85
595.40	1771.70
595.75	1763.55
596.10	1756.62
596.45	1749.47
596.80	1742.85
597.15	1735.99
597.50	1728.22
597.85	1720.95
598.19	1713.38
598.54	1705.64
598.89	1698.94
599.24	1693.45
599.59	1686.83
599.94	1681.07
600.29	1674.62
600.64	1667.69
600.99	1660.38
601.34	1654.50
601.69	1646.92
602.04	1640.26
602.39	1633.47
602.74	1626.74
603.08	1621.07
603.43	1615.11
603.78	1608.60
604.13	1601.78
604.48	1595.05
604.83	1589.02
605.18	1583.03
605.53	1577.06
605.87	1570.65
606.22	1564.56
606.57	1557.34
606.92	1550.40
607.27	1543.24
607.62	1536.57
607.96	1530.70
608.31	1525.41
608.66	1518.24
609.01	1511.80
609.36	1505.10
609.70	1498.18
610.05	1491.61
610.40	1484.93
610.75	1477.38
611.10	1470.65
611.44	1462.98
611.79	1455.35
612.14	1447.29
612.49	1439.07
612.83	1431.39
613.18	1423.39
613.53	1415.30
613.88	1407.24
614.22	1399.60
614.57	1391.91
614.92	1384.19
615.27	1376.28
615.61	1367.91
615.96	1360.63
616.31	1353.62
616.65	1346.97
617.00	1340.02
617.35	1332.85
617.70	1324.98
618.04	1317.45
618.39	1309.52
618.74	1302.31
619.08	1294.98
619.43	1288.43
619.78	1282.05
620.12	1275.22
620.47	1268.44
620.82	1261.24
621.16	1254.61
621.51	1247.68
621.85	1240.39
622.20	1233.15
622.55	1226.01
622.89	1219.09
623.24	1212.25
623.59	1204.55
623.93	1196.94
624.28	1189.96
624.62	1183.11
624.97	1176.05
625.32	1169.42
625.66	1163.19
626.01	1157.22
626.35	1150.82
626.70	1143.86
627.04	1137.32
627.39	1130.86
627.73	1124.33
628.08	1118.39
628.43	1111.81
628.77	1105.38
629.12	1099.09
629.46	1093.52
629.81	1087.57
630.15	1081.40
630.50	1075.12
630.84	1069.13
631.19	1063.21
631.53	1057.30
631.88	1050.71
632.22	1044.33
632.57	1038.30
632.91	1031.81
633.26	1025.23
633.60	1019.22
633.95	1013.62
634.29	1007.63
634.64	1001.70
634.98	995.61
635.32	989.65
635.67	984.35
636.01	978.65
636.36	973.04
636.70	967.17
637.05	961.45
637.39	955.84
637.73	950.28
638.08	945.23
638.42	940.16
638.77	934.68
639.11	929.17
639.45	924.06
639.80	918.60
640.14	912.96
640.49	907.82
640.83	902.60
641.17	897.03
641.52	891.51
641.86	886.04
642.20	880.94
642.55	875.17
642.89	869.39
643.23	863.88
643.58	858.80
643.92	853.21
644.26	847.78
644.61	842.58
644.95	837.35
645.29	831.81
645.64	826.06
645.98	820.54
646.32	815.36
646.66	810.18
647.01	805.10
647.35	800.27
647.69	794.81
648.04	789.57
648.38	784.56
648.72	779.42
649.06	774.04
649.41	768.68
649.75	763.63
650.09	758.72
650.43	753.73
650.78	748.22
651.12	742.93
651.46	737.83
651.80	732.84
652.14	727.78
652.49	722.74
652.83	717.80
653.17	712.79
653.51	707.91
653.85	702.87
654.20	697.64
654.54	692.58
654.88	687.80
655.22	682.73
655.56	677.54
655.90	672.49
656.25	667.84
656.59	663.29
656.93	658.95
657.27	654.45
657.61	649.71
657.95	645.48
658.29	641.17
658.64	636.90
658.98	632.33
659.32	627.65
659.66	623.28
660.00	618.81
660.34	614.22
660.68	609.64
661.02	605.19
661.36	601.07
661.70	596.90
662.05	592.80
662.39	589.01
662.73	585.32
663.07	581.68
663.41	577.99
663.75	574.01
664.09	569.84
664.43	565.70
664.77	561.96
665.11	558.05
665.45	554.35
665.79	550.54
666.13	546.70
666.47	543.11
666.81	539.40
667.15	535.79
667.49	532.56
667.83	529.31
668.17	526.21
668.51	522.96
668.85	519.74
669.19	516.55
669.53	513.17
669.87	509.79
670.21	506.47
670.55	503.09
670.89	500.12
671.23	497.27
671.57	494.35
671.91	491.20
672.25	488.23
672.58	485.13
672.92	482.18
673.26	479.58
673.60	476.86
673.94	473.87
674.28	471.04
674.62	468.28
674.96	465.59
675.30	462.86
675.64	460.03
675.97	457.30
676.31	454.68
676.65	452.13
676.99	449.77
677.33	447.13
677.67	444.52
678.01	441.79
678.34	439.15
678.68	436.67
679.02	434.12
679.36	431.71
679.70	429.38
680.04	426.80
680.37	424.29
680.71	421.81
681.05	419.57
681.39	417.35
681.73	415.08
682.06	412.84
682.40	410.58
682.74	408.40
683.08	406.25
683.42	404.09
683.75	401.83
684.09	399.53
684.43	397.47
684.77	395.35
685.10	393.27
685.44	391.10
685.78	388.85
686.12	387.00
686.45	384.94
686.79	382.92
687.13	381.16
687.46	379.25
687.80	377.38
688.14	375.53
688.48	373.75
688.81	371.70
689.15	369.86
689.49	368.00
689.82	366.14
690.16	364.06
690.50	362.05
690.83	360.29
691.17	358.50
691.51	356.67
691.84	354.89
692.18	353.20
692.52	351.58
692.85	350.01
693.19	348.33
693.52	346.69
693.86	344.98
694.20	343.29
694.53	341.61
694.87	339.90
695.21	338.17
695.54	336.38
695.88	334.80
696.21	333.03
696.55	331.38
696.88	329.90
697.22	328.52
697.56	327.15
697.89	325.69
698.23	324.13
698.56	322.69
698.90	321.44
699.23	319.95
699.57	318.54
699.90	317.19
700.24	315.76
700.58	314.39
700.91	313.10
701.25	311.98
701.58	310.73
701.92	309.63
702.25	308.50
702.59	307.31
702.92	306.20
703.26	305.13
703.59	303.99
703.93	302.98
704.26	301.92
704.60	300.81
704.93	299.70
705.26	298.71
705.60	297.70
705.93	296.53
706.27	295.47
706.60	294.55
706.94	293.46
707.27	292.43
707.61	291.44
707.94	290.43
708.27	289.29
708.61	288.26
708.94	287.20
709.28	286.19
709.61	285.28
709.94	284.36
710.28	283.47
710.61	282.66
710.95	281.61
711.28	280.83
711.61	279.88
711.95	279.02
712.28	278.18
712.61	277.23
712.95	276.44
713.28	275.68
713.61	274.69
713.95	273.98
714.28	273.23
714.61	272.35
714.95	271.55
715.28	270.72
715.61	269.90
715.95	269.14
716.28	268.44
716.61	267.73
716.95	266.95
717.28	266.20
717.61	265.47
717.94	264.85
718.28	264.01
718.61	263.48
718.94	262.84
719.27	262.05
719.61	261.46
719.94	260.85
720.27	260.30
720.60	259.72
720.94	259.06
721.27	258.45
721.60	258.04
721.93	257.53
722.27	257.03
722.60	256.59
722.93	255.97
723.26	255.40
723.59	254.81
723.93	254.32
724.26	253.87
724.59	253.40
724.92	252.91
725.25	252.40
725.59	251.82
725.92	251.40
726.25	251.06
726.58	250.65
726.91	250.18
727.24	249.62
727.57	249.17
727.91	248.70
728.24	248.31
728.57	247.87
728.90	247.47
729.23	247.08
729.56	246.75
729.89	246.36
730.22	245.97
730.55	245.61
730.89	245.16
731.22	244.70
731.55	244.27
731.88	243.86
732.21	243.56
732.54	243.19
732.87	242.74
733.20	242.35
733.53	242.00
733.86	241.64
734.19	241.35
734.52	241.09
734.85	240.92
735.18	240.61
735.51	240.28
735.84	239.90
736.17	239.58
736.50	239.17
736.83	239.11
737.16	238.77
737.49	238.49
737.82	238.22
738.15	237.92
738.48	237.58
738.81	237.28
739.14	236.92
739.47	236.61
739.80	236.29
740.13	235.91
740.46	235.64
740.79	235.28
741.12	235.01
741.45	234.65
741.78	234.27
742.11	234.06
742.44	233.75
742.77	233.50
743.10	233.23
743.43	232.93
743.75	232.49
744.08	232.44
744.41	232.15
744.74	231.90
745.07	231.60
745.40	231.48
745.73	231.33
746.06	231.10
746.39	230.88
746.71	230.67
747.04	230.50
747.37	230.25
747.70	230.02
748.03	229.73
748.36	229.48
748.68	229.25
749.01	228.92
749.34	228.62
749.67	228.43
750.00	228.24
750.33	228.11
750.65	227.91
750.98	227.45
751.31	227.27
751.64	227.03
751.97	226.96
752.29	226.70
752.62	226.43
752.95	226.25
753.28	225.99
753.60	225.80
753.93	225.66
754.26	225.44
754.59	225.21
754.91	225.06
755.24	224.94
755.57	224.72
755.90	224.54
756.22	224.42
756.55	224.17
756.88	223.93
757.20	223.74
757.53	223.54
757.86	223.45
758.19	223.28
758.51	223.13
758.84	222.88
759.17	222.75
759.49	222.64
759.82	222.55
760.15	222.48
760.47	222.35
760.80	222.18
761.13	222.06
761.45	221.97
761.78	221.86
762.11	221.75
762.43	221.67
762.76	221.64
763.08	221.51
763.41	221.47
763.74	221.36
764.06	221.19
764.39	221.02
764.71	220.90
765.04	220.71
765.37	220.61
765.69	220.45
766.02	220.31
766.34	220.11
766.67	219.90
767.00	219.88
767.32	219.85
767.65	219.77
767.97	219.64
768.30	219.53
768.62	219.42
768.95	219.33
769.27	219.20
769.60	219.10
769.92	218.93
770.25	218.86
770.57	218.76
770.90	218.60
771.22	218.55
771.55	218.52
771.87	218.47
772.20	218.39
772.52	218.55
772.85	218.59
773.17	218.56
773.50	218.52
773.82	218.36
774.15	218.18
774.47	217.98
774.80	217.91
775.12	217.90
775.45	217.80
775.77	217.74
776.09	217.67
776.42	217.58
776.74	217.62
777.07	217.51
777.39	217.41
777.72	217.38
778.04	217.34
778.36	217.23
778.69	217.23
779.01	217.14
779.33	216.94
779.66	216.78
779.98	216.58
780.31	216.55
780.63	216.55
780.95	216.47
781.28	216.45
781.60	216.42
781.92	216.34
782.25	216.28
782.57	216.16
782.89	216.14
783.22	216.05
783.54	215.99
783.86	215.92
784.19	215.85
784.51	215.89
784.83	215.75
785.16	215.63
785.48	215.58
785.80	215.52
786.12	215.45
786.45	215.36
786.77	215.40
787.09	215.32
787.42	215.25
787.74	215.22
788.06	215.19
788.38	215.11
788.71	215.02
789.03	215.03
789.35	214.99
789.67	214.88
789.99	214.86
790.32	214.78
790.64	214.79
790.96	214.95
791.28	214.83
791.61	214.80
791.93	214.78
792.25	214.67
792.57	214.83
792.89	214.76
793.21	214.78
793.54	214.72
793.86	214.63
794.18	214.57
794.50	214.47
794.82	214.45
795.14	214.43
795.47	214.42
795.79	214.40
796.11	214.31
796.43	214.29
796.75	214.25
797.07	214.20
797.39	214.11
797.71	213.95
798.04	213.92
798.36	213.98
798.68	213.98
799.00	213.91
799.32	213.74
799.64	213.75
799.96	213.69
800.28	213.70
800.60	213.68
800.92	213.70
801.24	213.71
801.56	213.69
801.89	213.68
802.21	213.71
802.53	213.61
802.85	213.72
803.17	213.82
803.49	213.72
803.81	213.67
804.13	213.64
804.45	213.53
804.77	213.55
805.09	213.45
805.41	213.42
805.73	213.40
806.05	213.40
806.37	213.36
806.69	213.32
807.01	213.32
807.33	213.29
807.65	213.18
807.97	213.26
808.28	213.28
808.60	213.27
808.92	213.19
809.24	213.27
809.56	213.19
809.88	213.11
810.20	213.15
810.52	213.20
810.84	213.18
811.16	213.17
811.48	213.15
811.80	213.25
812.12	213.18
812.43	213.30
812.75	213.22
813.07	213.20
813.39	213.24
813.71	213.21
814.03	213.25
814.35	213.24
814.67	213.18
814.98	213.10
815.30	213.04
815.62	213.02
815.94	212.89
816.26	212.90
816.58	212.80
816.89	212.84
817.21	212.76
817.53	212.79
817.85	212.78
818.17	212.78
818.48	212.70
818.80	212.70
819.12	212.61
819.44	212.65
819.76	212.62
820.07	212.56
820.39	212.53
820.71	212.54
821.03	212.52
821.34	212.45
821.66	212.51
821.98	212.51
822.30	212.50
822.61	212.65
822.93	212.60
823.25	212.67
823.57	212.59
823.88	212.72
824.20	212.63
824.52	212.68
824.83	212.66
825.15	212.62
825.47	212.65
825.79	212.70
826.10	212.66
826.42	212.64
826.74	212.67
827.05	212.64
827.37	212.57
827.69	212.60
828.00	212.59
828.32	212.56
828.64	212.51
828.95	212.57
829.27	212.50
829.58	212.50
829.90	212.43
830.22	212.40
830.53	212.21
830.85	212.28
831.17	212.24
831.48	212.23
831.80	212.23
832.11	212.27
832.43	212.22
832.75	212.14
833.06	212.18
833.38	212.14
833.69	212.13
834.01	212.15
834.32	212.12
834.64	212.14
834.96	212.05
835.27	212.10
835.59	212.02
835.90	211.92
836.22	211.84
836.53	211.80
836.85	211.82
837.16	212.04
837.48	212.03
837.79	212.07
838.11	212.06
838.42	212.00
838.74	211.93
839.05	211.88
839.37	211.92
839.68	211.85
840.00	211.84
840.31	211.88
840.63	211.88
840.94	211.89
841.26	211.83
841.57	211.90
841.88	211.88
842.20	211.92
842.51	211.91
842.83	211.95
843.14	212.17
843.46	212.18
843.77	212.14
844.08	212.14
844.40	212.08
844.71	212.01
845.03	212.00
845.34	212.00
845.65	211.96
845.97	211.97
846.28	211.97
846.60	211.93
846.91	211.89
847.22	211.80
847.54	211.82
847.85	211.83
848.16	211.83
848.48	211.78
848.79	211.79
849.10	211.84
849.42	211.88
849.73	211.67
850.04	211.63
850.36	211.50
850.67	211.46
850.98	211.50
851.30	211.58
851.61	211.58
851.92	211.55
852.23	211.66
852.55	211.65
852.86	211.65
853.17	211.69
853.49	211.71
853.80	211.82
854.11	211.82
854.42	211.82
854.74	211.75
855.05	211.77
855.36	211.70
855.67	211.67
855.99	211.67
856.30	211.88
856.61	211.90
856.92	211.93
857.23	212.00
857.55	211.91
857.86	211.90
858.17	211.95
858.48	211.99
858.79	211.95
859.11	211.99
859.42	211.96
859.73	211.95
860.04	211.95
860.35	211.88
860.66	211.79
860.98	211.86
861.29	211.98
861.60	211.96
861.91	211.94
862.22	211.96
862.53	211.89
862.84	211.69
863.16	211.63
863.47	211.58
863.78	211.47
864.09	211.54
864.40	211.53
864.71	211.51
865.02	211.53
865.33	211.45
865.64	211.42
865.95	211.44
866.27	211.50
866.58	211.43
866.89	211.41
867.20	211.44
867.51	211.38
867.82	211.34
868.13	211.36
868.44	211.33
868.75	211.31
869.06	211.25
869.37	211.32
869.68	211.30
869.99	211.34
870.30	211.34
870.61	211.33
870.92	211.35
871.23	211.33
871.54	211.24
871.85	211.34
872.16	211.36
872.47	211.35
872.78	211.23
873.09	211.29
873.40	211.28
873.71	211.26
874.02	211.28
874.33	211.24
874.64	211.26
874.95	211.33
875.26	211.28
875.56	211.30
875.87	211.23
876.18	211.30
876.49	211.47
876.80	211.45
877.11	211.41
877.42	211.38
877.73	211.38
878.04	211.39
878.35	211.41
878.66	211.43
878.96	211.42
879.27	211.42
879.58	211.37
879.89	211.37
880.20	211.40
880.51	211.37
880.82	211.33
881.12	211.26
881.43	211.22
881.74	211.23
882.05	211.22
882.36	211.28
882.67	211.32
882.97	211.11
883.28	211.12
883.59	211.07
883.90	211.07
884.21	211.07
884.51	211.10
884.82	210.96
885.13	210.88
885.44	210.86
885.74	210.86
886.05	210.85
886.36	210.79
886.67	210.71
886.98	210.75
887.28	210.75
887.59	210.79
887.90	210.81
888.20	210.78
888.51	210.89
888.82	210.84
889.13	210.75
889.43	210.90
889.74	210.87
890.05	210.94
890.35	210.95
890.66	210.93
890.97	210.93
891.28	211.02
891.58	210.99
891.89	211.03
892.20	211.01
892.50	210.98
892.81	211.09
893.12	211.15
893.42	211.11
893.73	211.12
894.04	211.08
894.34	211.10
894.65	211.11
894.95	211.01
895.26	210.96
895.57	211.05
895.87	210.93
896.18	211.00
896.48	210.95
896.79	210.90
897.10	210.91
897.40	210.88
897.71	210.86
898.01	210.94
898.32	210.91
898.63	210.95
898.93	210.99
899.24	211.00
899.54	211.01
899.85	210.98
900.15	210.97
900.46	211.01
900.76	210.97
901.07	210.97
901.38	211.04
901.68	211.05
901.99	210.92
902.29	210.89
902.60	210.87
902.90	210.90
903.21	210.82
903.51	210.86
903.82	210.95
904.12	210.91
904.43	210.87
904.73	210.92
905.03	210.94
905.34	211.08
905.64	211.05
905.95	211.00
906.25	211.06
906.56	211.01
906.86	211.01
907.17	211.02
907.47	211.04
907.77	210.97
908.08	210.93
908.38	211.03
908.69	211.09
908.99	211.07
909.30	211.10
909.60	211.17
909.90	211.11
910.21	210.98
910.51	210.96
910.81	210.92
911.12	210.95
911.42	210.96
911.73	210.79
912.03	210.72
912.33	210.78
912.64	210.75
912.94	210.83
913.24	210.81
913.55	210.81
913.85	210.77
914.15	210.84
914.46	210.97
914.76	210.93
915.06	210.88
915.37	210.85
915.67	210.86
915.97	210.89
916.27	210.88
916.58	210.95
916.88	210.99
917.18	211.02
917.49	211.07
917.79	211.04
918.09	211.10
918.39	211.17
918.70	211.08
919.00	211.04
919.30	211.06
919.60	211.06
919.91	211.03
920.21	211.10
920.51	211.03
920.81	211.01
921.12	211.01
921.42	211.03
921.72	211.07
922.02	211.08
922.32	211.08
922.63	211.10
922.93	211.20
923.23	211.18
923.53	211.19
923.83	211.08
924.13	211.10
924.44	211.08
924.74	211.11
925.04	211.22
925.34	211.28
925.64	211.22
925.94	211.20
926.24	211.30
926.55	211.27
926.85	211.31
927.15	211.31
927.45	211.37
927.75	211.34
928.05	211.30
928.35	211.31
928.65	211.42
928.95	211.39
929.26	211.37
929.56	211.39
929.86	211.41
930.16	211.39
930.46	211.41
930.76	211.40
931.06	211.38
931.36	211.31
931.66	211.32
931.96	211.35
932.26	211.40
932.56	211.35
932.86	211.36
933.16	211.35
933.46	211.25
933.76	211.24
934.06	211.30
934.36	211.35
934.66	211.28
934.96	211.16
935.26	211.18
935.56	211.07
935.86	211.13
936.16	211.11
936.46	211.15
936.76	211.13
937.06	211.10
937.36	211.07
937.66	211.12
937.96	211.12
938.26	211.10
938.56	211.03
938.86	211.01
939.16	211.10
939.46	211.14
939.76	211.17
940.06	211.06
940.35	211.06
940.65	210.95
940.95	210.97
941.25	210.93
941.55	210.86
941.85	210.90
942.15	210.85
942.45	210.91
942.75	210.82
943.04	210.89
943.34	210.93
943.64	210.85
943.94	210.82
944.24	210.77
944.54	210.80
944.84	210.80
945.13	210.87
945.43	210.75
945.73	210.76
946.03	210.73
946.33	210.71
946.62	210.66
946.92	210.74
947.22	210.72
947.52	210.68
947.82	210.77
948.11	210.76
948.41	210.75
948.71	210.72
949.01	210.80
949.31	210.75
949.60	210.75
949.90	210.81
950.20	210.84
950.50	210.86
950.79	210.83
951.09	210.83
951.39	210.72
951.69	210.74
951.98	210.73
952.28	210.80
952.58	210.82
952.87	210.82
953.17	210.81
953.47	210.86
953.76	210.93
954.06	210.90
954.36	210.81
954.66	210.78
954.95	210.76
955.25	210.74
955.55	210.74
955.84	210.69
956.14	210.70
956.44	210.70
956.73	210.71
957.03	210.76
957.32	210.81
957.62	210.83
957.92	210.84
958.21	210.80
958.51	210.95
958.81	211.04
959.10	211.02
959.40	211.12
959.69	211.03
959.99	211.04
960.29	211.01
960.58	211.11
960.88	211.21
961.17	211.19
961.47	211.18
961.76	211.15
962.06	211.20
962.36	211.23
962.65	211.19
962.95	211.07
963.24	210.99
963.54	210.97
963.83	211.01
964.13	211.07
964.42	211.06
964.72	210.97
965.01	210.95
965.31	210.93
965.60	210.82
965.90	211.02
966.19	210.97
966.49	211.07
966.78	211.09
967.08	211.08
967.37	211.11
967.67	211.16
967.96	211.19
968.26	211.19
968.55	211.14
968.85	211.13
969.14	211.15
969.43	211.14
969.73	211.09
970.02	211.11
970.32	211.01
970.61	210.97
970.91	210.87
971.20	210.81
971.49	210.85
971.79	210.89
972.08	210.72
972.38	210.80
972.67	210.76
972.96	210.71
973.26	210.68
973.55	210.68
973.85	210.65
974.14	210.64
974.43	210.63
974.73	210.62
975.02	210.62
975.31	210.67
975.61	210.67
975.90	210.70
976.19	210.68
976.49	210.73
976.78	210.79
977.07	210.76
977.37	210.75
977.66	210.74
977.95	210.77
978.24	210.80
978.54	210.77
978.83	210.77
979.12	210.76
979.42	210.75
979.71	210.70
980.00	210.62
980.29	210.59
980.59	210.53
980.88	210.60
981.17	210.60
981.46	210.61
981.76	210.63
982.05	210.64
982.34	210.59
982.63	210.60
982.93	210.58
983.22	210.70
983.51	210.77
983.80	210.78
984.09	210.71
984.39	210.63
984.68	210.68
984.97	210.69
985.26	210.69
985.55	210.71
985.85	210.70
986.14	210.76
986.43	210.79
986.72	210.78
987.01	210.69
987.30	210.68
987.59	210.68
987.89	210.75
988.18	210.70
988.47	210.73
988.76	210.77
989.05	210.73
989.34	210.72
989.63	210.72
989.92	210.73
990.22	210.79
990.51	210.82
990.80	210.76
991.09	210.78
991.38	210.77
991.67	210.72
991.96	210.71
992.25	210.70
992.54	210.62
992.83	210.65
993.12	210.66
993.41	210.74
993.70	210.82
993.99	210.82
994.28	210.81
994.58	210.81
994.87	210.77
995.16	210.82
995.45	210.76
995.74	210.68
996.03	210.67
996.32	210.65
996.61	210.70
996.90	210.71
997.19	210.74
997.48	210.75
997.77	210.78
998.06	210.80
998.34	210.85
998.63	210.89
998.92	210.91
999.21	210.95
999.50	210.86
999.79	210.75
1000.08	210.75
1000.37	210.78
1000.66	210.71
1000.95	210.74
1001.24	210.74
1001.53	210.76
1001.82	210.79
1002.11	210.77
1002.40	210.76
1002.68	210.85
1002.97	211.03
1003.26	210.94
1003.55	210.93
1003.84	210.86
1004.13	210.95
1004.42	210.92
1004.71	210.95
1004.99	210.92
1005.28	210.98
1005.57	211.04
1005.86	211.02
1006.15	210.97
1006.44	210.95
1006.72	211.00
1007.01	210.90
1007.30	210.93
1007.59	210.93
1007.88	210.95
1008.17	210.89
1008.45	210.86
1008.74	210.75
1009.03	210.63
1009.32	210.67
1009.60	210.59
1009.89	210.62
1010.18	210.53
1010.47	210.47
1010.76	210.50
1011.04	210.52
1011.33	210.51
1011.62	210.61
1011.91	210.65
1012.19	210.72
1012.48	210.74
1012.77	210.72
1013.05	210.90
1013.34	210.81
1013.63	210.79
1013.92	210.80
1014.20	210.81
1014.49	210.80
1014.78	210.87
1015.06	210.82
1015.35	210.80
1015.64	210.92
1015.92	210.96
1016.21	210.96
1016.50	210.98
1016.78	210.92
1017.07	210.90
1017.36	210.81
1017.64	210.69
1017.93	210.66
1018.22	210.59
1018.50	210.56
1018.79	210.58
1019.08	210.50
1019.36	210.53
1019.65	210.55
1019.93	210.56
1020.22	210.67
1020.51	210.74
1020.79	210.70
1021.08	209.90
1021.36	210.00
1021.65	210.80
1021.94	211.00
1022.22	210.80
1022.51	210.70
1022.79	211.45
1023.08	212.20
1023.36	211.40
1023.65	211.25
>>>>>End Processed Spectral Data<<<<<
