SpectraSuite Data File
++++++++++++++++++++++++++++++++++++
Date: Mon Feb 25 17:35:26 EST 2013
User: group
Dark Spectrum Present: No
Reference Spectrum Present: No
Number of Sampled Component Spectra: 1
Spectrometers: USB2E7196
Integration Time (usec): 52000 (USB2E7196)
Spectra Averaged: 20 (USB2E7196)
Boxcar Smoothing: 10 (USB2E7196)
Correct for Electrical Dark: No (USB2E7196)
Strobe/Lamp Enabled: No (USB2E7196)
Correct for Detector Non-linearity: No (USB2E7196)
Correct for Stray Light: No (USB2E7196)
Number of Pixels in Processed Spectrum: 2048
>>>>>Begin Processed Spectral Data<<<<<
339.09	0.00
339.48	198.25
339.86	200.55
340.24	201.30
340.63	203.30
341.01	207.60
341.39	207.35
341.78	207.80
342.16	207.80
342.54	208.00
342.93	197.99
343.31	207.99
343.69	208.52
344.07	208.92
344.46	209.32
344.84	209.65
345.22	209.84
345.60	210.03
345.99	210.21
346.37	210.34
346.75	210.45
347.13	210.49
347.52	210.57
347.90	210.67
348.28	210.69
348.66	210.72
349.05	210.79
349.43	210.85
349.81	210.95
350.19	211.00
350.57	211.10
350.96	211.20
351.34	211.26
351.72	211.37
352.10	211.52
352.48	211.60
352.87	211.72
353.25	211.71
353.63	211.73
354.01	211.75
354.39	211.83
354.77	211.94
355.15	212.03
355.54	212.05
355.92	212.12
356.30	212.21
356.68	212.38
357.06	212.43
357.44	212.41
357.82	212.50
358.20	212.61
358.58	212.64
358.97	212.73
359.35	212.84
359.73	212.94
360.11	213.00
360.49	213.10
360.87	213.12
361.25	213.27
361.63	213.47
362.01	213.54
362.39	213.58
362.77	213.70
363.15	213.81
363.53	213.87
363.91	213.84
364.29	213.90
364.67	213.88
365.05	213.86
365.43	214.05
365.81	214.05
366.19	214.19
366.57	214.30
366.95	214.33
367.33	214.40
367.71	214.44
368.09	214.50
368.47	214.50
368.85	214.54
369.23	214.57
369.61	214.48
369.99	214.56
370.37	214.63
370.75	214.65
371.13	214.65
371.51	214.61
371.89	214.64
372.27	214.64
372.65	214.60
373.03	214.62
373.41	214.54
373.78	214.48
374.16	214.31
374.54	214.24
374.92	214.25
375.30	214.08
375.68	214.04
376.06	214.06
376.44	214.02
376.82	214.05
377.19	213.97
377.57	213.88
377.95	213.75
378.33	213.65
378.71	213.52
379.09	213.46
379.47	213.45
379.84	213.43
380.22	213.41
380.60	213.29
380.98	213.25
381.36	213.19
381.73	213.14
382.11	213.10
382.49	213.03
382.87	212.90
383.25	212.95
383.62	212.99
384.00	212.80
384.38	212.71
384.76	212.58
385.13	212.58
385.51	212.56
385.89	212.50
386.27	212.46
386.64	212.48
387.02	212.42
387.40	212.35
387.78	212.30
388.15	212.18
388.53	212.15
388.91	212.10
389.29	212.05
389.66	212.01
390.04	212.02
390.42	212.01
390.79	211.96
391.17	211.91
391.55	211.75
391.92	211.79
392.30	211.83
392.68	211.77
393.05	211.80
393.43	211.84
393.81	211.80
394.18	211.80
394.56	211.71
394.94	211.68
395.31	211.66
395.69	211.68
396.06	211.78
396.44	211.74
396.82	211.78
397.19	211.92
397.57	211.94
397.95	211.96
398.32	211.94
398.70	212.05
399.07	212.16
399.45	212.24
399.82	212.23
400.20	212.20
400.58	212.28
400.95	212.27
401.33	212.32
401.70	212.57
402.08	212.70
402.45	212.83
402.83	212.97
403.20	213.10
403.58	213.13
403.95	213.31
404.33	213.47
404.71	213.50
405.08	213.66
405.46	213.78
405.83	213.97
406.21	214.09
406.58	214.18
406.96	214.24
407.33	214.36
407.70	214.55
408.08	214.92
408.45	215.17
408.83	215.39
409.20	215.58
409.58	215.74
409.95	215.99
410.33	216.28
410.70	216.48
411.08	216.75
411.45	217.16
411.82	217.42
412.20	217.89
412.57	218.49
412.95	218.82
413.32	219.43
413.69	219.86
414.07	220.46
414.44	221.11
414.82	221.85
415.19	222.61
415.56	223.38
415.94	224.08
416.31	225.07
416.68	225.94
417.06	226.89
417.43	227.81
417.81	228.88
418.18	230.01
418.55	231.24
418.93	232.64
419.30	233.90
419.67	235.30
420.04	236.69
420.42	238.14
420.79	239.93
421.16	241.63
421.54	243.53
421.91	245.41
422.28	247.33
422.66	249.28
423.03	251.30
423.40	253.43
423.77	255.73
424.15	257.91
424.52	260.21
424.89	262.88
425.26	265.41
425.64	267.80
426.01	270.38
426.38	273.13
426.75	275.78
427.13	278.64
427.50	281.69
427.87	284.80
428.24	287.93
428.61	290.81
428.99	294.05
429.36	297.55
429.73	301.06
430.10	304.57
430.47	308.20
430.85	311.95
431.22	315.85
431.59	319.92
431.96	323.85
432.33	328.32
432.70	332.55
433.08	337.54
433.45	342.25
433.82	346.74
434.19	351.85
434.56	356.99
434.93	361.90
435.30	366.66
435.68	371.95
436.05	377.25
436.42	382.41
436.79	387.13
437.16	392.25
437.53	397.55
437.90	402.84
438.27	408.03
438.64	413.45
439.01	418.37
439.38	422.82
439.75	427.05
440.13	431.90
440.50	436.37
440.87	440.01
441.24	443.90
441.61	448.28
441.98	451.42
442.35	454.90
442.72	458.57
443.09	462.10
443.46	464.20
443.83	465.41
444.20	466.57
444.57	468.38
444.94	469.06
445.31	469.80
445.68	470.58
446.05	470.84
446.42	470.11
446.79	469.36
447.16	468.48
447.53	467.96
447.90	465.81
448.27	463.70
448.64	460.86
449.01	458.63
449.37	454.98
449.74	451.51
450.11	447.41
450.48	442.90
450.85	438.25
451.22	434.25
451.59	430.47
451.96	426.96
452.33	422.18
452.70	417.90
453.07	412.80
453.43	407.51
453.80	402.51
454.17	397.67
454.54	393.10
454.91	388.28
455.28	383.46
455.65	378.94
456.02	374.58
456.38	370.76
456.75	366.12
457.12	362.27
457.49	358.39
457.86	354.66
458.23	351.31
458.59	347.80
458.96	344.27
459.33	341.09
459.70	337.81
460.07	335.20
460.43	332.31
460.80	329.56
461.17	327.16
461.54	324.60
461.91	322.29
462.27	319.96
462.64	317.99
463.01	315.74
463.38	313.70
463.74	311.50
464.11	309.55
464.48	307.88
464.85	306.02
465.21	304.65
465.58	303.15
465.95	301.45
466.32	299.96
466.68	298.54
467.05	297.11
467.42	295.73
467.78	294.21
468.15	292.79
468.52	291.84
468.88	290.45
469.25	289.20
469.62	288.30
469.98	287.21
470.35	286.17
470.72	285.31
471.08	284.37
471.45	283.60
471.82	282.89
472.18	282.09
472.55	281.53
472.92	280.66
473.28	279.98
473.65	279.37
474.02	278.82
474.38	278.36
474.75	278.09
475.11	277.70
475.48	277.50
475.85	277.30
476.21	277.05
476.58	276.91
476.94	276.95
477.31	276.71
477.67	276.70
478.04	276.80
478.41	276.93
478.77	277.14
479.14	277.19
479.50	277.42
479.87	277.68
480.23	278.08
480.60	278.50
480.96	278.94
481.33	279.52
481.69	280.08
482.06	280.73
482.42	281.32
482.79	282.10
483.15	282.95
483.52	283.90
483.88	284.81
484.25	285.87
484.61	286.96
484.98	288.25
485.34	289.60
485.71	290.82
486.07	292.21
486.44	293.57
486.80	295.12
487.17	296.67
487.53	298.42
487.90	300.21
488.26	302.18
488.62	304.25
488.99	306.26
489.35	308.46
489.72	310.76
490.08	313.26
490.44	315.80
490.81	318.43
491.17	321.09
491.54	324.05
491.90	327.06
492.26	330.26
492.63	333.49
492.99	336.95
493.36	340.71
493.72	344.53
494.08	348.59
494.45	352.96
494.81	357.52
495.17	362.07
495.54	366.93
495.90	371.94
496.26	377.08
496.63	382.71
496.99	388.54
497.35	394.56
497.72	400.75
498.08	407.21
498.44	413.96
498.80	421.18
499.17	428.62
499.53	436.36
499.89	444.37
500.26	452.66
500.62	460.93
500.98	469.76
501.34	478.91
501.71	488.40
502.07	498.19
502.43	508.16
502.79	518.52
503.16	529.09
503.52	540.12
503.88	551.63
504.24	563.05
504.60	574.85
504.97	587.13
505.33	599.76
505.69	613.34
506.05	626.89
506.41	640.43
506.78	654.29
507.14	668.36
507.50	682.85
507.86	697.77
508.22	713.28
508.59	728.79
508.95	744.85
509.31	760.99
509.67	777.52
510.03	794.60
510.39	812.26
510.75	830.26
511.12	848.40
511.48	866.71
511.84	885.69
512.20	904.50
512.56	923.90
512.92	943.55
513.28	963.01
513.64	982.86
514.00	1002.79
514.37	1023.12
514.73	1044.30
515.09	1065.33
515.45	1086.20
515.81	1107.36
516.17	1128.76
516.53	1150.25
516.89	1172.15
517.25	1193.92
517.61	1215.50
517.97	1237.02
518.33	1258.62
518.69	1280.35
519.05	1302.77
519.41	1324.94
519.77	1348.01
520.13	1370.04
520.49	1392.25
520.85	1414.95
521.21	1437.59
521.57	1460.98
521.93	1483.24
522.29	1506.06
522.65	1528.66
523.01	1551.60
523.37	1574.02
523.73	1596.34
524.09	1618.74
524.45	1640.99
524.81	1663.46
525.17	1686.21
525.53	1708.83
525.89	1731.30
526.25	1753.70
526.61	1775.26
526.97	1797.04
527.33	1818.28
527.68	1840.20
528.04	1861.60
528.40	1882.04
528.76	1903.10
529.12	1923.95
529.48	1945.75
529.84	1966.47
530.20	1987.12
530.56	2007.88
530.91	2028.96
531.27	2049.89
531.63	2070.34
531.99	2090.64
532.35	2110.28
532.71	2129.71
533.07	2149.75
533.42	2168.62
533.78	2187.59
534.14	2205.79
534.50	2223.39
534.86	2241.57
535.21	2258.57
535.57	2276.44
535.93	2293.83
536.29	2310.89
536.65	2327.62
537.00	2343.30
537.36	2358.66
537.72	2374.26
538.08	2389.33
538.44	2404.68
538.79	2420.32
539.15	2435.44
539.51	2450.52
539.87	2465.86
540.22	2480.61
540.58	2495.38
540.94	2510.15
541.29	2523.55
541.65	2536.37
542.01	2550.15
542.37	2562.20
542.72	2574.73
543.08	2585.89
543.44	2598.27
543.79	2608.38
544.15	2618.63
544.51	2630.09
544.87	2641.28
545.22	2650.53
545.58	2659.63
545.94	2667.03
546.29	2673.09
546.65	2679.27
547.01	2685.28
547.36	2691.28
547.72	2696.73
548.07	2700.75
548.43	2704.57
548.79	2708.24
549.14	2713.25
549.50	2717.31
549.86	2721.80
550.21	2726.10
550.57	2730.57
550.92	2733.15
551.28	2736.20
551.64	2739.41
551.99	2742.06
552.35	2743.70
552.70	2746.89
553.06	2749.66
553.41	2752.86
553.77	2756.50
554.13	2758.84
554.48	2760.76
554.84	2762.10
555.19	2762.96
555.55	2763.86
555.90	2764.99
556.26	2766.11
556.61	2765.98
556.97	2764.81
557.32	2764.10
557.68	2762.57
558.03	2761.09
558.39	2759.70
558.74	2759.59
559.10	2758.18
559.45	2755.93
559.81	2755.07
560.16	2752.24
560.52	2749.61
560.87	2746.93
561.23	2743.21
561.58	2741.19
561.94	2738.19
562.29	2734.88
562.64	2733.20
563.00	2730.62
563.35	2728.36
563.71	2726.46
564.06	2724.41
564.42	2723.08
564.77	2720.89
565.12	2718.91
565.48	2715.76
565.83	2713.06
566.19	2710.00
566.54	2705.65
566.89	2701.89
567.25	2698.20
567.60	2695.08
567.96	2691.66
568.31	2687.98
568.66	2684.30
569.02	2679.34
569.37	2674.48
569.72	2670.93
570.08	2664.97
570.43	2659.22
570.78	2653.08
571.14	2646.72
571.49	2639.98
571.84	2633.57
572.20	2626.76
572.55	2620.10
572.90	2613.46
573.26	2606.36
573.61	2598.87
573.96	2592.42
574.31	2584.63
574.67	2576.14
575.02	2567.52
575.37	2558.93
575.72	2549.66
576.08	2541.78
576.43	2533.25
576.78	2525.49
577.13	2516.74
577.49	2508.69
577.84	2501.28
578.19	2493.90
578.54	2486.19
578.90	2479.26
579.25	2470.32
579.60	2461.25
579.95	2451.82
580.30	2443.49
580.66	2435.33
581.01	2426.22
581.36	2417.05
581.71	2408.96
582.06	2400.33
582.42	2392.02
582.77	2382.83
583.12	2373.82
583.47	2365.23
583.82	2356.88
584.17	2347.49
584.53	2337.98
584.88	2329.00
585.23	2319.71
585.58	2309.82
585.93	2300.15
586.28	2290.93
586.63	2282.60
586.98	2273.90
587.34	2265.60
587.69	2256.77
588.04	2247.38
588.39	2239.31
588.74	2230.41
589.09	2221.53
589.44	2211.97
589.79	2203.48
590.14	2195.62
590.49	2187.57
590.84	2178.27
591.19	2169.91
591.54	2160.99
591.89	2151.18
592.25	2142.05
592.60	2132.50
592.95	2122.90
593.30	2113.34
593.65	2103.15
594.00	2092.73
594.35	2084.34
594.70	2074.67
595.05	2065.55
595.40	2056.56
595.75	2046.51
596.10	2037.79
596.45	2028.59
596.80	2020.38
597.15	2011.69
597.50	2002.08
597.85	1993.20
598.19	1984.46
598.54	1975.73
598.89	1967.71
599.24	1961.14
599.59	1953.62
599.94	1946.32
600.29	1938.50
600.64	1930.55
600.99	1922.25
601.34	1915.01
601.69	1906.05
602.04	1898.25
602.39	1889.86
602.74	1882.09
603.08	1875.54
603.43	1868.60
603.78	1860.80
604.13	1852.85
604.48	1844.76
604.83	1837.94
605.18	1830.90
605.53	1823.03
605.87	1815.40
606.22	1808.27
606.57	1799.68
606.92	1791.35
607.27	1783.18
607.62	1775.77
607.96	1768.84
608.31	1762.43
608.66	1754.64
609.01	1747.21
609.36	1739.39
609.70	1731.57
610.05	1723.55
610.40	1714.90
610.75	1705.72
611.10	1698.16
611.44	1689.06
611.79	1679.89
612.14	1670.27
612.49	1660.56
612.83	1651.81
613.18	1641.83
613.53	1632.20
613.88	1622.52
614.22	1613.39
614.57	1603.94
614.92	1594.61
615.27	1585.08
615.61	1575.15
615.96	1566.10
616.31	1557.27
616.65	1549.16
617.00	1540.44
617.35	1531.52
617.70	1522.35
618.04	1513.47
618.39	1503.61
618.74	1495.35
619.08	1486.53
619.43	1478.57
619.78	1470.70
620.12	1462.34
620.47	1454.66
620.82	1445.88
621.16	1437.52
621.51	1428.90
621.85	1420.40
622.20	1411.57
622.55	1403.01
622.89	1394.61
623.24	1386.50
623.59	1378.03
623.93	1369.28
624.28	1360.91
624.62	1352.88
624.97	1344.84
625.32	1336.79
625.66	1329.65
626.01	1322.14
626.35	1315.03
626.70	1307.02
627.04	1299.35
627.39	1291.80
627.73	1284.20
628.08	1277.49
628.43	1270.13
628.77	1262.63
629.12	1255.42
629.46	1249.01
629.81	1241.64
630.15	1234.28
630.50	1226.83
630.84	1219.41
631.19	1212.16
631.53	1205.50
631.88	1197.86
632.22	1190.30
632.57	1183.42
632.91	1175.77
633.26	1168.03
633.60	1160.57
633.95	1153.76
634.29	1146.44
634.64	1139.62
634.98	1132.32
635.32	1125.09
635.67	1118.59
636.01	1111.95
636.36	1105.05
636.70	1098.31
637.05	1091.84
637.39	1085.46
637.73	1079.10
638.08	1073.10
638.42	1066.93
638.77	1060.26
639.11	1053.94
639.45	1047.86
639.80	1041.20
640.14	1034.50
640.49	1028.31
640.83	1022.18
641.17	1015.52
641.52	1009.27
641.86	1002.68
642.20	996.53
642.55	989.72
642.89	983.19
643.23	976.84
643.58	970.85
643.92	964.19
644.26	957.87
644.61	951.94
644.95	945.74
645.29	939.42
645.64	932.98
645.98	926.60
646.32	920.67
646.66	914.23
647.01	908.21
647.35	902.46
647.69	896.16
648.04	890.26
648.38	884.19
648.72	878.17
649.06	872.08
649.41	865.95
649.75	860.23
650.09	854.39
650.43	848.32
650.78	842.03
651.12	835.84
651.46	829.90
651.80	823.80
652.14	817.76
652.49	811.81
652.83	805.92
653.17	799.77
653.51	793.63
653.85	787.99
654.20	782.21
654.54	776.36
654.88	770.86
655.22	764.71
655.56	758.91
655.90	752.99
656.25	747.25
656.59	741.80
656.93	736.55
657.27	731.17
657.61	725.73
657.95	720.65
658.29	715.50
658.64	710.34
658.98	705.01
659.32	699.54
659.66	694.17
660.00	688.88
660.34	683.73
660.68	678.67
661.02	673.65
661.36	668.82
661.70	663.94
662.05	659.07
662.39	654.78
662.73	650.30
663.07	645.98
663.41	641.56
663.75	636.88
664.09	632.00
664.43	627.38
664.77	622.87
665.11	618.29
665.45	613.91
665.79	609.33
666.13	605.03
666.47	600.77
666.81	596.55
667.15	592.42
667.49	588.49
667.83	584.69
668.17	580.77
668.51	576.81
668.85	573.01
669.19	569.30
669.53	565.22
669.87	561.23
670.21	557.31
670.55	553.34
670.89	549.89
671.23	546.45
671.57	542.91
671.91	539.47
672.25	535.79
672.58	532.26
672.92	528.94
673.26	525.65
673.60	522.50
673.94	519.14
674.28	515.78
674.62	512.66
674.96	509.34
675.30	506.24
675.64	502.98
675.97	499.76
676.31	496.79
676.65	493.87
676.99	491.13
677.33	488.19
677.67	485.33
678.01	482.14
678.34	479.13
678.68	476.16
679.02	473.14
679.36	470.38
679.70	467.47
680.04	464.50
680.37	461.45
680.71	458.60
681.05	455.93
681.39	453.30
681.73	450.52
682.06	447.97
682.40	445.33
682.74	442.59
683.08	440.13
683.42	437.42
683.75	434.86
684.09	432.12
684.43	429.65
684.77	427.05
685.10	424.58
685.44	422.02
685.78	419.56
686.12	417.33
686.45	414.95
686.79	412.67
687.13	410.60
687.46	408.43
687.80	406.27
688.14	403.91
688.48	401.63
688.81	399.34
689.15	397.11
689.49	394.74
689.82	392.65
690.16	390.17
690.50	387.82
690.83	385.42
691.17	383.22
691.51	380.89
691.84	378.76
692.18	376.76
692.52	374.77
692.85	372.87
693.19	370.88
693.52	369.02
693.86	366.95
694.20	364.98
694.53	363.06
694.87	360.97
695.21	359.12
695.54	357.12
695.88	355.20
696.21	353.18
696.55	351.45
696.88	349.66
697.22	347.91
697.56	346.35
697.89	344.77
698.23	343.17
698.56	341.55
698.90	340.10
699.23	338.34
699.57	336.68
699.90	334.99
700.24	333.29
700.58	331.56
700.91	330.06
701.25	328.53
701.58	327.14
701.92	325.71
702.25	324.26
702.59	323.01
702.92	321.76
703.26	320.43
703.59	319.14
703.93	317.97
704.26	316.83
704.60	315.39
704.93	314.13
705.26	312.81
705.60	311.62
705.93	310.27
706.27	309.03
706.60	307.94
706.94	306.88
707.27	305.81
707.61	304.65
707.94	303.53
708.27	302.30
708.61	301.04
708.94	299.94
709.28	298.88
709.61	297.73
709.94	296.61
710.28	295.55
710.61	294.54
710.95	293.30
711.28	292.32
711.61	291.37
711.95	290.31
712.28	289.34
712.61	288.36
712.95	287.46
713.28	286.64
713.61	285.61
713.95	284.60
714.28	283.58
714.61	282.69
714.95	281.71
715.28	280.77
715.61	279.81
715.95	278.89
716.28	277.90
716.61	277.10
716.95	276.23
717.28	275.41
717.61	274.50
717.94	273.81
718.28	272.92
718.61	272.15
718.94	271.45
719.27	270.63
719.61	269.85
719.94	269.10
720.27	268.34
720.60	267.63
720.94	266.95
721.27	266.29
721.60	265.75
721.93	265.12
722.27	264.56
722.60	264.05
722.93	263.42
723.26	262.87
723.59	262.23
723.93	261.63
724.26	261.08
724.59	260.55
724.92	259.98
725.25	259.39
725.59	258.87
725.92	258.32
726.25	257.83
726.58	257.32
726.91	256.89
727.24	256.36
727.57	255.89
727.91	255.27
728.24	254.79
728.57	254.19
728.90	253.77
729.23	253.27
729.56	252.79
729.89	252.38
730.22	251.94
730.55	251.50
730.89	251.20
731.22	250.70
731.55	250.13
731.88	249.63
732.21	249.22
732.54	248.74
732.87	248.27
733.20	247.86
733.53	247.36
733.86	246.80
734.19	246.39
734.52	246.04
734.85	245.77
735.18	245.38
735.51	245.02
735.84	244.60
736.17	244.31
736.50	243.84
736.83	243.65
737.16	243.30
737.49	242.88
737.82	242.40
738.15	242.12
738.48	241.81
738.81	241.43
739.14	240.98
739.47	240.65
739.80	240.30
740.13	240.00
740.46	239.71
740.79	239.40
741.12	239.00
741.45	238.64
741.78	238.30
742.11	237.91
742.44	237.51
742.77	237.22
743.10	236.84
743.43	236.58
743.75	236.09
744.08	236.00
744.41	235.65
744.74	235.30
745.07	234.89
745.40	234.63
745.73	234.44
746.06	234.14
746.39	233.80
746.71	233.55
747.04	233.30
747.37	233.11
747.70	232.82
748.03	232.51
748.36	232.23
748.68	231.97
749.01	231.83
749.34	231.53
749.67	231.33
750.00	231.08
750.33	230.87
750.65	230.65
750.98	230.19
751.31	229.94
751.64	229.76
751.97	229.64
752.29	229.42
752.62	229.08
752.95	228.89
753.28	228.72
753.60	228.43
753.93	228.17
754.26	227.93
754.59	227.76
754.91	227.57
755.24	227.39
755.57	227.24
755.90	226.95
756.22	226.82
756.55	226.61
756.88	226.46
757.20	226.21
757.53	225.89
757.86	225.70
758.19	225.60
758.51	225.45
758.84	225.20
759.17	225.06
759.49	224.94
759.82	224.89
760.15	224.68
760.47	224.62
760.80	224.45
761.13	224.26
761.45	224.08
761.78	223.95
762.11	223.82
762.43	223.67
762.76	223.52
763.08	223.38
763.41	223.29
763.74	223.10
764.06	223.00
764.39	222.90
764.71	222.73
765.04	222.53
765.37	222.35
765.69	222.19
766.02	222.00
766.34	221.89
766.67	221.68
767.00	221.61
767.32	221.52
767.65	221.48
767.97	221.35
768.30	221.20
768.62	221.09
768.95	220.93
769.27	220.75
769.60	220.71
769.92	220.57
770.25	220.36
770.57	220.20
770.90	220.03
771.22	219.88
771.55	219.86
771.87	219.73
772.20	219.60
772.52	219.70
772.85	219.83
773.17	219.73
773.50	219.66
773.82	219.54
774.15	219.35
774.47	219.14
774.80	219.05
775.12	219.03
775.45	218.96
775.77	218.95
776.09	218.90
776.42	218.80
776.74	218.72
777.07	218.62
777.39	218.59
777.72	218.55
778.04	218.52
778.36	218.41
778.69	218.43
779.01	218.34
779.33	218.02
779.66	217.74
779.98	217.61
780.31	217.45
780.63	217.44
780.95	217.38
781.28	217.33
781.60	217.21
781.92	217.13
782.25	216.98
782.57	216.84
782.89	216.76
783.22	216.67
783.54	216.60
783.86	216.53
784.19	216.36
784.51	216.26
784.83	216.21
785.16	216.06
785.48	215.96
785.80	215.92
786.12	215.94
786.45	215.93
786.77	215.85
787.09	215.87
787.42	215.76
787.74	215.79
788.06	215.79
788.38	215.75
788.71	215.63
789.03	215.62
789.35	215.62
789.67	215.47
789.99	215.35
790.32	215.26
790.64	215.25
790.96	215.40
791.28	215.31
791.61	215.28
791.93	215.32
792.25	215.26
792.57	215.37
792.89	215.27
793.21	215.16
793.54	215.15
793.86	215.16
794.18	215.16
794.50	215.02
794.82	214.94
795.14	214.93
795.47	215.00
795.79	214.99
796.11	214.92
796.43	214.97
796.75	214.96
797.07	215.00
797.39	214.96
797.71	214.79
798.04	214.80
798.36	214.68
798.68	214.62
799.00	214.61
799.32	214.46
799.64	214.46
799.96	214.49
800.28	214.47
800.60	214.30
800.92	214.23
801.24	214.19
801.56	214.17
801.89	214.08
802.21	214.00
802.53	213.94
802.85	213.94
803.17	214.03
803.49	213.96
803.81	213.89
804.13	213.89
804.45	213.85
804.77	213.90
805.09	214.00
805.41	213.98
805.73	213.90
806.05	213.84
806.37	213.87
806.69	213.77
807.01	213.72
807.33	213.71
807.65	213.60
807.97	213.68
808.28	213.56
808.60	213.55
808.92	213.51
809.24	213.58
809.56	213.59
809.88	213.43
810.20	213.50
810.52	213.52
810.84	213.48
811.16	213.45
811.48	213.28
811.80	213.29
812.12	213.33
812.43	213.37
812.75	213.33
813.07	213.27
813.39	213.26
813.71	213.26
814.03	213.27
814.35	213.31
814.67	213.22
814.98	213.26
815.30	213.29
815.62	213.29
815.94	213.19
816.26	213.06
816.58	213.01
816.89	212.95
817.21	212.90
817.53	212.89
817.85	212.84
818.17	212.86
818.48	212.81
818.80	212.76
819.12	212.72
819.44	212.75
819.76	212.75
820.07	212.81
820.39	212.79
820.71	212.80
821.03	212.78
821.34	212.68
821.66	212.73
821.98	212.69
822.30	212.59
822.61	212.69
822.93	212.68
823.25	212.64
823.57	212.66
823.88	212.73
824.20	212.69
824.52	212.77
824.83	212.78
825.15	212.74
825.47	212.68
825.79	212.67
826.10	212.65
826.42	212.60
826.74	212.52
827.05	212.53
827.37	212.51
827.69	212.52
828.00	212.61
828.32	212.51
828.64	212.55
828.95	212.65
829.27	212.55
829.58	212.63
829.90	212.68
830.22	212.65
830.53	212.51
830.85	212.45
831.17	212.34
831.48	212.33
831.80	212.25
832.11	212.24
832.43	212.26
832.75	212.25
833.06	212.37
833.38	212.35
833.69	212.27
834.01	212.32
834.32	212.35
834.64	212.29
834.96	212.34
835.27	212.32
835.59	212.26
835.90	212.22
836.22	212.18
836.53	212.18
836.85	212.15
837.16	212.35
837.48	212.43
837.79	212.50
838.11	212.52
838.42	212.58
838.74	212.63
839.05	212.55
839.37	212.53
839.68	212.38
840.00	212.35
840.31	212.43
840.63	212.28
840.94	212.16
841.26	212.13
841.57	212.04
841.88	212.00
842.20	211.91
842.51	211.88
842.83	211.85
843.14	211.95
843.46	211.96
843.77	211.86
844.08	211.81
844.40	211.75
844.71	211.74
845.03	211.70
845.34	211.63
845.65	211.58
845.97	211.59
846.28	211.68
846.60	211.72
846.91	211.63
847.22	211.67
847.54	211.69
847.85	211.67
848.16	211.70
848.48	211.68
848.79	211.82
849.10	211.85
849.42	211.82
849.73	211.66
850.04	211.61
850.36	211.56
850.67	211.65
850.98	211.62
851.30	211.62
851.61	211.62
851.92	211.55
852.23	211.66
852.55	211.58
852.86	211.48
853.17	211.50
853.49	211.58
853.80	211.59
854.11	211.65
854.42	211.74
854.74	211.70
855.05	211.69
855.36	211.57
855.67	211.52
855.99	211.53
856.30	211.70
856.61	211.65
856.92	211.60
857.23	211.49
857.55	211.49
857.86	211.41
858.17	211.45
858.48	211.47
858.79	211.40
859.11	211.41
859.42	211.39
859.73	211.35
860.04	211.30
860.35	211.29
860.66	211.15
860.98	211.09
861.29	211.10
861.60	211.11
861.91	211.23
862.22	211.30
862.53	211.21
862.84	211.00
863.16	211.06
863.47	211.04
863.78	211.03
864.09	211.05
864.40	211.06
864.71	211.02
865.02	211.05
865.33	211.07
865.64	211.08
865.95	211.11
866.27	211.13
866.58	211.20
866.89	211.22
867.20	211.27
867.51	211.22
867.82	211.20
868.13	211.21
868.44	211.08
868.75	211.03
869.06	211.06
869.37	211.15
869.68	211.13
869.99	211.15
870.30	211.20
870.61	211.26
870.92	211.30
871.23	211.30
871.54	211.35
871.85	211.41
872.16	211.41
872.47	211.42
872.78	211.43
873.09	211.34
873.40	211.35
873.71	211.39
874.02	211.39
874.33	211.43
874.64	211.38
874.95	211.48
875.26	211.50
875.56	211.58
875.87	211.53
876.18	211.52
876.49	211.72
876.80	211.75
877.11	211.63
877.42	211.64
877.73	211.68
878.04	211.62
878.35	211.61
878.66	211.64
878.96	211.67
879.27	211.63
879.58	211.69
879.89	211.65
880.20	211.72
880.51	211.72
880.82	211.72
881.12	211.75
881.43	211.65
881.74	211.60
882.05	211.52
882.36	211.58
882.67	211.56
882.97	211.40
883.28	211.32
883.59	211.38
883.90	211.42
884.21	211.36
884.51	211.32
884.82	211.30
885.13	211.32
885.44	211.31
885.74	211.26
886.05	211.16
886.36	211.19
886.67	211.12
886.98	211.19
887.28	211.17
887.59	211.18
887.90	211.19
888.20	211.22
888.51	211.25
888.82	211.21
889.13	211.15
889.43	211.22
889.74	211.29
890.05	211.22
890.35	211.13
890.66	211.13
890.97	211.14
891.28	211.01
891.58	210.98
891.89	210.90
892.20	210.92
892.50	210.89
892.81	210.91
893.12	210.83
893.42	210.80
893.73	210.82
894.04	210.75
894.34	210.74
894.65	210.74
894.95	210.66
895.26	210.60
895.57	210.75
895.87	210.61
896.18	210.57
896.48	210.60
896.79	210.66
897.10	210.70
897.40	210.72
897.71	210.85
898.01	210.76
898.32	210.78
898.63	210.79
898.93	210.86
899.24	210.84
899.54	210.91
899.85	210.87
900.15	210.86
900.46	210.99
900.76	211.00
901.07	210.95
901.38	211.00
901.68	211.07
901.99	211.00
902.29	210.98
902.60	210.96
902.90	210.95
903.21	210.90
903.51	210.80
903.82	210.83
904.12	210.81
904.43	210.86
904.73	210.90
905.03	210.89
905.34	210.98
905.64	210.99
905.95	210.94
906.25	210.95
906.56	210.96
906.86	210.92
907.17	210.94
907.47	210.97
907.77	211.00
908.08	210.90
908.38	210.90
908.69	210.93
908.99	210.96
909.30	210.96
909.60	211.01
909.90	211.07
910.21	211.02
910.51	211.00
910.81	210.99
911.12	210.95
911.42	210.95
911.73	210.83
912.03	210.82
912.33	210.86
912.64	210.90
912.94	210.85
913.24	210.81
913.55	210.74
913.85	210.73
914.15	210.71
914.46	210.76
914.76	210.82
915.06	210.86
915.37	210.91
915.67	210.89
915.97	210.89
916.27	210.83
916.58	210.85
916.88	210.88
917.18	210.87
917.49	210.96
917.79	211.01
918.09	211.06
918.39	211.09
918.70	211.13
919.00	211.03
919.30	211.07
919.60	211.04
919.91	211.05
920.21	211.03
920.51	211.00
920.81	211.00
921.12	211.00
921.42	210.97
921.72	210.93
922.02	210.94
922.32	210.98
922.63	211.00
922.93	211.08
923.23	211.07
923.53	211.11
923.83	211.07
924.13	211.08
924.44	211.03
924.74	211.13
925.04	211.16
925.34	211.26
925.64	211.25
925.94	211.23
926.24	211.30
926.55	211.27
926.85	211.28
927.15	211.21
927.45	211.20
927.75	211.18
928.05	211.17
928.35	211.15
928.65	211.15
928.95	211.12
929.26	211.10
929.56	211.19
929.86	211.19
930.16	211.13
930.46	211.12
930.76	211.13
931.06	211.00
931.36	210.94
931.66	210.95
931.96	211.00
932.26	211.02
932.56	210.99
932.86	211.03
933.16	211.11
933.46	211.21
933.76	211.23
934.06	211.23
934.36	211.35
934.66	211.40
934.96	211.34
935.26	211.33
935.56	211.25
935.86	211.12
936.16	211.09
936.46	211.10
936.76	211.04
937.06	211.04
937.36	211.08
937.66	211.08
937.96	211.09
938.26	211.05
938.56	211.11
938.86	211.13
939.16	211.17
939.46	211.16
939.76	211.14
940.06	211.14
940.35	211.15
940.65	211.05
940.95	211.02
941.25	211.02
941.55	211.09
941.85	211.15
942.15	211.25
942.45	211.28
942.75	211.29
943.04	211.36
943.34	211.35
943.64	211.34
943.94	211.31
944.24	211.31
944.54	211.33
944.84	211.34
945.13	211.30
945.43	211.29
945.73	211.26
946.03	211.25
946.33	211.27
946.62	211.27
946.92	211.23
947.22	211.22
947.52	211.23
947.82	211.25
948.11	211.18
948.41	211.13
948.71	211.12
949.01	211.08
949.31	211.04
949.60	211.00
949.90	211.01
950.20	211.03
950.50	210.93
950.79	210.86
951.09	210.81
951.39	210.85
951.69	210.85
951.98	210.87
952.28	210.86
952.58	210.83
952.87	210.84
953.17	210.88
953.47	210.90
953.76	210.88
954.06	210.81
954.36	210.84
954.66	210.84
954.95	210.94
955.25	211.05
955.55	211.02
955.84	211.07
956.14	211.05
956.44	211.09
956.73	211.16
957.03	211.22
957.32	211.24
957.62	211.19
957.92	211.20
958.21	211.10
958.51	211.28
958.81	211.29
959.10	211.29
959.40	211.33
959.69	211.36
959.99	211.40
960.29	211.46
960.58	211.45
960.88	211.57
961.17	211.55
961.47	211.53
961.76	211.51
962.06	211.59
962.36	211.57
962.65	211.57
962.95	211.55
963.24	211.55
963.54	211.52
963.83	211.57
964.13	211.60
964.42	211.65
964.72	211.59
965.01	211.60
965.31	211.61
965.60	211.51
965.90	211.61
966.19	211.58
966.49	211.55
966.78	211.55
967.08	211.52
967.37	211.48
967.67	211.45
967.96	211.53
968.26	211.49
968.55	211.52
968.85	211.43
969.14	211.50
969.43	211.44
969.73	211.45
970.02	211.45
970.32	211.41
970.61	211.39
970.91	211.36
971.20	211.31
971.49	211.23
971.79	211.33
972.08	211.16
972.38	211.16
972.67	211.15
972.96	211.14
973.26	211.08
973.55	211.09
973.85	211.01
974.14	210.93
974.43	210.96
974.73	210.90
975.02	210.94
975.31	210.88
975.61	210.91
975.90	210.89
976.19	210.85
976.49	210.90
976.78	210.93
977.07	210.83
977.37	210.87
977.66	210.92
977.95	210.85
978.24	210.86
978.54	210.90
978.83	210.89
979.12	210.84
979.42	210.84
979.71	210.81
980.00	210.79
980.29	210.91
980.59	210.86
980.88	210.85
981.17	210.84
981.46	210.80
981.76	210.78
982.05	210.82
982.34	210.86
982.63	210.80
982.93	210.77
983.22	210.81
983.51	210.79
983.80	210.79
984.09	210.80
984.39	210.78
984.68	210.73
984.97	210.76
985.26	210.76
985.55	210.78
985.85	210.72
986.14	210.80
986.43	210.76
986.72	210.68
987.01	210.67
987.30	210.62
987.59	210.65
987.89	210.64
988.18	210.56
988.47	210.45
988.76	210.48
989.05	210.48
989.34	210.51
989.63	210.55
989.92	210.50
990.22	210.48
990.51	210.47
990.80	210.45
991.09	210.44
991.38	210.52
991.67	210.47
991.96	210.50
992.25	210.54
992.54	210.46
992.83	210.50
993.12	210.60
993.41	210.68
993.70	210.74
993.99	210.80
994.28	210.83
994.58	210.90
994.87	210.85
995.16	210.80
995.45	210.74
995.74	210.72
996.03	210.77
996.32	210.83
996.61	210.90
996.90	210.92
997.19	210.92
997.48	210.90
997.77	210.89
998.06	210.92
998.34	210.86
998.63	210.94
998.92	210.91
999.21	210.80
999.50	210.79
999.79	210.74
1000.08	210.73
1000.37	210.80
1000.66	210.81
1000.95	210.85
1001.24	210.88
1001.53	210.92
1001.82	210.82
1002.11	210.78
1002.40	210.78
1002.68	210.78
1002.97	210.84
1003.26	210.82
1003.55	210.76
1003.84	210.77
1004.13	210.82
1004.42	210.82
1004.71	210.79
1004.99	210.82
1005.28	210.90
1005.57	210.89
1005.86	210.86
1006.15	210.78
1006.44	210.70
1006.72	210.70
1007.01	210.75
1007.30	210.79
1007.59	210.72
1007.88	210.83
1008.17	210.84
1008.45	210.76
1008.74	210.71
1009.03	210.68
1009.32	210.63
1009.60	210.67
1009.89	210.67
1010.18	210.57
1010.47	210.53
1010.76	210.53
1011.04	210.55
1011.33	210.80
1011.62	210.84
1011.91	210.78
1012.19	210.88
1012.48	210.89
1012.77	210.85
1013.05	210.86
1013.34	210.85
1013.63	210.86
1013.92	210.85
1014.20	210.87
1014.49	210.86
1014.78	210.90
1015.06	210.80
1015.35	210.92
1015.64	210.89
1015.92	210.92
1016.21	210.90
1016.50	210.89
1016.78	210.90
1017.07	210.88
1017.36	210.61
1017.64	210.55
1017.93	210.64
1018.22	210.59
1018.50	210.57
1018.79	210.64
1019.08	210.52
1019.36	210.53
1019.65	210.55
1019.93	210.55
1020.22	210.52
1020.51	210.70
1020.79	210.65
1021.08	210.25
1021.36	209.90
1021.65	211.30
1021.94	209.75
1022.22	210.85
1022.51	211.05
1022.79	211.20
1023.08	210.10
1023.36	213.80
1023.65	209.90
>>>>>End Processed Spectral Data<<<<<
