SpectraSuite Data File
++++++++++++++++++++++++++++++++++++
Date: Mon Feb 25 17:34:22 EST 2013
User: group
Dark Spectrum Present: No
Reference Spectrum Present: No
Number of Sampled Component Spectra: 1
Spectrometers: USB2E7196
Integration Time (usec): 52000 (USB2E7196)
Spectra Averaged: 20 (USB2E7196)
Boxcar Smoothing: 10 (USB2E7196)
Correct for Electrical Dark: No (USB2E7196)
Strobe/Lamp Enabled: No (USB2E7196)
Correct for Detector Non-linearity: No (USB2E7196)
Correct for Stray Light: No (USB2E7196)
Number of Pixels in Processed Spectrum: 2048
>>>>>Begin Processed Spectral Data<<<<<
339.09	0.00
339.48	199.80
339.86	200.15
340.24	201.65
340.63	202.65
341.01	206.40
341.39	206.20
341.78	207.25
342.16	208.55
342.54	209.05
342.93	198.37
343.31	208.47
343.69	208.98
344.07	209.48
344.46	209.97
344.84	210.35
345.22	210.59
345.60	210.85
345.99	211.06
346.37	211.15
346.75	211.30
347.13	211.38
347.52	211.50
347.90	211.73
348.28	211.81
348.66	211.90
349.05	211.91
349.43	211.95
349.81	212.00
350.19	212.15
350.57	212.24
350.96	212.30
351.34	212.37
351.72	212.51
352.10	212.62
352.48	212.67
352.87	212.80
353.25	212.85
353.63	212.90
354.01	212.98
354.39	213.17
354.77	213.23
355.15	213.40
355.54	213.43
355.92	213.39
356.30	213.41
356.68	213.61
357.06	213.67
357.44	213.67
357.82	213.71
358.20	213.73
358.58	213.72
358.97	213.82
359.35	213.89
359.73	213.99
360.11	214.01
360.49	214.09
360.87	214.15
361.25	214.15
361.63	214.30
362.01	214.37
362.39	214.35
362.77	214.41
363.15	214.37
363.53	214.30
363.91	214.28
364.29	214.31
364.67	214.12
365.05	214.15
365.43	214.12
365.81	214.15
366.19	214.16
366.57	214.26
366.95	214.25
367.33	214.19
367.71	214.11
368.09	214.13
368.47	214.02
368.85	213.99
369.23	214.10
369.61	213.98
369.99	213.98
370.37	213.98
370.75	214.07
371.13	214.03
371.51	214.02
371.89	214.00
372.27	213.96
372.65	213.90
373.03	213.85
373.41	213.83
373.78	213.79
374.16	213.70
374.54	213.59
374.92	213.50
375.30	213.47
375.68	213.36
376.06	213.40
376.44	213.41
376.82	213.34
377.19	213.22
377.57	213.12
377.95	213.05
378.33	212.93
378.71	212.71
379.09	212.67
379.47	212.63
379.84	212.64
380.22	212.60
380.60	212.57
380.98	212.52
381.36	212.46
381.73	212.39
382.11	212.42
382.49	212.39
382.87	212.31
383.25	212.18
383.62	212.35
384.00	212.20
384.38	212.18
384.76	212.15
385.13	212.20
385.51	212.15
385.89	212.06
386.27	212.10
386.64	212.16
387.02	212.13
387.40	212.10
387.78	212.01
388.15	211.98
388.53	211.91
388.91	211.88
389.29	211.85
389.66	211.88
390.04	211.72
390.42	211.75
390.79	211.70
391.17	211.77
391.55	211.58
391.92	211.59
392.30	211.52
392.68	211.49
393.05	211.45
393.43	211.50
393.81	211.50
394.18	211.47
394.56	211.37
394.94	211.35
395.31	211.36
395.69	211.35
396.06	211.35
396.44	211.40
396.82	211.38
397.19	211.48
397.57	211.45
397.95	211.49
398.32	211.36
398.70	211.45
399.07	211.51
399.45	211.58
399.82	211.56
400.20	211.64
400.58	211.77
400.95	211.75
401.33	211.88
401.70	212.03
402.08	212.03
402.45	212.17
402.83	212.30
403.20	212.33
403.58	212.53
403.95	212.61
404.33	212.79
404.71	212.91
405.08	213.16
405.46	213.20
405.83	213.37
406.21	213.48
406.58	213.60
406.96	213.72
407.33	213.82
407.70	214.02
408.08	214.30
408.45	214.44
408.83	214.68
409.20	214.90
409.58	215.07
409.95	215.42
410.33	215.70
410.70	215.93
411.08	216.37
411.45	216.66
411.82	217.06
412.20	217.47
412.57	218.01
412.95	218.29
413.32	218.85
413.69	219.37
414.07	220.05
414.44	220.75
414.82	221.42
415.19	222.19
415.56	223.00
415.94	223.85
416.31	224.78
416.68	225.69
417.06	226.60
417.43	227.58
417.81	228.66
418.18	229.78
418.55	231.05
418.93	232.25
419.30	233.56
419.67	234.97
420.04	236.39
420.42	237.85
420.79	239.70
421.16	241.44
421.54	243.26
421.91	245.10
422.28	246.94
422.66	248.93
423.03	250.94
423.40	253.03
423.77	255.15
424.15	257.38
424.52	259.69
424.89	262.29
425.26	264.71
425.64	267.05
426.01	269.62
426.38	272.33
426.75	275.15
427.13	278.01
427.50	281.02
427.87	284.08
428.24	287.13
428.61	290.03
428.99	293.35
429.36	296.86
429.73	300.36
430.10	303.85
430.47	307.51
430.85	311.25
431.22	315.17
431.59	319.40
431.96	323.30
432.33	327.77
432.70	331.95
433.08	336.98
433.45	341.70
433.82	346.28
434.19	351.45
434.56	356.36
434.93	361.21
435.30	365.88
435.68	371.19
436.05	376.49
436.42	381.64
436.79	386.35
437.16	391.48
437.53	396.90
437.90	402.22
438.27	407.28
438.64	412.62
439.01	417.55
439.38	421.79
439.75	426.21
440.13	431.11
440.50	435.68
440.87	439.45
441.24	443.27
441.61	447.59
441.98	450.61
442.35	454.26
442.72	457.89
443.09	461.57
443.46	463.57
443.83	464.93
444.20	466.08
444.57	467.80
444.94	468.50
445.31	469.19
445.68	469.94
446.05	470.25
446.42	469.53
446.79	468.82
447.16	468.07
447.53	467.36
447.90	465.03
448.27	462.89
448.64	459.83
449.01	457.68
449.37	453.95
449.74	450.45
450.11	446.28
450.48	441.67
450.85	436.90
451.22	432.95
451.59	429.18
451.96	425.56
452.33	420.78
452.70	416.41
453.07	411.18
453.43	405.80
453.80	400.80
454.17	396.09
454.54	391.55
454.91	386.63
455.28	381.83
455.65	377.44
456.02	373.20
456.38	369.55
456.75	364.95
457.12	361.09
457.49	357.25
457.86	353.53
458.23	350.37
458.59	346.90
458.96	343.39
459.33	340.25
459.70	337.13
460.07	334.64
460.43	331.80
460.80	329.10
461.17	326.82
461.54	324.31
461.91	321.92
462.27	319.41
462.64	317.48
463.01	315.25
463.38	313.17
463.74	310.90
464.11	309.07
464.48	307.37
464.85	305.64
465.21	304.31
465.58	302.79
465.95	301.08
466.32	299.63
466.68	298.24
467.05	296.83
467.42	295.49
467.78	294.04
468.15	292.68
468.52	291.74
468.88	290.50
469.25	289.31
469.62	288.43
469.98	287.54
470.35	286.57
470.72	285.69
471.08	284.79
471.45	284.02
471.82	283.15
472.18	282.30
472.55	281.75
472.92	280.97
473.28	280.46
473.65	279.97
474.02	279.56
474.38	279.09
474.75	278.78
475.11	278.47
475.48	278.20
475.85	278.09
476.21	277.85
476.58	277.73
476.94	277.64
477.31	277.54
477.67	277.49
478.04	277.53
478.41	277.72
478.77	278.00
479.14	278.12
479.50	278.40
479.87	278.74
480.23	279.06
480.60	279.40
480.96	279.79
481.33	280.29
481.69	280.85
482.06	281.57
482.42	282.12
482.79	282.77
483.15	283.59
483.52	284.46
483.88	285.49
484.25	286.36
484.61	287.46
484.98	288.56
485.34	289.79
485.71	291.10
486.07	292.42
486.44	293.76
486.80	295.23
487.17	296.80
487.53	298.59
487.90	300.41
488.26	302.40
488.62	304.44
488.99	306.51
489.35	308.60
489.72	310.79
490.08	313.21
490.44	315.65
490.81	318.29
491.17	321.01
491.54	323.85
491.90	326.93
492.26	330.16
492.63	333.55
492.99	337.09
493.36	340.77
493.72	344.67
494.08	348.66
494.45	353.00
494.81	357.48
495.17	362.09
495.54	367.00
495.90	372.01
496.26	377.27
496.63	382.79
496.99	388.52
497.35	394.58
497.72	400.81
498.08	407.36
498.44	414.16
498.80	421.25
499.17	428.64
499.53	436.37
499.89	444.34
500.26	452.41
500.62	460.77
500.98	469.60
501.34	478.72
501.71	488.19
502.07	497.81
502.43	507.80
502.79	518.05
503.16	528.75
503.52	539.79
503.88	551.03
504.24	562.66
504.60	574.70
504.97	586.97
505.33	599.57
505.69	612.93
506.05	626.30
506.41	639.86
506.78	653.66
507.14	667.78
507.50	682.43
507.86	697.45
508.22	712.93
508.59	728.44
508.95	744.36
509.31	760.64
509.67	777.38
510.03	794.43
510.39	811.94
510.75	829.67
511.12	847.89
511.48	866.29
511.84	884.80
512.20	903.38
512.56	922.67
512.92	942.14
513.28	961.60
513.64	981.57
514.00	1001.71
514.37	1022.21
514.73	1043.19
515.09	1063.95
515.45	1085.07
515.81	1106.14
516.17	1127.39
516.53	1148.65
516.89	1170.29
517.25	1191.95
517.61	1213.57
517.97	1235.01
518.33	1256.75
518.69	1278.44
519.05	1300.58
519.41	1323.00
519.77	1345.99
520.13	1368.22
520.49	1390.46
520.85	1413.10
521.21	1435.55
521.57	1458.51
521.93	1480.53
522.29	1503.32
522.65	1526.05
523.01	1548.48
523.37	1570.78
523.73	1593.51
524.09	1616.14
524.45	1638.62
524.81	1661.31
525.17	1683.88
525.53	1706.42
525.89	1728.90
526.25	1750.92
526.61	1772.38
526.97	1794.25
527.33	1815.41
527.68	1836.93
528.04	1858.48
528.40	1878.88
528.76	1899.63
529.12	1920.09
529.48	1941.98
529.84	1962.45
530.20	1982.77
530.56	2003.37
530.91	2024.27
531.27	2044.71
531.63	2064.63
531.99	2084.46
532.35	2103.38
532.71	2122.54
533.07	2142.40
533.42	2161.00
533.78	2180.20
534.14	2198.89
534.50	2216.30
534.86	2234.66
535.21	2251.39
535.57	2269.29
535.93	2286.86
536.29	2304.03
536.65	2321.13
537.00	2336.47
537.36	2351.75
537.72	2367.41
538.08	2382.61
538.44	2397.73
538.79	2413.14
539.15	2428.39
539.51	2443.39
539.87	2459.32
540.22	2473.88
540.58	2488.89
540.94	2503.43
541.29	2516.52
541.65	2528.92
542.01	2542.17
542.37	2554.07
542.72	2566.99
543.08	2577.83
543.44	2589.98
543.79	2600.52
544.15	2610.88
544.51	2622.39
544.87	2633.53
545.22	2642.85
545.58	2651.58
545.94	2659.47
546.29	2665.70
546.65	2672.13
547.01	2678.36
547.36	2683.87
547.72	2689.70
548.07	2693.39
548.43	2697.16
548.79	2701.22
549.14	2706.01
549.50	2710.21
549.86	2714.27
550.21	2718.56
550.57	2723.02
550.92	2725.72
551.28	2728.19
551.64	2730.83
551.99	2733.35
552.35	2735.25
552.70	2738.15
553.06	2741.16
553.41	2743.91
553.77	2747.33
554.13	2749.91
554.48	2751.92
554.84	2753.35
555.19	2753.88
555.55	2755.00
555.90	2756.01
556.26	2756.42
556.61	2756.44
556.97	2755.69
557.32	2755.49
557.68	2753.37
558.03	2751.65
558.39	2750.14
558.74	2749.86
559.10	2749.06
559.45	2747.32
559.81	2745.98
560.16	2743.04
560.52	2740.44
560.87	2737.70
561.23	2733.93
561.58	2731.87
561.94	2728.89
562.29	2725.36
562.64	2723.46
563.00	2720.92
563.35	2718.46
563.71	2716.70
564.06	2714.79
564.42	2712.70
564.77	2710.01
565.12	2708.38
565.48	2705.50
565.83	2702.62
566.19	2699.33
566.54	2694.85
566.89	2690.69
567.25	2687.05
567.60	2684.01
567.96	2680.62
568.31	2677.31
568.66	2673.56
569.02	2668.50
569.37	2663.20
569.72	2659.35
570.08	2653.81
570.43	2648.16
570.78	2642.45
571.14	2635.85
571.49	2629.15
571.84	2623.31
572.20	2616.74
572.55	2610.11
572.90	2603.31
573.26	2596.23
573.61	2589.31
573.96	2582.70
574.31	2574.90
574.67	2566.58
575.02	2558.08
575.37	2549.32
575.72	2540.11
576.08	2532.27
576.43	2523.59
576.78	2515.37
577.13	2507.23
577.49	2498.95
577.84	2491.26
578.19	2483.67
578.54	2476.49
578.90	2469.74
579.25	2460.76
579.60	2451.52
579.95	2442.07
580.30	2433.82
580.66	2425.65
581.01	2416.55
581.36	2407.18
581.71	2398.93
582.06	2390.65
582.42	2382.63
582.77	2373.11
583.12	2363.89
583.47	2355.38
583.82	2347.03
584.17	2338.28
584.53	2329.29
584.88	2320.36
585.23	2311.07
585.58	2301.28
585.93	2291.47
586.28	2281.94
586.63	2273.22
586.98	2264.92
587.34	2256.52
587.69	2247.25
588.04	2238.04
588.39	2229.73
588.74	2220.81
589.09	2211.92
589.44	2202.10
589.79	2193.41
590.14	2185.87
590.49	2177.80
590.84	2168.64
591.19	2160.44
591.54	2151.66
591.89	2141.39
592.25	2132.42
592.60	2122.78
592.95	2113.41
593.30	2103.90
593.65	2093.71
594.00	2084.08
594.35	2075.81
594.70	2066.61
595.05	2057.98
595.40	2049.11
595.75	2039.08
596.10	2030.60
596.45	2022.01
596.80	2014.18
597.15	2005.66
597.50	1996.38
597.85	1987.52
598.19	1978.77
598.54	1969.64
598.89	1961.65
599.24	1954.86
599.59	1947.37
599.94	1940.39
600.29	1932.53
600.64	1924.62
600.99	1916.39
601.34	1909.09
601.69	1900.00
602.04	1891.72
602.39	1883.64
602.74	1875.72
603.08	1869.15
603.43	1861.77
603.78	1853.72
604.13	1845.60
604.48	1837.58
604.83	1830.73
605.18	1824.02
605.53	1816.35
605.87	1809.11
606.22	1801.79
606.57	1793.62
606.92	1785.21
607.27	1776.98
607.62	1769.56
607.96	1762.84
608.31	1756.58
608.66	1748.74
609.01	1741.00
609.36	1733.21
609.70	1725.10
610.05	1717.34
610.40	1709.04
610.75	1700.51
611.10	1692.63
611.44	1683.44
611.79	1674.08
612.14	1664.73
612.49	1654.82
612.83	1645.97
613.18	1635.91
613.53	1626.43
613.88	1616.63
614.22	1607.88
614.57	1598.24
614.92	1588.82
615.27	1579.03
615.61	1568.97
615.96	1559.83
616.31	1551.21
616.65	1543.35
617.00	1534.89
617.35	1526.04
617.70	1517.20
618.04	1508.15
618.39	1498.72
618.74	1490.36
619.08	1481.80
619.43	1473.51
619.78	1465.66
620.12	1457.45
620.47	1449.86
620.82	1441.15
621.16	1433.05
621.51	1424.48
621.85	1416.37
622.20	1407.85
622.55	1399.50
622.89	1391.44
623.24	1383.20
623.59	1374.75
623.93	1366.02
624.28	1357.76
624.62	1349.35
624.97	1340.89
625.32	1333.00
625.66	1325.61
626.01	1318.15
626.35	1310.73
626.70	1302.57
627.04	1295.05
627.39	1287.41
627.73	1279.65
628.08	1272.75
628.43	1265.26
628.77	1257.74
629.12	1250.05
629.46	1243.54
629.81	1236.24
630.15	1228.81
630.50	1221.25
630.84	1213.86
631.19	1206.79
631.53	1199.88
631.88	1192.53
632.22	1185.09
632.57	1178.18
632.91	1170.83
633.26	1163.30
633.60	1156.27
633.95	1149.61
634.29	1142.07
634.64	1135.25
634.98	1128.30
635.32	1121.04
635.67	1114.59
636.01	1108.13
636.36	1101.67
636.70	1094.81
637.05	1088.16
637.39	1081.84
637.73	1075.70
638.08	1069.82
638.42	1063.78
638.77	1057.26
639.11	1050.85
639.45	1044.94
639.80	1038.35
640.14	1031.96
640.49	1025.86
640.83	1019.47
641.17	1013.06
641.52	1007.12
641.86	1000.72
642.20	994.41
642.55	987.95
642.89	981.25
643.23	974.67
643.58	968.64
643.92	962.13
644.26	955.81
644.61	949.61
644.95	943.45
645.29	937.04
645.64	930.34
645.98	924.09
646.32	918.09
646.66	911.65
647.01	905.67
647.35	899.45
647.69	893.07
648.04	886.94
648.38	881.06
648.72	874.85
649.06	868.69
649.41	862.77
649.75	856.89
650.09	851.17
650.43	845.18
650.78	838.89
651.12	832.80
651.46	827.14
651.80	821.02
652.14	815.08
652.49	809.07
652.83	803.44
653.17	797.19
653.51	791.44
653.85	785.88
654.20	780.09
654.54	774.65
654.88	769.30
655.22	763.55
655.56	757.57
655.90	751.65
656.25	746.14
656.59	740.47
656.93	735.26
657.27	730.08
657.61	724.62
657.95	719.51
658.29	714.38
658.64	709.28
658.98	704.01
659.32	698.45
659.66	693.32
660.00	687.92
660.34	682.91
660.68	677.76
661.02	672.63
661.36	667.77
661.70	662.73
662.05	657.91
662.39	653.46
662.73	649.04
663.07	644.92
663.41	640.46
663.75	635.89
664.09	631.03
664.43	626.20
664.77	621.90
665.11	617.34
665.45	612.97
665.79	608.35
666.13	604.04
666.47	600.00
666.81	595.86
667.15	591.61
667.49	587.69
667.83	583.71
668.17	579.77
668.51	575.94
668.85	572.11
669.19	568.37
669.53	564.28
669.87	560.19
670.21	556.15
670.55	552.12
670.89	548.71
671.23	545.36
671.57	541.85
671.91	538.19
672.25	534.67
672.58	531.05
672.92	527.70
673.26	524.62
673.60	521.24
673.94	517.85
674.28	514.63
674.62	511.45
674.96	508.35
675.30	505.29
675.64	502.07
675.97	498.95
676.31	495.87
676.65	493.13
676.99	490.45
677.33	487.38
677.67	484.49
678.01	481.31
678.34	478.29
678.68	475.43
679.02	472.43
679.36	469.60
679.70	466.79
680.04	463.78
680.37	460.70
680.71	457.90
681.05	455.17
681.39	452.51
681.73	449.70
682.06	446.97
682.40	444.31
682.74	441.70
683.08	439.05
683.42	436.34
683.75	433.76
684.09	431.08
684.43	428.58
684.77	425.92
685.10	423.44
685.44	420.88
685.78	418.26
686.12	416.09
686.45	413.79
686.79	411.56
687.13	409.42
687.46	407.25
687.80	405.02
688.14	402.65
688.48	400.43
688.81	398.24
689.15	396.07
689.49	393.80
689.82	391.48
690.16	389.14
690.50	386.91
690.83	384.50
691.17	382.26
691.51	380.15
691.84	378.13
692.18	376.08
692.52	374.22
692.85	372.44
693.19	370.37
693.52	368.31
693.86	366.25
694.20	364.30
694.53	362.34
694.87	360.42
695.21	358.51
695.54	356.61
695.88	354.66
696.21	352.67
696.55	351.00
696.88	349.19
697.22	347.54
697.56	345.88
697.89	344.25
698.23	342.66
698.56	341.10
698.90	339.51
699.23	337.87
699.57	336.22
699.90	334.52
700.24	332.86
700.58	331.34
700.91	329.86
701.25	328.49
701.58	327.05
701.92	325.64
702.25	324.31
702.59	322.92
702.92	321.64
703.26	320.25
703.59	318.94
703.93	317.81
704.26	316.51
704.60	315.23
704.93	313.97
705.26	312.65
705.60	311.52
705.93	310.25
706.27	309.07
706.60	307.91
706.94	306.82
707.27	305.64
707.61	304.50
707.94	303.37
708.27	302.13
708.61	300.95
708.94	299.82
709.28	298.67
709.61	297.61
709.94	296.52
710.28	295.53
710.61	294.40
710.95	293.26
711.28	292.25
711.61	291.22
711.95	290.33
712.28	289.38
712.61	288.24
712.95	287.32
713.28	286.41
713.61	285.41
713.95	284.44
714.28	283.62
714.61	282.66
714.95	281.72
715.28	280.75
715.61	279.86
715.95	278.97
716.28	278.15
716.61	277.25
716.95	276.31
717.28	275.53
717.61	274.66
717.94	273.81
718.28	273.08
718.61	272.35
718.94	271.47
719.27	270.70
719.61	270.03
719.94	269.35
720.27	268.59
720.60	267.84
720.94	267.03
721.27	266.26
721.60	265.60
721.93	264.94
722.27	264.41
722.60	263.74
722.93	263.01
723.26	262.42
723.59	261.77
723.93	261.27
724.26	260.70
724.59	260.15
724.92	259.65
725.25	259.11
725.59	258.54
725.92	258.09
726.25	257.62
726.58	257.01
726.91	256.46
727.24	255.93
727.57	255.47
727.91	254.97
728.24	254.50
728.57	254.00
728.90	253.57
729.23	252.97
729.56	252.56
729.89	252.19
730.22	251.66
730.55	251.26
730.89	250.80
731.22	250.27
731.55	249.87
731.88	249.40
732.21	248.85
732.54	248.36
732.87	247.87
733.20	247.33
733.53	246.93
733.86	246.52
734.19	246.10
734.52	245.73
734.85	245.58
735.18	245.20
735.51	244.92
735.84	244.45
736.17	244.15
736.50	243.72
736.83	243.55
737.16	243.15
737.49	242.68
737.82	242.19
738.15	241.89
738.48	241.49
738.81	241.16
739.14	240.83
739.47	240.47
739.80	240.13
740.13	239.80
740.46	239.46
740.79	239.00
741.12	238.65
741.45	238.28
741.78	237.83
742.11	237.56
742.44	237.13
742.77	236.93
743.10	236.56
743.43	236.30
743.75	235.76
744.08	235.72
744.41	235.45
744.74	235.20
745.07	234.85
745.40	234.56
745.73	234.27
746.06	234.03
746.39	233.79
746.71	233.44
747.04	233.19
747.37	232.95
747.70	232.77
748.03	232.48
748.36	232.20
748.68	231.92
749.01	231.62
749.34	231.44
749.67	231.14
750.00	230.97
750.33	230.85
750.65	230.65
750.98	230.15
751.31	229.95
751.64	229.77
751.97	229.67
752.29	229.46
752.62	229.17
752.95	228.85
753.28	228.63
753.60	228.44
753.93	228.34
754.26	228.13
754.59	227.87
754.91	227.61
755.24	227.40
755.57	227.13
755.90	226.92
756.22	226.66
756.55	226.44
756.88	226.18
757.20	225.86
757.53	225.71
757.86	225.53
758.19	225.33
758.51	225.14
758.84	224.87
759.17	224.72
759.49	224.56
759.82	224.52
760.15	224.36
760.47	224.22
760.80	223.91
761.13	223.75
761.45	223.59
761.78	223.50
762.11	223.34
762.43	223.22
762.76	222.97
763.08	222.81
763.41	222.73
763.74	222.59
764.06	222.46
764.39	222.27
764.71	222.06
765.04	221.91
765.37	221.68
765.69	221.52
766.02	221.31
766.34	221.23
766.67	221.02
767.00	220.92
767.32	220.87
767.65	220.92
767.97	220.79
768.30	220.69
768.62	220.60
768.95	220.48
769.27	220.42
769.60	220.50
769.92	220.35
770.25	220.16
770.57	220.07
770.90	219.93
771.22	219.83
771.55	219.77
771.87	219.68
772.20	219.63
772.52	219.68
772.85	219.83
773.17	219.70
773.50	219.60
773.82	219.47
774.15	219.32
774.47	219.13
774.80	219.04
775.12	218.94
775.45	218.84
775.77	218.81
776.09	218.74
776.42	218.61
776.74	218.61
777.07	218.59
777.39	218.49
777.72	218.45
778.04	218.35
778.36	218.22
778.69	218.20
779.01	218.15
779.33	217.86
779.66	217.63
779.98	217.50
780.31	217.44
780.63	217.40
780.95	217.40
781.28	217.31
781.60	217.25
781.92	217.16
782.25	217.10
782.57	216.96
782.89	216.85
783.22	216.77
783.54	216.67
783.86	216.51
784.19	216.42
784.51	216.31
784.83	216.25
785.16	216.27
785.48	216.16
785.80	216.16
786.12	216.20
786.45	216.07
786.77	216.08
787.09	215.99
787.42	215.88
787.74	215.73
788.06	215.66
788.38	215.55
788.71	215.41
789.03	215.37
789.35	215.37
789.67	215.31
789.99	215.32
790.32	215.25
790.64	215.26
790.96	215.31
791.28	215.21
791.61	215.15
791.93	215.06
792.25	215.08
792.57	215.13
792.89	215.02
793.21	215.04
793.54	214.94
793.86	214.90
794.18	214.89
794.50	214.88
794.82	214.85
795.14	214.83
795.47	214.83
795.79	214.81
796.11	214.79
796.43	214.70
796.75	214.63
797.07	214.60
797.39	214.53
797.71	214.48
798.04	214.44
798.36	214.40
798.68	214.41
799.00	214.38
799.32	214.24
799.64	214.32
799.96	214.33
800.28	214.38
800.60	214.34
800.92	214.30
801.24	214.26
801.56	214.28
801.89	214.25
802.21	214.29
802.53	214.20
802.85	214.19
803.17	214.32
803.49	214.31
803.81	214.29
804.13	214.30
804.45	214.15
804.77	214.16
805.09	214.18
805.41	214.14
805.73	214.05
806.05	213.92
806.37	213.81
806.69	213.74
807.01	213.72
807.33	213.73
807.65	213.65
807.97	213.74
808.28	213.68
808.60	213.68
808.92	213.66
809.24	213.74
809.56	213.74
809.88	213.59
810.20	213.61
810.52	213.60
810.84	213.58
811.16	213.57
811.48	213.62
811.80	213.66
812.12	213.59
812.43	213.62
812.75	213.67
813.07	213.66
813.39	213.67
813.71	213.55
814.03	213.53
814.35	213.53
814.67	213.38
814.98	213.29
815.30	213.23
815.62	213.21
815.94	213.04
816.26	212.91
816.58	212.87
816.89	212.85
817.21	212.80
817.53	212.74
817.85	212.83
818.17	212.76
818.48	212.70
818.80	212.74
819.12	212.70
819.44	212.65
819.76	212.60
820.07	212.52
820.39	212.54
820.71	212.52
821.03	212.52
821.34	212.56
821.66	212.59
821.98	212.62
822.30	212.58
822.61	212.67
822.93	212.69
823.25	212.69
823.57	212.61
823.88	212.65
824.20	212.67
824.52	212.60
824.83	212.62
825.15	212.55
825.47	212.57
825.79	212.51
826.10	212.52
826.42	212.52
826.74	212.61
827.05	212.58
827.37	212.60
827.69	212.61
828.00	212.54
828.32	212.57
828.64	212.53
828.95	212.60
829.27	212.59
829.58	212.58
829.90	212.61
830.22	212.62
830.53	212.52
830.85	212.47
831.17	212.42
831.48	212.37
831.80	212.32
832.11	212.30
832.43	212.28
832.75	212.27
833.06	212.32
833.38	212.28
833.69	212.30
834.01	212.33
834.32	212.29
834.64	212.30
834.96	212.28
835.27	212.20
835.59	212.15
835.90	212.12
836.22	212.09
836.53	212.08
836.85	212.02
837.16	212.20
837.48	212.26
837.79	212.30
838.11	212.30
838.42	212.32
838.74	212.27
839.05	212.30
839.37	212.20
839.68	212.09
840.00	212.02
840.31	212.04
840.63	212.00
840.94	211.99
841.26	211.94
841.57	211.92
841.88	211.94
842.20	211.96
842.51	211.93
842.83	211.96
843.14	212.05
843.46	211.99
843.77	211.96
844.08	211.90
844.40	211.90
844.71	211.92
845.03	211.93
845.34	211.91
845.65	211.92
845.97	211.97
846.28	212.00
846.60	212.03
846.91	212.00
847.22	211.92
847.54	211.95
847.85	211.98
848.16	212.00
848.48	212.07
848.79	212.09
849.10	212.13
849.42	212.19
849.73	212.10
850.04	212.18
850.36	212.07
850.67	212.11
850.98	212.13
851.30	212.06
851.61	212.15
851.92	212.22
852.23	212.26
852.55	212.33
852.86	212.38
853.17	212.34
853.49	212.32
853.80	212.43
854.11	212.45
854.42	212.50
854.74	212.49
855.05	212.44
855.36	212.33
855.67	212.29
855.99	212.19
856.30	212.37
856.61	212.36
856.92	212.35
857.23	212.35
857.55	212.22
857.86	212.23
858.17	212.20
858.48	212.10
858.79	212.09
859.11	212.07
859.42	212.03
859.73	212.03
860.04	212.09
860.35	212.03
860.66	211.96
860.98	211.88
861.29	211.83
861.60	211.83
861.91	211.87
862.22	211.84
862.53	211.82
862.84	211.60
863.16	211.65
863.47	211.64
863.78	211.51
864.09	211.60
864.40	211.63
864.71	211.63
865.02	211.67
865.33	211.65
865.64	211.61
865.95	211.64
866.27	211.73
866.58	211.69
866.89	211.65
867.20	211.62
867.51	211.67
867.82	211.70
868.13	211.69
868.44	211.68
868.75	211.73
869.06	211.72
869.37	211.74
869.68	211.65
869.99	211.67
870.30	211.81
870.61	211.76
870.92	211.75
871.23	211.73
871.54	211.77
871.85	211.81
872.16	211.86
872.47	211.81
872.78	211.74
873.09	211.75
873.40	211.75
873.71	211.81
874.02	211.76
874.33	211.76
874.64	211.78
874.95	211.84
875.26	211.79
875.56	211.73
875.87	211.73
876.18	211.77
876.49	211.89
876.80	211.79
877.11	211.75
877.42	211.68
877.73	211.64
878.04	211.58
878.35	211.53
878.66	211.47
878.96	211.42
879.27	211.45
879.58	211.40
879.89	211.40
880.20	211.43
880.51	211.45
880.82	211.34
881.12	211.34
881.43	211.25
881.74	211.24
882.05	211.25
882.36	211.28
882.67	211.24
882.97	211.10
883.28	211.11
883.59	211.13
883.90	211.21
884.21	211.22
884.51	211.23
884.82	211.19
885.13	211.25
885.44	211.29
885.74	211.28
886.05	211.27
886.36	211.26
886.67	211.17
886.98	211.20
887.28	211.33
887.59	211.35
887.90	211.35
888.20	211.30
888.51	211.40
888.82	211.32
889.13	211.36
889.43	211.57
889.74	211.67
890.05	211.65
890.35	211.60
890.66	211.55
890.97	211.50
891.28	211.51
891.58	211.43
891.89	211.40
892.20	211.32
892.50	211.32
892.81	211.31
893.12	211.29
893.42	211.26
893.73	211.22
894.04	211.22
894.34	211.31
894.65	211.38
894.95	211.37
895.26	211.40
895.57	211.48
895.87	211.19
896.18	211.15
896.48	211.20
896.79	211.25
897.10	211.29
897.40	211.29
897.71	211.29
898.01	211.41
898.32	211.46
898.63	211.53
898.93	211.55
899.24	211.59
899.54	211.68
899.85	211.68
900.15	211.70
900.46	211.73
900.76	211.72
901.07	211.72
901.38	211.73
901.68	211.80
901.99	211.69
902.29	211.78
902.60	211.73
902.90	211.72
903.21	211.74
903.51	211.68
903.82	211.68
904.12	211.71
904.43	211.70
904.73	211.67
905.03	211.64
905.34	211.81
905.64	211.76
905.95	211.72
906.25	211.68
906.56	211.65
906.86	211.61
907.17	211.55
907.47	211.53
907.77	211.43
908.08	211.38
908.38	211.41
908.69	211.38
908.99	211.44
909.30	211.39
909.60	211.31
909.90	211.41
910.21	211.38
910.51	211.40
910.81	211.33
911.12	211.39
911.42	211.45
911.73	211.26
912.03	211.29
912.33	211.26
912.64	211.31
912.94	211.37
913.24	211.30
913.55	211.33
913.85	211.29
914.15	211.35
914.46	211.38
914.76	211.31
915.06	211.29
915.37	211.22
915.67	211.27
915.97	211.27
916.27	211.17
916.58	211.27
916.88	211.23
917.18	211.28
917.49	211.25
917.79	211.18
918.09	211.25
918.39	211.23
918.70	211.24
919.00	211.18
919.30	211.19
919.60	211.19
919.91	211.06
920.21	211.12
920.51	211.13
920.81	211.07
921.12	211.11
921.42	211.11
921.72	211.09
922.02	211.14
922.32	211.10
922.63	211.10
922.93	211.14
923.23	211.10
923.53	210.98
923.83	210.92
924.13	210.95
924.44	210.90
924.74	211.00
925.04	211.05
925.34	211.07
925.64	210.99
925.94	211.04
926.24	211.19
926.55	211.08
926.85	211.12
927.15	211.06
927.45	211.08
927.75	211.12
928.05	211.13
928.35	211.07
928.65	211.21
928.95	211.32
929.26	211.20
929.56	211.20
929.86	211.29
930.16	211.29
930.46	211.27
930.76	211.28
931.06	211.17
931.36	211.14
931.66	211.15
931.96	211.16
932.26	211.12
932.56	211.10
932.86	211.13
933.16	211.08
933.46	211.11
933.76	211.02
934.06	211.06
934.36	211.18
934.66	211.19
934.96	211.17
935.26	211.12
935.56	211.21
935.86	211.25
936.16	211.26
936.46	211.31
936.76	211.31
937.06	211.37
937.36	211.46
937.66	211.45
937.96	211.49
938.26	211.47
938.56	211.46
938.86	211.42
939.16	211.53
939.46	211.51
939.76	211.58
940.06	211.68
940.35	211.55
940.65	211.46
940.95	211.49
941.25	211.43
941.55	211.42
941.85	211.37
942.15	211.38
942.45	211.42
942.75	211.40
943.04	211.41
943.34	211.36
943.64	211.32
943.94	211.26
944.24	211.26
944.54	211.29
944.84	211.28
945.13	211.35
945.43	211.26
945.73	211.30
946.03	211.31
946.33	211.32
946.62	211.36
946.92	211.32
947.22	211.32
947.52	211.36
947.82	211.28
948.11	211.28
948.41	211.26
948.71	211.21
949.01	211.16
949.31	211.19
949.60	211.23
949.90	211.22
950.20	211.24
950.50	211.24
950.79	211.26
951.09	211.25
951.39	211.20
951.69	211.24
951.98	211.29
952.28	211.26
952.58	211.20
952.87	211.23
953.17	211.24
953.47	211.18
953.76	211.19
954.06	211.27
954.36	211.25
954.66	211.28
954.95	211.39
955.25	211.38
955.55	211.31
955.84	211.22
956.14	211.27
956.44	211.30
956.73	211.26
957.03	211.31
957.32	211.31
957.62	211.28
957.92	211.30
958.21	211.25
958.51	211.42
958.81	211.37
959.10	211.37
959.40	211.45
959.69	211.46
959.99	211.38
960.29	211.30
960.58	211.25
960.88	211.23
961.17	211.11
961.47	211.14
961.76	211.09
962.06	211.14
962.36	211.00
962.65	211.03
962.95	211.00
963.24	210.89
963.54	210.94
963.83	210.97
964.13	210.91
964.42	210.81
964.72	210.68
965.01	210.74
965.31	210.76
965.60	210.74
965.90	210.80
966.19	210.85
966.49	210.86
966.78	210.87
967.08	210.88
967.37	210.94
967.67	210.95
967.96	211.02
968.26	211.04
968.55	211.10
968.85	211.05
969.14	211.07
969.43	211.12
969.73	211.03
970.02	210.96
970.32	210.95
970.61	211.03
970.91	210.98
971.20	210.94
971.49	210.81
971.79	210.77
972.08	210.65
972.38	210.64
972.67	210.70
972.96	210.69
973.26	210.69
973.55	210.65
973.85	210.62
974.14	210.68
974.43	210.68
974.73	210.75
975.02	210.79
975.31	210.84
975.61	210.86
975.90	210.84
976.19	210.83
976.49	210.85
976.78	210.79
977.07	210.77
977.37	210.79
977.66	210.86
977.95	210.84
978.24	210.89
978.54	210.92
978.83	210.90
979.12	210.97
979.42	210.90
979.71	210.86
980.00	210.84
980.29	210.75
980.59	210.69
980.88	210.67
981.17	210.70
981.46	210.63
981.76	210.57
982.05	210.68
982.34	210.76
982.63	210.80
982.93	210.80
983.22	210.86
983.51	210.80
983.80	210.81
984.09	210.85
984.39	210.80
984.68	210.72
984.97	210.76
985.26	210.72
985.55	210.70
985.85	210.71
986.14	210.77
986.43	210.86
986.72	210.89
987.01	210.75
987.30	210.67
987.59	210.64
987.89	210.72
988.18	210.67
988.47	210.62
988.76	210.58
989.05	210.57
989.34	210.58
989.63	210.62
989.92	210.60
990.22	210.65
990.51	210.67
990.80	210.72
991.09	210.71
991.38	210.70
991.67	210.79
991.96	210.70
992.25	210.75
992.54	210.61
992.83	210.57
993.12	210.66
993.41	210.72
993.70	210.86
993.99	210.80
994.28	210.77
994.58	210.85
994.87	210.89
995.16	210.92
995.45	210.91
995.74	210.94
996.03	211.05
996.32	211.01
996.61	211.06
996.90	211.11
997.19	211.02
997.48	211.03
997.77	210.94
998.06	211.06
998.34	211.00
998.63	211.09
998.92	211.15
999.21	211.20
999.50	211.25
999.79	211.13
1000.08	211.13
1000.37	211.16
1000.66	211.14
1000.95	211.19
1001.24	211.20
1001.53	211.18
1001.82	211.15
1002.11	211.12
1002.40	211.10
1002.68	211.11
1002.97	211.24
1003.26	211.32
1003.55	211.37
1003.84	211.38
1004.13	211.44
1004.42	211.37
1004.71	211.38
1004.99	211.38
1005.28	211.42
1005.57	211.40
1005.86	211.40
1006.15	211.37
1006.44	211.31
1006.72	211.29
1007.01	211.16
1007.30	211.08
1007.59	211.05
1007.88	211.01
1008.17	210.97
1008.45	211.04
1008.74	210.99
1009.03	210.81
1009.32	210.79
1009.60	210.70
1009.89	210.77
1010.18	210.61
1010.47	210.70
1010.76	210.76
1011.04	210.78
1011.33	210.74
1011.62	210.70
1011.91	210.75
1012.19	210.80
1012.48	210.77
1012.77	210.74
1013.05	210.87
1013.34	210.85
1013.63	210.87
1013.92	210.92
1014.20	210.89
1014.49	210.84
1014.78	210.82
1015.06	210.89
1015.35	210.89
1015.64	210.93
1015.92	210.87
1016.21	210.91
1016.50	210.80
1016.78	210.71
1017.07	210.67
1017.36	210.61
1017.64	210.63
1017.93	210.61
1018.22	210.65
1018.50	210.71
1018.79	210.73
1019.08	210.68
1019.36	210.81
1019.65	210.81
1019.93	210.84
1020.22	210.93
1020.51	211.01
1020.79	211.07
1021.08	211.65
1021.36	210.30
1021.65	211.00
1021.94	211.10
1022.22	212.10
1022.51	210.60
1022.79	211.80
1023.08	211.90
1023.36	212.55
1023.65	212.10
>>>>>End Processed Spectral Data<<<<<
