SpectraSuite Data File
++++++++++++++++++++++++++++++++++++
Date: Mon Feb 25 17:34:20 EST 2013
User: group
Dark Spectrum Present: No
Reference Spectrum Present: No
Number of Sampled Component Spectra: 1
Spectrometers: USB2E7196
Integration Time (usec): 52000 (USB2E7196)
Spectra Averaged: 20 (USB2E7196)
Boxcar Smoothing: 10 (USB2E7196)
Correct for Electrical Dark: No (USB2E7196)
Strobe/Lamp Enabled: No (USB2E7196)
Correct for Detector Non-linearity: No (USB2E7196)
Correct for Stray Light: No (USB2E7196)
Number of Pixels in Processed Spectrum: 2048
>>>>>Begin Processed Spectral Data<<<<<
339.09	0.00
339.48	199.40
339.86	200.95
340.24	201.35
340.63	203.85
341.01	207.50
341.39	206.00
341.78	205.60
342.16	208.85
342.54	209.70
342.93	198.03
343.31	208.05
343.69	208.52
344.07	208.93
344.46	209.31
344.84	209.64
345.22	209.81
345.60	210.05
345.99	210.27
346.37	210.40
346.75	210.44
347.13	210.50
347.52	210.65
347.90	210.76
348.28	210.79
348.66	210.85
349.05	210.75
349.43	210.81
349.81	210.86
350.19	210.93
350.57	211.05
350.96	211.10
351.34	211.17
351.72	211.30
352.10	211.43
352.48	211.57
352.87	211.65
353.25	211.67
353.63	211.75
354.01	211.84
354.39	211.88
354.77	211.99
355.15	212.12
355.54	212.05
355.92	212.14
356.30	212.16
356.68	212.33
357.06	212.47
357.44	212.55
357.82	212.62
358.20	212.66
358.58	212.69
358.97	212.69
359.35	212.84
359.73	212.86
360.11	212.88
360.49	212.98
360.87	213.00
361.25	213.08
361.63	213.19
362.01	213.28
362.39	213.40
362.77	213.50
363.15	213.55
363.53	213.73
363.91	213.73
364.29	213.77
364.67	213.69
365.05	213.67
365.43	213.72
365.81	213.86
366.19	214.03
366.57	214.07
366.95	214.16
367.33	214.07
367.71	214.17
368.09	214.25
368.47	214.23
368.85	214.25
369.23	214.25
369.61	214.20
369.99	214.27
370.37	214.29
370.75	214.35
371.13	214.34
371.51	214.23
371.89	214.22
372.27	214.33
372.65	214.34
373.03	214.33
373.41	214.30
373.78	214.26
374.16	214.14
374.54	214.16
374.92	214.09
375.30	214.04
375.68	214.01
376.06	213.95
376.44	213.93
376.82	213.89
377.19	213.94
377.57	213.85
377.95	213.79
378.33	213.64
378.71	213.42
379.09	213.48
379.47	213.37
379.84	213.30
380.22	213.09
380.60	212.95
380.98	212.90
381.36	212.83
381.73	212.68
382.11	212.68
382.49	212.58
382.87	212.50
383.25	212.46
383.62	212.52
384.00	212.48
384.38	212.41
384.76	212.44
385.13	212.46
385.51	212.46
385.89	212.33
386.27	212.30
386.64	212.32
387.02	212.18
387.40	212.18
387.78	212.16
388.15	212.21
388.53	212.16
388.91	212.19
389.29	212.11
389.66	212.09
390.04	212.03
390.42	211.97
390.79	212.02
391.17	212.05
391.55	211.86
391.92	211.85
392.30	211.80
392.68	211.69
393.05	211.64
393.43	211.61
393.81	211.57
394.18	211.56
394.56	211.57
394.94	211.46
395.31	211.41
395.69	211.39
396.06	211.32
396.44	211.47
396.82	211.40
397.19	211.60
397.57	211.63
397.95	211.67
398.32	211.74
398.70	211.74
399.07	211.84
399.45	211.87
399.82	211.87
400.20	211.89
400.58	212.01
400.95	211.97
401.33	212.06
401.70	212.25
402.08	212.35
402.45	212.43
402.83	212.66
403.20	212.77
403.58	212.89
403.95	213.07
404.33	213.05
404.71	213.19
405.08	213.30
405.46	213.40
405.83	213.50
406.21	213.59
406.58	213.71
406.96	213.70
407.33	213.88
407.70	214.10
408.08	214.46
408.45	214.68
408.83	214.97
409.20	215.13
409.58	215.32
409.95	215.56
410.33	215.83
410.70	216.10
411.08	216.52
411.45	216.86
411.82	217.26
412.20	217.69
412.57	218.21
412.95	218.53
413.32	219.10
413.69	219.60
414.07	220.12
414.44	220.76
414.82	221.42
415.19	222.19
415.56	222.92
415.94	223.67
416.31	224.59
416.68	225.45
417.06	226.54
417.43	227.50
417.81	228.59
418.18	229.72
418.55	230.83
418.93	232.07
419.30	233.38
419.67	234.73
420.04	236.24
420.42	237.75
420.79	239.48
421.16	241.23
421.54	243.08
421.91	245.02
422.28	246.95
422.66	249.15
423.03	251.14
423.40	253.21
423.77	255.44
424.15	257.65
424.52	259.91
424.89	262.45
425.26	264.98
425.64	267.32
426.01	269.91
426.38	272.69
426.75	275.48
427.13	278.29
427.50	281.26
427.87	284.32
428.24	287.38
428.61	290.35
428.99	293.70
429.36	297.29
429.73	300.77
430.10	304.29
430.47	307.72
430.85	311.43
431.22	315.33
431.59	319.48
431.96	323.34
432.33	327.90
432.70	332.05
433.08	336.97
433.45	341.71
433.82	346.29
434.19	351.37
434.56	356.37
434.93	361.28
435.30	366.12
435.68	371.48
436.05	376.75
436.42	381.88
436.79	386.49
437.16	391.47
437.53	396.70
437.90	401.94
438.27	407.16
438.64	412.61
439.01	417.62
439.38	422.05
439.75	426.43
440.13	431.24
440.50	435.86
440.87	439.53
441.24	443.32
441.61	447.63
441.98	450.70
442.35	454.39
442.72	457.97
443.09	461.45
443.46	463.58
443.83	464.95
444.20	466.29
444.57	468.07
444.94	468.80
445.31	469.75
445.68	470.56
446.05	470.85
446.42	470.07
446.79	469.29
447.16	468.42
447.53	467.76
447.90	465.49
448.27	463.35
448.64	460.57
449.01	458.46
449.37	454.82
449.74	451.28
450.11	447.02
450.48	442.39
450.85	437.74
451.22	433.64
451.59	429.71
451.96	426.00
452.33	421.20
452.70	416.95
453.07	411.63
453.43	406.35
453.80	401.39
454.17	396.62
454.54	392.06
454.91	387.07
455.28	382.26
455.65	377.94
456.02	373.50
456.38	369.66
456.75	365.09
457.12	361.22
457.49	357.47
457.86	353.76
458.23	350.71
458.59	347.17
458.96	343.61
459.33	340.54
459.70	337.32
460.07	334.72
460.43	331.84
460.80	329.22
461.17	326.82
461.54	324.22
461.91	321.84
462.27	319.51
462.64	317.66
463.01	315.42
463.38	313.30
463.74	311.21
464.11	309.29
464.48	307.56
464.85	305.76
465.21	304.36
465.58	302.85
465.95	301.06
466.32	299.68
466.68	298.24
467.05	296.85
467.42	295.56
467.78	294.10
468.15	292.75
468.52	291.75
468.88	290.43
469.25	289.31
469.62	288.50
469.98	287.37
470.35	286.40
470.72	285.59
471.08	284.67
471.45	283.83
471.82	283.06
472.18	282.22
472.55	281.58
472.92	280.79
473.28	280.22
473.65	279.61
474.02	279.10
474.38	278.70
474.75	278.36
475.11	277.90
475.48	277.73
475.85	277.56
476.21	277.37
476.58	277.24
476.94	277.20
477.31	276.99
477.67	277.06
478.04	277.11
478.41	277.17
478.77	277.42
479.14	277.59
479.50	277.86
479.87	278.20
480.23	278.61
480.60	279.09
480.96	279.50
481.33	280.18
481.69	280.76
482.06	281.44
482.42	282.07
482.79	282.85
483.15	283.63
483.52	284.49
483.88	285.32
484.25	286.33
484.61	287.34
484.98	288.58
485.34	289.93
485.71	291.18
486.07	292.55
486.44	293.76
486.80	295.29
487.17	296.92
487.53	298.69
487.90	300.39
488.26	302.28
488.62	304.32
488.99	306.34
489.35	308.50
489.72	310.76
490.08	313.16
490.44	315.64
490.81	318.32
491.17	321.09
491.54	324.11
491.90	327.07
492.26	330.30
492.63	333.60
492.99	336.95
493.36	340.67
493.72	344.58
494.08	348.81
494.45	353.10
494.81	357.55
495.17	362.15
495.54	367.23
495.90	372.31
496.26	377.54
496.63	383.08
496.99	388.83
497.35	394.82
497.72	401.06
498.08	407.69
498.44	414.46
498.80	421.71
499.17	429.18
499.53	436.86
499.89	444.88
500.26	452.84
500.62	461.12
500.98	469.94
501.34	479.03
501.71	488.52
502.07	498.12
502.43	508.16
502.79	518.39
503.16	528.91
503.52	539.55
503.88	550.81
504.24	562.39
504.60	574.27
504.97	586.57
505.33	599.23
505.69	612.49
506.05	625.91
506.41	639.29
506.78	652.94
507.14	667.16
507.50	681.73
507.86	696.94
508.22	712.40
508.59	728.01
508.95	743.97
509.31	760.20
509.67	777.07
510.03	793.93
510.39	811.47
510.75	829.35
511.12	847.76
511.48	866.26
511.84	884.92
512.20	903.74
512.56	923.01
512.92	942.51
513.28	961.90
513.64	981.73
514.00	1001.75
514.37	1022.27
514.73	1042.96
515.09	1063.91
515.45	1084.82
515.81	1106.08
516.17	1127.44
516.53	1149.03
516.89	1170.66
517.25	1192.13
517.61	1213.99
517.97	1235.62
518.33	1257.11
518.69	1278.87
519.05	1300.86
519.41	1323.30
519.77	1346.10
520.13	1368.23
520.49	1390.47
520.85	1413.20
521.21	1435.79
521.57	1458.93
521.93	1481.04
522.29	1504.14
522.65	1526.71
523.01	1549.51
523.37	1571.62
523.73	1594.26
524.09	1616.65
524.45	1638.81
524.81	1661.28
525.17	1683.65
525.53	1706.22
525.89	1728.85
526.25	1751.05
526.61	1772.51
526.97	1794.11
527.33	1815.28
527.68	1836.96
528.04	1858.34
528.40	1878.70
528.76	1899.69
529.12	1920.30
529.48	1942.22
529.84	1962.81
530.20	1983.22
530.56	2003.45
530.91	2024.52
531.27	2044.85
531.63	2065.05
531.99	2085.41
532.35	2104.86
532.71	2124.09
533.07	2143.76
533.42	2162.26
533.78	2181.67
534.14	2200.29
534.50	2217.58
534.86	2235.75
535.21	2252.54
535.57	2270.49
535.93	2288.22
536.29	2305.34
536.65	2322.06
537.00	2337.56
537.36	2352.80
537.72	2368.15
538.08	2383.38
538.44	2398.78
538.79	2414.23
539.15	2429.17
539.51	2443.67
539.87	2459.21
540.22	2473.79
540.58	2488.85
540.94	2503.48
541.29	2516.15
541.65	2528.75
542.01	2542.39
542.37	2554.30
542.72	2566.83
543.08	2577.60
543.44	2589.82
543.79	2599.75
544.15	2610.44
544.51	2621.59
544.87	2632.71
545.22	2642.58
545.58	2651.26
545.94	2658.72
546.29	2665.44
546.65	2672.05
547.01	2678.41
547.36	2684.02
547.72	2690.12
548.07	2694.23
548.43	2698.10
548.79	2702.22
549.14	2707.03
549.50	2711.39
549.86	2715.78
550.21	2720.04
550.57	2724.38
550.92	2726.77
551.28	2730.10
551.64	2732.74
551.99	2735.35
552.35	2737.37
552.70	2739.92
553.06	2743.12
553.41	2746.15
553.77	2749.00
554.13	2751.10
554.48	2753.25
554.84	2754.72
555.19	2755.00
555.55	2755.05
555.90	2755.82
556.26	2756.60
556.61	2756.42
556.97	2755.14
557.32	2755.01
557.68	2753.44
558.03	2752.11
558.39	2750.97
558.74	2750.33
559.10	2748.95
559.45	2746.94
559.81	2745.59
560.16	2742.91
560.52	2740.38
560.87	2737.13
561.23	2733.34
561.58	2731.05
561.94	2727.88
562.29	2724.30
562.64	2721.91
563.00	2719.87
563.35	2717.63
563.71	2715.98
564.06	2714.07
564.42	2712.41
564.77	2709.65
565.12	2707.85
565.48	2704.77
565.83	2701.55
566.19	2698.17
566.54	2694.33
566.89	2690.46
567.25	2686.87
567.60	2683.79
567.96	2680.09
568.31	2676.94
568.66	2673.50
569.02	2668.83
569.37	2664.07
569.72	2660.36
570.08	2655.10
570.43	2649.43
570.78	2643.73
571.14	2637.07
571.49	2630.41
571.84	2624.23
572.20	2617.11
572.55	2610.56
572.90	2603.61
573.26	2596.84
573.61	2589.90
573.96	2583.18
574.31	2575.34
574.67	2566.97
575.02	2558.34
575.37	2549.83
575.72	2540.80
576.08	2532.88
576.43	2523.94
576.78	2515.81
577.13	2507.63
577.49	2499.68
577.84	2492.08
578.19	2484.38
578.54	2476.76
578.90	2469.77
579.25	2461.13
579.60	2451.93
579.95	2442.60
580.30	2434.60
580.66	2426.25
581.01	2416.89
581.36	2407.51
581.71	2399.35
582.06	2390.80
582.42	2382.51
582.77	2373.42
583.12	2364.51
583.47	2355.68
583.82	2347.66
584.17	2338.45
584.53	2329.23
584.88	2320.41
585.23	2310.77
585.58	2300.93
585.93	2291.30
586.28	2281.94
586.63	2273.02
586.98	2264.87
587.34	2256.47
587.69	2247.05
588.04	2237.88
588.39	2229.75
588.74	2220.90
589.09	2211.95
589.44	2202.27
589.79	2193.58
590.14	2185.48
590.49	2176.94
590.84	2167.75
591.19	2159.45
591.54	2150.59
591.89	2140.26
592.25	2130.77
592.60	2121.45
592.95	2112.23
593.30	2102.52
593.65	2092.63
594.00	2083.18
594.35	2075.05
594.70	2065.73
595.05	2057.16
595.40	2048.29
595.75	2038.53
596.10	2029.94
596.45	2021.25
596.80	2013.43
597.15	2004.87
597.50	1995.65
597.85	1987.23
598.19	1978.56
598.54	1969.84
598.89	1961.81
599.24	1955.30
599.59	1947.96
599.94	1940.40
600.29	1932.66
600.64	1924.85
600.99	1916.16
601.34	1908.41
601.69	1899.59
602.04	1891.46
602.39	1883.10
602.74	1875.11
603.08	1868.42
603.43	1861.05
603.78	1852.91
604.13	1844.70
604.48	1836.90
604.83	1829.79
605.18	1822.54
605.53	1815.05
605.87	1807.22
606.22	1800.10
606.57	1791.94
606.92	1783.67
607.27	1775.95
607.62	1768.40
607.96	1761.62
608.31	1755.64
608.66	1747.91
609.01	1740.08
609.36	1732.29
609.70	1724.24
610.05	1716.62
610.40	1708.16
610.75	1699.90
611.10	1692.36
611.44	1683.41
611.79	1674.11
612.14	1664.71
612.49	1655.02
612.83	1646.30
613.18	1636.66
613.53	1627.02
613.88	1617.18
614.22	1608.42
614.57	1599.01
614.92	1589.70
615.27	1580.13
615.61	1570.29
615.96	1561.33
616.31	1552.74
616.65	1544.80
617.00	1536.51
617.35	1527.72
617.70	1518.89
618.04	1509.46
618.39	1499.89
618.74	1491.52
619.08	1482.66
619.43	1474.55
619.78	1466.85
620.12	1458.40
620.47	1450.61
620.82	1441.93
621.16	1433.66
621.51	1424.90
621.85	1416.64
622.20	1408.11
622.55	1399.44
622.89	1391.01
623.24	1382.90
623.59	1374.26
623.93	1365.25
624.28	1357.05
624.62	1348.87
624.97	1340.55
625.32	1332.91
625.66	1325.45
626.01	1317.89
626.35	1311.02
626.70	1303.17
627.04	1295.45
627.39	1287.90
627.73	1280.25
628.08	1273.63
628.43	1266.17
628.77	1258.76
629.12	1251.08
629.46	1244.39
629.81	1237.17
630.15	1229.86
630.50	1222.35
630.84	1215.12
631.19	1207.95
631.53	1200.88
631.88	1192.97
632.22	1185.47
632.57	1178.50
632.91	1171.10
633.26	1163.53
633.60	1156.18
633.95	1149.47
634.29	1142.15
634.64	1135.38
634.98	1128.34
635.32	1120.91
635.67	1114.46
636.01	1107.93
636.36	1101.18
636.70	1094.55
637.05	1088.15
637.39	1081.78
637.73	1075.40
638.08	1069.54
638.42	1063.69
638.77	1057.18
639.11	1050.78
639.45	1044.88
639.80	1038.17
640.14	1031.60
640.49	1025.48
640.83	1019.26
641.17	1012.72
641.52	1006.56
641.86	1000.05
642.20	993.68
642.55	987.04
642.89	980.69
643.23	974.32
643.58	968.59
643.92	961.89
644.26	955.40
644.61	949.25
644.95	942.91
645.29	936.48
645.64	929.94
645.98	923.74
646.32	918.03
646.66	911.73
647.01	905.91
647.35	900.09
647.69	893.62
648.04	887.48
648.38	881.63
648.72	875.44
649.06	869.20
649.41	863.31
649.75	857.49
650.09	851.50
650.43	845.46
650.78	839.14
651.12	832.95
651.46	827.23
651.80	821.24
652.14	815.48
652.49	809.50
652.83	803.71
653.17	797.67
653.51	791.72
653.85	785.90
654.20	780.00
654.54	774.18
654.88	768.74
655.22	762.91
655.56	756.87
655.90	751.10
656.25	745.44
656.59	739.80
656.93	734.53
657.27	729.28
657.61	723.79
657.95	718.78
658.29	713.81
658.64	708.73
658.98	703.43
659.32	697.99
659.66	692.65
660.00	687.21
660.34	682.04
660.68	676.89
661.02	671.83
661.36	666.95
661.70	662.00
662.05	657.15
662.39	652.65
662.73	648.31
663.07	643.93
663.41	639.56
663.75	635.01
664.09	630.31
664.43	625.48
664.77	621.04
665.11	616.46
665.45	611.99
665.79	607.50
666.13	603.12
666.47	598.96
666.81	594.86
667.15	590.78
667.49	586.92
667.83	582.99
668.17	578.98
668.51	575.08
668.85	571.38
669.19	567.86
669.53	563.96
669.87	559.89
670.21	556.23
670.55	552.34
670.89	548.84
671.23	545.55
671.57	542.16
671.91	538.64
672.25	534.87
672.58	531.38
672.92	527.97
673.26	524.80
673.60	521.48
673.94	518.02
674.28	514.71
674.62	511.47
674.96	508.25
675.30	505.31
675.64	502.08
675.97	498.78
676.31	495.66
676.65	492.84
676.99	490.10
677.33	486.97
677.67	484.06
678.01	480.94
678.34	477.87
678.68	474.99
679.02	472.00
679.36	469.37
679.70	466.55
680.04	463.51
680.37	460.47
680.71	457.72
681.05	455.09
681.39	452.51
681.73	449.77
682.06	447.10
682.40	444.31
682.74	441.75
683.08	439.43
683.42	436.75
683.75	434.04
684.09	431.48
684.43	428.96
684.77	426.35
685.10	423.95
685.44	421.31
685.78	418.69
686.12	416.48
686.45	414.06
686.79	411.83
687.13	409.90
687.46	407.75
687.80	405.51
688.14	403.20
688.48	400.90
688.81	398.61
689.15	396.33
689.49	394.14
689.82	391.94
690.16	389.49
690.50	387.15
690.83	384.86
691.17	382.48
691.51	380.31
691.84	378.25
692.18	376.18
692.52	374.38
692.85	372.60
693.19	370.64
693.52	368.69
693.86	366.56
694.20	364.51
694.53	362.59
694.87	360.60
695.21	358.66
695.54	356.68
695.88	354.74
696.21	352.98
696.55	351.22
696.88	349.31
697.22	347.57
697.56	345.97
697.89	344.30
698.23	342.81
698.56	341.20
698.90	339.64
699.23	337.98
699.57	336.31
699.90	334.53
700.24	332.78
700.58	331.20
700.91	329.71
701.25	328.28
701.58	326.89
701.92	325.44
702.25	324.14
702.59	322.78
702.92	321.41
703.26	320.07
703.59	318.80
703.93	317.76
704.26	316.60
704.60	315.34
704.93	314.06
705.26	312.72
705.60	311.59
705.93	310.32
706.27	309.15
706.60	307.98
706.94	307.02
707.27	305.81
707.61	304.64
707.94	303.51
708.27	302.24
708.61	301.08
708.94	299.94
709.28	298.82
709.61	297.72
709.94	296.71
710.28	295.58
710.61	294.56
710.95	293.29
711.28	292.30
711.61	291.19
711.95	290.34
712.28	289.33
712.61	288.23
712.95	287.33
713.28	286.40
713.61	285.43
713.95	284.33
714.28	283.59
714.61	282.60
714.95	281.70
715.28	280.77
715.61	279.76
715.95	278.88
716.28	278.02
716.61	277.13
716.95	276.28
717.28	275.53
717.61	274.66
717.94	273.93
718.28	273.02
718.61	272.34
718.94	271.50
719.27	270.75
719.61	270.00
719.94	269.25
720.27	268.49
720.60	267.74
720.94	267.05
721.27	266.36
721.60	265.79
721.93	265.17
722.27	264.65
722.60	264.13
722.93	263.63
723.26	262.95
723.59	262.37
723.93	261.76
724.26	261.14
724.59	260.51
724.92	260.05
725.25	259.55
725.59	259.05
725.92	258.60
726.25	258.07
726.58	257.58
726.91	257.11
727.24	256.62
727.57	256.18
727.91	255.72
728.24	255.22
728.57	254.77
728.90	254.29
729.23	253.72
729.56	253.29
729.89	252.72
730.22	252.28
730.55	251.85
730.89	251.45
731.22	251.03
731.55	250.60
731.88	250.04
732.21	249.62
732.54	249.02
732.87	248.53
733.20	248.04
733.53	247.68
733.86	247.30
734.19	246.89
734.52	246.52
734.85	246.26
735.18	245.83
735.51	245.45
735.84	245.12
736.17	244.75
736.50	244.30
736.83	244.12
737.16	243.74
737.49	243.42
737.82	242.92
738.15	242.58
738.48	242.30
738.81	241.97
739.14	241.55
739.47	241.27
739.80	240.90
740.13	240.65
740.46	240.17
740.79	239.76
741.12	239.41
741.45	239.00
741.78	238.59
742.11	238.33
742.44	238.02
742.77	237.70
743.10	237.30
743.43	237.02
743.75	236.50
744.08	236.49
744.41	236.10
744.74	235.87
745.07	235.49
745.40	235.18
745.73	234.97
746.06	234.66
746.39	234.37
746.71	234.05
747.04	233.72
747.37	233.49
747.70	233.13
748.03	232.89
748.36	232.65
748.68	232.34
749.01	232.01
749.34	231.68
749.67	231.42
750.00	231.27
750.33	231.04
750.65	230.84
750.98	230.28
751.31	230.08
751.64	229.86
751.97	229.66
752.29	229.40
752.62	229.05
752.95	228.86
753.28	228.67
753.60	228.48
753.93	228.33
754.26	228.10
754.59	227.95
754.91	227.63
755.24	227.42
755.57	227.17
755.90	226.93
756.22	226.74
756.55	226.52
756.88	226.30
757.20	226.05
757.53	225.85
757.86	225.77
758.19	225.55
758.51	225.38
758.84	225.22
759.17	225.11
759.49	224.98
759.82	224.85
760.15	224.70
760.47	224.52
760.80	224.31
761.13	224.22
761.45	224.00
761.78	223.87
762.11	223.77
762.43	223.66
762.76	223.50
763.08	223.28
763.41	223.16
763.74	223.02
764.06	222.95
764.39	222.82
764.71	222.55
765.04	222.44
765.37	222.28
765.69	222.14
766.02	221.91
766.34	221.83
766.67	221.58
767.00	221.46
767.32	221.34
767.65	221.39
767.97	221.20
768.30	221.17
768.62	221.08
768.95	220.90
769.27	220.77
769.60	220.73
769.92	220.67
770.25	220.60
770.57	220.49
770.90	220.31
771.22	220.18
771.55	220.18
771.87	220.07
772.20	219.96
772.52	219.96
772.85	220.15
773.17	219.96
773.50	219.95
773.82	219.81
774.15	219.73
774.47	219.44
774.80	219.35
775.12	219.30
775.45	219.20
775.77	219.18
776.09	219.11
776.42	219.05
776.74	219.07
777.07	218.90
777.39	218.86
777.72	218.80
778.04	218.67
778.36	218.56
778.69	218.52
779.01	218.41
779.33	218.23
779.66	217.95
779.98	217.89
780.31	217.82
780.63	217.78
780.95	217.75
781.28	217.64
781.60	217.63
781.92	217.50
782.25	217.50
782.57	217.32
782.89	217.24
783.22	217.12
783.54	217.00
783.86	216.95
784.19	216.80
784.51	216.78
784.83	216.79
785.16	216.78
785.48	216.69
785.80	216.76
786.12	216.68
786.45	216.55
786.77	216.52
787.09	216.44
787.42	216.41
787.74	216.41
788.06	216.36
788.38	216.27
788.71	216.22
789.03	216.15
789.35	216.23
789.67	216.18
789.99	216.19
790.32	216.12
790.64	216.10
790.96	216.24
791.28	216.11
791.61	216.02
791.93	215.94
792.25	215.90
792.57	215.90
792.89	215.82
793.21	215.80
793.54	215.78
793.86	215.76
794.18	215.69
794.50	215.53
794.82	215.55
795.14	215.56
795.47	215.51
795.79	215.40
796.11	215.31
796.43	215.28
796.75	215.17
797.07	215.13
797.39	215.00
797.71	214.84
798.04	214.79
798.36	214.76
798.68	214.71
799.00	214.70
799.32	214.55
799.64	214.57
799.96	214.52
800.28	214.50
800.60	214.44
800.92	214.44
801.24	214.43
801.56	214.36
801.89	214.20
802.21	214.17
802.53	214.13
802.85	214.09
803.17	214.13
803.49	214.10
803.81	214.11
804.13	214.19
804.45	214.06
804.77	214.11
805.09	214.09
805.41	214.04
805.73	213.93
806.05	213.91
806.37	213.88
806.69	213.85
807.01	213.82
807.33	213.77
807.65	213.60
807.97	213.66
808.28	213.60
808.60	213.65
808.92	213.60
809.24	213.66
809.56	213.57
809.88	213.42
810.20	213.39
810.52	213.41
810.84	213.30
811.16	213.35
811.48	213.26
811.80	213.26
812.12	213.22
812.43	213.29
812.75	213.24
813.07	213.18
813.39	213.11
813.71	213.04
814.03	213.05
814.35	213.11
814.67	212.94
814.98	212.98
815.30	212.93
815.62	212.87
815.94	212.82
816.26	212.78
816.58	212.76
816.89	212.70
817.21	212.62
817.53	212.66
817.85	212.63
818.17	212.58
818.48	212.58
818.80	212.60
819.12	212.52
819.44	212.52
819.76	212.51
820.07	212.53
820.39	212.49
820.71	212.47
821.03	212.48
821.34	212.44
821.66	212.41
821.98	212.44
822.30	212.42
822.61	212.48
822.93	212.52
823.25	212.49
823.57	212.53
823.88	212.53
824.20	212.44
824.52	212.41
824.83	212.44
825.15	212.35
825.47	212.33
825.79	212.30
826.10	212.25
826.42	212.21
826.74	212.27
827.05	212.29
827.37	212.26
827.69	212.23
828.00	212.31
828.32	212.30
828.64	212.29
828.95	212.42
829.27	212.38
829.58	212.37
829.90	212.42
830.22	212.40
830.53	212.34
830.85	212.32
831.17	212.31
831.48	212.22
831.80	212.20
832.11	212.19
832.43	212.17
832.75	212.15
833.06	212.28
833.38	212.17
833.69	212.16
834.01	212.17
834.32	212.12
834.64	212.03
834.96	212.00
835.27	211.99
835.59	211.88
835.90	211.79
836.22	211.84
836.53	211.76
836.85	211.75
837.16	211.91
837.48	211.91
837.79	211.95
838.11	211.97
838.42	212.01
838.74	212.00
839.05	211.99
839.37	211.99
839.68	211.80
840.00	211.83
840.31	211.77
840.63	211.73
840.94	211.70
841.26	211.65
841.57	211.63
841.88	211.65
842.20	211.64
842.51	211.63
842.83	211.53
843.14	211.68
843.46	211.66
843.77	211.58
844.08	211.57
844.40	211.52
844.71	211.48
845.03	211.50
845.34	211.52
845.65	211.58
845.97	211.65
846.28	211.74
846.60	211.76
846.91	211.79
847.22	211.78
847.54	211.78
847.85	211.85
848.16	211.81
848.48	211.78
848.79	211.80
849.10	211.81
849.42	211.82
849.73	211.67
850.04	211.66
850.36	211.55
850.67	211.60
850.98	211.59
851.30	211.67
851.61	211.61
851.92	211.58
852.23	211.62
852.55	211.61
852.86	211.60
853.17	211.62
853.49	211.63
853.80	211.70
854.11	211.73
854.42	211.72
854.74	211.78
855.05	211.77
855.36	211.76
855.67	211.76
855.99	211.76
856.30	211.96
856.61	211.97
856.92	211.97
857.23	211.97
857.55	211.92
857.86	211.90
858.17	211.99
858.48	211.93
858.79	211.84
859.11	211.79
859.42	211.74
859.73	211.67
860.04	211.66
860.35	211.62
860.66	211.55
860.98	211.55
861.29	211.55
861.60	211.49
861.91	211.52
862.22	211.53
862.53	211.50
862.84	211.31
863.16	211.33
863.47	211.37
863.78	211.40
864.09	211.45
864.40	211.43
864.71	211.37
865.02	211.39
865.33	211.36
865.64	211.32
865.95	211.34
866.27	211.47
866.58	211.47
866.89	211.41
867.20	211.51
867.51	211.51
867.82	211.49
868.13	211.54
868.44	211.50
868.75	211.47
869.06	211.52
869.37	211.50
869.68	211.48
869.99	211.46
870.30	211.43
870.61	211.45
870.92	211.44
871.23	211.40
871.54	211.42
871.85	211.56
872.16	211.59
872.47	211.51
872.78	211.36
873.09	211.30
873.40	211.37
873.71	211.30
874.02	211.31
874.33	211.31
874.64	211.35
874.95	211.39
875.26	211.42
875.56	211.37
875.87	211.44
876.18	211.40
876.49	211.59
876.80	211.54
877.11	211.45
877.42	211.41
877.73	211.46
878.04	211.46
878.35	211.35
878.66	211.36
878.96	211.46
879.27	211.51
879.58	211.55
879.89	211.51
880.20	211.53
880.51	211.45
880.82	211.48
881.12	211.45
881.43	211.40
881.74	211.43
882.05	211.38
882.36	211.35
882.67	211.36
882.97	211.22
883.28	211.21
883.59	211.23
883.90	211.31
884.21	211.34
884.51	211.36
884.82	211.40
885.13	211.41
885.44	211.37
885.74	211.31
886.05	211.27
886.36	211.27
886.67	211.21
886.98	211.37
887.28	211.36
887.59	211.33
887.90	211.33
888.20	211.31
888.51	211.41
888.82	211.35
889.13	211.39
889.43	211.53
889.74	211.51
890.05	211.53
890.35	211.45
890.66	211.40
890.97	211.34
891.28	211.35
891.58	211.36
891.89	211.39
892.20	211.43
892.50	211.45
892.81	211.39
893.12	211.47
893.42	211.37
893.73	211.46
894.04	211.46
894.34	211.46
894.65	211.45
894.95	211.42
895.26	211.51
895.57	211.63
895.87	211.47
896.18	211.53
896.48	211.58
896.79	211.62
897.10	211.64
897.40	211.70
897.71	211.72
898.01	211.69
898.32	211.70
898.63	211.68
898.93	211.70
899.24	211.81
899.54	211.70
899.85	211.66
900.15	211.60
900.46	211.63
900.76	211.61
901.07	211.57
901.38	211.56
901.68	211.53
901.99	211.46
902.29	211.42
902.60	211.44
902.90	211.44
903.21	211.52
903.51	211.51
903.82	211.54
904.12	211.40
904.43	211.37
904.73	211.43
905.03	211.38
905.34	211.50
905.64	211.45
905.95	211.48
906.25	211.51
906.56	211.50
906.86	211.48
907.17	211.45
907.47	211.48
907.77	211.50
908.08	211.48
908.38	211.46
908.69	211.45
908.99	211.47
909.30	211.50
909.60	211.45
909.90	211.43
910.21	211.34
910.51	211.45
910.81	211.42
911.12	211.36
911.42	211.42
911.73	211.31
912.03	211.31
912.33	211.39
912.64	211.38
912.94	211.35
913.24	211.36
913.55	211.38
913.85	211.35
914.15	211.36
914.46	211.31
914.76	211.34
915.06	211.39
915.37	211.29
915.67	211.23
915.97	211.26
916.27	211.23
916.58	211.29
916.88	211.29
917.18	211.31
917.49	211.45
917.79	211.47
918.09	211.42
918.39	211.46
918.70	211.41
919.00	211.39
919.30	211.48
919.60	211.42
919.91	211.45
920.21	211.49
920.51	211.46
920.81	211.54
921.12	211.51
921.42	211.46
921.72	211.50
922.02	211.48
922.32	211.50
922.63	211.53
922.93	211.57
923.23	211.52
923.53	211.52
923.83	211.41
924.13	211.42
924.44	211.42
924.74	211.47
925.04	211.53
925.34	211.55
925.64	211.42
925.94	211.45
926.24	211.53
926.55	211.45
926.85	211.45
927.15	211.35
927.45	211.33
927.75	211.35
928.05	211.36
928.35	211.38
928.65	211.38
928.95	211.32
929.26	211.30
929.56	211.32
929.86	211.32
930.16	211.32
930.46	211.34
930.76	211.41
931.06	211.26
931.36	211.21
931.66	211.21
931.96	211.25
932.26	211.28
932.56	211.12
932.86	211.19
933.16	211.21
933.46	211.30
933.76	211.28
934.06	211.28
934.36	211.30
934.66	211.34
934.96	211.28
935.26	211.36
935.56	211.38
935.86	211.40
936.16	211.39
936.46	211.30
936.76	211.23
937.06	211.08
937.36	211.11
937.66	211.12
937.96	211.15
938.26	211.10
938.56	211.06
938.86	211.06
939.16	211.11
939.46	211.10
939.76	211.08
940.06	211.01
940.35	211.00
940.65	210.91
940.95	210.89
941.25	210.82
941.55	210.81
941.85	210.74
942.15	210.73
942.45	210.79
942.75	210.85
943.04	210.84
943.34	210.93
943.64	210.95
943.94	210.84
944.24	210.78
944.54	210.79
944.84	210.87
945.13	210.95
945.43	210.86
945.73	210.86
946.03	210.80
946.33	210.79
946.62	210.82
946.92	210.86
947.22	210.85
947.52	210.86
947.82	210.84
948.11	210.85
948.41	210.85
948.71	210.84
949.01	210.83
949.31	210.85
949.60	210.85
949.90	210.82
950.20	210.90
950.50	210.92
950.79	210.94
951.09	210.90
951.39	210.82
951.69	210.80
951.98	210.82
952.28	210.82
952.58	210.88
952.87	210.86
953.17	210.87
953.47	210.81
953.76	210.88
954.06	210.88
954.36	210.92
954.66	210.91
954.95	210.92
955.25	210.92
955.55	210.92
955.84	210.90
956.14	210.93
956.44	210.94
956.73	210.90
957.03	210.98
957.32	210.93
957.62	210.95
957.92	210.97
958.21	211.03
958.51	211.25
958.81	211.21
959.10	211.22
959.40	211.30
959.69	211.28
959.99	211.36
960.29	211.35
960.58	211.31
960.88	211.39
961.17	211.36
961.47	211.37
961.76	211.37
962.06	211.44
962.36	211.46
962.65	211.50
962.95	211.54
963.24	211.43
963.54	211.43
963.83	211.43
964.13	211.50
964.42	211.38
964.72	211.21
965.01	211.25
965.31	211.26
965.60	211.16
965.90	211.31
966.19	211.22
966.49	211.14
966.78	211.16
967.08	211.14
967.37	211.12
967.67	211.06
967.96	211.08
968.26	211.01
968.55	211.04
968.85	211.00
969.14	211.05
969.43	211.14
969.73	211.20
970.02	211.24
970.32	211.13
970.61	211.12
970.91	211.06
971.20	211.07
971.49	211.06
971.79	211.13
972.08	211.00
972.38	211.00
972.67	211.04
972.96	210.98
973.26	210.94
973.55	211.04
973.85	211.07
974.14	211.00
974.43	211.01
974.73	210.94
975.02	210.90
975.31	210.83
975.61	210.76
975.90	210.77
976.19	210.67
976.49	210.73
976.78	210.81
977.07	210.83
977.37	210.82
977.66	210.77
977.95	210.78
978.24	210.81
978.54	210.81
978.83	210.83
979.12	210.91
979.42	210.85
979.71	210.82
980.00	210.76
980.29	210.85
980.59	210.89
980.88	210.96
981.17	210.96
981.46	211.00
981.76	211.00
982.05	211.04
982.34	211.09
982.63	211.05
982.93	211.03
983.22	211.11
983.51	211.15
983.80	211.21
984.09	211.23
984.39	211.20
984.68	211.20
984.97	211.24
985.26	211.20
985.55	211.29
985.85	211.22
986.14	211.27
986.43	211.30
986.72	211.27
987.01	211.22
987.30	211.21
987.59	211.15
987.89	211.19
988.18	211.10
988.47	211.12
988.76	211.19
989.05	211.16
989.34	211.09
989.63	211.15
989.92	211.08
990.22	211.02
990.51	210.95
990.80	210.91
991.09	210.89
991.38	210.86
991.67	210.90
991.96	210.90
992.25	210.93
992.54	210.87
992.83	210.86
993.12	210.90
993.41	210.98
993.70	211.08
993.99	211.06
994.28	211.07
994.58	211.06
994.87	211.00
995.16	210.99
995.45	211.04
995.74	210.89
996.03	210.97
996.32	210.99
996.61	211.16
996.90	211.17
997.19	211.17
997.48	211.19
997.77	211.11
998.06	211.10
998.34	211.08
998.63	211.13
998.92	211.17
999.21	211.17
999.50	211.16
999.79	211.08
1000.08	211.06
1000.37	211.02
1000.66	211.01
1000.95	211.01
1001.24	211.10
1001.53	211.10
1001.82	211.13
1002.11	211.08
1002.40	211.06
1002.68	211.11
1002.97	211.26
1003.26	211.22
1003.55	211.20
1003.84	211.22
1004.13	211.30
1004.42	211.24
1004.71	211.17
1004.99	211.20
1005.28	211.24
1005.57	211.19
1005.86	211.17
1006.15	211.17
1006.44	211.15
1006.72	211.21
1007.01	211.21
1007.30	211.17
1007.59	211.15
1007.88	211.18
1008.17	211.15
1008.45	211.09
1008.74	210.95
1009.03	210.82
1009.32	210.79
1009.60	210.83
1009.89	210.77
1010.18	210.71
1010.47	210.68
1010.76	210.64
1011.04	210.57
1011.33	210.53
1011.62	210.57
1011.91	210.60
1012.19	210.65
1012.48	210.60
1012.77	210.49
1013.05	210.53
1013.34	210.49
1013.63	210.45
1013.92	210.40
1014.20	210.43
1014.49	210.45
1014.78	210.48
1015.06	210.44
1015.35	210.44
1015.64	210.44
1015.92	210.47
1016.21	210.44
1016.50	210.47
1016.78	210.48
1017.07	210.45
1017.36	210.41
1017.64	210.37
1017.93	210.38
1018.22	210.32
1018.50	210.41
1018.79	210.41
1019.08	210.28
1019.36	210.28
1019.65	210.36
1019.93	210.44
1020.22	210.45
1020.51	210.55
1020.79	210.47
1021.08	210.10
1021.36	210.80
1021.65	209.05
1021.94	209.10
1022.22	210.45
1022.51	211.70
1022.79	211.55
1023.08	211.25
1023.36	212.45
1023.65	209.60
>>>>>End Processed Spectral Data<<<<<
