SpectraSuite Data File
++++++++++++++++++++++++++++++++++++
Date: Mon Feb 25 17:31:02 EST 2013
User: group
Dark Spectrum Present: No
Reference Spectrum Present: No
Number of Sampled Component Spectra: 1
Spectrometers: USB2E7196
Integration Time (usec): 52000 (USB2E7196)
Spectra Averaged: 20 (USB2E7196)
Boxcar Smoothing: 10 (USB2E7196)
Correct for Electrical Dark: No (USB2E7196)
Strobe/Lamp Enabled: No (USB2E7196)
Correct for Detector Non-linearity: No (USB2E7196)
Correct for Stray Light: No (USB2E7196)
Number of Pixels in Processed Spectrum: 2048
>>>>>Begin Processed Spectral Data<<<<<
339.09	0.00
339.48	199.40
339.86	200.05
340.24	201.35
340.63	203.35
341.01	206.70
341.39	207.20
341.78	208.15
342.16	209.05
342.54	208.65
342.93	198.11
343.31	208.17
343.69	208.74
344.07	209.19
344.46	209.64
344.84	210.00
345.22	210.24
345.60	210.40
345.99	210.58
346.37	210.67
346.75	210.69
347.13	210.74
347.52	210.82
347.90	210.97
348.28	210.98
348.66	211.02
349.05	211.04
349.43	211.11
349.81	211.19
350.19	211.12
350.57	211.19
350.96	211.21
351.34	211.22
351.72	211.21
352.10	211.37
352.48	211.40
352.87	211.48
353.25	211.50
353.63	211.55
354.01	211.60
354.39	211.68
354.77	211.89
355.15	212.06
355.54	212.03
355.92	212.03
356.30	212.15
356.68	212.25
357.06	212.39
357.44	212.40
357.82	212.52
358.20	212.70
358.58	212.84
358.97	212.99
359.35	213.15
359.73	213.30
360.11	213.34
360.49	213.45
360.87	213.54
361.25	213.64
361.63	213.74
362.01	213.83
362.39	213.89
362.77	213.95
363.15	213.93
363.53	214.04
363.91	214.08
364.29	214.11
364.67	214.05
365.05	214.06
365.43	214.14
365.81	214.14
366.19	214.28
366.57	214.35
366.95	214.37
367.33	214.29
367.71	214.26
368.09	214.35
368.47	214.36
368.85	214.36
369.23	214.38
369.61	214.44
369.99	214.47
370.37	214.45
370.75	214.50
371.13	214.46
371.51	214.45
371.89	214.46
372.27	214.52
372.65	214.50
373.03	214.45
373.41	214.40
373.78	214.50
374.16	214.38
374.54	214.23
374.92	214.07
375.30	214.08
375.68	214.06
376.06	213.93
376.44	213.85
376.82	213.76
377.19	213.72
377.57	213.63
377.95	213.49
378.33	213.51
378.71	213.34
379.09	213.33
379.47	213.32
379.84	213.26
380.22	213.17
380.60	213.07
380.98	212.97
381.36	212.91
381.73	212.80
382.11	212.73
382.49	212.77
382.87	212.80
383.25	212.76
383.62	212.88
384.00	212.84
384.38	212.81
384.76	212.83
385.13	212.86
385.51	212.81
385.89	212.72
386.27	212.61
386.64	212.58
387.02	212.62
387.40	212.54
387.78	212.50
388.15	212.50
388.53	212.46
388.91	212.42
389.29	212.40
389.66	212.30
390.04	212.27
390.42	212.24
390.79	212.22
391.17	212.11
391.55	211.86
391.92	211.87
392.30	211.88
392.68	211.89
393.05	211.85
393.43	211.83
393.81	211.89
394.18	211.91
394.56	211.97
394.94	211.93
395.31	211.91
395.69	211.95
396.06	211.93
396.44	211.93
396.82	211.95
397.19	212.03
397.57	212.00
397.95	211.97
398.32	211.91
398.70	211.94
399.07	212.09
399.45	212.15
399.82	212.13
400.20	212.08
400.58	212.01
400.95	211.99
401.33	212.10
401.70	212.29
402.08	212.39
402.45	212.43
402.83	212.45
403.20	212.56
403.58	212.61
403.95	212.70
404.33	212.82
404.71	212.90
405.08	213.11
405.46	213.23
405.83	213.42
406.21	213.54
406.58	213.67
406.96	213.77
407.33	213.90
407.70	214.11
408.08	214.45
408.45	214.69
408.83	214.94
409.20	215.09
409.58	215.19
409.95	215.41
410.33	215.62
410.70	215.93
411.08	216.30
411.45	216.52
411.82	216.93
412.20	217.37
412.57	217.89
412.95	218.16
413.32	218.73
413.69	219.28
414.07	219.84
414.44	220.45
414.82	221.10
415.19	221.85
415.56	222.60
415.94	223.29
416.31	224.22
416.68	225.10
417.06	226.19
417.43	227.19
417.81	228.30
418.18	229.43
418.55	230.63
418.93	231.89
419.30	233.33
419.67	234.67
420.04	236.13
420.42	237.61
420.79	239.42
421.16	241.03
421.54	242.77
421.91	244.66
422.28	246.46
422.66	248.50
423.03	250.49
423.40	252.62
423.77	254.80
424.15	256.99
424.52	259.22
424.89	261.65
425.26	264.06
425.64	266.38
426.01	268.98
426.38	271.63
426.75	274.27
427.13	276.99
427.50	279.86
427.87	282.79
428.24	285.82
428.61	288.59
428.99	291.90
429.36	295.39
429.73	298.77
430.10	302.38
430.47	305.83
430.85	309.47
431.22	313.29
431.59	317.38
431.96	321.24
432.33	325.55
432.70	329.65
433.08	334.48
433.45	339.03
433.82	343.36
434.19	348.34
434.56	353.25
434.93	357.99
435.30	362.67
435.68	367.92
436.05	372.93
436.42	378.04
436.79	382.61
437.16	387.66
437.53	392.86
437.90	397.97
438.27	403.09
438.64	408.26
439.01	413.06
439.38	417.34
439.75	421.38
440.13	426.01
440.50	430.45
440.87	433.98
441.24	437.69
441.61	441.96
441.98	444.95
442.35	448.48
442.72	451.99
443.09	455.45
443.46	457.40
443.83	458.89
444.20	460.06
444.57	461.66
444.94	462.34
445.31	463.25
445.68	463.95
446.05	464.04
446.42	463.46
446.79	462.65
447.16	461.86
447.53	461.40
447.90	459.41
448.27	457.29
448.64	454.55
449.01	452.40
449.37	448.86
449.74	445.42
450.11	441.35
450.48	436.93
450.85	432.33
451.22	428.44
451.59	424.64
451.96	421.03
452.33	416.44
452.70	412.07
453.07	406.86
453.43	401.78
453.80	396.97
454.17	392.26
454.54	387.88
454.91	383.16
455.28	378.43
455.65	374.06
456.02	370.00
456.38	366.35
456.75	361.87
457.12	358.13
457.49	354.47
457.86	350.79
458.23	347.56
458.59	344.24
458.96	340.80
459.33	337.76
459.70	334.73
460.07	332.25
460.43	329.47
460.80	326.81
461.17	324.36
461.54	321.90
461.91	319.69
462.27	317.39
462.64	315.28
463.01	313.21
463.38	311.23
463.74	308.93
464.11	307.00
464.48	305.36
464.85	303.53
465.21	302.14
465.58	300.78
465.95	299.11
466.32	297.63
466.68	296.31
467.05	294.95
467.42	293.55
467.78	292.08
468.15	290.80
468.52	289.81
468.88	288.51
469.25	287.38
469.62	286.40
469.98	285.32
470.35	284.44
470.72	283.51
471.08	282.55
471.45	281.76
471.82	281.04
472.18	280.18
472.55	279.62
472.92	278.92
473.28	278.35
473.65	277.88
474.02	277.36
474.38	276.91
474.75	276.56
475.11	276.26
475.48	275.99
475.85	275.77
476.21	275.65
476.58	275.58
476.94	275.57
477.31	275.51
477.67	275.50
478.04	275.61
478.41	275.76
478.77	276.10
479.14	276.23
479.50	276.50
479.87	277.02
480.23	277.42
480.60	277.76
480.96	278.23
481.33	278.91
481.69	279.59
482.06	280.30
482.42	280.93
482.79	281.60
483.15	282.44
483.52	283.43
483.88	284.43
484.25	285.45
484.61	286.57
484.98	287.61
485.34	288.91
485.71	290.34
486.07	291.65
486.44	292.86
486.80	294.49
487.17	296.07
487.53	297.68
487.90	299.48
488.26	301.44
488.62	303.33
488.99	305.38
489.35	307.55
489.72	309.77
490.08	312.19
490.44	314.58
490.81	317.35
491.17	319.97
491.54	322.82
491.90	325.75
492.26	328.87
492.63	332.24
492.99	335.74
493.36	339.24
493.72	343.13
494.08	347.32
494.45	351.58
494.81	355.97
495.17	360.50
495.54	365.49
495.90	370.58
496.26	375.85
496.63	381.26
496.99	386.96
497.35	392.86
497.72	399.14
498.08	405.70
498.44	412.30
498.80	419.45
499.17	426.84
499.53	434.37
499.89	442.32
500.26	450.35
500.62	458.59
500.98	467.35
501.34	476.42
501.71	485.60
502.07	495.13
502.43	505.26
502.79	515.47
503.16	525.94
503.52	536.68
503.88	547.78
504.24	559.28
504.60	571.08
504.97	583.40
505.33	595.63
505.69	608.81
506.05	622.25
506.41	635.59
506.78	649.24
507.14	663.29
507.50	677.71
507.86	692.74
508.22	708.03
508.59	723.34
508.95	739.26
509.31	755.51
509.67	772.07
510.03	788.66
510.39	806.04
510.75	823.69
511.12	841.55
511.48	859.86
511.84	878.25
512.20	896.83
512.56	915.96
512.92	935.64
513.28	954.83
513.64	974.31
514.00	994.26
514.37	1014.61
514.73	1035.25
515.09	1055.59
515.45	1075.96
515.81	1096.98
516.17	1118.08
516.53	1139.11
516.89	1160.41
517.25	1181.77
517.61	1203.25
517.97	1224.52
518.33	1245.73
518.69	1267.42
519.05	1289.05
519.41	1310.94
519.77	1333.33
520.13	1355.04
520.49	1376.58
520.85	1399.08
521.21	1421.27
521.57	1443.93
521.93	1465.61
522.29	1488.18
522.65	1510.55
523.01	1532.70
523.37	1554.31
523.73	1576.58
524.09	1598.49
524.45	1620.45
524.81	1642.68
525.17	1664.77
525.53	1686.83
525.89	1709.24
526.25	1730.84
526.61	1751.89
526.97	1773.04
527.33	1793.61
527.68	1814.61
528.04	1835.41
528.40	1855.35
528.76	1875.78
529.12	1895.94
529.48	1916.91
529.84	1936.91
530.20	1956.97
530.56	1977.23
530.91	1997.64
531.27	2017.45
531.63	2037.15
531.99	2056.54
532.35	2075.10
532.71	2093.97
533.07	2113.20
533.42	2131.06
533.78	2149.77
534.14	2167.71
534.50	2184.74
534.86	2202.45
535.21	2218.79
535.57	2236.46
535.93	2253.28
536.29	2269.73
536.65	2285.97
537.00	2301.41
537.36	2316.13
537.72	2331.02
538.08	2345.61
538.44	2360.27
538.79	2375.22
539.15	2389.63
539.51	2403.75
539.87	2418.74
540.22	2432.73
540.58	2447.15
540.94	2460.85
541.29	2472.96
541.65	2484.99
542.01	2497.81
542.37	2509.41
542.72	2521.58
543.08	2532.23
543.44	2543.88
543.79	2553.55
544.15	2563.30
544.51	2573.85
544.87	2584.51
545.22	2593.31
545.58	2601.80
545.94	2608.86
546.29	2615.19
546.65	2621.20
547.01	2627.21
547.36	2632.31
547.72	2637.48
548.07	2641.00
548.43	2644.65
548.79	2648.33
549.14	2652.93
549.50	2656.94
549.86	2660.60
550.21	2664.10
550.57	2667.80
550.92	2670.10
551.28	2672.82
551.64	2675.10
551.99	2677.01
552.35	2678.45
552.70	2680.80
553.06	2683.41
553.41	2686.19
553.77	2688.73
554.13	2690.79
554.48	2692.77
554.84	2694.09
555.19	2694.48
555.55	2694.55
555.90	2695.10
556.26	2695.62
556.61	2695.16
556.97	2693.53
557.32	2692.85
557.68	2691.16
558.03	2689.36
558.39	2687.73
558.74	2687.08
559.10	2685.97
559.45	2684.20
559.81	2682.93
560.16	2680.40
560.52	2677.75
560.87	2674.80
561.23	2670.88
561.58	2668.33
561.94	2664.88
562.29	2661.21
562.64	2658.87
563.00	2656.80
563.35	2654.46
563.71	2652.25
564.06	2650.17
564.42	2648.54
564.77	2645.96
565.12	2643.87
565.48	2640.75
565.83	2637.75
566.19	2634.54
566.54	2629.84
566.89	2625.76
567.25	2621.65
567.60	2618.24
567.96	2614.45
568.31	2610.63
568.66	2606.76
569.02	2602.18
569.37	2596.90
569.72	2593.09
570.08	2587.79
570.43	2581.85
570.78	2575.92
571.14	2569.82
571.49	2563.15
571.84	2557.20
572.20	2550.63
572.55	2544.27
572.90	2537.49
573.26	2530.24
573.61	2522.80
573.96	2516.55
574.31	2508.96
574.67	2501.14
575.02	2492.75
575.37	2484.14
575.72	2475.50
576.08	2468.10
576.43	2459.48
576.78	2451.75
577.13	2443.89
577.49	2435.74
577.84	2428.03
578.19	2420.39
578.54	2413.15
578.90	2406.27
579.25	2397.86
579.60	2388.82
579.95	2379.89
580.30	2372.18
580.66	2364.29
581.01	2355.60
581.36	2346.41
581.71	2337.97
582.06	2329.53
582.42	2321.53
582.77	2312.83
583.12	2304.09
583.47	2295.49
583.82	2287.45
584.17	2278.31
584.53	2269.07
584.88	2260.62
585.23	2251.77
585.58	2242.65
585.93	2233.27
586.28	2224.06
586.63	2215.32
586.98	2207.38
587.34	2198.94
587.69	2189.99
588.04	2181.22
588.39	2172.98
588.74	2164.28
589.09	2155.73
589.44	2146.37
589.79	2137.94
590.14	2129.93
590.49	2121.82
590.84	2113.03
591.19	2104.89
591.54	2096.72
591.89	2086.91
592.25	2077.66
592.60	2068.35
592.95	2059.49
593.30	2050.22
593.65	2040.74
594.00	2031.31
594.35	2023.17
594.70	2014.52
595.05	2005.82
595.40	1997.22
595.75	1987.99
596.10	1980.20
596.45	1972.03
596.80	1964.66
597.15	1956.61
597.50	1947.99
597.85	1939.71
598.19	1931.06
598.54	1922.73
598.89	1915.17
599.24	1908.56
599.59	1901.45
599.94	1894.94
600.29	1887.32
600.64	1879.46
600.99	1871.27
601.34	1864.24
601.69	1855.69
602.04	1847.59
602.39	1839.80
602.74	1831.91
603.08	1825.56
603.43	1818.44
603.78	1810.62
604.13	1802.60
604.48	1794.65
604.83	1787.69
605.18	1780.91
605.53	1773.81
605.87	1766.24
606.22	1759.27
606.57	1751.68
606.92	1743.95
607.27	1735.61
607.62	1728.39
607.96	1721.75
608.31	1715.88
608.66	1708.19
609.01	1700.87
609.36	1693.44
609.70	1685.45
610.05	1678.13
610.40	1670.25
610.75	1661.77
611.10	1654.35
611.44	1645.56
611.79	1636.96
612.14	1627.94
612.49	1618.39
612.83	1609.82
613.18	1600.25
613.53	1590.73
613.88	1581.10
614.22	1572.06
614.57	1563.26
614.92	1554.13
615.27	1544.96
615.61	1535.21
615.96	1526.20
616.31	1517.78
616.65	1509.98
617.00	1501.89
617.35	1493.57
617.70	1484.69
618.04	1476.12
618.39	1466.99
618.74	1458.90
619.08	1450.42
619.43	1442.43
619.78	1434.79
620.12	1426.80
620.47	1419.43
620.82	1411.08
621.16	1403.20
621.51	1395.24
621.85	1387.14
622.20	1378.82
622.55	1370.55
622.89	1362.51
623.24	1355.07
623.59	1346.50
623.93	1337.99
624.28	1330.07
624.62	1322.07
624.97	1313.94
625.32	1306.13
625.66	1298.63
626.01	1291.38
626.35	1284.36
626.70	1276.78
627.04	1269.51
627.39	1261.97
627.73	1254.67
628.08	1248.12
628.43	1240.85
628.77	1233.41
629.12	1226.12
629.46	1219.63
629.81	1212.88
630.15	1205.71
630.50	1198.44
630.84	1191.47
631.19	1184.29
631.53	1177.53
631.88	1169.92
632.22	1162.45
632.57	1155.69
632.91	1148.52
633.26	1141.17
633.60	1134.03
633.95	1127.45
634.29	1120.02
634.64	1113.28
634.98	1106.15
635.32	1099.02
635.67	1092.64
636.01	1086.12
636.36	1079.31
636.70	1072.72
637.05	1065.91
637.39	1059.78
637.73	1053.54
638.08	1047.74
638.42	1041.87
638.77	1035.40
639.11	1029.13
639.45	1023.53
639.80	1016.92
640.14	1010.68
640.49	1004.55
640.83	998.39
641.17	991.76
641.52	985.79
641.86	979.51
642.20	973.66
642.55	967.07
642.89	960.84
643.23	954.46
643.58	948.87
643.92	942.24
644.26	936.20
644.61	930.18
644.95	924.01
645.29	917.69
645.64	911.33
645.98	905.36
646.32	899.65
646.66	893.40
647.01	887.70
647.35	881.80
647.69	875.62
648.04	869.85
648.38	864.29
648.72	858.64
649.06	852.55
649.41	846.54
649.75	840.72
650.09	835.00
650.43	829.40
650.78	823.28
651.12	817.46
651.46	811.84
651.80	805.84
652.14	800.00
652.49	794.17
652.83	788.54
653.17	782.42
653.51	776.72
653.85	771.21
654.20	765.45
654.54	759.67
654.88	754.44
655.22	748.80
655.56	742.94
655.90	737.20
656.25	731.72
656.59	726.36
656.93	721.52
657.27	716.32
657.61	710.99
657.95	705.90
658.29	700.96
658.64	695.75
658.98	690.90
659.32	685.73
659.66	680.84
660.00	675.59
660.34	670.54
660.68	665.34
661.02	660.29
661.36	655.64
661.70	651.03
662.05	646.37
662.39	641.93
662.73	637.68
663.07	633.35
663.41	629.21
663.75	624.76
664.09	620.13
664.43	615.42
664.77	611.06
665.11	606.82
665.45	602.53
665.79	598.28
666.13	593.85
666.47	589.68
666.81	585.44
667.15	581.44
667.49	577.64
667.83	573.79
668.17	569.90
668.51	566.10
668.85	562.34
669.19	558.70
669.53	554.76
669.87	550.76
670.21	546.94
670.55	543.04
670.89	539.57
671.23	536.27
671.57	532.85
671.91	529.30
672.25	525.65
672.58	522.23
672.92	518.80
673.26	515.76
673.60	512.64
673.94	509.39
674.28	506.20
674.62	503.19
674.96	500.19
675.30	497.32
675.64	494.23
675.97	491.21
676.31	488.20
676.65	485.33
676.99	482.74
677.33	479.86
677.67	476.98
678.01	473.93
678.34	470.93
678.68	468.07
679.02	465.11
679.36	462.46
679.70	459.68
680.04	456.83
680.37	453.63
680.71	450.77
681.05	448.13
681.39	445.45
681.73	442.67
682.06	440.18
682.40	437.45
682.74	434.83
683.08	432.31
683.42	429.67
683.75	427.15
684.09	424.55
684.43	422.14
684.77	419.73
685.10	417.32
685.44	414.94
685.78	412.52
686.12	410.38
686.45	408.01
686.79	405.72
687.13	403.68
687.46	401.81
687.80	399.71
688.14	397.39
688.48	395.32
688.81	393.13
689.15	390.85
689.49	388.77
689.82	386.57
690.16	384.29
690.50	382.05
690.83	379.80
691.17	377.59
691.51	375.50
691.84	373.38
692.18	371.39
692.52	369.41
692.85	367.72
693.19	365.79
693.52	363.85
693.86	361.89
694.20	360.00
694.53	358.09
694.87	356.20
695.21	354.44
695.54	352.60
695.88	350.71
696.21	349.08
696.55	347.33
696.88	345.67
697.22	344.05
697.56	342.56
697.89	341.05
698.23	339.47
698.56	337.90
698.90	336.54
699.23	334.90
699.57	333.27
699.90	331.50
700.24	329.95
700.58	328.42
700.91	327.01
701.25	325.61
701.58	324.29
701.92	322.95
702.25	321.65
702.59	320.27
702.92	319.06
703.26	317.58
703.59	316.31
703.93	315.19
704.26	313.96
704.60	312.63
704.93	311.38
705.26	310.18
705.60	308.93
705.93	307.56
706.27	306.48
706.60	305.45
706.94	304.41
707.27	303.24
707.61	302.13
707.94	300.98
708.27	299.70
708.61	298.40
708.94	297.13
709.28	296.04
709.61	294.97
709.94	293.89
710.28	292.85
710.61	291.81
710.95	290.65
711.28	289.63
711.61	288.70
711.95	287.72
712.28	286.81
712.61	285.84
712.95	284.93
713.28	284.02
713.61	283.00
713.95	282.05
714.28	281.22
714.61	280.34
714.95	279.40
715.28	278.56
715.61	277.65
715.95	276.79
716.28	275.81
716.61	274.92
716.95	274.13
717.28	273.40
717.61	272.54
717.94	271.79
718.28	271.00
718.61	270.25
718.94	269.60
719.27	268.78
719.61	268.12
719.94	267.52
720.27	266.72
720.60	265.96
720.94	265.25
721.27	264.62
721.60	264.06
721.93	263.50
722.27	262.94
722.60	262.46
722.93	261.98
723.26	261.41
723.59	260.90
723.93	260.36
724.26	259.80
724.59	259.22
724.92	258.65
725.25	258.12
725.59	257.50
725.92	256.90
726.25	256.40
726.58	255.85
726.91	255.26
727.24	254.80
727.57	254.40
727.91	253.88
728.24	253.44
728.57	252.90
728.90	252.46
729.23	251.93
729.56	251.60
729.89	251.05
730.22	250.61
730.55	250.12
730.89	249.59
731.22	249.08
731.55	248.64
731.88	248.23
732.21	247.82
732.54	247.35
732.87	246.92
733.20	246.49
733.53	246.11
733.86	245.67
734.19	245.29
734.52	244.89
734.85	244.66
735.18	244.16
735.51	243.77
735.84	243.34
736.17	243.04
736.50	242.47
736.83	242.34
737.16	242.03
737.49	241.64
737.82	241.36
738.15	241.00
738.48	240.72
738.81	240.36
739.14	239.94
739.47	239.61
739.80	239.24
740.13	238.86
740.46	238.52
740.79	238.14
741.12	237.78
741.45	237.48
741.78	237.08
742.11	236.91
742.44	236.58
742.77	236.40
743.10	236.11
743.43	235.79
743.75	235.35
744.08	235.22
744.41	234.89
744.74	234.60
745.07	234.32
745.40	234.07
745.73	233.87
746.06	233.59
746.39	233.39
746.71	233.11
747.04	232.83
747.37	232.47
747.70	232.33
748.03	232.10
748.36	231.83
748.68	231.56
749.01	231.19
749.34	230.99
749.67	230.74
750.00	230.48
750.33	230.43
750.65	230.21
750.98	229.84
751.31	229.67
751.64	229.39
751.97	229.29
752.29	229.02
752.62	228.81
752.95	228.62
753.28	228.37
753.60	228.18
753.93	228.10
754.26	227.98
754.59	227.65
754.91	227.45
755.24	227.25
755.57	227.03
755.90	226.79
756.22	226.50
756.55	226.25
756.88	226.04
757.20	225.77
757.53	225.55
757.86	225.33
758.19	225.20
758.51	225.07
758.84	224.80
759.17	224.63
759.49	224.35
759.82	224.30
760.15	224.21
760.47	224.03
760.80	223.73
761.13	223.60
761.45	223.45
761.78	223.28
762.11	223.14
762.43	223.02
762.76	222.96
763.08	222.92
763.41	222.76
763.74	222.60
764.06	222.45
764.39	222.35
764.71	222.26
765.04	222.08
765.37	221.96
765.69	221.83
766.02	221.71
766.34	221.60
766.67	221.37
767.00	221.21
767.32	221.13
767.65	221.20
767.97	221.08
768.30	220.98
768.62	220.88
768.95	220.73
769.27	220.62
769.60	220.55
769.92	220.41
770.25	220.27
770.57	220.10
770.90	220.03
771.22	219.85
771.55	219.67
771.87	219.60
772.20	219.38
772.52	219.38
772.85	219.51
773.17	219.45
773.50	219.38
773.82	219.25
774.15	219.11
774.47	218.85
774.80	218.77
775.12	218.66
775.45	218.59
775.77	218.58
776.09	218.53
776.42	218.35
776.74	218.22
777.07	218.17
777.39	218.19
777.72	218.05
778.04	218.00
778.36	217.92
778.69	217.88
779.01	217.95
779.33	217.82
779.66	217.56
779.98	217.51
780.31	217.45
780.63	217.46
780.95	217.43
781.28	217.37
781.60	217.29
781.92	217.28
782.25	217.27
782.57	217.12
782.89	216.95
783.22	216.99
783.54	216.93
783.86	216.87
784.19	216.79
784.51	216.73
784.83	216.63
785.16	216.65
785.48	216.59
785.80	216.44
786.12	216.28
786.45	216.18
786.77	216.04
787.09	215.94
787.42	215.82
787.74	215.71
788.06	215.61
788.38	215.56
788.71	215.44
789.03	215.31
789.35	215.24
789.67	215.27
789.99	215.16
790.32	215.08
790.64	215.01
790.96	215.10
791.28	215.06
791.61	214.99
791.93	214.93
792.25	214.83
792.57	214.95
792.89	215.00
793.21	215.05
793.54	215.10
793.86	215.03
794.18	214.97
794.50	214.96
794.82	214.97
795.14	214.90
795.47	214.90
795.79	214.91
796.11	214.86
796.43	214.76
796.75	214.74
797.07	214.80
797.39	214.80
797.71	214.61
798.04	214.62
798.36	214.61
798.68	214.60
799.00	214.58
799.32	214.39
799.64	214.40
799.96	214.25
800.28	214.24
800.60	214.30
800.92	214.32
801.24	214.35
801.56	214.37
801.89	214.35
802.21	214.39
802.53	214.35
802.85	214.48
803.17	214.55
803.49	214.50
803.81	214.45
804.13	214.44
804.45	214.44
804.77	214.40
805.09	214.38
805.41	214.31
805.73	214.25
806.05	214.25
806.37	214.17
806.69	214.19
807.01	214.08
807.33	214.06
807.65	214.01
807.97	214.02
808.28	214.02
808.60	213.95
808.92	213.94
809.24	214.00
809.56	213.92
809.88	213.83
810.20	213.88
810.52	213.93
810.84	213.82
811.16	213.80
811.48	213.73
811.80	213.85
812.12	213.82
812.43	213.86
812.75	213.87
813.07	213.81
813.39	213.73
813.71	213.70
814.03	213.61
814.35	213.61
814.67	213.51
814.98	213.48
815.30	213.51
815.62	213.44
815.94	213.32
816.26	213.30
816.58	213.29
816.89	213.24
817.21	213.17
817.53	213.19
817.85	213.14
818.17	213.09
818.48	213.00
818.80	213.08
819.12	212.98
819.44	212.91
819.76	212.86
820.07	212.87
820.39	212.90
820.71	212.89
821.03	212.89
821.34	212.90
821.66	212.89
821.98	212.92
822.30	212.94
822.61	213.00
822.93	212.94
823.25	212.91
823.57	212.95
823.88	212.97
824.20	212.94
824.52	212.92
824.83	212.98
825.15	212.95
825.47	212.85
825.79	212.89
826.10	212.93
826.42	212.98
826.74	213.00
827.05	213.01
827.37	213.03
827.69	212.96
828.00	212.93
828.32	212.96
828.64	212.90
828.95	212.95
829.27	212.87
829.58	212.84
829.90	212.81
830.22	212.71
830.53	212.63
830.85	212.56
831.17	212.47
831.48	212.37
831.80	212.38
832.11	212.38
832.43	212.34
832.75	212.23
833.06	212.31
833.38	212.25
833.69	212.21
834.01	212.28
834.32	212.29
834.64	212.28
834.96	212.23
835.27	212.25
835.59	212.14
835.90	212.14
836.22	212.14
836.53	212.14
836.85	212.17
837.16	212.37
837.48	212.46
837.79	212.55
838.11	212.62
838.42	212.61
838.74	212.65
839.05	212.61
839.37	212.65
839.68	212.54
840.00	212.60
840.31	212.58
840.63	212.50
840.94	212.54
841.26	212.47
841.57	212.50
841.88	212.47
842.20	212.45
842.51	212.44
842.83	212.46
843.14	212.60
843.46	212.56
843.77	212.47
844.08	212.45
844.40	212.44
844.71	212.39
845.03	212.25
845.34	212.21
845.65	212.24
845.97	212.25
846.28	212.21
846.60	212.13
846.91	212.08
847.22	211.99
847.54	211.90
847.85	211.96
848.16	211.90
848.48	211.87
848.79	211.94
849.10	211.93
849.42	211.88
849.73	211.76
850.04	211.80
850.36	211.64
850.67	211.72
850.98	211.69
851.30	211.72
851.61	211.82
851.92	211.83
852.23	211.87
852.55	211.79
852.86	211.89
853.17	211.92
853.49	212.01
853.80	212.05
854.11	212.07
854.42	212.00
854.74	211.97
855.05	211.96
855.36	211.85
855.67	211.85
855.99	211.92
856.30	212.06
856.61	212.04
856.92	212.07
857.23	212.00
857.55	211.99
857.86	211.98
858.17	211.97
858.48	211.95
858.79	211.92
859.11	212.00
859.42	211.86
859.73	211.84
860.04	211.77
860.35	211.76
860.66	211.79
860.98	211.83
861.29	211.81
861.60	211.82
861.91	211.90
862.22	211.88
862.53	211.78
862.84	211.57
863.16	211.63
863.47	211.61
863.78	211.54
864.09	211.52
864.40	211.56
864.71	211.57
865.02	211.58
865.33	211.48
865.64	211.41
865.95	211.48
866.27	211.61
866.58	211.60
866.89	211.61
867.20	211.54
867.51	211.54
867.82	211.57
868.13	211.55
868.44	211.49
868.75	211.47
869.06	211.52
869.37	211.49
869.68	211.36
869.99	211.40
870.30	211.38
870.61	211.35
870.92	211.27
871.23	211.21
871.54	211.19
871.85	211.25
872.16	211.28
872.47	211.22
872.78	211.12
873.09	211.07
873.40	211.01
873.71	211.09
874.02	211.09
874.33	211.05
874.64	211.06
874.95	211.09
875.26	211.11
875.56	211.09
875.87	211.13
876.18	211.22
876.49	211.34
876.80	211.45
877.11	211.49
877.42	211.47
877.73	211.49
878.04	211.51
878.35	211.58
878.66	211.60
878.96	211.61
879.27	211.54
879.58	211.59
879.89	211.64
880.20	211.65
880.51	211.57
880.82	211.56
881.12	211.59
881.43	211.56
881.74	211.49
882.05	211.48
882.36	211.48
882.67	211.43
882.97	211.27
883.28	211.19
883.59	211.11
883.90	211.20
884.21	211.23
884.51	211.19
884.82	211.14
885.13	211.17
885.44	211.10
885.74	211.14
886.05	211.13
886.36	211.10
886.67	211.02
886.98	211.16
887.28	211.20
887.59	211.13
887.90	211.09
888.20	211.06
888.51	211.08
888.82	211.06
889.13	211.10
889.43	211.30
889.74	211.26
890.05	211.34
890.35	211.30
890.66	211.23
890.97	211.22
891.28	211.19
891.58	211.20
891.89	211.30
892.20	211.30
892.50	211.33
892.81	211.33
893.12	211.33
893.42	211.25
893.73	211.20
894.04	211.28
894.34	211.30
894.65	211.33
894.95	211.31
895.26	211.28
895.57	211.36
895.87	211.12
896.18	211.20
896.48	211.21
896.79	211.19
897.10	211.23
897.40	211.27
897.71	211.30
898.01	211.25
898.32	211.28
898.63	211.30
898.93	211.24
899.24	211.26
899.54	211.27
899.85	211.25
900.15	211.29
900.46	211.24
900.76	211.26
901.07	211.25
901.38	211.20
901.68	211.30
901.99	211.17
902.29	211.23
902.60	211.21
902.90	211.19
903.21	211.25
903.51	211.26
903.82	211.31
904.12	211.34
904.43	211.33
904.73	211.29
905.03	211.28
905.34	211.47
905.64	211.47
905.95	211.45
906.25	211.46
906.56	211.47
906.86	211.51
907.17	211.53
907.47	211.56
907.77	211.63
908.08	211.54
908.38	211.60
908.69	211.59
908.99	211.56
909.30	211.55
909.60	211.50
909.90	211.47
910.21	211.41
910.51	211.36
910.81	211.31
911.12	211.28
911.42	211.28
911.73	211.12
912.03	211.08
912.33	211.17
912.64	211.14
912.94	211.12
913.24	211.06
913.55	211.11
913.85	211.10
914.15	211.11
914.46	211.19
914.76	211.14
915.06	211.15
915.37	211.18
915.67	211.17
915.97	211.15
916.27	211.19
916.58	211.21
916.88	211.17
917.18	211.15
917.49	211.29
917.79	211.22
918.09	211.27
918.39	211.35
918.70	211.25
919.00	211.30
919.30	211.28
919.60	211.30
919.91	211.22
920.21	211.19
920.51	211.16
920.81	211.07
921.12	211.07
921.42	211.06
921.72	211.05
922.02	211.04
922.32	211.07
922.63	211.08
922.93	211.08
923.23	211.15
923.53	211.17
923.83	211.02
924.13	211.06
924.44	211.01
924.74	211.04
925.04	211.07
925.34	211.00
925.64	211.02
925.94	211.04
926.24	211.13
926.55	211.18
926.85	211.16
927.15	211.22
927.45	211.16
927.75	211.11
928.05	211.12
928.35	211.08
928.65	211.12
928.95	211.13
929.26	211.06
929.56	211.08
929.86	211.12
930.16	211.18
930.46	211.14
930.76	211.24
931.06	211.12
931.36	211.11
931.66	211.15
931.96	211.11
932.26	211.11
932.56	210.98
932.86	210.97
933.16	210.91
933.46	210.93
933.76	210.89
934.06	211.00
934.36	211.02
934.66	211.07
934.96	211.01
935.26	211.00
935.56	211.01
935.86	210.94
936.16	210.93
936.46	210.84
936.76	210.85
937.06	210.71
937.36	210.78
937.66	210.83
937.96	210.83
938.26	210.81
938.56	210.80
938.86	210.87
939.16	210.92
939.46	211.05
939.76	211.00
940.06	211.03
940.35	210.99
940.65	210.90
940.95	210.88
941.25	210.89
941.55	210.90
941.85	210.91
942.15	210.93
942.45	211.02
942.75	211.05
943.04	211.05
943.34	211.12
943.64	211.11
943.94	211.03
944.24	211.08
944.54	211.09
944.84	211.04
945.13	211.03
945.43	210.99
945.73	210.95
946.03	211.01
946.33	211.00
946.62	211.00
946.92	211.10
947.22	211.10
947.52	211.12
947.82	211.10
948.11	211.08
948.41	211.12
948.71	211.02
949.01	211.04
949.31	211.06
949.60	211.05
949.90	211.06
950.20	211.04
950.50	211.02
950.79	211.00
951.09	211.07
951.39	211.04
951.69	210.99
951.98	211.03
952.28	211.01
952.58	211.04
952.87	211.00
953.17	210.98
953.47	210.94
953.76	210.98
954.06	210.96
954.36	210.95
954.66	210.88
954.95	210.94
955.25	211.02
955.55	211.04
955.84	210.97
956.14	210.90
956.44	211.01
956.73	210.95
957.03	210.97
957.32	210.90
957.62	210.92
957.92	210.96
958.21	210.95
958.51	211.21
958.81	211.27
959.10	211.35
959.40	211.38
959.69	211.45
959.99	211.43
960.29	211.52
960.58	211.55
960.88	211.67
961.17	211.69
961.47	211.66
961.76	211.59
962.06	211.68
962.36	211.72
962.65	211.67
962.95	211.68
963.24	211.64
963.54	211.68
963.83	211.69
964.13	211.68
964.42	211.56
964.72	211.34
965.01	211.30
965.31	211.19
965.60	211.17
965.90	211.28
966.19	211.31
966.49	211.23
966.78	211.17
967.08	211.15
967.37	211.10
967.67	211.05
967.96	211.11
968.26	211.10
968.55	211.14
968.85	211.10
969.14	211.20
969.43	211.27
969.73	211.25
970.02	211.27
970.32	211.27
970.61	211.25
970.91	211.20
971.20	211.21
971.49	211.18
971.79	211.16
972.08	210.93
972.38	210.89
972.67	210.89
972.96	210.92
973.26	210.90
973.55	210.97
973.85	210.96
974.14	210.98
974.43	211.00
974.73	210.98
975.02	211.00
975.31	210.93
975.61	210.92
975.90	210.95
976.19	210.92
976.49	210.92
976.78	210.98
977.07	210.97
977.37	210.96
977.66	211.02
977.95	211.07
978.24	211.13
978.54	211.08
978.83	211.05
979.12	211.09
979.42	210.99
979.71	210.90
980.00	210.90
980.29	210.92
980.59	210.85
980.88	210.82
981.17	210.82
981.46	210.81
981.76	210.80
982.05	210.80
982.34	210.77
982.63	210.81
982.93	210.76
983.22	210.79
983.51	210.79
983.80	210.85
984.09	210.80
984.39	210.83
984.68	210.95
984.97	210.90
985.26	210.87
985.55	210.97
985.85	210.98
986.14	211.01
986.43	211.02
986.72	211.02
987.01	210.99
987.30	211.02
987.59	210.97
987.89	210.95
988.18	210.93
988.47	210.89
988.76	210.86
989.05	210.89
989.34	210.91
989.63	210.97
989.92	210.93
990.22	210.88
990.51	210.85
990.80	210.77
991.09	210.90
991.38	210.89
991.67	210.89
991.96	210.90
992.25	210.88
992.54	210.80
992.83	210.79
993.12	210.84
993.41	210.83
993.70	210.91
993.99	210.98
994.28	210.97
994.58	211.05
994.87	211.03
995.16	211.05
995.45	211.00
995.74	210.95
996.03	210.92
996.32	211.01
996.61	211.09
996.90	211.09
997.19	211.04
997.48	211.10
997.77	211.02
998.06	210.95
998.34	210.99
998.63	211.01
998.92	211.05
999.21	211.03
999.50	211.00
999.79	210.87
1000.08	210.79
1000.37	210.82
1000.66	210.80
1000.95	210.82
1001.24	210.85
1001.53	210.92
1001.82	210.88
1002.11	210.93
1002.40	210.88
1002.68	210.93
1002.97	211.08
1003.26	211.05
1003.55	210.98
1003.84	210.97
1004.13	211.11
1004.42	211.04
1004.71	211.08
1004.99	211.03
1005.28	211.12
1005.57	211.15
1005.86	211.22
1006.15	211.31
1006.44	211.28
1006.72	211.34
1007.01	211.32
1007.30	211.31
1007.59	211.25
1007.88	211.24
1008.17	211.28
1008.45	211.26
1008.74	211.15
1009.03	211.03
1009.32	211.06
1009.60	211.08
1009.89	211.14
1010.18	211.07
1010.47	211.03
1010.76	210.98
1011.04	210.95
1011.33	211.07
1011.62	211.09
1011.91	211.15
1012.19	211.12
1012.48	211.13
1012.77	211.05
1013.05	211.14
1013.34	211.13
1013.63	211.15
1013.92	211.15
1014.20	211.07
1014.49	211.09
1014.78	211.11
1015.06	211.08
1015.35	211.03
1015.64	211.05
1015.92	210.99
1016.21	210.96
1016.50	211.02
1016.78	211.02
1017.07	211.10
1017.36	210.86
1017.64	210.84
1017.93	210.75
1018.22	210.73
1018.50	210.68
1018.79	210.73
1019.08	210.64
1019.36	210.64
1019.65	210.59
1019.93	210.61
1020.22	210.65
1020.51	210.77
1020.79	210.82
1021.08	210.65
1021.36	209.85
1021.65	211.20
1021.94	210.55
1022.22	210.90
1022.51	209.85
1022.79	210.80
1023.08	211.30
1023.36	214.15
1023.65	211.95
>>>>>End Processed Spectral Data<<<<<
