SpectraSuite Data File
++++++++++++++++++++++++++++++++++++
Date: Mon Feb 25 17:32:40 EST 2013
User: group
Dark Spectrum Present: No
Reference Spectrum Present: No
Number of Sampled Component Spectra: 1
Spectrometers: USB2E7196
Integration Time (usec): 52000 (USB2E7196)
Spectra Averaged: 20 (USB2E7196)
Boxcar Smoothing: 10 (USB2E7196)
Correct for Electrical Dark: No (USB2E7196)
Strobe/Lamp Enabled: No (USB2E7196)
Correct for Detector Non-linearity: No (USB2E7196)
Correct for Stray Light: No (USB2E7196)
Number of Pixels in Processed Spectrum: 2048
>>>>>Begin Processed Spectral Data<<<<<
339.09	0.00
339.48	199.10
339.86	200.00
340.24	201.40
340.63	202.15
341.01	206.60
341.39	205.65
341.78	207.70
342.16	208.20
342.54	208.45
342.93	198.13
343.31	208.19
343.69	208.71
344.07	209.14
344.46	209.61
344.84	210.03
345.22	210.22
345.60	210.49
345.99	210.65
346.37	210.81
346.75	210.84
347.13	210.92
347.52	210.98
347.90	211.07
348.28	211.14
348.66	211.17
349.05	211.19
349.43	211.26
349.81	211.36
350.19	211.38
350.57	211.45
350.96	211.52
351.34	211.61
351.72	211.70
352.10	211.88
352.48	211.97
352.87	212.07
353.25	212.20
353.63	212.30
354.01	212.42
354.39	212.47
354.77	212.70
355.15	212.80
355.54	212.82
355.92	212.84
356.30	212.85
356.68	212.97
357.06	213.09
357.44	213.07
357.82	213.22
358.20	213.29
358.58	213.32
358.97	213.39
359.35	213.52
359.73	213.70
360.11	213.75
360.49	213.80
360.87	213.80
361.25	213.89
361.63	214.00
362.01	214.02
362.39	214.12
362.77	214.14
363.15	214.13
363.53	214.19
363.91	214.27
364.29	214.36
364.67	214.28
365.05	214.25
365.43	214.31
365.81	214.33
366.19	214.46
366.57	214.58
366.95	214.64
367.33	214.56
367.71	214.54
368.09	214.58
368.47	214.55
368.85	214.59
369.23	214.57
369.61	214.38
369.99	214.43
370.37	214.43
370.75	214.51
371.13	214.54
371.51	214.53
371.89	214.49
372.27	214.44
372.65	214.38
373.03	214.43
373.41	214.40
373.78	214.24
374.16	214.03
374.54	213.88
374.92	213.83
375.30	213.77
375.68	213.69
376.06	213.65
376.44	213.59
376.82	213.53
377.19	213.45
377.57	213.49
377.95	213.35
378.33	213.26
378.71	213.08
379.09	212.99
379.47	212.94
379.84	212.86
380.22	212.82
380.60	212.76
380.98	212.65
381.36	212.59
381.73	212.54
382.11	212.55
382.49	212.50
382.87	212.39
383.25	212.31
383.62	212.36
384.00	212.31
384.38	212.29
384.76	212.31
385.13	212.35
385.51	212.32
385.89	212.28
386.27	212.26
386.64	212.24
387.02	212.27
387.40	212.27
387.78	212.27
388.15	212.18
388.53	212.25
388.91	212.10
389.29	212.01
389.66	212.04
390.04	212.02
390.42	212.03
390.79	212.01
391.17	212.03
391.55	211.90
391.92	211.88
392.30	211.80
392.68	211.70
393.05	211.66
393.43	211.57
393.81	211.55
394.18	211.47
394.56	211.50
394.94	211.42
395.31	211.32
395.69	211.37
396.06	211.44
396.44	211.38
396.82	211.46
397.19	211.65
397.57	211.68
397.95	211.72
398.32	211.70
398.70	211.76
399.07	211.80
399.45	211.84
399.82	211.82
400.20	211.89
400.58	211.96
400.95	211.94
401.33	212.16
401.70	212.38
402.08	212.50
402.45	212.55
402.83	212.73
403.20	212.82
403.58	212.90
403.95	212.99
404.33	213.16
404.71	213.25
405.08	213.42
405.46	213.58
405.83	213.73
406.21	213.92
406.58	214.03
406.96	214.14
407.33	214.32
407.70	214.52
408.08	214.89
408.45	215.14
408.83	215.42
409.20	215.51
409.58	215.61
409.95	215.89
410.33	216.23
410.70	216.40
411.08	216.82
411.45	217.10
411.82	217.42
412.20	217.77
412.57	218.37
412.95	218.71
413.32	219.16
413.69	219.67
414.07	220.18
414.44	220.80
414.82	221.46
415.19	222.15
415.56	222.85
415.94	223.54
416.31	224.38
416.68	225.24
417.06	226.28
417.43	227.29
417.81	228.40
418.18	229.45
418.55	230.67
418.93	231.89
419.30	233.26
419.67	234.69
420.04	236.15
420.42	237.55
420.79	239.27
421.16	241.02
421.54	242.81
421.91	244.67
422.28	246.58
422.66	248.57
423.03	250.62
423.40	252.72
423.77	254.91
424.15	257.20
424.52	259.55
424.89	262.13
425.26	264.60
425.64	266.90
426.01	269.54
426.38	272.22
426.75	274.91
427.13	277.72
427.50	280.65
427.87	283.64
428.24	286.72
428.61	289.71
428.99	292.92
429.36	296.35
429.73	299.80
430.10	303.26
430.47	306.87
430.85	310.52
431.22	314.39
431.59	318.62
431.96	322.50
432.33	326.83
432.70	330.90
433.08	335.72
433.45	340.29
433.82	344.79
434.19	349.87
434.56	355.00
434.93	359.74
435.30	364.44
435.68	369.81
436.05	374.95
436.42	380.03
436.79	384.79
437.16	389.84
437.53	395.10
437.90	400.25
438.27	405.32
438.64	410.69
439.01	415.68
439.38	420.03
439.75	424.22
440.13	429.02
440.50	433.61
440.87	437.33
441.24	441.19
441.61	445.42
441.98	448.57
442.35	452.05
442.72	455.66
443.09	459.20
443.46	461.29
443.83	462.71
444.20	463.87
444.57	465.60
444.94	466.30
445.31	467.17
445.68	468.08
446.05	468.37
446.42	467.65
446.79	467.04
447.16	466.11
447.53	465.55
447.90	463.50
448.27	461.42
448.64	458.55
449.01	456.35
449.37	452.76
449.74	449.28
450.11	445.23
450.48	440.85
450.85	436.25
451.22	432.16
451.59	428.43
451.96	424.78
452.33	419.91
452.70	415.62
453.07	410.39
453.43	405.15
453.80	400.16
454.17	395.49
454.54	390.80
454.91	386.01
455.28	381.32
455.65	376.90
456.02	372.61
456.38	368.85
456.75	364.37
457.12	360.52
457.49	356.73
457.86	352.91
458.23	349.57
458.59	346.10
458.96	342.62
459.33	339.43
459.70	336.40
460.07	333.95
460.43	331.14
460.80	328.54
461.17	326.14
461.54	323.73
461.91	321.30
462.27	318.92
462.64	316.90
463.01	314.70
463.38	312.59
463.74	310.25
464.11	308.39
464.48	306.72
464.85	304.92
465.21	303.56
465.58	302.20
465.95	300.55
466.32	299.12
466.68	297.73
467.05	296.34
467.42	294.94
467.78	293.48
468.15	292.16
468.52	291.10
468.88	289.81
469.25	288.69
469.62	287.76
469.98	286.77
470.35	285.81
470.72	284.87
471.08	283.88
471.45	283.20
471.82	282.47
472.18	281.56
472.55	281.03
472.92	280.25
473.28	279.68
473.65	279.13
474.02	278.59
474.38	278.21
474.75	277.85
475.11	277.44
475.48	277.16
475.85	276.95
476.21	276.83
476.58	276.68
476.94	276.55
477.31	276.47
477.67	276.45
478.04	276.53
478.41	276.70
478.77	277.04
479.14	277.12
479.50	277.45
479.87	277.85
480.23	278.25
480.60	278.62
480.96	278.99
481.33	279.63
481.69	280.36
482.06	280.90
482.42	281.61
482.79	282.28
483.15	283.23
483.52	284.21
483.88	285.11
484.25	286.08
484.61	287.10
484.98	288.22
485.34	289.56
485.71	290.88
486.07	292.23
486.44	293.57
486.80	295.18
487.17	296.70
487.53	298.43
487.90	300.17
488.26	302.17
488.62	304.22
488.99	306.25
489.35	308.23
489.72	310.53
490.08	312.91
490.44	315.46
490.81	318.10
491.17	320.70
491.54	323.61
491.90	326.77
492.26	329.98
492.63	333.34
492.99	336.70
493.36	340.30
493.72	344.20
494.08	348.16
494.45	352.46
494.81	356.94
495.17	361.50
495.54	366.41
495.90	371.40
496.26	376.56
496.63	382.05
496.99	387.93
497.35	394.07
497.72	400.35
498.08	406.83
498.44	413.50
498.80	420.67
499.17	428.11
499.53	435.66
499.89	443.64
500.26	451.70
500.62	460.05
500.98	469.00
501.34	478.13
501.71	487.74
502.07	497.42
502.43	507.48
502.79	517.63
503.16	528.19
503.52	539.00
503.88	550.13
504.24	561.61
504.60	573.44
504.97	585.63
505.33	598.14
505.69	611.51
506.05	624.98
506.41	638.49
506.78	652.22
507.14	666.20
507.50	680.71
507.86	695.56
508.22	711.09
508.59	726.47
508.95	742.55
509.31	758.67
509.67	775.21
510.03	792.13
510.39	809.70
510.75	827.48
511.12	845.69
511.48	864.11
511.84	882.85
512.20	901.61
512.56	920.76
512.92	940.43
513.28	959.63
513.64	979.27
514.00	999.30
514.37	1019.66
514.73	1040.56
515.09	1061.50
515.45	1082.40
515.81	1103.22
516.17	1124.41
516.53	1145.59
516.89	1166.85
517.25	1188.39
517.61	1209.95
517.97	1231.44
518.33	1252.84
518.69	1274.36
519.05	1296.35
519.41	1318.23
519.77	1340.91
520.13	1362.95
520.49	1384.77
520.85	1407.61
521.21	1430.30
521.57	1453.11
521.93	1475.11
522.29	1497.98
522.65	1520.30
523.01	1542.67
523.37	1564.72
523.73	1587.11
524.09	1609.35
524.45	1631.87
524.81	1654.09
525.17	1676.45
525.53	1698.81
525.89	1721.02
526.25	1743.19
526.61	1764.48
526.97	1786.29
527.33	1807.31
527.68	1828.95
528.04	1850.13
528.40	1870.19
528.76	1891.01
529.12	1911.69
529.48	1933.44
529.84	1953.82
530.20	1974.16
530.56	1994.72
530.91	2015.54
531.27	2035.75
531.63	2055.70
531.99	2075.67
532.35	2094.79
532.71	2113.76
533.07	2133.16
533.42	2151.93
533.78	2170.69
534.14	2189.16
534.50	2206.20
534.86	2223.98
535.21	2240.31
535.57	2258.28
535.93	2275.89
536.29	2292.56
536.65	2308.89
537.00	2324.17
537.36	2339.01
537.72	2354.21
538.08	2369.48
538.44	2384.78
538.79	2400.23
539.15	2415.06
539.51	2429.22
539.87	2444.61
540.22	2459.35
540.58	2474.14
540.94	2488.30
541.29	2501.38
541.65	2513.76
542.01	2526.98
542.37	2539.06
542.72	2551.51
543.08	2562.40
543.44	2574.09
543.79	2584.21
544.15	2594.54
544.51	2605.35
544.87	2616.65
545.22	2625.62
545.58	2634.06
545.94	2641.27
546.29	2647.44
546.65	2653.69
547.01	2660.05
547.36	2665.46
547.72	2670.74
548.07	2674.66
548.43	2678.60
548.79	2682.52
549.14	2687.12
549.50	2691.47
549.86	2695.28
550.21	2699.55
550.57	2703.34
550.92	2705.77
551.28	2708.57
551.64	2711.06
551.99	2713.55
552.35	2714.87
552.70	2717.61
553.06	2720.47
553.41	2723.21
553.77	2726.25
554.13	2728.28
554.48	2730.22
554.84	2731.85
555.19	2732.35
555.55	2732.99
555.90	2733.39
556.26	2733.54
556.61	2733.52
556.97	2732.19
557.32	2731.71
557.68	2729.93
558.03	2728.67
558.39	2727.46
558.74	2727.03
559.10	2725.57
559.45	2723.81
559.81	2722.77
560.16	2720.25
560.52	2717.73
560.87	2715.08
561.23	2711.50
561.58	2709.52
561.94	2706.35
562.29	2702.72
562.64	2700.58
563.00	2698.04
563.35	2696.10
563.71	2694.34
564.06	2692.06
564.42	2690.99
564.77	2688.62
565.12	2686.57
565.48	2683.04
565.83	2680.02
566.19	2676.23
566.54	2672.34
566.89	2668.24
567.25	2664.16
567.60	2660.92
567.96	2657.21
568.31	2653.89
568.66	2650.21
569.02	2645.30
569.37	2640.30
569.72	2636.34
570.08	2630.95
570.43	2625.32
570.78	2619.30
571.14	2613.09
571.49	2606.52
571.84	2600.25
572.20	2593.45
572.55	2587.10
572.90	2580.48
573.26	2573.29
573.61	2566.71
573.96	2560.27
574.31	2552.61
574.67	2544.87
575.02	2536.30
575.37	2527.62
575.72	2518.38
576.08	2510.54
576.43	2501.84
576.78	2493.82
577.13	2485.74
577.49	2477.43
577.84	2469.76
578.19	2462.26
578.54	2454.81
578.90	2447.92
579.25	2438.84
579.60	2429.96
579.95	2420.26
580.30	2412.15
580.66	2404.03
581.01	2394.73
581.36	2385.30
581.71	2376.85
582.06	2368.07
582.42	2360.08
582.77	2350.97
583.12	2341.92
583.47	2333.44
583.82	2325.17
584.17	2315.94
584.53	2306.66
584.88	2297.81
585.23	2288.47
585.58	2279.18
585.93	2269.24
586.28	2259.78
586.63	2250.92
586.98	2242.48
587.34	2234.53
587.69	2225.44
588.04	2216.40
588.39	2208.27
588.74	2199.43
589.09	2190.78
589.44	2181.33
589.79	2172.75
590.14	2165.03
590.49	2156.84
590.84	2147.52
591.19	2139.56
591.54	2130.91
591.89	2120.84
592.25	2111.97
592.60	2102.72
592.95	2092.91
593.30	2083.77
593.65	2074.23
594.00	2064.69
594.35	2056.49
594.70	2047.34
595.05	2038.62
595.40	2029.65
595.75	2019.89
596.10	2011.70
596.45	2003.04
596.80	1995.51
597.15	1987.05
597.50	1977.72
597.85	1969.29
598.19	1960.69
598.54	1952.02
598.89	1944.35
599.24	1938.15
599.59	1930.63
599.94	1923.48
600.29	1915.85
600.64	1907.90
600.99	1899.46
601.34	1892.42
601.69	1883.28
602.04	1874.93
602.39	1867.01
602.74	1859.66
603.08	1852.99
603.43	1846.05
603.78	1838.47
604.13	1830.25
604.48	1822.42
604.83	1815.62
605.18	1808.75
605.53	1801.38
605.87	1793.56
606.22	1786.48
606.57	1778.57
606.92	1770.39
607.27	1762.50
607.62	1755.52
607.96	1748.69
608.31	1742.40
608.66	1734.52
609.01	1727.30
609.36	1719.78
609.70	1711.77
610.05	1703.82
610.40	1695.45
610.75	1686.74
611.10	1678.89
611.44	1669.82
611.79	1660.78
612.14	1651.50
612.49	1641.69
612.83	1632.91
613.18	1623.29
613.53	1613.65
613.88	1603.73
614.22	1594.79
614.57	1585.40
614.92	1575.79
615.27	1566.49
615.61	1556.70
615.96	1547.73
616.31	1539.13
616.65	1531.16
617.00	1523.19
617.35	1514.53
617.70	1505.72
618.04	1496.68
618.39	1487.33
618.74	1478.90
619.08	1470.33
619.43	1462.08
619.78	1454.62
620.12	1446.45
620.47	1438.81
620.82	1430.34
621.16	1422.18
621.51	1413.86
621.85	1405.56
622.20	1397.16
622.55	1388.64
622.89	1380.67
623.24	1372.73
623.59	1364.02
623.93	1355.36
624.28	1346.75
624.62	1338.28
624.97	1330.35
625.32	1322.63
625.66	1315.23
626.01	1308.16
626.35	1300.96
626.70	1293.34
627.04	1285.70
627.39	1277.94
627.73	1270.59
628.08	1264.00
628.43	1256.50
628.77	1249.10
629.12	1241.75
629.46	1235.09
629.81	1227.83
630.15	1220.49
630.50	1213.02
630.84	1206.01
631.19	1198.86
631.53	1192.04
631.88	1184.71
632.22	1177.14
632.57	1170.03
632.91	1162.63
633.26	1155.00
633.60	1147.79
633.95	1141.10
634.29	1133.66
634.64	1127.16
634.98	1120.20
635.32	1112.91
635.67	1106.74
636.01	1100.19
636.36	1093.50
636.70	1086.70
637.05	1080.45
637.39	1074.08
637.73	1067.81
638.08	1061.81
638.42	1056.00
638.77	1049.58
639.11	1043.38
639.45	1037.47
639.80	1031.01
640.14	1024.65
640.49	1018.60
640.83	1012.53
641.17	1006.03
641.52	999.89
641.86	993.14
642.20	986.71
642.55	980.01
642.89	973.20
643.23	966.77
643.58	960.89
643.92	954.74
644.26	948.31
644.61	942.20
644.95	936.03
645.29	929.64
645.64	923.19
645.98	916.93
646.32	911.18
646.66	905.03
647.01	899.09
647.35	893.19
647.69	886.79
648.04	880.69
648.38	874.80
648.72	868.78
649.06	862.88
649.41	857.05
649.75	851.37
650.09	845.75
650.43	839.96
650.78	833.71
651.12	827.44
651.46	821.94
651.80	815.98
652.14	810.05
652.49	804.35
652.83	798.42
653.17	792.29
653.51	786.23
653.85	780.51
654.20	774.67
654.54	768.90
654.88	763.47
655.22	757.72
655.56	751.71
655.90	746.00
656.25	740.46
656.59	734.79
656.93	729.57
657.27	724.44
657.61	719.00
657.95	713.94
658.29	708.94
658.64	703.55
658.98	698.41
659.32	693.03
659.66	687.87
660.00	682.61
660.34	677.63
660.68	672.53
661.02	667.50
661.36	662.70
661.70	657.80
662.05	653.08
662.39	648.73
662.73	644.43
663.07	640.19
663.41	635.78
663.75	631.31
664.09	626.58
664.43	621.73
664.77	617.27
665.11	612.88
665.45	608.60
665.79	604.35
666.13	599.89
666.47	595.71
666.81	591.59
667.15	587.52
667.49	583.72
667.83	579.67
668.17	575.72
668.51	571.90
668.85	568.23
669.19	564.57
669.53	560.55
669.87	556.57
670.21	552.70
670.55	548.77
670.89	545.34
671.23	542.03
671.57	538.51
671.91	534.91
672.25	531.37
672.58	527.83
672.92	524.29
673.26	521.19
673.60	517.99
673.94	514.63
674.28	511.51
674.62	508.22
674.96	505.18
675.30	502.15
675.64	498.98
675.97	495.78
676.31	492.70
676.65	489.71
676.99	487.07
677.33	484.10
677.67	481.28
678.01	478.10
678.34	475.06
678.68	472.30
679.02	469.35
679.36	466.58
679.70	463.78
680.04	460.87
680.37	457.93
680.71	455.15
681.05	452.55
681.39	449.70
681.73	447.08
682.06	444.54
682.40	441.87
682.74	439.28
683.08	436.67
683.42	434.05
683.75	431.65
684.09	428.92
684.43	426.45
684.77	423.89
685.10	421.56
685.44	418.99
685.78	416.47
686.12	414.27
686.45	411.89
686.79	409.55
687.13	407.42
687.46	405.26
687.80	403.09
688.14	400.66
688.48	398.53
688.81	396.25
689.15	394.11
689.49	391.86
689.82	389.72
690.16	387.42
690.50	385.29
690.83	383.00
691.17	380.91
691.51	378.64
691.84	376.55
692.18	374.51
692.52	372.56
692.85	370.64
693.19	368.79
693.52	366.85
693.86	364.91
694.20	363.05
694.53	361.19
694.87	359.12
695.21	357.26
695.54	355.37
695.88	353.45
696.21	351.59
696.55	349.94
696.88	348.14
697.22	346.53
697.56	344.89
697.89	343.26
698.23	341.63
698.56	340.00
698.90	338.53
699.23	336.89
699.57	335.34
699.90	333.74
700.24	332.11
700.58	330.57
700.91	329.02
701.25	327.58
701.58	326.05
701.92	324.62
702.25	323.25
702.59	321.91
702.92	320.64
703.26	319.25
703.59	317.95
703.93	316.83
704.26	315.64
704.60	314.26
704.93	312.94
705.26	311.69
705.60	310.57
705.93	309.25
706.27	308.10
706.60	306.96
706.94	305.89
707.27	304.68
707.61	303.47
707.94	302.37
708.27	301.08
708.61	299.96
708.94	299.01
709.28	297.89
709.61	296.78
709.94	295.67
710.28	294.65
710.61	293.64
710.95	292.39
711.28	291.35
711.61	290.34
711.95	289.32
712.28	288.32
712.61	287.30
712.95	286.34
713.28	285.35
713.61	284.43
713.95	283.50
714.28	282.65
714.61	281.70
714.95	280.78
715.28	279.92
715.61	279.00
715.95	278.06
716.28	277.21
716.61	276.41
716.95	275.56
717.28	274.70
717.61	273.83
717.94	273.20
718.28	272.39
718.61	271.66
718.94	270.91
719.27	270.09
719.61	269.40
719.94	268.62
720.27	267.91
720.60	267.16
720.94	266.42
721.27	265.76
721.60	265.24
721.93	264.61
722.27	264.00
722.60	263.42
722.93	262.78
723.26	262.15
723.59	261.47
723.93	260.85
724.26	260.28
724.59	259.65
724.92	259.09
725.25	258.57
725.59	258.08
725.92	257.66
726.25	257.18
726.58	256.64
726.91	256.19
727.24	255.71
727.57	255.28
727.91	254.69
728.24	254.17
728.57	253.65
728.90	253.24
729.23	252.75
729.56	252.32
729.89	251.90
730.22	251.48
730.55	251.04
730.89	250.65
731.22	250.17
731.55	249.81
731.88	249.36
732.21	248.72
732.54	248.25
732.87	247.75
733.20	247.33
733.53	246.88
733.86	246.50
734.19	246.06
734.52	245.62
734.85	245.47
735.18	245.07
735.51	244.69
735.84	244.30
736.17	243.96
736.50	243.50
736.83	243.35
737.16	242.98
737.49	242.63
737.82	242.21
738.15	241.93
738.48	241.49
738.81	241.06
739.14	240.91
739.47	240.62
739.80	240.23
740.13	239.94
740.46	239.68
740.79	239.27
741.12	238.97
741.45	238.69
741.78	238.33
742.11	238.10
742.44	237.77
742.77	237.51
743.10	237.15
743.43	236.96
743.75	236.44
744.08	236.38
744.41	236.09
744.74	235.82
745.07	235.48
745.40	235.29
745.73	235.14
746.06	234.81
746.39	234.52
746.71	234.32
747.04	234.02
747.37	233.70
747.70	233.56
748.03	233.30
748.36	233.04
748.68	232.74
749.01	232.37
749.34	232.11
749.67	231.84
750.00	231.67
750.33	231.44
750.65	231.21
750.98	230.69
751.31	230.44
751.64	230.26
751.97	230.21
752.29	229.87
752.62	229.55
752.95	229.27
753.28	228.99
753.60	228.67
753.93	228.44
754.26	228.17
754.59	227.84
754.91	227.56
755.24	227.35
755.57	227.10
755.90	226.96
756.22	226.75
756.55	226.55
756.88	226.29
757.20	225.99
757.53	225.75
757.86	225.56
758.19	225.33
758.51	225.12
758.84	224.76
759.17	224.69
759.49	224.44
759.82	224.40
760.15	224.29
760.47	224.20
760.80	224.05
761.13	224.00
761.45	223.86
761.78	223.71
762.11	223.55
762.43	223.35
762.76	223.24
763.08	223.12
763.41	222.95
763.74	222.81
764.06	222.75
764.39	222.64
764.71	222.56
765.04	222.40
765.37	222.31
765.69	222.26
766.02	222.14
766.34	222.04
766.67	221.85
767.00	221.75
767.32	221.67
767.65	221.71
767.97	221.60
768.30	221.46
768.62	221.41
768.95	221.30
769.27	221.21
769.60	221.10
769.92	220.95
770.25	220.86
770.57	220.70
770.90	220.55
771.22	220.40
771.55	220.30
771.87	220.24
772.20	220.03
772.52	220.01
772.85	220.05
773.17	219.98
773.50	219.86
773.82	219.77
774.15	219.65
774.47	219.35
774.80	219.19
775.12	219.11
775.45	218.92
775.77	218.80
776.09	218.71
776.42	218.55
776.74	218.57
777.07	218.47
777.39	218.43
777.72	218.38
778.04	218.31
778.36	218.17
778.69	218.14
779.01	218.14
779.33	217.88
779.66	217.58
779.98	217.45
780.31	217.33
780.63	217.26
780.95	217.20
781.28	217.15
781.60	217.10
781.92	217.08
782.25	217.08
782.57	217.03
782.89	216.98
783.22	216.94
783.54	216.76
783.86	216.70
784.19	216.58
784.51	216.54
784.83	216.50
785.16	216.49
785.48	216.37
785.80	216.29
786.12	216.31
786.45	216.31
786.77	216.31
787.09	216.28
787.42	216.11
787.74	216.10
788.06	216.12
788.38	216.04
788.71	215.88
789.03	215.83
789.35	215.80
789.67	215.73
789.99	215.70
790.32	215.60
790.64	215.60
790.96	215.76
791.28	215.60
791.61	215.53
791.93	215.51
792.25	215.47
792.57	215.58
792.89	215.51
793.21	215.45
793.54	215.43
793.86	215.35
794.18	215.40
794.50	215.27
794.82	215.21
795.14	215.21
795.47	215.28
795.79	215.26
796.11	215.14
796.43	215.10
796.75	215.08
797.07	215.10
797.39	215.06
797.71	214.89
798.04	214.93
798.36	214.96
798.68	214.97
799.00	214.94
799.32	214.81
799.64	214.80
799.96	214.76
800.28	214.67
800.60	214.69
800.92	214.63
801.24	214.59
801.56	214.61
801.89	214.59
802.21	214.55
802.53	214.46
802.85	214.50
803.17	214.50
803.49	214.45
803.81	214.40
804.13	214.30
804.45	214.25
804.77	214.24
805.09	214.13
805.41	214.08
805.73	214.05
806.05	214.00
806.37	213.92
806.69	213.97
807.01	213.96
807.33	213.92
807.65	213.97
807.97	214.00
808.28	213.91
808.60	213.80
808.92	213.80
809.24	213.91
809.56	213.92
809.88	213.87
810.20	213.88
810.52	213.96
810.84	213.97
811.16	213.97
811.48	213.97
811.80	214.03
812.12	213.96
812.43	213.89
812.75	213.84
813.07	213.80
813.39	213.78
813.71	213.81
814.03	213.79
814.35	213.64
814.67	213.56
814.98	213.51
815.30	213.55
815.62	213.40
815.94	213.23
816.26	213.22
816.58	213.16
816.89	213.11
817.21	212.93
817.53	212.97
817.85	212.91
818.17	212.83
818.48	212.76
818.80	212.74
819.12	212.73
819.44	212.72
819.76	212.66
820.07	212.64
820.39	212.55
820.71	212.58
821.03	212.56
821.34	212.51
821.66	212.47
821.98	212.40
822.30	212.34
822.61	212.43
822.93	212.34
823.25	212.39
823.57	212.34
823.88	212.40
824.20	212.32
824.52	212.35
824.83	212.32
825.15	212.29
825.47	212.28
825.79	212.31
826.10	212.25
826.42	212.23
826.74	212.18
827.05	212.18
827.37	212.12
827.69	212.15
828.00	212.19
828.32	212.17
828.64	212.21
828.95	212.38
829.27	212.40
829.58	212.40
829.90	212.44
830.22	212.41
830.53	212.40
830.85	212.37
831.17	212.36
831.48	212.35
831.80	212.34
832.11	212.39
832.43	212.40
832.75	212.44
833.06	212.59
833.38	212.50
833.69	212.56
834.01	212.58
834.32	212.55
834.64	212.54
834.96	212.60
835.27	212.60
835.59	212.55
835.90	212.45
836.22	212.47
836.53	212.36
836.85	212.35
837.16	212.50
837.48	212.53
837.79	212.50
838.11	212.53
838.42	212.55
838.74	212.49
839.05	212.46
839.37	212.45
839.68	212.39
840.00	212.46
840.31	212.47
840.63	212.40
840.94	212.40
841.26	212.46
841.57	212.48
841.88	212.50
842.20	212.49
842.51	212.50
842.83	212.53
843.14	212.71
843.46	212.73
843.77	212.69
844.08	212.71
844.40	212.75
844.71	212.76
845.03	212.68
845.34	212.65
845.65	212.62
845.97	212.58
846.28	212.45
846.60	212.48
846.91	212.43
847.22	212.49
847.54	212.53
847.85	212.47
848.16	212.40
848.48	212.37
848.79	212.41
849.10	212.43
849.42	212.40
849.73	212.31
850.04	212.31
850.36	212.18
850.67	212.16
850.98	212.15
851.30	212.12
851.61	212.15
851.92	212.23
852.23	212.31
852.55	212.35
852.86	212.40
853.17	212.37
853.49	212.37
853.80	212.41
854.11	212.37
854.42	212.39
854.74	212.42
855.05	212.44
855.36	212.38
855.67	212.36
855.99	212.39
856.30	212.50
856.61	212.52
856.92	212.58
857.23	212.51
857.55	212.50
857.86	212.54
858.17	212.58
858.48	212.44
858.79	212.41
859.11	212.39
859.42	212.38
859.73	212.35
860.04	212.34
860.35	212.23
860.66	212.22
860.98	212.17
861.29	212.17
861.60	212.09
861.91	212.15
862.22	212.08
862.53	212.00
862.84	211.84
863.16	211.87
863.47	211.80
863.78	211.87
864.09	211.81
864.40	211.81
864.71	211.81
865.02	211.87
865.33	211.80
865.64	211.73
865.95	211.79
866.27	211.88
866.58	211.89
866.89	211.93
867.20	211.88
867.51	211.86
867.82	211.84
868.13	211.89
868.44	211.79
868.75	211.84
869.06	211.84
869.37	211.84
869.68	211.78
869.99	211.82
870.30	211.74
870.61	211.75
870.92	211.68
871.23	211.62
871.54	211.64
871.85	211.72
872.16	211.80
872.47	211.75
872.78	211.60
873.09	211.54
873.40	211.52
873.71	211.49
874.02	211.48
874.33	211.46
874.64	211.34
874.95	211.38
875.26	211.34
875.56	211.34
875.87	211.35
876.18	211.25
876.49	211.39
876.80	211.38
877.11	211.40
877.42	211.36
877.73	211.38
878.04	211.28
878.35	211.22
878.66	211.23
878.96	211.22
879.27	211.23
879.58	211.24
879.89	211.17
880.20	211.28
880.51	211.27
880.82	211.28
881.12	211.35
881.43	211.28
881.74	211.34
882.05	211.35
882.36	211.31
882.67	211.41
882.97	211.23
883.28	211.25
883.59	211.22
883.90	211.27
884.21	211.28
884.51	211.38
884.82	211.35
885.13	211.33
885.44	211.29
885.74	211.32
886.05	211.29
886.36	211.36
886.67	211.27
886.98	211.40
887.28	211.41
887.59	211.41
887.90	211.43
888.20	211.34
888.51	211.37
888.82	211.31
889.13	211.27
889.43	211.45
889.74	211.39
890.05	211.39
890.35	211.49
890.66	211.43
890.97	211.40
891.28	211.41
891.58	211.40
891.89	211.43
892.20	211.45
892.50	211.49
892.81	211.46
893.12	211.43
893.42	211.34
893.73	211.33
894.04	211.26
894.34	211.33
894.65	211.40
894.95	211.37
895.26	211.40
895.57	211.51
895.87	211.30
896.18	211.40
896.48	211.36
896.79	211.24
897.10	211.26
897.40	211.25
897.71	211.26
898.01	211.25
898.32	211.28
898.63	211.22
898.93	211.18
899.24	211.17
899.54	211.20
899.85	211.17
900.15	211.14
900.46	211.19
900.76	211.09
901.07	211.03
901.38	210.95
901.68	210.90
901.99	210.73
902.29	210.79
902.60	210.71
902.90	210.69
903.21	210.70
903.51	210.74
903.82	210.76
904.12	210.71
904.43	210.70
904.73	210.68
905.03	210.68
905.34	210.87
905.64	210.85
905.95	210.86
906.25	210.85
906.56	210.89
906.86	210.88
907.17	210.92
907.47	210.97
907.77	210.98
908.08	211.06
908.38	211.11
908.69	211.09
908.99	211.11
909.30	211.15
909.60	211.14
909.90	211.12
910.21	211.15
910.51	211.13
910.81	211.11
911.12	211.10
911.42	211.09
911.73	210.92
912.03	210.95
912.33	211.01
912.64	211.03
912.94	210.96
913.24	210.91
913.55	210.90
913.85	210.87
914.15	210.92
914.46	210.91
914.76	210.98
915.06	210.99
915.37	210.97
915.67	210.95
915.97	211.04
916.27	210.98
916.58	210.93
916.88	210.95
917.18	210.97
917.49	211.10
917.79	211.14
918.09	211.16
918.39	211.20
918.70	211.18
919.00	211.13
919.30	211.26
919.60	211.30
919.91	211.30
920.21	211.28
920.51	211.27
920.81	211.26
921.12	211.27
921.42	211.27
921.72	211.37
922.02	211.42
922.32	211.37
922.63	211.35
922.93	211.48
923.23	211.51
923.53	211.50
923.83	211.35
924.13	211.39
924.44	211.39
924.74	211.45
925.04	211.46
925.34	211.54
925.64	211.47
925.94	211.44
926.24	211.51
926.55	211.50
926.85	211.51
927.15	211.53
927.45	211.51
927.75	211.47
928.05	211.50
928.35	211.50
928.65	211.56
928.95	211.62
929.26	211.58
929.56	211.49
929.86	211.50
930.16	211.49
930.46	211.45
930.76	211.48
931.06	211.35
931.36	211.28
931.66	211.29
931.96	211.33
932.26	211.41
932.56	211.35
932.86	211.42
933.16	211.39
933.46	211.29
933.76	211.22
934.06	211.35
934.36	211.31
934.66	211.29
934.96	211.29
935.26	211.26
935.56	211.19
935.86	211.27
936.16	211.25
936.46	211.30
936.76	211.29
937.06	211.22
937.36	211.23
937.66	211.27
937.96	211.25
938.26	211.23
938.56	211.14
938.86	211.12
939.16	211.18
939.46	211.17
939.76	211.21
940.06	211.26
940.35	211.17
940.65	211.10
940.95	211.15
941.25	211.01
941.55	210.98
941.85	210.96
942.15	210.95
942.45	211.02
942.75	210.97
943.04	211.00
943.34	211.01
943.64	211.03
943.94	210.95
944.24	210.95
944.54	210.90
944.84	210.99
945.13	211.00
945.43	210.88
945.73	210.92
946.03	210.94
946.33	210.83
946.62	210.84
946.92	210.87
947.22	210.87
947.52	210.89
947.82	210.94
948.11	211.00
948.41	210.95
948.71	210.87
949.01	210.90
949.31	210.83
949.60	210.85
949.90	210.82
950.20	210.85
950.50	210.87
950.79	210.85
951.09	210.83
951.39	210.85
951.69	210.89
951.98	210.91
952.28	210.90
952.58	210.93
952.87	210.88
953.17	210.90
953.47	210.82
953.76	210.88
954.06	210.80
954.36	210.74
954.66	210.71
954.95	210.75
955.25	210.77
955.55	210.84
955.84	210.79
956.14	210.80
956.44	210.78
956.73	210.69
957.03	210.65
957.32	210.64
957.62	210.62
957.92	210.67
958.21	210.59
958.51	210.78
958.81	210.83
959.10	210.87
959.40	210.80
959.69	210.86
959.99	210.86
960.29	210.93
960.58	210.90
960.88	211.00
961.17	211.02
961.47	211.00
961.76	210.91
962.06	210.92
962.36	210.87
962.65	210.86
962.95	210.83
963.24	210.89
963.54	210.92
963.83	210.93
964.13	210.88
964.42	210.91
964.72	210.80
965.01	210.71
965.31	210.68
965.60	210.68
965.90	210.76
966.19	210.64
966.49	210.64
966.78	210.70
967.08	210.69
967.37	210.75
967.67	210.77
967.96	210.88
968.26	210.91
968.55	210.95
968.85	211.00
969.14	211.09
969.43	211.07
969.73	211.01
970.02	211.02
970.32	210.98
970.61	210.93
970.91	210.90
971.20	210.95
971.49	211.02
971.79	211.05
972.08	210.90
972.38	210.99
972.67	211.01
972.96	211.05
973.26	211.03
973.55	211.06
973.85	211.11
974.14	211.05
974.43	211.05
974.73	211.06
975.02	211.06
975.31	211.07
975.61	211.08
975.90	211.13
976.19	211.05
976.49	211.07
976.78	211.17
977.07	211.11
977.37	211.16
977.66	211.05
977.95	211.03
978.24	211.03
978.54	211.04
978.83	210.95
979.12	210.91
979.42	210.88
979.71	210.84
980.00	210.72
980.29	210.77
980.59	210.75
980.88	210.81
981.17	210.87
981.46	210.82
981.76	210.84
982.05	210.87
982.34	210.96
982.63	210.99
982.93	211.00
983.22	211.04
983.51	211.01
983.80	211.04
984.09	211.10
984.39	211.12
984.68	211.13
984.97	211.16
985.26	211.16
985.55	211.14
985.85	211.09
986.14	211.15
986.43	211.10
986.72	211.10
987.01	211.03
987.30	210.99
987.59	210.99
987.89	211.00
988.18	210.97
988.47	210.87
988.76	210.90
989.05	210.78
989.34	210.78
989.63	210.80
989.92	210.81
990.22	210.74
990.51	210.73
990.80	210.75
991.09	210.77
991.38	210.76
991.67	210.78
991.96	210.70
992.25	210.72
992.54	210.71
992.83	210.70
993.12	210.65
993.41	210.61
993.70	210.71
993.99	210.66
994.28	210.62
994.58	210.63
994.87	210.60
995.16	210.61
995.45	210.57
995.74	210.58
996.03	210.60
996.32	210.60
996.61	210.69
996.90	210.70
997.19	210.66
997.48	210.68
997.77	210.70
998.06	210.80
998.34	210.81
998.63	210.79
998.92	210.87
999.21	211.00
999.50	210.99
999.79	210.91
1000.08	210.99
1000.37	211.05
1000.66	211.04
1000.95	211.05
1001.24	211.09
1001.53	211.09
1001.82	211.05
1002.11	211.05
1002.40	211.06
1002.68	211.05
1002.97	211.18
1003.26	211.15
1003.55	211.10
1003.84	211.06
1004.13	211.11
1004.42	211.06
1004.71	211.03
1004.99	210.94
1005.28	210.94
1005.57	211.06
1005.86	211.08
1006.15	211.00
1006.44	210.98
1006.72	211.01
1007.01	210.99
1007.30	210.95
1007.59	210.94
1007.88	210.91
1008.17	210.88
1008.45	210.84
1008.74	210.72
1009.03	210.52
1009.32	210.56
1009.60	210.54
1009.89	210.55
1010.18	210.51
1010.47	210.48
1010.76	210.58
1011.04	210.58
1011.33	210.58
1011.62	210.56
1011.91	210.56
1012.19	210.66
1012.48	210.65
1012.77	210.61
1013.05	210.66
1013.34	210.76
1013.63	210.75
1013.92	210.79
1014.20	210.75
1014.49	210.81
1014.78	210.92
1015.06	210.95
1015.35	210.97
1015.64	211.01
1015.92	211.05
1016.21	211.02
1016.50	211.16
1016.78	211.16
1017.07	211.24
1017.36	211.16
1017.64	211.16
1017.93	211.14
1018.22	211.03
1018.50	211.03
1018.79	211.08
1019.08	210.99
1019.36	210.93
1019.65	210.94
1019.93	210.99
1020.22	211.05
1020.51	211.17
1020.79	211.15
1021.08	210.25
1021.36	210.45
1021.65	210.65
1021.94	210.15
1022.22	210.45
1022.51	210.20
1022.79	211.95
1023.08	211.25
1023.36	213.50
1023.65	211.35
>>>>>End Processed Spectral Data<<<<<
