SpectraSuite Data File
++++++++++++++++++++++++++++++++++++
Date: Mon Feb 25 17:34:37 EST 2013
User: group
Dark Spectrum Present: No
Reference Spectrum Present: No
Number of Sampled Component Spectra: 1
Spectrometers: USB2E7196
Integration Time (usec): 52000 (USB2E7196)
Spectra Averaged: 20 (USB2E7196)
Boxcar Smoothing: 10 (USB2E7196)
Correct for Electrical Dark: No (USB2E7196)
Strobe/Lamp Enabled: No (USB2E7196)
Correct for Detector Non-linearity: No (USB2E7196)
Correct for Stray Light: No (USB2E7196)
Number of Pixels in Processed Spectrum: 2048
>>>>>Begin Processed Spectral Data<<<<<
339.09	0.00
339.48	198.05
339.86	200.25
340.24	201.00
340.63	202.50
341.01	205.50
341.39	204.80
341.78	206.60
342.16	208.75
342.54	208.90
342.93	197.51
343.31	207.50
343.69	208.00
344.07	208.47
344.46	208.95
344.84	209.34
345.22	209.55
345.60	209.88
345.99	210.06
346.37	210.13
346.75	210.18
347.13	210.27
347.52	210.35
347.90	210.39
348.28	210.49
348.66	210.59
349.05	210.60
349.43	210.64
349.81	210.72
350.19	210.78
350.57	210.93
350.96	211.03
351.34	211.14
351.72	211.27
352.10	211.36
352.48	211.43
352.87	211.53
353.25	211.63
353.63	211.67
354.01	211.75
354.39	211.93
354.77	212.04
355.15	212.21
355.54	212.34
355.92	212.40
356.30	212.51
356.68	212.73
357.06	212.78
357.44	212.89
357.82	213.01
358.20	213.12
358.58	213.18
358.97	213.30
359.35	213.45
359.73	213.62
360.11	213.70
360.49	213.85
360.87	213.90
361.25	214.01
361.63	214.10
362.01	214.20
362.39	214.15
362.77	214.26
363.15	214.22
363.53	214.27
363.91	214.41
364.29	214.40
364.67	214.21
365.05	214.33
365.43	214.40
365.81	214.41
366.19	214.57
366.57	214.57
366.95	214.57
367.33	214.49
367.71	214.47
368.09	214.46
368.47	214.38
368.85	214.35
369.23	214.37
369.61	214.34
369.99	214.41
370.37	214.54
370.75	214.60
371.13	214.60
371.51	214.48
371.89	214.40
372.27	214.44
372.65	214.45
373.03	214.42
373.41	214.35
373.78	214.31
374.16	214.15
374.54	214.12
374.92	214.09
375.30	214.08
375.68	214.04
376.06	214.15
376.44	214.10
376.82	214.14
377.19	214.12
377.57	214.08
377.95	213.94
378.33	213.81
378.71	213.64
379.09	213.64
379.47	213.61
379.84	213.51
380.22	213.43
380.60	213.23
380.98	213.09
381.36	213.02
381.73	212.92
382.11	212.89
382.49	212.83
382.87	212.73
383.25	212.65
383.62	212.76
384.00	212.60
384.38	212.50
384.76	212.48
385.13	212.43
385.51	212.37
385.89	212.28
386.27	212.25
386.64	212.22
387.02	212.15
387.40	212.20
387.78	212.19
388.15	212.12
388.53	212.24
388.91	212.18
389.29	212.14
389.66	212.15
390.04	212.04
390.42	211.96
390.79	212.00
391.17	211.99
391.55	211.72
391.92	211.64
392.30	211.65
392.68	211.54
393.05	211.50
393.43	211.51
393.81	211.56
394.18	211.44
394.56	211.43
394.94	211.48
395.31	211.42
395.69	211.48
396.06	211.52
396.44	211.52
396.82	211.53
397.19	211.64
397.57	211.62
397.95	211.72
398.32	211.69
398.70	211.69
399.07	211.81
399.45	211.86
399.82	212.02
400.20	212.05
400.58	212.19
400.95	212.19
401.33	212.31
401.70	212.50
402.08	212.69
402.45	212.78
402.83	212.83
403.20	212.94
403.58	212.98
403.95	213.09
404.33	213.26
404.71	213.38
405.08	213.52
405.46	213.73
405.83	213.83
406.21	214.00
406.58	214.16
406.96	214.27
407.33	214.47
407.70	214.59
408.08	214.91
408.45	215.05
408.83	215.32
409.20	215.47
409.58	215.60
409.95	215.84
410.33	216.13
410.70	216.45
411.08	216.76
411.45	217.18
411.82	217.56
412.20	217.93
412.57	218.49
412.95	218.90
413.32	219.41
413.69	220.00
414.07	220.57
414.44	221.25
414.82	221.90
415.19	222.66
415.56	223.36
415.94	224.03
416.31	225.03
416.68	225.86
417.06	226.95
417.43	227.90
417.81	228.98
418.18	230.14
418.55	231.31
418.93	232.47
419.30	233.76
419.67	235.09
420.04	236.52
420.42	237.98
420.79	239.70
421.16	241.43
421.54	243.17
421.91	245.06
422.28	246.89
422.66	248.89
423.03	250.82
423.40	252.95
423.77	255.23
424.15	257.44
424.52	259.80
424.89	262.28
425.26	264.79
425.64	267.16
426.01	269.75
426.38	272.48
426.75	275.40
427.13	278.24
427.50	281.22
427.87	284.24
428.24	287.31
428.61	290.30
428.99	293.51
429.36	297.14
429.73	300.72
430.10	304.27
430.47	307.92
430.85	311.56
431.22	315.51
431.59	319.76
431.96	323.75
432.33	328.17
432.70	332.41
433.08	337.35
433.45	341.97
433.82	346.65
434.19	351.75
434.56	356.71
434.93	361.52
435.30	366.31
435.68	371.64
436.05	376.76
436.42	381.88
436.79	386.59
437.16	391.67
437.53	396.96
437.90	402.18
438.27	407.30
438.64	412.85
439.01	417.90
439.38	422.18
439.75	426.35
440.13	431.09
440.50	435.58
440.87	439.23
441.24	443.10
441.61	447.24
441.98	450.35
442.35	454.01
442.72	457.52
443.09	461.06
443.46	463.16
443.83	464.65
444.20	465.91
444.57	467.69
444.94	468.48
445.31	469.22
445.68	470.04
446.05	470.20
446.42	469.49
446.79	468.61
447.16	467.78
447.53	467.21
447.90	465.17
448.27	463.11
448.64	460.30
449.01	458.21
449.37	454.54
449.74	451.06
450.11	446.94
450.48	442.58
450.85	437.94
451.22	434.00
451.59	430.20
451.96	426.56
452.33	421.85
452.70	417.35
453.07	412.16
453.43	406.73
453.80	401.78
454.17	396.95
454.54	392.44
454.91	387.62
455.28	382.86
455.65	378.48
456.02	374.14
456.38	370.38
456.75	365.62
457.12	361.71
457.49	357.76
457.86	353.89
458.23	350.67
458.59	347.26
458.96	343.67
459.33	340.57
459.70	337.41
460.07	334.85
460.43	332.04
460.80	329.41
461.17	327.26
461.54	324.83
461.91	322.49
462.27	320.17
462.64	318.03
463.01	315.73
463.38	313.61
463.74	311.30
464.11	309.36
464.48	307.80
464.85	306.04
465.21	304.61
465.58	303.20
465.95	301.48
466.32	299.97
466.68	298.57
467.05	297.17
467.42	295.81
467.78	294.39
468.15	293.02
468.52	292.04
468.88	290.62
469.25	289.38
469.62	288.49
469.98	287.42
470.35	286.55
470.72	285.72
471.08	284.77
471.45	284.10
471.82	283.35
472.18	282.53
472.55	282.01
472.92	281.34
473.28	280.72
473.65	280.10
474.02	279.51
474.38	279.02
474.75	278.59
475.11	278.11
475.48	277.76
475.85	277.55
476.21	277.25
476.58	277.10
476.94	277.11
477.31	276.98
477.67	276.84
478.04	276.93
478.41	277.09
478.77	277.28
479.14	277.39
479.50	277.65
479.87	277.99
480.23	278.29
480.60	278.69
480.96	279.14
481.33	279.80
481.69	280.45
482.06	281.19
482.42	281.81
482.79	282.55
483.15	283.42
483.52	284.43
483.88	285.43
484.25	286.43
484.61	287.57
484.98	288.66
485.34	290.03
485.71	291.22
486.07	292.55
486.44	293.89
486.80	295.45
487.17	296.97
487.53	298.64
487.90	300.39
488.26	302.38
488.62	304.42
488.99	306.42
489.35	308.58
489.72	310.84
490.08	313.27
490.44	315.75
490.81	318.42
491.17	321.01
491.54	323.89
491.90	327.00
492.26	330.10
492.63	333.50
492.99	336.88
493.36	340.58
493.72	344.49
494.08	348.57
494.45	352.87
494.81	357.36
495.17	361.91
495.54	366.92
495.90	372.05
496.26	377.22
496.63	382.71
496.99	388.46
497.35	394.44
497.72	400.75
498.08	407.34
498.44	413.99
498.80	421.28
499.17	428.71
499.53	436.32
499.89	444.32
500.26	452.46
500.62	460.86
500.98	469.63
501.34	478.65
501.71	488.15
502.07	497.87
502.43	507.83
502.79	518.31
503.16	529.03
503.52	539.92
503.88	551.32
504.24	562.80
504.60	574.76
504.97	587.16
505.33	599.65
505.69	613.00
506.05	626.62
506.41	640.20
506.78	653.97
507.14	668.10
507.50	682.56
507.86	697.53
508.22	712.88
508.59	728.52
508.95	744.60
509.31	760.75
509.67	777.26
510.03	794.41
510.39	811.93
510.75	829.61
511.12	847.79
511.48	866.10
511.84	885.02
512.20	903.75
512.56	923.07
512.92	942.69
513.28	961.96
513.64	981.71
514.00	1001.53
514.37	1022.16
514.73	1042.99
515.09	1063.80
515.45	1084.80
515.81	1106.11
516.17	1127.39
516.53	1148.70
516.89	1170.66
517.25	1192.48
517.61	1214.30
517.97	1235.83
518.33	1257.33
518.69	1279.28
519.05	1301.37
519.41	1323.37
519.77	1346.05
520.13	1368.16
520.49	1390.52
520.85	1413.62
521.21	1436.17
521.57	1459.50
521.93	1481.67
522.29	1504.65
522.65	1527.40
523.01	1550.10
523.37	1572.41
523.73	1595.15
524.09	1617.65
524.45	1640.16
524.81	1662.72
525.17	1685.15
525.53	1707.68
525.89	1730.55
526.25	1752.68
526.61	1774.22
526.97	1796.27
527.33	1817.43
527.68	1838.90
528.04	1860.03
528.40	1880.38
528.76	1901.34
529.12	1921.94
529.48	1943.73
529.84	1964.31
530.20	1984.92
530.56	2005.33
530.91	2026.67
531.27	2046.98
531.63	2067.12
531.99	2086.75
532.35	2106.16
532.71	2125.21
533.07	2145.08
533.42	2163.67
533.78	2182.49
534.14	2201.13
534.50	2218.47
534.86	2237.05
535.21	2254.03
535.57	2272.03
535.93	2289.51
536.29	2306.34
536.65	2323.15
537.00	2338.65
537.36	2354.15
537.72	2369.60
538.08	2385.17
538.44	2400.45
538.79	2415.75
539.15	2430.70
539.51	2445.70
539.87	2461.50
540.22	2476.16
540.58	2491.02
540.94	2505.75
541.29	2518.95
541.65	2531.47
542.01	2544.91
542.37	2556.99
542.72	2569.71
543.08	2580.90
543.44	2593.03
543.79	2603.73
544.15	2614.13
544.51	2625.21
544.87	2636.20
545.22	2645.56
545.58	2653.96
545.94	2661.04
546.29	2667.66
546.65	2674.07
547.01	2680.34
547.36	2685.56
547.72	2691.45
548.07	2695.60
548.43	2699.50
548.79	2703.57
549.14	2708.39
549.50	2712.91
549.86	2716.82
550.21	2720.71
550.57	2724.93
550.92	2727.41
551.28	2730.30
551.64	2732.82
551.99	2735.70
552.35	2737.76
552.70	2740.61
553.06	2743.95
553.41	2747.30
553.77	2750.53
554.13	2752.82
554.48	2755.10
554.84	2756.86
555.19	2757.63
555.55	2758.34
555.90	2758.75
556.26	2759.34
556.61	2759.33
556.97	2758.02
557.32	2757.79
557.68	2756.37
558.03	2754.97
558.39	2753.86
558.74	2753.50
559.10	2752.54
559.45	2750.43
559.81	2748.78
560.16	2746.53
560.52	2743.58
560.87	2740.62
561.23	2736.83
561.58	2734.86
561.94	2731.30
562.29	2727.41
562.64	2725.30
563.00	2723.00
563.35	2720.87
563.71	2719.23
564.06	2717.15
564.42	2715.65
564.77	2713.42
565.12	2711.63
565.48	2708.46
565.83	2705.46
566.19	2702.03
566.54	2698.15
566.89	2694.51
567.25	2691.08
567.60	2687.52
567.96	2684.32
568.31	2680.66
568.66	2676.89
569.02	2672.17
569.37	2667.49
569.72	2663.67
570.08	2657.93
570.43	2651.74
570.78	2645.81
571.14	2639.05
571.49	2632.23
571.84	2626.09
572.20	2618.85
572.55	2612.42
572.90	2605.49
573.26	2598.24
573.61	2591.17
573.96	2584.29
574.31	2576.38
574.67	2568.30
575.02	2559.64
575.37	2551.01
575.72	2542.08
576.08	2534.55
576.43	2525.85
576.78	2517.80
577.13	2509.74
577.49	2501.87
577.84	2494.31
578.19	2486.76
578.54	2479.46
578.90	2472.79
579.25	2463.84
579.60	2454.79
579.95	2445.43
580.30	2437.53
580.66	2429.53
581.01	2420.39
581.36	2411.02
581.71	2402.66
582.06	2393.98
582.42	2385.89
582.77	2376.69
583.12	2367.53
583.47	2358.62
583.82	2350.61
584.17	2341.61
584.53	2332.48
584.88	2323.11
585.23	2313.98
585.58	2304.46
585.93	2294.88
586.28	2285.22
586.63	2276.11
586.98	2267.73
587.34	2259.40
587.69	2250.18
588.04	2240.71
588.39	2232.34
588.74	2223.36
589.09	2214.34
589.44	2204.69
589.79	2196.19
590.14	2188.21
590.49	2180.12
590.84	2171.24
591.19	2162.88
591.54	2153.69
591.89	2143.44
592.25	2134.57
592.60	2125.00
592.95	2115.58
593.30	2105.94
593.65	2096.33
594.00	2086.66
594.35	2078.27
594.70	2068.68
595.05	2059.70
595.40	2050.92
595.75	2041.27
596.10	2032.88
596.45	2024.31
596.80	2016.44
597.15	2007.86
597.50	1998.64
597.85	1989.93
598.19	1981.28
598.54	1972.03
598.89	1964.36
599.24	1957.61
599.59	1950.17
599.94	1942.94
600.29	1934.96
600.64	1926.92
600.99	1918.58
601.34	1911.61
601.69	1902.71
602.04	1894.37
602.39	1886.36
602.74	1878.64
603.08	1872.11
603.43	1864.83
603.78	1856.57
604.13	1848.47
604.48	1840.34
604.83	1833.08
605.18	1825.86
605.53	1818.15
605.87	1810.69
606.22	1803.41
606.57	1795.23
606.92	1787.02
607.27	1778.91
607.62	1771.72
607.96	1764.75
608.31	1758.15
608.66	1750.09
609.01	1742.50
609.36	1734.81
609.70	1726.80
610.05	1718.83
610.40	1710.18
610.75	1701.71
611.10	1694.15
611.44	1684.65
611.79	1675.41
612.14	1666.17
612.49	1656.69
612.83	1647.80
613.18	1638.05
613.53	1628.24
613.88	1618.80
614.22	1609.55
614.57	1599.98
614.92	1590.37
615.27	1581.17
615.61	1571.12
615.96	1561.91
616.31	1553.38
616.65	1545.51
617.00	1537.01
617.35	1528.47
617.70	1519.49
618.04	1510.39
618.39	1500.93
618.74	1492.73
619.08	1484.21
619.43	1475.87
619.78	1467.83
620.12	1459.72
620.47	1451.99
620.82	1443.48
621.16	1435.11
621.51	1426.75
621.85	1418.52
622.20	1410.10
622.55	1401.43
622.89	1393.23
623.24	1385.37
623.59	1376.66
623.93	1367.85
624.28	1359.66
624.62	1351.23
624.97	1342.99
625.32	1334.97
625.66	1327.50
626.01	1320.15
626.35	1312.78
626.70	1305.04
627.04	1297.50
627.39	1289.60
627.73	1281.89
628.08	1275.00
628.43	1267.55
628.77	1260.29
629.12	1252.80
629.46	1246.15
629.81	1238.69
630.15	1231.44
630.50	1223.86
630.84	1216.71
631.19	1209.61
631.53	1202.55
631.88	1194.81
632.22	1187.32
632.57	1180.40
632.91	1172.92
633.26	1165.22
633.60	1157.89
633.95	1151.01
634.29	1143.65
634.64	1137.02
634.98	1129.88
635.32	1122.57
635.67	1116.11
636.01	1109.07
636.36	1102.46
636.70	1095.44
637.05	1089.04
637.39	1082.75
637.73	1076.63
638.08	1070.59
638.42	1064.51
638.77	1057.91
639.11	1051.76
639.45	1045.74
639.80	1039.10
640.14	1032.59
640.49	1026.44
640.83	1020.43
641.17	1014.12
641.52	1007.86
641.86	1001.35
642.20	995.20
642.55	988.64
642.89	982.00
643.23	975.83
643.58	969.79
643.92	963.40
644.26	957.00
644.61	950.64
644.95	944.28
645.29	937.87
645.64	931.37
645.98	925.14
646.32	919.24
646.66	913.00
647.01	906.97
647.35	901.01
647.69	894.64
648.04	888.58
648.38	882.46
648.72	876.45
649.06	870.19
649.41	864.19
649.75	858.17
650.09	852.24
650.43	846.17
650.78	839.91
651.12	833.89
651.46	828.29
651.80	822.48
652.14	816.55
652.49	810.58
652.83	804.57
653.17	798.63
653.51	792.63
653.85	786.87
654.20	781.00
654.54	775.16
654.88	769.61
655.22	763.60
655.56	757.57
655.90	751.65
656.25	746.07
656.59	740.52
656.93	735.48
657.27	730.27
657.61	724.79
657.95	719.67
658.29	714.40
658.64	709.18
658.98	703.84
659.32	698.50
659.66	693.33
660.00	688.11
660.34	682.72
660.68	677.47
661.02	672.30
661.36	667.60
661.70	662.81
662.05	658.19
662.39	653.84
662.73	649.58
663.07	645.30
663.41	640.95
663.75	636.32
664.09	631.49
664.43	626.72
664.77	622.43
665.11	617.86
665.45	613.59
665.79	609.08
666.13	604.69
666.47	600.44
666.81	596.21
667.15	592.11
667.49	588.34
667.83	584.45
668.17	580.62
668.51	576.67
668.85	572.88
669.19	569.20
669.53	565.13
669.87	561.14
670.21	557.22
670.55	553.20
670.89	549.62
671.23	546.26
671.57	542.79
671.91	539.05
672.25	535.46
672.58	531.82
672.92	528.36
673.26	525.24
673.60	521.88
673.94	518.53
674.28	515.03
674.62	511.84
674.96	508.65
675.30	505.49
675.64	502.19
675.97	499.03
676.31	495.84
676.65	492.89
676.99	490.08
677.33	487.03
677.67	484.09
678.01	480.93
678.34	477.85
678.68	474.94
679.02	471.92
679.36	469.15
679.70	466.38
680.04	463.35
680.37	460.27
680.71	457.43
681.05	454.73
681.39	452.21
681.73	449.40
682.06	446.78
682.40	444.27
682.74	441.71
683.08	439.21
683.42	436.61
683.75	434.07
684.09	431.46
684.43	429.03
684.77	426.38
685.10	423.97
685.44	421.39
685.78	418.80
686.12	416.62
686.45	414.33
686.79	411.83
687.13	409.72
687.46	407.63
687.80	405.37
688.14	403.06
688.48	400.85
688.81	398.60
689.15	396.26
689.49	393.95
689.82	391.75
690.16	389.35
690.50	387.08
690.83	384.75
691.17	382.46
691.51	380.17
691.84	378.15
692.18	376.09
692.52	374.15
692.85	372.30
693.19	370.39
693.52	368.31
693.86	366.42
694.20	364.53
694.53	362.47
694.87	360.56
695.21	358.62
695.54	356.66
695.88	354.79
696.21	352.94
696.55	351.14
696.88	349.45
697.22	347.67
697.56	346.06
697.89	344.45
698.23	342.86
698.56	341.29
698.90	339.79
699.23	338.09
699.57	336.46
699.90	334.79
700.24	333.09
700.58	331.51
700.91	330.09
701.25	328.67
701.58	327.30
701.92	325.77
702.25	324.42
702.59	323.03
702.92	321.59
703.26	320.25
703.59	319.01
703.93	317.70
704.26	316.45
704.60	315.13
704.93	313.82
705.26	312.59
705.60	311.42
705.93	310.15
706.27	309.04
706.60	308.01
706.94	306.98
707.27	305.78
707.61	304.72
707.94	303.52
708.27	302.23
708.61	301.10
708.94	300.08
709.28	299.00
709.61	297.96
709.94	296.95
710.28	296.01
710.61	294.85
710.95	293.76
711.28	292.90
711.61	291.88
711.95	290.89
712.28	289.75
712.61	288.66
712.95	287.76
713.28	286.87
713.61	285.82
713.95	284.84
714.28	283.92
714.61	282.96
714.95	282.08
715.28	281.19
715.61	280.20
715.95	279.28
716.28	278.38
716.61	277.52
716.95	276.63
717.28	275.73
717.61	274.91
717.94	274.16
718.28	273.16
718.61	272.35
718.94	271.63
719.27	270.97
719.61	270.39
719.94	269.64
720.27	268.87
720.60	268.23
720.94	267.44
721.27	266.88
721.60	266.22
721.93	265.48
722.27	264.98
722.60	264.39
722.93	263.77
723.26	263.13
723.59	262.44
723.93	261.85
724.26	261.25
724.59	260.67
724.92	259.93
725.25	259.44
725.59	258.87
725.92	258.36
726.25	257.87
726.58	257.32
726.91	256.78
727.24	256.21
727.57	255.61
727.91	255.05
728.24	254.44
728.57	253.97
728.90	253.56
729.23	252.89
729.56	252.47
729.89	252.00
730.22	251.53
730.55	251.11
730.89	250.64
731.22	250.14
731.55	249.64
731.88	249.27
732.21	248.83
732.54	248.50
732.87	247.94
733.20	247.46
733.53	246.97
733.86	246.47
734.19	246.05
734.52	245.65
734.85	245.48
735.18	245.10
735.51	244.69
735.84	244.27
736.17	243.90
736.50	243.52
736.83	243.37
737.16	243.06
737.49	242.67
737.82	242.24
738.15	241.88
738.48	241.58
738.81	241.22
739.14	240.77
739.47	240.23
739.80	239.93
740.13	239.63
740.46	239.27
740.79	239.00
741.12	238.66
741.45	238.32
741.78	237.82
742.11	237.59
742.44	237.26
742.77	237.00
743.10	236.74
743.43	236.34
743.75	235.84
744.08	235.73
744.41	235.49
744.74	235.28
745.07	235.00
745.40	234.74
745.73	234.58
746.06	234.29
746.39	234.08
746.71	233.76
747.04	233.48
747.37	233.18
747.70	232.90
748.03	232.69
748.36	232.49
748.68	232.36
749.01	231.98
749.34	231.71
749.67	231.49
750.00	231.31
750.33	231.24
750.65	231.02
750.98	230.48
751.31	230.23
751.64	229.93
751.97	229.80
752.29	229.55
752.62	229.23
752.95	229.01
753.28	228.79
753.60	228.57
753.93	228.37
754.26	228.13
754.59	227.89
754.91	227.67
755.24	227.49
755.57	227.15
755.90	226.96
756.22	226.74
756.55	226.47
756.88	226.14
757.20	225.86
757.53	225.60
757.86	225.44
758.19	225.22
758.51	225.13
758.84	224.86
759.17	224.70
759.49	224.55
759.82	224.51
760.15	224.36
760.47	224.20
760.80	223.91
761.13	223.73
761.45	223.59
761.78	223.43
762.11	223.25
762.43	223.18
762.76	223.07
763.08	222.88
763.41	222.70
763.74	222.57
764.06	222.32
764.39	222.20
764.71	222.12
765.04	221.93
765.37	221.78
765.69	221.65
766.02	221.47
766.34	221.28
766.67	221.03
767.00	220.94
767.32	220.98
767.65	221.01
767.97	220.89
768.30	220.79
768.62	220.68
768.95	220.43
769.27	220.26
769.60	220.08
769.92	220.03
770.25	219.95
770.57	219.85
770.90	219.81
771.22	219.68
771.55	219.56
771.87	219.50
772.20	219.38
772.52	219.40
772.85	219.50
773.17	219.44
773.50	219.40
773.82	219.27
774.15	219.00
774.47	218.78
774.80	218.74
775.12	218.60
775.45	218.48
775.77	218.48
776.09	218.40
776.42	218.42
776.74	218.35
777.07	218.28
777.39	218.24
777.72	218.17
778.04	218.10
778.36	218.06
778.69	218.00
779.01	217.89
779.33	217.71
779.66	217.51
779.98	217.41
780.31	217.38
780.63	217.37
780.95	217.34
781.28	217.31
781.60	217.25
781.92	217.20
782.25	217.12
782.57	217.06
782.89	217.04
783.22	216.94
783.54	216.89
783.86	216.89
784.19	216.78
784.51	216.75
784.83	216.68
785.16	216.56
785.48	216.52
785.80	216.53
786.12	216.45
786.45	216.37
786.77	216.32
787.09	216.24
787.42	216.11
787.74	216.12
788.06	216.08
788.38	216.00
788.71	215.97
789.03	215.96
789.35	215.99
789.67	215.88
789.99	215.81
790.32	215.79
790.64	215.73
790.96	215.85
791.28	215.76
791.61	215.76
791.93	215.73
792.25	215.66
792.57	215.66
792.89	215.65
793.21	215.69
793.54	215.71
793.86	215.66
794.18	215.73
794.50	215.63
794.82	215.62
795.14	215.66
795.47	215.67
795.79	215.61
796.11	215.48
796.43	215.50
796.75	215.51
797.07	215.48
797.39	215.42
797.71	215.30
798.04	215.27
798.36	215.24
798.68	215.24
799.00	215.28
799.32	215.28
799.64	215.25
799.96	215.15
800.28	215.13
800.60	215.09
800.92	215.01
801.24	214.97
801.56	214.93
801.89	214.89
802.21	214.84
802.53	214.84
802.85	214.86
803.17	214.88
803.49	214.90
803.81	214.85
804.13	214.83
804.45	214.81
804.77	214.81
805.09	214.75
805.41	214.65
805.73	214.56
806.05	214.47
806.37	214.40
806.69	214.36
807.01	214.20
807.33	214.14
807.65	214.07
807.97	214.14
808.28	214.13
808.60	214.03
808.92	213.98
809.24	213.98
809.56	213.92
809.88	213.83
810.20	213.72
810.52	213.78
810.84	213.75
811.16	213.67
811.48	213.60
811.80	213.64
812.12	213.65
812.43	213.65
812.75	213.61
813.07	213.59
813.39	213.53
813.71	213.63
814.03	213.63
814.35	213.58
814.67	213.45
814.98	213.39
815.30	213.44
815.62	213.38
815.94	213.27
816.26	213.24
816.58	213.12
816.89	213.14
817.21	213.00
817.53	213.01
817.85	212.92
818.17	212.90
818.48	212.86
818.80	212.85
819.12	212.81
819.44	212.76
819.76	212.71
820.07	212.77
820.39	212.73
820.71	212.74
821.03	212.81
821.34	212.89
821.66	212.88
821.98	212.81
822.30	212.83
822.61	212.96
822.93	212.93
823.25	212.95
823.57	212.84
823.88	212.89
824.20	212.80
824.52	212.90
824.83	212.90
825.15	212.78
825.47	212.82
825.79	212.81
826.10	212.82
826.42	212.82
826.74	212.76
827.05	212.69
827.37	212.69
827.69	212.56
828.00	212.50
828.32	212.53
828.64	212.50
828.95	212.59
829.27	212.45
829.58	212.48
829.90	212.57
830.22	212.56
830.53	212.54
830.85	212.58
831.17	212.46
831.48	212.42
831.80	212.49
832.11	212.43
832.43	212.44
832.75	212.35
833.06	212.45
833.38	212.44
833.69	212.46
834.01	212.51
834.32	212.56
834.64	212.50
834.96	212.51
835.27	212.52
835.59	212.44
835.90	212.40
836.22	212.32
836.53	212.23
836.85	212.23
837.16	212.35
837.48	212.28
837.79	212.39
838.11	212.46
838.42	212.47
838.74	212.50
839.05	212.47
839.37	212.51
839.68	212.42
840.00	212.38
840.31	212.42
840.63	212.30
840.94	212.26
841.26	212.28
841.57	212.21
841.88	212.20
842.20	212.16
842.51	212.14
842.83	212.24
843.14	212.40
843.46	212.44
843.77	212.30
844.08	212.30
844.40	212.24
844.71	212.12
845.03	212.03
845.34	211.97
845.65	211.97
845.97	211.90
846.28	211.88
846.60	211.93
846.91	211.85
847.22	211.78
847.54	211.76
847.85	211.73
848.16	211.73
848.48	211.64
848.79	211.74
849.10	211.72
849.42	211.66
849.73	211.50
850.04	211.51
850.36	211.43
850.67	211.47
850.98	211.50
851.30	211.56
851.61	211.55
851.92	211.54
852.23	211.48
852.55	211.53
852.86	211.51
853.17	211.45
853.49	211.49
853.80	211.55
854.11	211.58
854.42	211.55
854.74	211.54
855.05	211.55
855.36	211.45
855.67	211.48
855.99	211.49
856.30	211.69
856.61	211.63
856.92	211.67
857.23	211.62
857.55	211.55
857.86	211.50
858.17	211.54
858.48	211.48
858.79	211.51
859.11	211.53
859.42	211.48
859.73	211.41
860.04	211.44
860.35	211.42
860.66	211.38
860.98	211.39
861.29	211.35
861.60	211.30
861.91	211.27
862.22	211.23
862.53	211.14
862.84	210.88
863.16	210.92
863.47	210.89
863.78	210.90
864.09	210.90
864.40	210.94
864.71	210.91
865.02	210.90
865.33	210.85
865.64	210.87
865.95	210.86
866.27	211.01
866.58	210.91
866.89	210.94
867.20	210.92
867.51	210.94
867.82	210.96
868.13	211.05
868.44	210.99
868.75	211.01
869.06	211.01
869.37	211.07
869.68	211.01
869.99	211.04
870.30	211.11
870.61	211.12
870.92	211.07
871.23	211.04
871.54	211.07
871.85	211.12
872.16	211.02
872.47	211.02
872.78	210.93
873.09	210.95
873.40	210.90
873.71	210.95
874.02	210.96
874.33	211.01
874.64	210.98
874.95	211.06
875.26	211.09
875.56	211.11
875.87	211.08
876.18	211.16
876.49	211.34
876.80	211.26
877.11	211.20
877.42	211.25
877.73	211.30
878.04	211.30
878.35	211.26
878.66	211.28
878.96	211.27
879.27	211.22
879.58	211.18
879.89	211.20
880.20	211.20
880.51	211.17
880.82	211.16
881.12	211.24
881.43	211.22
881.74	211.16
882.05	211.18
882.36	211.20
882.67	211.17
882.97	210.97
883.28	210.97
883.59	210.97
883.90	211.00
884.21	211.03
884.51	211.10
884.82	211.18
885.13	211.23
885.44	211.30
885.74	211.34
886.05	211.41
886.36	211.42
886.67	211.37
886.98	211.46
887.28	211.50
887.59	211.40
887.90	211.41
888.20	211.45
888.51	211.52
888.82	211.50
889.13	211.53
889.43	211.63
889.74	211.70
890.05	211.76
890.35	211.71
890.66	211.69
890.97	211.63
891.28	211.56
891.58	211.58
891.89	211.60
892.20	211.68
892.50	211.63
892.81	211.64
893.12	211.64
893.42	211.55
893.73	211.47
894.04	211.49
894.34	211.53
894.65	211.56
894.95	211.55
895.26	211.54
895.57	211.57
895.87	211.47
896.18	211.46
896.48	211.40
896.79	211.39
897.10	211.46
897.40	211.40
897.71	211.41
898.01	211.32
898.32	211.32
898.63	211.28
898.93	211.39
899.24	211.39
899.54	211.42
899.85	211.43
900.15	211.46
900.46	211.45
900.76	211.44
901.07	211.48
901.38	211.42
901.68	211.43
901.99	211.33
902.29	211.31
902.60	211.28
902.90	211.29
903.21	211.26
903.51	211.17
903.82	211.27
904.12	211.24
904.43	211.24
904.73	211.18
905.03	211.13
905.34	211.20
905.64	211.16
905.95	211.15
906.25	211.16
906.56	211.17
906.86	211.20
907.17	211.17
907.47	211.12
907.77	211.12
908.08	211.10
908.38	211.02
908.69	211.08
908.99	211.13
909.30	211.15
909.60	211.20
909.90	211.23
910.21	211.11
910.51	211.10
910.81	211.11
911.12	211.15
911.42	211.22
911.73	211.01
912.03	211.00
912.33	211.01
912.64	211.01
912.94	210.94
913.24	210.91
913.55	210.87
913.85	210.82
914.15	210.83
914.46	210.84
914.76	210.89
915.06	210.80
915.37	210.71
915.67	210.66
915.97	210.70
916.27	210.64
916.58	210.71
916.88	210.73
917.18	210.79
917.49	210.88
917.79	210.76
918.09	210.80
918.39	210.86
918.70	210.94
919.00	210.89
919.30	211.03
919.60	210.96
919.91	210.97
920.21	211.04
920.51	211.03
920.81	211.02
921.12	211.05
921.42	211.07
921.72	211.14
922.02	211.20
922.32	211.17
922.63	211.23
922.93	211.29
923.23	211.32
923.53	211.24
923.83	211.13
924.13	211.21
924.44	211.25
924.74	211.31
925.04	211.33
925.34	211.33
925.64	211.27
925.94	211.32
926.24	211.37
926.55	211.28
926.85	211.26
927.15	211.25
927.45	211.24
927.75	211.26
928.05	211.28
928.35	211.23
928.65	211.29
928.95	211.35
929.26	211.29
929.56	211.30
929.86	211.39
930.16	211.39
930.46	211.36
930.76	211.34
931.06	211.20
931.36	211.05
931.66	211.09
931.96	211.08
932.26	211.09
932.56	211.13
932.86	211.19
933.16	211.16
933.46	211.16
933.76	211.24
934.06	211.24
934.36	211.19
934.66	211.15
934.96	211.18
935.26	211.09
935.56	211.13
935.86	211.07
936.16	210.99
936.46	210.99
936.76	210.93
937.06	210.92
937.36	210.92
937.66	210.95
937.96	210.93
938.26	210.85
938.56	210.88
938.86	210.82
939.16	210.89
939.46	210.94
939.76	210.97
940.06	210.87
940.35	210.89
940.65	210.86
940.95	210.89
941.25	210.79
941.55	210.84
941.85	210.82
942.15	210.85
942.45	211.02
942.75	211.03
943.04	211.05
943.34	211.10
943.64	211.19
943.94	211.10
944.24	211.11
944.54	211.13
944.84	211.10
945.13	211.02
945.43	210.93
945.73	210.96
946.03	210.93
946.33	210.90
946.62	210.76
946.92	210.78
947.22	210.81
947.52	210.79
947.82	210.73
948.11	210.70
948.41	210.59
948.71	210.48
949.01	210.39
949.31	210.42
949.60	210.41
949.90	210.35
950.20	210.36
950.50	210.33
950.79	210.26
951.09	210.30
951.39	210.33
951.69	210.34
951.98	210.28
952.28	210.28
952.58	210.36
952.87	210.46
953.17	210.48
953.47	210.47
953.76	210.49
954.06	210.47
954.36	210.37
954.66	210.46
954.95	210.50
955.25	210.50
955.55	210.53
955.84	210.45
956.14	210.46
956.44	210.55
956.73	210.55
957.03	210.62
957.32	210.56
957.62	210.58
957.92	210.53
958.21	210.56
958.51	210.76
958.81	210.72
959.10	210.70
959.40	210.77
959.69	210.78
959.99	210.80
960.29	210.75
960.58	210.84
960.88	210.91
961.17	210.85
961.47	210.97
961.76	210.91
962.06	210.90
962.36	210.88
962.65	210.85
962.95	210.84
963.24	210.85
963.54	210.86
963.83	210.93
964.13	211.05
964.42	211.07
964.72	210.97
965.01	210.96
965.31	210.93
965.60	210.80
965.90	210.92
966.19	210.87
966.49	210.93
966.78	210.85
967.08	210.84
967.37	210.87
967.67	210.85
967.96	210.86
968.26	210.93
968.55	210.98
968.85	210.97
969.14	211.00
969.43	210.96
969.73	210.93
970.02	210.83
970.32	210.80
970.61	210.74
970.91	210.68
971.20	210.70
971.49	210.70
971.79	210.76
972.08	210.61
972.38	210.63
972.67	210.63
972.96	210.71
973.26	210.67
973.55	210.72
973.85	210.67
974.14	210.78
974.43	210.78
974.73	210.76
975.02	210.78
975.31	210.81
975.61	210.92
975.90	210.98
976.19	211.02
976.49	211.03
976.78	211.05
977.07	211.04
977.37	211.05
977.66	211.13
977.95	211.10
978.24	211.14
978.54	211.29
978.83	211.30
979.12	211.23
979.42	211.25
979.71	211.26
980.00	211.23
980.29	211.10
980.59	211.07
980.88	211.13
981.17	211.12
981.46	211.10
981.76	211.06
982.05	211.12
982.34	211.10
982.63	211.14
982.93	211.09
983.22	211.10
983.51	211.06
983.80	211.03
984.09	211.10
984.39	211.10
984.68	210.98
984.97	211.04
985.26	211.14
985.55	211.14
985.85	211.07
986.14	211.13
986.43	211.16
986.72	211.14
987.01	211.10
987.30	211.06
987.59	211.02
987.89	210.96
988.18	210.86
988.47	210.85
988.76	210.82
989.05	210.87
989.34	210.87
989.63	210.94
989.92	210.95
990.22	210.87
990.51	210.83
990.80	210.86
991.09	210.80
991.38	210.76
991.67	210.79
991.96	210.72
992.25	210.70
992.54	210.68
992.83	210.71
993.12	210.64
993.41	210.79
993.70	210.85
993.99	210.89
994.28	211.00
994.58	211.08
994.87	211.00
995.16	210.95
995.45	210.99
995.74	210.96
996.03	211.01
996.32	211.06
996.61	211.17
996.90	211.08
997.19	211.13
997.48	211.09
997.77	211.05
998.06	211.12
998.34	211.12
998.63	211.15
998.92	211.14
999.21	211.26
999.50	211.20
999.79	211.12
1000.08	211.14
1000.37	211.10
1000.66	210.92
1000.95	210.92
1001.24	210.90
1001.53	210.87
1001.82	210.84
1002.11	210.76
1002.40	210.78
1002.68	210.83
1002.97	210.98
1003.26	210.97
1003.55	211.00
1003.84	211.05
1004.13	211.08
1004.42	211.07
1004.71	211.11
1004.99	211.15
1005.28	211.13
1005.57	211.10
1005.86	211.12
1006.15	211.14
1006.44	211.04
1006.72	211.11
1007.01	211.12
1007.30	211.15
1007.59	211.15
1007.88	211.13
1008.17	211.12
1008.45	211.06
1008.74	210.92
1009.03	210.84
1009.32	210.78
1009.60	210.75
1009.89	210.66
1010.18	210.58
1010.47	210.49
1010.76	210.49
1011.04	210.44
1011.33	210.45
1011.62	210.41
1011.91	210.48
1012.19	210.42
1012.48	210.42
1012.77	210.46
1013.05	210.60
1013.34	210.61
1013.63	210.62
1013.92	210.60
1014.20	210.60
1014.49	210.62
1014.78	210.62
1015.06	210.62
1015.35	210.67
1015.64	210.68
1015.92	210.76
1016.21	210.76
1016.50	210.79
1016.78	210.81
1017.07	210.82
1017.36	210.74
1017.64	210.80
1017.93	210.71
1018.22	210.75
1018.50	210.79
1018.79	210.82
1019.08	210.67
1019.36	210.70
1019.65	210.64
1019.93	210.75
1020.22	210.76
1020.51	210.89
1020.79	210.90
1021.08	211.50
1021.36	210.45
1021.65	211.15
1021.94	209.90
1022.22	211.55
1022.51	209.85
1022.79	211.65
1023.08	210.70
1023.36	213.95
1023.65	210.35
>>>>>End Processed Spectral Data<<<<<
