SpectraSuite Data File
++++++++++++++++++++++++++++++++++++
Date: Mon Feb 25 17:29:41 EST 2013
User: group
Dark Spectrum Present: No
Reference Spectrum Present: No
Number of Sampled Component Spectra: 1
Spectrometers: USB2E7196
Integration Time (usec): 52000 (USB2E7196)
Spectra Averaged: 20 (USB2E7196)
Boxcar Smoothing: 10 (USB2E7196)
Correct for Electrical Dark: No (USB2E7196)
Strobe/Lamp Enabled: No (USB2E7196)
Correct for Detector Non-linearity: No (USB2E7196)
Correct for Stray Light: No (USB2E7196)
Number of Pixels in Processed Spectrum: 2048
>>>>>Begin Processed Spectral Data<<<<<
339.09	0.00
339.48	199.30
339.86	199.85
340.24	202.15
340.63	203.35
341.01	206.65
341.39	205.40
341.78	207.85
342.16	208.05
342.54	207.95
342.93	197.91
343.31	207.88
343.69	208.42
344.07	208.91
344.46	209.31
344.84	209.71
345.22	209.94
345.60	210.22
345.99	210.39
346.37	210.50
346.75	210.71
347.13	210.73
347.52	210.77
347.90	210.88
348.28	210.92
348.66	210.99
349.05	211.00
349.43	211.13
349.81	211.14
350.19	211.17
350.57	211.19
350.96	211.28
351.34	211.44
351.72	211.55
352.10	211.67
352.48	211.70
352.87	211.69
353.25	211.77
353.63	211.82
354.01	211.82
354.39	211.96
354.77	211.96
355.15	212.12
355.54	212.20
355.92	212.25
356.30	212.35
356.68	212.56
357.06	212.60
357.44	212.61
357.82	212.72
358.20	212.85
358.58	212.92
358.97	212.97
359.35	212.97
359.73	213.00
360.11	213.02
360.49	213.11
360.87	213.18
361.25	213.19
361.63	213.31
362.01	213.36
362.39	213.40
362.77	213.45
363.15	213.49
363.53	213.49
363.91	213.47
364.29	213.53
364.67	213.35
365.05	213.37
365.43	213.44
365.81	213.45
366.19	213.46
366.57	213.56
366.95	213.62
367.33	213.64
367.71	213.65
368.09	213.67
368.47	213.70
368.85	213.69
369.23	213.75
369.61	213.66
369.99	213.78
370.37	213.80
370.75	213.85
371.13	213.77
371.51	213.70
371.89	213.76
372.27	213.73
372.65	213.77
373.03	213.73
373.41	213.64
373.78	213.59
374.16	213.46
374.54	213.30
374.92	213.19
375.30	213.16
375.68	213.11
376.06	213.14
376.44	213.08
376.82	213.04
377.19	212.94
377.57	212.89
377.95	212.81
378.33	212.64
378.71	212.52
379.09	212.49
379.47	212.56
379.84	212.43
380.22	212.28
380.60	212.22
380.98	212.15
381.36	212.10
381.73	212.11
382.11	212.08
382.49	212.06
382.87	212.01
383.25	211.94
383.62	212.03
384.00	211.95
384.38	211.88
384.76	211.94
385.13	211.98
385.51	211.94
385.89	211.91
386.27	211.94
386.64	211.93
387.02	211.95
387.40	211.93
387.78	211.88
388.15	211.92
388.53	211.80
388.91	211.79
389.29	211.69
389.66	211.69
390.04	211.70
390.42	211.71
390.79	211.76
391.17	211.76
391.55	211.62
391.92	211.52
392.30	211.52
392.68	211.41
393.05	211.42
393.43	211.37
393.81	211.31
394.18	211.30
394.56	211.28
394.94	211.25
395.31	211.18
395.69	211.28
396.06	211.24
396.44	211.30
396.82	211.31
397.19	211.45
397.57	211.34
397.95	211.34
398.32	211.26
398.70	211.23
399.07	211.25
399.45	211.26
399.82	211.30
400.20	211.36
400.58	211.37
400.95	211.25
401.33	211.35
401.70	211.46
402.08	211.47
402.45	211.53
402.83	211.66
403.20	211.79
403.58	211.84
403.95	211.98
404.33	212.18
404.71	212.29
405.08	212.45
405.46	212.58
405.83	212.71
406.21	212.91
406.58	213.09
406.96	213.20
407.33	213.32
407.70	213.53
408.08	213.76
408.45	213.97
408.83	214.25
409.20	214.39
409.58	214.53
409.95	214.79
410.33	215.06
410.70	215.24
411.08	215.44
411.45	215.71
411.82	215.96
412.20	216.36
412.57	216.85
412.95	217.13
413.32	217.55
413.69	217.94
414.07	218.48
414.44	219.02
414.82	219.65
415.19	220.28
415.56	220.88
415.94	221.51
416.31	222.25
416.68	223.04
417.06	223.89
417.43	224.76
417.81	225.78
418.18	226.78
418.55	227.81
418.93	228.91
419.30	230.07
419.67	231.32
420.04	232.51
420.42	233.70
420.79	235.32
421.16	236.85
421.54	238.51
421.91	240.05
422.28	241.65
422.66	243.27
423.03	245.12
423.40	246.99
423.77	248.93
424.15	250.90
424.52	252.84
424.89	255.06
425.26	257.17
425.64	259.13
426.01	261.35
426.38	263.67
426.75	266.11
427.13	268.48
427.50	270.95
427.87	273.57
428.24	276.24
428.61	278.62
428.99	281.38
429.36	284.35
429.73	287.35
430.10	290.38
430.47	293.54
430.85	296.66
431.22	299.99
431.59	303.55
431.96	306.95
432.33	310.83
432.70	314.57
433.08	318.92
433.45	323.01
433.82	327.00
434.19	331.43
434.56	335.65
434.93	339.85
435.30	344.14
435.68	348.82
436.05	353.36
436.42	357.99
436.79	362.11
437.16	366.63
437.53	371.24
437.90	375.86
438.27	380.32
438.64	384.94
439.01	389.25
439.38	393.08
439.75	396.85
440.13	401.08
440.50	404.97
440.87	408.14
441.24	411.45
441.61	415.21
441.98	417.99
442.35	421.33
442.72	424.70
443.09	427.73
443.46	429.43
443.83	430.69
444.20	431.65
444.57	433.32
444.94	433.87
445.31	434.68
445.68	435.35
446.05	435.65
446.42	435.09
446.79	434.49
447.16	433.74
447.53	433.20
447.90	431.35
448.27	429.51
448.64	427.04
449.01	425.33
449.37	422.28
449.74	419.29
450.11	415.80
450.48	411.82
450.85	407.90
451.22	404.53
451.59	401.30
451.96	398.30
452.33	394.12
452.70	390.48
453.07	386.03
453.43	381.55
453.80	377.36
454.17	373.31
454.54	369.50
454.91	365.46
455.28	361.45
455.65	357.73
456.02	354.10
456.38	350.86
456.75	346.80
457.12	343.36
457.49	339.98
457.86	336.64
458.23	333.85
458.59	330.88
458.96	327.92
459.33	325.24
459.70	322.47
460.07	320.39
460.43	317.88
460.80	315.59
461.17	313.55
461.54	311.40
461.91	309.38
462.27	307.25
462.64	305.46
463.01	303.53
463.38	301.72
463.74	299.75
464.11	298.20
464.48	296.78
464.85	295.35
465.21	294.27
465.58	293.05
465.95	291.62
466.32	290.37
466.68	289.08
467.05	287.87
467.42	286.76
467.78	285.45
468.15	284.40
468.52	283.52
468.88	282.45
469.25	281.38
469.62	280.61
469.98	279.79
470.35	278.97
470.72	278.28
471.08	277.52
471.45	276.89
471.82	276.24
472.18	275.56
472.55	275.07
472.92	274.45
473.28	273.97
473.65	273.51
474.02	273.05
474.38	272.76
474.75	272.62
475.11	272.35
475.48	272.16
475.85	271.96
476.21	271.83
476.58	271.71
476.94	271.76
477.31	271.76
477.67	271.86
478.04	272.05
478.41	272.18
478.77	272.52
479.14	272.75
479.50	273.10
479.87	273.52
480.23	273.92
480.60	274.42
480.96	274.90
481.33	275.55
481.69	276.20
482.06	276.86
482.42	277.43
482.79	278.18
483.15	279.17
483.52	280.20
483.88	281.23
484.25	282.30
484.61	283.46
484.98	284.59
485.34	285.85
485.71	287.19
486.07	288.59
486.44	289.86
486.80	291.48
487.17	293.13
487.53	294.87
487.90	296.64
488.26	298.45
488.62	300.56
488.99	302.60
489.35	304.74
489.72	307.10
490.08	309.54
490.44	312.02
490.81	314.61
491.17	317.29
491.54	320.12
491.90	323.03
492.26	326.21
492.63	329.70
492.99	333.11
493.36	336.70
493.72	340.61
494.08	344.57
494.45	348.85
494.81	353.20
495.17	357.71
495.54	362.60
495.90	367.65
496.26	372.79
496.63	378.29
496.99	383.82
497.35	389.70
497.72	395.78
498.08	402.23
498.44	408.85
498.80	415.81
499.17	423.08
499.53	430.66
499.89	438.29
500.26	446.02
500.62	454.06
500.98	462.69
501.34	471.51
501.71	480.72
502.07	489.92
502.43	499.48
502.79	509.47
503.16	519.66
503.52	530.17
503.88	540.89
504.24	551.94
504.60	563.50
504.97	575.28
505.33	587.35
505.69	599.99
506.05	612.83
506.41	625.82
506.78	638.86
507.14	652.29
507.50	666.25
507.86	680.45
508.22	695.04
508.59	709.74
508.95	724.76
509.31	739.92
509.67	755.67
510.03	771.67
510.39	788.09
510.75	804.77
511.12	821.71
511.48	839.02
511.84	856.30
512.20	873.66
512.56	891.37
512.92	909.46
513.28	927.34
513.64	945.57
514.00	963.99
514.37	982.78
514.73	1002.01
515.09	1021.18
515.45	1040.45
515.81	1060.07
516.17	1079.43
516.53	1098.83
516.89	1118.75
517.25	1138.21
517.61	1157.95
517.97	1177.36
518.33	1196.96
518.69	1216.51
519.05	1236.34
519.41	1256.62
519.77	1277.11
520.13	1297.15
520.49	1317.18
520.85	1337.70
521.21	1358.09
521.57	1378.48
521.93	1398.04
522.29	1418.38
522.65	1438.38
523.01	1458.20
523.37	1477.82
523.73	1497.77
524.09	1517.30
524.45	1536.95
524.81	1556.71
525.17	1576.89
525.53	1596.82
525.89	1616.36
526.25	1635.71
526.61	1654.22
526.97	1673.00
527.33	1691.55
527.68	1709.66
528.04	1727.85
528.40	1745.41
528.76	1763.12
529.12	1780.90
529.48	1799.65
529.84	1817.05
530.20	1834.32
530.56	1851.88
530.91	1869.67
531.27	1886.98
531.63	1904.25
531.99	1921.00
532.35	1937.45
532.71	1953.20
533.07	1969.53
533.42	1985.13
533.78	2001.08
534.14	2016.78
534.50	2030.89
534.86	2045.77
535.21	2060.00
535.57	2074.71
535.93	2089.04
536.29	2102.84
536.65	2116.51
537.00	2129.41
537.36	2141.82
537.72	2154.15
538.08	2166.41
538.44	2178.49
538.79	2190.68
539.15	2202.54
539.51	2214.53
539.87	2226.62
540.22	2237.93
540.58	2249.85
540.94	2261.49
541.29	2271.57
541.65	2281.12
542.01	2291.54
542.37	2300.82
542.72	2310.32
543.08	2318.66
543.44	2327.75
543.79	2335.46
544.15	2343.08
544.51	2351.14
544.87	2359.38
545.22	2366.21
545.58	2372.45
545.94	2377.65
546.29	2382.18
546.65	2386.31
547.01	2390.05
547.36	2393.84
547.72	2397.42
548.07	2399.45
548.43	2401.32
548.79	2403.26
549.14	2405.88
549.50	2408.58
549.86	2410.60
550.21	2412.99
550.57	2415.22
550.92	2416.37
551.28	2417.55
551.64	2418.64
551.99	2419.56
552.35	2419.63
552.70	2420.97
553.06	2422.20
553.41	2423.48
553.77	2424.90
554.13	2425.68
554.48	2426.55
554.84	2426.64
555.19	2426.06
555.55	2425.38
555.90	2424.67
556.26	2424.15
556.61	2422.65
556.97	2420.19
557.32	2418.50
557.68	2415.89
558.03	2413.57
558.39	2411.07
558.74	2409.77
559.10	2407.26
559.45	2404.58
559.81	2402.62
560.16	2399.22
560.52	2396.02
560.87	2392.55
561.23	2388.07
561.58	2385.39
561.94	2381.32
562.29	2376.98
562.64	2374.07
563.00	2370.74
563.35	2367.86
563.71	2365.32
564.06	2362.92
564.42	2360.62
564.77	2357.85
565.12	2355.64
565.48	2352.09
565.83	2348.66
566.19	2344.66
566.54	2340.57
566.89	2336.30
567.25	2332.45
567.60	2328.84
567.96	2325.15
568.31	2321.31
568.66	2317.64
569.02	2312.75
569.37	2307.76
569.72	2304.13
570.08	2298.94
570.43	2293.64
570.78	2288.10
571.14	2281.99
571.49	2275.78
571.84	2269.70
572.20	2263.53
572.55	2257.11
572.90	2250.79
573.26	2244.05
573.61	2237.67
573.96	2231.75
574.31	2224.81
574.67	2217.05
575.02	2209.47
575.37	2201.70
575.72	2193.69
576.08	2186.60
576.43	2178.88
576.78	2171.48
577.13	2164.00
577.49	2156.68
577.84	2149.86
578.19	2143.27
578.54	2136.62
578.90	2130.21
579.25	2122.99
579.60	2114.79
579.95	2106.73
580.30	2099.57
580.66	2092.62
581.01	2084.63
581.36	2076.36
581.71	2069.10
582.06	2061.89
582.42	2054.81
582.77	2046.94
583.12	2039.36
583.47	2031.84
583.82	2024.59
584.17	2017.07
584.53	2009.27
584.88	2001.79
585.23	1994.00
585.58	1985.71
585.93	1977.54
586.28	1969.86
586.63	1962.08
586.98	1955.35
587.34	1948.22
587.69	1940.73
588.04	1933.03
588.39	1926.05
588.74	1918.39
589.09	1910.76
589.44	1902.40
589.79	1895.03
590.14	1888.39
590.49	1881.30
590.84	1873.60
591.19	1866.93
591.54	1859.47
591.89	1850.80
592.25	1842.48
592.60	1834.31
592.95	1826.07
593.30	1818.24
593.65	1809.75
594.00	1801.71
594.35	1794.45
594.70	1787.05
595.05	1779.51
595.40	1771.83
595.75	1763.62
596.10	1756.80
596.45	1749.70
596.80	1743.17
597.15	1736.16
597.50	1728.19
597.85	1720.72
598.19	1713.33
598.54	1705.67
598.89	1698.95
599.24	1693.29
599.59	1687.51
599.94	1681.67
600.29	1675.30
600.64	1668.33
600.99	1661.38
601.34	1655.34
601.69	1647.94
602.04	1640.70
602.39	1633.64
602.74	1627.25
603.08	1621.38
603.43	1615.46
603.78	1608.62
604.13	1601.95
604.48	1595.26
604.83	1589.48
605.18	1583.53
605.53	1577.25
605.87	1570.95
606.22	1565.16
606.57	1558.72
606.92	1551.82
607.27	1544.70
607.62	1538.59
607.96	1532.86
608.31	1527.57
608.66	1520.77
609.01	1514.30
609.36	1507.70
609.70	1500.92
610.05	1494.30
610.40	1487.73
610.75	1480.25
611.10	1473.99
611.44	1466.14
611.79	1458.31
612.14	1450.33
612.49	1442.00
612.83	1434.53
613.18	1426.19
613.53	1417.88
613.88	1409.24
614.22	1401.44
614.57	1393.70
614.92	1385.73
615.27	1377.79
615.61	1369.56
615.96	1362.00
616.31	1354.76
616.65	1348.17
617.00	1341.40
617.35	1334.00
617.70	1326.28
618.04	1318.63
618.39	1310.52
618.74	1303.77
619.08	1296.19
619.43	1289.09
619.78	1282.57
620.12	1275.72
620.47	1269.29
620.82	1262.14
621.16	1255.27
621.51	1248.16
621.85	1241.15
622.20	1233.75
622.55	1226.56
622.89	1219.25
623.24	1212.57
623.59	1205.20
623.93	1197.70
624.28	1190.59
624.62	1183.70
624.97	1176.64
625.32	1169.97
625.66	1163.78
626.01	1157.24
626.35	1151.40
626.70	1144.76
627.04	1138.37
627.39	1131.88
627.73	1125.36
628.08	1119.42
628.43	1112.98
628.77	1106.63
629.12	1100.08
629.46	1094.58
629.81	1088.50
630.15	1082.51
630.50	1076.21
630.84	1069.92
631.19	1063.92
631.53	1057.84
631.88	1051.20
632.22	1044.75
632.57	1038.62
632.91	1032.05
633.26	1025.76
633.60	1019.50
633.95	1013.90
634.29	1007.68
634.64	1001.78
634.98	995.87
635.32	990.01
635.67	984.62
636.01	979.04
636.36	973.40
636.70	967.63
637.05	962.07
637.39	956.61
637.73	951.20
638.08	946.35
638.42	941.15
638.77	935.55
639.11	930.30
639.45	925.26
639.80	919.87
640.14	914.53
640.49	909.13
640.83	904.02
641.17	898.44
641.52	893.16
641.86	887.67
642.20	882.20
642.55	876.23
642.89	870.62
643.23	865.00
643.58	859.84
643.92	854.12
644.26	848.62
644.61	843.40
644.95	837.87
645.29	832.33
645.64	826.62
645.98	821.35
646.32	816.10
646.66	810.64
647.01	805.59
647.35	800.49
647.69	794.95
648.04	789.62
648.38	784.48
648.72	779.45
649.06	774.21
649.41	769.13
649.75	764.21
650.09	759.26
650.43	754.36
650.78	749.07
651.12	743.98
651.46	738.94
651.80	733.76
652.14	728.75
652.49	723.66
652.83	718.72
653.17	713.28
653.51	708.30
653.85	703.55
654.20	698.38
654.54	693.39
654.88	688.83
655.22	683.82
655.56	678.86
655.90	673.67
656.25	668.89
656.59	664.09
656.93	659.71
657.27	655.12
657.61	650.34
657.95	645.83
658.29	641.33
658.64	637.05
658.98	632.56
659.32	627.80
659.66	623.28
660.00	618.81
660.34	614.61
660.68	610.14
661.02	605.58
661.36	601.32
661.70	597.04
662.05	592.86
662.39	588.90
662.73	585.10
663.07	581.56
663.41	577.64
663.75	573.71
664.09	569.48
664.43	565.49
664.77	561.67
665.11	557.97
665.45	554.18
665.79	550.24
666.13	546.41
666.47	542.91
666.81	539.31
667.15	535.71
667.49	532.39
667.83	529.05
668.17	525.79
668.51	522.64
668.85	519.49
669.19	516.42
669.53	513.03
669.87	509.46
670.21	506.00
670.55	502.60
670.89	499.59
671.23	496.64
671.57	493.64
671.91	490.58
672.25	487.46
672.58	484.54
672.92	481.55
673.26	478.90
673.60	476.14
673.94	473.15
674.28	470.30
674.62	467.50
674.96	464.75
675.30	462.15
675.64	459.38
675.97	456.58
676.31	454.00
676.65	451.49
676.99	449.31
677.33	446.76
677.67	444.32
678.01	441.67
678.34	439.10
678.68	436.53
679.02	434.11
679.36	431.67
679.70	429.30
680.04	426.87
680.37	424.26
680.71	421.77
681.05	419.58
681.39	417.40
681.73	415.12
682.06	412.97
682.40	410.71
682.74	408.37
683.08	406.22
683.42	403.85
683.75	401.73
684.09	399.38
684.43	397.23
684.77	395.03
685.10	392.95
685.44	390.83
685.78	388.80
686.12	386.73
686.45	384.83
686.79	382.70
687.13	380.86
687.46	378.86
687.80	377.04
688.14	374.99
688.48	373.11
688.81	371.21
689.15	369.23
689.49	367.27
689.82	365.41
690.16	363.40
690.50	361.45
690.83	359.43
691.17	357.44
691.51	355.58
691.84	353.79
692.18	351.93
692.52	350.23
692.85	348.54
693.19	346.98
693.52	345.22
693.86	343.55
694.20	341.89
694.53	340.41
694.87	338.71
695.21	337.16
695.54	335.42
695.88	333.74
696.21	332.18
696.55	330.75
696.88	329.32
697.22	327.84
697.56	326.55
697.89	325.16
698.23	323.78
698.56	322.46
698.90	321.20
699.23	319.81
699.57	318.43
699.90	317.10
700.24	315.57
700.58	314.29
700.91	313.15
701.25	311.94
701.58	310.60
701.92	309.42
702.25	308.18
702.59	307.08
702.92	305.94
703.26	304.75
703.59	303.56
703.93	302.56
704.26	301.47
704.60	300.28
704.93	299.26
705.26	298.17
705.60	297.06
705.93	295.88
706.27	294.95
706.60	293.96
706.94	293.00
707.27	292.06
707.61	291.09
707.94	289.97
708.27	288.84
708.61	287.90
708.94	286.98
709.28	286.05
709.61	285.03
709.94	284.11
710.28	283.18
710.61	282.27
710.95	281.24
711.28	280.48
711.61	279.58
711.95	278.66
712.28	277.80
712.61	276.94
712.95	276.20
713.28	275.42
713.61	274.64
713.95	273.82
714.28	273.14
714.61	272.32
714.95	271.52
715.28	270.75
715.61	269.97
715.95	269.15
716.28	268.36
716.61	267.60
716.95	266.82
717.28	266.12
717.61	265.42
717.94	264.72
718.28	263.92
718.61	263.29
718.94	262.71
719.27	262.02
719.61	261.39
719.94	260.72
720.27	259.96
720.60	259.35
720.94	258.77
721.27	258.09
721.60	257.55
721.93	256.99
722.27	256.56
722.60	256.03
722.93	255.51
723.26	255.05
723.59	254.57
723.93	254.12
724.26	253.62
724.59	253.11
724.92	252.66
725.25	252.25
725.59	251.80
725.92	251.32
726.25	250.94
726.58	250.58
726.91	250.19
727.24	249.82
727.57	249.40
727.91	248.90
728.24	248.53
728.57	248.05
728.90	247.69
729.23	247.22
729.56	246.86
729.89	246.46
730.22	246.07
730.55	245.72
730.89	245.36
731.22	245.00
731.55	244.66
731.88	244.28
732.21	243.79
732.54	243.35
732.87	242.96
733.20	242.61
733.53	242.19
733.86	241.75
734.19	241.36
734.52	241.10
734.85	240.94
735.18	240.53
735.51	240.31
735.84	239.92
736.17	239.64
736.50	239.30
736.83	239.15
737.16	238.80
737.49	238.50
737.82	238.21
738.15	237.91
738.48	237.62
738.81	237.34
739.14	237.08
739.47	236.84
739.80	236.54
740.13	236.31
740.46	236.02
740.79	235.80
741.12	235.52
741.45	235.19
741.78	234.74
742.11	234.61
742.44	234.29
742.77	234.09
743.10	233.80
743.43	233.51
743.75	233.11
744.08	233.07
744.41	232.76
744.74	232.45
745.07	232.18
745.40	231.91
745.73	231.70
746.06	231.44
746.39	231.18
746.71	230.91
747.04	230.62
747.37	230.47
747.70	230.25
748.03	230.03
748.36	229.83
748.68	229.68
749.01	229.36
749.34	229.15
749.67	228.99
750.00	228.80
750.33	228.75
750.65	228.53
750.98	228.05
751.31	227.86
751.64	227.66
751.97	227.57
752.29	227.37
752.62	227.04
752.95	226.89
753.28	226.68
753.60	226.47
753.93	226.41
754.26	226.21
754.59	225.98
754.91	225.78
755.24	225.54
755.57	225.37
755.90	225.22
756.22	224.99
756.55	224.81
756.88	224.57
757.20	224.32
757.53	224.09
757.86	224.01
758.19	223.82
758.51	223.70
758.84	223.44
759.17	223.32
759.49	223.17
759.82	223.09
760.15	222.95
760.47	222.78
760.80	222.53
761.13	222.28
761.45	222.12
761.78	222.00
762.11	221.84
762.43	221.61
762.76	221.54
763.08	221.47
763.41	221.36
763.74	221.25
764.06	221.06
764.39	220.95
764.71	220.74
765.04	220.62
765.37	220.50
765.69	220.34
766.02	220.24
766.34	220.19
766.67	220.02
767.00	219.95
767.32	220.00
767.65	219.98
767.97	219.95
768.30	219.88
768.62	219.75
768.95	219.58
769.27	219.50
769.60	219.34
769.92	219.25
770.25	219.03
770.57	218.97
770.90	218.91
771.22	218.78
771.55	218.76
771.87	218.69
772.20	218.60
772.52	218.65
772.85	218.73
773.17	218.67
773.50	218.61
773.82	218.53
774.15	218.41
774.47	218.28
774.80	218.21
775.12	218.10
775.45	218.02
775.77	218.08
776.09	218.02
776.42	217.91
776.74	217.77
777.07	217.76
777.39	217.60
777.72	217.48
778.04	217.47
778.36	217.37
778.69	217.36
779.01	217.33
779.33	217.19
779.66	216.90
779.98	216.84
780.31	216.74
780.63	216.74
780.95	216.66
781.28	216.60
781.60	216.52
781.92	216.52
782.25	216.51
782.57	216.45
782.89	216.40
783.22	216.48
783.54	216.43
783.86	216.37
784.19	216.37
784.51	216.40
784.83	216.32
785.16	216.32
785.48	216.22
785.80	216.20
786.12	216.20
786.45	216.20
786.77	216.07
787.09	216.04
787.42	215.89
787.74	215.94
788.06	215.90
788.38	215.82
788.71	215.77
789.03	215.74
789.35	215.72
789.67	215.70
789.99	215.50
790.32	215.48
790.64	215.45
790.96	215.57
791.28	215.43
791.61	215.38
791.93	215.35
792.25	215.32
792.57	215.34
792.89	215.16
793.21	215.11
793.54	215.11
793.86	215.06
794.18	215.06
794.50	214.92
794.82	214.85
795.14	214.87
795.47	214.87
795.79	214.80
796.11	214.72
796.43	214.62
796.75	214.66
797.07	214.63
797.39	214.63
797.71	214.51
798.04	214.50
798.36	214.52
798.68	214.46
799.00	214.39
799.32	214.26
799.64	214.33
799.96	214.32
800.28	214.30
800.60	214.25
800.92	214.18
801.24	214.16
801.56	214.07
801.89	214.00
802.21	213.94
802.53	213.86
802.85	213.85
803.17	213.96
803.49	213.95
803.81	213.92
804.13	213.85
804.45	213.73
804.77	213.75
805.09	213.70
805.41	213.66
805.73	213.70
806.05	213.62
806.37	213.58
806.69	213.60
807.01	213.60
807.33	213.61
807.65	213.58
807.97	213.61
808.28	213.64
808.60	213.64
808.92	213.65
809.24	213.68
809.56	213.65
809.88	213.48
810.20	213.43
810.52	213.51
810.84	213.53
811.16	213.52
811.48	213.49
811.80	213.48
812.12	213.51
812.43	213.46
812.75	213.50
813.07	213.45
813.39	213.38
813.71	213.27
814.03	213.28
814.35	213.23
814.67	213.19
814.98	213.15
815.30	213.11
815.62	213.03
815.94	212.97
816.26	213.02
816.58	213.03
816.89	213.00
817.21	212.93
817.53	212.85
817.85	212.81
818.17	212.80
818.48	212.77
818.80	212.78
819.12	212.70
819.44	212.65
819.76	212.57
820.07	212.55
820.39	212.58
820.71	212.57
821.03	212.58
821.34	212.58
821.66	212.56
821.98	212.59
822.30	212.64
822.61	212.70
822.93	212.63
823.25	212.64
823.57	212.65
823.88	212.60
824.20	212.60
824.52	212.66
824.83	212.62
825.15	212.64
825.47	212.67
825.79	212.68
826.10	212.70
826.42	212.71
826.74	212.72
827.05	212.72
827.37	212.68
827.69	212.56
828.00	212.55
828.32	212.54
828.64	212.51
828.95	212.51
829.27	212.44
829.58	212.41
829.90	212.41
830.22	212.36
830.53	212.40
830.85	212.44
831.17	212.36
831.48	212.32
831.80	212.30
832.11	212.21
832.43	212.20
832.75	212.17
833.06	212.25
833.38	212.18
833.69	212.12
834.01	212.10
834.32	212.22
834.64	212.19
834.96	212.20
835.27	212.16
835.59	212.12
835.90	212.10
836.22	212.08
836.53	212.02
836.85	212.00
837.16	212.09
837.48	212.09
837.79	212.11
838.11	212.13
838.42	212.08
838.74	212.08
839.05	212.03
839.37	212.02
839.68	211.96
840.00	211.95
840.31	211.96
840.63	211.94
840.94	211.88
841.26	211.80
841.57	211.74
841.88	211.75
842.20	211.68
842.51	211.64
842.83	211.65
843.14	211.85
843.46	211.82
843.77	211.72
844.08	211.64
844.40	211.56
844.71	211.57
845.03	211.51
845.34	211.50
845.65	211.57
845.97	211.62
846.28	211.64
846.60	211.62
846.91	211.58
847.22	211.58
847.54	211.58
847.85	211.66
848.16	211.64
848.48	211.62
848.79	211.68
849.10	211.76
849.42	211.75
849.73	211.57
850.04	211.65
850.36	211.56
850.67	211.59
850.98	211.68
851.30	211.66
851.61	211.72
851.92	211.72
852.23	211.77
852.55	211.76
852.86	211.75
853.17	211.83
853.49	211.86
853.80	211.86
854.11	211.90
854.42	211.93
854.74	212.02
855.05	212.00
855.36	211.97
855.67	211.83
855.99	211.79
856.30	211.94
856.61	211.88
856.92	211.89
857.23	211.96
857.55	211.90
857.86	211.92
858.17	211.94
858.48	211.88
858.79	211.79
859.11	211.74
859.42	211.78
859.73	211.73
860.04	211.78
860.35	211.75
860.66	211.78
860.98	211.77
861.29	211.70
861.60	211.74
861.91	211.79
862.22	211.86
862.53	211.89
862.84	211.73
863.16	211.78
863.47	211.84
863.78	211.83
864.09	211.82
864.40	211.80
864.71	211.83
865.02	211.85
865.33	211.89
865.64	211.89
865.95	211.78
866.27	211.88
866.58	211.84
866.89	211.87
867.20	211.83
867.51	211.75
867.82	211.78
868.13	211.78
868.44	211.70
868.75	211.73
869.06	211.76
869.37	211.75
869.68	211.70
869.99	211.69
870.30	211.64
870.61	211.68
870.92	211.71
871.23	211.59
871.54	211.74
871.85	211.67
872.16	211.70
872.47	211.78
872.78	211.67
873.09	211.69
873.40	211.65
873.71	211.63
874.02	211.66
874.33	211.54
874.64	211.46
874.95	211.51
875.26	211.49
875.56	211.42
875.87	211.39
876.18	211.38
876.49	211.53
876.80	211.55
877.11	211.46
877.42	211.41
877.73	211.42
878.04	211.24
878.35	211.28
878.66	211.22
878.96	211.17
879.27	211.15
879.58	211.13
879.89	211.12
880.20	211.12
880.51	211.10
880.82	211.12
881.12	211.19
881.43	211.19
881.74	211.10
882.05	211.09
882.36	211.09
882.67	211.11
882.97	210.84
883.28	210.81
883.59	210.80
883.90	210.81
884.21	210.85
884.51	210.81
884.82	210.78
885.13	210.77
885.44	210.74
885.74	210.73
886.05	210.74
886.36	210.71
886.67	210.65
886.98	210.73
887.28	210.77
887.59	210.72
887.90	210.67
888.20	210.70
888.51	210.78
888.82	210.76
889.13	210.78
889.43	211.01
889.74	210.91
890.05	210.91
890.35	210.93
890.66	210.88
890.97	210.90
891.28	210.89
891.58	210.86
891.89	210.90
892.20	210.89
892.50	210.92
892.81	210.99
893.12	210.98
893.42	210.89
893.73	210.90
894.04	210.95
894.34	210.99
894.65	210.95
894.95	210.85
895.26	210.88
895.57	210.93
895.87	210.74
896.18	210.83
896.48	210.84
896.79	210.85
897.10	210.91
897.40	210.97
897.71	210.95
898.01	210.99
898.32	211.07
898.63	211.05
898.93	211.01
899.24	211.00
899.54	211.06
899.85	211.11
900.15	211.09
900.46	211.10
900.76	211.11
901.07	211.11
901.38	211.20
901.68	211.23
901.99	211.14
902.29	211.14
902.60	211.10
902.90	211.05
903.21	211.03
903.51	211.01
903.82	211.08
904.12	211.18
904.43	211.22
904.73	211.12
905.03	211.15
905.34	211.29
905.64	211.24
905.95	211.22
906.25	211.15
906.56	211.12
906.86	211.05
907.17	211.02
907.47	211.11
907.77	211.08
908.08	210.97
908.38	211.01
908.69	211.02
908.99	211.03
909.30	211.09
909.60	211.02
909.90	211.04
910.21	210.93
910.51	210.81
910.81	210.75
911.12	210.84
911.42	210.84
911.73	210.67
912.03	210.67
912.33	210.70
912.64	210.74
912.94	210.71
913.24	210.69
913.55	210.65
913.85	210.58
914.15	210.59
914.46	210.64
914.76	210.60
915.06	210.62
915.37	210.62
915.67	210.63
915.97	210.65
916.27	210.56
916.58	210.60
916.88	210.64
917.18	210.64
917.49	210.70
917.79	210.67
918.09	210.69
918.39	210.70
918.70	210.70
919.00	210.66
919.30	210.82
919.60	210.83
919.91	210.82
920.21	210.83
920.51	210.78
920.81	210.77
921.12	210.81
921.42	210.83
921.72	210.83
922.02	210.80
922.32	210.84
922.63	210.88
922.93	210.99
923.23	210.99
923.53	210.94
923.83	210.88
924.13	210.86
924.44	210.90
924.74	211.01
925.04	211.05
925.34	211.12
925.64	211.07
925.94	211.11
926.24	211.20
926.55	211.26
926.85	211.32
927.15	211.35
927.45	211.30
927.75	211.26
928.05	211.28
928.35	211.26
928.65	211.32
928.95	211.32
929.26	211.20
929.56	211.33
929.86	211.39
930.16	211.35
930.46	211.40
930.76	211.37
931.06	211.22
931.36	211.18
931.66	211.07
931.96	211.07
932.26	211.01
932.56	210.96
932.86	210.90
933.16	210.92
933.46	210.91
933.76	210.90
934.06	210.98
934.36	211.07
934.66	211.10
934.96	211.08
935.26	211.06
935.56	211.06
935.86	210.93
936.16	210.89
936.46	210.84
936.76	210.83
937.06	210.84
937.36	210.82
937.66	210.82
937.96	210.91
938.26	210.85
938.56	210.84
938.86	210.83
939.16	210.94
939.46	210.93
939.76	210.94
940.06	210.99
940.35	210.91
940.65	210.81
940.95	210.89
941.25	210.82
941.55	210.87
941.85	210.98
942.15	211.05
942.45	211.14
942.75	211.16
943.04	211.14
943.34	211.16
943.64	211.23
943.94	211.16
944.24	211.15
944.54	211.18
944.84	211.18
945.13	211.21
945.43	211.10
945.73	211.11
946.03	211.12
946.33	211.08
946.62	211.04
946.92	211.01
947.22	210.94
947.52	210.94
947.82	211.01
948.11	210.91
948.41	210.91
948.71	210.80
949.01	210.81
949.31	210.82
949.60	210.79
949.90	210.74
950.20	210.74
950.50	210.71
950.79	210.73
951.09	210.71
951.39	210.63
951.69	210.62
951.98	210.60
952.28	210.65
952.58	210.64
952.87	210.68
953.17	210.71
953.47	210.71
953.76	210.79
954.06	210.71
954.36	210.70
954.66	210.63
954.95	210.72
955.25	210.69
955.55	210.65
955.84	210.67
956.14	210.72
956.44	210.70
956.73	210.72
957.03	210.68
957.32	210.76
957.62	210.78
957.92	210.88
958.21	210.83
958.51	211.00
958.81	211.05
959.10	211.06
959.40	211.12
959.69	211.13
959.99	211.09
960.29	211.10
960.58	211.12
960.88	211.22
961.17	211.15
961.47	211.19
961.76	211.31
962.06	211.42
962.36	211.47
962.65	211.49
962.95	211.49
963.24	211.45
963.54	211.40
963.83	211.45
964.13	211.41
964.42	211.34
964.72	211.15
965.01	211.12
965.31	211.07
965.60	210.99
965.90	211.11
966.19	211.03
966.49	210.98
966.78	210.96
967.08	210.87
967.37	210.91
967.67	210.86
967.96	210.80
968.26	210.65
968.55	210.66
968.85	210.68
969.14	210.67
969.43	210.71
969.73	210.77
970.02	210.77
970.32	210.70
970.61	210.79
970.91	210.69
971.20	210.65
971.49	210.64
971.79	210.70
972.08	210.50
972.38	210.52
972.67	210.55
972.96	210.59
973.26	210.60
973.55	210.62
973.85	210.63
974.14	210.60
974.43	210.66
974.73	210.60
975.02	210.64
975.31	210.60
975.61	210.60
975.90	210.54
976.19	210.55
976.49	210.59
976.78	210.59
977.07	210.65
977.37	210.65
977.66	210.65
977.95	210.56
978.24	210.61
978.54	210.71
978.83	210.68
979.12	210.69
979.42	210.66
979.71	210.63
980.00	210.66
980.29	210.69
980.59	210.55
980.88	210.56
981.17	210.52
981.46	210.56
981.76	210.55
982.05	210.58
982.34	210.49
982.63	210.50
982.93	210.54
983.22	210.62
983.51	210.64
983.80	210.69
984.09	210.74
984.39	210.68
984.68	210.70
984.97	210.68
985.26	210.64
985.55	210.67
985.85	210.66
986.14	210.67
986.43	210.73
986.72	210.81
987.01	210.76
987.30	210.80
987.59	210.78
987.89	210.80
988.18	210.77
988.47	210.77
988.76	210.78
989.05	210.76
989.34	210.70
989.63	210.78
989.92	210.77
990.22	210.75
990.51	210.84
990.80	210.80
991.09	210.84
991.38	210.92
991.67	210.87
991.96	210.86
992.25	210.89
992.54	210.83
992.83	210.80
993.12	210.82
993.41	210.82
993.70	210.90
993.99	210.95
994.28	210.99
994.58	211.13
994.87	211.12
995.16	211.03
995.45	211.03
995.74	210.89
996.03	210.95
996.32	211.00
996.61	211.01
996.90	210.96
997.19	210.87
997.48	210.80
997.77	210.83
998.06	210.87
998.34	210.79
998.63	210.78
998.92	210.85
999.21	210.89
999.50	210.93
999.79	210.83
1000.08	210.78
1000.37	210.76
1000.66	210.68
1000.95	210.64
1001.24	210.71
1001.53	210.71
1001.82	210.80
1002.11	210.70
1002.40	210.63
1002.68	210.64
1002.97	210.77
1003.26	210.81
1003.55	210.83
1003.84	210.83
1004.13	210.80
1004.42	210.80
1004.71	210.80
1004.99	210.77
1005.28	210.76
1005.57	210.73
1005.86	210.73
1006.15	210.72
1006.44	210.72
1006.72	210.71
1007.01	210.76
1007.30	210.78
1007.59	210.77
1007.88	210.75
1008.17	210.75
1008.45	210.70
1008.74	210.69
1009.03	210.62
1009.32	210.63
1009.60	210.59
1009.89	210.68
1010.18	210.71
1010.47	210.73
1010.76	210.75
1011.04	210.68
1011.33	210.69
1011.62	210.74
1011.91	210.83
1012.19	210.83
1012.48	210.80
1012.77	210.80
1013.05	210.86
1013.34	210.83
1013.63	210.80
1013.92	210.79
1014.20	210.80
1014.49	210.87
1014.78	210.88
1015.06	210.79
1015.35	210.79
1015.64	210.83
1015.92	210.76
1016.21	210.77
1016.50	210.72
1016.78	210.75
1017.07	210.83
1017.36	210.80
1017.64	210.72
1017.93	210.69
1018.22	210.69
1018.50	210.71
1018.79	210.71
1019.08	210.64
1019.36	210.68
1019.65	210.73
1019.93	210.74
1020.22	210.77
1020.51	210.82
1020.79	210.74
1021.08	210.15
1021.36	210.60
1021.65	210.90
1021.94	210.65
1022.22	211.45
1022.51	211.25
1022.79	210.70
1023.08	210.95
1023.36	211.80
1023.65	209.40
>>>>>End Processed Spectral Data<<<<<
