SpectraSuite Data File
++++++++++++++++++++++++++++++++++++
Date: Mon Feb 25 17:33:24 EST 2013
User: group
Dark Spectrum Present: No
Reference Spectrum Present: No
Number of Sampled Component Spectra: 1
Spectrometers: USB2E7196
Integration Time (usec): 52000 (USB2E7196)
Spectra Averaged: 20 (USB2E7196)
Boxcar Smoothing: 10 (USB2E7196)
Correct for Electrical Dark: No (USB2E7196)
Strobe/Lamp Enabled: No (USB2E7196)
Correct for Detector Non-linearity: No (USB2E7196)
Correct for Stray Light: No (USB2E7196)
Number of Pixels in Processed Spectrum: 2048
>>>>>Begin Processed Spectral Data<<<<<
339.09	0.00
339.48	197.80
339.86	200.80
340.24	200.95
340.63	203.40
341.01	207.40
341.39	204.80
341.78	207.15
342.16	208.30
342.54	208.85
342.93	197.90
343.31	207.90
343.69	208.45
344.07	208.93
344.46	209.39
344.84	209.80
345.22	209.99
345.60	210.31
345.99	210.57
346.37	210.69
346.75	210.79
347.13	210.92
347.52	211.08
347.90	211.11
348.28	211.23
348.66	211.27
349.05	211.23
349.43	211.33
349.81	211.38
350.19	211.37
350.57	211.55
350.96	211.65
351.34	211.73
351.72	211.92
352.10	212.06
352.48	212.13
352.87	212.11
353.25	212.19
353.63	212.22
354.01	212.27
354.39	212.43
354.77	212.54
355.15	212.64
355.54	212.61
355.92	212.69
356.30	212.68
356.68	212.97
357.06	213.08
357.44	213.17
357.82	213.31
358.20	213.42
358.58	213.42
358.97	213.56
359.35	213.70
359.73	213.72
360.11	213.73
360.49	213.82
360.87	213.94
361.25	213.96
361.63	214.14
362.01	214.18
362.39	214.23
362.77	214.31
363.15	214.35
363.53	214.43
363.91	214.48
364.29	214.58
364.67	214.44
365.05	214.51
365.43	214.53
365.81	214.56
366.19	214.71
366.57	214.78
366.95	214.68
367.33	214.63
367.71	214.70
368.09	214.74
368.47	214.62
368.85	214.65
369.23	214.73
369.61	214.59
369.99	214.65
370.37	214.66
370.75	214.72
371.13	214.63
371.51	214.56
371.89	214.51
372.27	214.37
372.65	214.33
373.03	214.24
373.41	214.16
373.78	214.04
374.16	213.88
374.54	213.89
374.92	213.85
375.30	213.84
375.68	213.76
376.06	213.73
376.44	213.78
376.82	213.68
377.19	213.56
377.57	213.58
377.95	213.42
378.33	213.31
378.71	213.16
379.09	213.10
379.47	213.11
379.84	213.07
380.22	213.03
380.60	212.99
380.98	212.95
381.36	212.92
381.73	212.95
382.11	212.93
382.49	212.80
382.87	212.78
383.25	212.71
383.62	212.86
384.00	212.72
384.38	212.68
384.76	212.66
385.13	212.75
385.51	212.60
385.89	212.50
386.27	212.43
386.64	212.39
387.02	212.33
387.40	212.27
387.78	212.25
388.15	212.21
388.53	212.08
388.91	212.04
389.29	211.97
389.66	211.88
390.04	211.79
390.42	211.81
390.79	211.76
391.17	211.74
391.55	211.46
391.92	211.48
392.30	211.49
392.68	211.51
393.05	211.50
393.43	211.57
393.81	211.68
394.18	211.70
394.56	211.70
394.94	211.77
395.31	211.72
395.69	211.73
396.06	211.78
396.44	211.85
396.82	211.88
397.19	212.04
397.57	212.02
397.95	212.10
398.32	212.06
398.70	212.12
399.07	212.21
399.45	212.29
399.82	212.26
400.20	212.26
400.58	212.24
400.95	212.17
401.33	212.20
401.70	212.32
402.08	212.32
402.45	212.37
402.83	212.48
403.20	212.57
403.58	212.60
403.95	212.76
404.33	212.85
404.71	212.98
405.08	213.15
405.46	213.31
405.83	213.46
406.21	213.57
406.58	213.69
406.96	213.89
407.33	214.04
407.70	214.22
408.08	214.59
408.45	214.86
408.83	215.08
409.20	215.34
409.58	215.46
409.95	215.81
410.33	216.09
410.70	216.39
411.08	216.70
411.45	217.12
411.82	217.42
412.20	217.83
412.57	218.36
412.95	218.66
413.32	219.20
413.69	219.67
414.07	220.27
414.44	220.92
414.82	221.46
415.19	222.23
415.56	223.13
415.94	223.80
416.31	224.63
416.68	225.48
417.06	226.43
417.43	227.35
417.81	228.41
418.18	229.57
418.55	230.67
418.93	232.01
419.30	233.27
419.67	234.70
420.04	236.15
420.42	237.59
420.79	239.46
421.16	241.10
421.54	242.91
421.91	244.68
422.28	246.59
422.66	248.69
423.03	250.76
423.40	252.74
423.77	254.96
424.15	257.20
424.52	259.56
424.89	262.11
425.26	264.72
425.64	267.09
426.01	269.65
426.38	272.45
426.75	275.22
427.13	278.15
427.50	281.15
427.87	284.20
428.24	287.18
428.61	290.04
428.99	293.36
429.36	296.86
429.73	300.32
430.10	303.75
430.47	307.23
430.85	310.82
431.22	314.71
431.59	318.89
431.96	322.85
432.33	327.31
432.70	331.51
433.08	336.36
433.45	340.93
433.82	345.57
434.19	350.60
434.56	355.57
434.93	360.31
435.30	365.11
435.68	370.39
436.05	375.59
436.42	380.76
436.79	385.47
437.16	390.54
437.53	395.98
437.90	401.33
438.27	406.60
438.64	411.89
439.01	416.82
439.38	421.24
439.75	425.45
440.13	430.14
440.50	434.83
440.87	438.46
441.24	442.36
441.61	446.54
441.98	449.57
442.35	453.10
442.72	456.73
443.09	460.13
443.46	462.25
443.83	463.69
444.20	464.75
444.57	466.65
444.94	467.33
445.31	468.05
445.68	468.77
446.05	468.93
446.42	468.41
446.79	467.65
447.16	466.87
447.53	466.33
447.90	464.17
448.27	462.00
448.64	459.20
449.01	457.11
449.37	453.42
449.74	450.10
450.11	446.07
450.48	441.50
450.85	436.90
451.22	432.96
451.59	429.21
451.96	425.73
452.33	420.77
452.70	416.44
453.07	411.30
453.43	406.08
453.80	401.09
454.17	396.20
454.54	391.60
454.91	386.60
455.28	381.80
455.65	377.44
456.02	373.14
456.38	369.50
456.75	364.77
457.12	360.99
457.49	357.11
457.86	353.28
458.23	350.11
458.59	346.64
458.96	343.11
459.33	339.93
459.70	336.79
460.07	334.37
460.43	331.61
460.80	328.94
461.17	326.51
461.54	324.09
461.91	321.75
462.27	319.47
462.64	317.47
463.01	315.25
463.38	313.21
463.74	310.90
464.11	308.90
464.48	307.31
464.85	305.49
465.21	304.09
465.58	302.68
465.95	300.93
466.32	299.57
466.68	298.13
467.05	296.69
467.42	295.25
467.78	293.66
468.15	292.30
468.52	291.33
468.88	290.02
469.25	288.87
469.62	288.05
469.98	287.05
470.35	286.15
470.72	285.30
471.08	284.40
471.45	283.58
471.82	282.79
472.18	281.90
472.55	281.27
472.92	280.63
473.28	280.00
473.65	279.49
474.02	278.90
474.38	278.45
474.75	278.16
475.11	277.76
475.48	277.63
475.85	277.35
476.21	277.06
476.58	276.95
476.94	276.85
477.31	276.69
477.67	276.63
478.04	276.54
478.41	276.72
478.77	277.01
479.14	277.19
479.50	277.43
479.87	277.83
480.23	278.25
480.60	278.60
480.96	279.09
481.33	279.61
481.69	280.22
482.06	280.80
482.42	281.53
482.79	282.30
483.15	283.09
483.52	284.08
483.88	285.09
484.25	286.11
484.61	287.19
484.98	288.38
485.34	289.72
485.71	291.17
486.07	292.57
486.44	293.82
486.80	295.39
487.17	296.97
487.53	298.66
487.90	300.53
488.26	302.45
488.62	304.40
488.99	306.45
489.35	308.54
489.72	310.85
490.08	313.22
490.44	315.71
490.81	318.41
491.17	321.02
491.54	323.95
491.90	326.85
492.26	330.08
492.63	333.32
492.99	336.83
493.36	340.45
493.72	344.29
494.08	348.36
494.45	352.62
494.81	357.09
495.17	361.67
495.54	366.59
495.90	371.61
496.26	376.86
496.63	382.38
496.99	388.18
497.35	394.30
497.72	400.67
498.08	407.22
498.44	413.84
498.80	421.14
499.17	428.53
499.53	436.27
499.89	444.14
500.26	452.28
500.62	460.54
500.98	469.42
501.34	478.47
501.71	487.92
502.07	497.50
502.43	507.50
502.79	517.80
503.16	528.22
503.52	539.05
503.88	550.32
504.24	561.91
504.60	573.76
504.97	586.01
505.33	598.44
505.69	611.74
506.05	625.25
506.41	638.69
506.78	652.44
507.14	666.46
507.50	681.10
507.86	696.18
508.22	711.40
508.59	726.85
508.95	743.01
509.31	759.12
509.67	775.92
510.03	792.87
510.39	810.49
510.75	828.30
511.12	846.49
511.48	864.78
511.84	883.42
512.20	902.10
512.56	921.33
512.92	940.96
513.28	960.46
513.64	980.35
514.00	1000.13
514.37	1020.57
514.73	1041.40
515.09	1062.37
515.45	1083.08
515.81	1104.38
516.17	1125.64
516.53	1146.85
516.89	1168.64
517.25	1190.03
517.61	1211.65
517.97	1233.05
518.33	1254.80
518.69	1276.63
519.05	1298.82
519.41	1321.13
519.77	1343.79
520.13	1365.93
520.49	1387.94
520.85	1410.27
521.21	1432.74
521.57	1455.81
521.93	1477.90
522.29	1501.04
522.65	1523.51
523.01	1545.84
523.37	1568.15
523.73	1590.96
524.09	1613.31
524.45	1635.58
524.81	1658.36
525.17	1680.90
525.53	1703.35
525.89	1725.72
526.25	1747.68
526.61	1768.97
526.97	1790.54
527.33	1811.75
527.68	1833.36
528.04	1854.52
528.40	1875.20
528.76	1895.69
529.12	1916.71
529.48	1938.82
529.84	1958.85
530.20	1979.24
530.56	1999.86
530.91	2020.80
531.27	2040.82
531.63	2060.91
531.99	2080.69
532.35	2099.68
532.71	2118.88
533.07	2138.65
533.42	2157.16
533.78	2176.23
534.14	2194.87
534.50	2212.40
534.86	2230.39
535.21	2247.00
535.57	2264.80
535.93	2282.18
536.29	2299.40
536.65	2316.04
537.00	2330.77
537.36	2346.22
537.72	2361.46
538.08	2376.94
538.44	2391.95
538.79	2407.37
539.15	2422.60
539.51	2437.21
539.87	2452.52
540.22	2467.14
540.58	2481.75
540.94	2496.38
541.29	2509.12
541.65	2521.17
542.01	2534.23
542.37	2546.43
542.72	2559.23
543.08	2570.41
543.44	2582.34
543.79	2592.60
544.15	2602.78
544.51	2614.20
544.87	2625.39
545.22	2634.94
545.58	2643.21
545.94	2650.76
546.29	2657.55
546.65	2663.59
547.01	2669.89
547.36	2675.83
547.72	2681.22
548.07	2685.32
548.43	2689.07
548.79	2693.00
549.14	2698.08
549.50	2702.72
549.86	2706.60
550.21	2710.32
550.57	2714.57
550.92	2717.10
551.28	2719.89
551.64	2722.46
551.99	2724.51
552.35	2725.99
552.70	2728.28
553.06	2731.23
553.41	2733.90
553.77	2736.46
554.13	2738.72
554.48	2740.91
554.84	2742.01
555.19	2742.54
555.55	2743.12
555.90	2743.76
556.26	2744.44
556.61	2744.42
556.97	2742.71
557.32	2742.57
557.68	2740.81
558.03	2738.92
558.39	2737.60
558.74	2736.98
559.10	2735.82
559.45	2734.21
559.81	2732.98
560.16	2730.60
560.52	2727.80
560.87	2724.79
561.23	2721.12
561.58	2718.52
561.94	2715.23
562.29	2711.84
562.64	2709.65
563.00	2707.52
563.35	2705.40
563.71	2703.77
564.06	2701.79
564.42	2700.22
564.77	2697.39
565.12	2695.53
565.48	2692.60
565.83	2689.32
566.19	2686.30
566.54	2682.32
566.89	2678.41
567.25	2674.79
567.60	2671.67
567.96	2668.54
568.31	2665.34
568.66	2661.57
569.02	2656.93
569.37	2651.83
569.72	2647.75
570.08	2642.56
570.43	2636.63
570.78	2630.69
571.14	2624.31
571.49	2617.19
571.84	2611.50
572.20	2604.90
572.55	2598.58
572.90	2591.85
573.26	2585.04
573.61	2577.41
573.96	2570.74
574.31	2563.15
574.67	2554.82
575.02	2546.23
575.37	2537.34
575.72	2528.33
576.08	2520.84
576.43	2512.49
576.78	2504.78
577.13	2496.73
577.49	2488.35
577.84	2480.48
578.19	2472.76
578.54	2465.13
578.90	2458.34
579.25	2448.98
579.60	2439.84
579.95	2430.46
580.30	2422.29
580.66	2414.32
581.01	2405.51
581.36	2396.21
581.71	2387.83
582.06	2379.25
582.42	2370.98
582.77	2361.84
583.12	2352.76
583.47	2343.98
583.82	2335.53
584.17	2326.04
584.53	2317.04
584.88	2308.35
585.23	2299.32
585.58	2289.85
585.93	2280.09
586.28	2270.79
586.63	2262.40
586.98	2254.02
587.34	2245.63
587.69	2236.60
588.04	2227.23
588.39	2218.97
588.74	2209.85
589.09	2201.03
589.44	2191.66
589.79	2183.08
590.14	2175.45
590.49	2167.26
590.84	2157.89
591.19	2149.86
591.54	2141.49
591.89	2131.39
592.25	2121.96
592.60	2112.40
592.95	2103.30
593.30	2093.84
593.65	2084.06
594.00	2074.07
594.35	2065.71
594.70	2056.30
595.05	2047.56
595.40	2038.78
595.75	2029.24
596.10	2020.81
596.45	2012.29
596.80	2004.67
597.15	1996.28
597.50	1987.05
597.85	1978.53
598.19	1970.09
598.54	1961.23
598.89	1953.17
599.24	1946.51
599.59	1939.23
599.94	1932.09
600.29	1924.08
600.64	1916.26
600.99	1907.82
601.34	1900.84
601.69	1891.73
602.04	1883.79
602.39	1875.67
602.74	1867.81
603.08	1860.95
603.43	1853.64
603.78	1845.36
604.13	1837.01
604.48	1829.07
604.83	1822.40
605.18	1815.47
605.53	1807.87
605.87	1800.28
606.22	1793.12
606.57	1785.07
606.92	1776.55
607.27	1768.47
607.62	1761.18
607.96	1754.25
608.31	1748.40
608.66	1740.30
609.01	1733.04
609.36	1725.28
609.70	1717.20
610.05	1709.39
610.40	1701.13
610.75	1692.78
611.10	1685.24
611.44	1676.31
611.79	1667.06
612.14	1657.52
612.49	1647.62
612.83	1638.86
613.18	1629.11
613.53	1619.47
613.88	1609.64
614.22	1601.09
614.57	1591.95
614.92	1582.62
615.27	1573.37
615.61	1563.19
615.96	1554.30
616.31	1545.82
616.65	1537.85
617.00	1529.58
617.35	1520.93
617.70	1512.14
618.04	1503.03
618.39	1493.77
618.74	1485.45
619.08	1476.82
619.43	1468.61
619.78	1460.94
620.12	1452.73
620.47	1445.14
620.82	1436.69
621.16	1428.57
621.51	1420.16
621.85	1411.75
622.20	1402.99
622.55	1394.48
622.89	1386.11
623.24	1378.03
623.59	1369.18
623.93	1360.60
624.28	1352.30
624.62	1344.06
624.97	1335.80
625.32	1328.05
625.66	1320.73
626.01	1313.16
626.35	1306.07
626.70	1298.16
627.04	1290.65
627.39	1283.08
627.73	1275.56
628.08	1268.83
628.43	1261.25
628.77	1253.70
629.12	1245.95
629.46	1239.49
629.81	1232.49
630.15	1225.33
630.50	1217.84
630.84	1210.82
631.19	1203.55
631.53	1196.54
631.88	1188.99
632.22	1181.34
632.57	1174.50
632.91	1166.89
633.26	1159.55
633.60	1152.42
633.95	1145.70
634.29	1138.36
634.64	1131.61
634.98	1124.25
635.32	1117.08
635.67	1110.85
636.01	1104.38
636.36	1098.17
636.70	1091.48
637.05	1084.68
637.39	1078.27
637.73	1072.07
638.08	1066.14
638.42	1060.15
638.77	1053.60
639.11	1047.43
639.45	1041.50
639.80	1034.74
640.14	1028.40
640.49	1022.02
640.83	1015.61
641.17	1009.23
641.52	1003.01
641.86	996.45
642.20	990.35
642.55	983.30
642.89	976.81
643.23	970.42
643.58	964.24
643.92	957.46
644.26	951.11
644.61	944.97
644.95	938.84
645.29	932.54
645.64	926.21
645.98	920.22
646.32	914.20
646.66	907.90
647.01	902.06
647.35	896.21
647.69	890.14
648.04	884.02
648.38	878.04
648.72	871.97
649.06	866.04
649.41	860.14
649.75	854.66
650.09	848.71
650.43	842.80
650.78	836.56
651.12	830.77
651.46	825.05
651.80	819.20
652.14	813.39
652.49	807.45
652.83	801.42
653.17	795.25
653.51	789.29
653.85	783.71
654.20	777.84
654.54	772.03
654.88	766.44
655.22	760.78
655.56	754.88
655.90	749.07
656.25	743.24
656.59	737.53
656.93	732.21
657.27	727.09
657.61	721.62
657.95	716.54
658.29	711.23
658.64	706.19
658.98	700.84
659.32	695.28
659.66	690.13
660.00	684.86
660.34	679.68
660.68	674.73
661.02	669.68
661.36	665.00
661.70	659.91
662.05	655.14
662.39	650.59
662.73	646.15
663.07	641.83
663.41	637.40
663.75	632.98
664.09	628.28
664.43	623.31
664.77	618.91
665.11	614.31
665.45	609.95
665.79	605.37
666.13	601.02
666.47	596.90
666.81	592.72
667.15	588.71
667.49	584.90
667.83	580.92
668.17	577.10
668.51	573.18
668.85	569.67
669.19	566.02
669.53	562.18
669.87	558.19
670.21	554.34
670.55	550.58
670.89	547.02
671.23	543.69
671.57	540.39
671.91	536.81
672.25	533.36
672.58	529.91
672.92	526.46
673.26	523.30
673.60	520.07
673.94	516.62
674.28	513.22
674.62	510.02
674.96	506.70
675.30	503.52
675.64	500.32
675.97	497.05
676.31	494.02
676.65	491.18
676.99	488.46
677.33	485.49
677.67	482.60
678.01	479.54
678.34	476.51
678.68	473.54
679.02	470.56
679.36	467.90
679.70	465.18
680.04	462.31
680.37	459.36
680.71	456.59
681.05	454.05
681.39	451.32
681.73	448.50
682.06	445.99
682.40	443.43
682.74	440.85
683.08	438.32
683.42	435.65
683.75	432.98
684.09	430.31
684.43	427.78
684.77	425.15
685.10	422.65
685.44	420.19
685.78	417.80
686.12	415.55
686.45	413.09
686.79	410.63
687.13	408.57
687.46	406.40
687.80	404.19
688.14	401.80
688.48	399.70
688.81	397.60
689.15	395.36
689.49	393.07
689.82	390.78
690.16	388.46
690.50	386.02
690.83	383.80
691.17	381.66
691.51	379.47
691.84	377.35
692.18	375.32
692.52	373.33
692.85	371.36
693.19	369.54
693.52	367.60
693.86	365.66
694.20	363.62
694.53	361.72
694.87	359.76
695.21	357.87
695.54	355.96
695.88	354.08
696.21	352.24
696.55	350.46
696.88	348.70
697.22	346.87
697.56	345.38
697.89	343.68
698.23	342.07
698.56	340.56
698.90	339.07
699.23	337.42
699.57	335.87
699.90	334.24
700.24	332.55
700.58	330.87
700.91	329.48
701.25	328.12
701.58	326.67
701.92	325.20
702.25	323.79
702.59	322.40
702.92	321.05
703.26	319.71
703.59	318.47
703.93	317.39
704.26	316.22
704.60	314.91
704.93	313.68
705.26	312.45
705.60	311.23
705.93	310.01
706.27	308.92
706.60	307.72
706.94	306.65
707.27	305.46
707.61	304.36
707.94	303.18
708.27	301.90
708.61	300.77
708.94	299.66
709.28	298.59
709.61	297.52
709.94	296.45
710.28	295.38
710.61	294.32
710.95	293.09
711.28	292.10
711.61	291.11
711.95	290.24
712.28	289.22
712.61	288.17
712.95	287.20
713.28	286.30
713.61	285.30
713.95	284.34
714.28	283.43
714.61	282.46
714.95	281.46
715.28	280.51
715.61	279.55
715.95	278.64
716.28	277.77
716.61	276.90
716.95	275.92
717.28	275.09
717.61	274.25
717.94	273.46
718.28	272.62
718.61	271.86
718.94	271.07
719.27	270.28
719.61	269.63
719.94	268.95
720.27	268.10
720.60	267.43
720.94	266.72
721.27	266.09
721.60	265.45
721.93	264.86
722.27	264.38
722.60	263.78
722.93	263.22
723.26	262.67
723.59	262.07
723.93	261.58
724.26	261.03
724.59	260.43
724.92	259.92
725.25	259.39
725.59	258.82
725.92	258.21
726.25	257.66
726.58	257.12
726.91	256.57
727.24	256.12
727.57	255.60
727.91	255.10
728.24	254.56
728.57	254.11
728.90	253.68
729.23	253.14
729.56	252.75
729.89	252.29
730.22	251.77
730.55	251.30
730.89	250.84
731.22	250.32
731.55	249.89
731.88	249.38
732.21	248.92
732.54	248.46
732.87	248.10
733.20	247.69
733.53	247.14
733.86	246.75
734.19	246.27
734.52	245.95
734.85	245.59
735.18	245.27
735.51	244.94
735.84	244.59
736.17	244.20
736.50	243.71
736.83	243.60
737.16	243.22
737.49	242.95
737.82	242.57
738.15	242.27
738.48	241.88
738.81	241.51
739.14	241.16
739.47	240.82
739.80	240.44
740.13	240.12
740.46	239.83
740.79	239.45
741.12	239.12
741.45	238.79
741.78	238.45
742.11	238.14
742.44	237.76
742.77	237.43
743.10	237.15
743.43	236.91
743.75	236.29
744.08	236.19
744.41	235.80
744.74	235.46
745.07	235.16
745.40	234.97
745.73	234.75
746.06	234.39
746.39	234.19
746.71	233.84
747.04	233.56
747.37	233.30
747.70	233.04
748.03	232.79
748.36	232.54
748.68	232.28
749.01	231.89
749.34	231.59
749.67	231.31
750.00	231.11
750.33	230.99
750.65	230.85
750.98	230.40
751.31	230.14
751.64	229.97
751.97	229.84
752.29	229.57
752.62	229.26
752.95	229.13
753.28	228.83
753.60	228.59
753.93	228.44
754.26	228.24
754.59	228.03
754.91	227.82
755.24	227.57
755.57	227.38
755.90	227.20
756.22	227.06
756.55	226.82
756.88	226.55
757.20	226.20
757.53	225.88
757.86	225.75
758.19	225.65
758.51	225.51
758.84	225.22
759.17	225.05
759.49	224.98
759.82	224.92
760.15	224.70
760.47	224.64
760.80	224.38
761.13	224.27
761.45	224.04
761.78	223.93
762.11	223.72
762.43	223.49
762.76	223.38
763.08	223.24
763.41	223.15
763.74	223.05
764.06	222.94
764.39	222.87
764.71	222.73
765.04	222.59
765.37	222.49
765.69	222.37
766.02	222.26
766.34	222.05
766.67	221.80
767.00	221.75
767.32	221.77
767.65	221.75
767.97	221.60
768.30	221.53
768.62	221.38
768.95	221.30
769.27	221.20
769.60	221.12
769.92	221.05
770.25	220.93
770.57	220.75
770.90	220.64
771.22	220.51
771.55	220.42
771.87	220.25
772.20	220.06
772.52	220.05
772.85	220.12
773.17	220.08
773.50	220.02
773.82	219.88
774.15	219.61
774.47	219.44
774.80	219.27
775.12	219.16
775.45	219.07
775.77	218.96
776.09	218.93
776.42	218.85
776.74	218.78
777.07	218.70
777.39	218.62
777.72	218.52
778.04	218.43
778.36	218.30
778.69	218.22
779.01	218.15
779.33	217.96
779.66	217.66
779.98	217.48
780.31	217.39
780.63	217.45
780.95	217.46
781.28	217.35
781.60	217.33
781.92	217.28
782.25	217.18
782.57	217.14
782.89	217.07
783.22	216.99
783.54	216.82
783.86	216.80
784.19	216.75
784.51	216.76
784.83	216.69
785.16	216.65
785.48	216.66
785.80	216.61
786.12	216.56
786.45	216.58
786.77	216.62
787.09	216.50
787.42	216.34
787.74	216.28
788.06	216.30
788.38	216.30
788.71	216.23
789.03	216.19
789.35	216.16
789.67	216.06
789.99	216.05
790.32	216.08
790.64	216.00
790.96	216.08
791.28	215.97
791.61	215.95
791.93	215.94
792.25	215.85
792.57	215.93
792.89	215.90
793.21	215.80
793.54	215.78
793.86	215.81
794.18	215.80
794.50	215.77
794.82	215.69
795.14	215.65
795.47	215.73
795.79	215.75
796.11	215.66
796.43	215.64
796.75	215.61
797.07	215.56
797.39	215.56
797.71	215.43
798.04	215.40
798.36	215.37
798.68	215.32
799.00	215.33
799.32	215.24
799.64	215.23
799.96	215.25
800.28	215.13
800.60	215.04
800.92	215.02
801.24	215.00
801.56	214.99
801.89	214.94
802.21	214.87
802.53	214.75
802.85	214.77
803.17	214.85
803.49	214.73
803.81	214.65
804.13	214.59
804.45	214.52
804.77	214.48
805.09	214.45
805.41	214.36
805.73	214.31
806.05	214.23
806.37	214.23
806.69	214.19
807.01	214.17
807.33	214.21
807.65	214.11
807.97	214.07
808.28	214.00
808.60	213.97
808.92	213.85
809.24	213.94
809.56	213.88
809.88	213.76
810.20	213.78
810.52	213.78
810.84	213.73
811.16	213.69
811.48	213.61
811.80	213.68
812.12	213.69
812.43	213.66
812.75	213.59
813.07	213.48
813.39	213.43
813.71	213.35
814.03	213.27
814.35	213.26
814.67	213.25
814.98	213.24
815.30	213.14
815.62	213.14
815.94	213.05
816.26	213.06
816.58	213.06
816.89	213.00
817.21	212.95
817.53	212.94
817.85	212.95
818.17	213.00
818.48	212.86
818.80	212.95
819.12	212.90
819.44	212.87
819.76	212.87
820.07	212.88
820.39	212.91
820.71	212.90
821.03	212.82
821.34	212.74
821.66	212.72
821.98	212.75
822.30	212.72
822.61	212.78
822.93	212.71
823.25	212.60
823.57	212.60
823.88	212.65
824.20	212.63
824.52	212.61
824.83	212.54
825.15	212.48
825.47	212.34
825.79	212.34
826.10	212.35
826.42	212.29
826.74	212.21
827.05	212.21
827.37	212.27
827.69	212.31
828.00	212.33
828.32	212.28
828.64	212.30
828.95	212.36
829.27	212.33
829.58	212.25
829.90	212.32
830.22	212.32
830.53	212.20
830.85	212.18
831.17	212.11
831.48	212.13
831.80	212.18
832.11	212.24
832.43	212.22
832.75	212.24
833.06	212.36
833.38	212.39
833.69	212.35
834.01	212.28
834.32	212.28
834.64	212.22
834.96	212.26
835.27	212.25
835.59	212.21
835.90	212.15
836.22	212.24
836.53	212.14
836.85	212.13
837.16	212.31
837.48	212.29
837.79	212.37
838.11	212.36
838.42	212.34
838.74	212.24
839.05	212.26
839.37	212.23
839.68	212.12
840.00	212.12
840.31	212.21
840.63	212.25
840.94	212.22
841.26	212.24
841.57	212.21
841.88	212.28
842.20	212.24
842.51	212.24
842.83	212.22
843.14	212.41
843.46	212.42
843.77	212.36
844.08	212.32
844.40	212.31
844.71	212.27
845.03	212.23
845.34	212.25
845.65	212.20
845.97	212.22
846.28	212.22
846.60	212.20
846.91	212.16
847.22	212.12
847.54	212.22
847.85	212.19
848.16	212.16
848.48	212.04
848.79	212.09
849.10	212.08
849.42	212.07
849.73	211.93
850.04	211.86
850.36	211.81
850.67	211.89
850.98	211.83
851.30	211.93
851.61	211.90
851.92	211.94
852.23	212.03
852.55	211.96
852.86	211.93
853.17	211.97
853.49	211.90
853.80	211.87
854.11	211.84
854.42	211.84
854.74	211.79
855.05	211.82
855.36	211.71
855.67	211.67
855.99	211.62
856.30	211.81
856.61	211.85
856.92	211.87
857.23	211.81
857.55	211.80
857.86	211.69
858.17	211.71
858.48	211.65
858.79	211.60
859.11	211.64
859.42	211.61
859.73	211.52
860.04	211.53
860.35	211.60
860.66	211.50
860.98	211.51
861.29	211.57
861.60	211.53
861.91	211.64
862.22	211.63
862.53	211.64
862.84	211.40
863.16	211.40
863.47	211.31
863.78	211.30
864.09	211.29
864.40	211.22
864.71	211.30
865.02	211.34
865.33	211.27
865.64	211.24
865.95	211.22
866.27	211.41
866.58	211.38
866.89	211.36
867.20	211.36
867.51	211.35
867.82	211.37
868.13	211.45
868.44	211.43
868.75	211.47
869.06	211.45
869.37	211.53
869.68	211.52
869.99	211.60
870.30	211.63
870.61	211.68
870.92	211.77
871.23	211.75
871.54	211.71
871.85	211.77
872.16	211.77
872.47	211.78
872.78	211.61
873.09	211.68
873.40	211.66
873.71	211.65
874.02	211.71
874.33	211.61
874.64	211.58
874.95	211.60
875.26	211.53
875.56	211.52
875.87	211.43
876.18	211.46
876.49	211.61
876.80	211.64
877.11	211.59
877.42	211.57
877.73	211.56
878.04	211.61
878.35	211.61
878.66	211.65
878.96	211.67
879.27	211.72
879.58	211.67
879.89	211.64
880.20	211.66
880.51	211.61
880.82	211.66
881.12	211.68
881.43	211.60
881.74	211.54
882.05	211.60
882.36	211.60
882.67	211.54
882.97	211.38
883.28	211.34
883.59	211.33
883.90	211.37
884.21	211.39
884.51	211.34
884.82	211.29
885.13	211.29
885.44	211.31
885.74	211.24
886.05	211.30
886.36	211.34
886.67	211.29
886.98	211.34
887.28	211.31
887.59	211.29
887.90	211.28
888.20	211.35
888.51	211.38
888.82	211.41
889.13	211.50
889.43	211.58
889.74	211.56
890.05	211.54
890.35	211.47
890.66	211.40
890.97	211.43
891.28	211.45
891.58	211.48
891.89	211.45
892.20	211.47
892.50	211.38
892.81	211.32
893.12	211.34
893.42	211.30
893.73	211.29
894.04	211.24
894.34	211.29
894.65	211.35
894.95	211.27
895.26	211.21
895.57	211.20
895.87	211.08
896.18	211.10
896.48	211.18
896.79	211.22
897.10	211.29
897.40	211.21
897.71	211.18
898.01	211.09
898.32	211.08
898.63	211.10
898.93	211.13
899.24	211.19
899.54	211.19
899.85	211.09
900.15	211.10
900.46	211.15
900.76	211.11
901.07	211.00
901.38	211.01
901.68	211.08
901.99	211.05
902.29	211.02
902.60	210.97
902.90	210.90
903.21	210.85
903.51	210.81
903.82	210.95
904.12	210.94
904.43	211.02
904.73	211.09
905.03	210.92
905.34	211.09
905.64	211.04
905.95	211.03
906.25	211.12
906.56	211.15
906.86	211.09
907.17	211.09
907.47	211.14
907.77	211.11
908.08	211.08
908.38	211.05
908.69	211.10
908.99	211.11
909.30	211.12
909.60	211.10
909.90	211.10
910.21	211.00
910.51	211.07
910.81	210.96
911.12	210.94
911.42	211.10
911.73	210.91
912.03	210.92
912.33	210.99
912.64	211.01
912.94	211.05
913.24	211.11
913.55	211.07
913.85	211.05
914.15	211.12
914.46	211.13
914.76	211.13
915.06	211.10
915.37	211.07
915.67	211.06
915.97	211.13
916.27	211.08
916.58	211.07
916.88	210.95
917.18	210.97
917.49	211.04
917.79	211.01
918.09	211.04
918.39	211.09
918.70	211.00
919.00	211.03
919.30	211.04
919.60	210.97
919.91	210.95
920.21	210.99
920.51	210.94
920.81	210.87
921.12	210.94
921.42	210.92
921.72	210.95
922.02	211.00
922.32	211.00
922.63	211.11
922.93	211.16
923.23	211.26
923.53	211.27
923.83	211.18
924.13	211.19
924.44	211.13
924.74	211.16
925.04	211.25
925.34	211.15
925.64	210.98
925.94	211.07
926.24	211.20
926.55	211.18
926.85	211.25
927.15	211.34
927.45	211.26
927.75	211.27
928.05	211.31
928.35	211.30
928.65	211.35
928.95	211.32
929.26	211.28
929.56	211.23
929.86	211.33
930.16	211.32
930.46	211.27
930.76	211.34
931.06	211.25
931.36	211.11
931.66	211.15
931.96	211.20
932.26	211.13
932.56	211.04
932.86	210.95
933.16	210.90
933.46	210.85
933.76	210.87
934.06	210.87
934.36	210.88
934.66	210.84
934.96	210.80
935.26	210.76
935.56	210.80
935.86	210.74
936.16	210.69
936.46	210.66
936.76	210.71
937.06	210.65
937.36	210.63
937.66	210.70
937.96	210.71
938.26	210.74
938.56	210.75
938.86	210.74
939.16	210.83
939.46	210.84
939.76	210.87
940.06	210.86
940.35	210.85
940.65	210.74
940.95	210.80
941.25	210.74
941.55	210.67
941.85	210.64
942.15	210.76
942.45	210.77
942.75	210.76
943.04	210.82
943.34	210.86
943.64	210.85
943.94	210.81
944.24	210.81
944.54	210.85
944.84	210.83
945.13	210.81
945.43	210.81
945.73	210.82
946.03	210.80
946.33	210.74
946.62	210.75
946.92	210.74
947.22	210.80
947.52	210.85
947.82	210.87
948.11	210.87
948.41	210.85
948.71	210.78
949.01	210.82
949.31	210.74
949.60	210.78
949.90	210.86
950.20	210.90
950.50	210.84
950.79	210.79
951.09	210.87
951.39	210.91
951.69	210.88
951.98	210.93
952.28	210.98
952.58	210.97
952.87	210.95
953.17	211.03
953.47	211.00
953.76	210.97
954.06	211.05
954.36	211.03
954.66	211.03
954.95	211.05
955.25	211.12
955.55	211.20
955.84	211.15
956.14	211.11
956.44	211.09
956.73	211.12
957.03	211.15
957.32	211.14
957.62	211.16
957.92	211.24
958.21	211.29
958.51	211.40
958.81	211.49
959.10	211.58
959.40	211.66
959.69	211.67
959.99	211.72
960.29	211.74
960.58	211.72
960.88	211.81
961.17	211.83
961.47	211.79
961.76	211.74
962.06	211.85
962.36	211.89
962.65	211.96
962.95	212.05
963.24	212.05
963.54	212.02
963.83	212.07
964.13	212.06
964.42	211.93
964.72	211.80
965.01	211.81
965.31	211.68
965.60	211.65
965.90	211.75
966.19	211.68
966.49	211.63
966.78	211.62
967.08	211.59
967.37	211.65
967.67	211.59
967.96	211.65
968.26	211.52
968.55	211.51
968.85	211.50
969.14	211.37
969.43	211.41
969.73	211.41
970.02	211.38
970.32	211.35
970.61	211.32
970.91	211.35
971.20	211.25
971.49	211.29
971.79	211.23
972.08	211.12
972.38	211.13
972.67	211.16
972.96	211.25
973.26	211.16
973.55	211.15
973.85	211.20
974.14	211.20
974.43	211.25
974.73	211.17
975.02	211.10
975.31	211.15
975.61	211.11
975.90	211.10
976.19	211.09
976.49	211.09
976.78	211.09
977.07	211.07
977.37	211.12
977.66	211.10
977.95	211.10
978.24	211.05
978.54	211.10
978.83	211.04
979.12	210.96
979.42	211.02
979.71	210.93
980.00	210.87
980.29	210.88
980.59	210.78
980.88	210.88
981.17	210.89
981.46	210.91
981.76	210.87
982.05	210.91
982.34	210.91
982.63	210.91
982.93	210.93
983.22	210.95
983.51	210.95
983.80	211.00
984.09	211.04
984.39	211.05
984.68	210.94
984.97	210.96
985.26	210.98
985.55	210.99
985.85	211.05
986.14	211.11
986.43	211.10
986.72	211.16
987.01	211.09
987.30	211.07
987.59	211.08
987.89	211.16
988.18	211.14
988.47	211.13
988.76	211.13
989.05	211.14
989.34	211.14
989.63	211.23
989.92	211.21
990.22	211.14
990.51	211.11
990.80	211.12
991.09	211.19
991.38	211.25
991.67	211.16
991.96	211.15
992.25	211.21
992.54	211.19
992.83	211.20
993.12	211.15
993.41	211.22
993.70	211.29
993.99	211.36
994.28	211.33
994.58	211.37
994.87	211.33
995.16	211.41
995.45	211.40
995.74	211.32
996.03	211.41
996.32	211.49
996.61	211.57
996.90	211.61
997.19	211.55
997.48	211.55
997.77	211.56
998.06	211.55
998.34	211.46
998.63	211.47
998.92	211.46
999.21	211.49
999.50	211.55
999.79	211.41
1000.08	211.37
1000.37	211.40
1000.66	211.38
1000.95	211.43
1001.24	211.35
1001.53	211.35
1001.82	211.38
1002.11	211.29
1002.40	211.32
1002.68	211.37
1002.97	211.54
1003.26	211.52
1003.55	211.44
1003.84	211.51
1004.13	211.62
1004.42	211.63
1004.71	211.59
1004.99	211.60
1005.28	211.74
1005.57	211.65
1005.86	211.69
1006.15	211.61
1006.44	211.63
1006.72	211.61
1007.01	211.62
1007.30	211.65
1007.59	211.66
1007.88	211.70
1008.17	211.71
1008.45	211.64
1008.74	211.51
1009.03	211.44
1009.32	211.42
1009.60	211.42
1009.89	211.30
1010.18	211.20
1010.47	211.13
1010.76	211.08
1011.04	211.06
1011.33	211.03
1011.62	211.07
1011.91	211.05
1012.19	211.07
1012.48	210.96
1012.77	210.95
1013.05	210.92
1013.34	210.91
1013.63	210.87
1013.92	210.82
1014.20	210.74
1014.49	210.72
1014.78	210.76
1015.06	210.57
1015.35	210.58
1015.64	210.57
1015.92	210.58
1016.21	210.57
1016.50	210.58
1016.78	210.64
1017.07	210.70
1017.36	210.59
1017.64	210.50
1017.93	210.52
1018.22	210.49
1018.50	210.55
1018.79	210.55
1019.08	210.52
1019.36	210.48
1019.65	210.48
1019.93	210.53
1020.22	210.56
1020.51	210.68
1020.79	210.66
1021.08	209.90
1021.36	210.85
1021.65	210.95
1021.94	210.65
1022.22	210.15
1022.51	211.05
1022.79	212.10
1023.08	210.45
1023.36	213.15
1023.65	210.35
>>>>>End Processed Spectral Data<<<<<
