SpectraSuite Data File
++++++++++++++++++++++++++++++++++++
Date: Mon Feb 25 17:30:52 EST 2013
User: group
Dark Spectrum Present: No
Reference Spectrum Present: No
Number of Sampled Component Spectra: 1
Spectrometers: USB2E7196
Integration Time (usec): 52000 (USB2E7196)
Spectra Averaged: 20 (USB2E7196)
Boxcar Smoothing: 10 (USB2E7196)
Correct for Electrical Dark: No (USB2E7196)
Strobe/Lamp Enabled: No (USB2E7196)
Correct for Detector Non-linearity: No (USB2E7196)
Correct for Stray Light: No (USB2E7196)
Number of Pixels in Processed Spectrum: 2048
>>>>>Begin Processed Spectral Data<<<<<
339.09	0.00
339.48	198.85
339.86	199.45
340.24	201.95
340.63	203.30
341.01	207.45
341.39	206.30
341.78	208.20
342.16	209.35
342.54	209.10
342.93	198.06
343.31	208.00
343.69	208.49
344.07	208.96
344.46	209.35
344.84	209.65
345.22	209.75
345.60	209.94
345.99	210.10
346.37	210.19
346.75	210.29
347.13	210.39
347.52	210.43
347.90	210.57
348.28	210.59
348.66	210.67
349.05	210.61
349.43	210.66
349.81	210.71
350.19	210.65
350.57	210.70
350.96	210.78
351.34	210.95
351.72	211.03
352.10	211.16
352.48	211.19
352.87	211.30
353.25	211.36
353.63	211.39
354.01	211.44
354.39	211.45
354.77	211.51
355.15	211.57
355.54	211.59
355.92	211.56
356.30	211.67
356.68	211.80
357.06	211.90
357.44	212.00
357.82	212.03
358.20	212.20
358.58	212.34
358.97	212.48
359.35	212.58
359.73	212.74
360.11	212.80
360.49	212.90
360.87	212.97
361.25	213.10
361.63	213.25
362.01	213.28
362.39	213.31
362.77	213.36
363.15	213.45
363.53	213.50
363.91	213.61
364.29	213.60
364.67	213.52
365.05	213.60
365.43	213.63
365.81	213.69
366.19	213.78
366.57	213.84
366.95	213.89
367.33	213.91
367.71	213.94
368.09	214.03
368.47	214.09
368.85	214.19
369.23	214.22
369.61	214.19
369.99	214.22
370.37	214.37
370.75	214.43
371.13	214.45
371.51	214.54
371.89	214.53
372.27	214.59
372.65	214.60
373.03	214.52
373.41	214.55
373.78	214.55
374.16	214.45
374.54	214.47
374.92	214.30
375.30	214.23
375.68	214.11
376.06	214.01
376.44	213.98
376.82	213.86
377.19	213.75
377.57	213.74
377.95	213.70
378.33	213.61
378.71	213.50
379.09	213.42
379.47	213.35
379.84	213.31
380.22	213.23
380.60	213.14
380.98	213.07
381.36	212.96
381.73	212.86
382.11	212.79
382.49	212.60
382.87	212.65
383.25	212.62
383.62	212.82
384.00	212.85
384.38	212.72
384.76	212.74
385.13	212.84
385.51	212.80
385.89	212.75
386.27	212.68
386.64	212.67
387.02	212.69
387.40	212.56
387.78	212.47
388.15	212.43
388.53	212.42
388.91	212.39
389.29	212.33
389.66	212.37
390.04	212.33
390.42	212.33
390.79	212.31
391.17	212.25
391.55	211.96
391.92	211.89
392.30	211.92
392.68	211.87
393.05	211.83
393.43	211.77
393.81	211.69
394.18	211.65
394.56	211.65
394.94	211.61
395.31	211.73
395.69	211.79
396.06	211.84
396.44	211.85
396.82	211.90
397.19	212.08
397.57	212.10
397.95	212.18
398.32	212.17
398.70	212.19
399.07	212.25
399.45	212.42
399.82	212.39
400.20	212.42
400.58	212.44
400.95	212.45
401.33	212.54
401.70	212.69
402.08	212.80
402.45	212.87
402.83	212.96
403.20	212.97
403.58	212.99
403.95	213.05
404.33	213.13
404.71	213.20
405.08	213.28
405.46	213.35
405.83	213.42
406.21	213.55
406.58	213.73
406.96	213.91
407.33	213.99
407.70	214.24
408.08	214.57
408.45	214.79
408.83	215.00
409.20	215.20
409.58	215.36
409.95	215.62
410.33	215.95
410.70	216.15
411.08	216.45
411.45	216.94
411.82	217.25
412.20	217.69
412.57	218.17
412.95	218.44
413.32	218.98
413.69	219.60
414.07	220.17
414.44	220.72
414.82	221.30
415.19	222.00
415.56	222.78
415.94	223.54
416.31	224.46
416.68	225.32
417.06	226.30
417.43	227.33
417.81	228.37
418.18	229.42
418.55	230.67
418.93	232.00
419.30	233.25
419.67	234.60
420.04	235.99
420.42	237.44
420.79	239.30
421.16	240.96
421.54	242.64
421.91	244.47
422.28	246.34
422.66	248.35
423.03	250.31
423.40	252.24
423.77	254.27
424.15	256.45
424.52	258.75
424.89	261.23
425.26	263.67
425.64	265.98
426.01	268.45
426.38	271.07
426.75	273.74
427.13	276.44
427.50	279.41
427.87	282.33
428.24	285.37
428.61	288.20
428.99	291.38
429.36	294.80
429.73	298.18
430.10	301.59
430.47	304.98
430.85	308.65
431.22	312.48
431.59	316.62
431.96	320.37
432.33	324.64
432.70	328.65
433.08	333.36
433.45	337.81
433.82	342.42
434.19	347.36
434.56	352.09
434.93	356.78
435.30	361.37
435.68	366.51
436.05	371.53
436.42	376.46
436.79	381.06
437.16	386.06
437.53	391.35
437.90	396.43
438.27	401.48
438.64	406.52
439.01	411.35
439.38	415.51
439.75	419.74
440.13	424.41
440.50	429.03
440.87	432.63
441.24	436.42
441.61	440.54
441.98	443.57
442.35	447.15
442.72	450.61
443.09	454.14
443.46	456.37
443.83	457.79
444.20	458.97
444.57	460.71
444.94	461.56
445.31	462.21
445.68	463.02
446.05	463.33
446.42	462.89
446.79	462.18
447.16	461.44
447.53	460.75
447.90	458.67
448.27	456.48
448.64	453.71
449.01	451.64
449.37	448.00
449.74	444.54
450.11	440.60
450.48	436.18
450.85	431.63
451.22	427.61
451.59	423.94
451.96	420.45
452.33	415.75
452.70	411.48
453.07	406.59
453.43	401.44
453.80	396.52
454.17	391.67
454.54	387.22
454.91	382.50
455.28	377.93
455.65	373.54
456.02	369.49
456.38	365.76
456.75	361.26
457.12	357.49
457.49	353.72
457.86	350.00
458.23	346.88
458.59	343.36
458.96	339.98
459.33	336.85
459.70	333.77
460.07	331.33
460.43	328.45
460.80	325.61
461.17	323.30
461.54	320.95
461.91	318.80
462.27	316.46
462.64	314.49
463.01	312.34
463.38	310.38
463.74	308.04
464.11	306.23
464.48	304.60
464.85	302.86
465.21	301.69
465.58	300.32
465.95	298.74
466.32	297.45
466.68	296.01
467.05	294.63
467.42	293.29
467.78	291.81
468.15	290.44
468.52	289.61
468.88	288.31
469.25	287.07
469.62	286.12
469.98	285.13
470.35	284.24
470.72	283.46
471.08	282.49
471.45	281.88
471.82	281.18
472.18	280.44
472.55	279.93
472.92	279.17
473.28	278.56
473.65	277.97
474.02	277.41
474.38	277.06
474.75	276.78
475.11	276.38
475.48	276.16
475.85	276.03
476.21	275.80
476.58	275.77
476.94	275.73
477.31	275.71
477.67	275.70
478.04	275.75
478.41	275.84
478.77	276.21
479.14	276.25
479.50	276.54
479.87	276.85
480.23	277.31
480.60	277.68
480.96	278.11
481.33	278.79
481.69	279.53
482.06	280.09
482.42	280.70
482.79	281.51
483.15	282.47
483.52	283.43
483.88	284.42
484.25	285.43
484.61	286.60
484.98	287.75
485.34	289.07
485.71	290.31
486.07	291.65
486.44	292.98
486.80	294.61
487.17	296.19
487.53	297.95
487.90	299.73
488.26	301.81
488.62	303.92
488.99	305.90
489.35	307.89
489.72	310.18
490.08	312.63
490.44	315.11
490.81	317.70
491.17	320.35
491.54	323.22
491.90	326.13
492.26	329.25
492.63	332.52
492.99	336.00
493.36	339.69
493.72	343.61
494.08	347.58
494.45	351.71
494.81	356.14
495.17	360.68
495.54	365.55
495.90	370.39
496.26	375.56
496.63	381.06
496.99	386.81
497.35	392.76
497.72	398.91
498.08	405.34
498.44	411.93
498.80	419.02
499.17	426.43
499.53	434.09
499.89	442.10
500.26	450.23
500.62	458.45
500.98	467.09
501.34	476.11
501.71	485.56
502.07	495.28
502.43	505.21
502.79	515.43
503.16	525.95
503.52	536.82
503.88	547.97
504.24	559.55
504.60	571.35
504.97	583.56
505.33	595.98
505.69	609.24
506.05	622.58
506.41	636.03
506.78	649.73
507.14	663.70
507.50	678.14
507.86	692.84
508.22	708.05
508.59	723.46
508.95	739.44
509.31	755.45
509.67	771.98
510.03	788.80
510.39	806.03
510.75	823.59
511.12	841.44
511.48	859.46
511.84	877.92
512.20	896.40
512.56	915.40
512.92	934.82
513.28	954.08
513.64	973.59
514.00	993.45
514.37	1013.51
514.73	1034.10
515.09	1054.64
515.45	1075.48
515.81	1096.52
516.17	1117.67
516.53	1138.67
516.89	1159.88
517.25	1181.05
517.61	1202.61
517.97	1223.96
518.33	1245.20
518.69	1266.66
519.05	1288.62
519.41	1310.27
519.77	1332.66
520.13	1354.65
520.49	1376.29
520.85	1398.53
521.21	1420.98
521.57	1443.62
521.93	1465.09
522.29	1487.36
522.65	1509.70
523.01	1532.05
523.37	1553.80
523.73	1575.70
524.09	1597.52
524.45	1619.45
524.81	1641.44
525.17	1662.99
525.53	1685.04
525.89	1706.85
526.25	1728.46
526.61	1749.27
526.97	1770.60
527.33	1791.50
527.68	1812.45
528.04	1833.19
528.40	1853.07
528.76	1873.13
529.12	1893.38
529.48	1914.93
529.84	1934.97
530.20	1954.61
530.56	1974.20
530.91	1994.41
531.27	2014.34
531.63	2033.57
531.99	2053.19
532.35	2071.83
532.71	2090.43
533.07	2109.50
533.42	2127.75
533.78	2146.25
534.14	2164.28
534.50	2181.13
534.86	2198.46
535.21	2214.65
535.57	2231.90
535.93	2248.88
536.29	2265.31
536.65	2281.27
537.00	2295.92
537.36	2310.90
537.72	2325.58
538.08	2340.27
538.44	2355.05
538.79	2369.93
539.15	2384.51
539.51	2398.45
539.87	2413.50
540.22	2427.65
540.58	2441.70
540.94	2455.72
541.29	2468.37
541.65	2480.59
542.01	2493.33
542.37	2504.98
542.72	2517.11
543.08	2528.07
543.44	2539.53
543.79	2549.26
544.15	2558.99
544.51	2569.68
544.87	2580.34
545.22	2589.47
545.58	2597.91
545.94	2604.50
546.29	2610.57
546.65	2616.38
547.01	2622.24
547.36	2627.30
547.72	2632.53
548.07	2635.97
548.43	2639.29
548.79	2642.42
549.14	2646.38
549.50	2650.06
549.86	2653.55
550.21	2656.97
550.57	2660.52
550.92	2662.80
551.28	2665.37
551.64	2667.35
551.99	2669.89
552.35	2670.95
552.70	2673.17
553.06	2675.51
553.41	2678.55
553.77	2681.25
554.13	2683.34
554.48	2685.20
554.84	2686.45
555.19	2686.70
555.55	2687.66
555.90	2688.15
556.26	2688.47
556.61	2688.30
556.97	2687.41
557.32	2686.76
557.68	2685.07
558.03	2683.42
558.39	2681.74
558.74	2681.34
559.10	2680.14
559.45	2677.56
559.81	2676.44
560.16	2673.80
560.52	2670.89
560.87	2667.86
561.23	2663.89
561.58	2661.48
561.94	2657.79
562.29	2653.75
562.64	2651.39
563.00	2648.37
563.35	2646.14
563.71	2644.46
564.06	2642.25
564.42	2640.25
564.77	2637.61
565.12	2635.93
565.48	2632.42
565.83	2629.26
566.19	2625.48
566.54	2621.29
566.89	2617.25
567.25	2613.16
567.60	2609.89
567.96	2606.46
568.31	2602.97
568.66	2599.28
569.02	2594.66
569.37	2589.95
569.72	2586.50
570.08	2581.25
570.43	2575.86
570.78	2569.83
571.14	2563.08
571.49	2556.49
571.84	2550.28
572.20	2543.35
572.55	2536.47
572.90	2529.79
573.26	2522.60
573.61	2515.70
573.96	2509.39
574.31	2501.83
574.67	2493.83
575.02	2485.30
575.37	2476.70
575.72	2467.46
576.08	2459.81
576.43	2451.15
576.78	2443.48
577.13	2435.51
577.49	2427.45
577.84	2419.66
578.19	2412.28
578.54	2405.48
578.90	2398.68
579.25	2390.39
579.60	2381.76
579.95	2372.48
580.30	2365.06
580.66	2357.61
581.01	2349.06
581.36	2339.81
581.71	2331.76
582.06	2323.45
582.42	2315.58
582.77	2306.92
583.12	2298.71
583.47	2290.11
583.82	2282.03
584.17	2273.07
584.53	2264.04
584.88	2255.51
585.23	2246.63
585.58	2237.27
585.93	2227.82
586.28	2218.82
586.63	2210.10
586.98	2202.42
587.34	2194.62
587.69	2185.31
588.04	2176.14
588.39	2167.62
588.74	2159.01
589.09	2150.41
589.44	2140.95
589.79	2132.60
590.14	2124.93
590.49	2116.69
590.84	2108.05
591.19	2100.17
591.54	2091.36
591.89	2081.72
592.25	2073.18
592.60	2063.94
592.95	2055.12
593.30	2045.97
593.65	2036.41
594.00	2027.09
594.35	2018.24
594.70	2009.37
595.05	2001.07
595.40	1992.61
595.75	1983.38
596.10	1975.51
596.45	1967.22
596.80	1960.09
597.15	1951.65
597.50	1942.51
597.85	1934.15
598.19	1926.03
598.54	1917.57
598.89	1910.30
599.24	1903.55
599.59	1895.91
599.94	1889.40
600.29	1881.69
600.64	1873.98
600.99	1865.86
601.34	1858.83
601.69	1850.80
602.04	1842.71
602.39	1834.78
602.74	1827.11
603.08	1820.69
603.43	1813.50
603.78	1805.69
604.13	1797.71
604.48	1789.99
604.83	1783.52
605.18	1776.94
605.53	1769.34
605.87	1761.94
606.22	1754.93
606.57	1747.41
606.92	1739.53
607.27	1731.35
607.62	1724.10
607.96	1717.43
608.31	1711.32
608.66	1703.67
609.01	1696.18
609.36	1688.87
609.70	1681.19
610.05	1673.60
610.40	1665.78
610.75	1657.48
611.10	1649.95
611.44	1640.85
611.79	1632.55
612.14	1623.46
612.49	1613.69
612.83	1605.11
613.18	1595.71
613.53	1586.17
613.88	1576.43
614.22	1567.55
614.57	1558.44
614.92	1549.45
615.27	1539.98
615.61	1530.31
615.96	1521.31
616.31	1513.05
616.65	1505.13
617.00	1496.90
617.35	1488.68
617.70	1479.95
618.04	1471.08
618.39	1462.26
618.74	1454.30
619.08	1445.66
619.43	1437.35
619.78	1429.83
620.12	1422.18
620.47	1414.59
620.82	1406.57
621.16	1398.73
621.51	1390.63
621.85	1382.76
622.20	1374.51
622.55	1366.47
622.89	1358.58
623.24	1350.94
623.59	1342.82
623.93	1334.21
624.28	1326.23
624.62	1318.06
624.97	1309.99
625.32	1302.31
625.66	1295.12
626.01	1288.03
626.35	1280.94
626.70	1273.50
627.04	1266.32
627.39	1258.54
627.73	1251.30
628.08	1244.57
628.43	1237.21
628.77	1230.27
629.12	1222.72
629.46	1216.06
629.81	1209.10
630.15	1201.91
630.50	1194.87
630.84	1187.35
631.19	1180.57
631.53	1173.81
631.88	1166.23
632.22	1158.60
632.57	1152.00
632.91	1144.50
633.26	1137.06
633.60	1129.95
633.95	1123.38
634.29	1116.11
634.64	1109.65
634.98	1102.82
635.32	1095.92
635.67	1089.98
636.01	1083.30
636.36	1076.75
636.70	1070.43
637.05	1063.90
637.39	1057.78
637.73	1051.33
638.08	1045.68
638.42	1039.92
638.77	1033.49
639.11	1027.49
639.45	1021.80
639.80	1015.26
640.14	1008.99
640.49	1003.06
640.83	996.95
641.17	990.63
641.52	984.63
641.86	978.21
642.20	972.08
642.55	965.44
642.89	958.69
643.23	952.41
643.58	946.89
643.92	940.50
644.26	934.48
644.61	928.31
644.95	922.44
645.29	916.32
645.64	909.81
645.98	903.88
646.32	898.21
646.66	892.17
647.01	886.35
647.35	880.75
647.69	874.51
648.04	868.75
648.38	862.97
648.72	856.97
649.06	851.08
649.41	845.08
649.75	839.32
650.09	833.71
650.43	827.97
650.78	821.82
651.12	815.76
651.46	810.08
651.80	804.44
652.14	798.66
652.49	792.63
652.83	787.09
653.17	781.07
653.51	775.09
653.85	769.38
654.20	763.95
654.54	758.10
654.88	752.81
655.22	747.09
655.56	741.15
655.90	735.57
656.25	729.96
656.59	724.75
656.93	719.83
657.27	714.86
657.61	709.66
657.95	704.55
658.29	699.60
658.64	694.56
658.98	689.39
659.32	684.04
659.66	679.17
660.00	673.82
660.34	668.65
660.68	663.91
661.02	659.03
661.36	654.25
661.70	649.65
662.05	644.82
662.39	640.56
662.73	636.58
663.07	632.40
663.41	628.14
663.75	623.59
664.09	618.80
664.43	614.08
664.77	609.80
665.11	605.54
665.45	601.30
665.79	596.94
666.13	592.64
666.47	588.55
666.81	584.49
667.15	580.68
667.49	577.07
667.83	573.19
668.17	569.42
668.51	565.59
668.85	561.81
669.19	558.33
669.53	554.37
669.87	550.31
670.21	546.56
670.55	542.70
670.89	539.28
671.23	536.07
671.57	532.81
671.91	529.14
672.25	525.47
672.58	522.10
672.92	518.66
673.26	515.53
673.60	512.23
673.94	508.87
674.28	505.52
674.62	502.33
674.96	499.12
675.30	496.04
675.64	492.85
675.97	489.81
676.31	486.82
676.65	483.90
676.99	481.28
677.33	478.35
677.67	475.59
678.01	472.55
678.34	469.54
678.68	466.62
679.02	463.78
679.36	461.14
679.70	458.30
680.04	455.65
680.37	452.70
680.71	450.12
681.05	447.63
681.39	444.99
681.73	442.35
682.06	439.84
682.40	437.51
682.74	434.94
683.08	432.52
683.42	429.86
683.75	427.45
684.09	424.90
684.43	422.45
684.77	419.94
685.10	417.53
685.44	415.08
685.78	412.64
686.12	410.40
686.45	408.08
686.79	405.86
687.13	403.63
687.46	401.56
687.80	399.42
688.14	397.11
688.48	395.03
688.81	392.87
689.15	390.69
689.49	388.30
689.82	386.22
690.16	383.95
690.50	381.79
690.83	379.55
691.17	377.32
691.51	375.20
691.84	373.17
692.18	371.18
692.52	369.29
692.85	367.57
693.19	365.78
693.52	363.92
693.86	361.97
694.20	360.12
694.53	358.27
694.87	356.23
695.21	354.32
695.54	352.46
695.88	350.56
696.21	348.77
696.55	347.14
696.88	345.39
697.22	343.60
697.56	342.01
697.89	340.46
698.23	338.93
698.56	337.27
698.90	335.89
699.23	334.30
699.57	332.77
699.90	330.96
700.24	329.36
700.58	327.81
700.91	326.33
701.25	324.98
701.58	323.64
701.92	322.34
702.25	320.97
702.59	319.67
702.92	318.41
703.26	317.15
703.59	315.85
703.93	314.81
704.26	313.63
704.60	312.37
704.93	311.13
705.26	309.87
705.60	308.84
705.93	307.51
706.27	306.44
706.60	305.26
706.94	304.33
707.27	303.10
707.61	302.03
707.94	300.93
708.27	299.64
708.61	298.43
708.94	297.41
709.28	296.39
709.61	295.25
709.94	294.18
710.28	293.08
710.61	292.10
710.95	290.91
711.28	290.05
711.61	289.14
711.95	288.14
712.28	287.18
712.61	286.17
712.95	285.30
713.28	284.35
713.61	283.39
713.95	282.35
714.28	281.57
714.61	280.65
714.95	279.74
715.28	278.91
715.61	277.96
715.95	277.05
716.28	276.08
716.61	275.32
716.95	274.49
717.28	273.68
717.61	272.84
717.94	272.00
718.28	271.07
718.61	270.30
718.94	269.54
719.27	268.80
719.61	268.06
719.94	267.32
720.27	266.56
720.60	265.82
720.94	265.18
721.27	264.50
721.60	263.90
721.93	263.27
722.27	262.72
722.60	262.15
722.93	261.45
723.26	260.98
723.59	260.23
723.93	259.68
724.26	259.14
724.59	258.58
724.92	258.15
725.25	257.66
725.59	257.07
725.92	256.63
726.25	256.09
726.58	255.65
726.91	255.18
727.24	254.73
727.57	254.29
727.91	253.75
728.24	253.20
728.57	252.65
728.90	252.21
729.23	251.63
729.56	251.28
729.89	250.82
730.22	250.38
730.55	249.94
730.89	249.58
731.22	249.10
731.55	248.67
731.88	248.18
732.21	247.74
732.54	247.25
732.87	246.75
733.20	246.35
733.53	245.82
733.86	245.41
734.19	244.98
734.52	244.63
734.85	244.45
735.18	244.05
735.51	243.74
735.84	243.40
736.17	243.12
736.50	242.64
736.83	242.52
737.16	242.20
737.49	241.87
737.82	241.46
738.15	241.21
738.48	240.85
738.81	240.59
739.14	240.29
739.47	240.07
739.80	239.75
740.13	239.39
740.46	239.05
740.79	238.70
741.12	238.39
741.45	238.07
741.78	237.57
742.11	237.37
742.44	237.13
742.77	236.88
743.10	236.59
743.43	236.35
743.75	235.94
744.08	235.80
744.41	235.54
744.74	235.29
745.07	234.92
745.40	234.71
745.73	234.38
746.06	234.11
746.39	233.85
746.71	233.55
747.04	233.33
747.37	233.09
747.70	232.81
748.03	232.57
748.36	232.34
748.68	232.14
749.01	231.82
749.34	231.50
749.67	231.25
750.00	230.97
750.33	230.89
750.65	230.61
750.98	230.19
751.31	229.98
751.64	229.72
751.97	229.60
752.29	229.32
752.62	229.05
752.95	228.78
753.28	228.48
753.60	228.31
753.93	228.13
754.26	227.95
754.59	227.72
754.91	227.52
755.24	227.30
755.57	227.08
755.90	226.91
756.22	226.76
756.55	226.53
756.88	226.25
757.20	225.89
757.53	225.69
757.86	225.45
758.19	225.28
758.51	225.07
758.84	224.80
759.17	224.63
759.49	224.45
759.82	224.33
760.15	224.21
760.47	223.96
760.80	223.74
761.13	223.60
761.45	223.45
761.78	223.23
762.11	223.14
762.43	223.02
762.76	222.77
763.08	222.70
763.41	222.57
763.74	222.52
764.06	222.40
764.39	222.27
764.71	222.13
765.04	221.93
765.37	221.81
765.69	221.74
766.02	221.59
766.34	221.53
766.67	221.37
767.00	221.26
767.32	221.26
767.65	221.25
767.97	221.12
768.30	220.99
768.62	220.82
768.95	220.67
769.27	220.55
769.60	220.52
769.92	220.32
770.25	220.13
770.57	220.00
770.90	219.90
771.22	219.78
771.55	219.73
771.87	219.70
772.20	219.56
772.52	219.57
772.85	219.67
773.17	219.53
773.50	219.35
773.82	219.20
774.15	219.07
774.47	218.89
774.80	218.79
775.12	218.76
775.45	218.70
775.77	218.64
776.09	218.51
776.42	218.37
776.74	218.26
777.07	218.22
777.39	218.13
777.72	218.04
778.04	217.95
778.36	217.80
778.69	217.68
779.01	217.65
779.33	217.44
779.66	217.20
779.98	217.10
780.31	217.01
780.63	217.13
780.95	217.04
781.28	216.95
781.60	216.84
781.92	216.75
782.25	216.75
782.57	216.61
782.89	216.60
783.22	216.59
783.54	216.63
783.86	216.59
784.19	216.56
784.51	216.53
784.83	216.54
785.16	216.52
785.48	216.50
785.80	216.40
786.12	216.35
786.45	216.28
786.77	216.29
787.09	216.26
787.42	216.06
787.74	216.00
788.06	216.00
788.38	216.00
788.71	215.91
789.03	215.86
789.35	215.88
789.67	215.82
789.99	215.76
790.32	215.60
790.64	215.55
790.96	215.53
791.28	215.44
791.61	215.36
791.93	215.30
792.25	215.25
792.57	215.41
792.89	215.31
793.21	215.33
793.54	215.27
793.86	215.26
794.18	215.26
794.50	215.23
794.82	215.16
795.14	215.08
795.47	215.05
795.79	215.01
796.11	214.89
796.43	214.85
796.75	214.83
797.07	214.82
797.39	214.73
797.71	214.65
798.04	214.67
798.36	214.64
798.68	214.62
799.00	214.58
799.32	214.33
799.64	214.35
799.96	214.32
800.28	214.26
800.60	214.21
800.92	214.20
801.24	214.24
801.56	214.21
801.89	214.18
802.21	214.16
802.53	214.11
802.85	214.16
803.17	214.17
803.49	214.07
803.81	213.99
804.13	214.01
804.45	213.97
804.77	213.92
805.09	213.87
805.41	213.81
805.73	213.73
806.05	213.72
806.37	213.69
806.69	213.64
807.01	213.70
807.33	213.65
807.65	213.53
807.97	213.48
808.28	213.45
808.60	213.44
808.92	213.42
809.24	213.48
809.56	213.39
809.88	213.33
810.20	213.32
810.52	213.39
810.84	213.30
811.16	213.23
811.48	213.19
811.80	213.23
812.12	213.29
812.43	213.30
812.75	213.32
813.07	213.26
813.39	213.19
813.71	213.05
814.03	213.09
814.35	213.13
814.67	212.96
814.98	212.95
815.30	212.86
815.62	212.83
815.94	212.68
816.26	212.73
816.58	212.71
816.89	212.77
817.21	212.71
817.53	212.80
817.85	212.86
818.17	212.80
818.48	212.75
818.80	212.71
819.12	212.69
819.44	212.64
819.76	212.63
820.07	212.69
820.39	212.72
820.71	212.72
821.03	212.67
821.34	212.69
821.66	212.73
821.98	212.83
822.30	212.78
822.61	212.92
822.93	212.88
823.25	212.86
823.57	212.76
823.88	212.77
824.20	212.65
824.52	212.62
824.83	212.70
825.15	212.63
825.47	212.62
825.79	212.69
826.10	212.61
826.42	212.60
826.74	212.60
827.05	212.64
827.37	212.61
827.69	212.67
828.00	212.72
828.32	212.69
828.64	212.58
828.95	212.65
829.27	212.58
829.58	212.61
829.90	212.57
830.22	212.59
830.53	212.57
830.85	212.58
831.17	212.52
831.48	212.46
831.80	212.47
832.11	212.42
832.43	212.30
832.75	212.31
833.06	212.41
833.38	212.25
833.69	212.22
834.01	212.26
834.32	212.21
834.64	212.19
834.96	212.18
835.27	212.21
835.59	212.15
835.90	212.15
836.22	212.11
836.53	212.04
836.85	212.01
837.16	212.15
837.48	212.17
837.79	212.26
838.11	212.23
838.42	212.20
838.74	212.32
839.05	212.35
839.37	212.44
839.68	212.29
840.00	212.37
840.31	212.41
840.63	212.28
840.94	212.22
841.26	212.21
841.57	212.17
841.88	212.16
842.20	212.15
842.51	212.07
842.83	212.05
843.14	212.31
843.46	212.25
843.77	212.18
844.08	212.12
844.40	212.01
844.71	212.04
845.03	212.05
845.34	211.91
845.65	211.93
845.97	211.87
846.28	211.82
846.60	211.83
846.91	211.75
847.22	211.83
847.54	211.83
847.85	211.83
848.16	211.86
848.48	211.81
848.79	211.88
849.10	211.90
849.42	211.90
849.73	211.71
850.04	211.75
850.36	211.64
850.67	211.72
850.98	211.75
851.30	211.75
851.61	211.76
851.92	211.77
852.23	211.82
852.55	211.83
852.86	211.89
853.17	211.91
853.49	211.94
853.80	211.92
854.11	212.00
854.42	211.99
854.74	211.97
855.05	211.98
855.36	211.89
855.67	211.88
855.99	211.92
856.30	212.04
856.61	212.00
856.92	212.05
857.23	212.06
857.55	212.06
857.86	212.03
858.17	212.06
858.48	212.01
858.79	211.93
859.11	211.89
859.42	211.84
859.73	211.79
860.04	211.82
860.35	211.83
860.66	211.68
860.98	211.75
861.29	211.75
861.60	211.72
861.91	211.75
862.22	211.80
862.53	211.76
862.84	211.62
863.16	211.75
863.47	211.68
863.78	211.64
864.09	211.63
864.40	211.65
864.71	211.58
865.02	211.63
865.33	211.73
865.64	211.73
865.95	211.79
866.27	211.93
866.58	211.89
866.89	211.84
867.20	211.92
867.51	211.77
867.82	211.75
868.13	211.75
868.44	211.69
868.75	211.65
869.06	211.65
869.37	211.67
869.68	211.54
869.99	211.53
870.30	211.54
870.61	211.53
870.92	211.52
871.23	211.54
871.54	211.53
871.85	211.44
872.16	211.40
872.47	211.36
872.78	211.22
873.09	211.27
873.40	211.28
873.71	211.29
874.02	211.37
874.33	211.30
874.64	211.30
874.95	211.37
875.26	211.32
875.56	211.21
875.87	211.27
876.18	211.24
876.49	211.45
876.80	211.39
877.11	211.42
877.42	211.44
877.73	211.46
878.04	211.41
878.35	211.42
878.66	211.45
878.96	211.40
879.27	211.42
879.58	211.35
879.89	211.35
880.20	211.40
880.51	211.39
880.82	211.43
881.12	211.45
881.43	211.40
881.74	211.34
882.05	211.46
882.36	211.39
882.67	211.50
882.97	211.32
883.28	211.35
883.59	211.33
883.90	211.34
884.21	211.35
884.51	211.37
884.82	211.35
885.13	211.36
885.44	211.46
885.74	211.43
886.05	211.46
886.36	211.47
886.67	211.38
886.98	211.50
887.28	211.55
887.59	211.58
887.90	211.63
888.20	211.70
888.51	211.70
888.82	211.75
889.13	211.75
889.43	211.91
889.74	211.89
890.05	211.92
890.35	211.84
890.66	211.85
890.97	211.89
891.28	211.87
891.58	211.89
891.89	211.87
892.20	211.89
892.50	211.80
892.81	211.80
893.12	211.87
893.42	211.71
893.73	211.72
894.04	211.70
894.34	211.64
894.65	211.58
894.95	211.51
895.26	211.41
895.57	211.45
895.87	211.24
896.18	211.27
896.48	211.25
896.79	211.31
897.10	211.29
897.40	211.33
897.71	211.40
898.01	211.42
898.32	211.35
898.63	211.32
898.93	211.34
899.24	211.38
899.54	211.29
899.85	211.32
900.15	211.27
900.46	211.28
900.76	211.32
901.07	211.34
901.38	211.32
901.68	211.38
901.99	211.30
902.29	211.38
902.60	211.34
902.90	211.25
903.21	211.24
903.51	211.21
903.82	211.16
904.12	211.14
904.43	211.05
904.73	211.14
905.03	211.10
905.34	211.31
905.64	211.23
905.95	211.23
906.25	211.22
906.56	211.25
906.86	211.23
907.17	211.19
907.47	211.23
907.77	211.26
908.08	211.23
908.38	211.18
908.69	211.15
908.99	211.17
909.30	211.17
909.60	211.17
909.90	211.17
910.21	211.12
910.51	211.05
910.81	211.12
911.12	211.06
911.42	211.09
911.73	210.90
912.03	210.88
912.33	210.93
912.64	210.95
912.94	210.91
913.24	210.87
913.55	210.94
913.85	210.90
914.15	210.96
914.46	210.99
914.76	210.98
915.06	211.05
915.37	211.01
915.67	211.01
915.97	211.00
916.27	210.97
916.58	210.96
916.88	210.96
917.18	210.94
917.49	211.08
917.79	211.06
918.09	211.13
918.39	211.18
918.70	211.17
919.00	211.09
919.30	211.18
919.60	211.19
919.91	211.15
920.21	211.17
920.51	211.11
920.81	211.07
921.12	211.16
921.42	211.11
921.72	211.12
922.02	211.12
922.32	211.16
922.63	211.20
922.93	211.35
923.23	211.37
923.53	211.37
923.83	211.29
924.13	211.36
924.44	211.29
924.74	211.30
925.04	211.34
925.34	211.36
925.64	211.26
925.94	211.27
926.24	211.38
926.55	211.35
926.85	211.40
927.15	211.46
927.45	211.36
927.75	211.34
928.05	211.36
928.35	211.38
928.65	211.43
928.95	211.45
929.26	211.35
929.56	211.43
929.86	211.41
930.16	211.35
930.46	211.31
930.76	211.32
931.06	211.21
931.36	211.25
931.66	211.27
931.96	211.29
932.26	211.20
932.56	211.11
932.86	211.09
933.16	211.03
933.46	210.95
933.76	210.99
934.06	210.98
934.36	211.03
934.66	211.07
934.96	210.97
935.26	211.09
935.56	211.15
935.86	211.04
936.16	211.05
936.46	211.12
936.76	211.08
937.06	211.08
937.36	211.17
937.66	211.09
937.96	211.11
938.26	211.09
938.56	211.14
938.86	211.15
939.16	211.25
939.46	211.28
939.76	211.35
940.06	211.33
940.35	211.36
940.65	211.29
940.95	211.30
941.25	211.32
941.55	211.18
941.85	211.13
942.15	211.23
942.45	211.23
942.75	211.17
943.04	211.14
943.34	211.20
943.64	211.21
943.94	211.20
944.24	211.25
944.54	211.26
944.84	211.32
945.13	211.31
945.43	211.21
945.73	211.23
946.03	211.21
946.33	211.30
946.62	211.27
946.92	211.24
947.22	211.21
947.52	211.13
947.82	211.17
948.11	211.14
948.41	211.10
948.71	211.14
949.01	211.15
949.31	211.17
949.60	211.13
949.90	211.13
950.20	211.13
950.50	211.06
950.79	211.12
951.09	211.15
951.39	211.10
951.69	211.11
951.98	211.19
952.28	211.20
952.58	211.10
952.87	211.10
953.17	211.11
953.47	211.11
953.76	211.21
954.06	211.10
954.36	211.11
954.66	211.10
954.95	211.04
955.25	211.07
955.55	211.09
955.84	211.07
956.14	211.00
956.44	211.06
956.73	211.03
957.03	210.99
957.32	210.97
957.62	210.98
957.92	211.02
958.21	210.96
958.51	211.14
958.81	211.20
959.10	211.26
959.40	211.31
959.69	211.39
959.99	211.38
960.29	211.48
960.58	211.54
960.88	211.61
961.17	211.65
961.47	211.64
961.76	211.65
962.06	211.69
962.36	211.71
962.65	211.69
962.95	211.75
963.24	211.71
963.54	211.71
963.83	211.80
964.13	211.80
964.42	211.71
964.72	211.55
965.01	211.54
965.31	211.50
965.60	211.52
965.90	211.57
966.19	211.57
966.49	211.51
966.78	211.39
967.08	211.38
967.37	211.45
967.67	211.48
967.96	211.53
968.26	211.50
968.55	211.56
968.85	211.54
969.14	211.52
969.43	211.52
969.73	211.52
970.02	211.46
970.32	211.51
970.61	211.54
970.91	211.49
971.20	211.53
971.49	211.50
971.79	211.51
972.08	211.33
972.38	211.32
972.67	211.26
972.96	211.36
973.26	211.31
973.55	211.30
973.85	211.28
974.14	211.23
974.43	211.25
974.73	211.21
975.02	211.22
975.31	211.25
975.61	211.31
975.90	211.26
976.19	211.24
976.49	211.23
976.78	211.29
977.07	211.33
977.37	211.35
977.66	211.35
977.95	211.32
978.24	211.41
978.54	211.38
978.83	211.50
979.12	211.36
979.42	211.39
979.71	211.32
980.00	211.25
980.29	211.21
980.59	211.17
980.88	211.23
981.17	211.19
981.46	211.13
981.76	211.03
982.05	211.05
982.34	211.04
982.63	211.00
982.93	210.97
983.22	211.03
983.51	210.99
983.80	211.01
984.09	211.02
984.39	210.95
984.68	210.95
984.97	210.93
985.26	211.00
985.55	211.04
985.85	211.02
986.14	211.05
986.43	211.08
986.72	211.04
987.01	210.96
987.30	210.98
987.59	210.93
987.89	210.91
988.18	210.91
988.47	210.91
988.76	210.88
989.05	210.90
989.34	210.79
989.63	210.84
989.92	210.73
990.22	210.70
990.51	210.74
990.80	210.78
991.09	210.84
991.38	210.80
991.67	210.70
991.96	210.63
992.25	210.63
992.54	210.55
992.83	210.60
993.12	210.67
993.41	210.71
993.70	210.86
993.99	210.91
994.28	210.86
994.58	210.89
994.87	210.88
995.16	210.85
995.45	210.77
995.74	210.67
996.03	210.76
996.32	210.76
996.61	210.80
996.90	210.77
997.19	210.74
997.48	210.80
997.77	210.82
998.06	210.92
998.34	210.93
998.63	210.98
998.92	210.98
999.21	211.00
999.50	210.94
999.79	210.84
1000.08	210.85
1000.37	210.93
1000.66	210.92
1000.95	210.94
1001.24	210.94
1001.53	211.02
1001.82	211.04
1002.11	211.06
1002.40	211.13
1002.68	211.17
1002.97	211.28
1003.26	211.26
1003.55	211.23
1003.84	211.23
1004.13	211.27
1004.42	211.24
1004.71	211.33
1004.99	211.27
1005.28	211.25
1005.57	211.28
1005.86	211.34
1006.15	211.42
1006.44	211.35
1006.72	211.40
1007.01	211.32
1007.30	211.31
1007.59	211.27
1007.88	211.26
1008.17	211.25
1008.45	211.19
1008.74	211.14
1009.03	211.03
1009.32	210.98
1009.60	210.97
1009.89	210.92
1010.18	210.89
1010.47	210.86
1010.76	210.81
1011.04	210.97
1011.33	210.97
1011.62	210.99
1011.91	211.00
1012.19	210.97
1012.48	210.98
1012.77	210.98
1013.05	211.25
1013.34	211.25
1013.63	211.29
1013.92	211.29
1014.20	211.32
1014.49	211.36
1014.78	211.30
1015.06	211.26
1015.35	211.26
1015.64	211.33
1015.92	211.40
1016.21	211.41
1016.50	211.45
1016.78	211.44
1017.07	211.30
1017.36	211.29
1017.64	211.25
1017.93	211.22
1018.22	211.17
1018.50	211.16
1018.79	211.17
1019.08	211.00
1019.36	211.03
1019.65	210.98
1019.93	210.95
1020.22	211.00
1020.51	211.02
1020.79	211.01
1021.08	210.70
1021.36	210.40
1021.65	211.55
1021.94	211.20
1022.22	211.10
1022.51	209.95
1022.79	210.10
1023.08	212.40
1023.36	213.25
1023.65	209.80
>>>>>End Processed Spectral Data<<<<<
