SpectraSuite Data File
++++++++++++++++++++++++++++++++++++
Date: Mon Feb 25 17:35:09 EST 2013
User: group
Dark Spectrum Present: No
Reference Spectrum Present: No
Number of Sampled Component Spectra: 1
Spectrometers: USB2E7196
Integration Time (usec): 52000 (USB2E7196)
Spectra Averaged: 20 (USB2E7196)
Boxcar Smoothing: 10 (USB2E7196)
Correct for Electrical Dark: No (USB2E7196)
Strobe/Lamp Enabled: No (USB2E7196)
Correct for Detector Non-linearity: No (USB2E7196)
Correct for Stray Light: No (USB2E7196)
Number of Pixels in Processed Spectrum: 2048
>>>>>Begin Processed Spectral Data<<<<<
339.09	0.00
339.48	200.30
339.86	201.15
340.24	202.55
340.63	205.35
341.01	208.45
341.39	207.45
341.78	207.85
342.16	208.50
342.54	210.40
342.93	199.03
343.31	209.10
343.69	209.64
344.07	210.13
344.46	210.50
344.84	210.84
345.22	211.01
345.60	211.20
345.99	211.38
346.37	211.51
346.75	211.54
347.13	211.64
347.52	211.71
347.90	211.84
348.28	211.82
348.66	211.89
349.05	211.90
349.43	211.91
349.81	211.87
350.19	211.89
350.57	211.91
350.96	211.92
351.34	211.93
351.72	211.95
352.10	211.97
352.48	212.05
352.87	212.05
353.25	212.05
353.63	212.02
354.01	212.03
354.39	212.15
354.77	212.21
355.15	212.23
355.54	212.19
355.92	212.17
356.30	212.18
356.68	212.27
357.06	212.33
357.44	212.35
357.82	212.45
358.20	212.45
358.58	212.55
358.97	212.54
359.35	212.57
359.73	212.63
360.11	212.61
360.49	212.68
360.87	212.70
361.25	212.68
361.63	212.83
362.01	212.83
362.39	212.78
362.77	212.81
363.15	212.77
363.53	212.82
363.91	212.90
364.29	212.91
364.67	212.80
365.05	212.74
365.43	212.75
365.81	212.65
366.19	212.74
366.57	212.74
366.95	212.72
367.33	212.66
367.71	212.66
368.09	212.77
368.47	212.72
368.85	212.65
369.23	212.76
369.61	212.68
369.99	212.72
370.37	212.74
370.75	212.75
371.13	212.75
371.51	212.69
371.89	212.61
372.27	212.58
372.65	212.57
373.03	212.62
373.41	212.56
373.78	212.54
374.16	212.43
374.54	212.35
374.92	212.32
375.30	212.33
375.68	212.27
376.06	212.17
376.44	212.11
376.82	212.10
377.19	212.03
377.57	212.02
377.95	211.89
378.33	211.88
378.71	211.79
379.09	211.76
379.47	211.83
379.84	211.67
380.22	211.70
380.60	211.60
380.98	211.50
381.36	211.50
381.73	211.46
382.11	211.46
382.49	211.42
382.87	211.47
383.25	211.47
383.62	211.66
384.00	211.62
384.38	211.64
384.76	211.65
385.13	211.69
385.51	211.66
385.89	211.61
386.27	211.61
386.64	211.59
387.02	211.54
387.40	211.41
387.78	211.44
388.15	211.39
388.53	211.44
388.91	211.43
389.29	211.44
389.66	211.47
390.04	211.41
390.42	211.43
390.79	211.37
391.17	211.38
391.55	211.14
391.92	211.11
392.30	211.10
392.68	211.06
393.05	211.06
393.43	211.04
393.81	211.17
394.18	211.10
394.56	211.11
394.94	211.22
395.31	211.25
395.69	211.39
396.06	211.42
396.44	211.43
396.82	211.42
397.19	211.49
397.57	211.45
397.95	211.55
398.32	211.55
398.70	211.55
399.07	211.58
399.45	211.63
399.82	211.65
400.20	211.66
400.58	211.76
400.95	211.72
401.33	211.78
401.70	211.92
402.08	211.95
402.45	212.05
402.83	212.13
403.20	212.22
403.58	212.29
403.95	212.39
404.33	212.51
404.71	212.64
405.08	212.87
405.46	213.07
405.83	213.20
406.21	213.37
406.58	213.55
406.96	213.75
407.33	213.97
407.70	214.23
408.08	214.61
408.45	214.86
408.83	215.09
409.20	215.34
409.58	215.43
409.95	215.76
410.33	216.10
410.70	216.38
411.08	216.73
411.45	217.09
411.82	217.51
412.20	217.96
412.57	218.46
412.95	218.72
413.32	219.25
413.69	219.77
414.07	220.35
414.44	221.04
414.82	221.66
415.19	222.36
415.56	223.08
415.94	223.76
416.31	224.63
416.68	225.54
417.06	226.53
417.43	227.56
417.81	228.66
418.18	229.65
418.55	230.86
418.93	232.16
419.30	233.40
419.67	234.73
420.04	236.11
420.42	237.65
420.79	239.48
421.16	241.13
421.54	242.95
421.91	244.84
422.28	246.70
422.66	248.71
423.03	250.79
423.40	252.92
423.77	255.10
424.15	257.36
424.52	259.79
424.89	262.49
425.26	265.03
425.64	267.43
426.01	270.12
426.38	272.83
426.75	275.66
427.13	278.57
427.50	281.60
427.87	284.71
428.24	287.80
428.61	290.73
428.99	294.12
429.36	297.66
429.73	301.21
430.10	304.68
430.47	308.40
430.85	312.04
431.22	315.98
431.59	320.26
431.96	324.20
432.33	328.58
432.70	332.78
433.08	337.74
433.45	342.30
433.82	346.89
434.19	352.03
434.56	356.98
434.93	361.70
435.30	366.40
435.68	371.63
436.05	376.94
436.42	382.10
436.79	386.80
437.16	391.88
437.53	397.21
437.90	402.68
438.27	407.74
438.64	413.15
439.01	418.07
439.38	422.50
439.75	426.80
440.13	431.68
440.50	436.27
440.87	439.98
441.24	443.92
441.61	448.32
441.98	451.40
442.35	455.12
442.72	458.89
443.09	462.55
443.46	464.72
443.83	466.10
444.20	467.30
444.57	469.10
444.94	469.80
445.31	470.69
445.68	471.41
446.05	471.79
446.42	471.30
446.79	470.59
447.16	469.60
447.53	468.97
447.90	466.72
448.27	464.54
448.64	461.72
449.01	459.69
449.37	455.90
449.74	452.33
450.11	448.12
450.48	443.49
450.85	438.85
451.22	434.83
451.59	431.05
451.96	427.52
452.33	422.63
452.70	418.31
453.07	412.96
453.43	407.54
453.80	402.39
454.17	397.47
454.54	392.96
454.91	388.13
455.28	383.37
455.65	379.03
456.02	374.55
456.38	370.64
456.75	365.91
457.12	362.04
457.49	358.17
457.86	354.36
458.23	351.31
458.59	347.73
458.96	344.20
459.33	340.99
459.70	337.81
460.07	335.28
460.43	332.44
460.80	329.76
461.17	327.40
461.54	324.92
461.91	322.50
462.27	320.09
462.64	318.04
463.01	315.86
463.38	313.73
463.74	311.53
464.11	309.68
464.48	308.00
464.85	306.21
465.21	304.92
465.58	303.44
465.95	301.60
466.32	300.21
466.68	298.83
467.05	297.32
467.42	295.90
467.78	294.48
468.15	292.99
468.52	291.96
468.88	290.70
469.25	289.52
469.62	288.58
469.98	287.53
470.35	286.63
470.72	285.71
471.08	284.73
471.45	284.09
471.82	283.25
472.18	282.33
472.55	281.73
472.92	280.96
473.28	280.42
473.65	279.87
474.02	279.25
474.38	278.77
474.75	278.46
475.11	277.99
475.48	277.67
475.85	277.59
476.21	277.43
476.58	277.28
476.94	277.28
477.31	277.20
477.67	277.20
478.04	277.20
478.41	277.32
478.77	277.61
479.14	277.63
479.50	277.95
479.87	278.41
480.23	278.85
480.60	279.29
480.96	279.72
481.33	280.43
481.69	281.02
482.06	281.61
482.42	282.31
482.79	283.10
483.15	284.03
483.52	284.90
483.88	285.80
484.25	286.83
484.61	287.83
484.98	288.95
485.34	290.25
485.71	291.51
486.07	292.87
486.44	294.12
486.80	295.71
487.17	297.26
487.53	299.06
487.90	300.80
488.26	302.65
488.62	304.67
488.99	306.50
489.35	308.70
489.72	311.13
490.08	313.41
490.44	315.84
490.81	318.47
491.17	321.18
491.54	324.11
491.90	327.08
492.26	330.18
492.63	333.61
492.99	336.88
493.36	340.64
493.72	344.47
494.08	348.55
494.45	352.83
494.81	357.34
495.17	361.86
495.54	366.68
495.90	371.81
496.26	377.07
496.63	382.65
496.99	388.47
497.35	394.34
497.72	400.67
498.08	407.07
498.44	413.82
498.80	421.01
499.17	428.38
499.53	436.02
499.89	444.07
500.26	452.16
500.62	460.62
500.98	469.47
501.34	478.55
501.71	488.07
502.07	497.79
502.43	507.85
502.79	518.10
503.16	528.97
503.52	539.79
503.88	550.95
504.24	562.55
504.60	574.42
504.97	586.73
505.33	599.16
505.69	612.69
506.05	626.11
506.41	639.78
506.78	653.72
507.14	668.01
507.50	682.53
507.86	697.71
508.22	713.31
508.59	728.73
508.95	744.72
509.31	760.92
509.67	777.51
510.03	794.32
510.39	811.91
510.75	829.76
511.12	847.92
511.48	866.43
511.84	885.17
512.20	903.84
512.56	923.28
512.92	943.00
513.28	962.45
513.64	982.31
514.00	1002.30
514.37	1022.74
514.73	1043.48
515.09	1064.46
515.45	1085.09
515.81	1106.15
516.17	1127.62
516.53	1149.19
516.89	1170.98
517.25	1192.63
517.61	1214.57
517.97	1236.04
518.33	1257.71
518.69	1279.63
519.05	1301.81
519.41	1324.16
519.77	1347.05
520.13	1369.01
520.49	1391.35
520.85	1414.49
521.21	1437.04
521.57	1459.81
521.93	1481.93
522.29	1504.91
522.65	1527.65
523.01	1550.62
523.37	1572.63
523.73	1595.11
524.09	1617.68
524.45	1639.95
524.81	1662.65
525.17	1685.35
525.53	1707.98
525.89	1730.78
526.25	1753.04
526.61	1774.61
526.97	1796.55
527.33	1817.92
527.68	1839.90
528.04	1861.42
528.40	1881.65
528.76	1902.98
529.12	1924.22
529.48	1946.31
529.84	1967.21
530.20	1987.68
530.56	2008.15
530.91	2029.39
531.27	2050.07
531.63	2070.17
531.99	2090.25
532.35	2109.59
532.71	2128.74
533.07	2148.85
533.42	2167.01
533.78	2185.87
534.14	2204.43
534.50	2221.74
534.86	2240.11
535.21	2257.12
535.57	2274.95
535.93	2292.67
536.29	2309.55
536.65	2326.13
537.00	2341.24
537.36	2356.46
537.72	2371.85
538.08	2387.21
538.44	2402.80
538.79	2418.40
539.15	2433.42
539.51	2448.36
539.87	2463.88
540.22	2478.60
540.58	2493.40
540.94	2508.20
541.29	2521.51
541.65	2533.95
542.01	2547.66
542.37	2559.33
542.72	2572.20
543.08	2583.48
543.44	2595.49
543.79	2605.75
544.15	2616.32
544.51	2627.89
544.87	2638.98
545.22	2648.48
545.58	2657.25
545.94	2664.35
546.29	2670.96
546.65	2677.45
547.01	2683.67
547.36	2689.50
547.72	2695.33
548.07	2699.31
548.43	2703.05
548.79	2707.07
549.14	2711.98
549.50	2716.16
549.86	2720.73
550.21	2724.57
550.57	2728.91
550.92	2731.43
551.28	2734.63
551.64	2737.06
551.99	2739.69
552.35	2741.40
552.70	2744.50
553.06	2747.51
553.41	2751.28
553.77	2754.42
554.13	2756.70
554.48	2759.21
554.84	2760.80
555.19	2761.32
555.55	2762.13
555.90	2763.08
556.26	2763.70
556.61	2764.02
556.97	2762.80
557.32	2762.39
557.68	2760.84
558.03	2759.22
558.39	2758.15
558.74	2757.58
559.10	2756.77
559.45	2754.58
559.81	2753.59
560.16	2750.88
560.52	2748.64
560.87	2745.38
561.23	2741.73
561.58	2739.66
561.94	2736.15
562.29	2732.36
562.64	2730.48
563.00	2727.96
563.35	2725.76
563.71	2724.35
564.06	2722.08
564.42	2720.29
564.77	2718.20
565.12	2716.38
565.48	2713.23
565.83	2710.10
566.19	2706.86
566.54	2702.51
566.89	2698.86
567.25	2695.09
567.60	2691.82
567.96	2688.17
568.31	2684.58
568.66	2680.50
569.02	2675.89
569.37	2670.81
569.72	2667.21
570.08	2661.60
570.43	2655.98
570.78	2650.51
571.14	2643.81
571.49	2636.94
571.84	2631.09
572.20	2623.61
572.55	2617.04
572.90	2610.26
573.26	2603.10
573.61	2595.92
573.96	2589.52
574.31	2581.65
574.67	2573.45
575.02	2564.90
575.37	2555.95
575.72	2547.00
576.08	2539.59
576.43	2530.79
576.78	2523.16
577.13	2514.80
577.49	2506.66
577.84	2498.97
578.19	2490.97
578.54	2483.69
578.90	2477.13
579.25	2468.29
579.60	2459.35
579.95	2450.09
580.30	2442.16
580.66	2434.01
581.01	2424.85
581.36	2415.34
581.71	2406.97
582.06	2398.46
582.42	2390.25
582.77	2381.30
583.12	2372.26
583.47	2363.23
583.82	2354.92
584.17	2345.60
584.53	2336.55
584.88	2327.75
585.23	2318.34
585.58	2308.58
585.93	2298.59
586.28	2288.98
586.63	2280.17
586.98	2271.76
587.34	2263.16
587.69	2253.69
588.04	2244.43
588.39	2236.37
588.74	2227.48
589.09	2218.72
589.44	2209.20
589.79	2200.56
590.14	2192.41
590.49	2184.02
590.84	2175.06
591.19	2166.93
591.54	2157.97
591.89	2147.83
592.25	2138.35
592.60	2129.36
592.95	2120.00
593.30	2110.35
593.65	2100.28
594.00	2090.25
594.35	2081.91
594.70	2072.43
595.05	2063.70
595.40	2054.96
595.75	2044.95
596.10	2036.56
596.45	2028.06
596.80	2019.99
597.15	2011.32
597.50	2002.12
597.85	1993.68
598.19	1984.90
598.54	1976.25
598.89	1968.45
599.24	1961.75
599.59	1954.55
599.94	1946.83
600.29	1938.93
600.64	1931.10
600.99	1923.02
601.34	1915.75
601.69	1906.70
602.04	1898.44
602.39	1890.01
602.74	1882.10
603.08	1875.45
603.43	1868.19
603.78	1859.73
604.13	1851.83
604.48	1843.86
604.83	1836.77
605.18	1829.62
605.53	1821.69
605.87	1813.60
606.22	1806.24
606.57	1798.09
606.92	1789.60
607.27	1781.79
607.62	1774.57
607.96	1767.58
608.31	1761.30
608.66	1753.41
609.01	1746.24
609.36	1738.44
609.70	1730.70
610.05	1722.95
610.40	1714.77
610.75	1705.95
611.10	1698.38
611.44	1688.69
611.79	1679.60
612.14	1670.27
612.49	1660.35
612.83	1651.55
613.18	1641.64
613.53	1632.15
613.88	1622.35
614.22	1613.44
614.57	1603.65
614.92	1594.25
615.27	1584.94
615.61	1574.69
615.96	1565.76
616.31	1557.00
616.65	1549.06
617.00	1540.54
617.35	1531.38
617.70	1522.08
618.04	1513.17
618.39	1503.68
618.74	1495.43
619.08	1486.81
619.43	1478.23
619.78	1470.35
620.12	1462.37
620.47	1454.67
620.82	1445.95
621.16	1437.70
621.51	1429.31
621.85	1421.02
622.20	1412.49
622.55	1403.96
622.89	1395.91
623.24	1387.62
623.59	1378.71
623.93	1370.08
624.28	1361.79
624.62	1353.65
624.97	1345.41
625.32	1337.48
625.66	1330.11
626.01	1322.83
626.35	1315.31
626.70	1307.60
627.04	1300.13
627.39	1292.24
627.73	1284.68
628.08	1277.65
628.43	1269.99
628.77	1262.20
629.12	1254.55
629.46	1247.50
629.81	1240.06
630.15	1232.61
630.50	1225.40
630.84	1218.11
631.19	1210.94
631.53	1203.80
631.88	1196.20
632.22	1188.53
632.57	1181.50
632.91	1174.02
633.26	1166.29
633.60	1159.28
633.95	1152.39
634.29	1144.98
634.64	1138.40
634.98	1131.32
635.32	1124.29
635.67	1117.73
636.01	1111.14
636.36	1104.54
636.70	1097.94
637.05	1091.10
637.39	1084.45
637.73	1077.88
638.08	1072.04
638.42	1066.04
638.77	1059.55
639.11	1053.25
639.45	1047.28
639.80	1040.53
640.14	1033.87
640.49	1027.73
640.83	1021.34
641.17	1015.08
641.52	1008.90
641.86	1002.19
642.20	995.82
642.55	989.05
642.89	982.76
643.23	976.29
643.58	970.22
643.92	963.71
644.26	957.55
644.61	951.48
644.95	945.39
645.29	939.03
645.64	932.24
645.98	926.10
646.32	920.20
646.66	913.89
647.01	908.01
647.35	902.17
647.69	895.83
648.04	889.68
648.38	883.55
648.72	877.53
649.06	871.47
649.41	865.55
649.75	859.68
650.09	853.49
650.43	847.57
650.78	841.27
651.12	835.17
651.46	829.49
651.80	823.56
652.14	817.54
652.49	811.37
652.83	805.63
653.17	799.42
653.51	793.31
653.85	787.66
654.20	781.74
654.54	775.93
654.88	770.41
655.22	764.77
655.56	758.95
655.90	752.91
656.25	747.15
656.59	741.42
656.93	736.28
657.27	731.10
657.61	725.55
657.95	720.65
658.29	715.39
658.64	710.17
658.98	704.92
659.32	699.48
659.66	694.26
660.00	688.79
660.34	683.48
660.68	678.27
661.02	673.18
661.36	668.26
661.70	663.35
662.05	658.61
662.39	654.04
662.73	649.55
663.07	645.13
663.41	640.81
663.75	636.11
664.09	631.25
664.43	626.45
664.77	622.05
665.11	617.27
665.45	613.01
665.79	608.63
666.13	604.26
666.47	600.07
666.81	596.00
667.15	591.98
667.49	588.08
667.83	584.28
668.17	580.27
668.51	576.52
668.85	572.74
669.19	568.95
669.53	564.89
669.87	560.86
670.21	557.02
670.55	553.10
670.89	549.81
671.23	546.46
671.57	542.92
671.91	539.35
672.25	535.87
672.58	532.29
672.92	528.72
673.26	525.48
673.60	522.23
673.94	518.75
674.28	515.41
674.62	512.40
674.96	509.12
675.30	506.15
675.64	502.91
675.97	499.70
676.31	496.54
676.65	493.58
676.99	490.94
677.33	488.02
677.67	485.04
678.01	481.88
678.34	478.84
678.68	475.99
679.02	472.95
679.36	470.13
679.70	467.21
680.04	464.34
680.37	461.29
680.71	458.44
681.05	455.77
681.39	453.02
681.73	450.22
682.06	447.67
682.40	444.94
682.74	442.28
683.08	439.65
683.42	437.04
683.75	434.55
684.09	431.74
684.43	429.26
684.77	426.61
685.10	424.08
685.44	421.43
685.78	418.98
686.12	416.85
686.45	414.44
686.79	411.96
687.13	409.80
687.46	407.60
687.80	405.41
688.14	403.03
688.48	400.85
688.81	398.41
689.15	396.18
689.49	394.02
689.82	391.86
690.16	389.47
690.50	387.25
690.83	384.98
691.17	382.84
691.51	380.65
691.84	378.63
692.18	376.59
692.52	374.72
692.85	372.76
693.19	370.80
693.52	368.81
693.86	367.04
694.20	365.09
694.53	363.18
694.87	361.14
695.21	359.36
695.54	357.45
695.88	355.71
696.21	353.84
696.55	351.97
696.88	350.21
697.22	348.55
697.56	346.93
697.89	345.17
698.23	343.50
698.56	341.80
698.90	340.31
699.23	338.70
699.57	337.00
699.90	335.28
700.24	333.51
700.58	331.91
700.91	330.42
701.25	328.99
701.58	327.59
701.92	326.24
702.25	324.87
702.59	323.43
702.92	322.01
703.26	320.71
703.59	319.47
703.93	318.28
704.26	317.05
704.60	315.70
704.93	314.49
705.26	313.28
705.60	312.18
705.93	310.88
706.27	309.76
706.60	308.73
706.94	307.64
707.27	306.47
707.61	305.39
707.94	304.14
708.27	302.81
708.61	301.65
708.94	300.51
709.28	299.32
709.61	298.30
709.94	297.21
710.28	296.04
710.61	294.89
710.95	293.61
711.28	292.67
711.61	291.62
711.95	290.66
712.28	289.64
712.61	288.62
712.95	287.70
713.28	286.69
713.61	285.64
713.95	284.70
714.28	283.87
714.61	282.84
714.95	281.91
715.28	280.97
715.61	280.00
715.95	279.09
716.28	278.25
716.61	277.42
716.95	276.62
717.28	275.75
717.61	274.99
717.94	274.21
718.28	273.30
718.61	272.63
718.94	271.86
719.27	271.13
719.61	270.42
719.94	269.61
720.27	268.81
720.60	268.13
720.94	267.30
721.27	266.51
721.60	265.94
721.93	265.35
722.27	264.83
722.60	264.23
722.93	263.59
723.26	262.95
723.59	262.33
723.93	261.69
724.26	261.14
724.59	260.50
724.92	259.94
725.25	259.39
725.59	258.70
725.92	258.19
726.25	257.59
726.58	257.03
726.91	256.52
727.24	256.02
727.57	255.55
727.91	255.16
728.24	254.73
728.57	254.21
728.90	253.74
729.23	253.13
729.56	252.75
729.89	252.25
730.22	251.71
730.55	251.13
730.89	250.65
731.22	250.15
731.55	249.73
731.88	249.29
732.21	248.91
732.54	248.55
732.87	248.10
733.20	247.71
733.53	247.22
733.86	246.80
734.19	246.35
734.52	245.91
734.85	245.59
735.18	245.09
735.51	244.74
735.84	244.35
736.17	244.08
736.50	243.55
736.83	243.38
737.16	243.07
737.49	242.77
737.82	242.43
738.15	242.09
738.48	241.78
738.81	241.43
739.14	241.02
739.47	240.55
739.80	240.16
740.13	239.83
740.46	239.47
740.79	239.09
741.12	238.80
741.45	238.48
741.78	238.17
742.11	237.94
742.44	237.62
742.77	237.31
743.10	236.91
743.43	236.65
743.75	236.14
744.08	236.08
744.41	235.75
744.74	235.49
745.07	235.20
745.40	234.86
745.73	234.65
746.06	234.26
746.39	234.06
746.71	233.74
747.04	233.41
747.37	233.22
747.70	232.96
748.03	232.65
748.36	232.43
748.68	232.10
749.01	231.82
749.34	231.52
749.67	231.30
750.00	231.11
750.33	231.01
750.65	230.81
750.98	230.31
751.31	230.08
751.64	229.87
751.97	229.77
752.29	229.56
752.62	229.21
752.95	229.01
753.28	228.79
753.60	228.59
753.93	228.38
754.26	228.16
754.59	227.97
754.91	227.77
755.24	227.54
755.57	227.36
755.90	227.21
756.22	227.03
756.55	226.87
756.88	226.69
757.20	226.33
757.53	226.08
757.86	225.90
758.19	225.74
758.51	225.48
758.84	225.21
759.17	225.05
759.49	224.88
759.82	224.85
760.15	224.70
760.47	224.53
760.80	224.31
761.13	224.13
761.45	223.93
761.78	223.74
762.11	223.57
762.43	223.38
762.76	223.20
763.08	223.00
763.41	222.75
763.74	222.64
764.06	222.49
764.39	222.35
764.71	222.20
765.04	222.01
765.37	221.91
765.69	221.66
766.02	221.49
766.34	221.35
766.67	221.10
767.00	220.93
767.32	220.92
767.65	220.96
767.97	220.78
768.30	220.70
768.62	220.63
768.95	220.45
769.27	220.35
769.60	220.26
769.92	220.18
770.25	220.08
770.57	219.91
770.90	219.82
771.22	219.69
771.55	219.60
771.87	219.49
772.20	219.38
772.52	219.47
772.85	219.62
773.17	219.55
773.50	219.50
773.82	219.45
774.15	219.27
774.47	219.06
774.80	218.98
775.12	218.89
775.45	218.81
775.77	218.77
776.09	218.70
776.42	218.53
776.74	218.51
777.07	218.38
777.39	218.24
777.72	218.13
778.04	218.05
778.36	217.95
778.69	217.92
779.01	217.88
779.33	217.69
779.66	217.39
779.98	217.34
780.31	217.32
780.63	217.27
780.95	217.25
781.28	217.11
781.60	217.11
781.92	217.14
782.25	217.03
782.57	216.94
782.89	216.85
783.22	216.85
783.54	216.74
783.86	216.77
784.19	216.79
784.51	216.83
784.83	216.80
785.16	216.82
785.48	216.71
785.80	216.68
786.12	216.65
786.45	216.60
786.77	216.53
787.09	216.42
787.42	216.36
787.74	216.28
788.06	216.31
788.38	216.15
788.71	215.98
789.03	215.97
789.35	216.03
789.67	215.93
789.99	215.83
790.32	215.76
790.64	215.70
790.96	215.76
791.28	215.70
791.61	215.63
791.93	215.56
792.25	215.53
792.57	215.57
792.89	215.50
793.21	215.47
793.54	215.44
793.86	215.40
794.18	215.35
794.50	215.33
794.82	215.28
795.14	215.35
795.47	215.38
795.79	215.32
796.11	215.20
796.43	215.18
796.75	215.24
797.07	215.23
797.39	215.28
797.71	215.08
798.04	215.00
798.36	215.00
798.68	214.95
799.00	214.97
799.32	214.83
799.64	214.81
799.96	214.80
800.28	214.83
800.60	214.75
800.92	214.74
801.24	214.60
801.56	214.54
801.89	214.41
802.21	214.40
802.53	214.38
802.85	214.38
803.17	214.45
803.49	214.39
803.81	214.34
804.13	214.25
804.45	214.24
804.77	214.17
805.09	214.16
805.41	214.12
805.73	214.00
806.05	214.01
806.37	214.00
806.69	213.97
807.01	213.86
807.33	213.81
807.65	213.69
807.97	213.79
808.28	213.76
808.60	213.82
808.92	213.75
809.24	213.82
809.56	213.75
809.88	213.61
810.20	213.52
810.52	213.54
810.84	213.44
811.16	213.47
811.48	213.47
811.80	213.43
812.12	213.39
812.43	213.42
812.75	213.34
813.07	213.24
813.39	213.21
813.71	213.16
814.03	213.22
814.35	213.23
814.67	213.15
814.98	213.14
815.30	213.05
815.62	213.01
815.94	212.87
816.26	212.87
816.58	212.83
816.89	212.87
817.21	212.71
817.53	212.76
817.85	212.71
818.17	212.71
818.48	212.73
818.80	212.75
819.12	212.68
819.44	212.63
819.76	212.67
820.07	212.60
820.39	212.58
820.71	212.60
821.03	212.51
821.34	212.49
821.66	212.47
821.98	212.49
822.30	212.42
822.61	212.48
822.93	212.44
823.25	212.49
823.57	212.42
823.88	212.42
824.20	212.39
824.52	212.36
824.83	212.29
825.15	212.20
825.47	212.20
825.79	212.16
826.10	212.19
826.42	212.11
826.74	212.13
827.05	212.15
827.37	212.04
827.69	212.05
828.00	212.05
828.32	212.10
828.64	212.04
828.95	212.13
829.27	212.09
829.58	212.05
829.90	212.06
830.22	212.03
830.53	212.08
830.85	212.00
831.17	211.94
831.48	211.95
831.80	211.98
832.11	211.99
832.43	212.06
832.75	212.02
833.06	212.14
833.38	212.01
833.69	212.00
834.01	212.05
834.32	212.04
834.64	212.03
834.96	212.06
835.27	212.09
835.59	211.98
835.90	211.90
836.22	211.90
836.53	211.83
836.85	211.91
837.16	212.05
837.48	212.12
837.79	212.23
838.11	212.22
838.42	212.11
838.74	212.02
839.05	211.92
839.37	211.91
839.68	211.74
840.00	211.75
840.31	211.74
840.63	211.65
840.94	211.65
841.26	211.57
841.57	211.47
841.88	211.41
842.20	211.47
842.51	211.47
842.83	211.55
843.14	211.65
843.46	211.60
843.77	211.50
844.08	211.41
844.40	211.33
844.71	211.32
845.03	211.42
845.34	211.38
845.65	211.39
845.97	211.39
846.28	211.47
846.60	211.52
846.91	211.52
847.22	211.62
847.54	211.66
847.85	211.76
848.16	211.74
848.48	211.81
848.79	211.88
849.10	211.89
849.42	211.84
849.73	211.78
850.04	211.80
850.36	211.74
850.67	211.79
850.98	211.80
851.30	211.84
851.61	211.87
851.92	211.89
852.23	211.96
852.55	212.02
852.86	212.06
853.17	212.05
853.49	211.98
853.80	211.91
854.11	211.91
854.42	211.89
854.74	211.84
855.05	211.79
855.36	211.67
855.67	211.71
855.99	211.74
856.30	211.83
856.61	211.81
856.92	211.83
857.23	211.86
857.55	211.83
857.86	211.79
858.17	211.74
858.48	211.76
858.79	211.70
859.11	211.65
859.42	211.62
859.73	211.58
860.04	211.63
860.35	211.60
860.66	211.57
860.98	211.53
861.29	211.61
861.60	211.57
861.91	211.62
862.22	211.58
862.53	211.58
862.84	211.36
863.16	211.37
863.47	211.33
863.78	211.30
864.09	211.32
864.40	211.30
864.71	211.31
865.02	211.35
865.33	211.38
865.64	211.40
865.95	211.42
866.27	211.56
866.58	211.52
866.89	211.53
867.20	211.49
867.51	211.46
867.82	211.41
868.13	211.48
868.44	211.47
868.75	211.50
869.06	211.45
869.37	211.51
869.68	211.41
869.99	211.48
870.30	211.44
870.61	211.46
870.92	211.40
871.23	211.36
871.54	211.35
871.85	211.36
872.16	211.34
872.47	211.25
872.78	211.18
873.09	211.22
873.40	211.22
873.71	211.20
874.02	211.22
874.33	211.26
874.64	211.27
874.95	211.25
875.26	211.23
875.56	211.23
875.87	211.23
876.18	211.30
876.49	211.46
876.80	211.44
877.11	211.36
877.42	211.48
877.73	211.47
878.04	211.36
878.35	211.35
878.66	211.35
878.96	211.32
879.27	211.32
879.58	211.36
879.89	211.33
880.20	211.40
880.51	211.37
880.82	211.32
881.12	211.29
881.43	211.31
881.74	211.25
882.05	211.25
882.36	211.26
882.67	211.26
882.97	210.99
883.28	211.01
883.59	211.10
883.90	211.09
884.21	211.11
884.51	211.17
884.82	211.06
885.13	211.12
885.44	211.09
885.74	211.04
886.05	211.11
886.36	211.16
886.67	211.14
886.98	211.30
887.28	211.30
887.59	211.29
887.90	211.28
888.20	211.31
888.51	211.36
888.82	211.37
889.13	211.36
889.43	211.53
889.74	211.57
890.05	211.52
890.35	211.50
890.66	211.59
890.97	211.53
891.28	211.62
891.58	211.53
891.89	211.62
892.20	211.65
892.50	211.62
892.81	211.64
893.12	211.64
893.42	211.50
893.73	211.56
894.04	211.54
894.34	211.52
894.65	211.55
894.95	211.47
895.26	211.47
895.57	211.59
895.87	211.42
896.18	211.40
896.48	211.42
896.79	211.32
897.10	211.29
897.40	211.32
897.71	211.37
898.01	211.45
898.32	211.42
898.63	211.34
898.93	211.25
899.24	211.20
899.54	211.13
899.85	211.17
900.15	211.17
900.46	211.20
900.76	211.26
901.07	211.14
901.38	211.12
901.68	211.15
901.99	211.06
902.29	211.10
902.60	211.06
902.90	211.03
903.21	211.08
903.51	211.11
903.82	211.17
904.12	211.17
904.43	211.22
904.73	211.25
905.03	211.41
905.34	211.59
905.64	211.62
905.95	211.70
906.25	211.68
906.56	211.58
906.86	211.62
907.17	211.59
907.47	211.60
907.77	211.62
908.08	211.52
908.38	211.52
908.69	211.52
908.99	211.63
909.30	211.70
909.60	211.68
909.90	211.59
910.21	211.54
910.51	211.44
910.81	211.38
911.12	211.41
911.42	211.29
911.73	211.12
912.03	211.12
912.33	211.12
912.64	211.14
912.94	211.23
913.24	211.18
913.55	211.19
913.85	211.24
914.15	211.32
914.46	211.37
914.76	211.39
915.06	211.39
915.37	211.30
915.67	211.26
915.97	211.29
916.27	211.25
916.58	211.31
916.88	211.34
917.18	211.31
917.49	211.38
917.79	211.45
918.09	211.50
918.39	211.47
918.70	211.45
919.00	211.41
919.30	211.49
919.60	211.44
919.91	211.34
920.21	211.34
920.51	211.28
920.81	211.23
921.12	211.22
921.42	211.28
921.72	211.32
922.02	211.37
922.32	211.44
922.63	211.51
922.93	211.46
923.23	211.43
923.53	211.46
923.83	211.35
924.13	211.37
924.44	211.36
924.74	211.43
925.04	211.48
925.34	211.44
925.64	211.39
925.94	211.45
926.24	211.56
926.55	211.54
926.85	211.61
927.15	211.63
927.45	211.57
927.75	211.51
928.05	211.48
928.35	211.44
928.65	211.40
928.95	211.30
929.26	211.34
929.56	211.37
929.86	211.35
930.16	211.32
930.46	211.25
930.76	211.20
931.06	211.18
931.36	211.16
931.66	211.20
931.96	211.15
932.26	211.01
932.56	211.04
932.86	211.07
933.16	211.01
933.46	211.01
933.76	211.00
934.06	211.08
934.36	211.11
934.66	211.14
934.96	211.15
935.26	211.26
935.56	211.30
935.86	211.25
936.16	211.30
936.46	211.33
936.76	211.38
937.06	211.39
937.36	211.37
937.66	211.42
937.96	211.37
938.26	211.34
938.56	211.41
938.86	211.38
939.16	211.38
939.46	211.40
939.76	211.36
940.06	211.43
940.35	211.39
940.65	211.28
940.95	211.20
941.25	211.18
941.55	211.13
941.85	211.10
942.15	211.17
942.45	211.11
942.75	211.07
943.04	210.94
943.34	210.99
943.64	210.98
943.94	210.89
944.24	210.94
944.54	211.07
944.84	211.10
945.13	211.10
945.43	211.10
945.73	211.08
946.03	211.04
946.33	211.00
946.62	210.93
946.92	210.95
947.22	211.00
947.52	210.99
947.82	210.97
948.11	210.93
948.41	210.87
948.71	210.88
949.01	210.89
949.31	210.93
949.60	210.90
949.90	210.88
950.20	210.85
950.50	210.83
950.79	210.68
951.09	210.72
951.39	210.65
951.69	210.67
951.98	210.72
952.28	210.83
952.58	210.85
952.87	210.84
953.17	210.85
953.47	210.77
953.76	210.74
954.06	210.70
954.36	210.64
954.66	210.65
954.95	210.61
955.25	210.62
955.55	210.63
955.84	210.59
956.14	210.62
956.44	210.60
956.73	210.58
957.03	210.59
957.32	210.46
957.62	210.38
957.92	210.36
958.21	210.37
958.51	210.53
958.81	210.52
959.10	210.56
959.40	210.63
959.69	210.69
959.99	210.75
960.29	210.79
960.58	210.83
960.88	210.87
961.17	210.90
961.47	210.88
961.76	210.93
962.06	210.97
962.36	210.90
962.65	210.97
962.95	211.00
963.24	211.04
963.54	211.11
963.83	211.15
964.13	211.18
964.42	211.07
964.72	210.86
965.01	210.85
965.31	210.86
965.60	210.75
965.90	210.87
966.19	210.82
966.49	210.83
966.78	210.79
967.08	210.76
967.37	210.75
967.67	210.75
967.96	210.79
968.26	210.78
968.55	210.80
968.85	210.78
969.14	210.76
969.43	210.79
969.73	210.77
970.02	210.81
970.32	210.84
970.61	210.88
970.91	210.88
971.20	210.83
971.49	210.80
971.79	210.91
972.08	210.76
972.38	210.75
972.67	210.71
972.96	210.74
973.26	210.77
973.55	210.82
973.85	210.77
974.14	210.71
974.43	210.65
974.73	210.64
975.02	210.64
975.31	210.66
975.61	210.60
975.90	210.65
976.19	210.65
976.49	210.65
976.78	210.61
977.07	210.62
977.37	210.65
977.66	210.69
977.95	210.66
978.24	210.70
978.54	210.73
978.83	210.74
979.12	210.70
979.42	210.69
979.71	210.62
980.00	210.69
980.29	210.72
980.59	210.74
980.88	210.82
981.17	210.82
981.46	210.80
981.76	210.83
982.05	210.85
982.34	210.89
982.63	210.91
982.93	210.99
983.22	211.09
983.51	211.09
983.80	211.14
984.09	211.11
984.39	211.11
984.68	211.14
984.97	211.24
985.26	211.26
985.55	211.33
985.85	211.31
986.14	211.30
986.43	211.28
986.72	211.27
987.01	211.18
987.30	211.19
987.59	211.15
987.89	211.14
988.18	211.08
988.47	211.04
988.76	210.97
989.05	210.99
989.34	210.88
989.63	210.94
989.92	210.90
990.22	210.89
990.51	210.83
990.80	210.86
991.09	210.88
991.38	210.95
991.67	210.84
991.96	210.82
992.25	210.82
992.54	210.84
992.83	210.94
993.12	210.97
993.41	210.98
993.70	211.09
993.99	211.12
994.28	211.17
994.58	211.20
994.87	211.19
995.16	211.06
995.45	211.07
995.74	211.03
996.03	211.04
996.32	211.14
996.61	211.24
996.90	211.23
997.19	211.18
997.48	211.14
997.77	211.13
998.06	211.20
998.34	211.20
998.63	211.22
998.92	211.21
999.21	211.20
999.50	211.23
999.79	211.17
1000.08	211.20
1000.37	211.22
1000.66	211.19
1000.95	211.24
1001.24	211.32
1001.53	211.35
1001.82	211.35
1002.11	211.37
1002.40	211.30
1002.68	211.30
1002.97	211.33
1003.26	211.30
1003.55	211.28
1003.84	211.31
1004.13	211.33
1004.42	211.35
1004.71	211.35
1004.99	211.29
1005.28	211.42
1005.57	211.36
1005.86	211.42
1006.15	211.40
1006.44	211.30
1006.72	211.34
1007.01	211.32
1007.30	211.34
1007.59	211.32
1007.88	211.29
1008.17	211.27
1008.45	211.28
1008.74	211.17
1009.03	211.09
1009.32	211.09
1009.60	211.08
1009.89	211.07
1010.18	210.97
1010.47	210.91
1010.76	210.86
1011.04	210.85
1011.33	210.83
1011.62	210.87
1011.91	210.86
1012.19	210.86
1012.48	210.87
1012.77	210.89
1013.05	210.98
1013.34	210.96
1013.63	210.99
1013.92	211.02
1014.20	211.03
1014.49	210.99
1014.78	211.02
1015.06	211.04
1015.35	211.04
1015.64	211.05
1015.92	211.11
1016.21	211.11
1016.50	211.10
1016.78	211.16
1017.07	211.17
1017.36	211.06
1017.64	210.97
1017.93	210.93
1018.22	210.95
1018.50	210.97
1018.79	210.97
1019.08	210.88
1019.36	210.90
1019.65	210.81
1019.93	210.82
1020.22	210.79
1020.51	210.93
1020.79	210.93
1021.08	211.70
1021.36	210.30
1021.65	211.55
1021.94	211.00
1022.22	211.85
1022.51	210.15
1022.79	211.10
1023.08	210.90
1023.36	213.35
1023.65	210.25
>>>>>End Processed Spectral Data<<<<<
