SpectraSuite Data File
++++++++++++++++++++++++++++++++++++
Date: Mon Feb 25 17:31:57 EST 2013
User: group
Dark Spectrum Present: No
Reference Spectrum Present: No
Number of Sampled Component Spectra: 1
Spectrometers: USB2E7196
Integration Time (usec): 52000 (USB2E7196)
Spectra Averaged: 20 (USB2E7196)
Boxcar Smoothing: 10 (USB2E7196)
Correct for Electrical Dark: No (USB2E7196)
Strobe/Lamp Enabled: No (USB2E7196)
Correct for Detector Non-linearity: No (USB2E7196)
Correct for Stray Light: No (USB2E7196)
Number of Pixels in Processed Spectrum: 2048
>>>>>Begin Processed Spectral Data<<<<<
339.09	0.00
339.48	198.00
339.86	200.30
340.24	201.40
340.63	202.85
341.01	207.30
341.39	204.65
341.78	206.20
342.16	208.40
342.54	208.45
342.93	197.76
343.31	207.73
343.69	208.32
344.07	208.76
344.46	209.23
344.84	209.56
345.22	209.73
345.60	210.03
345.99	210.22
346.37	210.32
346.75	210.49
347.13	210.53
347.52	210.57
347.90	210.66
348.28	210.63
348.66	210.78
349.05	210.74
349.43	210.86
349.81	210.93
350.19	211.01
350.57	211.06
350.96	211.16
351.34	211.33
351.72	211.47
352.10	211.61
352.48	211.60
352.87	211.76
353.25	211.86
353.63	211.95
354.01	212.06
354.39	212.24
354.77	212.32
355.15	212.46
355.54	212.57
355.92	212.62
356.30	212.69
356.68	212.90
357.06	212.96
357.44	213.02
357.82	213.07
358.20	213.26
358.58	213.42
358.97	213.51
359.35	213.60
359.73	213.69
360.11	213.72
360.49	213.87
360.87	213.95
361.25	213.99
361.63	214.08
362.01	214.20
362.39	214.18
362.77	214.15
363.15	214.20
363.53	214.21
363.91	214.25
364.29	214.37
364.67	214.27
365.05	214.36
365.43	214.39
365.81	214.45
366.19	214.52
366.57	214.60
366.95	214.69
367.33	214.64
367.71	214.63
368.09	214.68
368.47	214.64
368.85	214.64
369.23	214.67
369.61	214.64
369.99	214.65
370.37	214.68
370.75	214.85
371.13	214.81
371.51	214.77
371.89	214.79
372.27	214.76
372.65	214.73
373.03	214.62
373.41	214.63
373.78	214.51
374.16	214.33
374.54	214.26
374.92	214.11
375.30	214.11
375.68	213.92
376.06	213.89
376.44	213.87
376.82	213.79
377.19	213.74
377.57	213.63
377.95	213.57
378.33	213.47
378.71	213.26
379.09	213.23
379.47	213.25
379.84	213.06
380.22	213.00
380.60	212.92
380.98	212.97
381.36	212.95
381.73	212.98
382.11	212.94
382.49	212.93
382.87	212.89
383.25	212.82
383.62	213.04
384.00	212.92
384.38	212.84
384.76	212.82
385.13	212.84
385.51	212.78
385.89	212.70
386.27	212.60
386.64	212.52
387.02	212.47
387.40	212.44
387.78	212.48
388.15	212.35
388.53	212.29
388.91	212.19
389.29	212.08
389.66	211.96
390.04	211.92
390.42	211.85
390.79	211.88
391.17	211.83
391.55	211.65
391.92	211.64
392.30	211.67
392.68	211.65
393.05	211.60
393.43	211.63
393.81	211.61
394.18	211.67
394.56	211.71
394.94	211.70
395.31	211.58
395.69	211.59
396.06	211.68
396.44	211.67
396.82	211.65
397.19	211.74
397.57	211.71
397.95	211.75
398.32	211.75
398.70	211.81
399.07	211.85
399.45	211.88
399.82	211.94
400.20	211.93
400.58	212.01
400.95	211.99
401.33	212.09
401.70	212.28
402.08	212.41
402.45	212.45
402.83	212.61
403.20	212.71
403.58	212.85
403.95	212.96
404.33	213.13
404.71	213.20
405.08	213.38
405.46	213.56
405.83	213.74
406.21	213.83
406.58	213.97
406.96	214.13
407.33	214.33
407.70	214.51
408.08	214.85
408.45	214.97
408.83	215.31
409.20	215.55
409.58	215.72
409.95	215.99
410.33	216.37
410.70	216.62
411.08	217.03
411.45	217.45
411.82	217.83
412.20	218.24
412.57	218.82
412.95	219.15
413.32	219.62
413.69	220.07
414.07	220.73
414.44	221.31
414.82	221.99
415.19	222.75
415.56	223.48
415.94	224.20
416.31	225.09
416.68	225.90
417.06	226.87
417.43	227.83
417.81	228.84
418.18	229.91
418.55	231.08
418.93	232.25
419.30	233.36
419.67	234.62
420.04	236.00
420.42	237.43
420.79	239.19
421.16	240.99
421.54	242.87
421.91	244.63
422.28	246.55
422.66	248.53
423.03	250.50
423.40	252.45
423.77	254.63
424.15	256.88
424.52	259.20
424.89	261.63
425.26	264.09
425.64	266.50
426.01	268.97
426.38	271.64
426.75	274.42
427.13	277.26
427.50	280.21
427.87	283.34
428.24	286.29
428.61	289.19
428.99	292.31
429.36	295.80
429.73	299.28
430.10	302.56
430.47	306.05
430.85	309.66
431.22	313.63
431.59	317.70
431.96	321.53
432.33	325.81
432.70	330.02
433.08	334.84
433.45	339.27
433.82	343.89
434.19	348.93
434.56	353.80
434.93	358.55
435.30	363.30
435.68	368.48
436.05	373.74
436.42	378.77
436.79	383.50
437.16	388.35
437.53	393.61
437.90	398.86
438.27	404.08
438.64	409.44
439.01	414.33
439.38	418.70
439.75	422.93
440.13	427.77
440.50	432.20
440.87	435.90
441.24	439.67
441.61	443.84
441.98	446.91
442.35	450.56
442.72	454.22
443.09	457.66
443.46	459.76
443.83	461.19
444.20	462.35
444.57	464.06
444.94	464.90
445.31	465.53
445.68	466.37
446.05	466.43
446.42	465.67
446.79	464.96
447.16	464.06
447.53	463.39
447.90	461.30
448.27	459.29
448.64	456.39
449.01	454.46
449.37	450.92
449.74	447.44
450.11	443.37
450.48	438.86
450.85	434.29
451.22	430.35
451.59	426.59
451.96	423.08
452.33	418.35
452.70	414.06
453.07	409.10
453.43	403.87
453.80	399.06
454.17	394.35
454.54	389.82
454.91	385.15
455.28	380.60
455.65	376.11
456.02	371.86
456.38	368.22
456.75	363.69
457.12	359.83
457.49	356.02
457.86	352.20
458.23	349.11
458.59	345.72
458.96	342.13
459.33	339.00
459.70	335.87
460.07	333.39
460.43	330.49
460.80	327.82
461.17	325.50
461.54	323.04
461.91	320.73
462.27	318.40
462.64	316.28
463.01	314.05
463.38	312.10
463.74	309.83
464.11	307.94
464.48	306.26
464.85	304.49
465.21	303.20
465.58	301.89
465.95	300.10
466.32	298.63
466.68	297.23
467.05	295.84
467.42	294.45
467.78	293.02
468.15	291.66
468.52	290.75
468.88	289.43
469.25	288.26
469.62	287.34
469.98	286.34
470.35	285.40
470.72	284.43
471.08	283.44
471.45	282.63
471.82	281.85
472.18	280.87
472.55	280.30
472.92	279.55
473.28	278.93
473.65	278.35
474.02	277.86
474.38	277.48
474.75	277.10
475.11	276.75
475.48	276.53
475.85	276.39
476.21	276.13
476.58	276.00
476.94	275.98
477.31	275.97
477.67	275.93
478.04	276.06
478.41	276.34
478.77	276.68
479.14	276.93
479.50	277.15
479.87	277.60
480.23	277.93
480.60	278.40
480.96	278.86
481.33	279.59
481.69	280.24
482.06	280.86
482.42	281.50
482.79	282.25
483.15	283.04
483.52	284.05
483.88	284.95
484.25	285.99
484.61	286.98
484.98	288.04
485.34	289.38
485.71	290.77
486.07	292.09
486.44	293.31
486.80	294.86
487.17	296.52
487.53	298.31
487.90	300.20
488.26	302.10
488.62	304.18
488.99	306.13
489.35	308.28
489.72	310.52
490.08	312.90
490.44	315.27
490.81	317.88
491.17	320.50
491.54	323.38
491.90	326.30
492.26	329.55
492.63	332.95
492.99	336.34
493.36	339.96
493.72	343.80
494.08	348.00
494.45	352.27
494.81	356.78
495.17	361.32
495.54	366.23
495.90	371.36
496.26	376.45
496.63	381.93
496.99	387.73
497.35	393.75
497.72	400.05
498.08	406.54
498.44	413.24
498.80	420.33
499.17	427.74
499.53	435.43
499.89	443.40
500.26	451.41
500.62	459.76
500.98	468.50
501.34	477.64
501.71	486.89
502.07	496.43
502.43	506.40
502.79	516.62
503.16	527.20
503.52	537.96
503.88	549.36
504.24	561.01
504.60	572.81
504.97	585.10
505.33	597.58
505.69	610.88
506.05	624.40
506.41	637.90
506.78	651.72
507.14	665.80
507.50	680.43
507.86	695.46
508.22	710.91
508.59	726.42
508.95	742.27
509.31	758.39
509.67	775.11
510.03	791.90
510.39	809.50
510.75	827.09
511.12	845.20
511.48	863.33
511.84	881.95
512.20	900.67
512.56	919.87
512.92	939.27
513.28	958.81
513.64	978.42
514.00	998.59
514.37	1018.74
514.73	1039.28
515.09	1059.94
515.45	1080.76
515.81	1101.70
516.17	1122.90
516.53	1144.25
516.89	1165.75
517.25	1186.92
517.61	1208.52
517.97	1229.78
518.33	1251.19
518.69	1272.64
519.05	1294.55
519.41	1316.25
519.77	1338.56
520.13	1360.42
520.49	1382.23
520.85	1404.73
521.21	1427.05
521.57	1449.89
521.93	1471.66
522.29	1494.30
522.65	1516.63
523.01	1538.91
523.37	1560.92
523.73	1583.30
524.09	1604.97
524.45	1627.07
524.81	1649.56
525.17	1672.06
525.53	1694.26
525.89	1716.56
526.25	1738.36
526.61	1759.42
526.97	1781.04
527.33	1802.01
527.68	1823.48
528.04	1844.96
528.40	1865.15
528.76	1885.85
529.12	1905.91
529.48	1927.35
529.84	1947.75
530.20	1967.80
530.56	1987.90
530.91	2008.45
531.27	2028.27
531.63	2048.50
531.99	2068.34
532.35	2087.39
532.71	2106.18
533.07	2125.53
533.42	2143.81
533.78	2162.84
534.14	2181.39
534.50	2198.36
534.86	2216.39
535.21	2233.05
535.57	2250.34
535.93	2267.34
536.29	2283.71
536.65	2300.09
537.00	2315.93
537.36	2330.82
537.72	2346.02
538.08	2361.07
538.44	2376.09
538.79	2391.39
539.15	2405.76
539.51	2420.15
539.87	2435.07
540.22	2449.23
540.58	2463.95
540.94	2478.40
541.29	2490.99
541.65	2503.30
542.01	2516.39
542.37	2527.70
542.72	2539.78
543.08	2550.66
543.44	2562.36
543.79	2572.87
544.15	2583.16
544.51	2593.76
544.87	2604.79
545.22	2613.91
545.58	2622.58
545.94	2629.79
546.29	2635.93
546.65	2642.40
547.01	2648.06
547.36	2653.55
547.72	2658.71
548.07	2662.81
548.43	2666.47
548.79	2670.40
549.14	2674.62
549.50	2679.03
549.86	2683.43
550.21	2687.35
550.57	2691.33
550.92	2693.73
551.28	2696.38
551.64	2698.60
551.99	2700.55
552.35	2701.75
552.70	2704.51
553.06	2706.81
553.41	2709.57
553.77	2712.58
554.13	2714.80
554.48	2717.06
554.84	2718.78
555.19	2719.47
555.55	2719.57
555.90	2720.01
556.26	2720.31
556.61	2720.50
556.97	2718.92
557.32	2718.13
557.68	2716.45
558.03	2714.82
558.39	2713.46
558.74	2712.71
559.10	2711.69
559.45	2710.10
559.81	2709.16
560.16	2706.23
560.52	2703.90
560.87	2701.03
561.23	2697.16
561.58	2694.81
561.94	2691.59
562.29	2687.36
562.64	2685.03
563.00	2682.40
563.35	2679.98
563.71	2677.89
564.06	2675.51
564.42	2673.82
564.77	2671.42
565.12	2669.52
565.48	2666.45
565.83	2663.07
566.19	2659.65
566.54	2655.44
566.89	2651.58
567.25	2647.59
567.60	2644.41
567.96	2640.80
568.31	2637.46
568.66	2633.84
569.02	2628.82
569.37	2623.98
569.72	2620.25
570.08	2615.06
570.43	2609.55
570.78	2603.85
571.14	2597.46
571.49	2590.77
571.84	2585.03
572.20	2578.04
572.55	2571.45
572.90	2564.37
573.26	2557.83
573.61	2550.90
573.96	2544.24
574.31	2536.25
574.67	2528.24
575.02	2519.67
575.37	2510.98
575.72	2501.75
576.08	2493.95
576.43	2485.84
576.78	2477.94
577.13	2469.86
577.49	2461.80
577.84	2454.35
578.19	2446.70
578.54	2439.68
578.90	2432.85
579.25	2423.75
579.60	2414.77
579.95	2405.51
580.30	2397.95
580.66	2389.75
581.01	2380.70
581.36	2371.45
581.71	2363.13
582.06	2354.80
582.42	2346.88
582.77	2338.11
583.12	2329.33
583.47	2320.82
583.82	2312.37
584.17	2303.32
584.53	2294.40
584.88	2285.33
585.23	2276.18
585.58	2266.86
585.93	2257.10
586.28	2247.68
586.63	2239.24
586.98	2231.22
587.34	2222.98
587.69	2213.67
588.04	2204.54
588.39	2196.41
588.74	2187.85
589.09	2179.22
589.44	2169.69
589.79	2161.15
590.14	2153.34
590.49	2145.15
590.84	2136.11
591.19	2127.95
591.54	2119.06
591.89	2109.20
592.25	2100.11
592.60	2090.53
592.95	2081.37
593.30	2072.35
593.65	2062.85
594.00	2053.36
594.35	2045.08
594.70	2036.13
595.05	2027.66
595.40	2018.91
595.75	2009.27
596.10	2001.10
596.45	1992.95
596.80	1985.44
597.15	1977.02
597.50	1967.98
597.85	1959.69
598.19	1951.48
598.54	1943.20
598.89	1935.36
599.24	1928.79
599.59	1921.50
599.94	1914.47
600.29	1906.76
600.64	1898.86
600.99	1890.56
601.34	1883.23
601.69	1874.64
602.04	1866.49
602.39	1858.39
602.74	1850.67
603.08	1844.24
603.43	1837.00
603.78	1828.73
604.13	1820.48
604.48	1812.73
604.83	1805.38
605.18	1798.15
605.53	1790.50
605.87	1782.64
606.22	1775.92
606.57	1767.93
606.92	1759.89
607.27	1751.87
607.62	1744.63
607.96	1737.65
608.31	1731.55
608.66	1723.92
609.01	1716.25
609.36	1708.56
609.70	1700.73
610.05	1693.03
610.40	1684.82
610.75	1676.37
611.10	1669.01
611.44	1660.20
611.79	1651.04
612.14	1642.18
612.49	1632.81
612.83	1623.96
613.18	1614.31
613.53	1604.58
613.88	1595.19
614.22	1586.39
614.57	1577.40
614.92	1567.96
615.27	1558.70
615.61	1548.93
615.96	1539.95
616.31	1531.73
616.65	1524.09
617.00	1515.90
617.35	1507.55
617.70	1498.72
618.04	1489.77
618.39	1480.42
618.74	1471.94
619.08	1463.53
619.43	1455.30
619.78	1447.54
620.12	1439.66
620.47	1432.16
620.82	1423.95
621.16	1415.50
621.51	1407.07
621.85	1398.68
622.20	1390.35
622.55	1381.98
622.89	1374.10
623.24	1366.20
623.59	1357.57
623.93	1348.69
624.28	1340.18
624.62	1332.07
624.97	1324.05
625.32	1316.26
625.66	1309.00
626.01	1301.98
626.35	1294.99
626.70	1287.47
627.04	1280.06
627.39	1272.52
627.73	1265.00
628.08	1258.03
628.43	1250.84
628.77	1243.68
629.12	1236.60
629.46	1229.95
629.81	1222.83
630.15	1215.35
630.50	1208.01
630.84	1200.83
631.19	1193.85
631.53	1187.15
631.88	1179.55
632.22	1172.06
632.57	1165.09
632.91	1157.60
633.26	1149.88
633.60	1142.50
633.95	1135.80
634.29	1128.57
634.64	1121.74
634.98	1114.75
635.32	1107.73
635.67	1101.36
636.01	1094.80
636.36	1087.93
636.70	1081.33
637.05	1074.78
637.39	1068.46
637.73	1062.29
638.08	1056.51
638.42	1050.45
638.77	1043.95
639.11	1037.75
639.45	1031.73
639.80	1025.34
640.14	1019.13
640.49	1013.12
640.83	1007.00
641.17	1000.58
641.52	994.47
641.86	988.10
642.20	981.95
642.55	975.42
642.89	968.80
643.23	962.39
643.58	956.51
643.92	950.02
644.26	944.00
644.61	938.00
644.95	931.87
645.29	925.60
645.64	919.16
645.98	913.18
646.32	907.36
646.66	901.26
647.01	895.59
647.35	889.78
647.69	883.72
648.04	877.82
648.38	871.73
648.72	865.75
649.06	859.55
649.41	853.56
649.75	847.94
650.09	842.30
650.43	836.36
650.78	830.33
651.12	824.30
651.46	818.43
651.80	812.60
652.14	806.68
652.49	800.75
652.83	794.97
653.17	789.00
653.51	783.12
653.85	777.47
654.20	771.41
654.54	765.43
654.88	759.90
655.22	754.16
655.56	748.43
655.90	742.65
656.25	737.15
656.59	731.64
656.93	726.36
657.27	721.29
657.61	716.08
657.95	711.00
658.29	706.11
658.64	701.06
658.98	695.59
659.32	690.30
659.66	685.19
660.00	679.95
660.34	674.75
660.68	669.57
661.02	664.60
661.36	659.85
661.70	655.04
662.05	650.45
662.39	646.06
662.73	641.82
663.07	637.60
663.41	633.50
663.75	629.07
664.09	624.53
664.43	619.64
664.77	615.26
665.11	610.70
665.45	606.27
665.79	601.81
666.13	597.67
666.47	593.50
666.81	589.28
667.15	585.33
667.49	581.62
667.83	577.66
668.17	573.76
668.51	569.94
668.85	566.46
669.19	562.84
669.53	558.84
669.87	554.77
670.21	550.84
670.55	546.64
670.89	543.20
671.23	539.86
671.57	536.40
671.91	532.88
672.25	529.38
672.58	525.84
672.92	522.55
673.26	519.29
673.60	515.87
673.94	512.51
674.28	509.18
674.62	505.87
674.96	502.90
675.30	499.85
675.64	496.85
675.97	493.62
676.31	490.56
676.65	487.68
676.99	485.08
677.33	482.14
677.67	479.43
678.01	476.42
678.34	473.24
678.68	470.53
679.02	467.66
679.36	464.84
679.70	462.13
680.04	459.10
680.37	456.28
680.71	453.69
681.05	451.23
681.39	448.65
681.73	445.97
682.06	443.40
682.40	440.90
682.74	438.22
683.08	435.68
683.42	432.96
683.75	430.38
684.09	427.67
684.43	425.36
684.77	422.76
685.10	420.23
685.44	417.89
685.78	415.35
686.12	413.06
686.45	410.78
686.79	408.55
687.13	406.47
687.46	404.32
687.80	402.15
688.14	399.74
688.48	397.64
688.81	395.48
689.15	393.25
689.49	390.96
689.82	388.75
690.16	386.43
690.50	384.18
690.83	382.09
691.17	379.89
691.51	377.63
691.84	375.54
692.18	373.52
692.52	371.48
692.85	369.57
693.19	367.68
693.52	365.81
693.86	363.84
694.20	361.96
694.53	360.05
694.87	358.05
695.21	356.21
695.54	354.29
695.88	352.40
696.21	350.62
696.55	348.83
696.88	347.06
697.22	345.44
697.56	343.88
697.89	342.20
698.23	340.62
698.56	339.03
698.90	337.56
699.23	335.99
699.57	334.38
699.90	332.70
700.24	331.10
700.58	329.45
700.91	327.92
701.25	326.51
701.58	325.14
701.92	323.71
702.25	322.35
702.59	320.99
702.92	319.66
703.26	318.28
703.59	317.02
703.93	315.89
704.26	314.60
704.60	313.38
704.93	312.12
705.26	310.87
705.60	309.66
705.93	308.42
706.27	307.22
706.60	306.12
706.94	305.09
707.27	303.87
707.61	302.82
707.94	301.59
708.27	300.31
708.61	299.09
708.94	298.02
709.28	296.93
709.61	295.83
709.94	294.85
710.28	293.83
710.61	292.75
710.95	291.62
711.28	290.61
711.61	289.60
711.95	288.65
712.28	287.60
712.61	286.59
712.95	285.69
713.28	284.75
713.61	283.75
713.95	282.81
714.28	282.02
714.61	281.06
714.95	280.24
715.28	279.35
715.61	278.52
715.95	277.64
716.28	276.68
716.61	275.80
716.95	274.96
717.28	274.08
717.61	273.28
717.94	272.66
718.28	271.90
718.61	271.11
718.94	270.35
719.27	269.79
719.61	269.19
719.94	268.48
720.27	267.84
720.60	267.25
720.94	266.60
721.27	265.89
721.60	265.27
721.93	264.73
722.27	264.23
722.60	263.59
722.93	262.95
723.26	262.45
723.59	261.81
723.93	261.20
724.26	260.72
724.59	260.18
724.92	259.40
725.25	258.86
725.59	258.35
725.92	257.87
726.25	257.23
726.58	256.66
726.91	256.14
727.24	255.60
727.57	255.09
727.91	254.47
728.24	253.96
728.57	253.46
728.90	253.02
729.23	252.49
729.56	252.20
729.89	251.80
730.22	251.34
730.55	250.91
730.89	250.50
731.22	250.03
731.55	249.58
731.88	249.25
732.21	248.82
732.54	248.33
732.87	247.89
733.20	247.50
733.53	247.13
733.86	246.64
734.19	246.22
734.52	245.84
734.85	245.65
735.18	245.29
735.51	245.00
735.84	244.56
736.17	244.18
736.50	243.67
736.83	243.56
737.16	243.24
737.49	242.97
737.82	242.53
738.15	242.17
738.48	241.84
738.81	241.54
739.14	241.06
739.47	240.74
739.80	240.39
740.13	240.03
740.46	239.62
740.79	239.30
741.12	238.98
741.45	238.67
741.78	238.31
742.11	238.06
742.44	237.69
742.77	237.42
743.10	237.14
743.43	236.85
743.75	236.28
744.08	236.18
744.41	235.71
744.74	235.47
745.07	235.17
745.40	234.95
745.73	234.68
746.06	234.53
746.39	234.29
746.71	233.96
747.04	233.68
747.37	233.43
747.70	233.29
748.03	232.97
748.36	232.75
748.68	232.45
749.01	232.04
749.34	231.74
749.67	231.54
750.00	231.40
750.33	231.25
750.65	231.02
750.98	230.59
751.31	230.38
751.64	230.12
751.97	230.02
752.29	229.72
752.62	229.41
752.95	229.12
753.28	228.79
753.60	228.61
753.93	228.51
754.26	228.29
754.59	227.94
754.91	227.80
755.24	227.50
755.57	227.28
755.90	227.18
756.22	226.98
756.55	226.70
756.88	226.40
757.20	225.96
757.53	225.71
757.86	225.50
758.19	225.41
758.51	225.22
758.84	224.88
759.17	224.66
759.49	224.43
759.82	224.40
760.15	224.29
760.47	224.08
760.80	223.80
761.13	223.71
761.45	223.51
761.78	223.32
762.11	223.20
762.43	223.02
762.76	222.82
763.08	222.68
763.41	222.56
763.74	222.42
764.06	222.45
764.39	222.32
764.71	222.13
765.04	221.92
765.37	221.81
765.69	221.68
766.02	221.57
766.34	221.44
766.67	221.23
767.00	221.15
767.32	221.16
767.65	221.15
767.97	220.88
768.30	220.85
768.62	220.68
768.95	220.53
769.27	220.40
769.60	220.36
769.92	220.29
770.25	220.17
770.57	220.01
770.90	219.84
771.22	219.75
771.55	219.67
771.87	219.67
772.20	219.52
772.52	219.62
772.85	219.67
773.17	219.65
773.50	219.50
773.82	219.35
774.15	219.16
774.47	218.96
774.80	218.93
775.12	218.79
775.45	218.71
775.77	218.63
776.09	218.49
776.42	218.39
776.74	218.35
777.07	218.24
777.39	218.17
777.72	218.07
778.04	218.03
778.36	217.92
778.69	217.82
779.01	217.80
779.33	217.57
779.66	217.31
779.98	217.24
780.31	217.25
780.63	217.29
780.95	217.22
781.28	217.17
781.60	217.06
781.92	217.04
782.25	216.99
782.57	216.88
782.89	216.90
783.22	216.82
783.54	216.67
783.86	216.57
784.19	216.49
784.51	216.47
784.83	216.35
785.16	216.33
785.48	216.21
785.80	216.15
786.12	216.02
786.45	216.04
786.77	215.97
787.09	215.93
787.42	215.80
787.74	215.74
788.06	215.73
788.38	215.73
788.71	215.68
789.03	215.60
789.35	215.62
789.67	215.53
789.99	215.47
790.32	215.47
790.64	215.50
790.96	215.62
791.28	215.51
791.61	215.45
791.93	215.45
792.25	215.46
792.57	215.56
792.89	215.57
793.21	215.55
793.54	215.50
793.86	215.36
794.18	215.32
794.50	215.32
794.82	215.31
795.14	215.32
795.47	215.33
795.79	215.38
796.11	215.31
796.43	215.35
796.75	215.36
797.07	215.33
797.39	215.29
797.71	215.14
798.04	215.12
798.36	215.16
798.68	215.05
799.00	215.05
799.32	214.86
799.64	214.81
799.96	214.75
800.28	214.77
800.60	214.77
800.92	214.82
801.24	214.79
801.56	214.71
801.89	214.67
802.21	214.74
802.53	214.69
802.85	214.71
803.17	214.74
803.49	214.69
803.81	214.67
804.13	214.62
804.45	214.55
804.77	214.51
805.09	214.40
805.41	214.40
805.73	214.35
806.05	214.33
806.37	214.35
806.69	214.30
807.01	214.23
807.33	214.18
807.65	214.07
807.97	214.02
808.28	213.96
808.60	213.84
808.92	213.66
809.24	213.73
809.56	213.72
809.88	213.64
810.20	213.61
810.52	213.58
810.84	213.56
811.16	213.57
811.48	213.61
811.80	213.75
812.12	213.76
812.43	213.74
812.75	213.71
813.07	213.67
813.39	213.69
813.71	213.65
814.03	213.56
814.35	213.49
814.67	213.48
814.98	213.37
815.30	213.44
815.62	213.38
815.94	213.22
816.26	213.11
816.58	213.04
816.89	212.97
817.21	212.90
817.53	212.84
817.85	212.85
818.17	212.79
818.48	212.70
818.80	212.64
819.12	212.61
819.44	212.67
819.76	212.62
820.07	212.57
820.39	212.54
820.71	212.63
821.03	212.68
821.34	212.64
821.66	212.69
821.98	212.67
822.30	212.61
822.61	212.74
822.93	212.73
823.25	212.68
823.57	212.66
823.88	212.69
824.20	212.62
824.52	212.61
824.83	212.58
825.15	212.48
825.47	212.48
825.79	212.51
826.10	212.34
826.42	212.31
826.74	212.35
827.05	212.35
827.37	212.34
827.69	212.31
828.00	212.29
828.32	212.32
828.64	212.25
828.95	212.40
829.27	212.32
829.58	212.36
829.90	212.41
830.22	212.47
830.53	212.42
830.85	212.45
831.17	212.36
831.48	212.40
831.80	212.45
832.11	212.45
832.43	212.42
832.75	212.45
833.06	212.57
833.38	212.51
833.69	212.52
834.01	212.55
834.32	212.59
834.64	212.59
834.96	212.59
835.27	212.61
835.59	212.56
835.90	212.53
836.22	212.53
836.53	212.54
836.85	212.55
837.16	212.79
837.48	212.84
837.79	212.87
838.11	212.82
838.42	212.85
838.74	212.86
839.05	212.85
839.37	212.85
839.68	212.72
840.00	212.74
840.31	212.74
840.63	212.68
840.94	212.58
841.26	212.55
841.57	212.56
841.88	212.65
842.20	212.59
842.51	212.60
842.83	212.61
843.14	212.73
843.46	212.66
843.77	212.50
844.08	212.47
844.40	212.40
844.71	212.39
845.03	212.32
845.34	212.30
845.65	212.30
845.97	212.33
846.28	212.36
846.60	212.35
846.91	212.32
847.22	212.30
847.54	212.34
847.85	212.34
848.16	212.31
848.48	212.22
848.79	212.33
849.10	212.25
849.42	212.21
849.73	212.07
850.04	212.03
850.36	211.95
850.67	211.96
850.98	212.02
851.30	212.08
851.61	212.07
851.92	212.10
852.23	212.13
852.55	212.19
852.86	212.21
853.17	212.21
853.49	212.22
853.80	212.28
854.11	212.24
854.42	212.26
854.74	212.20
855.05	212.19
855.36	212.00
855.67	212.08
855.99	212.08
856.30	212.26
856.61	212.20
856.92	212.16
857.23	212.15
857.55	212.12
857.86	212.08
858.17	212.12
858.48	212.10
858.79	212.06
859.11	212.04
859.42	211.99
859.73	211.99
860.04	212.00
860.35	211.93
860.66	211.98
860.98	211.94
861.29	212.03
861.60	212.01
861.91	212.09
862.22	211.98
862.53	211.94
862.84	211.72
863.16	211.81
863.47	211.75
863.78	211.69
864.09	211.71
864.40	211.72
864.71	211.71
865.02	211.64
865.33	211.63
865.64	211.56
865.95	211.55
866.27	211.63
866.58	211.64
866.89	211.66
867.20	211.55
867.51	211.51
867.82	211.50
868.13	211.58
868.44	211.63
868.75	211.77
869.06	211.79
869.37	211.80
869.68	211.75
869.99	211.83
870.30	211.84
870.61	211.86
870.92	211.80
871.23	211.75
871.54	211.83
871.85	211.81
872.16	211.89
872.47	211.89
872.78	211.70
873.09	211.63
873.40	211.58
873.71	211.65
874.02	211.69
874.33	211.64
874.64	211.63
874.95	211.57
875.26	211.45
875.56	211.47
875.87	211.48
876.18	211.52
876.49	211.68
876.80	211.68
877.11	211.62
877.42	211.71
877.73	211.73
878.04	211.73
878.35	211.68
878.66	211.58
878.96	211.56
879.27	211.63
879.58	211.64
879.89	211.66
880.20	211.65
880.51	211.70
880.82	211.70
881.12	211.61
881.43	211.60
881.74	211.59
882.05	211.55
882.36	211.58
882.67	211.52
882.97	211.35
883.28	211.37
883.59	211.37
883.90	211.36
884.21	211.41
884.51	211.35
884.82	211.40
885.13	211.46
885.44	211.47
885.74	211.47
886.05	211.49
886.36	211.47
886.67	211.45
886.98	211.44
887.28	211.48
887.59	211.47
887.90	211.48
888.20	211.47
888.51	211.51
888.82	211.49
889.13	211.53
889.43	211.67
889.74	211.69
890.05	211.74
890.35	211.69
890.66	211.57
890.97	211.57
891.28	211.49
891.58	211.47
891.89	211.43
892.20	211.45
892.50	211.38
892.81	211.39
893.12	211.40
893.42	211.32
893.73	211.26
894.04	211.27
894.34	211.24
894.65	211.16
894.95	211.09
895.26	211.03
895.57	211.08
895.87	210.91
896.18	210.87
896.48	210.86
896.79	210.84
897.10	210.90
897.40	210.90
897.71	210.93
898.01	210.89
898.32	210.93
898.63	210.88
898.93	210.94
899.24	210.90
899.54	210.87
899.85	210.90
900.15	210.96
900.46	211.01
900.76	211.03
901.07	211.06
901.38	211.07
901.68	211.08
901.99	211.05
902.29	211.06
902.60	211.05
902.90	211.02
903.21	210.98
903.51	210.90
903.82	210.91
904.12	210.93
904.43	210.94
904.73	210.95
905.03	210.94
905.34	211.12
905.64	211.14
905.95	211.17
906.25	211.15
906.56	211.07
906.86	211.03
907.17	211.02
907.47	211.05
907.77	211.00
908.08	210.95
908.38	210.89
908.69	210.92
908.99	210.99
909.30	210.99
909.60	211.04
909.90	211.06
910.21	211.01
910.51	210.99
910.81	211.00
911.12	210.97
911.42	210.95
911.73	210.68
912.03	210.68
912.33	210.63
912.64	210.65
912.94	210.65
913.24	210.62
913.55	210.59
913.85	210.65
914.15	210.70
914.46	210.75
914.76	210.79
915.06	210.75
915.37	210.71
915.67	210.65
915.97	210.61
916.27	210.55
916.58	210.55
916.88	210.52
917.18	210.49
917.49	210.58
917.79	210.59
918.09	210.61
918.39	210.66
918.70	210.72
919.00	210.66
919.30	210.72
919.60	210.79
919.91	210.81
920.21	210.76
920.51	210.73
920.81	210.70
921.12	210.76
921.42	210.73
921.72	210.77
922.02	210.83
922.32	210.86
922.63	210.94
922.93	211.05
923.23	211.07
923.53	211.05
923.83	210.94
924.13	211.01
924.44	211.08
924.74	211.11
925.04	211.12
925.34	211.15
925.64	211.07
925.94	211.06
926.24	211.10
926.55	211.03
926.85	211.10
927.15	211.14
927.45	211.06
927.75	211.07
928.05	211.02
928.35	210.98
928.65	211.02
928.95	211.01
929.26	210.95
929.56	211.05
929.86	211.07
930.16	211.08
930.46	211.04
930.76	211.03
931.06	211.00
931.36	210.94
931.66	211.00
931.96	211.08
932.26	211.05
932.56	211.01
932.86	211.05
933.16	211.01
933.46	210.97
933.76	211.01
934.06	211.04
934.36	211.11
934.66	211.14
934.96	211.17
935.26	211.25
935.56	211.25
935.86	211.15
936.16	211.18
936.46	211.19
936.76	211.23
937.06	211.16
937.36	211.15
937.66	211.15
937.96	211.12
938.26	211.15
938.56	211.16
938.86	211.20
939.16	211.29
939.46	211.29
939.76	211.33
940.06	211.35
940.35	211.31
940.65	211.23
940.95	211.20
941.25	211.16
941.55	211.11
941.85	211.12
942.15	211.16
942.45	211.11
942.75	211.18
943.04	211.12
943.34	211.19
943.64	211.20
943.94	211.22
944.24	211.19
944.54	211.16
944.84	211.19
945.13	211.10
945.43	211.09
945.73	211.15
946.03	211.12
946.33	211.07
946.62	211.13
946.92	211.15
947.22	211.18
947.52	211.21
947.82	211.15
948.11	211.06
948.41	211.04
948.71	211.11
949.01	211.00
949.31	211.01
949.60	210.98
949.90	210.95
950.20	210.96
950.50	211.00
950.79	210.92
951.09	210.89
951.39	210.94
951.69	210.87
951.98	210.89
952.28	210.89
952.58	210.93
952.87	210.94
953.17	210.95
953.47	210.96
953.76	210.92
954.06	210.96
954.36	211.01
954.66	211.03
954.95	211.09
955.25	211.18
955.55	211.17
955.84	211.16
956.14	211.19
956.44	211.21
956.73	211.12
957.03	211.18
957.32	211.14
957.62	211.12
957.92	211.17
958.21	211.10
958.51	211.31
958.81	211.30
959.10	211.25
959.40	211.25
959.69	211.25
959.99	211.27
960.29	211.29
960.58	211.33
960.88	211.35
961.17	211.29
961.47	211.30
961.76	211.36
962.06	211.38
962.36	211.39
962.65	211.35
962.95	211.40
963.24	211.40
963.54	211.45
963.83	211.45
964.13	211.44
964.42	211.40
964.72	211.23
965.01	211.21
965.31	211.22
965.60	211.22
965.90	211.28
966.19	211.26
966.49	211.21
966.78	211.20
967.08	211.23
967.37	211.20
967.67	211.14
967.96	211.06
968.26	211.07
968.55	211.06
968.85	211.06
969.14	211.04
969.43	211.04
969.73	210.99
970.02	211.01
970.32	211.01
970.61	210.99
970.91	210.95
971.20	210.88
971.49	210.87
971.79	210.85
972.08	210.68
972.38	210.68
972.67	210.73
972.96	210.68
973.26	210.58
973.55	210.61
973.85	210.56
974.14	210.57
974.43	210.61
974.73	210.57
975.02	210.49
975.31	210.46
975.61	210.39
975.90	210.38
976.19	210.37
976.49	210.39
976.78	210.42
977.07	210.47
977.37	210.55
977.66	210.55
977.95	210.47
978.24	210.53
978.54	210.51
978.83	210.45
979.12	210.44
979.42	210.43
979.71	210.41
980.00	210.47
980.29	210.47
980.59	210.41
980.88	210.48
981.17	210.53
981.46	210.63
981.76	210.68
982.05	210.73
982.34	210.74
982.63	210.74
982.93	210.75
983.22	210.75
983.51	210.73
983.80	210.81
984.09	210.86
984.39	210.89
984.68	210.86
984.97	210.88
985.26	210.86
985.55	210.90
985.85	210.85
986.14	210.84
986.43	210.89
986.72	210.86
987.01	210.74
987.30	210.75
987.59	210.71
987.89	210.65
988.18	210.58
988.47	210.58
988.76	210.53
989.05	210.50
989.34	210.44
989.63	210.47
989.92	210.45
990.22	210.42
990.51	210.42
990.80	210.46
991.09	210.54
991.38	210.62
991.67	210.63
991.96	210.61
992.25	210.63
992.54	210.66
992.83	210.63
993.12	210.70
993.41	210.74
993.70	210.80
993.99	210.92
994.28	211.00
994.58	210.96
994.87	210.96
995.16	211.00
995.45	211.05
995.74	210.95
996.03	210.99
996.32	211.00
996.61	211.02
996.90	211.02
997.19	211.05
997.48	211.08
997.77	211.11
998.06	211.16
998.34	211.18
998.63	211.10
998.92	211.14
999.21	211.18
999.50	211.17
999.79	211.12
1000.08	211.08
1000.37	211.00
1000.66	211.03
1000.95	211.05
1001.24	211.05
1001.53	211.05
1001.82	211.07
1002.11	211.03
1002.40	211.06
1002.68	211.08
1002.97	211.22
1003.26	211.16
1003.55	211.07
1003.84	210.99
1004.13	210.99
1004.42	210.93
1004.71	211.02
1004.99	211.05
1005.28	211.06
1005.57	211.12
1005.86	211.11
1006.15	211.08
1006.44	211.15
1006.72	211.18
1007.01	211.15
1007.30	211.15
1007.59	211.16
1007.88	211.23
1008.17	211.15
1008.45	211.12
1008.74	211.07
1009.03	211.02
1009.32	210.97
1009.60	210.97
1009.89	210.97
1010.18	210.95
1010.47	210.99
1010.76	210.90
1011.04	210.83
1011.33	210.89
1011.62	210.82
1011.91	210.84
1012.19	210.86
1012.48	210.87
1012.77	210.89
1013.05	211.01
1013.34	211.02
1013.63	210.99
1013.92	210.92
1014.20	211.00
1014.49	211.07
1014.78	211.11
1015.06	210.98
1015.35	210.97
1015.64	211.00
1015.92	211.04
1016.21	211.08
1016.50	211.08
1016.78	211.15
1017.07	211.23
1017.36	211.16
1017.64	211.14
1017.93	211.13
1018.22	211.18
1018.50	211.19
1018.79	211.11
1019.08	211.13
1019.36	211.12
1019.65	211.09
1019.93	211.21
1020.22	211.23
1020.51	211.29
1020.79	211.28
1021.08	211.85
1021.36	211.70
1021.65	210.05
1021.94	213.25
1022.22	211.25
1022.51	210.10
1022.79	212.75
1023.08	211.85
1023.36	213.00
1023.65	211.20
>>>>>End Processed Spectral Data<<<<<
