SpectraSuite Data File
++++++++++++++++++++++++++++++++++++
Date: Mon Feb 25 17:30:07 EST 2013
User: group
Dark Spectrum Present: No
Reference Spectrum Present: No
Number of Sampled Component Spectra: 1
Spectrometers: USB2E7196
Integration Time (usec): 52000 (USB2E7196)
Spectra Averaged: 20 (USB2E7196)
Boxcar Smoothing: 10 (USB2E7196)
Correct for Electrical Dark: No (USB2E7196)
Strobe/Lamp Enabled: No (USB2E7196)
Correct for Detector Non-linearity: No (USB2E7196)
Correct for Stray Light: No (USB2E7196)
Number of Pixels in Processed Spectrum: 2048
>>>>>Begin Processed Spectral Data<<<<<
339.09	0.00
339.48	199.55
339.86	201.30
340.24	202.30
340.63	204.65
341.01	207.60
341.39	206.50
341.78	208.25
342.16	209.05
342.54	210.30
342.93	198.82
343.31	208.79
343.69	209.30
344.07	209.73
344.46	210.14
344.84	210.51
345.22	210.69
345.60	210.88
345.99	211.02
346.37	211.16
346.75	211.21
347.13	211.21
347.52	211.20
347.90	211.39
348.28	211.45
348.66	211.45
349.05	211.37
349.43	211.44
349.81	211.46
350.19	211.45
350.57	211.49
350.96	211.51
351.34	211.65
351.72	211.73
352.10	211.81
352.48	211.87
352.87	211.84
353.25	211.91
353.63	212.03
354.01	212.09
354.39	212.16
354.77	212.26
355.15	212.39
355.54	212.46
355.92	212.40
356.30	212.42
356.68	212.59
357.06	212.63
357.44	212.63
357.82	212.66
358.20	212.79
358.58	212.86
358.97	212.93
359.35	212.98
359.73	213.04
360.11	213.03
360.49	213.08
360.87	213.12
361.25	213.15
361.63	213.23
362.01	213.26
362.39	213.23
362.77	213.24
363.15	213.30
363.53	213.34
363.91	213.39
364.29	213.43
364.67	213.25
365.05	213.29
365.43	213.29
365.81	213.36
366.19	213.37
366.57	213.46
366.95	213.45
367.33	213.45
367.71	213.50
368.09	213.61
368.47	213.65
368.85	213.68
369.23	213.66
369.61	213.56
369.99	213.57
370.37	213.54
370.75	213.60
371.13	213.48
371.51	213.40
371.89	213.34
372.27	213.24
372.65	213.27
373.03	213.23
373.41	213.22
373.78	213.24
374.16	213.13
374.54	213.00
374.92	212.99
375.30	212.88
375.68	212.78
376.06	212.79
376.44	212.73
376.82	212.71
377.19	212.71
377.57	212.59
377.95	212.53
378.33	212.54
378.71	212.40
379.09	212.43
379.47	212.36
379.84	212.35
380.22	212.38
380.60	212.30
380.98	212.29
381.36	212.25
381.73	212.11
382.11	212.12
382.49	212.10
382.87	212.04
383.25	212.02
383.62	212.18
384.00	212.05
384.38	211.97
384.76	211.92
385.13	211.95
385.51	212.04
385.89	211.93
386.27	211.90
386.64	211.91
387.02	211.83
387.40	211.89
387.78	211.94
388.15	211.88
388.53	211.92
388.91	211.85
389.29	211.81
389.66	211.82
390.04	211.79
390.42	211.86
390.79	211.83
391.17	211.82
391.55	211.64
391.92	211.64
392.30	211.72
392.68	211.74
393.05	211.69
393.43	211.67
393.81	211.80
394.18	211.79
394.56	211.73
394.94	211.79
395.31	211.74
395.69	211.74
396.06	211.83
396.44	211.83
396.82	211.86
397.19	211.98
397.57	211.96
397.95	212.07
398.32	211.99
398.70	212.03
399.07	212.14
399.45	212.15
399.82	212.11
400.20	212.05
400.58	211.99
400.95	212.03
401.33	212.12
401.70	212.20
402.08	212.25
402.45	212.32
402.83	212.39
403.20	212.43
403.58	212.48
403.95	212.49
404.33	212.58
404.71	212.64
405.08	212.72
405.46	212.82
405.83	212.92
406.21	213.00
406.58	213.24
406.96	213.32
407.33	213.49
407.70	213.73
408.08	214.06
408.45	214.37
408.83	214.65
409.20	214.84
409.58	214.97
409.95	215.25
410.33	215.59
410.70	215.80
411.08	216.23
411.45	216.62
411.82	216.99
412.20	217.36
412.57	217.92
412.95	218.25
413.32	218.88
413.69	219.30
414.07	219.94
414.44	220.41
414.82	221.04
415.19	221.80
415.56	222.56
415.94	223.27
416.31	224.02
416.68	224.85
417.06	225.80
417.43	226.79
417.81	227.87
418.18	228.93
418.55	230.10
418.93	231.33
419.30	232.53
419.67	233.86
420.04	235.28
420.42	236.68
420.79	238.47
421.16	240.03
421.54	241.83
421.91	243.55
422.28	245.51
422.66	247.53
423.03	249.51
423.40	251.46
423.77	253.61
424.15	255.79
424.52	257.97
424.89	260.42
425.26	262.78
425.64	265.03
426.01	267.48
426.38	270.11
426.75	272.74
427.13	275.51
427.50	278.27
427.87	281.25
428.24	284.21
428.61	287.06
428.99	290.24
429.36	293.60
429.73	297.00
430.10	300.21
430.47	303.58
430.85	307.03
431.22	310.81
431.59	314.83
431.96	318.74
432.33	323.04
432.70	327.10
433.08	331.73
433.45	336.27
433.82	340.75
434.19	345.69
434.56	350.41
434.93	354.97
435.30	359.67
435.68	364.77
436.05	369.86
436.42	374.76
436.79	379.31
437.16	384.10
437.53	389.19
437.90	394.23
438.27	399.26
438.64	404.37
439.01	409.20
439.38	413.48
439.75	417.56
440.13	422.20
440.50	426.60
440.87	430.30
441.24	434.00
441.61	438.13
441.98	441.08
442.35	444.69
442.72	448.28
443.09	451.73
443.46	453.72
443.83	455.02
444.20	456.14
444.57	457.86
444.94	458.62
445.31	459.45
445.68	460.37
446.05	460.46
446.42	459.86
446.79	459.09
447.16	458.08
447.53	457.51
447.90	455.31
448.27	453.30
448.64	450.56
449.01	448.52
449.37	444.92
449.74	441.54
450.11	437.55
450.48	433.25
450.85	428.79
451.22	424.90
451.59	421.22
451.96	417.82
452.33	413.14
452.70	409.13
453.07	404.15
453.43	398.96
453.80	394.25
454.17	389.72
454.54	385.28
454.91	380.70
455.28	376.12
455.65	371.99
456.02	367.82
456.38	364.23
456.75	359.66
457.12	356.03
457.49	352.38
457.86	348.62
458.23	345.43
458.59	342.02
458.96	338.65
459.33	335.62
459.70	332.58
460.07	330.23
460.43	327.32
460.80	324.72
461.17	322.55
461.54	320.17
461.91	317.96
462.27	315.75
462.64	313.83
463.01	311.77
463.38	309.80
463.74	307.63
464.11	305.79
464.48	304.36
464.85	302.56
465.21	301.30
465.58	299.97
465.95	298.32
466.32	297.04
466.68	295.73
467.05	294.48
467.42	293.15
467.78	291.66
468.15	290.48
468.52	289.56
468.88	288.27
469.25	287.17
469.62	286.24
469.98	285.31
470.35	284.45
470.72	283.54
471.08	282.51
471.45	281.87
471.82	281.17
472.18	280.20
472.55	279.77
472.92	279.00
473.28	278.45
473.65	277.90
474.02	277.29
474.38	276.87
474.75	276.49
475.11	276.10
475.48	275.96
475.85	275.79
476.21	275.54
476.58	275.36
476.94	275.42
477.31	275.33
477.67	275.29
478.04	275.41
478.41	275.52
478.77	275.85
479.14	275.95
479.50	276.22
479.87	276.66
480.23	277.04
480.60	277.50
480.96	277.96
481.33	278.67
481.69	279.35
482.06	279.96
482.42	280.61
482.79	281.43
483.15	282.28
483.52	283.18
483.88	284.16
484.25	285.24
484.61	286.20
484.98	287.32
485.34	288.64
485.71	289.93
486.07	291.34
486.44	292.70
486.80	294.30
487.17	295.88
487.53	297.68
487.90	299.41
488.26	301.36
488.62	303.42
488.99	305.41
489.35	307.51
489.72	309.81
490.08	312.22
490.44	314.68
490.81	317.32
491.17	319.90
491.54	322.76
491.90	325.78
492.26	328.92
492.63	332.29
492.99	335.65
493.36	339.16
493.72	343.02
494.08	347.04
494.45	351.17
494.81	355.55
495.17	360.00
495.54	364.91
495.90	369.87
496.26	375.01
496.63	380.53
496.99	386.32
497.35	392.20
497.72	398.41
498.08	404.82
498.44	411.50
498.80	418.70
499.17	425.95
499.53	433.55
499.89	441.65
500.26	449.52
500.62	457.75
500.98	466.61
501.34	475.47
501.71	484.75
502.07	494.34
502.43	504.26
502.79	514.45
503.16	524.92
503.52	535.58
503.88	546.66
504.24	557.97
504.60	569.70
504.97	582.00
505.33	594.40
505.69	607.67
506.05	620.84
506.41	634.13
506.78	647.89
507.14	661.86
507.50	676.08
507.86	690.79
508.22	706.14
508.59	721.32
508.95	737.11
509.31	752.97
509.67	769.27
510.03	785.91
510.39	803.00
510.75	820.33
511.12	838.25
511.48	856.43
511.84	874.80
512.20	893.04
512.56	911.76
512.92	930.99
513.28	949.90
513.64	969.25
514.00	988.78
514.37	1008.75
514.73	1029.03
515.09	1049.26
515.45	1069.74
515.81	1090.36
516.17	1111.35
516.53	1132.28
516.89	1153.68
517.25	1174.75
517.61	1195.96
517.97	1217.15
518.33	1238.34
518.69	1259.45
519.05	1280.94
519.41	1302.31
519.77	1324.41
520.13	1345.95
520.49	1367.24
520.85	1389.36
521.21	1411.26
521.57	1433.74
521.93	1455.15
522.29	1477.32
522.65	1499.18
523.01	1521.14
523.37	1542.70
523.73	1564.08
524.09	1585.40
524.45	1606.82
524.81	1628.58
525.17	1650.22
525.53	1671.85
525.89	1693.73
526.25	1715.39
526.61	1735.74
526.97	1756.76
527.33	1777.10
527.68	1797.65
528.04	1818.04
528.40	1837.42
528.76	1857.48
529.12	1877.46
529.48	1898.18
529.84	1917.64
530.20	1937.35
530.56	1956.70
530.91	1976.60
531.27	1996.64
531.63	2016.31
531.99	2035.51
532.35	2054.08
532.71	2072.48
533.07	2091.41
533.42	2108.85
533.78	2126.79
534.14	2144.55
534.50	2161.23
534.86	2178.60
535.21	2194.90
535.57	2212.10
535.93	2229.21
536.29	2245.41
536.65	2261.29
537.00	2276.01
537.36	2290.66
537.72	2305.29
538.08	2320.03
538.44	2334.45
538.79	2348.80
539.15	2362.55
539.51	2376.41
539.87	2390.98
540.22	2404.44
540.58	2418.12
540.94	2431.90
541.29	2444.02
541.65	2455.81
542.01	2468.12
542.37	2479.16
542.72	2490.60
543.08	2501.04
543.44	2511.79
543.79	2521.26
544.15	2530.36
544.51	2541.08
544.87	2551.34
545.22	2559.77
545.58	2567.59
545.94	2574.31
546.29	2580.02
546.65	2585.64
547.01	2591.37
547.36	2595.96
547.72	2600.85
548.07	2604.37
548.43	2607.66
548.79	2610.93
549.14	2614.74
549.50	2618.34
549.86	2621.80
550.21	2625.15
550.57	2628.53
550.92	2630.36
551.28	2632.77
551.64	2635.18
551.99	2636.90
552.35	2637.92
552.70	2640.23
553.06	2642.62
553.41	2645.16
553.77	2647.92
554.13	2650.09
554.48	2651.43
554.84	2652.66
555.19	2653.03
555.55	2652.94
555.90	2653.05
556.26	2653.04
556.61	2652.80
556.97	2651.49
557.32	2651.08
557.68	2649.44
558.03	2647.47
558.39	2645.91
558.74	2645.14
559.10	2643.28
559.45	2640.94
559.81	2639.65
560.16	2636.47
560.52	2633.71
560.87	2630.50
561.23	2626.10
561.58	2623.62
561.94	2620.13
562.29	2616.19
562.64	2614.00
563.00	2611.22
563.35	2608.47
563.71	2606.45
564.06	2604.00
564.42	2601.97
564.77	2598.89
565.12	2596.85
565.48	2593.49
565.83	2590.34
566.19	2586.58
566.54	2582.36
566.89	2578.14
567.25	2574.11
567.60	2571.31
567.96	2567.40
568.31	2563.59
568.66	2560.11
569.02	2555.27
569.37	2550.10
569.72	2546.30
570.08	2540.65
570.43	2535.27
570.78	2529.64
571.14	2523.47
571.49	2517.06
571.84	2511.08
572.20	2504.40
572.55	2497.68
572.90	2490.94
573.26	2483.97
573.61	2477.11
573.96	2471.02
574.31	2463.51
574.67	2455.71
575.02	2447.20
575.37	2438.74
575.72	2429.96
576.08	2422.30
576.43	2413.55
576.78	2405.87
577.13	2397.99
577.49	2390.29
577.84	2382.86
578.19	2375.51
578.54	2368.27
578.90	2361.15
579.25	2352.54
579.60	2343.81
579.95	2334.72
580.30	2327.27
580.66	2319.33
581.01	2310.47
581.36	2301.43
581.71	2293.76
582.06	2285.21
582.42	2277.26
582.77	2268.78
583.12	2260.42
583.47	2251.92
583.82	2244.10
584.17	2235.49
584.53	2226.80
584.88	2218.40
585.23	2209.70
585.58	2200.61
585.93	2191.41
586.28	2182.90
586.63	2174.68
586.98	2167.06
587.34	2159.30
587.69	2150.20
588.04	2141.65
588.39	2133.85
588.74	2125.05
589.09	2116.31
589.44	2107.56
589.79	2099.45
590.14	2092.14
590.49	2084.01
590.84	2075.34
591.19	2067.81
591.54	2059.55
591.89	2049.85
592.25	2040.81
592.60	2031.72
592.95	2022.92
593.30	2013.90
593.65	2004.48
594.00	1995.30
594.35	1987.15
594.70	1978.63
595.05	1970.53
595.40	1962.32
595.75	1953.24
596.10	1945.54
596.45	1937.56
596.80	1930.28
597.15	1922.29
597.50	1913.39
597.85	1905.35
598.19	1897.33
598.54	1889.07
598.89	1881.19
599.24	1874.76
599.59	1867.57
599.94	1860.59
600.29	1853.14
600.64	1845.55
600.99	1837.52
601.34	1830.77
601.69	1822.35
602.04	1814.48
602.39	1806.87
602.74	1799.18
603.08	1792.95
603.43	1786.33
603.78	1778.39
604.13	1770.40
604.48	1762.57
604.83	1755.99
605.18	1749.27
605.53	1742.15
605.87	1734.73
606.22	1728.39
606.57	1720.79
606.92	1713.24
607.27	1705.79
607.62	1699.09
607.96	1692.70
608.31	1687.08
608.66	1679.21
609.01	1672.10
609.36	1664.75
609.70	1657.15
610.05	1649.83
610.40	1641.66
610.75	1633.04
611.10	1625.74
611.44	1617.05
611.79	1608.65
612.14	1599.61
612.49	1590.71
612.83	1582.57
613.18	1573.50
613.53	1564.31
613.88	1555.28
614.22	1546.69
614.57	1537.89
614.92	1528.63
615.27	1519.65
615.61	1510.12
615.96	1501.92
616.31	1493.66
616.65	1486.14
617.00	1478.11
617.35	1469.80
617.70	1461.65
618.04	1453.30
618.39	1444.49
618.74	1436.73
619.08	1428.33
619.43	1420.56
619.78	1413.00
620.12	1404.94
620.47	1397.12
620.82	1388.86
621.16	1380.81
621.51	1372.58
621.85	1364.54
622.20	1356.54
622.55	1348.46
622.89	1340.47
623.24	1332.70
623.59	1324.44
623.93	1316.13
624.28	1308.27
624.62	1300.63
624.97	1292.63
625.32	1285.02
625.66	1278.05
626.01	1270.79
626.35	1264.12
626.70	1256.76
627.04	1249.42
627.39	1242.09
627.73	1235.02
628.08	1228.49
628.43	1221.40
628.77	1214.50
629.12	1207.23
629.46	1200.63
629.81	1193.70
630.15	1186.93
630.50	1179.86
630.84	1172.96
631.19	1165.96
631.53	1159.14
631.88	1151.70
632.22	1144.28
632.57	1137.64
632.91	1130.50
633.26	1123.51
633.60	1116.42
633.95	1109.85
634.29	1102.80
634.64	1096.28
634.98	1089.50
635.32	1082.71
635.67	1076.36
636.01	1070.28
636.36	1063.98
636.70	1057.63
637.05	1051.03
637.39	1044.66
637.73	1038.59
638.08	1032.95
638.42	1027.27
638.77	1021.29
639.11	1015.34
639.45	1009.62
639.80	1003.36
640.14	997.24
640.49	990.98
640.83	984.91
641.17	978.64
641.52	972.74
641.86	966.51
642.20	960.44
642.55	953.93
642.89	947.77
643.23	941.32
643.58	935.50
643.92	929.30
644.26	923.43
644.61	917.62
644.95	911.64
645.29	905.75
645.64	899.32
645.98	893.22
646.32	887.40
646.66	881.51
647.01	875.60
647.35	869.93
647.69	864.11
648.04	858.31
648.38	852.42
648.72	846.59
649.06	840.64
649.41	835.07
649.75	829.61
650.09	824.05
650.43	818.37
650.78	812.41
651.12	806.40
651.46	800.87
651.80	795.17
652.14	789.40
652.49	783.44
652.83	778.05
653.17	772.16
653.51	766.63
653.85	761.11
654.20	755.52
654.54	749.90
654.88	744.61
655.22	739.03
655.56	733.62
655.90	727.96
656.25	722.43
656.59	716.96
656.93	711.89
657.27	706.87
657.61	701.73
657.95	696.95
658.29	692.14
658.64	687.06
658.98	681.99
659.32	676.86
659.66	671.83
660.00	666.40
660.34	661.40
660.68	656.31
661.02	651.43
661.36	646.81
661.70	642.13
662.05	637.57
662.39	633.27
662.73	629.02
663.07	625.04
663.41	621.06
663.75	616.74
664.09	612.06
664.43	607.56
664.77	603.25
665.11	598.85
665.45	594.64
665.79	590.54
666.13	586.34
666.47	582.31
666.81	578.34
667.15	574.61
667.49	571.01
667.83	567.24
668.17	563.45
668.51	559.77
668.85	556.15
669.19	552.65
669.53	548.93
669.87	545.05
670.21	541.34
670.55	537.45
670.89	534.05
671.23	530.80
671.57	527.41
671.91	523.96
672.25	520.46
672.58	517.10
672.92	513.80
673.26	510.75
673.60	507.64
673.94	504.51
674.28	501.34
674.62	498.22
674.96	495.17
675.30	492.33
675.64	489.38
675.97	486.26
676.31	483.24
676.65	480.36
676.99	477.81
677.33	474.72
677.67	472.02
678.01	469.05
678.34	466.11
678.68	463.32
679.02	460.45
679.36	457.92
679.70	455.27
680.04	452.45
680.37	449.53
680.71	446.89
681.05	444.24
681.39	441.64
681.73	439.08
682.06	436.63
682.40	434.05
682.74	431.49
683.08	429.06
683.42	426.46
683.75	424.03
684.09	421.38
684.43	419.16
684.77	416.69
685.10	414.27
685.44	411.98
685.78	409.62
686.12	407.46
686.45	405.08
686.79	402.73
687.13	400.72
687.46	398.59
687.80	396.47
688.14	394.31
688.48	392.26
688.81	390.05
689.15	387.89
689.49	385.71
689.82	383.66
690.16	381.42
690.50	379.29
690.83	377.20
691.17	375.15
691.51	372.96
691.84	370.97
692.18	369.01
692.52	367.11
692.85	365.30
693.19	363.58
693.52	361.70
693.86	359.89
694.20	357.95
694.53	356.16
694.87	354.19
695.21	352.35
695.54	350.48
695.88	348.71
696.21	346.86
696.55	345.14
696.88	343.41
697.22	341.78
697.56	340.23
697.89	338.60
698.23	337.03
698.56	335.42
698.90	333.96
699.23	332.55
699.57	330.95
699.90	329.41
700.24	327.69
700.58	326.21
700.91	324.80
701.25	323.51
701.58	322.16
701.92	320.73
702.25	319.46
702.59	318.17
702.92	316.79
703.26	315.50
703.59	314.30
703.93	313.15
704.26	311.91
704.60	310.65
704.93	309.40
705.26	308.11
705.60	307.01
705.93	305.81
706.27	304.56
706.60	303.55
706.94	302.51
707.27	301.41
707.61	300.30
707.94	299.14
708.27	297.89
708.61	296.74
708.94	295.70
709.28	294.54
709.61	293.38
709.94	292.48
710.28	291.53
710.61	290.59
710.95	289.46
711.28	288.52
711.61	287.59
711.95	286.69
712.28	285.75
712.61	284.85
712.95	283.98
713.28	283.16
713.61	282.15
713.95	281.20
714.28	280.36
714.61	279.50
714.95	278.65
715.28	277.73
715.61	276.85
715.95	276.02
716.28	275.20
716.61	274.43
716.95	273.52
717.28	272.65
717.61	271.69
717.94	270.94
718.28	270.22
718.61	269.44
718.94	268.67
719.27	268.07
719.61	267.40
719.94	266.64
720.27	265.90
720.60	265.23
720.94	264.51
721.27	263.84
721.60	263.31
721.93	262.70
722.27	262.23
722.60	261.66
722.93	261.10
723.26	260.50
723.59	259.97
723.93	259.41
724.26	258.99
724.59	258.51
724.92	258.10
725.25	257.50
725.59	257.06
725.92	256.56
726.25	256.03
726.58	255.48
726.91	255.02
727.24	254.49
727.57	254.06
727.91	253.49
728.24	253.12
728.57	252.56
728.90	252.14
729.23	251.67
729.56	251.33
729.89	250.85
730.22	250.39
730.55	249.86
730.89	249.47
731.22	249.01
731.55	248.61
731.88	248.10
732.21	247.66
732.54	247.16
732.87	246.77
733.20	246.43
733.53	246.00
733.86	245.63
734.19	245.27
734.52	244.91
734.85	244.79
735.18	244.27
735.51	243.87
735.84	243.51
736.17	243.16
736.50	242.64
736.83	242.48
737.16	242.18
737.49	241.90
737.82	241.55
738.15	241.14
738.48	240.70
738.81	240.35
739.14	240.04
739.47	239.66
739.80	239.27
740.13	238.92
740.46	238.55
740.79	238.15
741.12	237.81
741.45	237.45
741.78	236.96
742.11	236.77
742.44	236.53
742.77	236.24
743.10	235.90
743.43	235.66
743.75	235.19
744.08	235.13
744.41	234.75
744.74	234.45
745.07	234.15
745.40	233.99
745.73	233.75
746.06	233.41
746.39	233.19
746.71	232.87
747.04	232.54
747.37	232.28
747.70	232.06
748.03	231.84
748.36	231.59
748.68	231.30
749.01	231.02
749.34	230.69
749.67	230.43
750.00	230.15
750.33	229.98
750.65	229.75
750.98	229.34
751.31	229.10
751.64	228.83
751.97	228.64
752.29	228.40
752.62	228.14
752.95	227.99
753.28	227.69
753.60	227.56
753.93	227.30
754.26	227.06
754.59	226.78
754.91	226.53
755.24	226.33
755.57	226.17
755.90	225.91
756.22	225.75
756.55	225.50
756.88	225.31
757.20	225.04
757.53	224.75
757.86	224.51
758.19	224.41
758.51	224.28
758.84	224.09
759.17	223.88
759.49	223.75
759.82	223.59
760.15	223.50
760.47	223.36
760.80	223.22
761.13	223.14
761.45	222.98
761.78	222.82
762.11	222.67
762.43	222.51
762.76	222.38
763.08	222.22
763.41	222.06
763.74	221.88
764.06	221.78
764.39	221.74
764.71	221.56
765.04	221.46
765.37	221.29
765.69	221.14
766.02	221.04
766.34	220.88
766.67	220.70
767.00	220.65
767.32	220.57
767.65	220.55
767.97	220.36
768.30	220.26
768.62	220.21
768.95	220.05
769.27	219.91
769.60	219.75
769.92	219.69
770.25	219.63
770.57	219.62
770.90	219.49
771.22	219.39
771.55	219.28
771.87	219.10
772.20	219.04
772.52	219.03
772.85	219.16
773.17	219.00
773.50	218.93
773.82	218.78
774.15	218.57
774.47	218.36
774.80	218.25
775.12	218.17
775.45	218.05
775.77	218.02
776.09	217.93
776.42	217.91
776.74	217.93
777.07	217.88
777.39	217.77
777.72	217.72
778.04	217.60
778.36	217.57
778.69	217.54
779.01	217.41
779.33	217.26
779.66	216.96
779.98	216.88
780.31	216.83
780.63	216.87
780.95	216.93
781.28	216.90
781.60	216.84
781.92	216.76
782.25	216.68
782.57	216.63
782.89	216.61
783.22	216.57
783.54	216.40
783.86	216.26
784.19	216.19
784.51	216.20
784.83	216.13
785.16	215.99
785.48	215.91
785.80	215.89
786.12	215.85
786.45	215.81
786.77	215.84
787.09	215.80
787.42	215.68
787.74	215.58
788.06	215.60
788.38	215.54
788.71	215.50
789.03	215.53
789.35	215.49
789.67	215.40
789.99	215.34
790.32	215.32
790.64	215.35
790.96	215.42
791.28	215.28
791.61	215.31
791.93	215.33
792.25	215.36
792.57	215.45
792.89	215.39
793.21	215.36
793.54	215.35
793.86	215.23
794.18	215.19
794.50	215.14
794.82	215.04
795.14	215.09
795.47	215.09
795.79	214.99
796.11	214.90
796.43	214.87
796.75	214.88
797.07	214.81
797.39	214.74
797.71	214.59
798.04	214.57
798.36	214.45
798.68	214.50
799.00	214.42
799.32	214.29
799.64	214.30
799.96	214.26
800.28	214.16
800.60	214.16
800.92	214.13
801.24	214.08
801.56	214.05
801.89	213.96
802.21	213.89
802.53	213.84
802.85	213.86
803.17	213.99
803.49	213.95
803.81	213.96
804.13	213.94
804.45	213.88
804.77	213.92
805.09	213.98
805.41	213.80
805.73	213.77
806.05	213.78
806.37	213.79
806.69	213.78
807.01	213.77
807.33	213.76
807.65	213.71
807.97	213.80
808.28	213.75
808.60	213.74
808.92	213.74
809.24	213.82
809.56	213.70
809.88	213.57
810.20	213.48
810.52	213.43
810.84	213.37
811.16	213.35
811.48	213.22
811.80	213.25
812.12	213.33
812.43	213.34
812.75	213.32
813.07	213.21
813.39	213.20
813.71	213.20
814.03	213.13
814.35	213.08
814.67	212.98
814.98	212.96
815.30	213.00
815.62	212.92
815.94	212.86
816.26	212.94
816.58	212.91
816.89	212.92
817.21	212.92
817.53	213.00
817.85	213.03
818.17	213.02
818.48	212.95
818.80	212.93
819.12	212.95
819.44	212.87
819.76	212.82
820.07	212.86
820.39	212.80
820.71	212.85
821.03	212.85
821.34	212.87
821.66	212.95
821.98	212.87
822.30	212.90
822.61	212.92
822.93	212.85
823.25	212.80
823.57	212.78
823.88	212.78
824.20	212.70
824.52	212.73
824.83	212.80
825.15	212.72
825.47	212.71
825.79	212.67
826.10	212.72
826.42	212.75
826.74	212.70
827.05	212.74
827.37	212.70
827.69	212.67
828.00	212.65
828.32	212.63
828.64	212.66
828.95	212.78
829.27	212.70
829.58	212.70
829.90	212.73
830.22	212.74
830.53	212.68
830.85	212.65
831.17	212.59
831.48	212.56
831.80	212.61
832.11	212.60
832.43	212.55
832.75	212.55
833.06	212.66
833.38	212.66
833.69	212.58
834.01	212.58
834.32	212.55
834.64	212.52
834.96	212.52
835.27	212.54
835.59	212.36
835.90	212.40
836.22	212.42
836.53	212.36
836.85	212.26
837.16	212.39
837.48	212.27
837.79	212.31
838.11	212.29
838.42	212.22
838.74	212.24
839.05	212.18
839.37	212.17
839.68	212.02
840.00	211.94
840.31	212.00
840.63	212.00
840.94	212.01
841.26	211.93
841.57	211.84
841.88	211.78
842.20	211.87
842.51	211.78
842.83	211.81
843.14	211.99
843.46	212.02
843.77	211.97
844.08	212.03
844.40	212.00
844.71	211.98
845.03	212.02
845.34	211.97
845.65	212.05
845.97	212.03
846.28	212.00
846.60	212.04
846.91	211.99
847.22	212.01
847.54	212.06
847.85	212.12
848.16	212.19
848.48	212.17
848.79	212.19
849.10	212.21
849.42	212.21
849.73	212.05
850.04	212.06
850.36	212.04
850.67	212.02
850.98	211.96
851.30	211.95
851.61	211.88
851.92	211.92
852.23	211.88
852.55	211.85
852.86	211.96
853.17	211.96
853.49	212.00
853.80	211.97
854.11	211.95
854.42	211.93
854.74	211.87
855.05	211.83
855.36	211.69
855.67	211.74
855.99	211.68
856.30	211.87
856.61	211.90
856.92	211.91
857.23	211.90
857.55	211.88
857.86	211.91
858.17	212.01
858.48	211.94
858.79	211.98
859.11	211.99
859.42	211.95
859.73	211.91
860.04	211.89
860.35	211.89
860.66	211.84
860.98	211.87
861.29	211.91
861.60	211.97
861.91	212.02
862.22	211.97
862.53	211.95
862.84	211.77
863.16	211.83
863.47	211.77
863.78	211.82
864.09	211.85
864.40	211.85
864.71	211.83
865.02	211.89
865.33	211.85
865.64	211.79
865.95	211.77
866.27	211.89
866.58	211.85
866.89	211.83
867.20	211.85
867.51	211.83
867.82	211.77
868.13	211.79
868.44	211.76
868.75	211.77
869.06	211.73
869.37	211.70
869.68	211.64
869.99	211.66
870.30	211.73
870.61	211.74
870.92	211.61
871.23	211.55
871.54	211.50
871.85	211.53
872.16	211.59
872.47	211.61
872.78	211.52
873.09	211.53
873.40	211.49
873.71	211.48
874.02	211.42
874.33	211.45
874.64	211.42
874.95	211.54
875.26	211.48
875.56	211.55
875.87	211.53
876.18	211.49
876.49	211.64
876.80	211.52
877.11	211.48
877.42	211.50
877.73	211.49
878.04	211.47
878.35	211.43
878.66	211.41
878.96	211.35
879.27	211.31
879.58	211.29
879.89	211.31
880.20	211.32
880.51	211.36
880.82	211.26
881.12	211.28
881.43	211.17
881.74	211.19
882.05	211.07
882.36	211.12
882.67	211.11
882.97	210.87
883.28	210.88
883.59	210.85
883.90	210.90
884.21	210.94
884.51	210.94
884.82	210.92
885.13	210.88
885.44	210.89
885.74	210.92
886.05	210.93
886.36	210.87
886.67	210.85
886.98	210.95
887.28	211.05
887.59	211.00
887.90	210.96
888.20	210.86
888.51	210.94
888.82	210.93
889.13	210.96
889.43	211.16
889.74	211.15
890.05	211.18
890.35	211.11
890.66	211.11
890.97	211.05
891.28	211.02
891.58	211.10
891.89	211.07
892.20	211.01
892.50	210.97
892.81	211.04
893.12	210.99
893.42	210.80
893.73	210.82
894.04	210.86
894.34	210.95
894.65	210.99
894.95	210.95
895.26	210.95
895.57	210.97
895.87	210.77
896.18	210.84
896.48	210.82
896.79	210.88
897.10	210.95
897.40	211.01
897.71	211.08
898.01	211.01
898.32	211.00
898.63	210.97
898.93	211.01
899.24	210.97
899.54	210.98
899.85	211.05
900.15	211.00
900.46	210.96
900.76	210.99
901.07	211.00
901.38	211.01
901.68	211.00
901.99	210.90
902.29	210.97
902.60	210.97
902.90	211.08
903.21	211.11
903.51	211.07
903.82	211.15
904.12	211.15
904.43	211.18
904.73	211.20
905.03	211.25
905.34	211.35
905.64	211.38
905.95	211.40
906.25	211.41
906.56	211.35
906.86	211.37
907.17	211.30
907.47	211.33
907.77	211.40
908.08	211.40
908.38	211.40
908.69	211.43
908.99	211.39
909.30	211.32
909.60	211.32
909.90	211.27
910.21	211.18
910.51	211.16
910.81	211.21
911.12	211.24
911.42	211.29
911.73	211.21
912.03	211.18
912.33	211.21
912.64	211.21
912.94	211.24
913.24	211.26
913.55	211.23
913.85	211.28
914.15	211.21
914.46	211.17
914.76	211.23
915.06	211.15
915.37	211.07
915.67	211.03
915.97	211.03
916.27	210.99
916.58	210.98
916.88	210.90
917.18	210.78
917.49	210.87
917.79	210.84
918.09	210.81
918.39	210.90
918.70	210.93
919.00	210.89
919.30	211.07
919.60	211.07
919.91	211.06
920.21	211.02
920.51	211.02
920.81	210.98
921.12	211.01
921.42	211.07
921.72	211.14
922.02	211.13
922.32	211.14
922.63	211.17
922.93	211.24
923.23	211.25
923.53	211.24
923.83	211.15
924.13	211.11
924.44	211.12
924.74	211.10
925.04	211.12
925.34	211.16
925.64	210.99
925.94	210.91
926.24	211.04
926.55	211.04
926.85	211.06
927.15	211.12
927.45	211.13
927.75	211.12
928.05	211.11
928.35	211.16
928.65	211.20
928.95	211.19
929.26	211.19
929.56	211.33
929.86	211.39
930.16	211.31
930.46	211.25
930.76	211.22
931.06	211.14
931.36	211.08
931.66	211.08
931.96	211.08
932.26	211.08
932.56	210.96
932.86	210.95
933.16	210.90
933.46	210.85
933.76	210.75
934.06	210.81
934.36	210.89
934.66	210.86
934.96	210.82
935.26	210.90
935.56	210.86
935.86	210.75
936.16	210.72
936.46	210.78
936.76	210.86
937.06	210.88
937.36	210.95
937.66	211.00
937.96	210.99
938.26	210.93
938.56	210.94
938.86	210.96
939.16	210.98
939.46	211.09
939.76	211.15
940.06	211.21
940.35	211.13
940.65	211.05
940.95	211.12
941.25	211.12
941.55	211.06
941.85	211.08
942.15	211.13
942.45	211.20
942.75	211.18
943.04	211.17
943.34	211.25
943.64	211.12
943.94	211.03
944.24	211.03
944.54	211.08
944.84	211.09
945.13	211.06
945.43	211.05
945.73	211.02
946.03	211.02
946.33	211.00
946.62	210.99
946.92	210.95
947.22	210.94
947.52	210.93
947.82	210.93
948.11	210.95
948.41	210.92
948.71	210.86
949.01	210.88
949.31	210.89
949.60	210.83
949.90	210.95
950.20	210.97
950.50	210.95
950.79	210.97
951.09	210.96
951.39	211.05
951.69	211.03
951.98	211.03
952.28	210.99
952.58	210.96
952.87	210.96
953.17	211.00
953.47	210.99
953.76	210.98
954.06	211.00
954.36	210.95
954.66	210.90
954.95	210.97
955.25	210.92
955.55	210.93
955.84	210.86
956.14	210.84
956.44	210.85
956.73	210.88
957.03	210.84
957.32	210.89
957.62	210.83
957.92	210.85
958.21	210.85
958.51	211.02
958.81	211.07
959.10	211.07
959.40	211.13
959.69	211.14
959.99	211.10
960.29	211.08
960.58	211.11
960.88	211.21
961.17	211.18
961.47	211.22
961.76	211.13
962.06	211.27
962.36	211.22
962.65	211.19
962.95	211.18
963.24	211.15
963.54	211.11
963.83	211.09
964.13	211.11
964.42	211.04
964.72	210.93
965.01	210.98
965.31	210.99
965.60	210.93
965.90	210.99
966.19	211.00
966.49	211.01
966.78	210.96
967.08	210.94
967.37	210.93
967.67	210.87
967.96	211.00
968.26	210.93
968.55	210.99
968.85	211.01
969.14	211.03
969.43	211.05
969.73	211.05
970.02	211.05
970.32	211.03
970.61	211.05
970.91	210.98
971.20	210.90
971.49	210.91
971.79	210.94
972.08	210.82
972.38	210.84
972.67	210.80
972.96	210.85
973.26	210.79
973.55	210.87
973.85	210.90
974.14	210.86
974.43	210.88
974.73	210.83
975.02	210.83
975.31	210.89
975.61	210.93
975.90	210.98
976.19	210.93
976.49	210.88
976.78	210.85
977.07	210.87
977.37	210.85
977.66	210.89
977.95	210.90
978.24	210.93
978.54	211.01
978.83	211.01
979.12	210.96
979.42	210.98
979.71	210.92
980.00	210.96
980.29	210.98
980.59	210.94
980.88	210.99
981.17	211.01
981.46	210.84
981.76	210.82
982.05	210.80
982.34	210.87
982.63	210.86
982.93	210.86
983.22	210.92
983.51	210.95
983.80	210.98
984.09	210.92
984.39	210.86
984.68	210.80
984.97	210.77
985.26	210.82
985.55	210.82
985.85	210.77
986.14	210.77
986.43	210.87
986.72	210.88
987.01	210.81
987.30	210.81
987.59	210.89
987.89	210.95
988.18	210.91
988.47	210.90
988.76	210.90
989.05	210.96
989.34	210.94
989.63	210.97
989.92	210.90
990.22	210.92
990.51	210.97
990.80	210.97
991.09	211.00
991.38	211.03
991.67	211.02
991.96	211.04
992.25	211.05
992.54	210.91
992.83	210.85
993.12	210.86
993.41	210.83
993.70	210.88
993.99	210.87
994.28	210.86
994.58	210.89
994.87	210.87
995.16	210.84
995.45	210.80
995.74	210.78
996.03	210.83
996.32	210.89
996.61	210.89
996.90	210.91
997.19	210.89
997.48	210.85
997.77	210.86
998.06	210.84
998.34	210.86
998.63	210.84
998.92	210.90
999.21	210.98
999.50	211.05
999.79	211.01
1000.08	210.96
1000.37	211.00
1000.66	210.98
1000.95	211.08
1001.24	211.07
1001.53	211.12
1001.82	211.14
1002.11	211.06
1002.40	211.05
1002.68	211.07
1002.97	211.14
1003.26	211.17
1003.55	211.17
1003.84	211.13
1004.13	211.17
1004.42	211.13
1004.71	211.16
1004.99	211.18
1005.28	211.15
1005.57	211.13
1005.86	211.12
1006.15	211.14
1006.44	211.11
1006.72	211.08
1007.01	211.03
1007.30	211.03
1007.59	211.04
1007.88	210.95
1008.17	210.95
1008.45	210.97
1008.74	210.91
1009.03	210.82
1009.32	210.71
1009.60	210.70
1009.89	210.70
1010.18	210.63
1010.47	210.62
1010.76	210.59
1011.04	210.53
1011.33	210.56
1011.62	210.52
1011.91	210.49
1012.19	210.46
1012.48	210.43
1012.77	210.36
1013.05	210.42
1013.34	210.39
1013.63	210.31
1013.92	210.34
1014.20	210.33
1014.49	210.37
1014.78	210.43
1015.06	210.41
1015.35	210.47
1015.64	210.45
1015.92	210.42
1016.21	210.45
1016.50	210.44
1016.78	210.48
1017.07	210.54
1017.36	210.49
1017.64	210.46
1017.93	210.51
1018.22	210.56
1018.50	210.57
1018.79	210.68
1019.08	210.61
1019.36	210.61
1019.65	210.65
1019.93	210.71
1020.22	210.73
1020.51	210.70
1020.79	210.67
1021.08	210.95
1021.36	210.00
1021.65	211.35
1021.94	210.40
1022.22	210.10
1022.51	210.50
1022.79	211.40
1023.08	210.75
1023.36	211.90
1023.65	210.60
>>>>>End Processed Spectral Data<<<<<
