SpectraSuite Data File
++++++++++++++++++++++++++++++++++++
Date: Mon Feb 25 17:29:45 EST 2013
User: group
Dark Spectrum Present: No
Reference Spectrum Present: No
Number of Sampled Component Spectra: 1
Spectrometers: USB2E7196
Integration Time (usec): 52000 (USB2E7196)
Spectra Averaged: 20 (USB2E7196)
Boxcar Smoothing: 10 (USB2E7196)
Correct for Electrical Dark: No (USB2E7196)
Strobe/Lamp Enabled: No (USB2E7196)
Correct for Detector Non-linearity: No (USB2E7196)
Correct for Stray Light: No (USB2E7196)
Number of Pixels in Processed Spectrum: 2048
>>>>>Begin Processed Spectral Data<<<<<
339.09	0.00
339.48	199.80
339.86	199.05
340.24	200.65
340.63	203.45
341.01	206.90
341.39	206.80
341.78	207.50
342.16	209.30
342.54	208.15
342.93	198.20
343.31	208.26
343.69	208.76
344.07	209.35
344.46	209.81
344.84	210.21
345.22	210.42
345.60	210.68
345.99	210.86
346.37	210.99
346.75	211.18
347.13	211.35
347.52	211.40
347.90	211.59
348.28	211.65
348.66	211.76
349.05	211.71
349.43	211.77
349.81	211.75
350.19	211.78
350.57	211.80
350.96	211.86
351.34	211.97
351.72	212.03
352.10	212.08
352.48	212.23
352.87	212.30
353.25	212.42
353.63	212.45
354.01	212.57
354.39	212.67
354.77	212.72
355.15	212.82
355.54	212.91
355.92	212.84
356.30	212.92
356.68	213.12
357.06	213.20
357.44	213.27
357.82	213.38
358.20	213.48
358.58	213.57
358.97	213.60
359.35	213.69
359.73	213.80
360.11	213.85
360.49	213.86
360.87	213.99
361.25	214.03
361.63	214.16
362.01	214.22
362.39	214.13
362.77	214.17
363.15	214.24
363.53	214.22
363.91	214.30
364.29	214.30
364.67	214.14
365.05	214.15
365.43	214.10
365.81	214.09
366.19	214.15
366.57	214.27
366.95	214.28
367.33	214.18
367.71	214.15
368.09	214.14
368.47	214.10
368.85	213.99
369.23	213.99
369.61	213.86
369.99	213.83
370.37	213.89
370.75	213.98
371.13	213.86
371.51	213.82
371.89	213.79
372.27	213.81
372.65	213.81
373.03	213.78
373.41	213.79
373.78	213.76
374.16	213.65
374.54	213.47
374.92	213.40
375.30	213.38
375.68	213.30
376.06	213.25
376.44	213.20
376.82	213.10
377.19	212.96
377.57	212.88
377.95	212.72
378.33	212.65
378.71	212.46
379.09	212.37
379.47	212.33
379.84	212.31
380.22	212.20
380.60	212.10
380.98	212.00
381.36	211.90
381.73	211.83
382.11	211.75
382.49	211.75
382.87	211.66
383.25	211.63
383.62	211.85
384.00	211.76
384.38	211.75
384.76	211.77
385.13	211.83
385.51	211.79
385.89	211.83
386.27	211.85
386.64	211.82
387.02	211.77
387.40	211.71
387.78	211.64
388.15	211.63
388.53	211.56
388.91	211.53
389.29	211.50
389.66	211.53
390.04	211.57
390.42	211.58
390.79	211.64
391.17	211.61
391.55	211.34
391.92	211.39
392.30	211.39
392.68	211.37
393.05	211.37
393.43	211.43
393.81	211.39
394.18	211.35
394.56	211.42
394.94	211.52
395.31	211.55
395.69	211.61
396.06	211.55
396.44	211.65
396.82	211.70
397.19	211.76
397.57	211.73
397.95	211.83
398.32	211.78
398.70	211.83
399.07	211.89
399.45	211.93
399.82	211.95
400.20	211.93
400.58	211.95
400.95	211.84
401.33	211.89
401.70	212.08
402.08	212.11
402.45	212.07
402.83	212.15
403.20	212.29
403.58	212.28
403.95	212.47
404.33	212.51
404.71	212.52
405.08	212.68
405.46	212.82
405.83	212.89
406.21	212.99
406.58	213.12
406.96	213.18
407.33	213.30
407.70	213.46
408.08	213.83
408.45	214.03
408.83	214.27
409.20	214.47
409.58	214.58
409.95	214.82
410.33	215.12
410.70	215.35
411.08	215.58
411.45	215.96
411.82	216.21
412.20	216.60
412.57	217.16
412.95	217.48
413.32	217.93
413.69	218.35
414.07	218.85
414.44	219.36
414.82	219.96
415.19	220.64
415.56	221.25
415.94	221.79
416.31	222.53
416.68	223.38
417.06	224.17
417.43	224.98
417.81	225.97
418.18	226.95
418.55	228.00
418.93	229.10
419.30	230.19
419.67	231.47
420.04	232.68
420.42	233.94
420.79	235.51
421.16	237.01
421.54	238.54
421.91	240.16
422.28	241.81
422.66	243.57
423.03	245.30
423.40	247.19
423.77	249.17
424.15	251.23
424.52	253.25
424.89	255.52
425.26	257.75
425.64	259.82
426.01	262.06
426.38	264.36
426.75	266.74
427.13	269.16
427.50	271.67
427.87	274.32
428.24	276.97
428.61	279.47
428.99	282.24
429.36	285.32
429.73	288.31
430.10	291.34
430.47	294.48
430.85	297.65
431.22	300.93
431.59	304.48
431.96	307.86
432.33	311.64
432.70	315.23
433.08	319.40
433.45	323.41
433.82	327.40
434.19	331.75
434.56	336.12
434.93	340.26
435.30	344.34
435.68	349.00
436.05	353.53
436.42	357.98
436.79	362.09
437.16	366.50
437.53	371.12
437.90	375.60
438.27	380.05
438.64	384.75
439.01	389.13
439.38	392.96
439.75	396.61
440.13	400.83
440.50	404.86
440.87	408.26
441.24	411.59
441.61	415.37
441.98	418.06
442.35	421.23
442.72	424.47
443.09	427.65
443.46	429.43
443.83	430.60
444.20	431.66
444.57	433.26
444.94	433.96
445.31	434.75
445.68	435.50
446.05	435.73
446.42	435.20
446.79	434.59
447.16	433.89
447.53	433.43
447.90	431.58
448.27	429.75
448.64	427.18
449.01	425.32
449.37	422.13
449.74	419.25
450.11	415.76
450.48	411.88
450.85	407.89
451.22	404.58
451.59	401.49
451.96	398.37
452.33	394.29
452.70	390.62
453.07	386.15
453.43	381.61
453.80	377.33
454.17	373.27
454.54	369.35
454.91	365.21
455.28	361.19
455.65	357.49
456.02	353.91
456.38	350.74
456.75	346.72
457.12	343.45
457.49	340.18
457.86	336.84
458.23	334.10
458.59	331.09
458.96	327.99
459.33	325.24
459.70	322.55
460.07	320.34
460.43	317.83
460.80	315.55
461.17	313.66
461.54	311.57
461.91	309.50
462.27	307.54
462.64	305.88
463.01	303.90
463.38	302.08
463.74	300.05
464.11	298.43
464.48	297.00
464.85	295.48
465.21	294.32
465.58	293.11
465.95	291.70
466.32	290.47
466.68	289.35
467.05	288.12
467.42	287.03
467.78	285.84
468.15	284.70
468.52	283.96
468.88	282.78
469.25	281.80
469.62	281.00
469.98	280.16
470.35	279.31
470.72	278.56
471.08	277.73
471.45	277.00
471.82	276.36
472.18	275.72
472.55	275.23
472.92	274.57
473.28	274.03
473.65	273.53
474.02	273.13
474.38	272.72
474.75	272.50
475.11	272.18
475.48	272.02
475.85	271.98
476.21	271.74
476.58	271.74
476.94	271.75
477.31	271.84
477.67	271.80
478.04	271.91
478.41	272.20
478.77	272.57
479.14	272.93
479.50	273.29
479.87	273.64
480.23	274.09
480.60	274.55
480.96	275.10
481.33	275.81
481.69	276.33
482.06	276.98
482.42	277.68
482.79	278.37
483.15	279.25
483.52	280.22
483.88	281.18
484.25	282.12
484.61	283.27
484.98	284.36
485.34	285.65
485.71	286.91
486.07	288.30
486.44	289.64
486.80	291.14
487.17	292.70
487.53	294.52
487.90	296.41
488.26	298.34
488.62	300.42
488.99	302.41
489.35	304.55
489.72	306.91
490.08	309.27
490.44	311.82
490.81	314.35
491.17	316.89
491.54	319.81
491.90	322.92
492.26	326.01
492.63	329.30
492.99	332.79
493.36	336.54
493.72	340.28
494.08	344.24
494.45	348.46
494.81	352.89
495.17	357.43
495.54	362.20
495.90	367.32
496.26	372.48
496.63	377.98
496.99	383.82
497.35	389.68
497.72	395.82
498.08	402.22
498.44	408.91
498.80	416.04
499.17	423.31
499.53	430.73
499.89	438.50
500.26	446.44
500.62	454.57
500.98	463.13
501.34	471.95
501.71	481.12
502.07	490.44
502.43	500.19
502.79	509.95
503.16	520.15
503.52	530.27
503.88	540.95
504.24	551.99
504.60	563.37
504.97	575.15
505.33	587.12
505.69	599.83
506.05	612.56
506.41	625.35
506.78	638.49
507.14	651.80
507.50	665.65
507.86	679.88
508.22	694.32
508.59	708.90
508.95	723.92
509.31	739.12
509.67	754.95
510.03	770.73
510.39	787.35
510.75	803.92
511.12	821.00
511.48	838.22
511.84	855.60
512.20	873.10
512.56	891.00
512.92	909.09
513.28	927.24
513.64	945.57
514.00	964.07
514.37	982.62
514.73	1001.82
515.09	1020.96
515.45	1040.08
515.81	1059.43
516.17	1078.95
516.53	1098.61
516.89	1118.39
517.25	1137.91
517.61	1157.66
517.97	1177.21
518.33	1196.77
518.69	1216.37
519.05	1236.23
519.41	1256.52
519.77	1276.96
520.13	1296.76
520.49	1316.60
520.85	1336.78
521.21	1357.04
521.57	1377.37
521.93	1397.21
522.29	1417.60
522.65	1437.65
523.01	1457.81
523.37	1477.68
523.73	1497.54
524.09	1517.02
524.45	1536.51
524.81	1556.02
525.17	1575.93
525.53	1595.69
525.89	1615.42
526.25	1634.88
526.61	1653.92
526.97	1672.54
527.33	1690.67
527.68	1709.38
528.04	1728.01
528.40	1745.81
528.76	1763.74
529.12	1781.58
529.48	1800.45
529.84	1817.80
530.20	1835.17
530.56	1852.16
530.91	1869.75
531.27	1887.25
531.63	1904.38
531.99	1921.52
532.35	1938.15
532.71	1953.87
533.07	1970.16
533.42	1985.63
533.78	2001.63
534.14	2016.82
534.50	2031.23
534.86	2046.28
535.21	2059.94
535.57	2074.10
535.93	2088.19
536.29	2101.78
536.65	2115.32
537.00	2127.43
537.36	2140.05
537.72	2152.17
538.08	2164.89
538.44	2177.31
538.79	2189.21
539.15	2200.91
539.51	2212.45
539.87	2224.49
540.22	2235.89
540.58	2247.84
540.94	2259.37
541.29	2269.50
541.65	2278.93
542.01	2288.99
542.37	2298.37
542.72	2308.22
543.08	2316.89
543.44	2325.84
543.79	2333.84
544.15	2341.45
544.51	2350.08
544.87	2358.39
545.22	2365.40
545.58	2371.32
545.94	2376.06
546.29	2380.65
546.65	2385.15
547.01	2389.20
547.36	2392.79
547.72	2396.76
548.07	2398.63
548.43	2400.74
548.79	2402.61
549.14	2405.65
549.50	2408.14
549.86	2410.09
550.21	2412.30
550.57	2414.64
550.92	2415.65
551.28	2416.46
551.64	2417.48
551.99	2418.33
552.35	2418.27
552.70	2419.32
553.06	2420.59
553.41	2422.51
553.77	2423.62
554.13	2424.17
554.48	2424.81
554.84	2424.98
555.19	2423.99
555.55	2423.44
555.90	2422.69
556.26	2421.91
556.61	2420.68
556.97	2418.48
557.32	2416.86
557.68	2414.00
558.03	2411.60
558.39	2409.45
558.74	2408.22
559.10	2406.20
559.45	2403.37
559.81	2401.41
560.16	2398.10
560.52	2395.06
560.87	2391.30
561.23	2387.42
561.58	2384.85
561.94	2380.83
562.29	2376.45
562.64	2373.73
563.00	2370.55
563.35	2367.58
563.71	2365.05
564.06	2362.00
564.42	2359.65
564.77	2357.06
565.12	2354.94
565.48	2351.43
565.83	2347.94
566.19	2344.10
566.54	2339.47
566.89	2335.45
567.25	2331.25
567.60	2328.01
567.96	2324.01
568.31	2320.11
568.66	2316.20
569.02	2311.14
569.37	2306.39
569.72	2302.69
570.08	2297.30
570.43	2292.03
570.78	2286.57
571.14	2280.89
571.49	2274.94
571.84	2269.35
572.20	2262.69
572.55	2256.10
572.90	2249.84
573.26	2243.53
573.61	2237.20
573.96	2231.58
574.31	2224.58
574.67	2217.19
575.02	2209.35
575.37	2201.66
575.72	2193.58
576.08	2186.47
576.43	2178.83
576.78	2171.64
577.13	2164.37
577.49	2157.53
577.84	2150.46
578.19	2143.77
578.54	2137.00
578.90	2130.73
579.25	2123.00
579.60	2115.16
579.95	2107.60
580.30	2100.38
580.66	2093.23
581.01	2085.38
581.36	2077.22
581.71	2069.84
582.06	2062.71
582.42	2055.45
582.77	2047.60
583.12	2039.92
583.47	2032.48
583.82	2025.54
584.17	2017.57
584.53	2009.69
584.88	2001.72
585.23	1994.31
585.58	1986.19
585.93	1977.97
586.28	1970.03
586.63	1962.43
586.98	1955.55
587.34	1948.24
587.69	1940.59
588.04	1932.62
588.39	1925.25
588.74	1917.58
589.09	1909.86
589.44	1901.53
589.79	1894.52
590.14	1887.80
590.49	1880.68
590.84	1873.10
591.19	1866.17
591.54	1859.02
591.89	1850.45
592.25	1842.74
592.60	1834.29
592.95	1826.02
593.30	1817.91
593.65	1809.42
594.00	1801.32
594.35	1794.04
594.70	1786.55
595.05	1779.20
595.40	1771.47
595.75	1763.46
596.10	1756.63
596.45	1749.72
596.80	1743.12
597.15	1736.00
597.50	1728.36
597.85	1721.24
598.19	1713.99
598.54	1706.19
598.89	1699.45
599.24	1693.89
599.59	1687.58
599.94	1681.54
600.29	1675.29
600.64	1668.67
600.99	1661.79
601.34	1655.93
601.69	1648.35
602.04	1641.25
602.39	1634.27
602.74	1627.87
603.08	1622.13
603.43	1616.00
603.78	1609.11
604.13	1602.30
604.48	1595.47
604.83	1589.60
605.18	1583.75
605.53	1577.18
605.87	1570.94
606.22	1564.89
606.57	1558.13
606.92	1551.06
607.27	1544.39
607.62	1537.89
607.96	1531.96
608.31	1526.60
608.66	1519.68
609.01	1513.33
609.36	1506.63
609.70	1499.75
610.05	1492.86
610.40	1486.00
610.75	1478.45
611.10	1471.96
611.44	1464.08
611.79	1456.24
612.14	1448.22
612.49	1439.86
612.83	1432.27
613.18	1423.97
613.53	1415.77
613.88	1407.41
614.22	1400.12
614.57	1392.09
614.92	1384.30
615.27	1376.52
615.61	1368.30
615.96	1360.56
616.31	1353.58
616.65	1346.84
617.00	1340.00
617.35	1332.96
617.70	1325.43
618.04	1318.01
618.39	1309.88
618.74	1302.99
619.08	1295.72
619.43	1288.70
619.78	1282.20
620.12	1275.30
620.47	1268.70
620.82	1261.57
621.16	1254.73
621.51	1247.27
621.85	1240.39
622.20	1233.25
622.55	1225.87
622.89	1218.72
623.24	1212.13
623.59	1204.51
623.93	1197.21
624.28	1190.09
624.62	1183.21
624.97	1176.06
625.32	1169.41
625.66	1163.20
626.01	1157.01
626.35	1151.14
626.70	1144.62
627.04	1138.25
627.39	1131.67
627.73	1125.32
628.08	1119.35
628.43	1112.95
628.77	1106.92
629.12	1100.47
629.46	1094.96
629.81	1089.00
630.15	1082.76
630.50	1076.39
630.84	1070.43
631.19	1064.28
631.53	1058.29
631.88	1051.78
632.22	1045.55
632.57	1039.21
632.91	1032.86
633.26	1026.40
633.60	1020.05
633.95	1014.52
634.29	1008.21
634.64	1002.44
634.98	996.40
635.32	990.41
635.67	984.77
636.01	979.12
636.36	973.40
636.70	967.43
637.05	961.64
637.39	956.11
637.73	950.51
638.08	945.40
638.42	940.29
638.77	934.70
639.11	929.20
639.45	923.87
639.80	918.64
640.14	913.26
640.49	907.79
640.83	902.42
641.17	896.78
641.52	891.38
641.86	885.94
642.20	880.78
642.55	875.24
642.89	869.59
643.23	863.94
643.58	858.73
643.92	852.97
644.26	847.65
644.61	842.30
644.95	837.05
645.29	831.74
645.64	826.01
645.98	820.77
646.32	815.84
646.66	810.54
647.01	805.35
647.35	800.29
647.69	794.96
648.04	789.83
648.38	784.54
648.72	779.45
649.06	774.30
649.41	768.91
649.75	763.70
650.09	758.79
650.43	753.78
650.78	748.33
651.12	743.19
651.46	738.25
651.80	733.45
652.14	728.55
652.49	723.30
652.83	718.41
653.17	713.23
653.51	708.14
653.85	703.35
654.20	698.31
654.54	693.18
654.88	688.58
655.22	683.44
655.56	678.44
655.90	673.39
656.25	668.42
656.59	663.52
656.93	659.12
657.27	654.63
657.61	649.86
657.95	645.56
658.29	641.30
658.64	636.88
658.98	632.16
659.32	627.32
659.66	622.85
660.00	618.34
660.34	613.82
660.68	609.34
661.02	604.95
661.36	600.77
661.70	596.71
662.05	592.58
662.39	588.99
662.73	585.22
663.07	581.41
663.41	577.71
663.75	574.06
664.09	570.07
664.43	566.06
664.77	562.37
665.11	558.48
665.45	554.71
665.79	550.83
666.13	547.28
666.47	543.78
666.81	540.34
667.15	536.70
667.49	533.43
667.83	530.13
668.17	526.74
668.51	523.53
668.85	520.33
669.19	517.16
669.53	513.62
669.87	510.12
670.21	506.99
670.55	503.65
670.89	500.64
671.23	497.70
671.57	494.87
671.91	491.83
672.25	488.93
672.58	485.85
672.92	482.85
673.26	480.06
673.60	477.30
673.94	474.26
674.28	471.47
674.62	468.78
674.96	465.94
675.30	463.23
675.64	460.38
675.97	457.53
676.31	454.85
676.65	452.31
676.99	450.01
677.33	447.31
677.67	444.81
678.01	442.05
678.34	439.44
678.68	436.80
679.02	434.30
679.36	431.76
679.70	429.38
680.04	426.92
680.37	424.32
680.71	421.85
681.05	419.61
681.39	417.33
681.73	414.90
682.06	412.87
682.40	410.65
682.74	408.41
683.08	406.26
683.42	403.99
683.75	401.74
684.09	399.45
684.43	397.46
684.77	395.22
685.10	393.08
685.44	390.84
685.78	388.61
686.12	386.70
686.45	384.67
686.79	382.63
687.13	380.84
687.46	378.98
687.80	377.13
688.14	375.12
688.48	373.31
688.81	371.33
689.15	369.26
689.49	367.30
689.82	365.39
690.16	363.33
690.50	361.39
690.83	359.42
691.17	357.43
691.51	355.39
691.84	353.60
692.18	351.90
692.52	350.26
692.85	348.71
693.19	346.97
693.52	345.32
693.86	343.60
694.20	341.91
694.53	340.31
694.87	338.52
695.21	336.94
695.54	335.26
695.88	333.74
696.21	332.06
696.55	330.66
696.88	329.20
697.22	327.83
697.56	326.49
697.89	325.08
698.23	323.69
698.56	322.34
698.90	321.00
699.23	319.56
699.57	318.30
699.90	316.91
700.24	315.39
700.58	314.07
700.91	312.80
701.25	311.57
701.58	310.20
701.92	309.08
702.25	307.86
702.59	306.62
702.92	305.47
703.26	304.37
703.59	303.12
703.93	302.12
704.26	301.08
704.60	300.02
704.93	298.98
705.26	297.97
705.60	296.92
705.93	295.92
706.27	294.90
706.60	293.80
706.94	292.86
707.27	291.90
707.61	290.90
707.94	289.90
708.27	288.82
708.61	287.88
708.94	286.87
709.28	285.83
709.61	284.80
709.94	283.87
710.28	283.03
710.61	282.28
710.95	281.32
711.28	280.46
711.61	279.52
711.95	278.71
712.28	277.79
712.61	276.94
712.95	276.10
713.28	275.35
713.61	274.48
713.95	273.60
714.28	272.91
714.61	272.17
714.95	271.40
715.28	270.61
715.61	269.86
715.95	269.06
716.28	268.35
716.61	267.70
716.95	266.92
717.28	266.20
717.61	265.38
717.94	264.63
718.28	263.86
718.61	263.25
718.94	262.54
719.27	261.95
719.61	261.33
719.94	260.73
720.27	260.08
720.60	259.44
720.94	258.94
721.27	258.30
721.60	257.85
721.93	257.33
722.27	256.87
722.60	256.39
722.93	255.90
723.26	255.38
723.59	254.87
723.93	254.33
724.26	253.86
724.59	253.45
724.92	253.10
725.25	252.66
725.59	252.02
725.92	251.60
726.25	251.16
726.58	250.70
726.91	250.20
727.24	249.78
727.57	249.38
727.91	248.81
728.24	248.47
728.57	247.93
728.90	247.47
729.23	247.03
729.56	246.66
729.89	246.21
730.22	245.81
730.55	245.40
730.89	245.07
731.22	244.62
731.55	244.16
731.88	243.71
732.21	243.25
732.54	243.03
732.87	242.68
733.20	242.23
733.53	241.87
733.86	241.52
734.19	241.06
734.52	240.75
734.85	240.54
735.18	240.09
735.51	239.75
735.84	239.51
736.17	239.19
736.50	238.82
736.83	238.73
737.16	238.48
737.49	238.25
737.82	237.90
738.15	237.55
738.48	237.29
738.81	236.96
739.14	236.77
739.47	236.43
739.80	236.08
740.13	235.89
740.46	235.56
740.79	235.24
741.12	234.98
741.45	234.62
741.78	234.29
742.11	234.10
742.44	233.81
742.77	233.55
743.10	233.27
743.43	232.99
743.75	232.60
744.08	232.52
744.41	232.16
744.74	231.98
745.07	231.84
745.40	231.63
745.73	231.44
746.06	231.13
746.39	230.94
746.71	230.72
747.04	230.45
747.37	230.30
747.70	230.17
748.03	229.99
748.36	229.85
748.68	229.65
749.01	229.40
749.34	229.25
749.67	228.97
750.00	228.77
750.33	228.67
750.65	228.43
750.98	227.95
751.31	227.78
751.64	227.57
751.97	227.46
752.29	227.22
752.62	226.98
752.95	226.77
753.28	226.55
753.60	226.33
753.93	226.28
754.26	226.04
754.59	225.77
754.91	225.55
755.24	225.35
755.57	225.15
755.90	224.97
756.22	224.74
756.55	224.57
756.88	224.36
757.20	224.06
757.53	223.82
757.86	223.71
758.19	223.59
758.51	223.42
758.84	223.10
759.17	222.96
759.49	222.88
759.82	222.83
760.15	222.74
760.47	222.56
760.80	222.34
761.13	222.22
761.45	222.12
761.78	222.10
762.11	221.99
762.43	221.84
762.76	221.72
763.08	221.64
763.41	221.60
763.74	221.50
764.06	221.45
764.39	221.33
764.71	221.26
765.04	221.06
765.37	220.86
765.69	220.74
766.02	220.60
766.34	220.42
766.67	220.25
767.00	220.13
767.32	220.14
767.65	220.07
767.97	219.95
768.30	219.90
768.62	219.68
768.95	219.56
769.27	219.44
769.60	219.35
769.92	219.13
770.25	218.96
770.57	218.90
770.90	218.79
771.22	218.74
771.55	218.66
771.87	218.59
772.20	218.55
772.52	218.60
772.85	218.74
773.17	218.69
773.50	218.65
773.82	218.46
774.15	218.21
774.47	218.08
774.80	218.06
775.12	217.85
775.45	217.84
775.77	217.71
776.09	217.70
776.42	217.65
776.74	217.71
777.07	217.62
777.39	217.48
777.72	217.35
778.04	217.32
778.36	217.23
778.69	217.25
779.01	217.16
779.33	217.02
779.66	216.76
779.98	216.69
780.31	216.60
780.63	216.71
780.95	216.79
781.28	216.70
781.60	216.62
781.92	216.70
782.25	216.59
782.57	216.60
782.89	216.54
783.22	216.45
783.54	216.34
783.86	216.31
784.19	216.25
784.51	216.30
784.83	216.17
785.16	216.07
785.48	215.95
785.80	215.87
786.12	215.77
786.45	215.70
786.77	215.64
787.09	215.56
787.42	215.42
787.74	215.36
788.06	215.34
788.38	215.31
788.71	215.22
789.03	215.24
789.35	215.20
789.67	215.15
789.99	215.12
790.32	215.11
790.64	215.10
790.96	215.22
791.28	215.12
791.61	215.10
791.93	215.13
792.25	215.15
792.57	215.26
792.89	215.24
793.21	215.21
793.54	215.15
793.86	215.13
794.18	215.11
794.50	215.12
794.82	215.14
795.14	215.03
795.47	214.97
795.79	214.89
796.11	214.79
796.43	214.70
796.75	214.61
797.07	214.60
797.39	214.50
797.71	214.39
798.04	214.35
798.36	214.33
798.68	214.23
799.00	214.14
799.32	214.07
799.64	214.04
799.96	213.97
800.28	213.97
800.60	213.94
800.92	213.93
801.24	213.78
801.56	213.70
801.89	213.65
802.21	213.68
802.53	213.62
802.85	213.72
803.17	213.79
803.49	213.77
803.81	213.74
804.13	213.72
804.45	213.62
804.77	213.64
805.09	213.65
805.41	213.67
805.73	213.69
806.05	213.61
806.37	213.71
806.69	213.70
807.01	213.70
807.33	213.75
807.65	213.77
807.97	213.86
808.28	213.78
808.60	213.80
808.92	213.68
809.24	213.72
809.56	213.62
809.88	213.51
810.20	213.50
810.52	213.48
810.84	213.40
811.16	213.43
811.48	213.34
811.80	213.38
812.12	213.38
812.43	213.37
812.75	213.36
813.07	213.25
813.39	213.28
813.71	213.23
814.03	213.15
814.35	213.03
814.67	212.99
814.98	213.03
815.30	213.03
815.62	213.09
815.94	213.00
816.26	212.94
816.58	212.92
816.89	212.98
817.21	212.92
817.53	213.02
817.85	213.02
818.17	212.95
818.48	212.89
818.80	212.87
819.12	212.79
819.44	212.79
819.76	212.80
820.07	212.76
820.39	212.77
820.71	212.74
821.03	212.72
821.34	212.68
821.66	212.66
821.98	212.70
822.30	212.63
822.61	212.76
822.93	212.82
823.25	212.84
823.57	212.69
823.88	212.75
824.20	212.70
824.52	212.65
824.83	212.70
825.15	212.55
825.47	212.47
825.79	212.52
826.10	212.44
826.42	212.39
826.74	212.43
827.05	212.35
827.37	212.37
827.69	212.36
828.00	212.31
828.32	212.38
828.64	212.35
828.95	212.49
829.27	212.40
829.58	212.39
829.90	212.44
830.22	212.57
830.53	212.51
830.85	212.45
831.17	212.40
831.48	212.45
831.80	212.57
832.11	212.58
832.43	212.50
832.75	212.51
833.06	212.59
833.38	212.52
833.69	212.50
834.01	212.44
834.32	212.43
834.64	212.38
834.96	212.26
835.27	212.19
835.59	212.04
835.90	211.97
836.22	211.92
836.53	211.79
836.85	211.73
837.16	211.90
837.48	211.94
837.79	212.01
838.11	212.00
838.42	211.97
838.74	212.00
839.05	212.04
839.37	212.06
839.68	211.95
840.00	211.93
840.31	211.99
840.63	212.07
840.94	212.10
841.26	212.20
841.57	212.23
841.88	212.21
842.20	212.18
842.51	212.27
842.83	212.27
843.14	212.47
843.46	212.44
843.77	212.28
844.08	212.20
844.40	212.14
844.71	212.06
845.03	212.00
845.34	212.07
845.65	212.01
845.97	212.00
846.28	211.93
846.60	211.88
846.91	211.81
847.22	211.75
847.54	211.70
847.85	211.68
848.16	211.68
848.48	211.67
848.79	211.73
849.10	211.70
849.42	211.66
849.73	211.45
850.04	211.47
850.36	211.42
850.67	211.47
850.98	211.47
851.30	211.50
851.61	211.49
851.92	211.36
852.23	211.39
852.55	211.40
852.86	211.50
853.17	211.55
853.49	211.65
853.80	211.73
854.11	211.75
854.42	211.74
854.74	211.68
855.05	211.63
855.36	211.57
855.67	211.50
855.99	211.53
856.30	211.75
856.61	211.71
856.92	211.75
857.23	211.72
857.55	211.73
857.86	211.66
858.17	211.71
858.48	211.78
858.79	211.80
859.11	211.77
859.42	211.71
859.73	211.71
860.04	211.66
860.35	211.59
860.66	211.55
860.98	211.57
861.29	211.66
861.60	211.75
861.91	211.79
862.22	211.81
862.53	211.82
862.84	211.63
863.16	211.66
863.47	211.60
863.78	211.65
864.09	211.65
864.40	211.70
864.71	211.67
865.02	211.62
865.33	211.58
865.64	211.60
865.95	211.66
866.27	211.76
866.58	211.72
866.89	211.68
867.20	211.68
867.51	211.60
867.82	211.47
868.13	211.47
868.44	211.45
868.75	211.53
869.06	211.49
869.37	211.53
869.68	211.53
869.99	211.57
870.30	211.48
870.61	211.49
870.92	211.43
871.23	211.46
871.54	211.54
871.85	211.59
872.16	211.55
872.47	211.50
872.78	211.42
873.09	211.48
873.40	211.50
873.71	211.57
874.02	211.61
874.33	211.65
874.64	211.61
874.95	211.58
875.26	211.44
875.56	211.43
875.87	211.36
876.18	211.31
876.49	211.45
876.80	211.49
877.11	211.45
877.42	211.46
877.73	211.46
878.04	211.38
878.35	211.42
878.66	211.47
878.96	211.43
879.27	211.46
879.58	211.35
879.89	211.33
880.20	211.33
880.51	211.31
880.82	211.31
881.12	211.35
881.43	211.34
881.74	211.35
882.05	211.37
882.36	211.36
882.67	211.43
882.97	211.30
883.28	211.24
883.59	211.21
883.90	211.29
884.21	211.30
884.51	211.34
884.82	211.30
885.13	211.34
885.44	211.35
885.74	211.29
886.05	211.38
886.36	211.45
886.67	211.37
886.98	211.43
887.28	211.45
887.59	211.46
887.90	211.47
888.20	211.49
888.51	211.46
888.82	211.52
889.13	211.50
889.43	211.61
889.74	211.72
890.05	211.78
890.35	211.74
890.66	211.75
890.97	211.67
891.28	211.65
891.58	211.53
891.89	211.52
892.20	211.55
892.50	211.45
892.81	211.42
893.12	211.41
893.42	211.34
893.73	211.26
894.04	211.27
894.34	211.34
894.65	211.30
894.95	211.35
895.26	211.33
895.57	211.44
895.87	211.25
896.18	211.16
896.48	211.15
896.79	211.15
897.10	211.09
897.40	211.07
897.71	211.04
898.01	211.02
898.32	211.07
898.63	211.03
898.93	211.05
899.24	211.00
899.54	210.97
899.85	210.96
900.15	211.06
900.46	211.05
900.76	210.99
901.07	211.02
901.38	210.94
901.68	210.95
901.99	210.82
902.29	210.83
902.60	210.95
902.90	210.93
903.21	210.94
903.51	210.98
903.82	211.07
904.12	211.02
904.43	211.09
904.73	211.09
905.03	211.12
905.34	211.26
905.64	211.24
905.95	211.23
906.25	211.24
906.56	211.20
906.86	211.19
907.17	211.24
907.47	211.26
907.77	211.30
908.08	211.30
908.38	211.35
908.69	211.40
908.99	211.35
909.30	211.39
909.60	211.41
909.90	211.38
910.21	211.32
910.51	211.39
910.81	211.39
911.12	211.40
911.42	211.38
911.73	211.22
912.03	211.25
912.33	211.33
912.64	211.34
912.94	211.30
913.24	211.28
913.55	211.22
913.85	211.15
914.15	211.20
914.46	211.14
914.76	211.10
915.06	211.09
915.37	211.08
915.67	211.05
915.97	210.97
916.27	210.99
916.58	210.99
916.88	210.99
917.18	210.96
917.49	211.03
917.79	211.11
918.09	211.25
918.39	211.27
918.70	211.29
919.00	211.28
919.30	211.30
919.60	211.28
919.91	211.29
920.21	211.26
920.51	211.23
920.81	211.22
921.12	211.21
921.42	211.20
921.72	211.22
922.02	211.26
922.32	211.29
922.63	211.30
922.93	211.32
923.23	211.31
923.53	211.32
923.83	211.18
924.13	211.13
924.44	211.07
924.74	211.11
925.04	211.12
925.34	211.13
925.64	211.17
925.94	211.20
926.24	211.33
926.55	211.33
926.85	211.35
927.15	211.35
927.45	211.36
927.75	211.31
928.05	211.24
928.35	211.18
928.65	211.23
928.95	211.21
929.26	211.18
929.56	211.16
929.86	211.20
930.16	211.18
930.46	211.12
930.76	211.11
931.06	211.07
931.36	211.00
931.66	211.00
931.96	210.95
932.26	210.93
932.56	210.91
932.86	210.95
933.16	210.96
933.46	210.99
933.76	211.00
934.06	211.04
934.36	211.09
934.66	211.18
934.96	211.14
935.26	211.19
935.56	211.20
935.86	211.21
936.16	211.17
936.46	211.17
936.76	211.20
937.06	211.11
937.36	211.09
937.66	211.11
937.96	211.11
938.26	211.08
938.56	211.14
938.86	211.12
939.16	211.24
939.46	211.25
939.76	211.26
940.06	211.31
940.35	211.27
940.65	211.27
940.95	211.19
941.25	211.14
941.55	211.09
941.85	211.12
942.15	211.12
942.45	211.20
942.75	211.22
943.04	211.18
943.34	211.26
943.64	211.24
943.94	211.21
944.24	211.24
944.54	211.25
944.84	211.13
945.13	211.06
945.43	211.01
945.73	210.96
946.03	210.93
946.33	210.85
946.62	210.89
946.92	210.80
947.22	210.86
947.52	210.87
947.82	210.90
948.11	210.84
948.41	210.80
948.71	210.74
949.01	210.79
949.31	210.79
949.60	210.82
949.90	210.87
950.20	210.87
950.50	210.84
950.79	210.83
951.09	210.86
951.39	210.80
951.69	210.75
951.98	210.80
952.28	210.82
952.58	210.78
952.87	210.78
953.17	210.87
953.47	210.85
953.76	210.86
954.06	210.81
954.36	210.75
954.66	210.76
954.95	210.83
955.25	210.79
955.55	210.85
955.84	210.80
956.14	210.84
956.44	210.81
956.73	210.71
957.03	210.76
957.32	210.82
957.62	210.86
957.92	210.88
958.21	210.84
958.51	211.04
958.81	211.10
959.10	211.14
959.40	211.08
959.69	211.11
959.99	211.06
960.29	211.05
960.58	211.08
960.88	211.13
961.17	211.09
961.47	211.13
961.76	211.07
962.06	211.07
962.36	211.06
962.65	211.10
962.95	211.19
963.24	211.16
963.54	211.15
963.83	211.15
964.13	211.14
964.42	211.12
964.72	210.96
965.01	210.99
965.31	210.90
965.60	210.93
965.90	211.00
966.19	211.04
966.49	211.09
966.78	211.16
967.08	211.15
967.37	211.20
967.67	211.10
967.96	211.13
968.26	211.17
968.55	211.10
968.85	211.11
969.14	211.09
969.43	211.05
969.73	210.98
970.02	211.02
970.32	211.01
970.61	210.96
970.91	210.93
971.20	210.83
971.49	210.87
971.79	210.85
972.08	210.71
972.38	210.75
972.67	210.71
972.96	210.68
973.26	210.68
973.55	210.66
973.85	210.71
974.14	210.69
974.43	210.68
974.73	210.64
975.02	210.54
975.31	210.56
975.61	210.59
975.90	210.62
976.19	210.54
976.49	210.50
976.78	210.54
977.07	210.59
977.37	210.63
977.66	210.57
977.95	210.57
978.24	210.57
978.54	210.56
978.83	210.55
979.12	210.57
979.42	210.51
979.71	210.49
980.00	210.46
980.29	210.51
980.59	210.51
980.88	210.65
981.17	210.74
981.46	210.73
981.76	210.72
982.05	210.75
982.34	210.82
982.63	210.88
982.93	210.95
983.22	210.92
983.51	210.93
983.80	211.04
984.09	210.97
984.39	210.97
984.68	210.97
984.97	211.03
985.26	210.99
985.55	211.01
985.85	210.92
986.14	210.95
986.43	210.96
986.72	210.87
987.01	210.74
987.30	210.73
987.59	210.75
987.89	210.75
988.18	210.74
988.47	210.71
988.76	210.69
989.05	210.56
989.34	210.48
989.63	210.52
989.92	210.44
990.22	210.47
990.51	210.42
990.80	210.38
991.09	210.31
991.38	210.31
991.67	210.28
991.96	210.32
992.25	210.38
992.54	210.31
992.83	210.38
993.12	210.41
993.41	210.42
993.70	210.48
993.99	210.47
994.28	210.56
994.58	210.52
994.87	210.51
995.16	210.55
995.45	210.64
995.74	210.61
996.03	210.72
996.32	210.82
996.61	210.91
996.90	210.93
997.19	210.96
997.48	210.98
997.77	211.01
998.06	211.06
998.34	211.02
998.63	211.06
998.92	211.00
999.21	211.02
999.50	211.05
999.79	210.95
1000.08	211.00
1000.37	210.91
1000.66	210.93
1000.95	210.97
1001.24	211.02
1001.53	211.07
1001.82	211.06
1002.11	210.97
1002.40	210.99
1002.68	211.02
1002.97	211.13
1003.26	211.11
1003.55	211.10
1003.84	211.11
1004.13	211.12
1004.42	211.10
1004.71	211.17
1004.99	211.14
1005.28	211.20
1005.57	211.19
1005.86	211.19
1006.15	211.17
1006.44	211.18
1006.72	211.20
1007.01	211.20
1007.30	211.20
1007.59	211.12
1007.88	211.09
1008.17	211.12
1008.45	211.01
1008.74	210.97
1009.03	210.97
1009.32	211.03
1009.60	211.06
1009.89	211.05
1010.18	211.00
1010.47	211.04
1010.76	211.00
1011.04	211.12
1011.33	211.11
1011.62	211.16
1011.91	211.18
1012.19	211.17
1012.48	211.18
1012.77	211.17
1013.05	211.18
1013.34	211.14
1013.63	211.12
1013.92	211.19
1014.20	211.14
1014.49	211.14
1014.78	211.08
1015.06	210.94
1015.35	210.88
1015.64	210.93
1015.92	210.91
1016.21	210.89
1016.50	210.78
1016.78	210.72
1017.07	210.70
1017.36	210.68
1017.64	210.63
1017.93	210.72
1018.22	210.75
1018.50	210.75
1018.79	210.77
1019.08	210.64
1019.36	210.65
1019.65	210.68
1019.93	210.69
1020.22	210.75
1020.51	210.84
1020.79	210.80
1021.08	211.05
1021.36	210.65
1021.65	211.00
1021.94	209.05
1022.22	210.45
1022.51	210.45
1022.79	212.00
1023.08	211.80
1023.36	211.90
1023.65	209.20
>>>>>End Processed Spectral Data<<<<<
