SpectraSuite Data File
++++++++++++++++++++++++++++++++++++
Date: Mon Feb 25 17:30:18 EST 2013
User: group
Dark Spectrum Present: No
Reference Spectrum Present: No
Number of Sampled Component Spectra: 1
Spectrometers: USB2E7196
Integration Time (usec): 52000 (USB2E7196)
Spectra Averaged: 20 (USB2E7196)
Boxcar Smoothing: 10 (USB2E7196)
Correct for Electrical Dark: No (USB2E7196)
Strobe/Lamp Enabled: No (USB2E7196)
Correct for Detector Non-linearity: No (USB2E7196)
Correct for Stray Light: No (USB2E7196)
Number of Pixels in Processed Spectrum: 2048
>>>>>Begin Processed Spectral Data<<<<<
339.09	0.00
339.48	199.00
339.86	200.50
340.24	201.30
340.63	203.25
341.01	207.15
341.39	206.10
341.78	207.10
342.16	207.50
342.54	209.35
342.93	198.14
343.31	208.21
343.69	208.83
344.07	209.31
344.46	209.76
344.84	210.11
345.22	210.37
345.60	210.70
345.99	210.92
346.37	211.17
346.75	211.30
347.13	211.37
347.52	211.45
347.90	211.54
348.28	211.56
348.66	211.62
349.05	211.61
349.43	211.70
349.81	211.70
350.19	211.75
350.57	211.78
350.96	211.98
351.34	212.04
351.72	212.07
352.10	212.12
352.48	212.20
352.87	212.22
353.25	212.26
353.63	212.27
354.01	212.21
354.39	212.21
354.77	212.29
355.15	212.39
355.54	212.45
355.92	212.49
356.30	212.64
356.68	212.78
357.06	212.85
357.44	212.85
357.82	212.91
358.20	213.03
358.58	213.06
358.97	213.10
359.35	213.15
359.73	213.27
360.11	213.31
360.49	213.39
360.87	213.55
361.25	213.57
361.63	213.68
362.01	213.89
362.39	213.99
362.77	214.03
363.15	214.12
363.53	214.08
363.91	214.09
364.29	214.10
364.67	213.96
365.05	214.02
365.43	213.99
365.81	214.05
366.19	214.12
366.57	214.22
366.95	214.23
367.33	214.29
367.71	214.24
368.09	214.24
368.47	214.18
368.85	214.12
369.23	214.20
369.61	214.04
369.99	214.01
370.37	214.00
370.75	214.06
371.13	214.00
371.51	214.02
371.89	214.02
372.27	213.99
372.65	214.03
373.03	214.03
373.41	214.06
373.78	214.00
374.16	213.85
374.54	213.83
374.92	213.74
375.30	213.62
375.68	213.54
376.06	213.61
376.44	213.63
376.82	213.64
377.19	213.55
377.57	213.60
377.95	213.51
378.33	213.38
378.71	213.23
379.09	213.12
379.47	213.12
379.84	213.10
380.22	213.02
380.60	212.89
380.98	212.83
381.36	212.77
381.73	212.69
382.11	212.65
382.49	212.56
382.87	212.58
383.25	212.59
383.62	212.74
384.00	212.59
384.38	212.52
384.76	212.46
385.13	212.44
385.51	212.34
385.89	212.28
386.27	212.22
386.64	212.19
387.02	212.23
387.40	212.17
387.78	212.05
388.15	212.04
388.53	212.03
388.91	211.95
389.29	211.94
389.66	211.95
390.04	211.96
390.42	211.95
390.79	211.90
391.17	211.90
391.55	211.67
391.92	211.70
392.30	211.72
392.68	211.76
393.05	211.76
393.43	211.85
393.81	211.85
394.18	211.85
394.56	211.83
394.94	211.84
395.31	211.77
395.69	211.85
396.06	211.86
396.44	211.83
396.82	211.89
397.19	211.93
397.57	211.93
397.95	211.93
398.32	211.90
398.70	211.87
399.07	211.89
399.45	211.90
399.82	211.94
400.20	211.95
400.58	211.91
400.95	211.85
401.33	211.83
401.70	212.04
402.08	212.09
402.45	212.15
402.83	212.20
403.20	212.27
403.58	212.26
403.95	212.36
404.33	212.45
404.71	212.54
405.08	212.71
405.46	212.80
405.83	212.95
406.21	213.06
406.58	213.27
406.96	213.40
407.33	213.56
407.70	213.74
408.08	214.06
408.45	214.28
408.83	214.48
409.20	214.67
409.58	214.80
409.95	215.14
410.33	215.48
410.70	215.75
411.08	216.16
411.45	216.63
411.82	216.93
412.20	217.39
412.57	217.85
412.95	218.23
413.32	218.81
413.69	219.33
414.07	219.94
414.44	220.50
414.82	221.07
415.19	221.87
415.56	222.61
415.94	223.27
416.31	224.16
416.68	225.05
417.06	226.14
417.43	227.07
417.81	228.11
418.18	229.12
418.55	230.39
418.93	231.59
419.30	232.78
419.67	234.25
420.04	235.66
420.42	237.08
420.79	238.79
421.16	240.40
421.54	242.22
421.91	243.99
422.28	245.91
422.66	247.90
423.03	249.85
423.40	251.86
423.77	254.06
424.15	256.11
424.52	258.50
424.89	260.90
425.26	263.29
425.64	265.64
426.01	268.17
426.38	270.70
426.75	273.36
427.13	276.08
427.50	278.89
427.87	281.81
428.24	284.82
428.61	287.62
428.99	290.81
429.36	294.13
429.73	297.49
430.10	300.89
430.47	304.39
430.85	307.95
431.22	311.72
431.59	315.67
431.96	319.55
432.33	323.73
432.70	327.81
433.08	332.64
433.45	336.99
433.82	341.46
434.19	346.37
434.56	351.21
434.93	355.89
435.30	360.51
435.68	365.64
436.05	370.75
436.42	375.81
436.79	380.29
437.16	385.27
437.53	390.36
437.90	395.28
438.27	400.22
438.64	405.39
439.01	410.31
439.38	414.57
439.75	418.76
440.13	423.43
440.50	427.83
440.87	431.42
441.24	435.22
441.61	439.28
441.98	442.21
442.35	445.63
442.72	449.07
443.09	452.46
443.46	454.42
443.83	455.68
444.20	456.82
444.57	458.64
444.94	459.25
445.31	460.02
445.68	460.93
446.05	461.21
446.42	460.52
446.79	459.67
447.16	458.77
447.53	458.18
447.90	456.11
448.27	453.90
448.64	450.98
449.01	448.95
449.37	445.45
449.74	442.18
450.11	438.22
450.48	433.96
450.85	429.48
451.22	425.79
451.59	422.15
451.96	418.62
452.33	413.88
452.70	409.66
453.07	404.83
453.43	399.60
453.80	394.77
454.17	390.21
454.54	385.78
454.91	381.17
455.28	376.56
455.65	372.26
456.02	368.16
456.38	364.57
456.75	360.04
457.12	356.32
457.49	352.60
457.86	348.95
458.23	345.88
458.59	342.55
458.96	339.03
459.33	336.04
459.70	332.98
460.07	330.57
460.43	327.81
460.80	325.11
461.17	322.93
461.54	320.51
461.91	318.15
462.27	315.89
462.64	313.92
463.01	311.74
463.38	309.78
463.74	307.71
464.11	305.86
464.48	304.23
464.85	302.57
465.21	301.19
465.58	299.88
465.95	298.07
466.32	296.65
466.68	295.36
467.05	293.97
467.42	292.65
467.78	291.22
468.15	289.97
468.52	288.99
468.88	287.73
469.25	286.64
469.62	285.76
469.98	284.78
470.35	283.90
470.72	283.07
471.08	282.10
471.45	281.31
471.82	280.58
472.18	279.78
472.55	279.16
472.92	278.55
473.28	277.96
473.65	277.48
474.02	276.91
474.38	276.41
474.75	276.05
475.11	275.74
475.48	275.58
475.85	275.34
476.21	275.23
476.58	275.12
476.94	275.03
477.31	275.00
477.67	274.99
478.04	275.05
478.41	275.19
478.77	275.58
479.14	275.78
479.50	276.07
479.87	276.52
480.23	276.80
480.60	277.17
480.96	277.55
481.33	278.30
481.69	278.94
482.06	279.61
482.42	280.25
482.79	280.89
483.15	281.82
483.52	282.78
483.88	283.70
484.25	284.71
484.61	285.79
484.98	287.01
485.34	288.22
485.71	289.48
486.07	290.85
486.44	292.07
486.80	293.68
487.17	295.28
487.53	296.96
487.90	298.87
488.26	300.84
488.62	302.88
488.99	304.81
489.35	306.92
489.72	309.24
490.08	311.75
490.44	314.25
490.81	316.75
491.17	319.44
491.54	322.37
491.90	325.27
492.26	328.49
492.63	331.65
492.99	335.21
493.36	338.92
493.72	342.80
494.08	346.81
494.45	351.01
494.81	355.52
495.17	360.04
495.54	364.90
495.90	369.96
496.26	375.11
496.63	380.68
496.99	386.53
497.35	392.47
497.72	398.58
498.08	405.10
498.44	411.83
498.80	419.05
499.17	426.29
499.53	434.05
499.89	441.90
500.26	449.99
500.62	458.18
500.98	466.93
501.34	475.93
501.71	485.31
502.07	494.78
502.43	504.77
502.79	514.99
503.16	525.55
503.52	536.32
503.88	547.44
504.24	558.93
504.60	570.61
504.97	582.71
505.33	595.30
505.69	608.38
506.05	621.63
506.41	634.91
506.78	648.65
507.14	662.48
507.50	676.91
507.86	691.68
508.22	706.87
508.59	722.05
508.95	737.82
509.31	753.92
509.67	770.44
510.03	786.95
510.39	804.26
510.75	821.80
511.12	839.76
511.48	857.83
511.84	876.16
512.20	894.45
512.56	913.51
512.92	932.43
513.28	951.63
513.64	971.21
514.00	990.95
514.37	1010.81
514.73	1031.21
515.09	1051.56
515.45	1072.21
515.81	1093.17
516.17	1114.27
516.53	1135.25
516.89	1156.35
517.25	1177.54
517.61	1199.00
517.97	1219.80
518.33	1240.66
518.69	1261.77
519.05	1283.36
519.41	1304.90
519.77	1327.08
520.13	1348.69
520.49	1370.27
520.85	1392.46
521.21	1414.46
521.57	1436.70
521.93	1457.86
522.29	1480.13
522.65	1502.30
523.01	1524.12
523.37	1545.55
523.73	1567.35
524.09	1588.98
524.45	1610.65
524.81	1632.51
525.17	1654.17
525.53	1676.38
525.89	1698.48
526.25	1719.86
526.61	1740.77
526.97	1761.96
527.33	1782.38
527.68	1803.32
528.04	1824.11
528.40	1843.87
528.76	1863.63
529.12	1883.81
529.48	1905.35
529.84	1925.30
530.20	1945.07
530.56	1964.82
530.91	1984.81
531.27	2004.25
531.63	2023.61
531.99	2042.86
532.35	2061.12
532.71	2079.54
533.07	2098.05
533.42	2115.77
533.78	2134.15
534.14	2151.85
534.50	2168.49
534.86	2186.26
535.21	2202.36
535.57	2219.38
535.93	2235.90
536.29	2252.35
536.65	2268.54
537.00	2283.33
537.36	2297.51
537.72	2311.99
538.08	2326.42
538.44	2340.94
538.79	2355.80
539.15	2369.98
539.51	2384.32
539.87	2398.93
540.22	2412.54
540.58	2426.36
540.94	2440.00
541.29	2451.95
541.65	2463.91
542.01	2476.11
542.37	2487.19
542.72	2498.91
543.08	2509.35
543.44	2520.47
543.79	2529.86
544.15	2538.97
544.51	2549.11
544.87	2559.64
545.22	2568.00
545.58	2575.93
545.94	2582.49
546.29	2588.17
546.65	2593.70
547.01	2598.93
547.36	2604.17
547.72	2609.44
548.07	2613.25
548.43	2616.61
548.79	2620.30
549.14	2624.10
549.50	2628.18
549.86	2631.50
550.21	2634.84
550.57	2638.20
550.92	2640.53
551.28	2643.29
551.64	2645.30
551.99	2647.17
552.35	2648.43
552.70	2650.74
553.06	2652.96
553.41	2655.70
553.77	2658.46
554.13	2660.20
554.48	2661.74
554.84	2662.55
555.19	2662.52
555.55	2662.93
555.90	2663.20
556.26	2663.30
556.61	2663.02
556.97	2661.22
557.32	2660.62
557.68	2658.67
558.03	2656.84
558.39	2655.13
558.74	2654.19
559.10	2652.83
559.45	2650.79
559.81	2649.55
560.16	2647.05
560.52	2644.34
560.87	2641.19
561.23	2636.92
561.58	2634.59
561.94	2631.06
562.29	2627.17
562.64	2624.48
563.00	2621.80
563.35	2619.50
563.71	2617.76
564.06	2615.25
564.42	2613.54
564.77	2610.98
565.12	2609.23
565.48	2606.00
565.83	2602.65
566.19	2598.90
566.54	2594.76
566.89	2591.09
567.25	2587.02
567.60	2583.79
567.96	2580.49
568.31	2576.91
568.66	2573.38
569.02	2568.92
569.37	2563.77
569.72	2560.08
570.08	2555.02
570.43	2549.40
570.78	2543.75
571.14	2537.18
571.49	2530.81
571.84	2524.67
572.20	2517.74
572.55	2511.06
572.90	2504.56
573.26	2497.70
573.61	2491.12
573.96	2485.01
574.31	2477.15
574.67	2469.13
575.02	2460.39
575.37	2452.05
575.72	2443.45
576.08	2436.04
576.43	2427.43
576.78	2419.96
577.13	2412.13
577.49	2404.39
577.84	2396.72
578.19	2389.16
578.54	2381.84
578.90	2375.11
579.25	2366.36
579.60	2357.62
579.95	2348.82
580.30	2341.17
580.66	2333.33
581.01	2324.59
581.36	2315.13
581.71	2307.30
582.06	2299.09
582.42	2291.27
582.77	2282.30
583.12	2273.60
583.47	2264.96
583.82	2257.25
584.17	2248.55
584.53	2239.85
584.88	2231.35
585.23	2222.75
585.58	2213.55
585.93	2204.37
586.28	2195.50
586.63	2187.73
586.98	2179.97
587.34	2171.59
587.69	2162.40
588.04	2153.47
588.39	2145.31
588.74	2136.70
589.09	2128.26
589.44	2119.08
589.79	2110.94
590.14	2103.48
590.49	2095.56
590.84	2087.03
591.19	2078.97
591.54	2070.59
591.89	2060.95
592.25	2052.14
592.60	2042.88
592.95	2033.91
593.30	2024.81
593.65	2015.37
594.00	2005.95
594.35	1998.02
594.70	1989.63
595.05	1981.48
595.40	1973.30
595.75	1963.97
596.10	1956.25
596.45	1947.80
596.80	1940.40
597.15	1932.39
597.50	1923.54
597.85	1915.33
598.19	1906.90
598.54	1898.57
598.89	1891.15
599.24	1884.54
599.59	1877.25
599.94	1870.65
600.29	1863.14
600.64	1855.61
600.99	1847.51
601.34	1840.61
601.69	1832.15
602.04	1824.20
602.39	1816.30
602.74	1808.89
603.08	1802.65
603.43	1795.90
603.78	1788.38
604.13	1780.36
604.48	1772.67
604.83	1766.11
605.18	1759.58
605.53	1752.67
605.87	1745.25
606.22	1738.43
606.57	1730.78
606.92	1723.47
607.27	1715.50
607.62	1708.40
607.96	1701.62
608.31	1695.66
608.66	1687.95
609.01	1680.36
609.36	1673.03
609.70	1665.41
610.05	1658.01
610.40	1649.91
610.75	1641.38
611.10	1633.93
611.44	1625.46
611.79	1616.78
612.14	1608.05
612.49	1598.76
612.83	1590.02
613.18	1580.78
613.53	1571.31
613.88	1561.96
614.22	1553.12
614.57	1544.05
614.92	1535.13
615.27	1526.41
615.61	1517.04
615.96	1508.31
616.31	1500.48
616.65	1492.59
617.00	1484.88
617.35	1476.24
617.70	1467.86
618.04	1459.39
618.39	1450.53
618.74	1442.60
619.08	1434.49
619.43	1426.28
619.78	1418.73
620.12	1410.82
620.47	1403.38
620.82	1395.20
621.16	1387.60
621.51	1379.32
621.85	1371.59
622.20	1363.50
622.55	1355.18
622.89	1347.14
623.24	1339.66
623.59	1331.10
623.93	1322.68
624.28	1314.49
624.62	1306.38
624.97	1298.25
625.32	1290.48
625.66	1283.18
626.01	1276.06
626.35	1269.02
626.70	1261.65
627.04	1254.14
627.39	1247.02
627.73	1239.71
628.08	1233.35
628.43	1225.91
628.77	1218.95
629.12	1211.61
629.46	1205.04
629.81	1198.23
630.15	1191.21
630.50	1184.17
630.84	1177.33
631.19	1170.45
631.53	1163.85
631.88	1156.79
632.22	1149.55
632.57	1143.00
632.91	1135.83
633.26	1128.52
633.60	1121.28
633.95	1114.65
634.29	1107.69
634.64	1100.99
634.98	1094.20
635.32	1087.12
635.67	1080.85
636.01	1074.50
636.36	1068.15
636.70	1061.74
637.05	1055.34
637.39	1049.15
637.73	1042.68
638.08	1036.86
638.42	1031.16
638.77	1024.76
639.11	1018.60
639.45	1012.80
639.80	1006.40
640.14	1000.16
640.49	994.28
640.83	988.47
641.17	982.15
641.52	976.29
641.86	970.12
642.20	964.19
642.55	957.78
642.89	951.44
643.23	944.96
643.58	939.37
643.92	933.05
644.26	926.80
644.61	921.05
644.95	915.09
645.29	908.91
645.64	902.36
645.98	896.33
646.32	890.85
646.66	884.94
647.01	879.08
647.35	873.41
647.69	867.13
648.04	861.15
648.38	855.51
648.72	849.64
649.06	843.66
649.41	837.85
649.75	832.30
650.09	826.90
650.43	821.34
650.78	814.92
651.12	809.10
651.46	803.59
651.80	797.90
652.14	792.26
652.49	786.65
652.83	781.27
653.17	775.40
653.51	769.59
653.85	764.10
654.20	758.46
654.54	752.73
654.88	747.58
655.22	742.08
655.56	736.28
655.90	730.59
656.25	725.15
656.59	719.71
656.93	714.50
657.27	709.38
657.61	704.01
657.95	699.27
658.29	694.31
658.64	689.34
658.98	684.08
659.32	678.92
659.66	673.81
660.00	668.48
660.34	663.50
660.68	658.47
661.02	653.45
661.36	648.83
661.70	644.24
662.05	639.50
662.39	635.21
662.73	631.09
663.07	626.98
663.41	622.81
663.75	618.48
664.09	614.05
664.43	609.31
664.77	605.08
665.11	600.64
665.45	596.39
665.79	592.03
666.13	587.71
666.47	583.73
666.81	579.77
667.15	576.03
667.49	572.35
667.83	568.65
668.17	565.09
668.51	561.53
668.85	558.08
669.19	554.66
669.53	550.71
669.87	546.71
670.21	542.94
670.55	539.09
670.89	535.77
671.23	532.40
671.57	529.09
671.91	525.61
672.25	522.16
672.58	518.68
672.92	515.40
673.26	512.36
673.60	509.07
673.94	505.69
674.28	502.46
674.62	499.36
674.96	496.29
675.30	493.28
675.64	490.18
675.97	486.99
676.31	483.92
676.65	481.04
676.99	478.42
677.33	475.55
677.67	472.75
678.01	469.69
678.34	466.83
678.68	464.24
679.02	461.50
679.36	458.87
679.70	456.22
680.04	453.51
680.37	450.77
680.71	448.04
681.05	445.58
681.39	443.05
681.73	440.52
682.06	438.06
682.40	435.49
682.74	433.02
683.08	430.48
683.42	427.94
683.75	425.66
684.09	423.05
684.43	420.60
684.77	418.12
685.10	415.70
685.44	413.30
685.78	410.81
686.12	408.50
686.45	406.18
686.79	403.88
687.13	401.88
687.46	399.69
687.80	397.59
688.14	395.30
688.48	393.18
688.81	390.94
689.15	388.69
689.49	386.52
689.82	384.31
690.16	382.07
690.50	379.99
690.83	377.68
691.17	375.49
691.51	373.39
691.84	371.40
692.18	369.37
692.52	367.41
692.85	365.56
693.19	363.66
693.52	361.77
693.86	359.84
694.20	357.91
694.53	356.03
694.87	354.14
695.21	352.33
695.54	350.45
695.88	348.62
696.21	346.91
696.55	345.18
696.88	343.53
697.22	341.91
697.56	340.25
697.89	338.78
698.23	337.34
698.56	335.82
698.90	334.34
699.23	332.83
699.57	331.25
699.90	329.63
700.24	328.06
700.58	326.57
700.91	325.24
701.25	323.90
701.58	322.58
701.92	321.30
702.25	320.05
702.59	318.72
702.92	317.42
703.26	316.16
703.59	314.87
703.93	313.65
704.26	312.47
704.60	311.24
704.93	309.87
705.26	308.65
705.60	307.49
705.93	306.27
706.27	305.16
706.60	304.20
706.94	303.21
707.27	302.13
707.61	301.11
707.94	299.88
708.27	298.57
708.61	297.50
708.94	296.31
709.28	295.18
709.61	294.09
709.94	293.10
710.28	291.98
710.61	290.98
710.95	289.93
711.28	289.01
711.61	288.04
711.95	287.20
712.28	286.28
712.61	285.37
712.95	284.53
713.28	283.71
713.61	282.66
713.95	281.64
714.28	280.78
714.61	279.89
714.95	279.15
715.28	278.32
715.61	277.34
715.95	276.54
716.28	275.73
716.61	274.97
716.95	274.09
717.28	273.29
717.61	272.50
717.94	271.75
718.28	270.86
718.61	270.16
718.94	269.41
719.27	268.65
719.61	267.84
719.94	267.10
720.27	266.22
720.60	265.54
720.94	264.92
721.27	264.27
721.60	263.56
721.93	262.90
722.27	262.30
722.60	261.73
722.93	261.10
723.26	260.53
723.59	259.96
723.93	259.44
724.26	258.94
724.59	258.46
724.92	257.83
725.25	257.32
725.59	256.72
725.92	256.20
726.25	255.70
726.58	255.22
726.91	254.70
727.24	254.31
727.57	253.84
727.91	253.26
728.24	252.78
728.57	252.36
728.90	251.91
729.23	251.37
729.56	251.01
729.89	250.61
730.22	250.13
730.55	249.62
730.89	249.12
731.22	248.61
731.55	248.18
731.88	247.80
732.21	247.32
732.54	246.86
732.87	246.39
733.20	245.94
733.53	245.54
733.86	245.17
734.19	244.73
734.52	244.43
734.85	244.18
735.18	243.77
735.51	243.40
735.84	242.96
736.17	242.72
736.50	242.28
736.83	242.14
737.16	241.85
737.49	241.50
737.82	241.15
738.15	240.85
738.48	240.50
738.81	240.15
739.14	239.86
739.47	239.48
739.80	239.21
740.13	238.95
740.46	238.60
740.79	238.19
741.12	237.88
741.45	237.44
741.78	237.04
742.11	236.82
742.44	236.47
742.77	236.25
743.10	235.93
743.43	235.69
743.75	235.20
744.08	235.07
744.41	234.79
744.74	234.51
745.07	234.24
745.40	233.98
745.73	233.76
746.06	233.41
746.39	233.28
746.71	233.01
747.04	232.71
747.37	232.54
747.70	232.40
748.03	232.13
748.36	231.95
748.68	231.74
749.01	231.44
749.34	231.20
749.67	230.95
750.00	230.69
750.33	230.53
750.65	230.24
750.98	229.76
751.31	229.52
751.64	229.27
751.97	229.12
752.29	228.89
752.62	228.54
752.95	228.42
753.28	228.12
753.60	227.95
753.93	227.78
754.26	227.52
754.59	227.30
754.91	227.14
755.24	226.92
755.57	226.76
755.90	226.57
756.22	226.40
756.55	226.20
756.88	225.95
757.20	225.67
757.53	225.45
757.86	225.34
758.19	225.19
758.51	225.08
758.84	224.84
759.17	224.67
759.49	224.61
759.82	224.50
760.15	224.33
760.47	224.11
760.80	223.88
761.13	223.74
761.45	223.48
761.78	223.32
762.11	223.12
762.43	222.89
762.76	222.73
763.08	222.63
763.41	222.50
763.74	222.41
764.06	222.25
764.39	222.18
764.71	221.97
765.04	221.79
765.37	221.61
765.69	221.45
766.02	221.27
766.34	221.12
766.67	220.88
767.00	220.75
767.32	220.67
767.65	220.69
767.97	220.57
768.30	220.52
768.62	220.45
768.95	220.40
769.27	220.35
769.60	220.31
769.92	220.15
770.25	219.98
770.57	219.89
770.90	219.82
771.22	219.73
771.55	219.65
771.87	219.59
772.20	219.47
772.52	219.48
772.85	219.65
773.17	219.52
773.50	219.48
773.82	219.45
774.15	219.34
774.47	219.09
774.80	218.88
775.12	218.76
775.45	218.62
775.77	218.51
776.09	218.45
776.42	218.35
776.74	218.30
777.07	218.20
777.39	218.01
777.72	217.90
778.04	217.85
778.36	217.83
778.69	217.81
779.01	217.85
779.33	217.69
779.66	217.43
779.98	217.33
780.31	217.28
780.63	217.26
780.95	217.24
781.28	217.21
781.60	217.22
781.92	217.18
782.25	217.09
782.57	217.07
782.89	217.00
783.22	216.96
783.54	216.84
783.86	216.89
784.19	216.87
784.51	216.84
784.83	216.73
785.16	216.72
785.48	216.57
785.80	216.49
786.12	216.45
786.45	216.33
786.77	216.27
787.09	216.27
787.42	216.19
787.74	216.16
788.06	216.18
788.38	216.13
788.71	216.15
789.03	216.07
789.35	216.03
789.67	215.92
789.99	215.92
790.32	215.89
790.64	215.84
790.96	215.98
791.28	215.85
791.61	215.77
791.93	215.72
792.25	215.69
792.57	215.77
792.89	215.73
793.21	215.73
793.54	215.78
793.86	215.64
794.18	215.57
794.50	215.49
794.82	215.37
795.14	215.43
795.47	215.32
795.79	215.36
796.11	215.25
796.43	215.23
796.75	215.11
797.07	215.10
797.39	214.98
797.71	214.78
798.04	214.80
798.36	214.76
798.68	214.68
799.00	214.69
799.32	214.56
799.64	214.47
799.96	214.48
800.28	214.42
800.60	214.41
800.92	214.37
801.24	214.27
801.56	214.21
801.89	213.96
802.21	213.92
802.53	213.89
802.85	213.91
803.17	213.88
803.49	213.77
803.81	213.74
804.13	213.78
804.45	213.73
804.77	213.74
805.09	213.76
805.41	213.65
805.73	213.57
806.05	213.45
806.37	213.51
806.69	213.42
807.01	213.35
807.33	213.32
807.65	213.25
807.97	213.35
808.28	213.33
808.60	213.37
808.92	213.38
809.24	213.42
809.56	213.35
809.88	213.31
810.20	213.37
810.52	213.42
810.84	213.39
811.16	213.29
811.48	213.24
811.80	213.29
812.12	213.29
812.43	213.36
812.75	213.31
813.07	213.18
813.39	213.18
813.71	213.15
814.03	213.11
814.35	213.13
814.67	213.10
814.98	213.09
815.30	213.15
815.62	213.14
815.94	213.01
816.26	213.03
816.58	213.01
816.89	213.03
817.21	212.89
817.53	212.86
817.85	212.92
818.17	212.94
818.48	212.84
818.80	212.92
819.12	212.78
819.44	212.89
819.76	213.00
820.07	212.98
820.39	213.00
820.71	213.04
821.03	212.98
821.34	212.85
821.66	212.87
821.98	212.82
822.30	212.78
822.61	212.81
822.93	212.78
823.25	212.72
823.57	212.67
823.88	212.75
824.20	212.71
824.52	212.75
824.83	212.69
825.15	212.68
825.47	212.62
825.79	212.67
826.10	212.61
826.42	212.51
826.74	212.50
827.05	212.46
827.37	212.42
827.69	212.42
828.00	212.53
828.32	212.53
828.64	212.50
828.95	212.56
829.27	212.51
829.58	212.55
829.90	212.58
830.22	212.62
830.53	212.55
830.85	212.49
831.17	212.35
831.48	212.34
831.80	212.29
832.11	212.27
832.43	212.26
832.75	212.22
833.06	212.35
833.38	212.27
833.69	212.24
834.01	212.23
834.32	212.17
834.64	212.07
834.96	212.08
835.27	212.03
835.59	211.93
835.90	211.93
836.22	211.91
836.53	211.96
836.85	211.89
837.16	212.06
837.48	212.13
837.79	212.28
838.11	212.27
838.42	212.32
838.74	212.26
839.05	212.27
839.37	212.24
839.68	212.01
840.00	211.97
840.31	211.94
840.63	211.96
840.94	211.99
841.26	211.95
841.57	211.91
841.88	211.99
842.20	212.02
842.51	211.99
842.83	211.94
843.14	212.05
843.46	212.07
843.77	211.99
844.08	211.97
844.40	211.85
844.71	211.80
845.03	211.66
845.34	211.67
845.65	211.61
845.97	211.51
846.28	211.62
846.60	211.68
846.91	211.71
847.22	211.68
847.54	211.69
847.85	211.70
848.16	211.67
848.48	211.58
848.79	211.63
849.10	211.69
849.42	211.70
849.73	211.45
850.04	211.36
850.36	211.25
850.67	211.23
850.98	211.26
851.30	211.29
851.61	211.37
851.92	211.38
852.23	211.45
852.55	211.54
852.86	211.42
853.17	211.37
853.49	211.43
853.80	211.48
854.11	211.50
854.42	211.50
854.74	211.51
855.05	211.49
855.36	211.43
855.67	211.35
855.99	211.31
856.30	211.60
856.61	211.58
856.92	211.58
857.23	211.58
857.55	211.53
857.86	211.51
858.17	211.56
858.48	211.49
858.79	211.35
859.11	211.35
859.42	211.35
859.73	211.38
860.04	211.30
860.35	211.28
860.66	211.25
860.98	211.28
861.29	211.30
861.60	211.32
861.91	211.34
862.22	211.38
862.53	211.31
862.84	211.05
863.16	211.15
863.47	211.10
863.78	211.12
864.09	211.17
864.40	211.18
864.71	211.22
865.02	211.28
865.33	211.33
865.64	211.41
865.95	211.45
866.27	211.58
866.58	211.56
866.89	211.46
867.20	211.36
867.51	211.31
867.82	211.29
868.13	211.35
868.44	211.29
868.75	211.30
869.06	211.29
869.37	211.32
869.68	211.21
869.99	211.25
870.30	211.17
870.61	211.13
870.92	211.11
871.23	210.99
871.54	211.04
871.85	211.07
872.16	210.99
872.47	211.00
872.78	210.90
873.09	210.91
873.40	210.94
873.71	211.02
874.02	211.06
874.33	210.99
874.64	210.99
874.95	210.99
875.26	210.98
875.56	210.99
875.87	211.01
876.18	211.04
876.49	211.24
876.80	211.23
877.11	211.27
877.42	211.33
877.73	211.45
878.04	211.46
878.35	211.48
878.66	211.47
878.96	211.47
879.27	211.45
879.58	211.52
879.89	211.57
880.20	211.60
880.51	211.61
880.82	211.57
881.12	211.60
881.43	211.60
881.74	211.54
882.05	211.61
882.36	211.65
882.67	211.68
882.97	211.51
883.28	211.53
883.59	211.58
883.90	211.53
884.21	211.49
884.51	211.44
884.82	211.39
885.13	211.44
885.44	211.34
885.74	211.41
886.05	211.36
886.36	211.33
886.67	211.28
886.98	211.33
887.28	211.40
887.59	211.37
887.90	211.32
888.20	211.29
888.51	211.27
888.82	211.26
889.13	211.26
889.43	211.32
889.74	211.35
890.05	211.33
890.35	211.34
890.66	211.24
890.97	211.16
891.28	211.22
891.58	211.18
891.89	211.26
892.20	211.15
892.50	211.14
892.81	211.13
893.12	211.12
893.42	211.05
893.73	211.10
894.04	211.10
894.34	211.15
894.65	211.18
894.95	211.17
895.26	211.13
895.57	211.17
895.87	211.02
896.18	211.05
896.48	211.02
896.79	211.01
897.10	211.16
897.40	211.12
897.71	211.07
898.01	211.07
898.32	211.03
898.63	211.11
898.93	211.05
899.24	211.07
899.54	211.07
899.85	211.08
900.15	211.05
900.46	211.03
900.76	211.13
901.07	211.15
901.38	211.14
901.68	211.15
901.99	211.06
902.29	211.13
902.60	211.08
902.90	211.06
903.21	211.01
903.51	210.90
903.82	211.01
904.12	211.01
904.43	211.04
904.73	211.05
905.03	211.00
905.34	211.16
905.64	211.09
905.95	211.05
906.25	211.03
906.56	211.08
906.86	211.05
907.17	210.88
907.47	210.87
907.77	210.84
908.08	210.78
908.38	210.78
908.69	210.73
908.99	210.79
909.30	210.83
909.60	210.83
909.90	210.84
910.21	210.79
910.51	210.76
910.81	210.80
911.12	210.84
911.42	210.81
911.73	210.72
912.03	210.80
912.33	210.86
912.64	210.87
912.94	210.75
913.24	210.70
913.55	210.81
913.85	210.79
914.15	210.83
914.46	210.87
914.76	210.90
915.06	210.92
915.37	210.86
915.67	210.82
915.97	210.89
916.27	210.90
916.58	210.92
916.88	210.87
917.18	210.77
917.49	210.95
917.79	210.99
918.09	210.94
918.39	210.96
918.70	210.96
919.00	210.92
919.30	211.06
919.60	211.10
919.91	211.08
920.21	211.12
920.51	211.10
920.81	211.11
921.12	211.24
921.42	211.24
921.72	211.26
922.02	211.28
922.32	211.27
922.63	211.29
922.93	211.27
923.23	211.36
923.53	211.37
923.83	211.16
924.13	211.15
924.44	211.20
924.74	211.26
925.04	211.26
925.34	211.36
925.64	211.31
925.94	211.35
926.24	211.45
926.55	211.45
926.85	211.49
927.15	211.47
927.45	211.30
927.75	211.33
928.05	211.34
928.35	211.32
928.65	211.41
928.95	211.43
929.26	211.49
929.56	211.51
929.86	211.53
930.16	211.50
930.46	211.47
930.76	211.44
931.06	211.33
931.36	211.24
931.66	211.15
931.96	211.11
932.26	211.08
932.56	210.99
932.86	211.02
933.16	210.93
933.46	210.96
933.76	211.03
934.06	211.02
934.36	211.09
934.66	211.10
934.96	210.99
935.26	210.93
935.56	210.90
935.86	210.87
936.16	210.83
936.46	210.80
936.76	210.85
937.06	210.87
937.36	210.84
937.66	210.93
937.96	210.96
938.26	210.95
938.56	210.96
938.86	210.98
939.16	211.02
939.46	211.16
939.76	211.12
940.06	211.04
940.35	211.03
940.65	210.92
940.95	210.87
941.25	210.89
941.55	210.95
941.85	211.00
942.15	210.95
942.45	211.00
942.75	211.05
943.04	211.03
943.34	211.05
943.64	211.11
943.94	211.07
944.24	211.10
944.54	211.13
944.84	211.16
945.13	211.12
945.43	211.02
945.73	210.97
946.03	210.96
946.33	210.95
946.62	210.95
946.92	210.91
947.22	211.05
947.52	211.03
947.82	211.04
948.11	211.03
948.41	211.02
948.71	210.95
949.01	210.95
949.31	210.93
949.60	210.95
949.90	210.97
950.20	210.96
950.50	211.00
950.79	210.97
951.09	210.98
951.39	210.96
951.69	210.96
951.98	210.94
952.28	210.90
952.58	210.95
952.87	210.92
953.17	211.08
953.47	210.94
953.76	211.02
954.06	210.95
954.36	210.93
954.66	210.91
954.95	211.07
955.25	211.11
955.55	211.12
955.84	211.11
956.14	211.13
956.44	211.12
956.73	211.00
957.03	211.10
957.32	211.08
957.62	211.08
957.92	211.14
958.21	211.16
958.51	211.36
958.81	211.41
959.10	211.45
959.40	211.43
959.69	211.44
959.99	211.43
960.29	211.44
960.58	211.43
960.88	211.53
961.17	211.43
961.47	211.44
961.76	211.36
962.06	211.40
962.36	211.36
962.65	211.34
962.95	211.36
963.24	211.24
963.54	211.22
963.83	211.23
964.13	211.18
964.42	211.10
964.72	210.99
965.01	210.99
965.31	210.99
965.60	210.89
965.90	211.00
966.19	210.97
966.49	211.01
966.78	210.94
967.08	210.95
967.37	210.96
967.67	210.89
967.96	210.92
968.26	210.86
968.55	210.89
968.85	210.90
969.14	210.91
969.43	210.92
969.73	210.95
970.02	210.96
970.32	210.97
970.61	210.95
970.91	210.91
971.20	210.85
971.49	210.83
971.79	210.89
972.08	210.78
972.38	210.83
972.67	210.84
972.96	210.92
973.26	210.84
973.55	210.90
973.85	210.89
974.14	210.94
974.43	210.93
974.73	210.84
975.02	210.83
975.31	210.83
975.61	210.77
975.90	210.72
976.19	210.69
976.49	210.69
976.78	210.79
977.07	210.77
977.37	210.85
977.66	210.82
977.95	210.77
978.24	210.82
978.54	210.79
978.83	210.76
979.12	210.76
979.42	210.74
979.71	210.76
980.00	210.73
980.29	210.74
980.59	210.71
980.88	210.85
981.17	210.88
981.46	210.93
981.76	210.94
982.05	211.05
982.34	211.06
982.63	211.08
982.93	211.03
983.22	211.07
983.51	210.99
983.80	211.07
984.09	211.14
984.39	211.11
984.68	211.10
984.97	211.12
985.26	211.07
985.55	211.08
985.85	211.04
986.14	211.15
986.43	211.16
986.72	211.14
987.01	211.03
987.30	211.01
987.59	211.01
987.89	211.09
988.18	210.97
988.47	211.02
988.76	210.96
989.05	210.99
989.34	211.00
989.63	211.08
989.92	211.01
990.22	210.93
990.51	210.93
990.80	210.88
991.09	210.91
991.38	210.97
991.67	211.02
991.96	211.00
992.25	210.90
992.54	210.85
992.83	210.90
993.12	210.93
993.41	210.89
993.70	210.96
993.99	211.00
994.28	211.00
994.58	211.04
994.87	211.05
995.16	211.00
995.45	211.00
995.74	210.99
996.03	211.04
996.32	211.15
996.61	211.20
996.90	211.21
997.19	211.22
997.48	211.18
997.77	211.14
998.06	211.16
998.34	211.19
998.63	211.23
998.92	211.19
999.21	211.26
999.50	211.33
999.79	211.23
1000.08	211.15
1000.37	211.12
1000.66	211.05
1000.95	211.11
1001.24	211.15
1001.53	211.15
1001.82	211.02
1002.11	210.99
1002.40	210.90
1002.68	210.93
1002.97	211.11
1003.26	211.05
1003.55	210.98
1003.84	211.00
1004.13	211.11
1004.42	211.09
1004.71	211.04
1004.99	211.06
1005.28	211.00
1005.57	211.00
1005.86	210.93
1006.15	210.95
1006.44	210.98
1006.72	210.95
1007.01	210.97
1007.30	210.94
1007.59	210.91
1007.88	210.99
1008.17	210.98
1008.45	210.96
1008.74	210.89
1009.03	210.75
1009.32	210.71
1009.60	210.71
1009.89	210.64
1010.18	210.47
1010.47	210.45
1010.76	210.53
1011.04	210.50
1011.33	210.49
1011.62	210.48
1011.91	210.54
1012.19	210.51
1012.48	210.56
1012.77	210.58
1013.05	210.60
1013.34	210.60
1013.63	210.56
1013.92	210.56
1014.20	210.53
1014.49	210.59
1014.78	210.63
1015.06	210.63
1015.35	210.57
1015.64	210.64
1015.92	210.69
1016.21	210.71
1016.50	210.74
1016.78	210.68
1017.07	210.69
1017.36	210.72
1017.64	210.67
1017.93	210.66
1018.22	210.73
1018.50	210.69
1018.79	210.68
1019.08	210.56
1019.36	210.60
1019.65	210.64
1019.93	210.69
1020.22	210.73
1020.51	210.76
1020.79	210.71
1021.08	211.65
1021.36	210.35
1021.65	210.35
1021.94	209.95
1022.22	211.20
1022.51	210.85
1022.79	211.40
1023.08	211.00
1023.36	212.45
1023.65	210.60
>>>>>End Processed Spectral Data<<<<<
