SpectraSuite Data File
++++++++++++++++++++++++++++++++++++
Date: Mon Feb 25 17:35:06 EST 2013
User: group
Dark Spectrum Present: No
Reference Spectrum Present: No
Number of Sampled Component Spectra: 1
Spectrometers: USB2E7196
Integration Time (usec): 52000 (USB2E7196)
Spectra Averaged: 20 (USB2E7196)
Boxcar Smoothing: 10 (USB2E7196)
Correct for Electrical Dark: No (USB2E7196)
Strobe/Lamp Enabled: No (USB2E7196)
Correct for Detector Non-linearity: No (USB2E7196)
Correct for Stray Light: No (USB2E7196)
Number of Pixels in Processed Spectrum: 2048
>>>>>Begin Processed Spectral Data<<<<<
339.09	0.00
339.48	196.90
339.86	200.80
340.24	199.55
340.63	202.40
341.01	207.00
341.39	206.55
341.78	206.55
342.16	208.05
342.54	208.50
342.93	197.68
343.31	207.70
343.69	208.33
344.07	208.83
344.46	209.34
344.84	209.72
345.22	209.96
345.60	210.15
345.99	210.40
346.37	210.54
346.75	210.64
347.13	210.73
347.52	210.87
347.90	211.04
348.28	211.09
348.66	211.23
349.05	211.21
349.43	211.26
349.81	211.40
350.19	211.45
350.57	211.52
350.96	211.64
351.34	211.78
351.72	211.91
352.10	211.97
352.48	212.05
352.87	212.18
353.25	212.23
353.63	212.36
354.01	212.36
354.39	212.45
354.77	212.54
355.15	212.70
355.54	212.78
355.92	212.81
356.30	212.91
356.68	213.09
357.06	213.20
357.44	213.34
357.82	213.39
358.20	213.55
358.58	213.67
358.97	213.73
359.35	213.72
359.73	213.81
360.11	213.83
360.49	213.94
360.87	213.94
361.25	214.11
361.63	214.19
362.01	214.30
362.39	214.35
362.77	214.42
363.15	214.46
363.53	214.44
363.91	214.45
364.29	214.40
364.67	214.23
365.05	214.26
365.43	214.27
365.81	214.32
366.19	214.48
366.57	214.54
366.95	214.50
367.33	214.56
367.71	214.49
368.09	214.58
368.47	214.57
368.85	214.49
369.23	214.37
369.61	214.34
369.99	214.34
370.37	214.32
370.75	214.35
371.13	214.31
371.51	214.27
371.89	214.34
372.27	214.35
372.65	214.26
373.03	214.21
373.41	214.12
373.78	214.00
374.16	213.74
374.54	213.67
374.92	213.64
375.30	213.56
375.68	213.46
376.06	213.37
376.44	213.35
376.82	213.38
377.19	213.38
377.57	213.29
377.95	213.20
378.33	213.14
378.71	213.02
379.09	213.00
379.47	212.93
379.84	212.75
380.22	212.60
380.60	212.55
380.98	212.48
381.36	212.46
381.73	212.41
382.11	212.41
382.49	212.26
382.87	212.17
383.25	212.11
383.62	212.31
384.00	212.28
384.38	212.20
384.76	212.19
385.13	212.19
385.51	212.07
385.89	212.06
386.27	212.05
386.64	212.00
387.02	211.92
387.40	211.88
387.78	211.81
388.15	211.85
388.53	211.78
388.91	211.82
389.29	211.73
389.66	211.78
390.04	211.73
390.42	211.83
390.79	211.84
391.17	211.77
391.55	211.58
391.92	211.54
392.30	211.57
392.68	211.50
393.05	211.49
393.43	211.51
393.81	211.41
394.18	211.35
394.56	211.37
394.94	211.45
395.31	211.50
395.69	211.64
396.06	211.68
396.44	211.70
396.82	211.67
397.19	211.80
397.57	211.82
397.95	211.91
398.32	211.79
398.70	211.92
399.07	212.10
399.45	212.08
399.82	212.09
400.20	212.09
400.58	212.13
400.95	212.06
401.33	212.16
401.70	212.38
402.08	212.52
402.45	212.61
402.83	212.68
403.20	212.75
403.58	212.82
403.95	212.89
404.33	213.02
404.71	213.16
405.08	213.38
405.46	213.44
405.83	213.55
406.21	213.75
406.58	213.84
406.96	213.98
407.33	214.22
407.70	214.47
408.08	214.75
408.45	215.05
408.83	215.31
409.20	215.65
409.58	215.88
409.95	216.15
410.33	216.41
410.70	216.63
411.08	216.98
411.45	217.30
411.82	217.65
412.20	218.17
412.57	218.70
412.95	219.04
413.32	219.59
413.69	220.05
414.07	220.65
414.44	221.29
414.82	221.93
415.19	222.62
415.56	223.35
415.94	224.14
416.31	225.00
416.68	225.92
417.06	226.87
417.43	227.80
417.81	228.91
418.18	230.12
418.55	231.38
418.93	232.65
419.30	234.03
419.67	235.52
420.04	236.95
420.42	238.41
420.79	240.20
421.16	241.95
421.54	243.83
421.91	245.75
422.28	247.64
422.66	249.71
423.03	251.80
423.40	253.83
423.77	256.05
424.15	258.35
424.52	260.64
424.89	263.16
425.26	265.63
425.64	267.95
426.01	270.49
426.38	273.20
426.75	275.99
427.13	278.76
427.50	281.72
427.87	284.71
428.24	287.83
428.61	290.71
428.99	294.02
429.36	297.57
429.73	301.00
430.10	304.60
430.47	308.05
430.85	311.73
431.22	315.72
431.59	319.98
431.96	323.90
432.33	328.29
432.70	332.57
433.08	337.62
433.45	342.37
433.82	346.98
434.19	352.16
434.56	357.15
434.93	361.87
435.30	366.66
435.68	371.93
436.05	377.13
436.42	382.32
436.79	386.96
437.16	392.03
437.53	397.37
437.90	402.65
438.27	407.91
438.64	413.39
439.01	418.30
439.38	422.58
439.75	426.77
440.13	431.78
440.50	436.31
440.87	439.89
441.24	443.68
441.61	448.04
441.98	451.21
442.35	454.88
442.72	458.64
443.09	462.17
443.46	464.41
443.83	465.75
444.20	467.01
444.57	468.88
444.94	469.58
445.31	470.52
445.68	471.16
446.05	471.35
446.42	470.57
446.79	469.87
447.16	469.01
447.53	468.45
447.90	466.21
448.27	464.20
448.64	461.37
449.01	459.20
449.37	455.45
449.74	451.87
450.11	447.68
450.48	443.13
450.85	438.45
451.22	434.44
451.59	430.57
451.96	426.88
452.33	422.01
452.70	417.64
453.07	412.23
453.43	406.93
453.80	401.95
454.17	397.13
454.54	392.55
454.91	387.74
455.28	382.96
455.65	378.66
456.02	374.20
456.38	370.39
456.75	365.68
457.12	361.75
457.49	357.80
457.86	354.01
458.23	350.87
458.59	347.34
458.96	343.79
459.33	340.63
459.70	337.39
460.07	334.87
460.43	331.98
460.80	329.35
461.17	326.98
461.54	324.55
461.91	322.28
462.27	320.00
462.64	317.95
463.01	315.70
463.38	313.40
463.74	311.14
464.11	309.27
464.48	307.76
464.85	306.07
465.21	304.72
465.58	303.33
465.95	301.56
466.32	300.14
466.68	298.72
467.05	297.44
467.42	296.17
467.78	294.69
468.15	293.33
468.52	292.38
468.88	291.14
469.25	289.90
469.62	288.84
469.98	287.69
470.35	286.80
470.72	285.95
471.08	285.05
471.45	284.24
471.82	283.45
472.18	282.57
472.55	281.95
472.92	281.21
473.28	280.60
473.65	280.00
474.02	279.41
474.38	279.01
474.75	278.66
475.11	278.22
475.48	277.95
475.85	277.71
476.21	277.52
476.58	277.46
476.94	277.43
477.31	277.33
477.67	277.37
478.04	277.36
478.41	277.50
478.77	277.83
479.14	277.98
479.50	278.23
479.87	278.53
480.23	278.92
480.60	279.31
480.96	279.68
481.33	280.34
481.69	280.93
482.06	281.52
482.42	282.03
482.79	282.76
483.15	283.60
483.52	284.69
483.88	285.54
484.25	286.40
484.61	287.45
484.98	288.58
485.34	289.78
485.71	291.09
486.07	292.51
486.44	293.71
486.80	295.22
487.17	296.85
487.53	298.67
487.90	300.38
488.26	302.35
488.62	304.34
488.99	306.28
489.35	308.41
489.72	310.65
490.08	313.19
490.44	315.65
490.81	318.39
491.17	320.96
491.54	323.93
491.90	326.99
492.26	330.16
492.63	333.57
492.99	336.93
493.36	340.56
493.72	344.44
494.08	348.50
494.45	352.94
494.81	357.30
495.17	361.84
495.54	366.66
495.90	371.70
496.26	377.05
496.63	382.57
496.99	388.39
497.35	394.40
497.72	400.60
498.08	407.19
498.44	413.84
498.80	420.99
499.17	428.31
499.53	435.93
499.89	444.00
500.26	452.28
500.62	460.67
500.98	469.75
501.34	478.88
501.71	488.45
502.07	498.21
502.43	508.28
502.79	518.52
503.16	529.38
503.52	540.23
503.88	551.49
504.24	563.13
504.60	574.87
504.97	587.15
505.33	599.60
505.69	612.88
506.05	626.34
506.41	640.02
506.78	654.00
507.14	668.21
507.50	682.82
507.86	697.63
508.22	713.18
508.59	728.47
508.95	744.16
509.31	760.29
509.67	776.91
510.03	793.95
510.39	811.53
510.75	829.28
511.12	847.57
511.48	865.92
511.84	884.66
512.20	903.41
512.56	922.83
512.92	942.61
513.28	962.23
513.64	982.13
514.00	1002.18
514.37	1022.72
514.73	1043.72
515.09	1064.55
515.45	1085.69
515.81	1107.10
516.17	1128.36
516.53	1149.84
516.89	1171.63
517.25	1193.11
517.61	1214.98
517.97	1236.53
518.33	1258.14
518.69	1279.93
519.05	1302.13
519.41	1324.58
519.77	1347.78
520.13	1370.12
520.49	1392.04
520.85	1414.82
521.21	1437.68
521.57	1460.77
521.93	1482.73
522.29	1505.68
522.65	1528.42
523.01	1551.13
523.37	1573.36
523.73	1596.02
524.09	1618.72
524.45	1641.12
524.81	1663.73
525.17	1686.55
525.53	1709.22
525.89	1731.92
526.25	1754.21
526.61	1775.83
526.97	1797.54
527.33	1818.46
527.68	1839.90
528.04	1861.61
528.40	1882.30
528.76	1902.78
529.12	1923.39
529.48	1945.40
529.84	1965.79
530.20	1985.90
530.56	2006.39
530.91	2027.31
531.27	2047.88
531.63	2068.10
531.99	2088.07
532.35	2107.45
532.71	2126.42
533.07	2146.00
533.42	2164.45
533.78	2183.43
534.14	2202.09
534.50	2219.60
534.86	2238.15
535.21	2255.23
535.57	2273.27
535.93	2290.79
536.29	2307.67
536.65	2324.89
537.00	2340.51
537.36	2356.14
537.72	2372.09
538.08	2387.67
538.44	2403.32
538.79	2419.14
539.15	2434.19
539.51	2449.43
539.87	2464.90
540.22	2479.63
540.58	2494.88
540.94	2509.69
541.29	2522.71
541.65	2535.20
542.01	2548.58
542.37	2560.70
542.72	2573.43
543.08	2584.59
543.44	2596.22
543.79	2606.92
544.15	2617.24
544.51	2628.48
544.87	2639.65
545.22	2648.96
545.58	2657.37
545.94	2664.49
546.29	2670.78
546.65	2677.12
547.01	2683.17
547.36	2689.14
547.72	2694.70
548.07	2698.78
548.43	2703.03
548.79	2707.16
549.14	2711.93
549.50	2716.41
549.86	2720.52
550.21	2724.67
550.57	2729.23
550.92	2732.41
551.28	2735.44
551.64	2738.26
551.99	2740.86
552.35	2742.52
552.70	2745.52
553.06	2748.80
553.41	2752.20
553.77	2755.47
554.13	2758.27
554.48	2760.30
554.84	2761.75
555.19	2762.49
555.55	2763.26
555.90	2763.84
556.26	2764.63
556.61	2765.02
556.97	2763.82
557.32	2763.67
557.68	2762.08
558.03	2760.19
558.39	2758.84
558.74	2758.57
559.10	2757.34
559.45	2755.39
559.81	2754.10
560.16	2751.44
560.52	2748.75
560.87	2745.65
561.23	2741.78
561.58	2739.16
561.94	2735.93
562.29	2732.31
562.64	2730.25
563.00	2727.90
563.35	2725.59
563.71	2723.65
564.06	2721.51
564.42	2719.75
564.77	2717.42
565.12	2715.60
565.48	2712.66
565.83	2709.40
566.19	2706.10
566.54	2701.74
566.89	2697.87
567.25	2694.32
567.60	2691.16
567.96	2687.57
568.31	2684.40
568.66	2680.69
569.02	2675.69
569.37	2670.99
569.72	2667.18
570.08	2661.83
570.43	2656.18
570.78	2650.35
571.14	2644.11
571.49	2636.90
571.84	2630.96
572.20	2623.98
572.55	2617.14
572.90	2610.15
573.26	2603.23
573.61	2595.66
573.96	2589.20
574.31	2581.63
574.67	2573.16
575.02	2564.56
575.37	2555.90
575.72	2546.62
576.08	2539.16
576.43	2530.98
576.78	2523.05
577.13	2515.20
577.49	2506.82
577.84	2499.01
578.19	2491.16
578.54	2483.93
578.90	2477.03
579.25	2468.15
579.60	2458.70
579.95	2449.45
580.30	2441.38
580.66	2433.09
581.01	2424.44
581.36	2414.89
581.71	2406.27
582.06	2397.89
582.42	2389.61
582.77	2380.63
583.12	2371.33
583.47	2362.50
583.82	2354.19
584.17	2344.80
584.53	2335.19
584.88	2326.40
585.23	2316.94
585.58	2307.70
585.93	2297.66
586.28	2288.70
586.63	2279.69
586.98	2271.12
587.34	2262.61
587.69	2253.36
588.04	2244.05
588.39	2235.66
588.74	2227.07
589.09	2218.32
589.44	2208.76
589.79	2200.20
590.14	2192.09
590.49	2184.09
590.84	2174.64
591.19	2166.16
591.54	2157.26
591.89	2147.06
592.25	2137.85
592.60	2128.25
592.95	2118.84
593.30	2109.42
593.65	2099.31
594.00	2089.68
594.35	2081.57
594.70	2072.34
595.05	2063.43
595.40	2054.47
595.75	2044.78
596.10	2036.42
596.45	2027.63
596.80	2019.72
597.15	2011.21
597.50	2001.93
597.85	1992.94
598.19	1984.33
598.54	1975.65
598.89	1967.70
599.24	1961.10
599.59	1953.52
599.94	1946.47
600.29	1938.54
600.64	1930.50
600.99	1922.15
601.34	1914.85
601.69	1905.83
602.04	1897.76
602.39	1889.72
602.74	1882.08
603.08	1875.45
603.43	1867.79
603.78	1859.70
604.13	1851.51
604.48	1843.43
604.83	1836.30
605.18	1829.17
605.53	1821.75
605.87	1814.07
606.22	1807.19
606.57	1799.00
606.92	1790.80
607.27	1782.68
607.62	1775.03
607.96	1767.86
608.31	1761.51
608.66	1753.42
609.01	1746.02
609.36	1738.06
609.70	1730.03
610.05	1722.00
610.40	1713.50
610.75	1705.08
611.10	1697.40
611.44	1688.10
611.79	1678.58
612.14	1669.32
612.49	1659.90
612.83	1650.85
613.18	1640.76
613.53	1631.12
613.88	1621.41
614.22	1612.32
614.57	1602.78
614.92	1593.34
615.27	1584.03
615.61	1573.79
615.96	1565.00
616.31	1556.40
616.65	1548.50
617.00	1539.94
617.35	1530.90
617.70	1521.86
618.04	1512.52
618.39	1502.71
618.74	1494.30
619.08	1486.10
619.43	1477.65
619.78	1469.69
620.12	1461.64
620.47	1454.09
620.82	1445.29
621.16	1436.79
621.51	1428.13
621.85	1419.79
622.20	1411.21
622.55	1402.71
622.89	1394.81
623.24	1386.59
623.59	1377.72
623.93	1368.93
624.28	1360.58
624.62	1352.54
624.97	1344.06
625.32	1336.34
625.66	1329.14
626.01	1322.06
626.35	1314.58
626.70	1306.90
627.04	1299.16
627.39	1291.40
627.73	1283.81
628.08	1276.93
628.43	1269.73
628.77	1262.41
629.12	1255.01
629.46	1248.51
629.81	1241.00
630.15	1233.22
630.50	1225.66
630.84	1218.20
631.19	1210.96
631.53	1204.04
631.88	1196.40
632.22	1189.00
632.57	1182.14
632.91	1174.59
633.26	1166.80
633.60	1159.34
633.95	1152.59
634.29	1145.29
634.64	1138.39
634.98	1131.18
635.32	1123.88
635.67	1117.37
636.01	1110.65
636.36	1103.78
636.70	1096.88
637.05	1090.40
637.39	1084.19
637.73	1077.84
638.08	1072.11
638.42	1066.12
638.77	1059.64
639.11	1053.48
639.45	1047.37
639.80	1040.41
640.14	1034.02
640.49	1027.81
640.83	1021.79
641.17	1015.20
641.52	1009.08
641.86	1002.43
642.20	996.07
642.55	989.35
642.89	982.70
643.23	976.28
643.58	970.43
643.92	963.75
644.26	957.45
644.61	951.36
644.95	945.32
645.29	938.89
645.64	932.12
645.98	925.88
646.32	919.82
646.66	913.64
647.01	907.87
647.35	902.03
647.69	895.65
648.04	889.56
648.38	883.53
648.72	877.23
649.06	871.05
649.41	865.16
649.75	859.46
650.09	853.50
650.43	847.50
650.78	841.04
651.12	835.00
651.46	829.10
651.80	823.06
652.14	817.02
652.49	811.04
652.83	805.27
653.17	799.32
653.51	793.50
653.85	787.76
654.20	781.64
654.54	775.65
654.88	770.16
655.22	764.15
655.56	758.27
655.90	752.57
656.25	747.04
656.59	741.37
656.93	736.08
657.27	730.79
657.61	725.29
657.95	720.33
658.29	715.25
658.64	710.02
658.98	704.75
659.32	699.42
659.66	694.11
660.00	688.82
660.34	683.40
660.68	678.09
661.02	672.93
661.36	668.27
661.70	663.30
662.05	658.49
662.39	654.13
662.73	649.80
663.07	645.53
663.41	641.14
663.75	636.61
664.09	631.82
664.43	627.14
664.77	622.91
665.11	618.29
665.45	613.89
665.79	609.57
666.13	605.21
666.47	600.93
666.81	596.79
667.15	592.58
667.49	588.67
667.83	584.67
668.17	580.71
668.51	576.75
668.85	573.06
669.19	569.29
669.53	565.26
669.87	560.99
670.21	556.96
670.55	552.96
670.89	549.45
671.23	546.03
671.57	542.52
671.91	538.90
672.25	535.25
672.58	531.70
672.92	528.15
673.26	524.90
673.60	521.55
673.94	518.25
674.28	515.05
674.62	511.84
674.96	508.69
675.30	505.65
675.64	502.32
675.97	499.07
676.31	496.10
676.65	493.30
676.99	490.65
677.33	487.78
677.67	484.87
678.01	481.69
678.34	478.65
678.68	475.64
679.02	472.64
679.36	469.92
679.70	467.07
680.04	464.15
680.37	461.17
680.71	458.29
681.05	455.58
681.39	452.81
681.73	450.07
682.06	447.57
682.40	444.98
682.74	442.54
683.08	439.95
683.42	437.24
683.75	434.49
684.09	431.85
684.43	429.28
684.77	426.62
685.10	424.19
685.44	421.60
685.78	419.19
686.12	416.80
686.45	414.45
686.79	412.23
687.13	410.13
687.46	407.99
687.80	405.76
688.14	403.40
688.48	401.31
688.81	399.04
689.15	396.74
689.49	394.47
689.82	392.24
690.16	389.93
690.50	387.59
690.83	385.45
691.17	383.24
691.51	381.07
691.84	379.14
692.18	376.97
692.52	375.05
692.85	373.14
693.19	371.27
693.52	369.22
693.86	367.18
694.20	365.19
694.53	363.22
694.87	361.30
695.21	359.41
695.54	357.36
695.88	355.52
696.21	353.60
696.55	351.85
696.88	350.07
697.22	348.38
697.56	346.92
697.89	345.20
698.23	343.55
698.56	341.85
698.90	340.20
699.23	338.64
699.57	337.05
699.90	335.41
700.24	333.65
700.58	332.00
700.91	330.47
701.25	329.13
701.58	327.78
701.92	326.35
702.25	324.88
702.59	323.49
702.92	322.19
703.26	320.92
703.59	319.52
703.93	318.28
704.26	316.96
704.60	315.57
704.93	314.38
705.26	313.18
705.60	312.09
705.93	310.84
706.27	309.65
706.60	308.50
706.94	307.40
707.27	306.34
707.61	305.20
707.94	304.05
708.27	302.68
708.61	301.47
708.94	300.36
709.28	299.23
709.61	298.19
709.94	297.06
710.28	295.89
710.61	294.84
710.95	293.68
711.28	292.69
711.61	291.65
711.95	290.58
712.28	289.48
712.61	288.48
712.95	287.61
713.28	286.63
713.61	285.62
713.95	284.66
714.28	283.73
714.61	282.88
714.95	281.94
715.28	281.04
715.61	280.05
715.95	279.09
716.28	278.26
716.61	277.32
716.95	276.48
717.28	275.66
717.61	274.85
717.94	274.11
718.28	273.39
718.61	272.63
718.94	271.84
719.27	271.14
719.61	270.33
719.94	269.58
720.27	268.85
720.60	268.11
720.94	267.36
721.27	266.75
721.60	266.08
721.93	265.43
722.27	264.81
722.60	264.21
722.93	263.62
723.26	263.03
723.59	262.40
723.93	261.78
724.26	261.25
724.59	260.57
724.92	259.97
725.25	259.34
725.59	258.80
725.92	258.18
726.25	257.63
726.58	257.17
726.91	256.64
727.24	256.10
727.57	255.66
727.91	255.11
728.24	254.53
728.57	253.95
728.90	253.48
729.23	252.97
729.56	252.63
729.89	252.20
730.22	251.66
730.55	251.28
730.89	250.79
731.22	250.29
731.55	249.96
731.88	249.42
732.21	248.97
732.54	248.45
732.87	248.08
733.20	247.63
733.53	247.20
733.86	246.68
734.19	246.18
734.52	245.82
734.85	245.65
735.18	245.28
735.51	244.95
735.84	244.58
736.17	244.18
736.50	243.71
736.83	243.44
737.16	243.12
737.49	242.69
737.82	242.38
738.15	242.01
738.48	241.49
738.81	241.16
739.14	240.77
739.47	240.37
739.80	240.05
740.13	239.71
740.46	239.29
740.79	239.00
741.12	238.68
741.45	238.29
741.78	237.75
742.11	237.45
742.44	237.16
742.77	236.87
743.10	236.64
743.43	236.30
743.75	235.88
744.08	235.83
744.41	235.61
744.74	235.21
745.07	234.92
745.40	234.76
745.73	234.59
746.06	234.37
746.39	234.14
746.71	233.87
747.04	233.55
747.37	233.26
747.70	233.02
748.03	232.78
748.36	232.48
748.68	232.20
749.01	231.85
749.34	231.60
749.67	231.38
750.00	231.15
750.33	231.04
750.65	230.75
750.98	230.24
751.31	230.00
751.64	229.80
751.97	229.64
752.29	229.42
752.62	229.09
752.95	228.82
753.28	228.60
753.60	228.33
753.93	228.20
754.26	228.00
754.59	227.70
754.91	227.51
755.24	227.36
755.57	227.21
755.90	227.08
756.22	226.85
756.55	226.65
756.88	226.38
757.20	226.02
757.53	225.75
757.86	225.64
758.19	225.40
758.51	225.20
758.84	225.01
759.17	224.77
759.49	224.64
759.82	224.53
760.15	224.40
760.47	224.19
760.80	224.01
761.13	223.90
761.45	223.78
761.78	223.59
762.11	223.38
762.43	223.20
762.76	223.01
763.08	222.95
763.41	222.81
763.74	222.70
764.06	222.60
764.39	222.59
764.71	222.45
765.04	222.39
765.37	222.28
765.69	222.08
766.02	222.00
766.34	221.86
766.67	221.70
767.00	221.60
767.32	221.64
767.65	221.57
767.97	221.39
768.30	221.28
768.62	221.22
768.95	221.10
769.27	221.07
769.60	221.01
769.92	220.83
770.25	220.69
770.57	220.49
770.90	220.34
771.22	220.18
771.55	220.04
771.87	219.91
772.20	219.79
772.52	219.88
772.85	219.96
773.17	219.86
773.50	219.75
773.82	219.61
774.15	219.50
774.47	219.27
774.80	219.27
775.12	219.10
775.45	219.02
775.77	218.97
776.09	218.90
776.42	218.80
776.74	218.77
777.07	218.68
777.39	218.73
777.72	218.67
778.04	218.65
778.36	218.52
778.69	218.47
779.01	218.50
779.33	218.32
779.66	218.09
779.98	218.07
780.31	218.03
780.63	218.05
780.95	217.95
781.28	217.96
781.60	217.87
781.92	217.78
782.25	217.75
782.57	217.66
782.89	217.57
783.22	217.49
783.54	217.29
783.86	217.22
784.19	217.14
784.51	217.14
784.83	217.06
785.16	217.01
785.48	216.93
785.80	216.73
786.12	216.72
786.45	216.65
786.77	216.52
787.09	216.42
787.42	216.26
787.74	216.19
788.06	216.14
788.38	216.03
788.71	216.02
789.03	215.92
789.35	215.88
789.67	215.75
789.99	215.69
790.32	215.68
790.64	215.63
790.96	215.69
791.28	215.56
791.61	215.50
791.93	215.50
792.25	215.43
792.57	215.59
792.89	215.46
793.21	215.42
793.54	215.38
793.86	215.33
794.18	215.24
794.50	215.15
794.82	215.02
795.14	214.98
795.47	214.99
795.79	215.01
796.11	214.96
796.43	214.92
796.75	214.88
797.07	214.92
797.39	214.85
797.71	214.68
798.04	214.65
798.36	214.58
798.68	214.50
799.00	214.53
799.32	214.41
799.64	214.36
799.96	214.35
800.28	214.39
800.60	214.36
800.92	214.41
801.24	214.45
801.56	214.50
801.89	214.48
802.21	214.45
802.53	214.35
802.85	214.34
803.17	214.41
803.49	214.38
803.81	214.30
804.13	214.30
804.45	214.27
804.77	214.23
805.09	214.26
805.41	214.20
805.73	214.15
806.05	214.05
806.37	214.04
806.69	213.96
807.01	213.82
807.33	213.78
807.65	213.65
807.97	213.67
808.28	213.64
808.60	213.60
808.92	213.55
809.24	213.65
809.56	213.62
809.88	213.55
810.20	213.56
810.52	213.49
810.84	213.49
811.16	213.44
811.48	213.40
811.80	213.43
812.12	213.43
812.43	213.38
812.75	213.40
813.07	213.40
813.39	213.44
813.71	213.45
814.03	213.42
814.35	213.41
814.67	213.33
814.98	213.32
815.30	213.32
815.62	213.26
815.94	213.11
816.26	213.11
816.58	213.07
816.89	213.00
817.21	213.04
817.53	213.05
817.85	213.07
818.17	213.15
818.48	213.04
818.80	213.07
819.12	213.05
819.44	212.96
819.76	212.91
820.07	212.87
820.39	212.85
820.71	212.86
821.03	212.88
821.34	212.81
821.66	212.77
821.98	212.79
822.30	212.79
822.61	212.88
822.93	212.79
823.25	212.81
823.57	212.81
823.88	212.76
824.20	212.72
824.52	212.72
824.83	212.70
825.15	212.65
825.47	212.66
825.79	212.64
826.10	212.62
826.42	212.61
826.74	212.62
827.05	212.59
827.37	212.58
827.69	212.51
828.00	212.55
828.32	212.52
828.64	212.41
828.95	212.42
829.27	212.42
829.58	212.40
829.90	212.36
830.22	212.32
830.53	212.35
830.85	212.25
831.17	212.15
831.48	212.13
831.80	212.17
832.11	212.12
832.43	212.08
832.75	212.05
833.06	212.17
833.38	212.10
833.69	212.09
834.01	212.08
834.32	212.13
834.64	212.10
834.96	212.08
835.27	212.16
835.59	212.13
835.90	212.00
836.22	212.04
836.53	212.03
836.85	212.01
837.16	212.16
837.48	212.20
837.79	212.24
838.11	212.18
838.42	212.19
838.74	212.17
839.05	212.24
839.37	212.23
839.68	212.03
840.00	212.04
840.31	212.09
840.63	212.14
840.94	212.10
841.26	212.05
841.57	212.07
841.88	212.03
842.20	212.07
842.51	212.08
842.83	212.10
843.14	212.27
843.46	212.30
843.77	212.13
844.08	212.19
844.40	212.17
844.71	212.17
845.03	212.09
845.34	212.15
845.65	212.04
845.97	212.07
846.28	212.09
846.60	212.05
846.91	212.01
847.22	211.94
847.54	212.03
847.85	212.10
848.16	212.03
848.48	212.00
848.79	212.04
849.10	212.05
849.42	212.10
849.73	211.93
850.04	211.90
850.36	211.92
850.67	211.92
850.98	211.90
851.30	211.89
851.61	211.90
851.92	211.85
852.23	211.99
852.55	212.01
852.86	212.13
853.17	212.20
853.49	212.26
853.80	212.28
854.11	212.28
854.42	212.24
854.74	212.27
855.05	212.32
855.36	212.22
855.67	212.21
855.99	212.13
856.30	212.34
856.61	212.37
856.92	212.31
857.23	212.32
857.55	212.41
857.86	212.45
858.17	212.49
858.48	212.50
858.79	212.44
859.11	212.50
859.42	212.41
859.73	212.33
860.04	212.31
860.35	212.32
860.66	212.24
860.98	212.29
861.29	212.29
861.60	212.29
861.91	212.33
862.22	212.31
862.53	212.30
862.84	212.06
863.16	212.07
863.47	212.06
863.78	212.01
864.09	211.93
864.40	211.92
864.71	211.88
865.02	211.87
865.33	211.85
865.64	211.74
865.95	211.73
866.27	211.91
866.58	211.88
866.89	211.88
867.20	211.88
867.51	211.82
867.82	211.84
868.13	211.84
868.44	211.79
868.75	211.78
869.06	211.80
869.37	211.85
869.68	211.78
869.99	211.78
870.30	211.83
870.61	211.85
870.92	211.77
871.23	211.77
871.54	211.74
871.85	211.69
872.16	211.67
872.47	211.69
872.78	211.50
873.09	211.50
873.40	211.45
873.71	211.48
874.02	211.49
874.33	211.43
874.64	211.40
874.95	211.43
875.26	211.44
875.56	211.41
875.87	211.36
876.18	211.34
876.49	211.51
876.80	211.48
877.11	211.42
877.42	211.46
877.73	211.42
878.04	211.38
878.35	211.40
878.66	211.50
878.96	211.42
879.27	211.44
879.58	211.41
879.89	211.44
880.20	211.39
880.51	211.35
880.82	211.44
881.12	211.42
881.43	211.40
881.74	211.40
882.05	211.40
882.36	211.41
882.67	211.44
882.97	211.26
883.28	211.20
883.59	211.20
883.90	211.19
884.21	211.30
884.51	211.32
884.82	211.29
885.13	211.22
885.44	211.25
885.74	211.30
886.05	211.29
886.36	211.25
886.67	211.26
886.98	211.39
887.28	211.32
887.59	211.31
887.90	211.25
888.20	211.22
888.51	211.27
888.82	211.25
889.13	211.29
889.43	211.41
889.74	211.40
890.05	211.40
890.35	211.44
890.66	211.37
890.97	211.38
891.28	211.37
891.58	211.40
891.89	211.38
892.20	211.30
892.50	211.28
892.81	211.36
893.12	211.37
893.42	211.25
893.73	211.29
894.04	211.34
894.34	211.39
894.65	211.44
894.95	211.37
895.26	211.37
895.57	211.40
895.87	211.24
896.18	211.18
896.48	211.16
896.79	211.17
897.10	211.19
897.40	211.17
897.71	211.19
898.01	211.18
898.32	211.20
898.63	211.20
898.93	211.22
899.24	211.16
899.54	211.12
899.85	211.08
900.15	211.02
900.46	210.99
900.76	210.98
901.07	210.89
901.38	210.89
901.68	210.94
901.99	210.88
902.29	210.90
902.60	210.97
902.90	210.97
903.21	210.90
903.51	210.92
903.82	210.97
904.12	210.99
904.43	211.02
904.73	211.00
905.03	211.06
905.34	211.20
905.64	211.14
905.95	211.13
906.25	211.20
906.56	211.25
906.86	211.30
907.17	211.27
907.47	211.22
907.77	211.15
908.08	211.13
908.38	211.14
908.69	211.16
908.99	211.18
909.30	211.22
909.60	211.25
909.90	211.26
910.21	211.17
910.51	211.15
910.81	211.12
911.12	211.12
911.42	211.09
911.73	210.89
912.03	210.95
912.33	210.99
912.64	210.89
912.94	210.85
913.24	210.82
913.55	210.82
913.85	210.89
914.15	210.96
914.46	210.91
914.76	210.92
915.06	210.85
915.37	210.81
915.67	210.78
915.97	210.81
916.27	210.81
916.58	210.90
916.88	210.87
917.18	210.81
917.49	210.94
917.79	210.89
918.09	210.99
918.39	211.02
918.70	211.02
919.00	211.13
919.30	211.20
919.60	211.13
919.91	211.13
920.21	211.11
920.51	211.05
920.81	211.05
921.12	211.01
921.42	211.02
921.72	211.13
922.02	211.10
922.32	211.12
922.63	211.01
922.93	211.05
923.23	211.04
923.53	211.10
923.83	211.05
924.13	211.10
924.44	211.04
924.74	211.10
925.04	211.14
925.34	211.10
925.64	210.97
925.94	211.00
926.24	211.16
926.55	211.15
926.85	211.24
927.15	211.25
927.45	211.25
927.75	211.29
928.05	211.20
928.35	211.24
928.65	211.23
928.95	211.26
929.26	211.23
929.56	211.30
929.86	211.32
930.16	211.22
930.46	211.21
930.76	211.24
931.06	211.09
931.36	211.02
931.66	211.03
931.96	211.12
932.26	211.14
932.56	210.97
932.86	210.98
933.16	210.98
933.46	210.99
933.76	210.94
934.06	211.02
934.36	211.09
934.66	211.12
934.96	211.12
935.26	211.15
935.56	211.14
935.86	211.09
936.16	210.99
936.46	210.94
936.76	210.98
937.06	210.99
937.36	211.05
937.66	211.08
937.96	211.01
938.26	210.99
938.56	210.97
938.86	210.96
939.16	211.03
939.46	211.05
939.76	211.09
940.06	211.21
940.35	211.10
940.65	210.98
940.95	210.93
941.25	210.88
941.55	210.82
941.85	210.78
942.15	210.81
942.45	210.87
942.75	210.91
943.04	210.87
943.34	210.87
943.64	210.79
943.94	210.75
944.24	210.71
944.54	210.74
944.84	210.75
945.13	210.79
945.43	210.81
945.73	210.79
946.03	210.77
946.33	210.69
946.62	210.69
946.92	210.76
947.22	210.83
947.52	210.90
947.82	210.94
948.11	210.97
948.41	210.91
948.71	210.84
949.01	210.82
949.31	210.80
949.60	210.77
949.90	210.83
950.20	210.80
950.50	210.91
950.79	210.85
951.09	210.84
951.39	210.86
951.69	210.80
951.98	210.81
952.28	210.79
952.58	210.79
952.87	210.82
953.17	210.87
953.47	210.80
953.76	210.77
954.06	210.75
954.36	210.69
954.66	210.72
954.95	210.76
955.25	210.89
955.55	210.94
955.84	210.99
956.14	211.07
956.44	211.12
956.73	211.09
957.03	211.12
957.32	211.13
957.62	211.15
957.92	211.09
958.21	211.08
958.51	211.24
958.81	211.29
959.10	211.30
959.40	211.32
959.69	211.41
959.99	211.38
960.29	211.41
960.58	211.37
960.88	211.34
961.17	211.32
961.47	211.27
961.76	211.25
962.06	211.20
962.36	211.11
962.65	211.17
962.95	211.13
963.24	211.13
963.54	211.14
963.83	211.15
964.13	211.18
964.42	211.14
964.72	211.03
965.01	211.01
965.31	210.95
965.60	210.86
965.90	210.92
966.19	210.89
966.49	210.81
966.78	210.91
967.08	210.99
967.37	211.03
967.67	211.01
967.96	211.06
968.26	211.06
968.55	211.10
968.85	211.08
969.14	211.16
969.43	211.14
969.73	211.11
970.02	211.12
970.32	211.13
970.61	211.13
970.91	211.08
971.20	211.05
971.49	211.05
971.79	211.08
972.08	210.89
972.38	210.89
972.67	211.00
972.96	210.96
973.26	210.89
973.55	210.95
973.85	210.96
974.14	210.89
974.43	210.91
974.73	210.86
975.02	210.85
975.31	210.77
975.61	210.73
975.90	210.77
976.19	210.72
976.49	210.74
976.78	210.75
977.07	210.70
977.37	210.72
977.66	210.73
977.95	210.70
978.24	210.76
978.54	210.82
978.83	210.82
979.12	210.75
979.42	210.75
979.71	210.69
980.00	210.65
980.29	210.67
980.59	210.66
980.88	210.67
981.17	210.70
981.46	210.70
981.76	210.75
982.05	210.79
982.34	210.76
982.63	210.76
982.93	210.76
983.22	210.84
983.51	210.83
983.80	210.85
984.09	210.83
984.39	210.88
984.68	210.78
984.97	210.76
985.26	210.77
985.55	210.82
985.85	210.82
986.14	210.84
986.43	210.85
986.72	210.82
987.01	210.78
987.30	210.73
987.59	210.82
987.89	210.81
988.18	210.71
988.47	210.70
988.76	210.71
989.05	210.65
989.34	210.60
989.63	210.66
989.92	210.70
990.22	210.73
990.51	210.73
990.80	210.80
991.09	210.81
991.38	210.84
991.67	210.82
991.96	210.76
992.25	210.80
992.54	210.79
992.83	210.81
993.12	210.86
993.41	210.88
993.70	210.87
993.99	210.93
994.28	210.95
994.58	210.99
994.87	210.91
995.16	210.98
995.45	211.02
995.74	210.94
996.03	210.92
996.32	210.91
996.61	210.91
996.90	210.89
997.19	210.91
997.48	210.90
997.77	210.93
998.06	211.00
998.34	210.97
998.63	210.95
998.92	210.91
999.21	210.96
999.50	210.98
999.79	210.95
1000.08	210.94
1000.37	211.00
1000.66	211.03
1000.95	211.12
1001.24	211.09
1001.53	211.05
1001.82	211.02
1002.11	210.97
1002.40	211.03
1002.68	211.10
1002.97	211.21
1003.26	211.14
1003.55	211.22
1003.84	211.24
1004.13	211.25
1004.42	211.25
1004.71	211.24
1004.99	211.22
1005.28	211.26
1005.57	211.20
1005.86	211.15
1006.15	211.12
1006.44	211.03
1006.72	211.00
1007.01	210.98
1007.30	210.99
1007.59	211.05
1007.88	211.10
1008.17	211.09
1008.45	211.02
1008.74	210.93
1009.03	210.87
1009.32	210.92
1009.60	210.84
1009.89	210.76
1010.18	210.71
1010.47	210.73
1010.76	210.69
1011.04	210.70
1011.33	210.71
1011.62	210.80
1011.91	210.83
1012.19	210.83
1012.48	210.83
1012.77	210.75
1013.05	210.80
1013.34	210.77
1013.63	210.72
1013.92	210.71
1014.20	210.76
1014.49	210.77
1014.78	210.73
1015.06	210.62
1015.35	210.64
1015.64	210.69
1015.92	210.69
1016.21	210.66
1016.50	210.70
1016.78	210.75
1017.07	210.81
1017.36	210.71
1017.64	210.62
1017.93	210.64
1018.22	210.65
1018.50	210.69
1018.79	210.73
1019.08	210.69
1019.36	210.71
1019.65	210.70
1019.93	210.76
1020.22	210.77
1020.51	210.85
1020.79	210.88
1021.08	210.30
1021.36	211.25
1021.65	209.85
1021.94	211.90
1022.22	210.65
1022.51	210.35
1022.79	211.55
1023.08	211.05
1023.36	212.65
1023.65	210.80
>>>>>End Processed Spectral Data<<<<<
