SpectraSuite Data File
++++++++++++++++++++++++++++++++++++
Date: Mon Feb 25 17:35:52 EST 2013
User: group
Dark Spectrum Present: No
Reference Spectrum Present: No
Number of Sampled Component Spectra: 1
Spectrometers: USB2E7196
Integration Time (usec): 52000 (USB2E7196)
Spectra Averaged: 20 (USB2E7196)
Boxcar Smoothing: 10 (USB2E7196)
Correct for Electrical Dark: No (USB2E7196)
Strobe/Lamp Enabled: No (USB2E7196)
Correct for Detector Non-linearity: No (USB2E7196)
Correct for Stray Light: No (USB2E7196)
Number of Pixels in Processed Spectrum: 2048
>>>>>Begin Processed Spectral Data<<<<<
339.09	0.00
339.48	199.30
339.86	200.70
340.24	201.30
340.63	202.70
341.01	208.00
341.39	206.25
341.78	207.50
342.16	208.45
342.54	208.75
342.93	198.35
343.31	208.37
343.69	208.92
344.07	209.35
344.46	209.74
344.84	210.19
345.22	210.34
345.60	210.64
345.99	210.79
346.37	210.91
346.75	211.04
347.13	211.09
347.52	211.15
347.90	211.26
348.28	211.25
348.66	211.28
349.05	211.25
349.43	211.37
349.81	211.35
350.19	211.42
350.57	211.52
350.96	211.62
351.34	211.65
351.72	211.65
352.10	211.79
352.48	211.91
352.87	211.95
353.25	211.94
353.63	211.95
354.01	212.01
354.39	212.13
354.77	212.20
355.15	212.32
355.54	212.28
355.92	212.22
356.30	212.29
356.68	212.46
357.06	212.51
357.44	212.44
357.82	212.51
358.20	212.53
358.58	212.62
358.97	212.67
359.35	212.77
359.73	212.93
360.11	212.95
360.49	213.01
360.87	212.99
361.25	213.08
361.63	213.15
362.01	213.23
362.39	213.20
362.77	213.25
363.15	213.27
363.53	213.33
363.91	213.47
364.29	213.47
364.67	213.39
365.05	213.44
365.43	213.53
365.81	213.58
366.19	213.72
366.57	213.76
366.95	213.74
367.33	213.72
367.71	213.74
368.09	213.72
368.47	213.67
368.85	213.71
369.23	213.76
369.61	213.74
369.99	213.75
370.37	213.79
370.75	213.84
371.13	213.85
371.51	213.73
371.89	213.66
372.27	213.66
372.65	213.63
373.03	213.59
373.41	213.64
373.78	213.53
374.16	213.41
374.54	213.35
374.92	213.31
375.30	213.29
375.68	213.23
376.06	213.23
376.44	213.21
376.82	213.18
377.19	213.15
377.57	213.13
377.95	213.05
378.33	212.99
378.71	212.85
379.09	212.80
379.47	212.86
379.84	212.75
380.22	212.71
380.60	212.68
380.98	212.62
381.36	212.50
381.73	212.43
382.11	212.39
382.49	212.33
382.87	212.26
383.25	212.26
383.62	212.40
384.00	212.29
384.38	212.19
384.76	212.20
385.13	212.20
385.51	212.17
385.89	212.15
386.27	212.14
386.64	212.13
387.02	212.07
387.40	212.04
387.78	212.08
388.15	212.08
388.53	212.02
388.91	212.05
389.29	212.00
389.66	212.03
390.04	212.00
390.42	212.02
390.79	211.99
391.17	211.92
391.55	211.73
391.92	211.80
392.30	211.94
392.68	211.90
393.05	211.83
393.43	211.77
393.81	211.74
394.18	211.66
394.56	211.68
394.94	211.75
395.31	211.72
395.69	211.73
396.06	211.74
396.44	211.71
396.82	211.63
397.19	211.73
397.57	211.76
397.95	211.86
398.32	211.77
398.70	211.79
399.07	211.90
399.45	211.96
399.82	211.91
400.20	211.94
400.58	211.99
400.95	211.98
401.33	212.08
401.70	212.32
402.08	212.55
402.45	212.60
402.83	212.67
403.20	212.80
403.58	212.94
403.95	213.01
404.33	213.15
404.71	213.33
405.08	213.61
405.46	213.80
405.83	213.94
406.21	214.18
406.58	214.42
406.96	214.58
407.33	214.75
407.70	215.09
408.08	215.47
408.45	215.82
408.83	216.22
409.20	216.58
409.58	216.74
409.95	217.02
410.33	217.51
410.70	217.92
411.08	218.42
411.45	218.86
411.82	219.35
412.20	219.99
412.57	220.70
412.95	221.10
413.32	221.84
413.69	222.56
414.07	223.35
414.44	224.14
414.82	224.97
415.19	225.95
415.56	226.95
415.94	227.90
416.31	229.03
416.68	230.22
417.06	231.56
417.43	232.94
417.81	234.45
418.18	235.85
418.55	237.38
418.93	238.99
419.30	240.73
419.67	242.63
420.04	244.51
420.42	246.43
420.79	248.80
421.16	251.04
421.54	253.44
421.91	255.87
422.28	258.55
422.66	261.40
423.03	264.12
423.40	266.88
423.77	269.90
424.15	272.93
424.52	276.05
424.89	279.42
425.26	282.71
425.64	285.90
426.01	289.39
426.38	293.07
426.75	296.86
427.13	300.66
427.50	304.82
427.87	309.03
428.24	313.33
428.61	317.35
428.99	321.80
429.36	326.67
429.73	331.43
430.10	336.09
430.47	340.79
430.85	345.81
431.22	351.24
431.59	356.87
431.96	362.31
432.33	368.31
432.70	374.17
433.08	381.04
433.45	387.30
433.82	393.78
434.19	400.86
434.56	407.73
434.93	414.53
435.30	421.14
435.68	428.46
436.05	435.63
436.42	442.93
436.79	449.44
437.16	456.48
437.53	464.03
437.90	471.56
438.27	478.87
438.64	486.47
439.01	493.36
439.38	499.70
439.75	505.79
440.13	512.72
440.50	519.17
440.87	524.30
441.24	529.90
441.61	535.90
441.98	540.54
442.35	545.90
442.72	551.14
443.09	556.06
443.46	559.14
443.83	561.21
444.20	562.88
444.57	565.51
444.94	566.80
445.31	568.07
445.68	569.16
446.05	569.83
446.42	569.20
446.79	568.40
447.16	567.36
447.53	566.60
447.90	563.80
448.27	560.95
448.64	557.23
449.01	554.51
449.37	549.62
449.74	544.86
450.11	539.07
450.48	532.90
450.85	526.81
451.22	521.38
451.59	516.34
451.96	511.54
452.33	504.94
452.70	498.85
453.07	491.73
453.43	484.45
453.80	477.40
454.17	470.74
454.54	464.36
454.91	457.63
455.28	451.05
455.65	444.93
456.02	438.85
456.38	433.55
456.75	427.05
457.12	421.62
457.49	416.14
457.86	411.00
458.23	406.50
458.59	401.50
458.96	396.62
459.33	392.20
459.70	387.73
460.07	384.25
460.43	380.38
460.80	376.57
461.17	373.31
461.54	369.87
461.91	366.57
462.27	363.26
462.64	360.42
463.01	357.29
463.38	354.28
463.74	351.33
464.11	348.69
464.48	346.30
464.85	343.80
465.21	341.92
465.58	339.76
465.95	337.30
466.32	335.24
466.68	333.25
467.05	331.15
467.42	329.23
467.78	327.28
468.15	325.29
468.52	323.79
468.88	321.97
469.25	320.20
469.62	318.78
469.98	317.39
470.35	316.03
470.72	314.75
471.08	313.29
471.45	312.12
471.82	311.00
472.18	309.78
472.55	308.91
472.92	307.82
473.28	306.94
473.65	306.05
474.02	305.16
474.38	304.50
474.75	304.05
475.11	303.33
475.48	302.84
475.85	302.48
476.21	302.23
476.58	301.93
476.94	301.82
477.31	301.67
477.67	301.45
478.04	301.40
478.41	301.48
478.77	301.75
479.14	301.78
479.50	302.00
479.87	302.34
480.23	302.72
480.60	303.09
480.96	303.50
481.33	304.14
481.69	304.84
482.06	305.42
482.42	305.94
482.79	306.77
483.15	307.65
483.52	308.74
483.88	309.66
484.25	310.74
484.61	312.01
484.98	313.14
485.34	314.55
485.71	315.98
486.07	317.46
486.44	318.90
486.80	320.68
487.17	322.46
487.53	324.37
487.90	326.35
488.26	328.47
488.62	330.83
488.99	333.13
489.35	335.49
489.72	338.10
490.08	340.95
490.44	343.79
490.81	346.81
491.17	349.79
491.54	353.13
491.90	356.54
492.26	360.16
492.63	364.04
492.99	368.01
493.36	372.13
493.72	376.70
494.08	381.30
494.45	386.10
494.81	391.22
495.17	396.46
495.54	401.87
495.90	407.66
496.26	413.47
496.63	419.71
496.99	426.23
497.35	432.96
497.72	439.97
498.08	447.15
498.44	454.63
498.80	462.69
499.17	471.01
499.53	479.52
499.89	488.47
500.26	497.51
500.62	506.71
500.98	516.54
501.34	526.44
501.71	536.84
502.07	547.60
502.43	558.46
502.79	569.63
503.16	581.32
503.52	593.22
503.88	605.62
504.24	618.44
504.60	631.39
504.97	644.94
505.33	658.38
505.69	672.87
506.05	687.56
506.41	702.16
506.78	717.06
507.14	732.38
507.50	747.93
507.86	764.17
508.22	780.68
508.59	797.25
508.95	814.50
509.31	832.07
509.67	850.00
510.03	868.15
510.39	887.04
510.75	906.24
511.12	925.27
511.48	944.85
511.84	964.50
512.20	984.31
512.56	1004.75
512.92	1025.58
513.28	1046.33
513.64	1067.38
514.00	1088.45
514.37	1110.06
514.73	1132.15
515.09	1154.22
515.45	1176.07
515.81	1198.43
516.17	1220.93
516.53	1243.00
516.89	1265.44
517.25	1287.85
517.61	1310.42
517.97	1332.85
518.33	1355.30
518.69	1378.18
519.05	1401.28
519.41	1424.47
519.77	1448.17
520.13	1471.11
520.49	1494.26
520.85	1517.83
521.21	1540.95
521.57	1564.96
521.93	1587.73
522.29	1611.14
522.65	1634.45
523.01	1657.50
523.37	1680.15
523.73	1703.19
524.09	1726.42
524.45	1749.54
524.81	1772.82
525.17	1796.00
525.53	1819.26
525.89	1842.01
526.25	1864.89
526.61	1886.69
526.97	1909.11
527.33	1930.74
527.68	1953.06
528.04	1974.75
528.40	1995.41
528.76	2016.92
529.12	2037.98
529.48	2060.39
529.84	2081.54
530.20	2102.44
530.56	2123.74
530.91	2145.26
531.27	2166.57
531.63	2187.49
531.99	2208.14
532.35	2227.96
532.71	2247.99
533.07	2268.35
533.42	2288.14
533.78	2307.93
534.14	2327.32
534.50	2345.02
534.86	2363.96
535.21	2381.02
535.57	2399.59
535.93	2417.83
536.29	2435.40
536.65	2452.84
537.00	2468.93
537.36	2484.60
537.72	2500.43
538.08	2516.16
538.44	2531.90
538.79	2546.67
539.15	2561.43
539.51	2575.94
539.87	2591.17
540.22	2605.17
540.58	2619.97
540.94	2634.33
541.29	2647.02
541.65	2659.29
542.01	2673.16
542.37	2685.44
542.72	2698.32
543.08	2709.42
543.44	2721.73
543.79	2732.16
544.15	2742.11
544.51	2753.02
544.87	2763.90
545.22	2773.80
545.58	2783.04
545.94	2790.88
546.29	2798.90
546.65	2805.71
547.01	2812.83
547.36	2818.95
547.72	2825.76
548.07	2830.41
548.43	2834.61
548.79	2839.12
549.14	2844.50
549.50	2848.95
549.86	2853.43
550.21	2857.65
550.57	2862.13
550.92	2864.76
551.28	2867.99
551.64	2871.29
551.99	2874.27
552.35	2876.31
552.70	2878.66
553.06	2881.16
553.41	2884.37
553.77	2887.22
554.13	2890.07
554.48	2892.28
554.84	2894.45
555.19	2895.12
555.55	2895.59
555.90	2896.37
556.26	2897.27
556.61	2897.39
556.97	2896.31
557.32	2895.93
557.68	2894.89
558.03	2893.48
558.39	2892.01
558.74	2891.79
559.10	2890.89
559.45	2889.16
559.81	2888.46
560.16	2886.22
560.52	2884.02
560.87	2881.28
561.23	2877.21
561.58	2874.53
561.94	2871.38
562.29	2867.42
562.64	2864.67
563.00	2862.45
563.35	2859.71
563.71	2857.38
564.06	2854.62
564.42	2852.11
564.77	2849.03
565.12	2846.47
565.48	2843.60
565.83	2840.47
566.19	2837.09
566.54	2832.86
566.89	2828.88
567.25	2824.22
567.60	2820.20
567.96	2815.85
568.31	2811.64
568.66	2807.69
569.02	2802.80
569.37	2797.49
569.72	2793.81
570.08	2789.23
570.43	2783.25
570.78	2777.84
571.14	2771.38
571.49	2764.63
571.84	2758.31
572.20	2751.35
572.55	2744.74
572.90	2737.18
573.26	2730.20
573.61	2722.27
573.96	2714.99
574.31	2707.10
574.67	2699.39
575.02	2691.12
575.37	2682.83
575.72	2673.87
576.08	2665.93
576.43	2656.77
576.78	2648.41
577.13	2639.43
577.49	2630.54
577.84	2622.21
578.19	2613.35
578.54	2605.71
578.90	2598.32
579.25	2589.34
579.60	2579.40
579.95	2569.45
580.30	2561.06
580.66	2552.15
581.01	2542.87
581.36	2533.34
581.71	2524.25
582.06	2515.28
582.42	2506.80
582.77	2497.67
583.12	2488.70
583.47	2479.97
583.82	2471.88
584.17	2462.21
584.53	2452.47
584.88	2442.75
585.23	2432.42
585.58	2422.89
585.93	2412.65
586.28	2403.07
586.63	2394.29
586.98	2386.60
587.34	2378.39
587.69	2368.85
588.04	2359.54
588.39	2350.78
588.74	2341.18
589.09	2331.77
589.44	2321.35
589.79	2312.29
590.14	2303.49
590.49	2294.00
590.84	2284.02
591.19	2274.43
591.54	2265.20
591.89	2254.97
592.25	2245.10
592.60	2235.72
592.95	2225.84
593.30	2215.86
593.65	2205.61
594.00	2195.69
594.35	2186.70
594.70	2176.87
595.05	2168.01
595.40	2158.63
595.75	2148.11
596.10	2139.18
596.45	2130.12
596.80	2122.22
597.15	2113.04
597.50	2102.94
597.85	2094.10
598.19	2084.97
598.54	2076.71
598.89	2068.40
599.24	2060.82
599.59	2052.62
599.94	2044.59
600.29	2036.31
600.64	2027.74
600.99	2018.46
601.34	2010.41
601.69	2000.34
602.04	1991.27
602.39	1982.51
602.74	1974.01
603.08	1966.50
603.43	1958.63
603.78	1949.79
604.13	1940.79
604.48	1932.26
604.83	1924.81
605.18	1917.05
605.53	1908.74
605.87	1899.65
606.22	1891.32
606.57	1882.65
606.92	1874.26
607.27	1866.09
607.62	1858.72
607.96	1851.38
608.31	1845.17
608.66	1836.74
609.01	1829.16
609.36	1821.39
609.70	1812.52
610.05	1804.35
610.40	1795.86
610.75	1786.88
611.10	1778.81
611.44	1769.17
611.79	1760.01
612.14	1750.32
612.49	1740.33
612.83	1731.34
613.18	1721.77
613.53	1712.20
613.88	1702.34
614.22	1692.81
614.57	1682.67
614.92	1672.14
615.27	1662.10
615.61	1651.23
615.96	1641.60
616.31	1632.42
616.65	1623.13
617.00	1613.84
617.35	1604.58
617.70	1595.24
618.04	1585.67
618.39	1575.80
618.74	1567.00
619.08	1557.52
619.43	1548.75
619.78	1540.42
620.12	1531.51
620.47	1523.02
620.82	1513.93
621.16	1505.00
621.51	1496.40
621.85	1487.98
622.20	1479.20
622.55	1469.90
622.89	1461.49
623.24	1452.83
623.59	1443.53
623.93	1434.62
624.28	1426.52
624.62	1417.77
624.97	1409.12
625.32	1401.10
625.66	1393.20
626.01	1385.50
626.35	1378.20
626.70	1370.24
627.04	1362.09
627.39	1354.07
627.73	1346.41
628.08	1338.81
628.43	1331.38
628.77	1323.72
629.12	1315.76
629.46	1308.53
629.81	1301.30
630.15	1293.56
630.50	1285.90
630.84	1278.07
631.19	1270.28
631.53	1262.64
631.88	1254.17
632.22	1246.01
632.57	1238.36
632.91	1230.44
633.26	1222.45
633.60	1214.25
633.95	1206.61
634.29	1199.26
634.64	1192.62
634.98	1184.76
635.32	1177.61
635.67	1170.51
636.01	1163.20
636.36	1156.03
636.70	1149.25
637.05	1142.44
637.39	1135.80
637.73	1129.03
638.08	1123.24
638.42	1117.09
638.77	1110.31
639.11	1104.05
639.45	1097.79
639.80	1090.92
640.14	1084.21
640.49	1077.63
640.83	1071.08
641.17	1064.56
641.52	1057.69
641.86	1050.37
642.20	1044.07
642.55	1037.01
642.89	1029.98
643.23	1023.02
643.58	1016.65
643.92	1009.57
644.26	1002.57
644.61	995.71
644.95	989.11
645.29	982.13
645.64	974.82
645.98	967.96
646.32	961.50
646.66	955.02
647.01	948.78
647.35	942.49
647.69	935.84
648.04	929.51
648.38	922.87
648.72	916.42
649.06	909.86
649.41	903.15
649.75	896.82
650.09	890.45
650.43	884.38
650.78	877.97
651.12	871.44
651.46	865.36
651.80	859.16
652.14	852.73
652.49	846.27
652.83	840.39
653.17	834.16
653.51	828.00
653.85	821.97
654.20	815.71
654.54	809.49
654.88	803.56
655.22	797.04
655.56	790.68
655.90	784.47
656.25	778.52
656.59	772.61
656.93	767.15
657.27	761.79
657.61	755.93
657.95	750.35
658.29	744.98
658.64	739.61
658.98	733.99
659.32	728.41
659.66	723.16
660.00	717.61
660.34	712.13
660.68	706.61
661.02	701.03
661.36	695.91
661.70	690.89
662.05	685.90
662.39	681.61
662.73	677.08
663.07	672.48
663.41	667.68
663.75	662.91
664.09	657.90
664.43	652.74
664.77	647.95
665.11	643.11
665.45	638.45
665.79	633.65
666.13	629.12
666.47	624.72
666.81	620.20
667.15	615.75
667.49	611.66
667.83	607.58
668.17	603.56
668.51	599.35
668.85	595.27
669.19	591.28
669.53	586.82
669.87	582.59
670.21	578.45
670.55	574.41
670.89	570.70
671.23	566.95
671.57	563.28
671.91	559.53
672.25	555.77
672.58	551.97
672.92	548.23
673.26	544.69
673.60	541.18
673.94	537.56
674.28	534.06
674.62	530.62
674.96	527.29
675.30	524.05
675.64	520.80
675.97	517.33
676.31	513.98
676.65	510.95
676.99	508.00
677.33	504.75
677.67	501.72
678.01	498.38
678.34	495.12
678.68	492.04
679.02	488.84
679.36	485.85
679.70	482.95
680.04	479.95
680.37	476.82
680.71	473.85
681.05	470.97
681.39	468.11
681.73	465.14
682.06	462.34
682.40	459.35
682.74	456.42
683.08	453.73
683.42	451.00
683.75	448.14
684.09	445.36
684.43	442.92
684.77	439.99
685.10	437.35
685.44	434.71
685.78	432.06
686.12	429.75
686.45	427.25
686.79	424.76
687.13	422.55
687.46	420.30
687.80	417.83
688.14	415.34
688.48	413.04
688.81	410.54
689.15	408.22
689.49	405.98
689.82	403.66
690.16	401.14
690.50	398.72
690.83	396.34
691.17	393.91
691.51	391.56
691.84	389.46
692.18	387.23
692.52	385.13
692.85	383.10
693.19	380.98
693.52	378.92
693.86	376.79
694.20	374.63
694.53	372.54
694.87	370.55
695.21	368.59
695.54	366.52
695.88	364.60
696.21	362.56
696.55	360.66
696.88	358.78
697.22	356.97
697.56	355.30
697.89	353.60
698.23	351.96
698.56	350.10
698.90	348.46
699.23	346.76
699.57	345.06
699.90	343.32
700.24	341.43
700.58	339.69
700.91	338.06
701.25	336.65
701.58	335.05
701.92	333.43
702.25	331.92
702.59	330.36
702.92	328.89
703.26	327.45
703.59	326.04
703.93	324.83
704.26	323.45
704.60	322.07
704.93	320.77
705.26	319.35
705.60	318.15
705.93	316.85
706.27	315.61
706.60	314.47
706.94	313.32
707.27	312.26
707.61	311.06
707.94	309.77
708.27	308.36
708.61	307.23
708.94	306.02
709.28	304.92
709.61	303.85
709.94	302.76
710.28	301.51
710.61	300.41
710.95	299.08
711.28	298.11
711.61	296.97
711.95	295.81
712.28	294.74
712.61	293.68
712.95	292.72
713.28	291.75
713.61	290.65
713.95	289.57
714.28	288.57
714.61	287.57
714.95	286.75
715.28	285.83
715.61	284.75
715.95	283.85
716.28	282.75
716.61	281.78
716.95	280.80
717.28	279.94
717.61	279.10
717.94	278.29
718.28	277.39
718.61	276.54
718.94	275.79
719.27	275.04
719.61	274.25
719.94	273.39
720.27	272.54
720.60	271.74
720.94	270.95
721.27	270.24
721.60	269.59
721.93	268.88
722.27	268.31
722.60	267.77
722.93	267.06
723.26	266.59
723.59	265.99
723.93	265.39
724.26	264.92
724.59	264.19
724.92	263.62
725.25	263.09
725.59	262.56
725.92	261.95
726.25	261.32
726.58	260.75
726.91	260.21
727.24	259.73
727.57	259.21
727.91	258.65
728.24	258.13
728.57	257.62
728.90	257.06
729.23	256.40
729.56	255.95
729.89	255.50
730.22	254.94
730.55	254.45
730.89	253.95
731.22	253.30
731.55	252.80
731.88	252.31
732.21	251.80
732.54	251.30
732.87	250.81
733.20	250.50
733.53	249.97
733.86	249.45
734.19	248.92
734.52	248.49
734.85	248.27
735.18	247.82
735.51	247.40
735.84	247.03
736.17	246.72
736.50	246.21
736.83	246.04
737.16	245.58
737.49	245.17
737.82	244.82
738.15	244.51
738.48	244.15
738.81	243.73
739.14	243.35
739.47	243.00
739.80	242.69
740.13	242.17
740.46	241.88
740.79	241.53
741.12	241.09
741.45	240.75
741.78	240.34
742.11	240.02
742.44	239.68
742.77	239.41
743.10	239.02
743.43	238.76
743.75	238.19
744.08	238.14
744.41	237.81
744.74	237.43
745.07	237.09
745.40	236.91
745.73	236.71
746.06	236.42
746.39	236.13
746.71	235.80
747.04	235.52
747.37	235.26
747.70	234.98
748.03	234.76
748.36	234.50
748.68	234.24
749.01	233.90
749.34	233.60
749.67	233.26
750.00	233.00
750.33	232.78
750.65	232.57
750.98	232.08
751.31	231.72
751.64	231.46
751.97	231.38
752.29	231.03
752.62	230.66
752.95	230.35
753.28	230.06
753.60	229.81
753.93	229.65
754.26	229.42
754.59	229.27
754.91	229.09
755.24	228.89
755.57	228.62
755.90	228.44
756.22	228.22
756.55	228.00
756.88	227.72
757.20	227.41
757.53	227.11
757.86	226.96
758.19	226.88
758.51	226.72
758.84	226.37
759.17	226.16
759.49	225.97
759.82	225.88
760.15	225.79
760.47	225.63
760.80	225.34
761.13	225.10
761.45	224.80
761.78	224.66
762.11	224.45
762.43	224.25
762.76	224.09
763.08	223.95
763.41	223.78
763.74	223.70
764.06	223.54
764.39	223.46
764.71	223.27
765.04	223.08
765.37	222.96
765.69	222.82
766.02	222.75
766.34	222.65
766.67	222.46
767.00	222.27
767.32	222.25
767.65	222.26
767.97	222.18
768.30	222.19
768.62	222.01
768.95	221.95
769.27	221.80
769.60	221.65
769.92	221.52
770.25	221.37
770.57	221.25
770.90	221.10
771.22	220.91
771.55	220.80
771.87	220.70
772.20	220.50
772.52	220.55
772.85	220.59
773.17	220.45
773.50	220.31
773.82	220.21
774.15	219.93
774.47	219.75
774.80	219.62
775.12	219.50
775.45	219.40
775.77	219.33
776.09	219.21
776.42	219.16
776.74	219.15
777.07	219.09
777.39	219.08
777.72	218.96
778.04	218.94
778.36	218.82
778.69	218.71
779.01	218.74
779.33	218.52
779.66	218.30
779.98	218.24
780.31	218.22
780.63	218.21
780.95	218.21
781.28	218.05
781.60	217.93
781.92	217.83
782.25	217.75
782.57	217.66
782.89	217.56
783.22	217.45
783.54	217.32
783.86	217.25
784.19	217.08
784.51	217.07
784.83	216.99
785.16	217.00
785.48	216.94
785.80	216.91
786.12	216.88
786.45	216.76
786.77	216.75
787.09	216.66
787.42	216.59
787.74	216.66
788.06	216.65
788.38	216.63
788.71	216.54
789.03	216.51
789.35	216.45
789.67	216.45
789.99	216.43
790.32	216.34
790.64	216.27
790.96	216.39
791.28	216.24
791.61	216.18
791.93	216.10
792.25	216.13
792.57	216.10
792.89	216.08
793.21	216.08
793.54	216.03
793.86	215.92
794.18	215.84
794.50	215.69
794.82	215.60
795.14	215.57
795.47	215.59
795.79	215.59
796.11	215.51
796.43	215.46
796.75	215.43
797.07	215.43
797.39	215.42
797.71	215.25
798.04	215.29
798.36	215.25
798.68	215.16
799.00	215.08
799.32	215.03
799.64	214.97
799.96	214.85
800.28	214.80
800.60	214.78
800.92	214.75
801.24	214.71
801.56	214.72
801.89	214.68
802.21	214.63
802.53	214.57
802.85	214.53
803.17	214.61
803.49	214.52
803.81	214.47
804.13	214.43
804.45	214.41
804.77	214.41
805.09	214.42
805.41	214.41
805.73	214.31
806.05	214.28
806.37	214.22
806.69	214.27
807.01	214.19
807.33	214.21
807.65	214.20
807.97	214.21
808.28	214.20
808.60	214.11
808.92	214.03
809.24	214.03
809.56	214.01
809.88	213.90
810.20	213.90
810.52	213.83
810.84	213.70
811.16	213.59
811.48	213.49
811.80	213.50
812.12	213.50
812.43	213.56
812.75	213.49
813.07	213.44
813.39	213.39
813.71	213.39
814.03	213.31
814.35	213.27
814.67	213.16
814.98	213.12
815.30	213.18
815.62	213.15
815.94	213.00
816.26	213.00
816.58	212.86
816.89	212.88
817.21	212.84
817.53	212.95
817.85	212.97
818.17	212.98
818.48	212.91
818.80	212.92
819.12	212.86
819.44	212.80
819.76	212.75
820.07	212.74
820.39	212.73
820.71	212.78
821.03	212.69
821.34	212.64
821.66	212.66
821.98	212.59
822.30	212.59
822.61	212.75
822.93	212.72
823.25	212.71
823.57	212.70
823.88	212.84
824.20	212.79
824.52	212.79
824.83	212.76
825.15	212.74
825.47	212.70
825.79	212.71
826.10	212.72
826.42	212.77
826.74	212.84
827.05	212.79
827.37	212.79
827.69	212.83
828.00	212.86
828.32	212.80
828.64	212.83
828.95	212.87
829.27	212.85
829.58	212.84
829.90	212.95
830.22	212.92
830.53	212.84
830.85	212.84
831.17	212.79
831.48	212.75
831.80	212.78
832.11	212.74
832.43	212.71
832.75	212.72
833.06	212.77
833.38	212.65
833.69	212.69
834.01	212.70
834.32	212.66
834.64	212.61
834.96	212.66
835.27	212.64
835.59	212.65
835.90	212.55
836.22	212.56
836.53	212.45
836.85	212.47
837.16	212.63
837.48	212.59
837.79	212.75
838.11	212.77
838.42	212.67
838.74	212.71
839.05	212.70
839.37	212.64
839.68	212.53
840.00	212.51
840.31	212.53
840.63	212.45
840.94	212.41
841.26	212.47
841.57	212.40
841.88	212.42
842.20	212.31
842.51	212.25
842.83	212.28
843.14	212.50
843.46	212.47
843.77	212.36
844.08	212.37
844.40	212.21
844.71	212.21
845.03	212.22
845.34	212.17
845.65	212.16
845.97	212.22
846.28	212.23
846.60	212.30
846.91	212.24
847.22	212.27
847.54	212.31
847.85	212.32
848.16	212.30
848.48	212.26
848.79	212.32
849.10	212.40
849.42	212.45
849.73	212.25
850.04	212.20
850.36	212.14
850.67	212.13
850.98	212.17
851.30	212.21
851.61	212.23
851.92	212.28
852.23	212.32
852.55	212.30
852.86	212.30
853.17	212.34
853.49	212.36
853.80	212.35
854.11	212.39
854.42	212.37
854.74	212.42
855.05	212.47
855.36	212.43
855.67	212.42
855.99	212.35
856.30	212.52
856.61	212.58
856.92	212.53
857.23	212.53
857.55	212.49
857.86	212.46
858.17	212.45
858.48	212.40
858.79	212.39
859.11	212.39
859.42	212.39
859.73	212.31
860.04	212.33
860.35	212.26
860.66	212.18
860.98	212.16
861.29	212.18
861.60	212.12
861.91	212.13
862.22	212.14
862.53	212.04
862.84	211.83
863.16	211.86
863.47	211.88
863.78	211.90
864.09	211.89
864.40	211.89
864.71	211.91
865.02	212.02
865.33	211.95
865.64	211.95
865.95	211.89
866.27	211.92
866.58	211.85
866.89	211.90
867.20	211.93
867.51	211.92
867.82	211.89
868.13	211.90
868.44	211.85
868.75	211.82
869.06	211.83
869.37	211.89
869.68	211.78
869.99	211.74
870.30	211.72
870.61	211.73
870.92	211.63
871.23	211.64
871.54	211.58
871.85	211.63
872.16	211.63
872.47	211.61
872.78	211.58
873.09	211.57
873.40	211.56
873.71	211.56
874.02	211.56
874.33	211.52
874.64	211.49
874.95	211.50
875.26	211.45
875.56	211.42
875.87	211.33
876.18	211.32
876.49	211.60
876.80	211.61
877.11	211.61
877.42	211.55
877.73	211.52
878.04	211.45
878.35	211.37
878.66	211.31
878.96	211.35
879.27	211.27
879.58	211.29
879.89	211.20
880.20	211.22
880.51	211.19
880.82	211.16
881.12	211.23
881.43	211.21
881.74	211.22
882.05	211.21
882.36	211.29
882.67	211.31
882.97	211.05
883.28	210.94
883.59	210.92
883.90	211.00
884.21	211.05
884.51	211.08
884.82	211.09
885.13	211.14
885.44	211.05
885.74	211.10
886.05	211.03
886.36	211.15
886.67	211.06
886.98	211.21
887.28	211.27
887.59	211.26
887.90	211.23
888.20	211.22
888.51	211.32
888.82	211.30
889.13	211.23
889.43	211.36
889.74	211.33
890.05	211.31
890.35	211.21
890.66	211.15
890.97	211.14
891.28	211.14
891.58	211.15
891.89	211.15
892.20	211.09
892.50	211.12
892.81	211.07
893.12	211.11
893.42	210.94
893.73	210.91
894.04	210.86
894.34	210.90
894.65	210.85
894.95	210.81
895.26	210.82
895.57	210.91
895.87	210.79
896.18	210.99
896.48	211.02
896.79	211.10
897.10	211.07
897.40	211.05
897.71	211.10
898.01	211.07
898.32	211.12
898.63	211.20
898.93	211.17
899.24	211.23
899.54	211.20
899.85	211.20
900.15	211.20
900.46	211.12
900.76	211.14
901.07	211.14
901.38	211.11
901.68	211.15
901.99	211.08
902.29	211.08
902.60	210.98
902.90	210.96
903.21	211.01
903.51	211.09
903.82	211.09
904.12	211.02
904.43	211.03
904.73	211.01
905.03	210.98
905.34	211.14
905.64	211.11
905.95	211.12
906.25	211.13
906.56	211.16
906.86	211.21
907.17	211.19
907.47	211.17
907.77	211.20
908.08	211.13
908.38	211.17
908.69	211.09
908.99	211.17
909.30	211.21
909.60	211.20
909.90	211.17
910.21	211.14
910.51	211.15
910.81	211.13
911.12	211.15
911.42	211.15
911.73	211.00
912.03	210.97
912.33	211.02
912.64	210.98
912.94	210.96
913.24	210.93
913.55	210.88
913.85	210.95
914.15	210.93
914.46	210.96
914.76	210.95
915.06	211.01
915.37	210.86
915.67	210.87
915.97	210.87
916.27	210.79
916.58	210.83
916.88	210.85
917.18	210.79
917.49	210.97
917.79	210.94
918.09	210.98
918.39	210.96
918.70	210.88
919.00	210.95
919.30	211.01
919.60	210.99
919.91	211.04
920.21	211.11
920.51	211.09
920.81	211.04
921.12	211.08
921.42	211.11
921.72	211.15
922.02	211.11
922.32	211.16
922.63	211.20
922.93	211.27
923.23	211.28
923.53	211.30
923.83	211.11
924.13	211.19
924.44	211.18
924.74	211.30
925.04	211.40
925.34	211.36
925.64	211.31
925.94	211.30
926.24	211.46
926.55	211.42
926.85	211.48
927.15	211.49
927.45	211.46
927.75	211.40
928.05	211.38
928.35	211.32
928.65	211.35
928.95	211.33
929.26	211.29
929.56	211.32
929.86	211.35
930.16	211.33
930.46	211.32
930.76	211.31
931.06	211.14
931.36	211.00
931.66	210.98
931.96	211.00
932.26	210.99
932.56	210.81
932.86	210.75
933.16	210.76
933.46	210.72
933.76	210.73
934.06	210.81
934.36	210.93
934.66	210.95
934.96	210.81
935.26	210.86
935.56	210.82
935.86	210.73
936.16	210.71
936.46	210.69
936.76	210.59
937.06	210.55
937.36	210.57
937.66	210.69
937.96	210.68
938.26	210.63
938.56	210.68
938.86	210.69
939.16	210.76
939.46	210.73
939.76	210.80
940.06	210.73
940.35	210.60
940.65	210.45
940.95	210.46
941.25	210.47
941.55	210.48
941.85	210.50
942.15	210.60
942.45	210.59
942.75	210.64
943.04	210.68
943.34	210.75
943.64	210.76
943.94	210.67
944.24	210.72
944.54	210.70
944.84	210.72
945.13	210.75
945.43	210.70
945.73	210.70
946.03	210.67
946.33	210.68
946.62	210.70
946.92	210.74
947.22	210.77
947.52	210.80
947.82	210.79
948.11	210.75
948.41	210.68
948.71	210.74
949.01	210.72
949.31	210.68
949.60	210.63
949.90	210.63
950.20	210.65
950.50	210.64
950.79	210.64
951.09	210.69
951.39	210.71
951.69	210.67
951.98	210.80
952.28	210.75
952.58	210.82
952.87	210.88
953.17	210.87
953.47	210.85
953.76	210.88
954.06	210.83
954.36	210.82
954.66	210.84
954.95	210.84
955.25	210.79
955.55	210.87
955.84	210.85
956.14	210.87
956.44	210.93
956.73	210.89
957.03	210.95
957.32	210.94
957.62	210.91
957.92	211.00
958.21	210.86
958.51	211.09
958.81	211.05
959.10	211.05
959.40	211.12
959.69	211.09
959.99	211.12
960.29	211.10
960.58	211.12
960.88	211.21
961.17	211.20
961.47	211.33
961.76	211.32
962.06	211.43
962.36	211.43
962.65	211.39
962.95	211.42
963.24	211.31
963.54	211.28
963.83	211.25
964.13	211.24
964.42	211.22
964.72	211.07
965.01	211.02
965.31	211.02
965.60	210.95
965.90	211.07
966.19	210.99
966.49	211.05
966.78	210.97
967.08	210.90
967.37	210.85
967.67	210.82
967.96	210.89
968.26	210.90
968.55	210.97
968.85	210.97
969.14	210.96
969.43	210.98
969.73	210.97
970.02	210.94
970.32	210.93
970.61	210.91
970.91	210.86
971.20	210.91
971.49	210.89
971.79	210.95
972.08	210.86
972.38	210.90
972.67	210.91
972.96	211.04
973.26	211.01
973.55	211.08
973.85	210.99
974.14	210.93
974.43	210.95
974.73	210.91
975.02	210.90
975.31	210.89
975.61	210.96
975.90	210.97
976.19	211.01
976.49	210.99
976.78	211.11
977.07	211.17
977.37	211.18
977.66	211.24
977.95	211.23
978.24	211.29
978.54	211.29
978.83	211.24
979.12	211.19
979.42	211.14
979.71	211.14
980.00	211.15
980.29	211.16
980.59	211.07
980.88	211.04
981.17	211.06
981.46	211.05
981.76	210.97
982.05	210.98
982.34	211.05
982.63	211.09
982.93	211.02
983.22	211.02
983.51	211.04
983.80	211.02
984.09	211.03
984.39	211.00
984.68	211.03
984.97	211.08
985.26	211.10
985.55	211.22
985.85	211.19
986.14	211.22
986.43	211.20
986.72	211.19
987.01	211.15
987.30	211.13
987.59	211.11
987.89	211.25
988.18	211.20
988.47	211.19
988.76	211.17
989.05	211.16
989.34	211.13
989.63	211.20
989.92	211.15
990.22	211.10
990.51	211.11
990.80	211.07
991.09	211.09
991.38	211.13
991.67	211.12
991.96	211.14
992.25	211.11
992.54	211.08
992.83	211.05
993.12	211.11
993.41	211.15
993.70	211.32
993.99	211.30
994.28	211.31
994.58	211.27
994.87	211.25
995.16	211.28
995.45	211.26
995.74	211.22
996.03	211.34
996.32	211.39
996.61	211.39
996.90	211.37
997.19	211.34
997.48	211.24
997.77	211.18
998.06	211.24
998.34	211.27
998.63	211.36
998.92	211.46
999.21	211.47
999.50	211.44
999.79	211.34
1000.08	211.33
1000.37	211.39
1000.66	211.38
1000.95	211.43
1001.24	211.39
1001.53	211.47
1001.82	211.38
1002.11	211.28
1002.40	211.30
1002.68	211.35
1002.97	211.49
1003.26	211.46
1003.55	211.52
1003.84	211.56
1004.13	211.60
1004.42	211.59
1004.71	211.51
1004.99	211.45
1005.28	211.51
1005.57	211.48
1005.86	211.42
1006.15	211.41
1006.44	211.39
1006.72	211.44
1007.01	211.41
1007.30	211.44
1007.59	211.36
1007.88	211.37
1008.17	211.35
1008.45	211.28
1008.74	211.14
1009.03	211.03
1009.32	211.07
1009.60	211.02
1009.89	211.00
1010.18	210.91
1010.47	210.87
1010.76	210.85
1011.04	210.85
1011.33	210.86
1011.62	210.94
1011.91	211.00
1012.19	210.99
1012.48	210.89
1012.77	210.88
1013.05	210.91
1013.34	210.89
1013.63	210.87
1013.92	210.85
1014.20	210.88
1014.49	210.90
1014.78	210.95
1015.06	210.92
1015.35	210.86
1015.64	210.89
1015.92	210.85
1016.21	210.79
1016.50	210.85
1016.78	210.87
1017.07	210.84
1017.36	210.68
1017.64	210.62
1017.93	210.57
1018.22	210.48
1018.50	210.50
1018.79	210.45
1019.08	210.34
1019.36	210.27
1019.65	210.25
1019.93	210.27
1020.22	210.27
1020.51	210.41
1020.79	210.36
1021.08	209.25
1021.36	209.70
1021.65	210.30
1021.94	209.65
1022.22	209.50
1022.51	210.10
1022.79	210.35
1023.08	210.85
1023.36	213.65
1023.65	209.85
>>>>>End Processed Spectral Data<<<<<
