SpectraSuite Data File
++++++++++++++++++++++++++++++++++++
Date: Mon Feb 25 17:36:24 EST 2013
User: group
Dark Spectrum Present: No
Reference Spectrum Present: No
Number of Sampled Component Spectra: 1
Spectrometers: USB2E7196
Integration Time (usec): 52000 (USB2E7196)
Spectra Averaged: 20 (USB2E7196)
Boxcar Smoothing: 10 (USB2E7196)
Correct for Electrical Dark: No (USB2E7196)
Strobe/Lamp Enabled: No (USB2E7196)
Correct for Detector Non-linearity: No (USB2E7196)
Correct for Stray Light: No (USB2E7196)
Number of Pixels in Processed Spectrum: 2048
>>>>>Begin Processed Spectral Data<<<<<
339.09	0.00
339.48	200.10
339.86	201.00
340.24	202.20
340.63	203.95
341.01	207.65
341.39	205.35
341.78	207.20
342.16	208.85
342.54	208.85
342.93	198.22
343.31	208.23
343.69	208.68
344.07	209.08
344.46	209.52
344.84	209.91
345.22	210.21
345.60	210.56
345.99	210.85
346.37	211.05
346.75	211.20
347.13	211.40
347.52	211.54
347.90	211.66
348.28	211.84
348.66	211.96
349.05	212.01
349.43	212.12
349.81	212.23
350.19	212.43
350.57	212.60
350.96	212.79
351.34	212.97
351.72	213.19
352.10	213.40
352.48	213.56
352.87	213.70
353.25	213.76
353.63	213.80
354.01	213.86
354.39	213.99
354.77	214.12
355.15	214.21
355.54	214.27
355.92	214.28
356.30	214.41
356.68	214.63
357.06	214.71
357.44	214.80
357.82	214.81
358.20	214.81
358.58	214.90
358.97	214.95
359.35	215.08
359.73	215.12
360.11	215.16
360.49	215.18
360.87	215.23
361.25	215.29
361.63	215.43
362.01	215.52
362.39	215.53
362.77	215.56
363.15	215.55
363.53	215.62
363.91	215.78
364.29	215.76
364.67	215.66
365.05	215.70
365.43	215.77
365.81	215.88
366.19	216.06
366.57	216.10
366.95	216.15
367.33	216.09
367.71	216.11
368.09	216.20
368.47	216.25
368.85	216.20
369.23	216.15
369.61	216.13
369.99	216.07
370.37	216.10
370.75	216.16
371.13	216.24
371.51	216.15
371.89	216.11
372.27	216.09
372.65	216.05
373.03	216.04
373.41	216.02
373.78	215.95
374.16	215.84
374.54	215.81
374.92	215.73
375.30	215.69
375.68	215.68
376.06	215.72
376.44	215.63
376.82	215.69
377.19	215.70
377.57	215.68
377.95	215.65
378.33	215.60
378.71	215.52
379.09	215.50
379.47	215.57
379.84	215.50
380.22	215.53
380.60	215.46
380.98	215.43
381.36	215.42
381.73	215.38
382.11	215.35
382.49	215.30
382.87	215.30
383.25	215.39
383.62	215.55
384.00	215.37
384.38	215.38
384.76	215.32
385.13	215.38
385.51	215.36
385.89	215.36
386.27	215.40
386.64	215.41
387.02	215.32
387.40	215.28
387.78	215.30
388.15	215.29
388.53	215.31
388.91	215.24
389.29	215.24
389.66	215.36
390.04	215.33
390.42	215.36
390.79	215.34
391.17	215.30
391.55	215.10
391.92	215.18
392.30	215.28
392.68	215.26
393.05	215.33
393.43	215.33
393.81	215.36
394.18	215.35
394.56	215.44
394.94	215.58
395.31	215.66
395.69	215.80
396.06	215.85
396.44	215.99
396.82	216.12
397.19	216.30
397.57	216.23
397.95	216.38
398.32	216.50
398.70	216.70
399.07	216.92
399.45	217.07
399.82	217.26
400.20	217.38
400.58	217.62
400.95	217.75
401.33	218.09
401.70	218.49
402.08	218.89
402.45	219.22
402.83	219.56
403.20	219.95
403.58	220.30
403.95	220.89
404.33	221.38
404.71	221.95
405.08	222.65
405.46	223.39
405.83	224.12
406.21	224.90
406.58	225.76
406.96	226.58
407.33	227.63
407.70	228.78
408.08	230.10
408.45	231.44
408.83	232.91
409.20	234.37
409.58	235.84
409.95	237.51
410.33	239.37
410.70	241.35
411.08	243.47
411.45	245.80
411.82	248.20
412.20	250.81
412.57	253.80
412.95	256.59
413.32	259.75
413.69	263.27
414.07	266.93
414.44	270.89
414.82	275.04
415.19	279.69
415.56	284.45
415.94	289.67
416.31	295.27
416.68	300.90
417.06	307.19
417.43	313.23
417.81	320.28
418.18	327.50
418.55	335.29
418.93	343.67
419.30	352.27
419.67	361.31
420.04	370.88
420.42	380.94
420.79	391.96
421.16	403.54
421.54	415.05
421.91	427.40
422.28	440.40
422.66	454.07
423.03	467.40
423.40	481.69
423.77	496.95
424.15	512.49
424.52	528.74
424.89	546.48
425.26	563.79
425.64	580.43
426.01	598.78
426.38	617.87
426.75	637.11
427.13	657.30
427.50	678.72
427.87	701.17
428.24	723.71
428.61	745.81
428.99	769.26
429.36	795.53
429.73	820.63
430.10	845.83
430.47	871.94
430.85	899.42
431.22	928.00
431.59	957.83
431.96	987.10
432.33	1019.65
432.70	1051.21
433.08	1088.52
433.45	1123.53
433.82	1158.50
434.19	1197.28
434.56	1235.30
434.93	1272.42
435.30	1309.56
435.68	1350.31
436.05	1390.86
436.42	1431.37
436.79	1468.80
437.16	1508.89
437.53	1552.19
437.90	1594.60
438.27	1636.45
438.64	1679.98
439.01	1720.42
439.38	1757.95
439.75	1793.50
440.13	1833.58
440.50	1871.83
440.87	1903.29
441.24	1936.72
441.61	1973.09
441.98	2001.23
442.35	2033.55
442.72	2065.71
443.09	2096.64
443.46	2117.55
443.83	2132.94
444.20	2146.89
444.57	2165.48
444.94	2176.05
445.31	2186.52
445.68	2195.79
446.05	2202.69
446.42	2202.65
446.79	2201.51
447.16	2199.43
447.53	2199.24
447.90	2187.80
448.27	2176.66
448.64	2159.08
449.01	2146.64
449.37	2122.38
449.74	2098.75
450.11	2069.30
450.48	2038.57
450.85	2006.80
451.22	1979.10
451.59	1952.14
451.96	1926.40
452.33	1891.18
452.70	1859.95
453.07	1822.20
453.43	1784.52
453.80	1746.78
454.17	1710.87
454.54	1677.36
454.91	1640.90
455.28	1605.17
455.65	1572.01
456.02	1536.45
456.38	1507.76
456.75	1471.51
457.12	1441.68
457.49	1412.19
457.86	1384.34
458.23	1358.68
458.59	1330.89
458.96	1303.05
459.33	1278.67
459.70	1254.15
460.07	1234.61
460.43	1211.80
460.80	1189.92
461.17	1171.45
461.54	1152.14
461.91	1133.35
462.27	1114.27
462.64	1098.02
463.01	1080.05
463.38	1062.35
463.74	1046.61
464.11	1031.82
464.48	1018.99
464.85	1004.58
465.21	993.17
465.58	980.92
465.95	966.76
466.32	954.94
466.68	943.25
467.05	931.32
467.42	919.61
467.78	907.41
468.15	895.90
468.52	887.26
468.88	876.01
469.25	866.14
469.62	857.97
469.98	849.38
470.35	841.56
470.72	833.99
471.08	826.08
471.45	818.85
471.82	811.16
472.18	803.18
472.55	797.46
472.92	791.20
473.28	785.64
473.65	780.24
474.02	774.56
474.38	769.83
474.75	766.08
475.11	761.78
475.48	758.35
475.85	755.48
476.21	752.70
476.58	750.16
476.94	748.30
477.31	746.25
477.67	744.12
478.04	742.40
478.41	741.48
478.77	740.55
479.14	739.78
479.50	739.78
479.87	740.36
480.23	740.98
480.60	740.91
480.96	741.23
481.33	742.47
481.69	744.25
482.06	745.38
482.42	746.13
482.79	747.47
483.15	750.18
483.52	753.64
483.88	756.58
484.25	759.78
484.61	762.96
484.98	766.20
485.34	770.49
485.71	775.04
486.07	779.82
486.44	785.08
486.80	790.32
487.17	795.95
487.53	802.39
487.90	808.95
488.26	816.04
488.62	823.85
488.99	831.35
489.35	839.14
489.72	848.08
490.08	857.96
490.44	867.85
490.81	877.47
491.17	886.80
491.54	897.57
491.90	908.17
492.26	919.67
492.63	931.73
492.99	944.03
493.36	956.64
493.72	970.08
494.08	983.57
494.45	998.11
494.81	1013.35
495.17	1028.45
495.54	1044.36
495.90	1061.04
496.26	1077.60
496.63	1095.00
496.99	1112.83
497.35	1130.85
497.72	1149.09
498.08	1167.55
498.44	1186.34
498.80	1206.73
499.17	1226.66
499.53	1247.34
499.89	1268.43
500.26	1289.64
500.62	1310.67
500.98	1332.96
501.34	1355.32
501.71	1377.95
502.07	1400.97
502.43	1423.87
502.79	1446.80
503.16	1469.99
503.52	1493.36
503.88	1516.59
504.24	1539.57
504.60	1563.09
504.97	1587.28
505.33	1611.29
505.69	1636.32
506.05	1661.25
506.41	1685.39
506.78	1710.04
507.14	1734.45
507.50	1759.01
507.86	1783.84
508.22	1809.50
508.59	1833.98
508.95	1858.99
509.31	1884.11
509.67	1909.35
510.03	1934.55
510.39	1960.62
510.75	1985.83
511.12	2010.02
511.48	2034.51
511.84	2059.36
512.20	2083.71
512.56	2108.21
512.92	2132.82
513.28	2157.46
513.64	2181.69
514.00	2205.31
514.37	2228.61
514.73	2252.16
515.09	2274.89
515.45	2297.76
515.81	2320.01
516.17	2342.67
516.53	2364.08
516.89	2385.75
517.25	2405.66
517.61	2425.67
517.97	2444.69
518.33	2463.71
518.69	2483.60
519.05	2503.64
519.41	2523.80
519.77	2543.50
520.13	2562.33
520.49	2580.15
520.85	2597.52
521.21	2614.83
521.57	2632.95
521.93	2649.35
522.29	2667.17
522.65	2684.30
523.01	2700.80
523.37	2716.29
523.73	2731.94
524.09	2747.46
524.45	2762.09
524.81	2777.12
525.17	2791.99
525.53	2807.14
525.89	2822.29
526.25	2836.82
526.61	2849.60
526.97	2862.32
527.33	2875.15
527.68	2888.28
528.04	2901.41
528.40	2913.59
528.76	2926.01
529.12	2937.20
529.48	2949.70
529.84	2959.18
530.20	2970.48
530.56	2981.02
530.91	2992.63
531.27	3003.40
531.63	3013.90
531.99	3024.25
532.35	3034.57
532.71	3044.86
533.07	3055.99
533.42	3065.51
533.78	3075.87
534.14	3085.63
534.50	3094.53
534.86	3103.92
535.21	3110.67
535.57	3119.39
535.93	3127.42
536.29	3134.57
536.65	3143.35
537.00	3150.55
537.36	3158.83
537.72	3165.46
538.08	3173.09
538.44	3179.60
538.79	3186.00
539.15	3192.70
539.51	3199.80
539.87	3207.15
540.22	3213.38
540.58	3218.95
540.94	3225.02
541.29	3229.61
541.65	3233.05
542.01	3237.38
542.37	3240.57
542.72	3246.28
543.08	3249.71
543.44	3253.97
543.79	3257.24
544.15	3259.39
544.51	3262.99
544.87	3266.60
545.22	3268.50
545.58	3269.75
545.94	3271.35
546.29	3272.57
546.65	3273.55
547.01	3274.21
547.36	3274.81
547.72	3275.45
548.07	3274.95
548.43	3274.67
548.79	3273.91
549.14	3275.40
549.50	3276.46
549.86	3277.60
550.21	3276.23
550.57	3275.72
550.92	3274.50
551.28	3273.23
551.64	3272.59
551.99	3271.89
552.35	3270.98
552.70	3270.94
553.06	3270.66
553.41	3269.68
553.77	3269.66
554.13	3268.60
554.48	3268.70
554.84	3268.09
555.19	3266.35
555.55	3265.99
555.90	3265.34
556.26	3264.70
556.61	3263.04
556.97	3259.96
557.32	3256.56
557.68	3254.55
558.03	3251.73
558.39	3249.37
558.74	3249.72
559.10	3248.74
559.45	3247.28
559.81	3245.65
560.16	3243.97
560.52	3242.76
560.87	3241.26
561.23	3237.31
561.58	3234.26
561.94	3229.58
562.29	3224.97
562.64	3221.37
563.00	3217.30
563.35	3212.67
563.71	3209.05
564.06	3206.04
564.42	3203.44
564.77	3200.96
565.12	3197.87
565.48	3194.84
565.83	3191.95
566.19	3187.78
566.54	3183.57
566.89	3178.15
567.25	3172.43
567.60	3168.35
567.96	3162.59
568.31	3157.30
568.66	3153.68
569.02	3150.00
569.37	3146.65
569.72	3142.93
570.08	3138.90
570.43	3132.70
570.78	3128.04
571.14	3123.21
571.49	3117.77
571.84	3112.73
572.20	3106.53
572.55	3101.42
572.90	3095.63
573.26	3089.26
573.61	3081.37
573.96	3073.93
574.31	3066.47
574.67	3059.92
575.02	3051.82
575.37	3044.09
575.72	3036.52
576.08	3028.80
576.43	3019.84
576.78	3011.08
577.13	3003.00
577.49	2995.28
577.84	2988.82
578.19	2980.86
578.54	2972.51
578.90	2964.47
579.25	2955.43
579.60	2945.97
579.95	2936.68
580.30	2928.21
580.66	2919.45
581.01	2911.07
581.36	2901.11
581.71	2892.80
582.06	2884.09
582.42	2876.17
582.77	2866.77
583.12	2857.38
583.47	2847.70
583.82	2838.73
584.17	2828.65
584.53	2819.14
584.88	2809.01
585.23	2798.46
585.58	2789.04
585.93	2778.59
586.28	2769.38
586.63	2759.85
586.98	2751.35
587.34	2742.20
587.69	2732.02
588.04	2722.80
588.39	2713.38
588.74	2703.03
589.09	2693.60
589.44	2682.49
589.79	2671.09
590.14	2661.87
590.49	2650.79
590.84	2641.14
591.19	2631.99
591.54	2622.37
591.89	2611.12
592.25	2600.78
592.60	2589.42
592.95	2578.07
593.30	2567.45
593.65	2556.29
594.00	2545.87
594.35	2536.15
594.70	2524.93
595.05	2514.65
595.40	2502.47
595.75	2490.92
596.10	2481.30
596.45	2470.14
596.80	2460.38
597.15	2450.18
597.50	2439.26
597.85	2430.03
598.19	2418.10
598.54	2406.16
598.89	2394.99
599.24	2384.79
599.59	2374.04
599.94	2364.88
600.29	2355.23
600.64	2345.15
600.99	2333.19
601.34	2322.78
601.69	2310.95
602.04	2299.80
602.39	2289.35
602.74	2280.42
603.08	2271.95
603.43	2263.36
603.78	2253.45
604.13	2243.14
604.48	2232.49
604.83	2223.10
605.18	2213.24
605.53	2203.98
605.87	2194.48
606.22	2185.32
606.57	2175.40
606.92	2164.57
607.27	2153.72
607.62	2143.24
607.96	2133.13
608.31	2124.67
608.66	2113.84
609.01	2103.34
609.36	2093.42
609.70	2082.42
610.05	2070.74
610.40	2058.59
610.75	2046.20
611.10	2035.16
611.44	2023.29
611.79	2012.64
612.14	2001.01
612.49	1988.73
612.83	1976.94
613.18	1964.65
613.53	1952.75
613.88	1940.31
614.22	1929.18
614.57	1917.30
614.92	1905.08
615.27	1893.38
615.61	1880.97
615.96	1869.60
616.31	1858.82
616.65	1848.09
617.00	1837.52
617.35	1826.73
617.70	1814.98
618.04	1803.57
618.39	1792.00
618.74	1781.40
619.08	1769.45
619.43	1758.02
619.78	1747.53
620.12	1737.38
620.47	1727.71
620.82	1717.04
621.16	1707.01
621.51	1696.65
621.85	1686.27
622.20	1675.56
622.55	1664.25
622.89	1653.87
623.24	1643.61
623.59	1632.75
623.93	1622.00
624.28	1611.09
624.62	1600.35
624.97	1590.48
625.32	1580.64
625.66	1571.14
626.01	1561.38
626.35	1552.82
626.70	1543.48
627.04	1533.58
627.39	1523.53
627.73	1513.77
628.08	1504.62
628.43	1495.48
628.77	1486.72
629.12	1477.35
629.46	1468.39
629.81	1459.17
630.15	1449.50
630.50	1439.87
630.84	1430.80
631.19	1420.84
631.53	1411.72
631.88	1402.81
632.22	1394.17
632.57	1385.86
632.91	1376.97
633.26	1368.18
633.60	1358.87
633.95	1350.05
634.29	1341.63
634.64	1333.59
634.98	1324.44
635.32	1316.01
635.67	1307.88
636.01	1299.06
636.36	1290.84
636.70	1282.63
637.05	1274.85
637.39	1266.87
637.73	1258.79
638.08	1251.39
638.42	1244.47
638.77	1236.91
639.11	1229.34
639.45	1221.44
639.80	1213.10
640.14	1205.34
640.49	1197.41
640.83	1189.33
641.17	1181.62
641.52	1174.12
641.86	1165.99
642.20	1158.29
642.55	1149.60
642.89	1140.92
643.23	1132.75
643.58	1125.24
643.92	1117.11
644.26	1109.02
644.61	1101.19
644.95	1093.23
645.29	1085.08
645.64	1076.81
645.98	1069.17
646.32	1061.68
646.66	1054.37
647.01	1046.97
647.35	1039.31
647.69	1031.39
648.04	1024.21
648.38	1016.39
648.72	1008.51
649.06	1001.16
649.41	993.90
649.75	986.47
650.09	979.71
650.43	973.16
650.78	965.98
651.12	959.24
651.46	952.75
651.80	946.29
652.14	940.05
652.49	933.19
652.83	926.43
653.17	919.15
653.51	912.09
653.85	905.70
654.20	899.29
654.54	892.94
654.88	886.62
655.22	879.86
655.56	873.21
655.90	866.41
656.25	859.26
656.59	852.74
656.93	846.83
657.27	840.36
657.61	833.68
657.95	827.67
658.29	821.65
658.64	815.76
658.98	809.59
659.32	803.29
659.66	797.59
660.00	791.87
660.34	786.55
660.68	781.01
661.02	774.64
661.36	768.80
661.70	763.07
662.05	757.90
662.39	752.73
662.73	747.89
663.07	743.25
663.41	739.03
663.75	734.37
664.09	729.38
664.43	724.35
664.77	719.36
665.11	714.22
665.45	709.51
665.79	704.60
666.13	700.20
666.47	695.91
666.81	691.36
667.15	686.86
667.49	682.51
667.83	678.00
668.17	674.02
668.51	669.76
668.85	665.39
669.19	661.19
669.53	656.91
669.87	652.36
670.21	648.04
670.55	643.31
670.89	639.08
671.23	635.10
671.57	631.01
671.91	626.96
672.25	623.09
672.58	618.95
672.92	614.78
673.26	610.75
673.60	606.78
673.94	603.13
674.28	599.61
674.62	595.71
674.96	591.81
675.30	588.00
675.64	584.56
675.97	581.12
676.31	577.71
676.65	574.44
676.99	571.37
677.33	568.03
677.67	564.85
678.01	561.33
678.34	557.88
678.68	554.60
679.02	551.29
679.36	547.88
679.70	544.55
680.04	541.38
680.37	538.14
680.71	534.84
681.05	531.59
681.39	528.36
681.73	525.29
682.06	522.39
682.40	519.33
682.74	515.90
683.08	512.78
683.42	509.54
683.75	506.42
684.09	503.24
684.43	500.09
684.77	496.99
685.10	493.98
685.44	490.85
685.78	487.99
686.12	484.99
686.45	482.01
686.79	479.14
687.13	476.55
687.46	473.86
687.80	471.05
688.14	468.21
688.48	465.38
688.81	462.47
689.15	459.92
689.49	457.29
689.82	454.60
690.16	451.53
690.50	448.80
690.83	445.97
691.17	443.25
691.51	440.70
691.84	438.18
692.18	435.79
692.52	433.35
692.85	430.91
693.19	428.62
693.52	426.31
693.86	423.96
694.20	421.44
694.53	418.93
694.87	416.49
695.21	414.00
695.54	411.71
695.88	409.55
696.21	407.10
696.55	404.84
696.88	402.83
697.22	400.99
697.56	399.05
697.89	397.07
698.23	395.10
698.56	393.01
698.90	391.03
699.23	388.95
699.57	387.01
699.90	385.07
700.24	383.09
700.58	381.20
700.91	379.35
701.25	377.63
701.58	375.88
701.92	374.25
702.25	372.65
702.59	370.90
702.92	369.16
703.26	367.60
703.59	366.01
703.93	364.51
704.26	362.88
704.60	361.09
704.93	359.40
705.26	357.69
705.60	356.22
705.93	354.80
706.27	353.39
706.60	352.07
706.94	350.57
707.27	348.99
707.61	347.51
707.94	346.06
708.27	344.37
708.61	342.87
708.94	341.45
709.28	340.06
709.61	338.71
709.94	337.13
710.28	335.50
710.61	333.99
710.95	332.42
711.28	331.07
711.61	329.64
711.95	328.43
712.28	327.12
712.61	325.78
712.95	324.43
713.28	323.19
713.61	321.76
713.95	320.44
714.28	319.37
714.61	318.19
714.95	317.00
715.28	315.77
715.61	314.51
715.95	313.20
716.28	311.95
716.61	310.63
716.95	309.52
717.28	308.40
717.61	307.22
717.94	306.04
718.28	304.87
718.61	303.85
718.94	302.63
719.27	301.54
719.61	300.51
719.94	299.56
720.27	298.46
720.60	297.50
720.94	296.63
721.27	295.66
721.60	294.73
721.93	293.76
722.27	292.95
722.60	292.09
722.93	291.25
723.26	290.40
723.59	289.60
723.93	288.85
724.26	288.13
724.59	287.34
724.92	286.55
725.25	285.83
725.59	285.05
725.92	284.35
726.25	283.70
726.58	282.90
726.91	282.08
727.24	281.30
727.57	280.48
727.91	279.66
728.24	278.95
728.57	278.16
728.90	277.45
729.23	276.73
729.56	276.12
729.89	275.42
730.22	274.69
730.55	274.01
730.89	273.34
731.22	272.62
731.55	272.01
731.88	271.49
732.21	270.83
732.54	270.26
732.87	269.66
733.20	268.97
733.53	268.38
733.86	267.82
734.19	267.28
734.52	266.79
734.85	266.38
735.18	265.76
735.51	265.29
735.84	264.71
736.17	264.16
736.50	263.63
736.83	263.33
737.16	262.86
737.49	262.29
737.82	261.70
738.15	261.14
738.48	260.61
738.81	260.06
739.14	259.52
739.47	258.95
739.80	258.39
740.13	257.98
740.46	257.57
740.79	256.91
741.12	256.30
741.45	255.81
741.78	255.19
742.11	254.75
742.44	254.15
742.77	253.74
743.10	253.23
743.43	252.64
743.75	252.02
744.08	251.69
744.41	251.22
744.74	250.79
745.07	250.38
745.40	249.91
745.73	249.44
746.06	249.00
746.39	248.60
746.71	248.09
747.04	247.66
747.37	247.13
747.70	246.81
748.03	246.49
748.36	246.16
748.68	245.79
749.01	245.33
749.34	244.99
749.67	244.56
750.00	244.25
750.33	244.03
750.65	243.58
750.98	243.04
751.31	242.70
751.64	242.25
751.97	241.88
752.29	241.54
752.62	241.24
752.95	240.90
753.28	240.54
753.60	240.29
753.93	239.98
754.26	239.60
754.59	239.29
754.91	238.86
755.24	238.43
755.57	238.10
755.90	237.76
756.22	237.43
756.55	237.13
756.88	236.81
757.20	236.37
757.53	236.11
757.86	235.79
758.19	235.60
758.51	235.35
758.84	235.11
759.17	234.87
759.49	234.53
759.82	234.39
760.15	234.11
760.47	233.82
760.80	233.44
761.13	233.31
761.45	232.99
761.78	232.80
762.11	232.63
762.43	232.35
762.76	232.11
763.08	231.92
763.41	231.68
763.74	231.44
764.06	231.19
764.39	230.90
764.71	230.71
765.04	230.41
765.37	230.18
765.69	229.95
766.02	229.77
766.34	229.54
766.67	229.18
767.00	228.97
767.32	228.84
767.65	228.78
767.97	228.46
768.30	228.31
768.62	228.12
768.95	227.83
769.27	227.62
769.60	227.46
769.92	227.30
770.25	227.09
770.57	226.82
770.90	226.65
771.22	226.44
771.55	226.24
771.87	226.10
772.20	225.92
772.52	225.84
772.85	225.81
773.17	225.70
773.50	225.60
773.82	225.47
774.15	225.25
774.47	224.97
774.80	224.90
775.12	224.72
775.45	224.56
775.77	224.50
776.09	224.40
776.42	224.27
776.74	224.18
777.07	224.02
777.39	223.97
777.72	223.80
778.04	223.71
778.36	223.60
778.69	223.43
779.01	223.32
779.33	223.09
779.66	222.80
779.98	222.58
780.31	222.43
780.63	222.44
780.95	222.36
781.28	222.33
781.60	222.21
781.92	222.15
782.25	222.07
782.57	221.98
782.89	221.88
783.22	221.85
783.54	221.67
783.86	221.65
784.19	221.59
784.51	221.56
784.83	221.45
785.16	221.32
785.48	221.25
785.80	221.25
786.12	221.23
786.45	221.11
786.77	221.15
787.09	221.10
787.42	220.93
787.74	220.82
788.06	220.69
788.38	220.62
788.71	220.53
789.03	220.46
789.35	220.36
789.67	220.23
789.99	220.11
790.32	220.05
790.64	219.95
790.96	220.00
791.28	219.96
791.61	219.95
791.93	219.91
792.25	219.81
792.57	219.77
792.89	219.67
793.21	219.59
793.54	219.45
793.86	219.37
794.18	219.31
794.50	219.24
794.82	219.19
795.14	219.19
795.47	219.14
795.79	219.07
796.11	218.94
796.43	218.93
796.75	218.88
797.07	218.73
797.39	218.63
797.71	218.38
798.04	218.25
798.36	218.18
798.68	218.08
799.00	218.09
799.32	217.96
799.64	217.87
799.96	217.85
800.28	217.80
800.60	217.67
800.92	217.59
801.24	217.48
801.56	217.43
801.89	217.36
802.21	217.22
802.53	217.19
802.85	217.21
803.17	217.15
803.49	217.00
803.81	216.97
804.13	216.93
804.45	216.90
804.77	216.88
805.09	216.79
805.41	216.74
805.73	216.65
806.05	216.53
806.37	216.50
806.69	216.43
807.01	216.38
807.33	216.34
807.65	216.24
807.97	216.34
808.28	216.25
808.60	216.14
808.92	216.11
809.24	216.10
809.56	216.06
809.88	215.95
810.20	215.94
810.52	215.95
810.84	215.84
811.16	215.73
811.48	215.72
811.80	215.68
812.12	215.63
812.43	215.60
812.75	215.59
813.07	215.50
813.39	215.43
813.71	215.37
814.03	215.34
814.35	215.34
814.67	215.17
814.98	215.10
815.30	215.05
815.62	215.03
815.94	214.89
816.26	214.82
816.58	214.76
816.89	214.72
817.21	214.64
817.53	214.66
817.85	214.69
818.17	214.56
818.48	214.53
818.80	214.56
819.12	214.50
819.44	214.38
819.76	214.34
820.07	214.28
820.39	214.19
820.71	214.16
821.03	214.10
821.34	214.11
821.66	214.18
821.98	214.19
822.30	214.11
822.61	214.22
822.93	214.16
823.25	214.15
823.57	214.11
823.88	214.06
824.20	214.04
824.52	214.02
824.83	213.97
825.15	213.90
825.47	213.83
825.79	213.75
826.10	213.85
826.42	213.83
826.74	213.82
827.05	213.77
827.37	213.75
827.69	213.69
828.00	213.63
828.32	213.59
828.64	213.56
828.95	213.66
829.27	213.52
829.58	213.51
829.90	213.62
830.22	213.65
830.53	213.69
830.85	213.63
831.17	213.60
831.48	213.60
831.80	213.61
832.11	213.61
832.43	213.67
832.75	213.55
833.06	213.62
833.38	213.53
833.69	213.55
834.01	213.59
834.32	213.59
834.64	213.56
834.96	213.52
835.27	213.44
835.59	213.37
835.90	213.34
836.22	213.31
836.53	213.18
836.85	213.14
837.16	213.14
837.48	213.18
837.79	213.26
838.11	213.29
838.42	213.27
838.74	213.21
839.05	213.08
839.37	213.15
839.68	213.03
840.00	213.09
840.31	213.12
840.63	213.01
840.94	213.03
841.26	212.96
841.57	212.91
841.88	212.87
842.20	212.80
842.51	212.77
842.83	212.73
843.14	212.87
843.46	212.87
843.77	212.80
844.08	212.74
844.40	212.57
844.71	212.53
845.03	212.56
845.34	212.54
845.65	212.52
845.97	212.46
846.28	212.43
846.60	212.44
846.91	212.32
847.22	212.39
847.54	212.30
847.85	212.31
848.16	212.35
848.48	212.32
848.79	212.39
849.10	212.42
849.42	212.44
849.73	212.24
850.04	212.17
850.36	212.14
850.67	212.13
850.98	212.15
851.30	212.22
851.61	212.14
851.92	212.17
852.23	212.24
852.55	212.24
852.86	212.29
853.17	212.29
853.49	212.36
853.80	212.34
854.11	212.37
854.42	212.35
854.74	212.21
855.05	212.22
855.36	212.07
855.67	211.99
855.99	211.98
856.30	212.22
856.61	212.19
856.92	212.26
857.23	212.26
857.55	212.24
857.86	212.15
858.17	212.17
858.48	212.11
858.79	212.10
859.11	212.10
859.42	212.03
859.73	211.86
860.04	211.88
860.35	211.83
860.66	211.83
860.98	211.84
861.29	211.87
861.60	211.86
861.91	211.92
862.22	211.98
862.53	211.99
862.84	211.73
863.16	211.74
863.47	211.70
863.78	211.66
864.09	211.64
864.40	211.65
864.71	211.62
865.02	211.58
865.33	211.52
865.64	211.42
865.95	211.48
866.27	211.66
866.58	211.61
866.89	211.63
867.20	211.50
867.51	211.48
867.82	211.47
868.13	211.55
868.44	211.48
868.75	211.43
869.06	211.36
869.37	211.42
869.68	211.41
869.99	211.40
870.30	211.39
870.61	211.50
870.92	211.46
871.23	211.48
871.54	211.52
871.85	211.62
872.16	211.71
872.47	211.67
872.78	211.51
873.09	211.56
873.40	211.48
873.71	211.60
874.02	211.59
874.33	211.64
874.64	211.62
874.95	211.70
875.26	211.75
875.56	211.77
875.87	211.70
876.18	211.77
876.49	212.01
876.80	212.01
877.11	211.95
877.42	211.95
877.73	211.97
878.04	211.90
878.35	211.82
878.66	211.80
878.96	211.75
879.27	211.77
879.58	211.78
879.89	211.82
880.20	211.87
880.51	211.88
880.82	211.85
881.12	211.84
881.43	211.71
881.74	211.64
882.05	211.65
882.36	211.65
882.67	211.60
882.97	211.27
883.28	211.26
883.59	211.19
883.90	211.20
884.21	211.28
884.51	211.35
884.82	211.41
885.13	211.42
885.44	211.43
885.74	211.55
886.05	211.51
886.36	211.40
886.67	211.32
886.98	211.47
887.28	211.43
887.59	211.42
887.90	211.50
888.20	211.51
888.51	211.50
888.82	211.50
889.13	211.55
889.43	211.76
889.74	211.74
890.05	211.77
890.35	211.75
890.66	211.66
890.97	211.72
891.28	211.66
891.58	211.68
891.89	211.68
892.20	211.63
892.50	211.60
892.81	211.68
893.12	211.62
893.42	211.49
893.73	211.54
894.04	211.51
894.34	211.51
894.65	211.48
894.95	211.47
895.26	211.46
895.57	211.50
895.87	211.30
896.18	211.34
896.48	211.37
896.79	211.35
897.10	211.37
897.40	211.30
897.71	211.28
898.01	211.25
898.32	211.26
898.63	211.23
898.93	211.26
899.24	211.24
899.54	211.31
899.85	211.30
900.15	211.30
900.46	211.30
900.76	211.34
901.07	211.37
901.38	211.35
901.68	211.40
901.99	211.32
902.29	211.40
902.60	211.39
902.90	211.30
903.21	211.27
903.51	211.20
903.82	211.28
904.12	211.27
904.43	211.25
904.73	211.30
905.03	211.28
905.34	211.41
905.64	211.47
905.95	211.44
906.25	211.45
906.56	211.47
906.86	211.51
907.17	211.45
907.47	211.51
907.77	211.50
908.08	211.51
908.38	211.50
908.69	211.44
908.99	211.47
909.30	211.53
909.60	211.58
909.90	211.64
910.21	211.50
910.51	211.56
910.81	211.63
911.12	211.62
911.42	211.69
911.73	211.54
912.03	211.54
912.33	211.59
912.64	211.57
912.94	211.61
913.24	211.59
913.55	211.51
913.85	211.50
914.15	211.56
914.46	211.53
914.76	211.57
915.06	211.58
915.37	211.59
915.67	211.51
915.97	211.46
916.27	211.41
916.58	211.54
916.88	211.50
917.18	211.47
917.49	211.55
917.79	211.55
918.09	211.62
918.39	211.64
918.70	211.63
919.00	211.61
919.30	211.61
919.60	211.54
919.91	211.63
920.21	211.65
920.51	211.55
920.81	211.54
921.12	211.53
921.42	211.57
921.72	211.57
922.02	211.69
922.32	211.76
922.63	211.79
922.93	211.82
923.23	211.79
923.53	211.74
923.83	211.60
924.13	211.52
924.44	211.52
924.74	211.56
925.04	211.62
925.34	211.67
925.64	211.60
925.94	211.62
926.24	211.66
926.55	211.55
926.85	211.62
927.15	211.62
927.45	211.61
927.75	211.56
928.05	211.51
928.35	211.40
928.65	211.44
928.95	211.47
929.26	211.39
929.56	211.39
929.86	211.42
930.16	211.40
930.46	211.48
930.76	211.44
931.06	211.33
931.36	211.27
931.66	211.20
931.96	211.20
932.26	211.25
932.56	211.25
932.86	211.30
933.16	211.36
933.46	211.33
933.76	211.27
934.06	211.33
934.36	211.45
934.66	211.48
934.96	211.43
935.26	211.40
935.56	211.43
935.86	211.42
936.16	211.37
936.46	211.40
936.76	211.38
937.06	211.30
937.36	211.38
937.66	211.33
937.96	211.44
938.26	211.41
938.56	211.33
938.86	211.35
939.16	211.41
939.46	211.37
939.76	211.35
940.06	211.33
940.35	211.33
940.65	211.16
940.95	211.19
941.25	211.17
941.55	211.22
941.85	211.25
942.15	211.26
942.45	211.35
942.75	211.32
943.04	211.32
943.34	211.41
943.64	211.35
943.94	211.31
944.24	211.23
944.54	211.26
944.84	211.23
945.13	211.25
945.43	211.20
945.73	211.15
946.03	211.21
946.33	211.22
946.62	211.19
946.92	211.20
947.22	211.22
947.52	211.23
947.82	211.26
948.11	211.21
948.41	211.17
948.71	211.14
949.01	211.16
949.31	211.04
949.60	211.11
949.90	211.09
950.20	211.09
950.50	211.12
950.79	211.06
951.09	211.15
951.39	211.10
951.69	211.08
951.98	211.17
952.28	211.15
952.58	211.21
952.87	211.24
953.17	211.29
953.47	211.21
953.76	211.20
954.06	211.15
954.36	211.10
954.66	211.09
954.95	211.05
955.25	211.12
955.55	211.22
955.84	211.07
956.14	211.17
956.44	211.24
956.73	211.18
957.03	211.17
957.32	211.17
957.62	211.13
957.92	211.15
958.21	211.10
958.51	211.30
958.81	211.30
959.10	211.24
959.40	211.26
959.69	211.31
959.99	211.29
960.29	211.25
960.58	211.24
960.88	211.35
961.17	211.35
961.47	211.25
961.76	211.19
962.06	211.25
962.36	211.19
962.65	211.11
962.95	211.10
963.24	211.15
963.54	211.15
963.83	211.15
964.13	211.10
964.42	211.01
964.72	210.86
965.01	210.86
965.31	210.90
965.60	210.80
965.90	210.89
966.19	210.87
966.49	210.88
966.78	210.85
967.08	210.81
967.37	210.79
967.67	210.82
967.96	210.93
968.26	210.87
968.55	210.87
968.85	210.90
969.14	210.90
969.43	210.87
969.73	210.82
970.02	210.86
970.32	210.80
970.61	210.84
970.91	210.74
971.20	210.65
971.49	210.63
971.79	210.67
972.08	210.64
972.38	210.61
972.67	210.60
972.96	210.66
973.26	210.66
973.55	210.75
973.85	210.79
974.14	210.69
974.43	210.73
974.73	210.71
975.02	210.67
975.31	210.69
975.61	210.66
975.90	210.70
976.19	210.62
976.49	210.73
976.78	210.74
977.07	210.81
977.37	210.87
977.66	210.89
977.95	210.90
978.24	210.90
978.54	210.97
978.83	210.95
979.12	211.02
979.42	211.06
979.71	211.03
980.00	211.05
980.29	211.14
980.59	211.17
980.88	211.26
981.17	211.31
981.46	211.36
981.76	211.43
982.05	211.47
982.34	211.54
982.63	211.52
982.93	211.54
983.22	211.58
983.51	211.57
983.80	211.58
984.09	211.61
984.39	211.56
984.68	211.54
984.97	211.60
985.26	211.54
985.55	211.48
985.85	211.46
986.14	211.49
986.43	211.41
986.72	211.36
987.01	211.26
987.30	211.26
987.59	211.21
987.89	211.16
988.18	211.10
988.47	211.02
988.76	211.04
989.05	211.05
989.34	211.01
989.63	211.07
989.92	211.09
990.22	211.09
990.51	211.16
990.80	211.20
991.09	211.24
991.38	211.24
991.67	211.29
991.96	211.27
992.25	211.23
992.54	211.23
992.83	211.30
993.12	211.34
993.41	211.37
993.70	211.40
993.99	211.45
994.28	211.39
994.58	211.44
994.87	211.37
995.16	211.39
995.45	211.37
995.74	211.25
996.03	211.30
996.32	211.25
996.61	211.20
996.90	211.13
997.19	211.01
997.48	211.03
997.77	210.97
998.06	210.98
998.34	210.93
998.63	210.94
998.92	210.89
999.21	210.86
999.50	210.82
999.79	210.78
1000.08	210.80
1000.37	210.87
1000.66	210.88
1000.95	210.93
1001.24	210.90
1001.53	210.97
1001.82	210.97
1002.11	210.81
1002.40	210.85
1002.68	210.85
1002.97	210.99
1003.26	210.97
1003.55	210.91
1003.84	210.87
1004.13	210.91
1004.42	210.95
1004.71	211.03
1004.99	211.01
1005.28	211.12
1005.57	211.14
1005.86	211.10
1006.15	211.13
1006.44	211.06
1006.72	211.00
1007.01	210.92
1007.30	210.97
1007.59	210.85
1007.88	210.84
1008.17	210.84
1008.45	210.75
1008.74	210.70
1009.03	210.62
1009.32	210.62
1009.60	210.61
1009.89	210.60
1010.18	210.54
1010.47	210.53
1010.76	210.50
1011.04	210.46
1011.33	210.60
1011.62	210.53
1011.91	210.51
1012.19	210.49
1012.48	210.52
1012.77	210.51
1013.05	210.60
1013.34	210.54
1013.63	210.61
1013.92	210.68
1014.20	210.76
1014.49	210.82
1014.78	210.83
1015.06	210.77
1015.35	210.82
1015.64	210.79
1015.92	210.91
1016.21	210.91
1016.50	210.86
1016.78	210.81
1017.07	210.81
1017.36	210.55
1017.64	210.59
1017.93	210.60
1018.22	210.61
1018.50	210.62
1018.79	210.65
1019.08	210.57
1019.36	210.56
1019.65	210.47
1019.93	210.53
1020.22	210.50
1020.51	210.56
1020.79	210.58
1021.08	211.25
1021.36	210.70
1021.65	210.00
1021.94	210.35
1022.22	210.10
1022.51	209.70
1022.79	212.00
1023.08	210.85
1023.36	212.10
1023.65	210.30
>>>>>End Processed Spectral Data<<<<<
