SpectraSuite Data File
++++++++++++++++++++++++++++++++++++
Date: Mon Feb 25 17:33:49 EST 2013
User: group
Dark Spectrum Present: No
Reference Spectrum Present: No
Number of Sampled Component Spectra: 1
Spectrometers: USB2E7196
Integration Time (usec): 52000 (USB2E7196)
Spectra Averaged: 20 (USB2E7196)
Boxcar Smoothing: 10 (USB2E7196)
Correct for Electrical Dark: No (USB2E7196)
Strobe/Lamp Enabled: No (USB2E7196)
Correct for Detector Non-linearity: No (USB2E7196)
Correct for Stray Light: No (USB2E7196)
Number of Pixels in Processed Spectrum: 2048
>>>>>Begin Processed Spectral Data<<<<<
339.09	0.00
339.48	198.00
339.86	201.40
340.24	201.35
340.63	203.30
341.01	207.75
341.39	205.20
341.78	208.05
342.16	208.95
342.54	209.00
342.93	198.16
343.31	208.20
343.69	208.77
344.07	209.23
344.46	209.74
344.84	210.10
345.22	210.27
345.60	210.55
345.99	210.68
346.37	210.79
346.75	210.96
347.13	211.01
347.52	211.08
347.90	211.11
348.28	211.15
348.66	211.24
349.05	211.20
349.43	211.28
349.81	211.40
350.19	211.46
350.57	211.57
350.96	211.71
351.34	211.78
351.72	211.86
352.10	211.91
352.48	211.89
352.87	211.94
353.25	211.95
353.63	211.95
354.01	212.00
354.39	212.01
354.77	211.97
355.15	212.03
355.54	212.05
355.92	212.08
356.30	212.11
356.68	212.22
357.06	212.37
357.44	212.34
357.82	212.42
358.20	212.49
358.58	212.50
358.97	212.53
359.35	212.57
359.73	212.60
360.11	212.62
360.49	212.66
360.87	212.64
361.25	212.74
361.63	212.91
362.01	212.99
362.39	213.04
362.77	213.12
363.15	213.15
363.53	213.23
363.91	213.26
364.29	213.29
364.67	213.17
365.05	213.15
365.43	213.21
365.81	213.24
366.19	213.33
366.57	213.45
366.95	213.45
367.33	213.45
367.71	213.53
368.09	213.59
368.47	213.63
368.85	213.67
369.23	213.72
369.61	213.64
369.99	213.77
370.37	213.79
370.75	213.87
371.13	213.81
371.51	213.77
371.89	213.69
372.27	213.72
372.65	213.73
373.03	213.72
373.41	213.67
373.78	213.61
374.16	213.56
374.54	213.47
374.92	213.41
375.30	213.35
375.68	213.32
376.06	213.28
376.44	213.25
376.82	213.28
377.19	213.16
377.57	213.09
377.95	212.90
378.33	212.83
378.71	212.68
379.09	212.74
379.47	212.68
379.84	212.65
380.22	212.57
380.60	212.47
380.98	212.43
381.36	212.36
381.73	212.27
382.11	212.13
382.49	212.03
382.87	211.93
383.25	211.92
383.62	211.98
384.00	211.94
384.38	211.93
384.76	211.86
385.13	211.93
385.51	211.85
385.89	211.79
386.27	211.81
386.64	211.76
387.02	211.67
387.40	211.62
387.78	211.62
388.15	211.62
388.53	211.64
388.91	211.54
389.29	211.45
389.66	211.42
390.04	211.42
390.42	211.49
390.79	211.51
391.17	211.50
391.55	211.36
391.92	211.30
392.30	211.24
392.68	211.25
393.05	211.25
393.43	211.38
393.81	211.36
394.18	211.33
394.56	211.38
394.94	211.40
395.31	211.45
395.69	211.54
396.06	211.62
396.44	211.60
396.82	211.66
397.19	211.84
397.57	211.84
397.95	211.96
398.32	211.88
398.70	211.98
399.07	212.04
399.45	212.05
399.82	212.15
400.20	212.23
400.58	212.28
400.95	212.21
401.33	212.22
401.70	212.44
402.08	212.49
402.45	212.53
402.83	212.70
403.20	212.71
403.58	212.74
403.95	212.83
404.33	213.00
404.71	213.10
405.08	213.32
405.46	213.52
405.83	213.57
406.21	213.77
406.58	213.94
406.96	214.11
407.33	214.33
407.70	214.42
408.08	214.68
408.45	214.88
408.83	215.14
409.20	215.37
409.58	215.48
409.95	215.79
410.33	216.08
410.70	216.32
411.08	216.71
411.45	217.12
411.82	217.38
412.20	217.84
412.57	218.42
412.95	218.71
413.32	219.24
413.69	219.86
414.07	220.41
414.44	221.00
414.82	221.60
415.19	222.28
415.56	223.14
415.94	223.89
416.31	224.78
416.68	225.70
417.06	226.74
417.43	227.74
417.81	228.88
418.18	230.00
418.55	231.16
418.93	232.44
419.30	233.69
419.67	235.17
420.04	236.55
420.42	237.92
420.79	239.69
421.16	241.45
421.54	243.25
421.91	245.12
422.28	247.03
422.66	249.12
423.03	251.19
423.40	253.23
423.77	255.44
424.15	257.75
424.52	260.09
424.89	262.65
425.26	265.13
425.64	267.33
426.01	270.01
426.38	272.70
426.75	275.42
427.13	278.20
427.50	281.17
427.87	284.26
428.24	287.42
428.61	290.34
428.99	293.51
429.36	296.91
429.73	300.31
430.10	303.72
430.47	307.30
430.85	310.99
431.22	314.91
431.59	319.02
431.96	322.89
432.33	327.20
432.70	331.36
433.08	336.34
433.45	341.20
433.82	345.80
434.19	350.99
434.56	356.04
434.93	360.88
435.30	365.65
435.68	370.84
436.05	375.95
436.42	381.22
436.79	386.01
437.16	391.18
437.53	396.53
437.90	401.94
438.27	407.03
438.64	412.35
439.01	417.29
439.38	421.72
439.75	426.00
440.13	430.82
440.50	435.41
440.87	439.11
441.24	442.78
441.61	446.98
441.98	449.99
442.35	453.62
442.72	457.14
443.09	460.62
443.46	462.66
443.83	464.12
444.20	465.25
444.57	466.96
444.94	467.64
445.31	468.54
445.68	469.20
446.05	469.48
446.42	468.85
446.79	468.06
447.16	467.15
447.53	466.46
447.90	464.38
448.27	462.36
448.64	459.54
449.01	457.45
449.37	453.82
449.74	450.28
450.11	446.06
450.48	441.67
450.85	437.05
451.22	433.14
451.59	429.30
451.96	425.64
452.33	420.86
452.70	416.50
453.07	411.29
453.43	406.08
453.80	401.06
454.17	396.17
454.54	391.67
454.91	386.85
455.28	382.26
455.65	377.90
456.02	373.46
456.38	369.63
456.75	365.01
457.12	361.11
457.49	357.33
457.86	353.64
458.23	350.49
458.59	346.94
458.96	343.45
459.33	340.31
459.70	337.12
460.07	334.58
460.43	331.69
460.80	329.00
461.17	326.66
461.54	324.14
461.91	321.91
462.27	319.57
462.64	317.49
463.01	315.05
463.38	312.95
463.74	310.71
464.11	308.72
464.48	307.15
464.85	305.33
465.21	303.96
465.58	302.55
465.95	300.73
466.32	299.30
466.68	297.91
467.05	296.59
467.42	295.20
467.78	293.85
468.15	292.59
468.52	291.58
468.88	290.23
469.25	289.11
469.62	288.14
469.98	287.06
470.35	286.16
470.72	285.43
471.08	284.47
471.45	283.69
471.82	282.93
472.18	281.94
472.55	281.38
472.92	280.69
473.28	280.01
473.65	279.51
474.02	279.03
474.38	278.67
474.75	278.32
475.11	277.95
475.48	277.63
475.85	277.36
476.21	277.14
476.58	277.04
476.94	277.03
477.31	276.92
477.67	276.94
478.04	276.99
478.41	277.10
478.77	277.30
479.14	277.47
479.50	277.77
479.87	278.26
480.23	278.62
480.60	278.94
480.96	279.42
481.33	279.97
481.69	280.70
482.06	281.20
482.42	281.76
482.79	282.59
483.15	283.50
483.52	284.46
483.88	285.41
484.25	286.42
484.61	287.41
484.98	288.60
485.34	289.92
485.71	291.27
486.07	292.65
486.44	294.02
486.80	295.55
487.17	297.15
487.53	298.83
487.90	300.64
488.26	302.61
488.62	304.56
488.99	306.61
489.35	308.60
489.72	311.01
490.08	313.41
490.44	315.71
490.81	318.36
491.17	321.10
491.54	324.00
491.90	326.94
492.26	330.16
492.63	333.58
492.99	336.99
493.36	340.55
493.72	344.46
494.08	348.44
494.45	352.77
494.81	357.18
495.17	361.77
495.54	366.66
495.90	371.53
496.26	376.78
496.63	382.17
496.99	387.80
497.35	393.76
497.72	400.06
498.08	406.78
498.44	413.39
498.80	420.54
499.17	427.92
499.53	435.61
499.89	443.55
500.26	451.49
500.62	459.85
500.98	468.77
501.34	477.96
501.71	487.43
502.07	497.04
502.43	507.05
502.79	517.34
503.16	527.92
503.52	538.96
503.88	550.28
504.24	562.07
504.60	574.14
504.97	586.44
505.33	599.04
505.69	612.28
506.05	625.69
506.41	639.25
506.78	653.07
507.14	667.19
507.50	681.81
507.86	696.92
508.22	712.31
508.59	727.80
508.95	743.69
509.31	759.87
509.67	776.60
510.03	793.61
510.39	811.14
510.75	828.93
511.12	847.28
511.48	865.60
511.84	884.32
512.20	902.99
512.56	922.36
512.92	941.90
513.28	961.24
513.64	981.11
514.00	1001.17
514.37	1021.41
514.73	1042.10
515.09	1062.99
515.45	1083.87
515.81	1105.20
516.17	1126.64
516.53	1148.10
516.89	1169.61
517.25	1191.07
517.61	1212.67
517.97	1234.19
518.33	1255.88
518.69	1277.29
519.05	1299.36
519.41	1321.50
519.77	1344.13
520.13	1366.14
520.49	1388.53
520.85	1411.49
521.21	1434.23
521.57	1457.17
521.93	1479.47
522.29	1502.54
522.65	1525.04
523.01	1547.52
523.37	1569.59
523.73	1591.85
524.09	1614.21
524.45	1636.97
524.81	1659.68
525.17	1682.60
525.53	1705.16
525.89	1727.84
526.25	1750.14
526.61	1771.61
526.97	1793.26
527.33	1814.59
527.68	1836.27
528.04	1857.36
528.40	1877.58
528.76	1898.25
529.12	1919.13
529.48	1940.90
529.84	1961.16
530.20	1981.55
530.56	2002.29
530.91	2023.34
531.27	2044.07
531.63	2064.12
531.99	2084.04
532.35	2103.11
532.71	2122.00
533.07	2141.39
533.42	2159.68
533.78	2178.33
534.14	2197.05
534.50	2214.39
534.86	2232.45
535.21	2249.00
535.57	2266.99
535.93	2284.68
536.29	2301.72
536.65	2318.08
537.00	2333.51
537.36	2349.20
537.72	2364.57
538.08	2379.85
538.44	2394.94
538.79	2410.10
539.15	2425.05
539.51	2439.56
539.87	2455.27
540.22	2469.85
540.58	2485.10
540.94	2499.88
541.29	2513.24
541.65	2525.37
542.01	2538.70
542.37	2550.73
542.72	2563.55
543.08	2574.16
543.44	2585.90
543.79	2596.45
544.15	2607.05
544.51	2617.90
544.87	2629.06
545.22	2638.49
545.58	2647.27
545.94	2654.71
546.29	2661.20
546.65	2667.45
547.01	2673.76
547.36	2679.33
547.72	2685.23
548.07	2688.81
548.43	2692.40
548.79	2696.41
549.14	2700.93
549.50	2705.41
549.86	2709.57
550.21	2713.71
550.57	2718.23
550.92	2720.95
551.28	2723.64
551.64	2726.20
551.99	2728.77
552.35	2730.15
552.70	2732.98
553.06	2735.68
553.41	2738.75
553.77	2742.09
554.13	2744.57
554.48	2746.60
554.84	2747.77
555.19	2748.16
555.55	2749.18
555.90	2750.00
556.26	2750.44
556.61	2750.82
556.97	2749.69
557.32	2749.25
557.68	2747.37
558.03	2745.95
558.39	2744.47
558.74	2744.11
559.10	2742.85
559.45	2741.36
559.81	2739.90
560.16	2737.07
560.52	2734.47
560.87	2731.29
561.23	2727.35
561.58	2724.96
561.94	2721.78
562.29	2718.25
562.64	2715.85
563.00	2712.90
563.35	2710.76
563.71	2709.03
564.06	2707.26
564.42	2705.39
564.77	2703.36
565.12	2701.68
565.48	2698.64
565.83	2695.44
566.19	2692.09
566.54	2688.29
566.89	2684.25
567.25	2680.76
567.60	2677.81
567.96	2674.60
568.31	2671.18
568.66	2667.53
569.02	2662.72
569.37	2657.52
569.72	2654.02
570.08	2648.83
570.43	2643.38
570.78	2637.63
571.14	2631.45
571.49	2624.47
571.84	2618.54
572.20	2611.51
572.55	2604.77
572.90	2597.70
573.26	2591.01
573.61	2583.86
573.96	2576.94
574.31	2569.28
574.67	2561.33
575.02	2552.50
575.37	2543.42
575.72	2534.60
576.08	2527.19
576.43	2518.41
576.78	2510.98
577.13	2502.72
577.49	2494.58
577.84	2487.04
578.19	2479.10
578.54	2471.52
578.90	2464.69
579.25	2455.96
579.60	2447.11
579.95	2437.80
580.30	2429.97
580.66	2421.70
581.01	2412.62
581.36	2403.25
581.71	2394.85
582.06	2386.34
582.42	2378.51
582.77	2369.68
583.12	2360.71
583.47	2351.66
583.82	2343.58
584.17	2334.00
584.53	2324.70
584.88	2315.68
585.23	2306.36
585.58	2297.01
585.93	2287.66
586.28	2278.41
586.63	2269.36
586.98	2260.96
587.34	2252.58
587.69	2243.18
588.04	2234.22
588.39	2225.87
588.74	2217.10
589.09	2208.05
589.44	2198.37
589.79	2189.71
590.14	2181.90
590.49	2173.73
590.84	2164.57
591.19	2156.43
591.54	2147.85
591.89	2137.79
592.25	2128.44
592.60	2118.91
592.95	2109.49
593.30	2099.66
593.65	2089.73
594.00	2080.04
594.35	2071.29
594.70	2062.11
595.05	2053.42
595.40	2044.39
595.75	2034.53
596.10	2026.17
596.45	2017.88
596.80	2009.86
597.15	2001.25
597.50	1991.72
597.85	1982.87
598.19	1974.11
598.54	1965.60
598.89	1957.84
599.24	1951.27
599.59	1944.02
599.94	1937.20
600.29	1929.49
600.64	1921.43
600.99	1912.80
601.34	1905.68
601.69	1896.58
602.04	1888.31
602.39	1879.92
602.74	1871.95
603.08	1865.28
603.43	1858.14
603.78	1849.79
604.13	1841.75
604.48	1833.79
604.83	1826.92
605.18	1819.92
605.53	1812.43
605.87	1804.35
606.22	1796.94
606.57	1788.84
606.92	1780.50
607.27	1772.32
607.62	1764.79
607.96	1757.92
608.31	1751.75
608.66	1743.88
609.01	1736.64
609.36	1728.99
609.70	1721.44
610.05	1713.78
610.40	1705.77
610.75	1696.91
611.10	1689.30
611.44	1680.29
611.79	1670.85
612.14	1661.20
612.49	1651.53
612.83	1642.67
613.18	1633.09
613.53	1623.82
613.88	1613.80
614.22	1605.12
614.57	1595.53
614.92	1586.15
615.27	1576.87
615.61	1567.09
615.96	1558.03
616.31	1549.35
616.65	1541.50
617.00	1532.69
617.35	1523.82
617.70	1514.69
618.04	1505.71
618.39	1496.35
618.74	1487.71
619.08	1479.52
619.43	1471.55
619.78	1463.74
620.12	1455.72
620.47	1448.16
620.82	1439.14
621.16	1431.02
621.51	1422.38
621.85	1414.14
622.20	1405.65
622.55	1396.89
622.89	1388.44
623.24	1380.47
623.59	1371.76
623.93	1362.90
624.28	1354.69
624.62	1346.34
624.97	1338.25
625.32	1330.43
625.66	1322.86
626.01	1315.69
626.35	1308.33
626.70	1300.30
627.04	1292.70
627.39	1284.92
627.73	1277.15
628.08	1270.35
628.43	1262.97
628.77	1255.59
629.12	1248.14
629.46	1241.30
629.81	1234.34
630.15	1227.12
630.50	1219.53
630.84	1212.34
631.19	1205.25
631.53	1198.30
631.88	1190.79
632.22	1182.97
632.57	1175.90
632.91	1168.47
633.26	1160.83
633.60	1153.55
633.95	1146.75
634.29	1139.17
634.64	1132.42
634.98	1125.31
635.32	1118.37
635.67	1111.84
636.01	1105.26
636.36	1098.55
636.70	1091.99
637.05	1085.32
637.39	1079.00
637.73	1072.63
638.08	1066.93
638.42	1061.20
638.77	1054.68
639.11	1048.47
639.45	1042.70
639.80	1036.03
640.14	1029.77
640.49	1023.67
640.83	1017.51
641.17	1011.15
641.52	1005.49
641.86	998.88
642.20	992.50
642.55	985.68
642.89	979.17
643.23	972.65
643.58	966.65
643.92	960.12
644.26	953.84
644.61	947.68
644.95	941.74
645.29	935.21
645.64	928.29
645.98	922.21
646.32	916.31
646.66	909.88
647.01	904.00
647.35	898.11
647.69	891.80
648.04	885.72
648.38	879.86
648.72	873.49
649.06	867.44
649.41	861.47
649.75	855.69
650.09	849.77
650.43	843.97
650.78	837.92
651.12	831.77
651.46	826.04
651.80	820.01
652.14	814.00
652.49	808.17
652.83	802.46
653.17	796.38
653.51	790.52
653.85	784.95
654.20	779.15
654.54	773.29
654.88	767.84
655.22	762.08
655.56	756.19
655.90	750.40
656.25	744.70
656.59	739.17
656.93	733.84
657.27	728.74
657.61	723.25
657.95	718.00
658.29	712.90
658.64	707.66
658.98	702.40
659.32	696.95
659.66	691.59
660.00	686.04
660.34	680.76
660.68	675.60
661.02	670.39
661.36	665.62
661.70	660.73
662.05	655.96
662.39	651.48
662.73	647.10
663.07	642.86
663.41	638.65
663.75	634.06
664.09	629.43
664.43	624.63
664.77	620.28
665.11	615.82
665.45	611.44
665.79	607.09
666.13	602.82
666.47	598.62
666.81	594.60
667.15	590.74
667.49	586.81
667.83	582.96
668.17	579.03
668.51	575.24
668.85	571.40
669.19	567.65
669.53	563.51
669.87	559.39
670.21	555.49
670.55	551.51
670.89	548.25
671.23	544.94
671.57	541.55
671.91	537.69
672.25	534.16
672.58	530.56
672.92	527.10
673.26	523.85
673.60	520.65
673.94	517.17
674.28	513.89
674.62	510.76
674.96	507.53
675.30	504.61
675.64	501.32
675.97	498.10
676.31	495.13
676.65	492.42
676.99	489.73
677.33	486.68
677.67	483.85
678.01	480.62
678.34	477.46
678.68	474.54
679.02	471.74
679.36	468.91
679.70	466.19
680.04	463.22
680.37	460.20
680.71	457.33
681.05	454.74
681.39	451.98
681.73	449.32
682.06	446.69
682.40	443.95
682.74	441.36
683.08	438.87
683.42	436.20
683.75	433.51
684.09	430.78
684.43	428.25
684.77	425.59
685.10	423.14
685.44	420.60
685.78	418.06
686.12	415.67
686.45	413.22
686.79	410.90
687.13	408.73
687.46	406.65
687.80	404.34
688.14	401.93
688.48	399.82
688.81	397.55
689.15	395.35
689.49	393.09
689.82	390.85
690.16	388.53
690.50	386.13
690.83	383.82
691.17	381.60
691.51	379.39
691.84	377.30
692.18	375.27
692.52	373.40
692.85	371.54
693.19	369.74
693.52	367.78
693.86	365.71
694.20	363.87
694.53	361.91
694.87	360.04
695.21	358.13
695.54	356.09
695.88	354.13
696.21	352.25
696.55	350.49
696.88	348.83
697.22	347.13
697.56	345.64
697.89	344.11
698.23	342.57
698.56	340.98
698.90	339.50
699.23	337.84
699.57	336.18
699.90	334.52
700.24	332.86
700.58	331.30
700.91	329.83
701.25	328.30
701.58	326.75
701.92	325.27
702.25	323.83
702.59	322.50
702.92	321.11
703.26	319.73
703.59	318.47
703.93	317.13
704.26	315.78
704.60	314.42
704.93	313.10
705.26	311.83
705.60	310.62
705.93	309.15
706.27	308.01
706.60	306.86
706.94	305.73
707.27	304.57
707.61	303.45
707.94	302.31
708.27	301.10
708.61	299.97
708.94	298.89
709.28	297.82
709.61	296.66
709.94	295.68
710.28	294.71
710.61	293.60
710.95	292.40
711.28	291.48
711.61	290.41
711.95	289.41
712.28	288.44
712.61	287.44
712.95	286.66
713.28	285.74
713.61	284.79
713.95	283.86
714.28	282.87
714.61	281.95
714.95	281.08
715.28	280.20
715.61	279.27
715.95	278.39
716.28	277.53
716.61	276.68
716.95	275.86
717.28	275.00
717.61	274.25
717.94	273.57
718.28	272.73
718.61	272.05
718.94	271.33
719.27	270.57
719.61	269.91
719.94	269.17
720.27	268.39
720.60	267.70
720.94	266.99
721.27	266.45
721.60	265.80
721.93	265.23
722.27	264.66
722.60	264.19
722.93	263.59
723.26	263.02
723.59	262.47
723.93	261.84
724.26	261.30
724.59	260.78
724.92	260.27
725.25	259.77
725.59	259.33
725.92	258.78
726.25	258.25
726.58	257.70
726.91	257.18
727.24	256.61
727.57	256.15
727.91	255.61
728.24	255.07
728.57	254.56
728.90	254.04
729.23	253.51
729.56	253.06
729.89	252.56
730.22	251.98
730.55	251.49
730.89	251.12
731.22	250.59
731.55	250.04
731.88	249.56
732.21	249.13
732.54	248.61
732.87	248.12
733.20	247.67
733.53	247.19
733.86	246.80
734.19	246.48
734.52	246.06
734.85	245.79
735.18	245.43
735.51	244.95
735.84	244.55
736.17	244.19
736.50	243.73
736.83	243.56
737.16	243.30
737.49	242.95
737.82	242.47
738.15	242.09
738.48	241.74
738.81	241.32
739.14	240.90
739.47	240.53
739.80	240.25
740.13	239.92
740.46	239.57
740.79	239.18
741.12	238.79
741.45	238.52
741.78	238.03
742.11	237.65
742.44	237.41
742.77	237.12
743.10	236.78
743.43	236.54
743.75	236.07
744.08	235.86
744.41	235.50
744.74	235.25
745.07	234.89
745.40	234.61
745.73	234.49
746.06	234.19
746.39	233.86
746.71	233.47
747.04	233.16
747.37	232.91
747.70	232.68
748.03	232.47
748.36	232.13
748.68	232.05
749.01	231.76
749.34	231.51
749.67	231.25
750.00	231.10
750.33	230.91
750.65	230.68
750.98	230.33
751.31	230.13
751.64	229.90
751.97	229.85
752.29	229.72
752.62	229.37
752.95	229.22
753.28	228.97
753.60	228.78
753.93	228.68
754.26	228.53
754.59	228.31
754.91	228.00
755.24	227.81
755.57	227.55
755.90	227.38
756.22	227.19
756.55	227.00
756.88	226.69
757.20	226.35
757.53	226.13
757.86	225.90
758.19	225.82
758.51	225.72
758.84	225.47
759.17	225.22
759.49	225.10
759.82	225.01
760.15	224.97
760.47	224.80
760.80	224.63
761.13	224.48
761.45	224.37
761.78	224.28
762.11	224.12
762.43	223.93
762.76	223.84
763.08	223.67
763.41	223.55
763.74	223.44
764.06	223.28
764.39	223.21
764.71	223.10
765.04	222.89
765.37	222.67
765.69	222.60
766.02	222.43
766.34	222.25
766.67	222.04
767.00	221.95
767.32	221.99
767.65	221.91
767.97	221.79
768.30	221.63
768.62	221.54
768.95	221.40
769.27	221.28
769.60	221.11
769.92	220.98
770.25	220.81
770.57	220.65
770.90	220.52
771.22	220.33
771.55	220.27
771.87	220.13
772.20	220.10
772.52	220.11
772.85	220.32
773.17	220.21
773.50	220.09
773.82	219.88
774.15	219.69
774.47	219.53
774.80	219.39
775.12	219.30
775.45	219.13
775.77	219.08
776.09	219.04
776.42	218.90
776.74	218.92
777.07	218.78
777.39	218.75
777.72	218.64
778.04	218.59
778.36	218.46
778.69	218.38
779.01	218.18
779.33	217.83
779.66	217.42
779.98	217.33
780.31	217.24
780.63	217.25
780.95	217.21
781.28	217.08
781.60	216.95
781.92	216.84
782.25	216.82
782.57	216.76
782.89	216.69
783.22	216.63
783.54	216.51
783.86	216.55
784.19	216.47
784.51	216.49
784.83	216.42
785.16	216.37
785.48	216.32
785.80	216.36
786.12	216.38
786.45	216.35
786.77	216.35
787.09	216.29
787.42	216.15
787.74	216.05
788.06	216.00
788.38	215.98
788.71	215.95
789.03	215.95
789.35	215.82
789.67	215.75
789.99	215.70
790.32	215.59
790.64	215.52
790.96	215.62
791.28	215.46
791.61	215.37
791.93	215.33
792.25	215.32
792.57	215.40
792.89	215.36
793.21	215.29
793.54	215.20
793.86	215.16
794.18	215.18
794.50	215.15
794.82	215.15
795.14	215.12
795.47	215.05
795.79	214.95
796.11	214.89
796.43	214.80
796.75	214.87
797.07	214.88
797.39	214.82
797.71	214.65
798.04	214.71
798.36	214.80
798.68	214.80
799.00	214.75
799.32	214.60
799.64	214.61
799.96	214.60
800.28	214.63
800.60	214.57
800.92	214.55
801.24	214.53
801.56	214.50
801.89	214.50
802.21	214.55
802.53	214.60
802.85	214.60
803.17	214.58
803.49	214.49
803.81	214.40
804.13	214.42
804.45	214.38
804.77	214.37
805.09	214.30
805.41	214.25
805.73	214.19
806.05	214.09
806.37	214.10
806.69	214.06
807.01	214.02
807.33	214.06
807.65	213.95
807.97	213.95
808.28	213.90
808.60	213.89
808.92	213.87
809.24	213.85
809.56	213.82
809.88	213.83
810.20	213.83
810.52	213.92
810.84	213.91
811.16	213.87
811.48	213.77
811.80	213.80
812.12	213.80
812.43	213.78
812.75	213.74
813.07	213.61
813.39	213.62
813.71	213.69
814.03	213.66
814.35	213.64
814.67	213.61
814.98	213.62
815.30	213.59
815.62	213.56
815.94	213.38
816.26	213.39
816.58	213.40
816.89	213.40
817.21	213.25
817.53	213.15
817.85	213.16
818.17	213.26
818.48	213.16
818.80	213.14
819.12	213.11
819.44	213.11
819.76	213.08
820.07	213.04
820.39	212.86
820.71	212.80
821.03	212.80
821.34	212.75
821.66	212.65
821.98	212.52
822.30	212.48
822.61	212.60
822.93	212.55
823.25	212.56
823.57	212.59
823.88	212.68
824.20	212.70
824.52	212.65
824.83	212.55
825.15	212.52
825.47	212.46
825.79	212.44
826.10	212.44
826.42	212.45
826.74	212.50
827.05	212.52
827.37	212.54
827.69	212.50
828.00	212.54
828.32	212.58
828.64	212.57
828.95	212.60
829.27	212.57
829.58	212.53
829.90	212.46
830.22	212.34
830.53	212.24
830.85	212.17
831.17	212.16
831.48	212.17
831.80	212.12
832.11	212.11
832.43	212.11
832.75	212.10
833.06	212.16
833.38	212.11
833.69	212.10
834.01	212.11
834.32	212.08
834.64	212.05
834.96	211.99
835.27	212.02
835.59	211.98
835.90	211.88
836.22	211.91
836.53	211.86
836.85	211.90
837.16	212.05
837.48	212.01
837.79	211.99
838.11	211.98
838.42	212.06
838.74	212.09
839.05	212.09
839.37	212.05
839.68	211.95
840.00	211.84
840.31	211.92
840.63	211.84
840.94	211.83
841.26	211.75
841.57	211.77
841.88	211.77
842.20	211.71
842.51	211.68
842.83	211.66
843.14	211.88
843.46	211.85
843.77	211.73
844.08	211.75
844.40	211.75
844.71	211.72
845.03	211.61
845.34	211.51
845.65	211.52
845.97	211.55
846.28	211.59
846.60	211.66
846.91	211.58
847.22	211.58
847.54	211.67
847.85	211.71
848.16	211.71
848.48	211.70
848.79	211.81
849.10	211.93
849.42	211.99
849.73	211.83
850.04	211.84
850.36	211.85
850.67	211.91
850.98	211.96
851.30	212.00
851.61	212.08
851.92	212.11
852.23	212.17
852.55	212.21
852.86	212.23
853.17	212.24
853.49	212.24
853.80	212.33
854.11	212.31
854.42	212.30
854.74	212.28
855.05	212.32
855.36	212.26
855.67	212.21
855.99	212.18
856.30	212.38
856.61	212.36
856.92	212.32
857.23	212.31
857.55	212.28
857.86	212.30
858.17	212.33
858.48	212.29
858.79	212.15
859.11	212.12
859.42	212.04
859.73	212.07
860.04	212.08
860.35	211.97
860.66	211.89
860.98	211.89
861.29	211.88
861.60	211.86
861.91	211.81
862.22	211.78
862.53	211.74
862.84	211.53
863.16	211.55
863.47	211.54
863.78	211.51
864.09	211.48
864.40	211.45
864.71	211.42
865.02	211.42
865.33	211.49
865.64	211.45
865.95	211.48
866.27	211.53
866.58	211.51
866.89	211.59
867.20	211.62
867.51	211.64
867.82	211.57
868.13	211.59
868.44	211.66
868.75	211.74
869.06	211.74
869.37	211.70
869.68	211.62
869.99	211.64
870.30	211.62
870.61	211.65
870.92	211.62
871.23	211.53
871.54	211.65
871.85	211.67
872.16	211.73
872.47	211.65
872.78	211.54
873.09	211.57
873.40	211.54
873.71	211.53
874.02	211.59
874.33	211.65
874.64	211.59
874.95	211.56
875.26	211.47
875.56	211.47
875.87	211.45
876.18	211.47
876.49	211.59
876.80	211.60
877.11	211.56
877.42	211.60
877.73	211.67
878.04	211.57
878.35	211.60
878.66	211.49
878.96	211.57
879.27	211.58
879.58	211.54
879.89	211.54
880.20	211.52
880.51	211.41
880.82	211.45
881.12	211.51
881.43	211.45
881.74	211.44
882.05	211.48
882.36	211.50
882.67	211.49
882.97	211.36
883.28	211.35
883.59	211.36
883.90	211.30
884.21	211.31
884.51	211.31
884.82	211.18
885.13	211.28
885.44	211.21
885.74	211.18
886.05	211.07
886.36	211.05
886.67	211.07
886.98	211.23
887.28	211.24
887.59	211.20
887.90	211.30
888.20	211.31
888.51	211.35
888.82	211.35
889.13	211.42
889.43	211.56
889.74	211.55
890.05	211.54
890.35	211.55
890.66	211.54
890.97	211.61
891.28	211.66
891.58	211.68
891.89	211.69
892.20	211.67
892.50	211.75
892.81	211.75
893.12	211.72
893.42	211.59
893.73	211.52
894.04	211.50
894.34	211.43
894.65	211.38
894.95	211.30
895.26	211.36
895.57	211.40
895.87	211.24
896.18	211.25
896.48	211.28
896.79	211.33
897.10	211.35
897.40	211.25
897.71	211.27
898.01	211.18
898.32	211.27
898.63	211.36
898.93	211.38
899.24	211.37
899.54	211.40
899.85	211.35
900.15	211.35
900.46	211.42
900.76	211.35
901.07	211.36
901.38	211.35
901.68	211.32
901.99	211.25
902.29	211.22
902.60	211.24
902.90	211.20
903.21	211.18
903.51	211.09
903.82	211.14
904.12	211.14
904.43	211.20
904.73	211.15
905.03	211.07
905.34	211.21
905.64	211.19
905.95	211.13
906.25	211.15
906.56	211.16
906.86	211.10
907.17	211.16
907.47	211.24
907.77	211.18
908.08	211.15
908.38	211.12
908.69	211.17
908.99	211.21
909.30	211.24
909.60	211.24
909.90	211.33
910.21	211.26
910.51	211.28
910.81	211.26
911.12	211.31
911.42	211.32
911.73	211.18
912.03	211.18
912.33	211.25
912.64	211.30
912.94	211.31
913.24	211.30
913.55	211.25
913.85	211.19
914.15	211.24
914.46	211.30
914.76	211.28
915.06	211.20
915.37	211.06
915.67	211.07
915.97	211.03
916.27	210.95
916.58	210.94
916.88	210.84
917.18	210.81
917.49	210.92
917.79	210.89
918.09	210.87
918.39	210.93
918.70	210.88
919.00	210.81
919.30	210.91
919.60	210.88
919.91	210.93
920.21	210.99
920.51	210.97
920.81	210.93
921.12	210.97
921.42	210.96
921.72	211.05
922.02	211.06
922.32	211.04
922.63	211.09
922.93	211.25
923.23	211.31
923.53	211.30
923.83	211.16
924.13	211.19
924.44	211.26
924.74	211.30
925.04	211.38
925.34	211.38
925.64	211.29
925.94	211.31
926.24	211.40
926.55	211.32
926.85	211.32
927.15	211.29
927.45	211.32
927.75	211.34
928.05	211.35
928.35	211.34
928.65	211.44
928.95	211.45
929.26	211.33
929.56	211.38
929.86	211.45
930.16	211.44
930.46	211.43
930.76	211.42
931.06	211.31
931.36	211.23
931.66	211.27
931.96	211.27
932.26	211.25
932.56	211.16
932.86	211.16
933.16	211.23
933.46	211.26
933.76	211.22
934.06	211.35
934.36	211.41
934.66	211.39
934.96	211.37
935.26	211.40
935.56	211.44
935.86	211.43
936.16	211.36
936.46	211.39
936.76	211.40
937.06	211.37
937.36	211.43
937.66	211.50
937.96	211.45
938.26	211.49
938.56	211.50
938.86	211.48
939.16	211.51
939.46	211.45
939.76	211.44
940.06	211.40
940.35	211.29
940.65	211.16
940.95	211.14
941.25	211.06
941.55	211.00
941.85	210.98
942.15	211.03
942.45	211.05
942.75	211.03
943.04	211.01
943.34	211.03
943.64	210.98
943.94	210.95
944.24	211.02
944.54	210.90
944.84	210.81
945.13	210.82
945.43	210.74
945.73	210.76
946.03	210.72
946.33	210.68
946.62	210.72
946.92	210.77
947.22	210.79
947.52	210.78
947.82	210.75
948.11	210.69
948.41	210.57
948.71	210.59
949.01	210.59
949.31	210.55
949.60	210.54
949.90	210.63
950.20	210.56
950.50	210.48
950.79	210.57
951.09	210.71
951.39	210.75
951.69	210.83
951.98	210.86
952.28	210.88
952.58	210.92
952.87	210.89
953.17	210.87
953.47	210.85
953.76	210.90
954.06	210.87
954.36	210.84
954.66	210.86
954.95	210.80
955.25	210.80
955.55	210.86
955.84	210.81
956.14	210.67
956.44	210.75
956.73	210.71
957.03	210.73
957.32	210.65
957.62	210.64
957.92	210.63
958.21	210.60
958.51	210.77
958.81	210.82
959.10	210.74
959.40	210.82
959.69	210.82
959.99	210.85
960.29	210.86
960.58	210.83
960.88	210.96
961.17	210.97
961.47	211.03
961.76	210.97
962.06	210.99
962.36	211.05
962.65	211.03
962.95	211.05
963.24	210.99
963.54	211.05
963.83	211.02
964.13	211.00
964.42	210.94
964.72	210.78
965.01	210.80
965.31	210.88
965.60	210.88
965.90	211.03
966.19	210.97
966.49	211.04
966.78	211.16
967.08	211.13
967.37	211.16
967.67	211.09
967.96	211.16
968.26	211.14
968.55	211.18
968.85	211.13
969.14	211.16
969.43	211.17
969.73	211.15
970.02	211.13
970.32	211.15
970.61	211.28
970.91	211.25
971.20	211.14
971.49	211.11
971.79	211.05
972.08	210.88
972.38	210.91
972.67	210.95
972.96	210.91
973.26	210.80
973.55	210.83
973.85	210.86
974.14	210.77
974.43	210.91
974.73	210.91
975.02	210.90
975.31	210.87
975.61	210.89
975.90	210.87
976.19	210.87
976.49	210.86
976.78	210.77
977.07	210.77
977.37	210.81
977.66	210.80
977.95	210.78
978.24	210.79
978.54	210.78
978.83	210.73
979.12	210.70
979.42	210.71
979.71	210.70
980.00	210.67
980.29	210.73
980.59	210.63
980.88	210.65
981.17	210.66
981.46	210.71
981.76	210.72
982.05	210.77
982.34	210.83
982.63	210.84
982.93	210.85
983.22	210.90
983.51	210.96
983.80	210.98
984.09	210.95
984.39	210.95
984.68	210.96
984.97	210.98
985.26	210.96
985.55	211.02
985.85	211.01
986.14	211.04
986.43	211.03
986.72	211.01
987.01	210.95
987.30	210.93
987.59	210.87
987.89	210.88
988.18	210.86
988.47	210.82
988.76	210.82
989.05	210.80
989.34	210.72
989.63	210.76
989.92	210.78
990.22	210.79
990.51	210.80
990.80	210.81
991.09	210.81
991.38	210.85
991.67	210.87
991.96	210.86
992.25	210.88
992.54	210.88
992.83	210.89
993.12	210.83
993.41	210.89
993.70	210.99
993.99	210.98
994.28	210.91
994.58	210.97
994.87	211.03
995.16	211.12
995.45	211.16
995.74	211.11
996.03	211.13
996.32	211.19
996.61	211.30
996.90	211.31
997.19	211.36
997.48	211.39
997.77	211.33
998.06	211.33
998.34	211.25
998.63	211.26
998.92	211.32
999.21	211.41
999.50	211.47
999.79	211.42
1000.08	211.43
1000.37	211.53
1000.66	211.49
1000.95	211.48
1001.24	211.46
1001.53	211.50
1001.82	211.48
1002.11	211.46
1002.40	211.53
1002.68	211.47
1002.97	211.54
1003.26	211.46
1003.55	211.40
1003.84	211.41
1004.13	211.45
1004.42	211.51
1004.71	211.47
1004.99	211.39
1005.28	211.42
1005.57	211.34
1005.86	211.31
1006.15	211.37
1006.44	211.35
1006.72	211.33
1007.01	211.20
1007.30	211.26
1007.59	211.21
1007.88	211.22
1008.17	211.16
1008.45	211.02
1008.74	211.03
1009.03	210.96
1009.32	211.06
1009.60	211.06
1009.89	210.99
1010.18	210.97
1010.47	210.92
1010.76	211.01
1011.04	211.03
1011.33	211.25
1011.62	211.27
1011.91	211.30
1012.19	211.26
1012.48	211.26
1012.77	211.29
1013.05	211.42
1013.34	211.29
1013.63	211.38
1013.92	211.35
1014.20	211.47
1014.49	211.49
1014.78	211.44
1015.06	211.39
1015.35	211.32
1015.64	211.44
1015.92	211.51
1016.21	211.50
1016.50	211.52
1016.78	211.48
1017.07	211.51
1017.36	211.26
1017.64	211.23
1017.93	211.28
1018.22	211.23
1018.50	211.16
1018.79	211.15
1019.08	211.10
1019.36	211.12
1019.65	211.08
1019.93	211.17
1020.22	211.11
1020.51	211.19
1020.79	211.13
1021.08	210.55
1021.36	210.05
1021.65	211.05
1021.94	211.05
1022.22	210.75
1022.51	211.70
1022.79	212.05
1023.08	210.85
1023.36	212.35
1023.65	209.65
>>>>>End Processed Spectral Data<<<<<
