SpectraSuite Data File
++++++++++++++++++++++++++++++++++++
Date: Mon Feb 25 17:32:15 EST 2013
User: group
Dark Spectrum Present: No
Reference Spectrum Present: No
Number of Sampled Component Spectra: 1
Spectrometers: USB2E7196
Integration Time (usec): 52000 (USB2E7196)
Spectra Averaged: 20 (USB2E7196)
Boxcar Smoothing: 10 (USB2E7196)
Correct for Electrical Dark: No (USB2E7196)
Strobe/Lamp Enabled: No (USB2E7196)
Correct for Detector Non-linearity: No (USB2E7196)
Correct for Stray Light: No (USB2E7196)
Number of Pixels in Processed Spectrum: 2048
>>>>>Begin Processed Spectral Data<<<<<
339.09	0.00
339.48	199.25
339.86	200.60
340.24	201.30
340.63	203.20
341.01	207.70
341.39	206.45
341.78	207.25
342.16	210.25
342.54	209.70
342.93	198.76
343.31	208.82
343.69	209.42
344.07	209.91
344.46	210.41
344.84	210.87
345.22	211.06
345.60	211.35
345.99	211.61
346.37	211.67
346.75	211.79
347.13	211.87
347.52	211.97
347.90	212.02
348.28	212.02
348.66	212.11
349.05	212.01
349.43	212.06
349.81	212.13
350.19	212.24
350.57	212.33
350.96	212.37
351.34	212.43
351.72	212.52
352.10	212.60
352.48	212.62
352.87	212.54
353.25	212.61
353.63	212.57
354.01	212.55
354.39	212.63
354.77	212.63
355.15	212.66
355.54	212.65
355.92	212.65
356.30	212.74
356.68	212.88
357.06	212.95
357.44	212.99
357.82	212.97
358.20	213.02
358.58	213.04
358.97	213.09
359.35	213.17
359.73	213.13
360.11	213.12
360.49	213.19
360.87	213.31
361.25	213.28
361.63	213.45
362.01	213.43
362.39	213.43
362.77	213.51
363.15	213.51
363.53	213.56
363.91	213.53
364.29	213.48
364.67	213.27
365.05	213.26
365.43	213.30
365.81	213.32
366.19	213.37
366.57	213.45
366.95	213.45
367.33	213.39
367.71	213.39
368.09	213.37
368.47	213.36
368.85	213.29
369.23	213.40
369.61	213.27
369.99	213.36
370.37	213.41
370.75	213.39
371.13	213.34
371.51	213.21
371.89	213.30
372.27	213.29
372.65	213.26
373.03	213.27
373.41	213.18
373.78	213.10
374.16	212.92
374.54	212.79
374.92	212.79
375.30	212.75
375.68	212.80
376.06	212.84
376.44	212.78
376.82	212.78
377.19	212.71
377.57	212.69
377.95	212.54
378.33	212.43
378.71	212.37
379.09	212.34
379.47	212.39
379.84	212.35
380.22	212.30
380.60	212.30
380.98	212.24
381.36	212.21
381.73	212.14
382.11	212.22
382.49	212.24
382.87	212.11
383.25	212.10
383.62	212.27
384.00	212.18
384.38	212.19
384.76	212.26
385.13	212.26
385.51	212.21
385.89	212.23
386.27	212.26
386.64	212.20
387.02	212.15
387.40	212.08
387.78	211.98
388.15	212.02
388.53	211.93
388.91	211.94
389.29	211.93
389.66	212.01
390.04	211.89
390.42	211.84
390.79	211.94
391.17	211.89
391.55	211.58
391.92	211.57
392.30	211.52
392.68	211.43
393.05	211.41
393.43	211.44
393.81	211.45
394.18	211.38
394.56	211.45
394.94	211.50
395.31	211.48
395.69	211.61
396.06	211.61
396.44	211.69
396.82	211.67
397.19	211.72
397.57	211.70
397.95	211.81
398.32	211.84
398.70	211.83
399.07	211.90
399.45	211.94
399.82	211.93
400.20	211.99
400.58	211.97
400.95	211.98
401.33	212.05
401.70	212.20
402.08	212.28
402.45	212.32
402.83	212.40
403.20	212.49
403.58	212.46
403.95	212.53
404.33	212.55
404.71	212.58
405.08	212.80
405.46	212.98
405.83	213.09
406.21	213.23
406.58	213.41
406.96	213.56
407.33	213.75
407.70	214.00
408.08	214.30
408.45	214.62
408.83	214.89
409.20	215.10
409.58	215.27
409.95	215.58
410.33	215.86
410.70	216.08
411.08	216.43
411.45	216.87
411.82	217.20
412.20	217.65
412.57	218.26
412.95	218.50
413.32	218.97
413.69	219.50
414.07	219.99
414.44	220.55
414.82	221.21
415.19	222.04
415.56	222.78
415.94	223.51
416.31	224.34
416.68	225.14
417.06	226.13
417.43	227.03
417.81	228.12
418.18	229.30
418.55	230.53
418.93	231.89
419.30	233.10
419.67	234.56
420.04	236.08
420.42	237.54
420.79	239.38
421.16	241.06
421.54	242.85
421.91	244.66
422.28	246.68
422.66	248.69
423.03	250.65
423.40	252.70
423.77	254.93
424.15	257.16
424.52	259.44
424.89	262.00
425.26	264.53
425.64	266.85
426.01	269.41
426.38	272.08
426.75	274.82
427.13	277.71
427.50	280.56
427.87	283.56
428.24	286.71
428.61	289.60
428.99	292.81
429.36	296.29
429.73	299.83
430.10	303.16
430.47	306.66
430.85	310.31
431.22	314.24
431.59	318.30
431.96	322.18
432.33	326.66
432.70	330.80
433.08	335.74
433.45	340.23
433.82	344.83
434.19	349.92
434.56	354.82
434.93	359.53
435.30	364.37
435.68	369.49
436.05	374.55
436.42	379.62
436.79	384.29
437.16	389.28
437.53	394.60
437.90	399.89
438.27	405.03
438.64	410.31
439.01	415.31
439.38	419.69
439.75	423.93
440.13	428.70
440.50	433.24
440.87	436.83
441.24	440.72
441.61	444.97
441.98	447.96
442.35	451.44
442.72	455.10
443.09	458.50
443.46	460.67
443.83	461.98
444.20	463.02
444.57	464.81
444.94	465.54
445.31	466.33
445.68	467.15
446.05	467.40
446.42	466.77
446.79	465.79
447.16	464.88
447.53	464.32
447.90	462.14
448.27	460.12
448.64	457.26
449.01	455.20
449.37	451.59
449.74	448.15
450.11	444.09
450.48	439.60
450.85	435.06
451.22	431.16
451.59	427.60
451.96	424.13
452.33	419.47
452.70	415.25
453.07	410.08
453.43	404.78
453.80	399.85
454.17	395.08
454.54	390.65
454.91	385.89
455.28	381.11
455.65	376.68
456.02	372.28
456.38	368.60
456.75	363.94
457.12	359.94
457.49	356.08
457.86	352.45
458.23	349.24
458.59	345.80
458.96	342.27
459.33	339.03
459.70	335.93
460.07	333.44
460.43	330.64
460.80	328.00
461.17	325.56
461.54	323.08
461.91	320.77
462.27	318.43
462.64	316.37
463.01	314.24
463.38	312.28
463.74	310.06
464.11	308.10
464.48	306.46
464.85	304.74
465.21	303.41
465.58	301.95
465.95	300.21
466.32	298.75
466.68	297.32
467.05	295.96
467.42	294.63
467.78	293.10
468.15	291.59
468.52	290.57
468.88	289.32
469.25	288.15
469.62	287.25
469.98	286.23
470.35	285.37
470.72	284.45
471.08	283.48
471.45	282.78
471.82	282.09
472.18	281.26
472.55	280.67
472.92	280.00
473.28	279.43
473.65	278.85
474.02	278.30
474.38	277.81
474.75	277.49
475.11	277.05
475.48	276.74
475.85	276.65
476.21	276.48
476.58	276.28
476.94	276.29
477.31	276.13
477.67	276.16
478.04	276.20
478.41	276.36
478.77	276.62
479.14	276.77
479.50	277.04
479.87	277.36
480.23	277.71
480.60	278.09
480.96	278.46
481.33	279.20
481.69	279.81
482.06	280.49
482.42	281.11
482.79	281.91
483.15	282.83
483.52	283.80
483.88	284.71
484.25	285.80
484.61	286.85
484.98	287.95
485.34	289.20
485.71	290.56
486.07	291.95
486.44	293.31
486.80	294.80
487.17	296.37
487.53	298.25
487.90	300.14
488.26	302.01
488.62	304.05
488.99	306.00
489.35	308.16
489.72	310.47
490.08	312.78
490.44	315.29
490.81	317.94
491.17	320.64
491.54	323.57
491.90	326.53
492.26	329.73
492.63	333.15
492.99	336.60
493.36	340.16
493.72	344.07
494.08	348.13
494.45	352.40
494.81	356.83
495.17	361.25
495.54	366.13
495.90	371.19
496.26	376.39
496.63	381.75
496.99	387.51
497.35	393.63
497.72	400.01
498.08	406.43
498.44	413.05
498.80	420.05
499.17	427.35
499.53	434.99
499.89	442.87
500.26	450.90
500.62	459.24
500.98	468.04
501.34	477.12
501.71	486.51
502.07	496.10
502.43	506.05
502.79	516.42
503.16	526.99
503.52	537.86
503.88	549.10
504.24	560.85
504.60	572.71
504.97	585.01
505.33	597.35
505.69	610.59
506.05	624.16
506.41	637.85
506.78	651.64
507.14	665.91
507.50	680.45
507.86	695.41
508.22	710.87
508.59	726.45
508.95	742.20
509.31	758.16
509.67	774.71
510.03	791.58
510.39	808.94
510.75	826.63
511.12	844.90
511.48	863.27
511.84	881.79
512.20	900.43
512.56	919.38
512.92	938.92
513.28	958.38
513.64	977.91
514.00	997.72
514.37	1017.95
514.73	1038.57
515.09	1059.51
515.45	1080.34
515.81	1101.37
516.17	1122.54
516.53	1143.92
516.89	1165.65
517.25	1187.39
517.61	1209.05
517.97	1230.52
518.33	1251.92
518.69	1273.35
519.05	1295.41
519.41	1317.36
519.77	1340.07
520.13	1362.06
520.49	1384.00
520.85	1406.37
521.21	1428.75
521.57	1451.79
521.93	1473.82
522.29	1496.43
522.65	1518.75
523.01	1541.09
523.37	1563.00
523.73	1585.27
524.09	1607.62
524.45	1629.66
524.81	1651.76
525.17	1674.15
525.53	1696.44
525.89	1718.61
526.25	1740.68
526.61	1761.89
526.97	1783.40
527.33	1804.31
527.68	1825.82
528.04	1847.01
528.40	1867.54
528.76	1888.32
529.12	1908.60
529.48	1930.50
529.84	1950.60
530.20	1970.86
530.56	1991.28
530.91	2012.14
531.27	2032.58
531.63	2052.37
531.99	2072.33
532.35	2091.41
532.71	2110.21
533.07	2129.55
533.42	2148.09
533.78	2166.79
534.14	2185.34
534.50	2202.95
534.86	2220.75
535.21	2237.35
535.57	2254.98
535.93	2272.29
536.29	2288.78
536.65	2305.24
537.00	2320.02
537.36	2335.44
537.72	2350.28
538.08	2365.45
538.44	2380.39
538.79	2395.26
539.15	2409.81
539.51	2424.33
539.87	2439.66
540.22	2454.00
540.58	2468.87
540.94	2483.14
541.29	2495.77
541.65	2507.65
542.01	2520.30
542.37	2531.94
542.72	2544.41
543.08	2555.11
543.44	2566.88
543.79	2577.39
544.15	2587.60
544.51	2598.79
544.87	2609.47
545.22	2618.93
545.58	2627.23
545.94	2634.18
546.29	2640.83
546.65	2647.17
547.01	2653.00
547.36	2658.33
547.72	2663.87
548.07	2667.49
548.43	2671.27
548.79	2675.16
549.14	2679.62
549.50	2684.05
549.86	2687.98
550.21	2691.68
550.57	2695.88
550.92	2698.18
551.28	2700.83
551.64	2703.20
551.99	2705.38
552.35	2707.09
552.70	2709.67
553.06	2712.36
553.41	2715.65
553.77	2718.40
554.13	2720.69
554.48	2722.77
554.84	2724.00
555.19	2724.77
555.55	2725.54
555.90	2726.06
556.26	2726.79
556.61	2726.89
556.97	2725.38
557.32	2724.96
557.68	2723.17
558.03	2721.63
558.39	2720.38
558.74	2719.63
559.10	2718.54
559.45	2716.72
559.81	2715.44
560.16	2712.72
560.52	2710.02
560.87	2706.79
561.23	2702.81
561.58	2700.52
561.94	2697.35
562.29	2693.81
562.64	2691.22
563.00	2688.71
563.35	2686.54
563.71	2684.56
564.06	2682.40
564.42	2680.65
564.77	2678.47
565.12	2677.08
565.48	2673.77
565.83	2670.29
566.19	2666.89
566.54	2662.50
566.89	2658.63
567.25	2654.92
567.60	2651.68
567.96	2648.33
568.31	2644.93
568.66	2641.46
569.02	2636.82
569.37	2631.73
569.72	2627.92
570.08	2622.56
570.43	2616.78
570.78	2610.80
571.14	2604.27
571.49	2597.36
571.84	2591.51
572.20	2584.59
572.55	2577.75
572.90	2571.37
573.26	2564.62
573.61	2557.65
573.96	2551.26
574.31	2543.10
574.67	2534.36
575.02	2525.77
575.37	2517.01
575.72	2508.03
576.08	2500.20
576.43	2491.45
576.78	2483.31
577.13	2475.23
577.49	2466.75
577.84	2458.76
578.19	2451.40
578.54	2444.06
578.90	2437.28
579.25	2428.52
579.60	2419.54
579.95	2410.15
580.30	2401.83
580.66	2393.60
581.01	2384.42
581.36	2375.37
581.71	2367.26
582.06	2359.35
582.42	2351.37
582.77	2342.31
583.12	2333.54
583.47	2324.81
583.82	2316.44
584.17	2307.37
584.53	2298.31
584.88	2290.13
585.23	2281.16
585.58	2271.50
585.93	2261.86
586.28	2252.79
586.63	2244.10
586.98	2235.61
587.34	2227.51
587.69	2218.39
588.04	2209.35
588.39	2201.34
588.74	2192.11
589.09	2183.49
589.44	2173.88
589.79	2165.15
590.14	2157.46
590.49	2149.24
590.84	2140.34
591.19	2132.40
591.54	2124.00
591.89	2114.08
592.25	2104.74
592.60	2095.15
592.95	2086.08
593.30	2076.66
593.65	2066.90
594.00	2056.99
594.35	2048.80
594.70	2039.41
595.05	2030.87
595.40	2021.99
595.75	2012.40
596.10	2004.40
596.45	1995.76
596.80	1988.10
597.15	1979.95
597.50	1970.63
597.85	1962.08
598.19	1953.40
598.54	1944.58
598.89	1936.79
599.24	1930.19
599.59	1922.87
599.94	1915.95
600.29	1908.33
600.64	1900.84
600.99	1892.59
601.34	1885.75
601.69	1877.22
602.04	1869.43
602.39	1861.14
602.74	1853.61
603.08	1847.32
603.43	1840.32
603.78	1832.40
604.13	1824.60
604.48	1816.56
604.83	1809.79
605.18	1802.82
605.53	1795.28
605.87	1787.70
606.22	1780.63
606.57	1772.71
606.92	1764.60
607.27	1756.76
607.62	1749.35
607.96	1742.23
608.31	1736.06
608.66	1728.32
609.01	1720.78
609.36	1712.67
609.70	1705.05
610.05	1697.38
610.40	1689.14
610.75	1680.50
611.10	1673.13
611.44	1663.70
611.79	1654.99
612.14	1645.71
612.49	1636.13
612.83	1627.48
613.18	1618.02
613.53	1608.47
613.88	1598.78
614.22	1590.04
614.57	1580.79
614.92	1571.48
615.27	1562.30
615.61	1552.18
615.96	1543.00
616.31	1534.44
616.65	1526.78
617.00	1518.23
617.35	1509.46
617.70	1500.64
618.04	1491.72
618.39	1482.35
618.74	1474.53
619.08	1465.80
619.43	1457.63
619.78	1449.90
620.12	1441.99
620.47	1434.20
620.82	1425.73
621.16	1417.46
621.51	1409.03
621.85	1400.80
622.20	1392.41
622.55	1384.00
622.89	1376.13
623.24	1368.36
623.59	1359.82
623.93	1351.40
624.28	1343.49
624.62	1335.39
624.97	1327.09
625.32	1319.18
625.66	1311.67
626.01	1304.24
626.35	1297.12
626.70	1289.60
627.04	1282.15
627.39	1274.54
627.73	1267.26
628.08	1260.58
628.43	1253.36
628.77	1246.03
629.12	1238.85
629.46	1232.17
629.81	1225.07
630.15	1217.72
630.50	1210.36
630.84	1203.00
631.19	1195.79
631.53	1188.88
631.88	1181.19
632.22	1173.90
632.57	1167.06
632.91	1159.77
633.26	1152.18
633.60	1144.96
633.95	1138.16
634.29	1130.79
634.64	1124.19
634.98	1116.74
635.32	1109.48
635.67	1102.98
636.01	1096.46
636.36	1089.82
636.70	1083.16
637.05	1076.68
637.39	1070.45
637.73	1064.24
638.08	1058.72
638.42	1052.76
638.77	1046.29
639.11	1040.21
639.45	1034.00
639.80	1027.37
640.14	1021.00
640.49	1014.80
640.83	1008.67
641.17	1002.25
641.52	996.33
641.86	989.83
642.20	983.93
642.55	977.37
642.89	970.99
643.23	964.67
643.58	958.81
643.92	952.22
644.26	945.85
644.61	939.65
644.95	933.57
645.29	927.10
645.64	920.55
645.98	914.30
646.32	908.52
646.66	902.32
647.01	896.56
647.35	890.81
647.69	884.65
648.04	878.65
648.38	872.70
648.72	866.49
649.06	860.41
649.41	854.43
649.75	848.72
650.09	842.88
650.43	836.87
650.78	830.46
651.12	824.82
651.46	819.13
651.80	813.38
652.14	807.36
652.49	801.50
652.83	795.70
653.17	789.78
653.51	783.92
653.85	778.33
654.20	772.51
654.54	766.64
654.88	761.24
655.22	755.51
655.56	749.72
655.90	744.02
656.25	738.39
656.59	732.94
656.93	727.85
657.27	722.67
657.61	717.30
657.95	712.15
658.29	706.96
658.64	701.71
658.98	696.50
659.32	691.20
659.66	686.09
660.00	680.80
660.34	675.70
660.68	670.45
661.02	665.35
661.36	660.69
661.70	655.93
662.05	651.25
662.39	646.90
662.73	642.61
663.07	638.45
663.41	634.14
663.75	629.57
664.09	624.80
664.43	620.00
664.77	615.78
665.11	611.45
665.45	607.00
665.79	602.64
666.13	598.32
666.47	594.12
666.81	590.04
667.15	586.05
667.49	582.15
667.83	578.30
668.17	574.54
668.51	570.67
668.85	567.05
669.19	563.36
669.53	559.32
669.87	555.32
670.21	551.43
670.55	547.45
670.89	544.14
671.23	540.86
671.57	537.48
671.91	533.86
672.25	530.37
672.58	526.84
672.92	523.52
673.26	520.46
673.60	517.24
673.94	513.78
674.28	510.59
674.62	507.45
674.96	504.34
675.30	501.18
675.64	498.00
675.97	494.75
676.31	491.81
676.65	488.97
676.99	486.35
677.33	483.32
677.67	480.55
678.01	477.30
678.34	474.28
678.68	471.35
679.02	468.34
679.36	465.54
679.70	462.81
680.04	459.88
680.37	456.79
680.71	453.98
681.05	451.42
681.39	448.71
681.73	446.04
682.06	443.55
682.40	440.94
682.74	438.31
683.08	435.92
683.42	433.11
683.75	430.49
684.09	427.93
684.43	425.46
684.77	422.95
685.10	420.47
685.44	417.99
685.78	415.65
686.12	413.43
686.45	411.10
686.79	408.84
687.13	406.81
687.46	404.66
687.80	402.62
688.14	400.40
688.48	398.34
688.81	396.01
689.15	393.75
689.49	391.62
689.82	389.45
690.16	387.01
690.50	384.86
690.83	382.69
691.17	380.43
691.51	378.24
691.84	376.14
692.18	374.25
692.52	372.24
692.85	370.45
693.19	368.54
693.52	366.59
693.86	364.59
694.20	362.65
694.53	360.71
694.87	358.67
695.21	356.69
695.54	354.71
695.88	352.86
696.21	351.02
696.55	349.26
696.88	347.52
697.22	345.84
697.56	344.22
697.89	342.59
698.23	340.97
698.56	339.52
698.90	337.99
699.23	336.31
699.57	334.70
699.90	332.89
700.24	331.27
700.58	329.66
700.91	328.06
701.25	326.53
701.58	325.17
701.92	323.81
702.25	322.41
702.59	321.05
702.92	319.75
703.26	318.49
703.59	317.13
703.93	315.99
704.26	314.74
704.60	313.49
704.93	312.18
705.26	310.85
705.60	309.53
705.93	308.26
706.27	307.10
706.60	305.97
706.94	304.91
707.27	303.80
707.61	302.75
707.94	301.58
708.27	300.45
708.61	299.25
708.94	298.10
709.28	297.01
709.61	295.93
709.94	294.84
710.28	293.69
710.61	292.74
710.95	291.52
711.28	290.74
711.61	289.68
711.95	288.82
712.28	287.89
712.61	286.89
712.95	285.99
713.28	285.09
713.61	284.15
713.95	283.27
714.28	282.37
714.61	281.43
714.95	280.60
715.28	279.66
715.61	278.79
715.95	277.90
716.28	277.06
716.61	276.21
716.95	275.30
717.28	274.51
717.61	273.66
717.94	272.92
718.28	271.93
718.61	271.11
718.94	270.31
719.27	269.56
719.61	268.90
719.94	268.18
720.27	267.45
720.60	266.73
720.94	266.01
721.27	265.41
721.60	264.71
721.93	264.19
722.27	263.66
722.60	263.03
722.93	262.45
723.26	261.88
723.59	261.25
723.93	260.80
724.26	260.21
724.59	259.60
724.92	259.01
725.25	258.50
725.59	258.06
725.92	257.61
726.25	257.08
726.58	256.55
726.91	256.02
727.24	255.57
727.57	255.04
727.91	254.47
728.24	253.90
728.57	253.49
728.90	252.92
729.23	252.36
729.56	252.03
729.89	251.57
730.22	251.06
730.55	250.66
730.89	250.14
731.22	249.65
731.55	249.22
731.88	248.79
732.21	248.33
732.54	247.81
732.87	247.30
733.20	246.86
733.53	246.40
733.86	245.95
734.19	245.49
734.52	245.12
734.85	244.82
735.18	244.40
735.51	244.00
735.84	243.69
736.17	243.39
736.50	242.83
736.83	242.69
737.16	242.43
737.49	242.12
737.82	241.77
738.15	241.47
738.48	241.12
738.81	240.81
739.14	240.47
739.47	240.14
739.80	239.79
740.13	239.44
740.46	239.13
740.79	238.85
741.12	238.46
741.45	238.15
741.78	237.83
742.11	237.53
742.44	237.22
742.77	236.92
743.10	236.65
743.43	236.40
743.75	235.89
744.08	235.76
744.41	235.44
744.74	235.15
745.07	234.85
745.40	234.58
745.73	234.36
746.06	234.06
746.39	233.80
746.71	233.53
747.04	233.29
747.37	233.03
747.70	232.82
748.03	232.61
748.36	232.41
748.68	232.03
749.01	231.84
749.34	231.64
749.67	231.39
750.00	231.12
750.33	230.99
750.65	230.80
750.98	230.30
751.31	230.02
751.64	229.82
751.97	229.72
752.29	229.59
752.62	229.34
752.95	229.13
753.28	228.95
753.60	228.69
753.93	228.53
754.26	228.24
754.59	227.98
754.91	227.75
755.24	227.48
755.57	227.41
755.90	227.20
756.22	226.93
756.55	226.75
756.88	226.54
757.20	226.36
757.53	226.10
757.86	225.95
758.19	225.80
758.51	225.61
758.84	225.30
759.17	225.08
759.49	224.83
759.82	224.76
760.15	224.64
760.47	224.52
760.80	224.33
761.13	224.22
761.45	224.00
761.78	223.82
762.11	223.65
762.43	223.46
762.76	223.28
763.08	223.14
763.41	222.99
763.74	222.82
764.06	222.58
764.39	222.42
764.71	222.26
765.04	222.09
765.37	221.99
765.69	221.85
766.02	221.68
766.34	221.59
766.67	221.41
767.00	221.28
767.32	221.25
767.65	221.25
767.97	221.12
768.30	221.08
768.62	220.98
768.95	220.89
769.27	220.75
769.60	220.68
769.92	220.53
770.25	220.39
770.57	220.21
770.90	220.14
771.22	220.05
771.55	219.97
771.87	219.89
772.20	219.69
772.52	219.73
772.85	219.88
773.17	219.77
773.50	219.63
773.82	219.48
774.15	219.28
774.47	219.10
774.80	218.97
775.12	218.85
775.45	218.84
775.77	218.77
776.09	218.66
776.42	218.58
776.74	218.61
777.07	218.50
777.39	218.50
777.72	218.39
778.04	218.35
778.36	218.21
778.69	218.18
779.01	218.18
779.33	217.95
779.66	217.64
779.98	217.55
780.31	217.54
780.63	217.54
780.95	217.51
781.28	217.39
781.60	217.38
781.92	217.26
782.25	217.15
782.57	217.09
782.89	217.05
783.22	216.92
783.54	216.81
783.86	216.72
784.19	216.64
784.51	216.57
784.83	216.43
785.16	216.42
785.48	216.37
785.80	216.32
786.12	216.29
786.45	216.28
786.77	216.22
787.09	216.14
787.42	216.03
787.74	215.95
788.06	215.92
788.38	215.78
788.71	215.74
789.03	215.73
789.35	215.70
789.67	215.61
789.99	215.65
790.32	215.55
790.64	215.56
790.96	215.66
791.28	215.60
791.61	215.47
791.93	215.43
792.25	215.40
792.57	215.48
792.89	215.46
793.21	215.41
793.54	215.43
793.86	215.35
794.18	215.29
794.50	215.26
794.82	215.22
795.14	215.20
795.47	215.18
795.79	215.11
796.11	215.03
796.43	215.01
796.75	214.98
797.07	215.01
797.39	214.94
797.71	214.77
798.04	214.74
798.36	214.83
798.68	214.81
799.00	214.72
799.32	214.67
799.64	214.65
799.96	214.65
800.28	214.65
800.60	214.57
800.92	214.58
801.24	214.52
801.56	214.47
801.89	214.47
802.21	214.46
802.53	214.43
802.85	214.41
803.17	214.47
803.49	214.36
803.81	214.27
804.13	214.29
804.45	214.24
804.77	214.28
805.09	214.21
805.41	214.10
805.73	214.10
806.05	213.89
806.37	213.85
806.69	213.76
807.01	213.68
807.33	213.73
807.65	213.65
807.97	213.71
808.28	213.72
808.60	213.72
808.92	213.70
809.24	213.81
809.56	213.79
809.88	213.77
810.20	213.73
810.52	213.72
810.84	213.70
811.16	213.70
811.48	213.64
811.80	213.71
812.12	213.68
812.43	213.66
812.75	213.75
813.07	213.66
813.39	213.61
813.71	213.61
814.03	213.60
814.35	213.64
814.67	213.54
814.98	213.41
815.30	213.35
815.62	213.23
815.94	213.10
816.26	213.05
816.58	212.92
816.89	212.98
817.21	212.92
817.53	212.89
817.85	212.88
818.17	212.84
818.48	212.71
818.80	212.77
819.12	212.72
819.44	212.66
819.76	212.65
820.07	212.61
820.39	212.52
820.71	212.50
821.03	212.44
821.34	212.40
821.66	212.47
821.98	212.48
822.30	212.52
822.61	212.57
822.93	212.51
823.25	212.57
823.57	212.52
823.88	212.53
824.20	212.55
824.52	212.55
824.83	212.52
825.15	212.54
825.47	212.45
825.79	212.49
826.10	212.37
826.42	212.35
826.74	212.43
827.05	212.43
827.37	212.40
827.69	212.43
828.00	212.45
828.32	212.44
828.64	212.43
828.95	212.51
829.27	212.45
829.58	212.51
829.90	212.44
830.22	212.45
830.53	212.40
830.85	212.38
831.17	212.32
831.48	212.34
831.80	212.41
832.11	212.40
832.43	212.32
832.75	212.33
833.06	212.42
833.38	212.39
833.69	212.35
834.01	212.35
834.32	212.30
834.64	212.26
834.96	212.19
835.27	212.20
835.59	212.14
835.90	212.05
836.22	212.03
836.53	212.07
836.85	212.01
837.16	212.18
837.48	212.19
837.79	212.27
838.11	212.25
838.42	212.25
838.74	212.30
839.05	212.33
839.37	212.42
839.68	212.27
840.00	212.21
840.31	212.25
840.63	212.22
840.94	212.25
841.26	212.22
841.57	212.32
841.88	212.35
842.20	212.30
842.51	212.22
842.83	212.19
843.14	212.26
843.46	212.29
843.77	212.17
844.08	212.02
844.40	211.94
844.71	211.95
845.03	211.85
845.34	211.83
845.65	211.80
845.97	211.74
846.28	211.76
846.60	211.82
846.91	211.81
847.22	211.79
847.54	211.81
847.85	211.86
848.16	211.76
848.48	211.73
848.79	211.79
849.10	211.97
849.42	212.01
849.73	211.87
850.04	211.85
850.36	211.86
850.67	211.90
850.98	211.93
851.30	211.93
851.61	211.88
851.92	211.78
852.23	211.84
852.55	211.85
852.86	211.84
853.17	211.79
853.49	211.76
853.80	211.83
854.11	211.86
854.42	211.82
854.74	211.85
855.05	211.78
855.36	211.73
855.67	211.64
855.99	211.61
856.30	211.83
856.61	211.85
856.92	211.84
857.23	211.86
857.55	211.79
857.86	211.75
858.17	211.80
858.48	211.86
858.79	211.80
859.11	211.85
859.42	211.93
859.73	211.89
860.04	211.95
860.35	211.81
860.66	211.65
860.98	211.70
861.29	211.70
861.60	211.72
861.91	211.69
862.22	211.70
862.53	211.71
862.84	211.62
863.16	211.66
863.47	211.65
863.78	211.62
864.09	211.70
864.40	211.69
864.71	211.73
865.02	211.80
865.33	211.82
865.64	211.72
865.95	211.71
866.27	211.80
866.58	211.80
866.89	211.87
867.20	211.90
867.51	211.83
867.82	211.78
868.13	211.82
868.44	211.81
868.75	211.86
869.06	211.76
869.37	211.67
869.68	211.62
869.99	211.60
870.30	211.64
870.61	211.64
870.92	211.71
871.23	211.67
871.54	211.68
871.85	211.61
872.16	211.65
872.47	211.54
872.78	211.50
873.09	211.50
873.40	211.45
873.71	211.46
874.02	211.52
874.33	211.53
874.64	211.41
874.95	211.42
875.26	211.34
875.56	211.41
875.87	211.35
876.18	211.28
876.49	211.43
876.80	211.45
877.11	211.35
877.42	211.24
877.73	211.26
878.04	211.15
878.35	211.19
878.66	211.18
878.96	211.24
879.27	211.19
879.58	211.16
879.89	211.15
880.20	211.19
880.51	211.15
880.82	211.15
881.12	211.21
881.43	211.22
881.74	211.21
882.05	211.11
882.36	211.14
882.67	211.20
882.97	211.00
883.28	210.95
883.59	210.99
883.90	211.01
884.21	211.01
884.51	211.14
884.82	211.13
885.13	211.08
885.44	211.10
885.74	211.10
886.05	211.04
886.36	211.04
886.67	211.06
886.98	211.12
887.28	211.11
887.59	211.10
887.90	211.05
888.20	211.00
888.51	211.10
888.82	211.11
889.13	211.20
889.43	211.40
889.74	211.37
890.05	211.35
890.35	211.32
890.66	211.34
890.97	211.21
891.28	211.22
891.58	211.32
891.89	211.30
892.20	211.25
892.50	211.23
892.81	211.26
893.12	211.25
893.42	211.27
893.73	211.29
894.04	211.34
894.34	211.36
894.65	211.41
894.95	211.34
895.26	211.31
895.57	211.37
895.87	211.20
896.18	211.33
896.48	211.34
896.79	211.42
897.10	211.43
897.40	211.45
897.71	211.44
898.01	211.32
898.32	211.36
898.63	211.40
898.93	211.45
899.24	211.41
899.54	211.40
899.85	211.40
900.15	211.38
900.46	211.38
900.76	211.46
901.07	211.42
901.38	211.53
901.68	211.60
901.99	211.45
902.29	211.50
902.60	211.46
902.90	211.42
903.21	211.42
903.51	211.41
903.82	211.45
904.12	211.44
904.43	211.50
904.73	211.45
905.03	211.50
905.34	211.63
905.64	211.59
905.95	211.64
906.25	211.61
906.56	211.65
906.86	211.64
907.17	211.63
907.47	211.65
907.77	211.56
908.08	211.45
908.38	211.40
908.69	211.38
908.99	211.35
909.30	211.35
909.60	211.35
909.90	211.35
910.21	211.35
910.51	211.40
910.81	211.40
911.12	211.43
911.42	211.36
911.73	211.22
912.03	211.24
912.33	211.19
912.64	211.19
912.94	211.07
913.24	211.03
913.55	210.98
913.85	211.00
914.15	211.03
914.46	211.04
914.76	211.00
915.06	210.94
915.37	210.90
915.67	210.88
915.97	210.83
916.27	210.77
916.58	210.74
916.88	210.75
917.18	210.73
917.49	210.82
917.79	210.82
918.09	210.88
918.39	210.95
918.70	210.95
919.00	210.88
919.30	211.00
919.60	210.95
919.91	210.93
920.21	210.89
920.51	210.85
920.81	210.88
921.12	210.97
921.42	211.02
921.72	211.03
922.02	211.11
922.32	211.09
922.63	211.10
922.93	211.15
923.23	211.08
923.53	211.07
923.83	210.97
924.13	210.97
924.44	210.92
924.74	210.90
925.04	210.86
925.34	210.90
925.64	210.84
925.94	210.86
926.24	211.00
926.55	210.96
926.85	210.98
927.15	210.92
927.45	210.89
927.75	210.82
928.05	210.84
928.35	210.82
928.65	210.88
928.95	210.90
929.26	210.86
929.56	210.85
929.86	210.89
930.16	210.92
930.46	211.00
930.76	211.03
931.06	211.00
931.36	211.01
931.66	211.06
931.96	211.11
932.26	211.21
932.56	211.07
932.86	211.11
933.16	211.12
933.46	211.12
933.76	211.18
934.06	211.22
934.36	211.30
934.66	211.25
934.96	211.17
935.26	211.12
935.56	211.13
935.86	211.18
936.16	211.17
936.46	211.10
936.76	211.06
937.06	211.02
937.36	211.04
937.66	211.03
937.96	210.99
938.26	210.99
938.56	210.87
938.86	210.85
939.16	210.85
939.46	210.88
939.76	210.92
940.06	210.90
940.35	210.90
940.65	210.78
940.95	210.85
941.25	210.95
941.55	210.99
941.85	210.99
942.15	210.96
942.45	210.91
942.75	210.90
943.04	210.90
943.34	210.90
943.64	210.86
943.94	210.85
944.24	210.85
944.54	210.79
944.84	210.82
945.13	210.83
945.43	210.85
945.73	210.89
946.03	210.83
946.33	210.80
946.62	210.76
946.92	210.75
947.22	210.75
947.52	210.68
947.82	210.68
948.11	210.61
948.41	210.62
948.71	210.64
949.01	210.63
949.31	210.62
949.60	210.65
949.90	210.69
950.20	210.65
950.50	210.63
950.79	210.61
951.09	210.67
951.39	210.65
951.69	210.55
951.98	210.49
952.28	210.56
952.58	210.53
952.87	210.52
953.17	210.52
953.47	210.45
953.76	210.52
954.06	210.49
954.36	210.50
954.66	210.50
954.95	210.55
955.25	210.59
955.55	210.58
955.84	210.58
956.14	210.65
956.44	210.70
956.73	210.67
957.03	210.68
957.32	210.65
957.62	210.67
957.92	210.81
958.21	210.88
958.51	211.02
958.81	211.08
959.10	211.13
959.40	211.23
959.69	211.23
959.99	211.24
960.29	211.27
960.58	211.29
960.88	211.36
961.17	211.33
961.47	211.34
961.76	211.26
962.06	211.22
962.36	211.15
962.65	211.14
962.95	211.14
963.24	211.14
963.54	211.08
963.83	211.07
964.13	211.07
964.42	211.02
964.72	210.84
965.01	210.80
965.31	210.77
965.60	210.72
965.90	210.86
966.19	210.78
966.49	210.68
966.78	210.70
967.08	210.63
967.37	210.68
967.67	210.67
967.96	210.83
968.26	210.76
968.55	210.77
968.85	210.79
969.14	210.77
969.43	210.76
969.73	210.81
970.02	210.84
970.32	210.78
970.61	210.76
970.91	210.78
971.20	210.79
971.49	210.80
971.79	210.79
972.08	210.69
972.38	210.66
972.67	210.77
972.96	210.76
973.26	210.75
973.55	210.78
973.85	210.80
974.14	210.73
974.43	210.85
974.73	210.78
975.02	210.78
975.31	210.79
975.61	210.79
975.90	210.80
976.19	210.78
976.49	210.77
976.78	210.74
977.07	210.73
977.37	210.75
977.66	210.75
977.95	210.69
978.24	210.67
978.54	210.70
978.83	210.62
979.12	210.57
979.42	210.58
979.71	210.52
980.00	210.47
980.29	210.50
980.59	210.43
980.88	210.46
981.17	210.51
981.46	210.54
981.76	210.53
982.05	210.59
982.34	210.60
982.63	210.59
982.93	210.61
983.22	210.72
983.51	210.70
983.80	210.72
984.09	210.82
984.39	210.84
984.68	210.87
984.97	210.87
985.26	210.89
985.55	210.84
985.85	210.80
986.14	210.87
986.43	210.85
986.72	210.91
987.01	210.90
987.30	210.90
987.59	210.88
987.89	210.85
988.18	210.82
988.47	210.78
988.76	210.81
989.05	210.79
989.34	210.65
989.63	210.73
989.92	210.67
990.22	210.63
990.51	210.64
990.80	210.64
991.09	210.66
991.38	210.75
991.67	210.77
991.96	210.78
992.25	210.75
992.54	210.69
992.83	210.63
993.12	210.60
993.41	210.68
993.70	210.74
993.99	210.77
994.28	210.72
994.58	210.73
994.87	210.73
995.16	210.78
995.45	210.78
995.74	210.72
996.03	210.82
996.32	210.83
996.61	210.79
996.90	210.77
997.19	210.81
997.48	210.71
997.77	210.68
998.06	210.70
998.34	210.78
998.63	210.77
998.92	210.75
999.21	210.80
999.50	210.74
999.79	210.73
1000.08	210.82
1000.37	210.90
1000.66	210.90
1000.95	210.97
1001.24	210.89
1001.53	210.95
1001.82	210.99
1002.11	210.97
1002.40	211.01
1002.68	211.10
1002.97	211.25
1003.26	211.20
1003.55	211.14
1003.84	211.18
1004.13	211.18
1004.42	211.08
1004.71	211.09
1004.99	211.08
1005.28	211.03
1005.57	210.99
1005.86	210.98
1006.15	210.95
1006.44	210.87
1006.72	210.93
1007.01	210.85
1007.30	210.88
1007.59	210.86
1007.88	210.82
1008.17	210.80
1008.45	210.75
1008.74	210.60
1009.03	210.49
1009.32	210.46
1009.60	210.47
1009.89	210.41
1010.18	210.45
1010.47	210.41
1010.76	210.40
1011.04	210.41
1011.33	210.46
1011.62	210.44
1011.91	210.42
1012.19	210.40
1012.48	210.40
1012.77	210.43
1013.05	210.45
1013.34	210.45
1013.63	210.47
1013.92	210.48
1014.20	210.45
1014.49	210.45
1014.78	210.50
1015.06	210.48
1015.35	210.55
1015.64	210.65
1015.92	210.75
1016.21	210.73
1016.50	210.75
1016.78	210.84
1017.07	210.88
1017.36	210.86
1017.64	210.86
1017.93	210.80
1018.22	210.84
1018.50	210.84
1018.79	210.78
1019.08	210.70
1019.36	210.73
1019.65	210.69
1019.93	210.67
1020.22	210.70
1020.51	210.76
1020.79	210.83
1021.08	211.35
1021.36	210.55
1021.65	211.00
1021.94	209.50
1022.22	210.40
1022.51	210.50
1022.79	210.75
1023.08	211.00
1023.36	212.15
1023.65	211.30
>>>>>End Processed Spectral Data<<<<<
