SpectraSuite Data File
++++++++++++++++++++++++++++++++++++
Date: Mon Feb 25 17:33:15 EST 2013
User: group
Dark Spectrum Present: No
Reference Spectrum Present: No
Number of Sampled Component Spectra: 1
Spectrometers: USB2E7196
Integration Time (usec): 52000 (USB2E7196)
Spectra Averaged: 20 (USB2E7196)
Boxcar Smoothing: 10 (USB2E7196)
Correct for Electrical Dark: No (USB2E7196)
Strobe/Lamp Enabled: No (USB2E7196)
Correct for Detector Non-linearity: No (USB2E7196)
Correct for Stray Light: No (USB2E7196)
Number of Pixels in Processed Spectrum: 2048
>>>>>Begin Processed Spectral Data<<<<<
339.09	0.00
339.48	198.75
339.86	200.30
340.24	203.20
340.63	203.60
341.01	206.95
341.39	206.65
341.78	207.85
342.16	209.85
342.54	208.60
342.93	198.56
343.31	208.64
343.69	209.25
344.07	209.76
344.46	210.12
344.84	210.44
345.22	210.70
345.60	210.91
345.99	211.08
346.37	211.16
346.75	211.29
347.13	211.31
347.52	211.39
347.90	211.49
348.28	211.58
348.66	211.60
349.05	211.64
349.43	211.74
349.81	211.80
350.19	211.81
350.57	211.80
350.96	211.74
351.34	211.80
351.72	211.83
352.10	211.87
352.48	211.89
352.87	212.02
353.25	212.03
353.63	212.06
354.01	212.14
354.39	212.25
354.77	212.37
355.15	212.51
355.54	212.51
355.92	212.55
356.30	212.60
356.68	212.77
357.06	212.82
357.44	212.85
357.82	212.96
358.20	213.05
358.58	213.15
358.97	213.30
359.35	213.36
359.73	213.47
360.11	213.55
360.49	213.65
360.87	213.65
361.25	213.78
361.63	213.94
362.01	214.02
362.39	214.06
362.77	214.04
363.15	214.03
363.53	214.12
363.91	214.13
364.29	214.13
364.67	214.04
365.05	214.10
365.43	214.11
365.81	214.14
366.19	214.22
366.57	214.33
366.95	214.37
367.33	214.31
367.71	214.28
368.09	214.29
368.47	214.25
368.85	214.34
369.23	214.31
369.61	214.19
369.99	214.24
370.37	214.22
370.75	214.27
371.13	214.18
371.51	214.11
371.89	214.11
372.27	214.14
372.65	214.14
373.03	214.11
373.41	214.11
373.78	213.98
374.16	213.87
374.54	213.68
374.92	213.55
375.30	213.52
375.68	213.48
376.06	213.44
376.44	213.43
376.82	213.28
377.19	213.24
377.57	213.25
377.95	213.10
378.33	213.03
378.71	212.99
379.09	212.98
379.47	212.95
379.84	212.89
380.22	212.82
380.60	212.73
380.98	212.59
381.36	212.55
381.73	212.45
382.11	212.49
382.49	212.59
382.87	212.59
383.25	212.63
383.62	212.80
384.00	212.70
384.38	212.65
384.76	212.71
385.13	212.72
385.51	212.66
385.89	212.66
386.27	212.55
386.64	212.55
387.02	212.57
387.40	212.52
387.78	212.45
388.15	212.43
388.53	212.38
388.91	212.42
389.29	212.35
389.66	212.44
390.04	212.34
390.42	212.27
390.79	212.23
391.17	212.16
391.55	211.98
391.92	211.99
392.30	212.03
392.68	211.92
393.05	211.95
393.43	211.98
393.81	211.93
394.18	211.98
394.56	211.87
394.94	211.91
395.31	211.94
395.69	212.04
396.06	212.05
396.44	212.11
396.82	212.06
397.19	212.19
397.57	212.17
397.95	212.27
398.32	212.20
398.70	212.21
399.07	212.22
399.45	212.18
399.82	212.25
400.20	212.27
400.58	212.34
400.95	212.24
401.33	212.31
401.70	212.49
402.08	212.60
402.45	212.72
402.83	212.75
403.20	212.86
403.58	212.91
403.95	213.00
404.33	213.14
404.71	213.25
405.08	213.43
405.46	213.61
405.83	213.70
406.21	213.89
406.58	214.09
406.96	214.27
407.33	214.43
407.70	214.61
408.08	214.93
408.45	215.14
408.83	215.36
409.20	215.56
409.58	215.63
409.95	215.89
410.33	216.16
410.70	216.40
411.08	216.73
411.45	217.09
411.82	217.37
412.20	217.77
412.57	218.25
412.95	218.54
413.32	219.04
413.69	219.50
414.07	220.03
414.44	220.60
414.82	221.19
415.19	221.95
415.56	222.64
415.94	223.34
416.31	224.23
416.68	225.14
417.06	226.17
417.43	227.25
417.81	228.34
418.18	229.46
418.55	230.61
418.93	231.91
419.30	233.12
419.67	234.47
420.04	235.82
420.42	237.34
420.79	239.13
421.16	240.84
421.54	242.67
421.91	244.48
422.28	246.45
422.66	248.57
423.03	250.65
423.40	252.78
423.77	255.04
424.15	257.28
424.52	259.63
424.89	262.16
425.26	264.59
425.64	266.91
426.01	269.50
426.38	272.23
426.75	275.01
427.13	277.95
427.50	281.05
427.87	284.15
428.24	287.19
428.61	290.10
428.99	293.29
429.36	296.82
429.73	300.34
430.10	303.79
430.47	307.29
430.85	311.00
431.22	314.93
431.59	319.09
431.96	323.08
432.33	327.42
432.70	331.66
433.08	336.55
433.45	341.15
433.82	345.85
434.19	351.00
434.56	355.97
434.93	360.83
435.30	365.59
435.68	370.87
436.05	376.11
436.42	381.18
436.79	385.94
437.16	390.92
437.53	396.35
437.90	401.61
438.27	406.68
438.64	411.91
439.01	416.85
439.38	421.15
439.75	425.29
440.13	430.15
440.50	434.62
440.87	438.22
441.24	442.13
441.61	446.26
441.98	449.28
442.35	452.97
442.72	456.50
443.09	460.01
443.46	462.03
443.83	463.46
444.20	464.75
444.57	466.46
444.94	467.25
445.31	467.83
445.68	468.56
446.05	468.79
446.42	468.22
446.79	467.42
447.16	466.51
447.53	465.88
447.90	463.69
448.27	461.57
448.64	458.82
449.01	456.67
449.37	452.94
449.74	449.45
450.11	445.22
450.48	440.70
450.85	436.14
451.22	432.18
451.59	428.33
451.96	424.67
452.33	419.85
452.70	415.55
453.07	410.60
453.43	405.35
453.80	400.42
454.17	395.71
454.54	391.17
454.91	386.48
455.28	381.84
455.65	377.54
456.02	373.18
456.38	369.39
456.75	364.68
457.12	360.93
457.49	357.19
457.86	353.40
458.23	350.23
458.59	346.61
458.96	343.12
459.33	339.98
459.70	336.77
460.07	334.26
460.43	331.43
460.80	328.73
461.17	326.41
461.54	324.05
461.91	321.58
462.27	319.26
462.64	317.16
463.01	314.88
463.38	312.75
463.74	310.54
464.11	308.68
464.48	307.18
464.85	305.34
465.21	304.03
465.58	302.56
465.95	300.78
466.32	299.40
466.68	297.98
467.05	296.60
467.42	295.31
467.78	293.93
468.15	292.47
468.52	291.40
468.88	290.02
469.25	288.76
469.62	287.84
469.98	286.76
470.35	285.84
470.72	284.97
471.08	284.04
471.45	283.29
471.82	282.60
472.18	281.74
472.55	281.22
472.92	280.41
473.28	279.84
473.65	279.31
474.02	278.79
474.38	278.44
474.75	278.04
475.11	277.58
475.48	277.33
475.85	277.21
476.21	276.99
476.58	276.87
476.94	276.82
477.31	276.75
477.67	276.72
478.04	276.78
478.41	276.85
478.77	277.11
479.14	277.23
479.50	277.44
479.87	277.73
480.23	278.14
480.60	278.54
480.96	279.05
481.33	279.68
481.69	280.25
482.06	280.85
482.42	281.55
482.79	282.29
483.15	282.99
483.52	283.98
483.88	284.97
484.25	286.07
484.61	287.20
484.98	288.34
485.34	289.78
485.71	291.12
486.07	292.50
486.44	293.83
486.80	295.34
487.17	296.98
487.53	298.77
487.90	300.52
488.26	302.54
488.62	304.50
488.99	306.54
489.35	308.66
489.72	310.95
490.08	313.37
490.44	315.90
490.81	318.68
491.17	321.32
491.54	324.20
491.90	327.19
492.26	330.35
492.63	333.64
492.99	337.04
493.36	340.69
493.72	344.61
494.08	348.62
494.45	352.99
494.81	357.40
495.17	361.90
495.54	366.81
495.90	371.80
496.26	377.02
496.63	382.48
496.99	388.29
497.35	394.27
497.72	400.59
498.08	407.11
498.44	413.83
498.80	420.97
499.17	428.46
499.53	436.07
499.89	444.08
500.26	452.24
500.62	460.53
500.98	469.47
501.34	478.57
501.71	488.03
502.07	497.63
502.43	507.62
502.79	517.96
503.16	528.65
503.52	539.58
503.88	550.86
504.24	562.48
504.60	574.31
504.97	586.59
505.33	599.11
505.69	612.49
506.05	625.93
506.41	639.49
506.78	653.10
507.14	667.25
507.50	681.80
507.86	696.80
508.22	712.07
508.59	727.53
508.95	743.61
509.31	759.78
509.67	776.58
510.03	793.57
510.39	811.20
510.75	828.88
511.12	846.85
511.48	865.05
511.84	883.53
512.20	902.29
512.56	921.49
512.92	940.78
513.28	959.98
513.64	979.74
514.00	999.75
514.37	1020.26
514.73	1041.10
515.09	1062.04
515.45	1083.08
515.81	1104.34
516.17	1125.63
516.53	1147.02
516.89	1168.65
517.25	1190.01
517.61	1211.47
517.97	1232.74
518.33	1254.15
518.69	1276.18
519.05	1298.49
519.41	1320.74
519.77	1343.62
520.13	1365.90
520.49	1388.25
520.85	1411.13
521.21	1433.73
521.57	1456.71
521.93	1478.72
522.29	1501.47
522.65	1523.94
523.01	1546.31
523.37	1568.64
523.73	1590.77
524.09	1613.03
524.45	1635.36
524.81	1658.16
525.17	1680.90
525.53	1703.52
525.89	1726.03
526.25	1747.99
526.61	1769.23
526.97	1790.87
527.33	1812.07
527.68	1833.67
528.04	1854.87
528.40	1875.17
528.76	1895.67
529.12	1916.37
529.48	1938.14
529.84	1958.39
530.20	1978.69
530.56	1999.02
530.91	2019.70
531.27	2040.48
531.63	2060.69
531.99	2080.47
532.35	2099.54
532.71	2118.39
533.07	2137.77
533.42	2156.34
533.78	2175.07
534.14	2193.72
534.50	2210.94
534.86	2228.87
535.21	2245.35
535.57	2262.89
535.93	2280.30
536.29	2297.37
536.65	2313.95
537.00	2329.12
537.36	2344.58
537.72	2359.81
538.08	2375.37
538.44	2390.34
538.79	2405.19
539.15	2419.83
539.51	2434.65
539.87	2449.90
540.22	2464.25
540.58	2479.02
540.94	2493.66
541.29	2506.95
541.65	2519.37
542.01	2532.85
542.37	2544.77
542.72	2557.42
543.08	2568.70
543.44	2580.47
543.79	2590.67
544.15	2600.80
544.51	2611.91
544.87	2622.79
545.22	2632.20
545.58	2640.58
545.94	2648.12
546.29	2654.81
546.65	2660.96
547.01	2667.30
547.36	2672.90
547.72	2678.69
548.07	2682.81
548.43	2686.63
548.79	2690.42
549.14	2694.85
549.50	2699.32
549.86	2703.21
550.21	2707.12
550.57	2711.00
550.92	2713.74
551.28	2716.45
551.64	2719.23
551.99	2721.78
552.35	2723.46
552.70	2725.82
553.06	2728.61
553.41	2731.51
553.77	2734.51
554.13	2736.60
554.48	2738.24
554.84	2739.78
555.19	2740.41
555.55	2740.94
555.90	2741.42
556.26	2741.79
556.61	2741.57
556.97	2740.20
557.32	2739.90
557.68	2738.25
558.03	2737.08
558.39	2735.51
558.74	2735.08
559.10	2733.77
559.45	2732.11
559.81	2730.95
560.16	2728.50
560.52	2726.02
560.87	2723.04
561.23	2719.24
561.58	2717.42
561.94	2714.48
562.29	2710.65
562.64	2708.70
563.00	2706.41
563.35	2704.20
563.71	2702.83
564.06	2700.90
564.42	2698.97
564.77	2696.58
565.12	2694.61
565.48	2691.01
565.83	2688.35
566.19	2685.38
566.54	2681.10
566.89	2677.24
567.25	2673.68
567.60	2670.29
567.96	2666.47
568.31	2662.99
568.66	2659.21
569.02	2654.37
569.37	2648.98
569.72	2645.32
570.08	2639.57
570.43	2633.82
570.78	2628.13
571.14	2621.22
571.49	2614.59
571.84	2608.81
572.20	2601.95
572.55	2595.73
572.90	2589.30
573.26	2581.96
573.61	2574.63
573.96	2568.25
574.31	2560.14
574.67	2551.89
575.02	2543.58
575.37	2535.04
575.72	2526.29
576.08	2518.80
576.43	2510.28
576.78	2503.00
577.13	2494.72
577.49	2486.57
577.84	2478.90
578.19	2471.33
578.54	2464.10
578.90	2457.27
579.25	2448.62
579.60	2439.30
579.95	2429.57
580.30	2421.49
580.66	2413.20
581.01	2404.25
581.36	2394.80
581.71	2386.48
582.06	2377.68
582.42	2369.76
582.77	2360.67
583.12	2351.56
583.47	2342.85
583.82	2334.40
584.17	2324.75
584.53	2315.65
584.88	2306.93
585.23	2297.55
585.58	2287.60
585.93	2277.82
586.28	2268.45
586.63	2259.36
586.98	2251.09
587.34	2242.95
587.69	2233.93
588.04	2225.07
588.39	2216.55
588.74	2207.78
589.09	2199.27
589.44	2190.04
589.79	2181.26
590.14	2173.59
590.49	2165.07
590.84	2155.70
591.19	2147.48
591.54	2139.02
591.89	2129.11
592.25	2119.82
592.60	2110.39
592.95	2101.03
593.30	2091.90
593.65	2082.04
594.00	2072.35
594.35	2064.06
594.70	2054.82
595.05	2045.87
595.40	2036.81
595.75	2027.12
596.10	2018.59
596.45	2009.99
596.80	2002.23
597.15	1993.74
597.50	1984.59
597.85	1976.16
598.19	1967.78
598.54	1959.27
598.89	1951.10
599.24	1944.39
599.59	1937.21
599.94	1930.18
600.29	1922.63
600.64	1914.57
600.99	1906.05
601.34	1899.11
601.69	1890.22
602.04	1881.95
602.39	1873.71
602.74	1866.15
603.08	1859.66
603.43	1852.32
603.78	1844.18
604.13	1835.78
604.48	1827.75
604.83	1820.52
605.18	1813.77
605.53	1806.35
605.87	1798.49
606.22	1791.42
606.57	1783.22
606.92	1774.93
607.27	1766.73
607.62	1759.34
607.96	1752.32
608.31	1746.46
608.66	1738.44
609.01	1731.11
609.36	1723.62
609.70	1715.91
610.05	1708.00
610.40	1699.75
610.75	1691.58
611.10	1683.99
611.44	1674.91
611.79	1665.79
612.14	1656.70
612.49	1647.02
612.83	1638.10
613.18	1628.57
613.53	1619.00
613.88	1609.33
614.22	1600.34
614.57	1591.15
614.92	1581.87
615.27	1572.36
615.61	1562.21
615.96	1553.01
616.31	1544.52
616.65	1536.55
617.00	1528.29
617.35	1519.66
617.70	1510.70
618.04	1501.66
618.39	1492.23
618.74	1483.99
619.08	1475.46
619.43	1466.98
619.78	1459.28
620.12	1451.11
620.47	1443.44
620.82	1435.22
621.16	1427.23
621.51	1419.02
621.85	1410.76
622.20	1402.09
622.55	1393.82
622.89	1385.75
623.24	1377.92
623.59	1368.97
623.93	1360.25
624.28	1351.80
624.62	1343.79
624.97	1335.65
625.32	1327.62
625.66	1320.14
626.01	1312.90
626.35	1305.71
626.70	1297.99
627.04	1290.35
627.39	1282.92
627.73	1275.34
628.08	1268.38
628.43	1260.91
628.77	1253.35
629.12	1245.98
629.46	1239.44
629.81	1232.16
630.15	1224.74
630.50	1217.11
630.84	1210.04
631.19	1202.66
631.53	1195.76
631.88	1187.88
632.22	1180.45
632.57	1173.73
632.91	1166.31
633.26	1158.81
633.60	1151.54
633.95	1144.75
634.29	1137.18
634.64	1130.33
634.98	1123.27
635.32	1116.11
635.67	1109.56
636.01	1102.94
636.36	1096.18
636.70	1089.50
637.05	1082.93
637.39	1076.68
637.73	1070.61
638.08	1064.80
638.42	1059.15
638.77	1052.84
639.11	1046.70
639.45	1040.60
639.80	1033.85
640.14	1027.35
640.49	1021.23
640.83	1015.06
641.17	1008.70
641.52	1002.81
641.86	996.26
642.20	989.95
642.55	983.19
642.89	976.65
643.23	970.22
643.58	964.17
643.92	957.41
644.26	951.09
644.61	945.00
644.95	938.81
645.29	932.37
645.64	925.66
645.98	919.30
646.32	913.48
646.66	907.34
647.01	901.41
647.35	895.70
647.69	889.43
648.04	883.29
648.38	877.52
648.72	871.38
649.06	865.27
649.41	859.37
649.75	853.73
650.09	848.00
650.43	842.10
650.78	835.95
651.12	830.18
651.46	824.58
651.80	818.58
652.14	812.45
652.49	806.43
652.83	800.75
653.17	794.73
653.51	788.76
653.85	782.95
654.20	777.15
654.54	771.20
654.88	765.63
655.22	760.04
655.56	754.03
655.90	748.21
656.25	742.53
656.59	737.00
656.93	731.62
657.27	726.39
657.61	720.95
657.95	715.93
658.29	710.80
658.64	705.59
658.98	700.39
659.32	695.19
659.66	690.16
660.00	684.63
660.34	679.38
660.68	674.33
661.02	669.37
661.36	664.68
661.70	659.89
662.05	655.14
662.39	650.58
662.73	646.33
663.07	642.02
663.41	637.64
663.75	632.97
664.09	628.26
664.43	623.41
664.77	619.10
665.11	614.47
665.45	609.99
665.79	605.46
666.13	601.14
666.47	596.92
666.81	592.78
667.15	588.79
667.49	584.94
667.83	580.96
668.17	577.09
668.51	573.15
668.85	569.49
669.19	565.81
669.53	561.86
669.87	557.74
670.21	553.86
670.55	550.08
670.89	546.64
671.23	543.25
671.57	539.93
671.91	536.31
672.25	532.88
672.58	529.35
672.92	525.87
673.26	522.68
673.60	519.44
673.94	515.98
674.28	512.77
674.62	509.70
674.96	506.44
675.30	503.25
675.64	500.08
675.97	496.73
676.31	493.72
676.65	490.81
676.99	488.11
677.33	485.11
677.67	482.19
678.01	479.04
678.34	476.04
678.68	473.10
679.02	470.09
679.36	467.27
679.70	464.59
680.04	461.73
680.37	458.72
680.71	456.02
681.05	453.53
681.39	450.77
681.73	448.05
682.06	445.49
682.40	442.97
682.74	440.41
683.08	438.04
683.42	435.43
683.75	432.92
684.09	430.32
684.43	427.91
684.77	425.31
685.10	422.93
685.44	420.47
685.78	417.91
686.12	415.83
686.45	413.39
686.79	410.99
687.13	408.95
687.46	406.85
687.80	404.58
688.14	402.16
688.48	400.05
688.81	397.83
689.15	395.57
689.49	393.34
689.82	391.15
690.16	388.75
690.50	386.33
690.83	384.03
691.17	381.74
691.51	379.44
691.84	377.47
692.18	375.42
692.52	373.53
692.85	371.71
693.19	369.70
693.52	367.81
693.86	365.83
694.20	363.86
694.53	361.98
694.87	359.99
695.21	358.11
695.54	356.18
695.88	354.21
696.21	352.48
696.55	350.76
696.88	348.99
697.22	347.35
697.56	345.73
697.89	344.07
698.23	342.61
698.56	341.11
698.90	339.52
699.23	337.83
699.57	336.11
699.90	334.50
700.24	332.80
700.58	331.14
700.91	329.71
701.25	328.29
701.58	326.77
701.92	325.37
702.25	324.11
702.59	322.74
702.92	321.41
703.26	320.03
703.59	318.71
703.93	317.58
704.26	316.28
704.60	315.14
704.93	314.00
705.26	312.59
705.60	311.37
705.93	310.11
706.27	309.02
706.60	307.94
706.94	306.84
707.27	305.71
707.61	304.72
707.94	303.60
708.27	302.38
708.61	301.28
708.94	300.21
709.28	298.97
709.61	297.84
709.94	296.82
710.28	295.73
710.61	294.65
710.95	293.36
711.28	292.41
711.61	291.26
711.95	290.29
712.28	289.34
712.61	288.35
712.95	287.35
713.28	286.40
713.61	285.38
713.95	284.37
714.28	283.37
714.61	282.34
714.95	281.41
715.28	280.47
715.61	279.54
715.95	278.70
716.28	277.79
716.61	277.03
716.95	276.09
717.28	275.31
717.61	274.47
717.94	273.78
718.28	272.94
718.61	272.20
718.94	271.38
719.27	270.62
719.61	269.94
719.94	269.25
720.27	268.46
720.60	267.77
720.94	267.07
721.27	266.49
721.60	265.92
721.93	265.29
722.27	264.75
722.60	264.12
722.93	263.36
723.26	262.82
723.59	262.12
723.93	261.54
724.26	260.91
724.59	260.32
724.92	259.69
725.25	259.18
725.59	258.57
725.92	258.08
726.25	257.59
726.58	257.01
726.91	256.50
727.24	256.02
727.57	255.50
727.91	254.94
728.24	254.49
728.57	253.98
728.90	253.47
729.23	252.94
729.56	252.60
729.89	252.15
730.22	251.67
730.55	251.25
730.89	250.81
731.22	250.35
731.55	249.94
731.88	249.51
732.21	249.00
732.54	248.66
732.87	248.20
733.20	247.75
733.53	247.41
733.86	246.98
734.19	246.50
734.52	246.12
734.85	245.82
735.18	245.41
735.51	245.02
735.84	244.68
736.17	244.31
736.50	243.78
736.83	243.60
737.16	243.24
737.49	242.80
737.82	242.42
738.15	242.04
738.48	241.66
738.81	241.34
739.14	240.96
739.47	240.58
739.80	240.21
740.13	239.83
740.46	239.38
740.79	238.97
741.12	238.60
741.45	238.24
741.78	237.85
742.11	237.53
742.44	237.28
742.77	236.97
743.10	236.62
743.43	236.34
743.75	235.90
744.08	235.81
744.41	235.46
744.74	235.18
745.07	234.88
745.40	234.61
745.73	234.39
746.06	234.20
746.39	233.92
746.71	233.65
747.04	233.31
747.37	233.07
747.70	232.89
748.03	232.65
748.36	232.49
748.68	232.29
749.01	232.02
749.34	231.68
749.67	231.46
750.00	231.24
750.33	231.10
750.65	230.85
750.98	230.40
751.31	230.25
751.64	230.07
751.97	229.98
752.29	229.67
752.62	229.33
752.95	229.01
753.28	228.76
753.60	228.60
753.93	228.45
754.26	228.20
754.59	227.95
754.91	227.72
755.24	227.48
755.57	227.14
755.90	226.88
756.22	226.76
756.55	226.55
756.88	226.30
757.20	226.00
757.53	225.81
757.86	225.65
758.19	225.47
758.51	225.27
758.84	224.99
759.17	224.87
759.49	224.75
759.82	224.68
760.15	224.59
760.47	224.33
760.80	224.13
761.13	223.99
761.45	223.83
761.78	223.74
762.11	223.57
762.43	223.52
762.76	223.35
763.08	223.21
763.41	223.06
763.74	223.01
764.06	222.81
764.39	222.63
764.71	222.46
765.04	222.37
765.37	222.17
765.69	222.08
766.02	221.97
766.34	221.87
766.67	221.74
767.00	221.61
767.32	221.65
767.65	221.69
767.97	221.61
768.30	221.51
768.62	221.37
768.95	221.21
769.27	221.13
769.60	221.15
769.92	221.01
770.25	220.84
770.57	220.67
770.90	220.61
771.22	220.50
771.55	220.38
771.87	220.25
772.20	220.18
772.52	220.12
772.85	220.27
773.17	220.13
773.50	220.02
773.82	219.94
774.15	219.74
774.47	219.57
774.80	219.45
775.12	219.38
775.45	219.26
775.77	219.19
776.09	219.05
776.42	218.84
776.74	218.81
777.07	218.76
777.39	218.65
777.72	218.59
778.04	218.54
778.36	218.41
778.69	218.35
779.01	218.28
779.33	218.09
779.66	217.75
779.98	217.66
780.31	217.57
780.63	217.58
780.95	217.52
781.28	217.42
781.60	217.40
781.92	217.32
782.25	217.27
782.57	217.28
782.89	217.23
783.22	217.22
783.54	217.15
783.86	217.06
784.19	217.04
784.51	216.98
784.83	216.90
785.16	216.85
785.48	216.78
785.80	216.77
786.12	216.73
786.45	216.66
786.77	216.68
787.09	216.61
787.42	216.39
787.74	216.32
788.06	216.28
788.38	216.16
788.71	216.11
789.03	216.08
789.35	216.06
789.67	216.05
789.99	216.02
790.32	215.92
790.64	215.86
790.96	216.00
791.28	215.98
791.61	216.00
791.93	216.00
792.25	215.99
792.57	216.02
792.89	216.02
793.21	216.02
793.54	215.88
793.86	215.83
794.18	215.82
794.50	215.78
794.82	215.70
795.14	215.65
795.47	215.68
795.79	215.63
796.11	215.49
796.43	215.46
796.75	215.42
797.07	215.42
797.39	215.40
797.71	215.18
798.04	215.18
798.36	215.11
798.68	215.09
799.00	215.05
799.32	214.98
799.64	214.96
799.96	214.92
800.28	214.96
800.60	214.90
800.92	214.90
801.24	214.77
801.56	214.77
801.89	214.81
802.21	214.78
802.53	214.75
802.85	214.77
803.17	214.76
803.49	214.65
803.81	214.61
804.13	214.56
804.45	214.54
804.77	214.42
805.09	214.36
805.41	214.38
805.73	214.29
806.05	214.22
806.37	214.19
806.69	214.12
807.01	214.09
807.33	214.05
807.65	213.93
807.97	214.08
808.28	214.06
808.60	213.96
808.92	213.82
809.24	213.88
809.56	213.80
809.88	213.70
810.20	213.72
810.52	213.70
810.84	213.65
811.16	213.66
811.48	213.58
811.80	213.58
812.12	213.53
812.43	213.54
812.75	213.46
813.07	213.38
813.39	213.35
813.71	213.32
814.03	213.32
814.35	213.36
814.67	213.32
814.98	213.34
815.30	213.27
815.62	213.22
815.94	213.10
816.26	213.15
816.58	213.12
816.89	213.15
817.21	213.03
817.53	213.02
817.85	212.99
818.17	212.98
818.48	212.97
818.80	212.91
819.12	212.90
819.44	212.88
819.76	212.81
820.07	212.85
820.39	212.84
820.71	212.84
821.03	212.85
821.34	212.72
821.66	212.69
821.98	212.77
822.30	212.75
822.61	212.89
822.93	212.77
823.25	212.74
823.57	212.69
823.88	212.76
824.20	212.78
824.52	212.79
824.83	212.84
825.15	212.79
825.47	212.82
825.79	212.74
826.10	212.73
826.42	212.74
826.74	212.70
827.05	212.60
827.37	212.61
827.69	212.59
828.00	212.52
828.32	212.47
828.64	212.42
828.95	212.60
829.27	212.51
829.58	212.56
829.90	212.57
830.22	212.50
830.53	212.45
830.85	212.35
831.17	212.24
831.48	212.20
831.80	212.24
832.11	212.21
832.43	212.27
832.75	212.28
833.06	212.37
833.38	212.28
833.69	212.25
834.01	212.20
834.32	212.13
834.64	212.23
834.96	212.20
835.27	212.15
835.59	212.00
835.90	211.93
836.22	211.93
836.53	211.93
836.85	211.95
837.16	212.13
837.48	212.22
837.79	212.29
838.11	212.31
838.42	212.27
838.74	212.30
839.05	212.28
839.37	212.24
839.68	212.09
840.00	212.08
840.31	212.16
840.63	212.19
840.94	212.22
841.26	212.14
841.57	212.18
841.88	212.25
842.20	212.21
842.51	212.16
842.83	212.14
843.14	212.24
843.46	212.25
843.77	212.12
844.08	212.07
844.40	211.98
844.71	211.92
845.03	211.95
845.34	211.94
845.65	211.93
845.97	211.95
846.28	212.00
846.60	212.04
846.91	212.02
847.22	212.02
847.54	212.06
847.85	212.09
848.16	212.00
848.48	212.01
848.79	212.09
849.10	212.15
849.42	212.13
849.73	211.99
850.04	211.92
850.36	211.86
850.67	211.91
850.98	211.90
851.30	211.95
851.61	211.85
851.92	211.79
852.23	211.82
852.55	211.86
852.86	211.78
853.17	211.84
853.49	211.86
853.80	211.91
854.11	211.89
854.42	211.86
854.74	211.87
855.05	211.80
855.36	211.75
855.67	211.71
855.99	211.71
856.30	211.92
856.61	211.92
856.92	211.95
857.23	211.93
857.55	211.95
857.86	211.96
858.17	211.96
858.48	211.94
858.79	211.93
859.11	211.87
859.42	211.95
859.73	211.88
860.04	211.95
860.35	211.79
860.66	211.80
860.98	211.87
861.29	211.89
861.60	211.88
861.91	211.86
862.22	211.88
862.53	211.83
862.84	211.57
863.16	211.66
863.47	211.62
863.78	211.66
864.09	211.69
864.40	211.67
864.71	211.75
865.02	211.77
865.33	211.76
865.64	211.83
865.95	211.80
866.27	211.90
866.58	211.83
866.89	211.90
867.20	211.85
867.51	211.82
867.82	211.74
868.13	211.80
868.44	211.81
868.75	211.77
869.06	211.80
869.37	211.87
869.68	211.75
869.99	211.82
870.30	211.77
870.61	211.72
870.92	211.66
871.23	211.59
871.54	211.56
871.85	211.54
872.16	211.51
872.47	211.40
872.78	211.28
873.09	211.26
873.40	211.24
873.71	211.19
874.02	211.18
874.33	211.26
874.64	211.20
874.95	211.22
875.26	211.18
875.56	211.15
875.87	211.10
876.18	211.13
876.49	211.22
876.80	211.24
877.11	211.21
877.42	211.23
877.73	211.20
878.04	211.18
878.35	211.14
878.66	211.09
878.96	211.14
879.27	211.10
879.58	211.07
879.89	211.04
880.20	211.08
880.51	211.03
880.82	210.98
881.12	210.94
881.43	210.84
881.74	210.83
882.05	210.85
882.36	210.87
882.67	210.92
882.97	210.72
883.28	210.67
883.59	210.66
883.90	210.65
884.21	210.69
884.51	210.65
884.82	210.69
885.13	210.74
885.44	210.79
885.74	210.82
886.05	210.80
886.36	210.88
886.67	210.89
886.98	210.99
887.28	211.05
887.59	211.15
887.90	211.14
888.20	211.12
888.51	211.12
888.82	211.11
889.13	211.10
889.43	211.25
889.74	211.22
890.05	211.26
890.35	211.29
890.66	211.25
890.97	211.25
891.28	211.26
891.58	211.20
891.89	211.15
892.20	211.14
892.50	211.18
892.81	211.07
893.12	211.01
893.42	210.91
893.73	210.84
894.04	210.75
894.34	210.80
894.65	210.83
894.95	210.81
895.26	210.84
895.57	210.89
895.87	210.77
896.18	210.84
896.48	210.81
896.79	210.81
897.10	210.88
897.40	210.96
897.71	210.90
898.01	210.92
898.32	210.99
898.63	211.02
898.93	210.92
899.24	210.98
899.54	210.96
899.85	210.97
900.15	210.96
900.46	211.04
900.76	211.04
901.07	211.10
901.38	211.09
901.68	211.10
901.99	211.04
902.29	211.07
902.60	211.02
902.90	211.05
903.21	211.00
903.51	210.98
903.82	210.91
904.12	210.96
904.43	210.96
904.73	210.96
905.03	210.93
905.34	211.20
905.64	211.22
905.95	211.31
906.25	211.31
906.56	211.30
906.86	211.31
907.17	211.35
907.47	211.39
907.77	211.38
908.08	211.35
908.38	211.37
908.69	211.31
908.99	211.39
909.30	211.42
909.60	211.44
909.90	211.47
910.21	211.51
910.51	211.44
910.81	211.43
911.12	211.43
911.42	211.49
911.73	211.29
912.03	211.30
912.33	211.28
912.64	211.28
912.94	211.29
913.24	211.20
913.55	211.21
913.85	211.11
914.15	211.10
914.46	211.09
914.76	211.10
915.06	211.12
915.37	211.05
915.67	210.95
915.97	211.00
916.27	210.95
916.58	210.96
916.88	210.98
917.18	210.99
917.49	211.10
917.79	211.08
918.09	211.08
918.39	211.13
918.70	211.14
919.00	211.17
919.30	211.26
919.60	211.28
919.91	211.28
920.21	211.33
920.51	211.35
920.81	211.35
921.12	211.34
921.42	211.26
921.72	211.26
922.02	211.30
922.32	211.30
922.63	211.29
922.93	211.35
923.23	211.35
923.53	211.35
923.83	211.19
924.13	211.14
924.44	211.11
924.74	211.08
925.04	211.09
925.34	211.07
925.64	211.05
925.94	210.96
926.24	210.97
926.55	210.98
926.85	211.04
927.15	211.07
927.45	211.01
927.75	211.05
928.05	211.10
928.35	211.10
928.65	211.06
928.95	211.10
929.26	211.03
929.56	211.10
929.86	211.15
930.16	211.20
930.46	211.20
930.76	211.22
931.06	211.19
931.36	211.14
931.66	211.18
931.96	211.12
932.26	211.14
932.56	211.05
932.86	211.04
933.16	211.02
933.46	211.01
933.76	211.02
934.06	211.06
934.36	211.09
934.66	211.09
934.96	211.10
935.26	211.05
935.56	211.09
935.86	211.02
936.16	210.97
936.46	210.90
936.76	210.94
937.06	210.90
937.36	210.94
937.66	210.99
937.96	210.99
938.26	211.00
938.56	211.05
938.86	211.13
939.16	211.17
939.46	211.14
939.76	211.17
940.06	211.15
940.35	211.19
940.65	211.19
940.95	211.24
941.25	211.22
941.55	211.26
941.85	211.21
942.15	211.25
942.45	211.30
942.75	211.34
943.04	211.32
943.34	211.45
943.64	211.37
943.94	211.30
944.24	211.27
944.54	211.30
944.84	211.34
945.13	211.35
945.43	211.34
945.73	211.32
946.03	211.22
946.33	211.28
946.62	211.23
946.92	211.20
947.22	211.17
947.52	211.21
947.82	211.21
948.11	211.28
948.41	211.30
948.71	211.20
949.01	211.18
949.31	211.21
949.60	211.16
949.90	211.22
950.20	211.21
950.50	211.22
950.79	211.18
951.09	211.19
951.39	211.17
951.69	211.17
951.98	211.26
952.28	211.30
952.58	211.29
952.87	211.30
953.17	211.32
953.47	211.29
953.76	211.23
954.06	211.17
954.36	211.06
954.66	211.05
954.95	211.09
955.25	211.17
955.55	211.10
955.84	211.06
956.14	211.02
956.44	211.06
956.73	211.05
957.03	211.10
957.32	211.10
957.62	211.03
957.92	211.03
958.21	210.99
958.51	211.21
958.81	211.19
959.10	211.23
959.40	211.22
959.69	211.21
959.99	211.25
960.29	211.23
960.58	211.30
960.88	211.32
961.17	211.40
961.47	211.35
961.76	211.44
962.06	211.44
962.36	211.48
962.65	211.45
962.95	211.49
963.24	211.45
963.54	211.35
963.83	211.40
964.13	211.36
964.42	211.25
964.72	211.08
965.01	211.07
965.31	211.02
965.60	210.97
965.90	211.11
966.19	211.12
966.49	211.20
966.78	211.16
967.08	211.14
967.37	211.05
967.67	211.13
967.96	211.10
968.26	211.10
968.55	211.11
968.85	211.13
969.14	211.06
969.43	211.02
969.73	211.06
970.02	211.05
970.32	211.04
970.61	211.04
970.91	211.03
971.20	211.04
971.49	211.05
971.79	211.05
972.08	210.98
972.38	210.95
972.67	210.86
972.96	210.87
973.26	210.82
973.55	210.91
973.85	210.81
974.14	210.78
974.43	210.82
974.73	210.80
975.02	210.80
975.31	210.75
975.61	210.82
975.90	210.86
976.19	210.84
976.49	210.86
976.78	210.94
977.07	210.87
977.37	210.89
977.66	210.88
977.95	210.93
978.24	210.89
978.54	210.98
978.83	211.00
979.12	211.00
979.42	211.09
979.71	211.05
980.00	211.06
980.29	211.10
980.59	210.99
980.88	210.98
981.17	210.99
981.46	211.04
981.76	211.04
982.05	211.03
982.34	211.05
982.63	211.08
982.93	211.03
983.22	211.14
983.51	211.15
983.80	211.19
984.09	211.15
984.39	211.17
984.68	211.09
984.97	211.19
985.26	211.17
985.55	211.18
985.85	211.16
986.14	211.15
986.43	211.15
986.72	211.21
987.01	211.21
987.30	211.28
987.59	211.22
987.89	211.18
988.18	211.18
988.47	211.16
988.76	211.10
989.05	211.14
989.34	211.01
989.63	211.00
989.92	210.98
990.22	210.99
990.51	210.91
990.80	210.95
991.09	210.90
991.38	210.94
991.67	210.87
991.96	210.89
992.25	210.94
992.54	210.92
992.83	210.88
993.12	210.81
993.41	210.77
993.70	210.89
993.99	210.90
994.28	210.90
994.58	210.87
994.87	210.94
995.16	210.89
995.45	210.95
995.74	210.92
996.03	210.91
996.32	210.96
996.61	211.04
996.90	211.06
997.19	211.03
997.48	211.04
997.77	211.02
998.06	211.01
998.34	210.93
998.63	210.98
998.92	211.01
999.21	211.07
999.50	211.08
999.79	211.11
1000.08	211.11
1000.37	211.05
1000.66	211.10
1000.95	211.19
1001.24	211.23
1001.53	211.26
1001.82	211.24
1002.11	211.21
1002.40	211.16
1002.68	211.26
1002.97	211.33
1003.26	211.39
1003.55	211.28
1003.84	211.29
1004.13	211.30
1004.42	211.40
1004.71	211.41
1004.99	211.40
1005.28	211.38
1005.57	211.36
1005.86	211.22
1006.15	211.15
1006.44	211.15
1006.72	211.19
1007.01	211.08
1007.30	211.14
1007.59	211.07
1007.88	211.10
1008.17	211.09
1008.45	211.06
1008.74	210.89
1009.03	210.83
1009.32	210.80
1009.60	210.85
1009.89	210.83
1010.18	210.77
1010.47	210.67
1010.76	210.64
1011.04	210.65
1011.33	210.69
1011.62	210.68
1011.91	210.74
1012.19	210.80
1012.48	210.84
1012.77	210.80
1013.05	210.81
1013.34	210.72
1013.63	210.75
1013.92	210.79
1014.20	210.78
1014.49	210.84
1014.78	210.91
1015.06	210.84
1015.35	210.87
1015.64	210.90
1015.92	210.98
1016.21	211.03
1016.50	211.10
1016.78	211.07
1017.07	211.12
1017.36	211.08
1017.64	211.08
1017.93	211.10
1018.22	211.02
1018.50	211.03
1018.79	211.01
1019.08	211.04
1019.36	211.08
1019.65	211.02
1019.93	211.02
1020.22	211.02
1020.51	211.12
1020.79	211.12
1021.08	208.95
1021.36	210.80
1021.65	211.00
1021.94	211.65
1022.22	210.95
1022.51	210.00
1022.79	211.35
1023.08	210.40
1023.36	213.65
1023.65	211.45
>>>>>End Processed Spectral Data<<<<<
