SpectraSuite Data File
++++++++++++++++++++++++++++++++++++
Date: Mon Feb 25 17:33:28 EST 2013
User: group
Dark Spectrum Present: No
Reference Spectrum Present: No
Number of Sampled Component Spectra: 1
Spectrometers: USB2E7196
Integration Time (usec): 52000 (USB2E7196)
Spectra Averaged: 20 (USB2E7196)
Boxcar Smoothing: 10 (USB2E7196)
Correct for Electrical Dark: No (USB2E7196)
Strobe/Lamp Enabled: No (USB2E7196)
Correct for Detector Non-linearity: No (USB2E7196)
Correct for Stray Light: No (USB2E7196)
Number of Pixels in Processed Spectrum: 2048
>>>>>Begin Processed Spectral Data<<<<<
339.09	0.00
339.48	198.20
339.86	200.05
340.24	200.80
340.63	203.85
341.01	206.95
341.39	205.55
341.78	207.00
342.16	209.05
342.54	208.55
342.93	198.05
343.31	208.05
343.69	208.63
344.07	209.15
344.46	209.66
344.84	210.06
345.22	210.26
345.60	210.52
345.99	210.73
346.37	210.82
346.75	210.99
347.13	211.16
347.52	211.33
347.90	211.48
348.28	211.53
348.66	211.60
349.05	211.65
349.43	211.73
349.81	211.76
350.19	211.87
350.57	211.92
350.96	212.00
351.34	212.18
351.72	212.23
352.10	212.30
352.48	212.33
352.87	212.39
353.25	212.47
353.63	212.60
354.01	212.73
354.39	212.82
354.77	212.92
355.15	212.96
355.54	212.95
355.92	212.96
356.30	213.06
356.68	213.25
357.06	213.29
357.44	213.34
357.82	213.48
358.20	213.56
358.58	213.60
358.97	213.74
359.35	213.86
359.73	214.00
360.11	214.04
360.49	214.14
360.87	214.15
361.25	214.24
361.63	214.33
362.01	214.33
362.39	214.47
362.77	214.47
363.15	214.59
363.53	214.62
363.91	214.65
364.29	214.65
364.67	214.54
365.05	214.51
365.43	214.54
365.81	214.54
366.19	214.51
366.57	214.62
366.95	214.60
367.33	214.45
367.71	214.47
368.09	214.51
368.47	214.45
368.85	214.42
369.23	214.39
369.61	214.25
369.99	214.30
370.37	214.21
370.75	214.28
371.13	214.17
371.51	214.18
371.89	214.08
372.27	214.07
372.65	213.95
373.03	213.96
373.41	213.95
373.78	213.85
374.16	213.79
374.54	213.65
374.92	213.54
375.30	213.53
375.68	213.47
376.06	213.48
376.44	213.48
376.82	213.43
377.19	213.42
377.57	213.45
377.95	213.33
378.33	213.26
378.71	213.13
379.09	213.08
379.47	213.02
379.84	213.00
380.22	212.93
380.60	212.93
380.98	212.88
381.36	212.81
381.73	212.74
382.11	212.67
382.49	212.57
382.87	212.51
383.25	212.43
383.62	212.54
384.00	212.43
384.38	212.35
384.76	212.36
385.13	212.36
385.51	212.25
385.89	212.23
386.27	212.23
386.64	212.17
387.02	212.13
387.40	212.12
387.78	212.18
388.15	212.17
388.53	212.15
388.91	212.11
389.29	212.03
389.66	212.11
390.04	212.10
390.42	212.13
390.79	212.16
391.17	212.13
391.55	211.95
391.92	211.97
392.30	212.03
392.68	211.98
393.05	211.88
393.43	211.90
393.81	211.87
394.18	211.82
394.56	211.89
394.94	211.93
395.31	211.90
395.69	211.89
396.06	211.89
396.44	211.90
396.82	211.92
397.19	212.02
397.57	212.00
397.95	212.10
398.32	212.00
398.70	212.06
399.07	212.23
399.45	212.22
399.82	212.20
400.20	212.19
400.58	212.20
400.95	212.27
401.33	212.32
401.70	212.53
402.08	212.61
402.45	212.71
402.83	212.83
403.20	212.92
403.58	213.00
403.95	213.17
404.33	213.23
404.71	213.31
405.08	213.50
405.46	213.69
405.83	213.85
406.21	214.05
406.58	214.17
406.96	214.23
407.33	214.45
407.70	214.65
408.08	214.98
408.45	215.23
408.83	215.45
409.20	215.65
409.58	215.78
409.95	216.06
410.33	216.30
410.70	216.53
411.08	216.84
411.45	217.13
411.82	217.46
412.20	217.95
412.57	218.44
412.95	218.77
413.32	219.21
413.69	219.66
414.07	220.25
414.44	220.82
414.82	221.51
415.19	222.18
415.56	222.92
415.94	223.59
416.31	224.49
416.68	225.34
417.06	226.36
417.43	227.34
417.81	228.41
418.18	229.50
418.55	230.70
418.93	231.94
419.30	233.29
419.67	234.63
420.04	235.98
420.42	237.55
420.79	239.40
421.16	241.08
421.54	242.90
421.91	244.73
422.28	246.72
422.66	248.79
423.03	250.83
423.40	252.98
423.77	255.19
424.15	257.42
424.52	259.80
424.89	262.40
425.26	264.90
425.64	267.30
426.01	269.82
426.38	272.52
426.75	275.43
427.13	278.28
427.50	281.26
427.87	284.40
428.24	287.44
428.61	290.31
428.99	293.61
429.36	297.10
429.73	300.61
430.10	304.15
430.47	307.66
430.85	311.30
431.22	315.13
431.59	319.35
431.96	323.28
432.33	327.66
432.70	331.78
433.08	336.71
433.45	341.40
433.82	346.03
434.19	351.10
434.56	355.94
434.93	360.68
435.30	365.40
435.68	370.67
436.05	375.83
436.42	380.94
436.79	385.66
437.16	390.69
437.53	396.00
437.90	401.13
438.27	406.38
438.64	411.92
439.01	416.91
439.38	421.32
439.75	425.71
440.13	430.53
440.50	435.15
440.87	438.86
441.24	442.53
441.61	446.76
441.98	449.79
442.35	453.40
442.72	457.13
443.09	460.64
443.46	462.72
443.83	464.07
444.20	465.37
444.57	467.12
444.94	467.91
445.31	468.65
445.68	469.50
446.05	469.63
446.42	468.74
446.79	467.84
447.16	466.89
447.53	466.13
447.90	464.02
448.27	461.86
448.64	458.83
449.01	456.87
449.37	453.22
449.74	449.70
450.11	445.61
450.48	440.93
450.85	436.31
451.22	432.36
451.59	428.71
451.96	424.95
452.33	420.18
452.70	415.76
453.07	410.62
453.43	405.25
453.80	400.29
454.17	395.64
454.54	391.16
454.91	386.32
455.28	381.63
455.65	377.18
456.02	372.83
456.38	369.14
456.75	364.45
457.12	360.67
457.49	356.92
457.86	353.16
458.23	350.05
458.59	346.51
458.96	342.95
459.33	339.70
459.70	336.51
460.07	333.90
460.43	331.02
460.80	328.38
461.17	326.12
461.54	323.56
461.91	321.22
462.27	318.89
462.64	316.81
463.01	314.54
463.38	312.46
463.74	310.20
464.11	308.34
464.48	306.67
464.85	304.90
465.21	303.51
465.58	302.13
465.95	300.37
466.32	299.01
466.68	297.61
467.05	296.32
467.42	294.97
467.78	293.57
468.15	292.30
468.52	291.38
468.88	289.98
469.25	288.95
469.62	287.99
469.98	286.98
470.35	286.19
470.72	285.35
471.08	284.35
471.45	283.64
471.82	282.78
472.18	281.92
472.55	281.24
472.92	280.55
473.28	279.90
473.65	279.25
474.02	278.71
474.38	278.29
474.75	277.93
475.11	277.52
475.48	277.26
475.85	277.10
476.21	276.76
476.58	276.64
476.94	276.60
477.31	276.54
477.67	276.58
478.04	276.59
478.41	276.76
478.77	277.08
479.14	277.17
479.50	277.49
479.87	277.86
480.23	278.36
480.60	278.73
480.96	279.19
481.33	279.90
481.69	280.55
482.06	281.19
482.42	281.85
482.79	282.67
483.15	283.57
483.52	284.54
483.88	285.54
484.25	286.52
484.61	287.54
484.98	288.63
485.34	289.88
485.71	291.18
486.07	292.49
486.44	293.83
486.80	295.37
487.17	297.08
487.53	298.81
487.90	300.65
488.26	302.68
488.62	304.68
488.99	306.68
489.35	308.79
489.72	311.09
490.08	313.37
490.44	315.85
490.81	318.42
491.17	321.07
491.54	324.02
491.90	327.10
492.26	330.21
492.63	333.65
492.99	337.02
493.36	340.68
493.72	344.64
494.08	348.64
494.45	353.00
494.81	357.49
495.17	362.10
495.54	366.82
495.90	371.81
496.26	377.08
496.63	382.65
496.99	388.33
497.35	394.23
497.72	400.58
498.08	407.06
498.44	413.86
498.80	420.99
499.17	428.21
499.53	435.78
499.89	443.78
500.26	451.75
500.62	460.18
500.98	469.00
501.34	478.13
501.71	487.55
502.07	497.30
502.43	507.24
502.79	517.41
503.16	528.19
503.52	539.02
503.88	550.30
504.24	561.88
504.60	573.83
504.97	586.20
505.33	598.79
505.69	611.98
506.05	625.40
506.41	638.98
506.78	652.79
507.14	667.03
507.50	681.58
507.86	696.58
508.22	712.16
508.59	727.70
508.95	743.60
509.31	759.82
509.67	776.41
510.03	793.17
510.39	810.84
510.75	828.62
511.12	846.63
511.48	864.94
511.84	883.56
512.20	902.18
512.56	921.41
512.92	940.65
513.28	960.18
513.64	979.92
514.00	999.79
514.37	1020.29
514.73	1041.03
515.09	1061.79
515.45	1082.72
515.81	1103.65
516.17	1124.96
516.53	1146.24
516.89	1167.85
517.25	1189.32
517.61	1211.20
517.97	1232.41
518.33	1253.83
518.69	1275.85
519.05	1297.89
519.41	1319.90
519.77	1342.71
520.13	1364.77
520.49	1387.21
520.85	1410.00
521.21	1432.48
521.57	1455.51
521.93	1477.30
522.29	1500.24
522.65	1522.86
523.01	1545.38
523.37	1567.45
523.73	1589.60
524.09	1612.01
524.45	1634.39
524.81	1656.78
525.17	1679.10
525.53	1701.89
525.89	1724.43
526.25	1746.25
526.61	1767.59
526.97	1789.34
527.33	1810.65
527.68	1832.40
528.04	1853.23
528.40	1873.47
528.76	1894.33
529.12	1915.02
529.48	1936.84
529.84	1957.36
530.20	1977.72
530.56	1998.31
530.91	2019.30
531.27	2040.15
531.63	2060.26
531.99	2080.23
532.35	2099.79
532.71	2119.11
533.07	2138.45
533.42	2157.14
533.78	2176.17
534.14	2194.73
534.50	2212.27
534.86	2230.33
535.21	2246.75
535.57	2264.84
535.93	2282.49
536.29	2299.51
536.65	2316.33
537.00	2332.07
537.36	2347.07
537.72	2362.38
538.08	2377.91
538.44	2392.84
538.79	2408.11
539.15	2422.81
539.51	2437.26
539.87	2452.38
540.22	2466.83
540.58	2481.93
540.94	2496.07
541.29	2509.39
541.65	2521.71
542.01	2534.89
542.37	2546.81
542.72	2559.42
543.08	2570.67
543.44	2582.57
543.79	2592.74
544.15	2602.92
544.51	2613.71
544.87	2624.98
545.22	2634.41
545.58	2642.70
545.94	2650.24
546.29	2656.51
546.65	2662.85
547.01	2669.35
547.36	2674.92
547.72	2680.48
548.07	2684.16
548.43	2688.39
548.79	2692.20
549.14	2697.06
549.50	2701.44
549.86	2705.17
550.21	2709.38
550.57	2713.50
550.92	2715.95
551.28	2719.12
551.64	2721.88
551.99	2724.73
552.35	2726.32
552.70	2729.03
553.06	2731.60
553.41	2734.73
553.77	2738.00
554.13	2740.30
554.48	2742.23
554.84	2743.84
555.19	2744.48
555.55	2745.05
555.90	2745.66
556.26	2745.92
556.61	2745.79
556.97	2744.64
557.32	2744.31
557.68	2742.57
558.03	2741.20
558.39	2740.10
558.74	2739.48
559.10	2738.08
559.45	2736.00
559.81	2734.98
560.16	2732.31
560.52	2730.34
560.87	2727.48
561.23	2723.59
561.58	2721.23
561.94	2718.04
562.29	2714.55
562.64	2712.10
563.00	2709.98
563.35	2707.63
563.71	2705.66
564.06	2703.78
564.42	2702.03
564.77	2699.89
565.12	2698.19
565.48	2694.70
565.83	2691.24
566.19	2688.04
566.54	2683.51
566.89	2679.74
567.25	2675.76
567.60	2673.02
567.96	2669.14
568.31	2665.73
568.66	2661.93
569.02	2657.47
569.37	2652.35
569.72	2648.52
570.08	2643.36
570.43	2637.43
570.78	2631.70
571.14	2625.62
571.49	2618.98
571.84	2612.91
572.20	2605.90
572.55	2599.28
572.90	2592.56
573.26	2585.56
573.61	2578.41
573.96	2572.63
574.31	2564.86
574.67	2556.61
575.02	2547.58
575.37	2539.05
575.72	2529.92
576.08	2522.39
576.43	2513.54
576.78	2505.67
577.13	2497.31
577.49	2489.26
577.84	2481.78
578.19	2474.02
578.54	2466.67
578.90	2459.63
579.25	2450.95
579.60	2441.90
579.95	2432.66
580.30	2424.72
580.66	2416.69
581.01	2407.24
581.36	2397.41
581.71	2389.01
582.06	2380.50
582.42	2372.23
582.77	2363.11
583.12	2354.24
583.47	2345.37
583.82	2337.16
584.17	2328.04
584.53	2318.91
584.88	2310.24
585.23	2300.97
585.58	2291.50
585.93	2281.63
586.28	2272.30
586.63	2263.37
586.98	2255.20
587.34	2246.69
587.69	2237.54
588.04	2228.46
588.39	2220.20
588.74	2211.31
589.09	2202.22
589.44	2192.83
589.79	2184.39
590.14	2176.43
590.49	2167.97
590.84	2158.95
591.19	2150.80
591.54	2142.00
591.89	2131.92
592.25	2122.20
592.60	2112.73
592.95	2103.29
593.30	2094.13
593.65	2084.36
594.00	2074.54
594.35	2066.18
594.70	2056.73
595.05	2047.82
595.40	2039.10
595.75	2029.43
596.10	2021.29
596.45	2012.96
596.80	2005.21
597.15	1996.65
597.50	1987.58
597.85	1978.91
598.19	1970.14
598.54	1961.50
598.89	1953.50
599.24	1946.70
599.59	1939.73
599.94	1932.57
600.29	1924.69
600.64	1916.70
600.99	1907.96
601.34	1900.78
601.69	1891.54
602.04	1883.62
602.39	1875.40
602.74	1867.33
603.08	1860.85
603.43	1853.54
603.78	1845.45
604.13	1837.22
604.48	1829.52
604.83	1822.61
605.18	1815.61
605.53	1808.09
605.87	1800.36
606.22	1793.37
606.57	1785.63
606.92	1777.15
607.27	1768.97
607.62	1761.72
607.96	1754.71
608.31	1748.65
608.66	1740.84
609.01	1733.56
609.36	1725.58
609.70	1717.59
610.05	1709.93
610.40	1701.58
610.75	1693.16
611.10	1685.77
611.44	1676.95
611.79	1667.65
612.14	1658.28
612.49	1648.70
612.83	1640.15
613.18	1630.60
613.53	1621.24
613.88	1611.39
614.22	1602.51
614.57	1593.33
614.92	1583.71
615.27	1574.37
615.61	1564.49
615.96	1555.60
616.31	1547.08
616.65	1539.39
617.00	1531.03
617.35	1522.42
617.70	1513.36
618.04	1503.94
618.39	1494.19
618.74	1485.69
619.08	1477.16
619.43	1468.86
619.78	1461.14
620.12	1452.60
620.47	1444.86
620.82	1435.82
621.16	1427.59
621.51	1419.24
621.85	1410.86
622.20	1402.59
622.55	1394.10
622.89	1385.92
623.24	1377.68
623.59	1368.88
623.93	1360.22
624.28	1351.91
624.62	1343.45
624.97	1335.25
625.32	1327.65
625.66	1320.42
626.01	1312.92
626.35	1305.61
626.70	1297.66
627.04	1290.13
627.39	1282.57
627.73	1274.94
628.08	1268.46
628.43	1261.00
628.77	1253.75
629.12	1246.43
629.46	1239.73
629.81	1232.48
630.15	1225.17
630.50	1217.80
630.84	1210.68
631.19	1203.51
631.53	1196.71
631.88	1189.19
632.22	1181.76
632.57	1174.84
632.91	1167.25
633.26	1159.74
633.60	1152.54
633.95	1145.90
634.29	1138.42
634.64	1131.89
634.98	1124.77
635.32	1117.48
635.67	1111.23
636.01	1104.35
636.36	1097.45
636.70	1090.74
637.05	1084.12
637.39	1077.83
637.73	1071.47
638.08	1065.63
638.42	1059.47
638.77	1052.95
639.11	1046.78
639.45	1041.01
639.80	1034.42
640.14	1028.01
640.49	1021.91
640.83	1015.73
641.17	1009.24
641.52	1003.31
641.86	996.56
642.20	990.35
642.55	983.85
642.89	977.27
643.23	970.96
643.58	965.23
643.92	958.71
644.26	952.41
644.61	946.14
644.95	940.19
645.29	933.84
645.64	927.26
645.98	921.13
646.32	915.28
646.66	908.83
647.01	902.93
647.35	897.07
647.69	890.74
648.04	884.68
648.38	878.77
648.72	872.60
649.06	866.60
649.41	860.45
649.75	854.51
650.09	848.57
650.43	842.70
650.78	836.26
651.12	830.18
651.46	824.46
651.80	818.66
652.14	812.62
652.49	806.49
652.83	800.91
653.17	794.94
653.51	788.92
653.85	783.47
654.20	777.44
654.54	771.77
654.88	766.28
655.22	760.61
655.56	754.74
655.90	748.87
656.25	743.21
656.59	737.80
656.93	732.61
657.27	727.40
657.61	721.85
657.95	716.86
658.29	711.75
658.64	706.71
658.98	701.45
659.32	696.02
659.66	691.05
660.00	685.69
660.34	680.31
660.68	675.28
661.02	670.17
661.36	665.51
661.70	660.50
662.05	655.68
662.39	651.21
662.73	646.83
663.07	642.60
663.41	638.18
663.75	633.59
664.09	628.93
664.43	624.15
664.77	619.75
665.11	615.39
665.45	611.16
665.79	606.56
666.13	602.12
666.47	597.98
666.81	593.76
667.15	589.65
667.49	585.97
667.83	581.95
668.17	577.88
668.51	574.02
668.85	570.47
669.19	566.80
669.53	562.59
669.87	558.53
670.21	554.67
670.55	550.85
670.89	547.30
671.23	543.89
671.57	540.31
671.91	536.74
672.25	533.00
672.58	529.15
672.92	525.81
673.26	522.73
673.60	519.45
673.94	516.00
674.28	512.72
674.62	509.43
674.96	506.24
675.30	503.20
675.64	500.04
675.97	496.58
676.31	493.61
676.65	490.77
676.99	488.02
677.33	484.98
677.67	482.06
678.01	478.99
678.34	475.98
678.68	473.25
679.02	470.37
679.36	467.59
679.70	465.00
680.04	462.10
680.37	459.17
680.71	456.35
681.05	453.86
681.39	451.17
681.73	448.44
682.06	445.85
682.40	443.14
682.74	440.41
683.08	437.86
683.42	435.24
683.75	432.83
684.09	430.17
684.43	427.72
684.77	425.10
685.10	422.67
685.44	420.14
685.78	417.55
686.12	415.09
686.45	412.69
686.79	410.36
687.13	408.11
687.46	405.92
687.80	403.62
688.14	401.25
688.48	399.14
688.81	396.90
689.15	394.71
689.49	392.62
689.82	390.38
690.16	388.22
690.50	385.84
690.83	383.45
691.17	381.15
691.51	378.91
691.84	376.89
692.18	374.77
692.52	372.91
692.85	371.16
693.19	369.41
693.52	367.53
693.86	365.66
694.20	363.88
694.53	361.85
694.87	359.97
695.21	358.15
695.54	356.12
695.88	354.21
696.21	352.37
696.55	350.63
696.88	348.94
697.22	347.13
697.56	345.64
697.89	344.04
698.23	342.50
698.56	340.91
698.90	339.45
699.23	337.85
699.57	336.15
699.90	334.42
700.24	332.65
700.58	331.04
700.91	329.47
701.25	327.92
701.58	326.50
701.92	325.06
702.25	323.71
702.59	322.32
702.92	321.00
703.26	319.57
703.59	318.20
703.93	317.08
704.26	315.84
704.60	314.52
704.93	313.22
705.26	311.91
705.60	310.73
705.93	309.40
706.27	308.24
706.60	307.13
706.94	306.12
707.27	305.05
707.61	303.84
707.94	302.71
708.27	301.45
708.61	300.35
708.94	299.26
709.28	298.04
709.61	296.99
709.94	296.04
710.28	295.00
710.61	293.97
710.95	292.79
711.28	291.89
711.61	290.79
711.95	289.88
712.28	288.96
712.61	287.92
712.95	287.03
713.28	286.20
713.61	285.19
713.95	284.16
714.28	283.25
714.61	282.41
714.95	281.46
715.28	280.67
715.61	279.68
715.95	278.80
716.28	277.94
716.61	277.14
716.95	276.17
717.28	275.33
717.61	274.50
717.94	273.73
718.28	272.85
718.61	272.15
718.94	271.34
719.27	270.50
719.61	269.84
719.94	269.11
720.27	268.22
720.60	267.54
720.94	266.84
721.27	266.20
721.60	265.57
721.93	264.97
722.27	264.34
722.60	263.74
722.93	263.11
723.26	262.53
723.59	261.95
723.93	261.49
724.26	260.94
724.59	260.30
724.92	259.79
725.25	259.24
725.59	258.70
725.92	258.18
726.25	257.71
726.58	257.22
726.91	256.69
727.24	256.19
727.57	255.62
727.91	255.10
728.24	254.56
728.57	254.03
728.90	253.61
729.23	253.12
729.56	252.75
729.89	252.25
730.22	251.69
730.55	251.21
730.89	250.69
731.22	250.25
731.55	249.85
731.88	249.30
732.21	248.85
732.54	248.28
732.87	247.86
733.20	247.42
733.53	246.95
733.86	246.58
734.19	246.10
734.52	245.74
734.85	245.51
735.18	245.16
735.51	244.81
735.84	244.38
736.17	243.96
736.50	243.44
736.83	243.31
737.16	243.04
737.49	242.63
737.82	242.18
738.15	241.85
738.48	241.44
738.81	241.10
739.14	240.73
739.47	240.42
739.80	240.05
740.13	239.74
740.46	239.35
740.79	238.92
741.12	238.69
741.45	238.33
741.78	237.87
742.11	237.57
742.44	237.24
742.77	237.00
743.10	236.77
743.43	236.57
743.75	236.01
744.08	235.87
744.41	235.60
744.74	235.32
745.07	235.01
745.40	234.79
745.73	234.53
746.06	234.36
746.39	234.03
746.71	233.72
747.04	233.44
747.37	233.11
747.70	232.87
748.03	232.63
748.36	232.42
748.68	232.19
749.01	231.86
749.34	231.62
749.67	231.34
750.00	231.11
750.33	230.95
750.65	230.82
750.98	230.36
751.31	230.12
751.64	229.98
751.97	229.83
752.29	229.55
752.62	229.20
752.95	228.86
753.28	228.70
753.60	228.53
753.93	228.38
754.26	228.26
754.59	228.13
754.91	227.82
755.24	227.62
755.57	227.40
755.90	227.24
756.22	227.00
756.55	226.80
756.88	226.52
757.20	226.27
757.53	226.02
757.86	225.78
758.19	225.56
758.51	225.37
758.84	225.05
759.17	224.94
759.49	224.85
759.82	224.74
760.15	224.60
760.47	224.41
760.80	224.13
761.13	223.95
761.45	223.69
761.78	223.57
762.11	223.35
762.43	223.25
762.76	223.06
763.08	222.91
763.41	222.69
763.74	222.49
764.06	222.29
764.39	222.23
764.71	222.17
765.04	222.05
765.37	221.89
765.69	221.77
766.02	221.62
766.34	221.49
766.67	221.35
767.00	221.25
767.32	221.23
767.65	221.18
767.97	221.07
768.30	220.97
768.62	220.84
768.95	220.77
769.27	220.64
769.60	220.59
769.92	220.51
770.25	220.33
770.57	220.23
770.90	220.12
771.22	219.91
771.55	219.81
771.87	219.75
772.20	219.63
772.52	219.77
772.85	219.87
773.17	219.80
773.50	219.69
773.82	219.59
774.15	219.45
774.47	219.33
774.80	219.19
775.12	219.15
775.45	219.19
775.77	219.06
776.09	218.93
776.42	218.85
776.74	218.84
777.07	218.90
777.39	218.86
777.72	218.78
778.04	218.78
778.36	218.73
778.69	218.63
779.01	218.50
779.33	218.26
779.66	217.99
779.98	217.94
780.31	217.88
780.63	217.88
780.95	217.79
781.28	217.70
781.60	217.70
781.92	217.55
782.25	217.42
782.57	217.36
782.89	217.36
783.22	217.27
783.54	217.17
783.86	217.04
784.19	216.95
784.51	216.90
784.83	216.85
785.16	216.76
785.48	216.71
785.80	216.73
786.12	216.70
786.45	216.63
786.77	216.62
787.09	216.51
787.42	216.31
787.74	216.27
788.06	216.23
788.38	216.12
788.71	216.08
789.03	215.94
789.35	215.94
789.67	215.74
789.99	215.74
790.32	215.64
790.64	215.62
790.96	215.82
791.28	215.75
791.61	215.69
791.93	215.63
792.25	215.61
792.57	215.68
792.89	215.51
793.21	215.38
793.54	215.25
793.86	215.23
794.18	215.25
794.50	215.16
794.82	215.08
795.14	215.08
795.47	215.10
795.79	215.20
796.11	215.07
796.43	215.13
796.75	215.10
797.07	215.01
797.39	214.97
797.71	214.70
798.04	214.69
798.36	214.65
798.68	214.56
799.00	214.54
799.32	214.51
799.64	214.57
799.96	214.70
800.28	214.71
800.60	214.68
800.92	214.70
801.24	214.67
801.56	214.65
801.89	214.57
802.21	214.55
802.53	214.46
802.85	214.55
803.17	214.58
803.49	214.50
803.81	214.56
804.13	214.47
804.45	214.49
804.77	214.51
805.09	214.52
805.41	214.52
805.73	214.44
806.05	214.27
806.37	214.21
806.69	214.10
807.01	214.15
807.33	214.15
807.65	214.03
807.97	214.10
808.28	214.08
808.60	214.03
808.92	213.94
809.24	214.08
809.56	214.01
809.88	213.94
810.20	213.94
810.52	213.89
810.84	213.92
811.16	213.84
811.48	213.73
811.80	213.70
812.12	213.62
812.43	213.60
812.75	213.53
813.07	213.51
813.39	213.55
813.71	213.44
814.03	213.43
814.35	213.42
814.67	213.40
814.98	213.32
815.30	213.34
815.62	213.31
815.94	213.06
816.26	213.00
816.58	212.95
816.89	212.93
817.21	212.85
817.53	212.81
817.85	212.85
818.17	212.77
818.48	212.69
818.80	212.83
819.12	212.80
819.44	212.85
819.76	212.77
820.07	212.68
820.39	212.65
820.71	212.64
821.03	212.65
821.34	212.52
821.66	212.52
821.98	212.48
822.30	212.51
822.61	212.66
822.93	212.68
823.25	212.61
823.57	212.56
823.88	212.68
824.20	212.70
824.52	212.66
824.83	212.70
825.15	212.65
825.47	212.57
825.79	212.58
826.10	212.54
826.42	212.60
826.74	212.72
827.05	212.65
827.37	212.65
827.69	212.56
828.00	212.56
828.32	212.57
828.64	212.58
828.95	212.58
829.27	212.48
829.58	212.41
829.90	212.47
830.22	212.43
830.53	212.33
830.85	212.31
831.17	212.29
831.48	212.31
831.80	212.40
832.11	212.35
832.43	212.34
832.75	212.28
833.06	212.29
833.38	212.16
833.69	212.17
834.01	212.12
834.32	212.20
834.64	212.18
834.96	212.16
835.27	212.16
835.59	212.05
835.90	212.05
836.22	212.04
836.53	212.00
836.85	212.01
837.16	212.16
837.48	212.09
837.79	212.14
838.11	212.11
838.42	212.06
838.74	212.08
839.05	212.00
839.37	212.08
839.68	212.04
840.00	212.05
840.31	212.01
840.63	212.04
840.94	212.01
841.26	212.05
841.57	212.05
841.88	212.05
842.20	212.12
842.51	212.09
842.83	212.16
843.14	212.27
843.46	212.26
843.77	212.18
844.08	212.24
844.40	212.17
844.71	212.18
845.03	212.14
845.34	212.16
845.65	212.15
845.97	212.09
846.28	212.05
846.60	212.05
846.91	212.09
847.22	212.06
847.54	212.13
847.85	212.08
848.16	212.06
848.48	212.02
848.79	212.08
849.10	212.08
849.42	212.12
849.73	212.02
850.04	212.02
850.36	211.90
850.67	211.87
850.98	211.93
851.30	211.91
851.61	211.96
851.92	211.92
852.23	212.00
852.55	212.02
852.86	211.96
853.17	211.94
853.49	211.95
853.80	211.92
854.11	211.89
854.42	211.89
854.74	211.87
855.05	211.90
855.36	211.77
855.67	211.76
855.99	211.70
856.30	211.88
856.61	211.89
856.92	211.96
857.23	211.98
857.55	211.96
857.86	211.92
858.17	211.84
858.48	211.76
858.79	211.78
859.11	211.77
859.42	211.82
859.73	211.78
860.04	211.78
860.35	211.79
860.66	211.70
860.98	211.63
861.29	211.70
861.60	211.62
861.91	211.68
862.22	211.65
862.53	211.60
862.84	211.37
863.16	211.43
863.47	211.38
863.78	211.39
864.09	211.30
864.40	211.33
864.71	211.44
865.02	211.47
865.33	211.44
865.64	211.40
865.95	211.42
866.27	211.66
866.58	211.66
866.89	211.71
867.20	211.79
867.51	211.86
867.82	211.85
868.13	211.99
868.44	211.95
868.75	212.04
869.06	212.07
869.37	212.14
869.68	212.10
869.99	212.12
870.30	212.09
870.61	212.15
870.92	212.17
871.23	212.08
871.54	212.19
871.85	212.24
872.16	212.29
872.47	212.29
872.78	212.13
873.09	212.17
873.40	212.11
873.71	212.07
874.02	212.03
874.33	211.96
874.64	211.92
874.95	211.99
875.26	211.95
875.56	211.83
875.87	211.80
876.18	211.76
876.49	211.98
876.80	212.02
877.11	211.99
877.42	211.95
877.73	212.00
878.04	211.92
878.35	211.86
878.66	211.86
878.96	211.80
879.27	211.79
879.58	211.77
879.89	211.76
880.20	211.85
880.51	211.92
880.82	211.96
881.12	211.99
881.43	211.92
881.74	211.88
882.05	211.96
882.36	212.04
882.67	212.07
882.97	211.82
883.28	211.73
883.59	211.77
883.90	211.82
884.21	211.83
884.51	211.84
884.82	211.84
885.13	211.87
885.44	211.88
885.74	211.89
886.05	211.86
886.36	211.83
886.67	211.69
886.98	211.71
887.28	211.71
887.59	211.65
887.90	211.70
888.20	211.70
888.51	211.80
888.82	211.71
889.13	211.65
889.43	211.76
889.74	211.82
890.05	211.77
890.35	211.73
890.66	211.70
890.97	211.64
891.28	211.57
891.58	211.51
891.89	211.51
892.20	211.45
892.50	211.48
892.81	211.47
893.12	211.54
893.42	211.50
893.73	211.47
894.04	211.46
894.34	211.37
894.65	211.33
894.95	211.22
895.26	211.21
895.57	211.32
895.87	211.18
896.18	211.20
896.48	211.16
896.79	211.16
897.10	211.23
897.40	211.29
897.71	211.33
898.01	211.33
898.32	211.38
898.63	211.43
898.93	211.35
899.24	211.34
899.54	211.31
899.85	211.28
900.15	211.28
900.46	211.32
900.76	211.41
901.07	211.44
901.38	211.39
901.68	211.41
901.99	211.32
902.29	211.33
902.60	211.30
902.90	211.34
903.21	211.34
903.51	211.25
903.82	211.30
904.12	211.36
904.43	211.36
904.73	211.35
905.03	211.25
905.34	211.44
905.64	211.49
905.95	211.46
906.25	211.45
906.56	211.45
906.86	211.40
907.17	211.35
907.47	211.38
907.77	211.41
908.08	211.44
908.38	211.47
908.69	211.50
908.99	211.53
909.30	211.53
909.60	211.48
909.90	211.47
910.21	211.37
910.51	211.27
910.81	211.28
911.12	211.25
911.42	211.33
911.73	211.15
912.03	211.12
912.33	211.15
912.64	211.16
912.94	211.16
913.24	211.15
913.55	211.18
913.85	211.16
914.15	211.16
914.46	211.12
914.76	211.10
915.06	211.00
915.37	211.00
915.67	210.97
915.97	211.04
916.27	211.00
916.58	211.00
916.88	211.03
917.18	211.04
917.49	211.14
917.79	211.11
918.09	211.14
918.39	211.15
918.70	211.17
919.00	211.18
919.30	211.20
919.60	211.19
919.91	211.15
920.21	211.13
920.51	211.08
920.81	211.12
921.12	211.13
921.42	211.13
921.72	211.09
922.02	211.09
922.32	211.02
922.63	211.05
922.93	211.15
923.23	211.12
923.53	211.11
923.83	211.04
924.13	211.03
924.44	211.02
924.74	211.07
925.04	211.05
925.34	211.02
925.64	210.95
925.94	210.95
926.24	210.98
926.55	210.99
926.85	211.12
927.15	211.07
927.45	211.05
927.75	211.12
928.05	211.19
928.35	211.16
928.65	211.20
928.95	211.21
929.26	211.13
929.56	211.20
929.86	211.19
930.16	211.19
930.46	211.20
930.76	211.23
931.06	211.14
931.36	211.12
931.66	211.11
931.96	211.09
932.26	211.10
932.56	211.12
932.86	211.09
933.16	211.04
933.46	210.98
933.76	210.94
934.06	210.96
934.36	211.03
934.66	211.07
934.96	211.13
935.26	211.14
935.56	211.15
935.86	211.11
936.16	211.09
936.46	211.07
936.76	211.03
937.06	210.89
937.36	210.85
937.66	210.88
937.96	210.91
938.26	210.98
938.56	210.93
938.86	210.90
939.16	210.97
939.46	210.95
939.76	211.09
940.06	211.15
940.35	211.10
940.65	211.00
940.95	211.04
941.25	210.95
941.55	210.92
941.85	210.88
942.15	210.95
942.45	210.98
942.75	210.92
943.04	210.97
943.34	211.05
943.64	211.17
943.94	211.15
944.24	211.16
944.54	211.18
944.84	211.24
945.13	211.22
945.43	211.26
945.73	211.25
946.03	211.16
946.33	211.07
946.62	211.06
946.92	211.03
947.22	211.00
947.52	210.94
947.82	210.95
948.11	210.98
948.41	210.88
948.71	210.90
949.01	210.97
949.31	210.98
949.60	211.00
949.90	210.95
950.20	210.93
950.50	210.98
950.79	210.95
951.09	210.95
951.39	210.99
951.69	210.85
951.98	210.88
952.28	210.93
952.58	211.02
952.87	211.06
953.17	211.08
953.47	211.07
953.76	211.14
954.06	211.12
954.36	211.09
954.66	211.17
954.95	211.15
955.25	211.16
955.55	211.21
955.84	211.18
956.14	211.25
956.44	211.28
956.73	211.22
957.03	211.24
957.32	211.24
957.62	211.19
957.92	211.30
958.21	211.29
958.51	211.47
958.81	211.49
959.10	211.50
959.40	211.50
959.69	211.60
959.99	211.64
960.29	211.61
960.58	211.63
960.88	211.66
961.17	211.68
961.47	211.68
961.76	211.64
962.06	211.68
962.36	211.63
962.65	211.60
962.95	211.64
963.24	211.62
963.54	211.65
963.83	211.75
964.13	211.71
964.42	211.70
964.72	211.59
965.01	211.55
965.31	211.50
965.60	211.50
965.90	211.54
966.19	211.53
966.49	211.66
966.78	211.66
967.08	211.64
967.37	211.62
967.67	211.60
967.96	211.64
968.26	211.63
968.55	211.63
968.85	211.66
969.14	211.63
969.43	211.65
969.73	211.70
970.02	211.58
970.32	211.54
970.61	211.52
970.91	211.43
971.20	211.42
971.49	211.42
971.79	211.47
972.08	211.30
972.38	211.31
972.67	211.23
972.96	211.28
973.26	211.25
973.55	211.33
973.85	211.34
974.14	211.32
974.43	211.31
974.73	211.29
975.02	211.32
975.31	211.33
975.61	211.30
975.90	211.22
976.19	211.22
976.49	211.27
976.78	211.30
977.07	211.27
977.37	211.24
977.66	211.23
977.95	211.15
978.24	211.18
978.54	211.19
978.83	211.17
979.12	211.15
979.42	211.08
979.71	210.93
980.00	210.91
980.29	210.85
980.59	210.85
980.88	210.87
981.17	210.80
981.46	210.78
981.76	210.79
982.05	210.80
982.34	210.85
982.63	210.81
982.93	210.81
983.22	210.83
983.51	210.88
983.80	210.93
984.09	210.96
984.39	210.93
984.68	210.82
984.97	210.85
985.26	210.80
985.55	210.88
985.85	210.88
986.14	210.86
986.43	210.90
986.72	210.85
987.01	210.79
987.30	210.82
987.59	210.79
987.89	210.84
988.18	210.74
988.47	210.70
988.76	210.70
989.05	210.72
989.34	210.71
989.63	210.67
989.92	210.66
990.22	210.63
990.51	210.59
990.80	210.60
991.09	210.52
991.38	210.54
991.67	210.50
991.96	210.50
992.25	210.48
992.54	210.46
992.83	210.49
993.12	210.50
993.41	210.52
993.70	210.57
993.99	210.55
994.28	210.64
994.58	210.61
994.87	210.64
995.16	210.56
995.45	210.58
995.74	210.61
996.03	210.64
996.32	210.66
996.61	210.77
996.90	210.80
997.19	210.87
997.48	210.85
997.77	210.79
998.06	210.88
998.34	210.95
998.63	210.93
998.92	210.90
999.21	210.93
999.50	210.87
999.79	210.77
1000.08	210.77
1000.37	210.74
1000.66	210.78
1000.95	210.74
1001.24	210.76
1001.53	210.70
1001.82	210.69
1002.11	210.64
1002.40	210.68
1002.68	210.70
1002.97	210.82
1003.26	210.80
1003.55	210.81
1003.84	210.92
1004.13	211.00
1004.42	210.90
1004.71	210.90
1004.99	210.90
1005.28	210.88
1005.57	210.90
1005.86	210.92
1006.15	210.94
1006.44	210.91
1006.72	210.94
1007.01	210.95
1007.30	210.98
1007.59	211.02
1007.88	211.00
1008.17	211.00
1008.45	210.98
1008.74	210.88
1009.03	210.87
1009.32	210.85
1009.60	210.84
1009.89	210.75
1010.18	210.65
1010.47	210.66
1010.76	210.69
1011.04	210.72
1011.33	210.78
1011.62	210.81
1011.91	210.84
1012.19	210.88
1012.48	210.94
1012.77	210.94
1013.05	211.04
1013.34	211.08
1013.63	211.07
1013.92	211.15
1014.20	211.19
1014.49	211.24
1014.78	211.30
1015.06	211.22
1015.35	211.29
1015.64	211.34
1015.92	211.43
1016.21	211.40
1016.50	211.42
1016.78	211.50
1017.07	211.53
1017.36	211.50
1017.64	211.45
1017.93	211.54
1018.22	211.48
1018.50	211.53
1018.79	211.60
1019.08	211.55
1019.36	211.55
1019.65	211.63
1019.93	211.63
1020.22	211.59
1020.51	211.61
1020.79	211.62
1021.08	210.95
1021.36	212.10
1021.65	213.15
1021.94	211.75
1022.22	211.70
1022.51	212.55
1022.79	212.05
1023.08	210.55
1023.36	212.90
1023.65	211.25
>>>>>End Processed Spectral Data<<<<<
