SpectraSuite Data File
++++++++++++++++++++++++++++++++++++
Date: Mon Feb 25 17:30:06 EST 2013
User: group
Dark Spectrum Present: No
Reference Spectrum Present: No
Number of Sampled Component Spectra: 1
Spectrometers: USB2E7196
Integration Time (usec): 52000 (USB2E7196)
Spectra Averaged: 20 (USB2E7196)
Boxcar Smoothing: 10 (USB2E7196)
Correct for Electrical Dark: No (USB2E7196)
Strobe/Lamp Enabled: No (USB2E7196)
Correct for Detector Non-linearity: No (USB2E7196)
Correct for Stray Light: No (USB2E7196)
Number of Pixels in Processed Spectrum: 2048
>>>>>Begin Processed Spectral Data<<<<<
339.09	0.00
339.48	199.45
339.86	199.85
340.24	202.15
340.63	202.60
341.01	206.20
341.39	205.00
341.78	207.90
342.16	207.70
342.54	209.10
342.93	197.96
343.31	208.00
343.69	208.51
344.07	208.98
344.46	209.45
344.84	209.87
345.22	210.09
345.60	210.39
345.99	210.53
346.37	210.66
346.75	210.78
347.13	210.92
347.52	210.94
347.90	211.12
348.28	211.19
348.66	211.25
349.05	211.20
349.43	211.23
349.81	211.33
350.19	211.39
350.57	211.44
350.96	211.59
351.34	211.73
351.72	211.81
352.10	211.95
352.48	212.01
352.87	212.09
353.25	212.20
353.63	212.24
354.01	212.31
354.39	212.45
354.77	212.50
355.15	212.58
355.54	212.70
355.92	212.70
356.30	212.75
356.68	212.95
357.06	213.08
357.44	213.15
357.82	213.20
358.20	213.34
358.58	213.45
358.97	213.45
359.35	213.55
359.73	213.59
360.11	213.61
360.49	213.66
360.87	213.72
361.25	213.81
361.63	213.96
362.01	214.05
362.39	214.06
362.77	214.18
363.15	214.22
363.53	214.26
363.91	214.34
364.29	214.41
364.67	214.24
365.05	214.22
365.43	214.29
365.81	214.33
366.19	214.36
366.57	214.48
366.95	214.55
367.33	214.48
367.71	214.55
368.09	214.68
368.47	214.68
368.85	214.60
369.23	214.60
369.61	214.54
369.99	214.60
370.37	214.63
370.75	214.70
371.13	214.64
371.51	214.53
371.89	214.50
372.27	214.41
372.65	214.41
373.03	214.38
373.41	214.32
373.78	214.26
374.16	214.14
374.54	213.91
374.92	213.84
375.30	213.80
375.68	213.77
376.06	213.67
376.44	213.60
376.82	213.56
377.19	213.52
377.57	213.44
377.95	213.36
378.33	213.25
378.71	213.06
379.09	213.00
379.47	213.03
379.84	213.00
380.22	212.98
380.60	212.87
380.98	212.82
381.36	212.75
381.73	212.66
382.11	212.61
382.49	212.67
382.87	212.57
383.25	212.52
383.62	212.63
384.00	212.51
384.38	212.49
384.76	212.53
385.13	212.52
385.51	212.48
385.89	212.37
386.27	212.33
386.64	212.32
387.02	212.27
387.40	212.25
387.78	212.14
388.15	212.08
388.53	212.12
388.91	212.14
389.29	212.14
389.66	212.15
390.04	212.20
390.42	212.18
390.79	212.20
391.17	212.14
391.55	211.89
391.92	211.94
392.30	211.89
392.68	211.83
393.05	211.81
393.43	211.80
393.81	211.82
394.18	211.81
394.56	211.78
394.94	211.84
395.31	211.77
395.69	211.84
396.06	211.92
396.44	211.90
396.82	211.84
397.19	211.88
397.57	211.85
397.95	211.87
398.32	211.90
398.70	211.94
399.07	212.01
399.45	212.09
399.82	212.05
400.20	212.07
400.58	212.09
400.95	212.12
401.33	212.18
401.70	212.29
402.08	212.37
402.45	212.41
402.83	212.46
403.20	212.54
403.58	212.53
403.95	212.56
404.33	212.74
404.71	212.81
405.08	213.03
405.46	213.17
405.83	213.30
406.21	213.38
406.58	213.45
406.96	213.63
407.33	213.79
407.70	213.99
408.08	214.35
408.45	214.55
408.83	214.75
409.20	215.00
409.58	215.13
409.95	215.41
410.33	215.71
410.70	216.03
411.08	216.45
411.45	216.88
411.82	217.29
412.20	217.66
412.57	218.13
412.95	218.43
413.32	218.88
413.69	219.33
414.07	219.89
414.44	220.55
414.82	221.07
415.19	221.72
415.56	222.42
415.94	223.08
416.31	223.93
416.68	224.79
417.06	225.78
417.43	226.78
417.81	227.85
418.18	228.93
418.55	230.02
418.93	231.15
419.30	232.39
419.67	233.70
420.04	235.03
420.42	236.49
420.79	238.24
421.16	239.91
421.54	241.72
421.91	243.45
422.28	245.22
422.66	247.25
423.03	249.31
423.40	251.41
423.77	253.53
424.15	255.70
424.52	257.83
424.89	260.23
425.26	262.58
425.64	264.84
426.01	267.28
426.38	269.88
426.75	272.49
427.13	275.18
427.50	278.04
427.87	281.05
428.24	284.02
428.61	286.74
428.99	289.90
429.36	293.24
429.73	296.58
430.10	299.93
430.47	303.33
430.85	306.79
431.22	310.50
431.59	314.60
431.96	318.48
432.33	322.70
432.70	326.72
433.08	331.43
433.45	335.81
433.82	340.35
434.19	345.32
434.56	350.25
434.93	354.91
435.30	359.56
435.68	364.57
436.05	369.57
436.42	374.60
436.79	379.05
437.16	383.92
437.53	389.04
437.90	394.23
438.27	399.22
438.64	404.47
439.01	409.23
439.38	413.20
439.75	417.23
440.13	422.00
440.50	426.55
440.87	430.06
441.24	433.85
441.61	438.00
441.98	440.95
442.35	444.34
442.72	447.81
443.09	451.21
443.46	453.28
443.83	454.57
444.20	455.75
444.57	457.56
444.94	458.25
445.31	459.03
445.68	459.74
446.05	459.96
446.42	459.23
446.79	458.45
447.16	457.70
447.53	457.00
447.90	454.83
448.27	452.71
448.64	450.06
449.01	447.98
449.37	444.38
449.74	441.04
450.11	437.09
450.48	432.62
450.85	428.15
451.22	424.25
451.59	420.71
451.96	417.27
452.33	412.66
452.70	408.59
453.07	403.70
453.43	398.60
453.80	393.81
454.17	389.22
454.54	384.90
454.91	380.32
455.28	375.81
455.65	371.65
456.02	367.43
456.38	363.81
456.75	359.30
457.12	355.69
457.49	352.00
457.86	348.43
458.23	345.49
458.59	342.10
458.96	338.75
459.33	335.64
459.70	332.46
460.07	329.99
460.43	327.12
460.80	324.53
461.17	322.28
461.54	319.90
461.91	317.58
462.27	315.25
462.64	313.33
463.01	311.28
463.38	309.31
463.74	307.17
464.11	305.31
464.48	303.79
464.85	302.03
465.21	300.77
465.58	299.42
465.95	297.71
466.32	296.41
466.68	295.07
467.05	293.77
467.42	292.58
467.78	291.23
468.15	290.03
468.52	289.07
468.88	287.81
469.25	286.72
469.62	285.93
469.98	285.03
470.35	284.12
470.72	283.30
471.08	282.34
471.45	281.64
471.82	280.94
472.18	280.04
472.55	279.47
472.92	278.68
473.28	278.05
473.65	277.58
474.02	277.02
474.38	276.57
474.75	276.24
475.11	275.87
475.48	275.66
475.85	275.53
476.21	275.40
476.58	275.31
476.94	275.26
477.31	275.19
477.67	275.18
478.04	275.25
478.41	275.38
478.77	275.76
479.14	275.92
479.50	276.20
479.87	276.62
480.23	277.05
480.60	277.40
480.96	277.81
481.33	278.51
481.69	279.11
482.06	279.78
482.42	280.44
482.79	281.15
483.15	281.94
483.52	282.84
483.88	283.70
484.25	284.72
484.61	285.70
484.98	286.82
485.34	288.07
485.71	289.35
486.07	290.75
486.44	291.98
486.80	293.57
487.17	295.20
487.53	297.00
487.90	298.75
488.26	300.79
488.62	302.79
488.99	304.73
489.35	306.80
489.72	309.09
490.08	311.48
490.44	313.98
490.81	316.55
491.17	319.22
491.54	322.15
491.90	325.04
492.26	328.25
492.63	331.60
492.99	335.10
493.36	338.75
493.72	342.54
494.08	346.60
494.45	350.80
494.81	355.21
495.17	359.70
495.54	364.58
495.90	369.53
496.26	374.79
496.63	380.34
496.99	386.22
497.35	392.23
497.72	398.50
498.08	404.83
498.44	411.57
498.80	418.67
499.17	426.01
499.53	433.63
499.89	441.55
500.26	449.52
500.62	457.69
500.98	466.39
501.34	475.49
501.71	484.88
502.07	494.45
502.43	504.34
502.79	514.49
503.16	524.93
503.52	535.74
503.88	546.80
504.24	558.13
504.60	569.80
504.97	581.95
505.33	594.25
505.69	607.58
506.05	620.72
506.41	634.07
506.78	647.62
507.14	661.64
507.50	675.95
507.86	690.72
508.22	705.92
508.59	721.17
508.95	736.89
509.31	752.76
509.67	769.17
510.03	785.88
510.39	803.18
510.75	820.76
511.12	838.59
511.48	856.68
511.84	875.01
512.20	893.36
512.56	912.25
512.92	931.42
513.28	950.34
513.64	969.92
514.00	989.38
514.37	1009.22
514.73	1029.61
515.09	1049.84
515.45	1070.28
515.81	1091.04
516.17	1111.96
516.53	1132.75
516.89	1153.61
517.25	1174.70
517.61	1195.76
517.97	1216.39
518.33	1237.52
518.69	1258.76
519.05	1280.06
519.41	1301.55
519.77	1323.63
520.13	1345.13
520.49	1366.63
520.85	1388.66
521.21	1410.43
521.57	1432.75
521.93	1454.42
522.29	1476.55
522.65	1498.28
523.01	1520.28
523.37	1541.68
523.73	1563.57
524.09	1584.96
524.45	1606.47
524.81	1628.28
525.17	1649.94
525.53	1672.12
525.89	1693.63
526.25	1714.93
526.61	1735.66
526.97	1756.57
527.33	1776.80
527.68	1797.55
528.04	1818.00
528.40	1837.44
528.76	1857.29
529.12	1877.21
529.48	1898.12
529.84	1917.48
530.20	1937.41
530.56	1956.79
530.91	1976.74
531.27	1995.89
531.63	2015.21
531.99	2034.78
532.35	2052.92
532.71	2071.09
533.07	2089.45
533.42	2106.89
533.78	2124.77
534.14	2142.58
534.50	2159.04
534.86	2176.27
535.21	2191.85
535.57	2208.80
535.93	2225.36
536.29	2241.42
536.65	2257.29
537.00	2271.77
537.36	2286.30
537.72	2300.59
538.08	2314.75
538.44	2329.15
538.79	2343.91
539.15	2358.10
539.51	2371.85
539.87	2386.48
540.22	2400.25
540.58	2414.57
540.94	2428.68
541.29	2441.14
541.65	2452.73
542.01	2465.51
542.37	2476.70
542.72	2488.55
543.08	2498.79
543.44	2510.03
543.79	2519.80
544.15	2529.45
544.51	2539.60
544.87	2549.95
545.22	2558.56
545.58	2566.91
545.94	2573.49
546.29	2579.54
546.65	2585.16
547.01	2590.50
547.36	2595.51
547.72	2600.45
548.07	2603.60
548.43	2606.60
548.79	2609.72
549.14	2613.58
549.50	2617.28
549.86	2620.47
550.21	2623.85
550.57	2627.45
550.92	2629.46
551.28	2631.44
551.64	2633.11
551.99	2635.21
552.35	2636.20
552.70	2638.56
553.06	2640.95
553.41	2643.55
553.77	2645.75
554.13	2647.32
554.48	2648.99
554.84	2649.87
555.19	2650.07
555.55	2650.29
555.90	2650.53
556.26	2650.57
556.61	2650.13
556.97	2648.24
557.32	2647.83
557.68	2646.09
558.03	2644.19
558.39	2642.26
558.74	2641.63
559.10	2640.38
559.45	2638.05
559.81	2636.79
560.16	2633.95
560.52	2631.26
560.87	2628.06
561.23	2623.72
561.58	2621.28
561.94	2617.85
562.29	2614.02
562.64	2611.25
563.00	2608.49
563.35	2606.15
563.71	2604.35
564.06	2602.34
564.42	2600.48
564.77	2597.51
565.12	2595.29
565.48	2592.16
565.83	2589.42
566.19	2585.92
566.54	2581.28
566.89	2577.57
567.25	2573.56
567.60	2570.29
567.96	2566.33
568.31	2562.64
568.66	2559.13
569.02	2554.42
569.37	2549.09
569.72	2545.21
570.08	2540.08
570.43	2534.40
570.78	2528.37
571.14	2521.95
571.49	2515.19
571.84	2509.06
572.20	2502.60
572.55	2496.17
572.90	2489.43
573.26	2482.27
573.61	2475.16
573.96	2468.89
574.31	2461.13
574.67	2453.25
575.02	2444.81
575.37	2436.29
575.72	2427.51
576.08	2420.23
576.43	2411.84
576.78	2404.60
577.13	2396.80
577.49	2389.15
577.84	2381.87
578.19	2374.70
578.54	2367.61
578.90	2360.71
579.25	2352.35
579.60	2343.44
579.95	2334.29
580.30	2326.65
580.66	2319.11
581.01	2310.46
581.36	2301.81
581.71	2293.71
582.06	2285.45
582.42	2277.58
582.77	2269.06
583.12	2260.78
583.47	2252.25
583.82	2244.54
584.17	2235.51
584.53	2226.61
584.88	2218.15
585.23	2209.31
585.58	2200.03
585.93	2190.72
586.28	2181.85
586.63	2173.87
586.98	2166.19
587.34	2158.49
587.69	2149.76
588.04	2140.70
588.39	2132.91
588.74	2124.09
589.09	2115.80
589.44	2106.67
589.79	2098.56
590.14	2091.08
590.49	2083.05
590.84	2074.49
591.19	2066.68
591.54	2058.52
591.89	2048.81
592.25	2040.08
592.60	2031.11
592.95	2022.25
593.30	2013.22
593.65	2003.74
594.00	1994.14
594.35	1986.36
594.70	1977.60
595.05	1969.17
595.40	1961.16
595.75	1951.94
596.10	1944.16
596.45	1936.09
596.80	1928.51
597.15	1920.32
597.50	1911.55
597.85	1903.32
598.19	1895.11
598.54	1886.60
598.89	1879.15
599.24	1872.82
599.59	1865.45
599.94	1858.80
600.29	1851.49
600.64	1843.77
600.99	1836.35
601.34	1829.75
601.69	1821.11
602.04	1813.39
602.39	1805.70
602.74	1798.07
603.08	1791.81
603.43	1785.13
603.78	1777.45
604.13	1770.23
604.48	1762.89
604.83	1756.31
605.18	1749.77
605.53	1742.56
605.87	1735.44
606.22	1728.61
606.57	1721.26
606.92	1713.82
607.27	1706.15
607.62	1699.30
607.96	1692.89
608.31	1686.49
608.66	1679.05
609.01	1671.87
609.36	1664.36
609.70	1656.78
610.05	1649.42
610.40	1641.54
610.75	1633.06
611.10	1625.79
611.44	1616.99
611.79	1608.33
612.14	1599.35
612.49	1590.05
612.83	1581.69
613.18	1572.36
613.53	1563.18
613.88	1553.95
614.22	1545.39
614.57	1536.16
614.92	1526.99
615.27	1518.15
615.61	1508.91
615.96	1500.02
616.31	1492.21
616.65	1484.78
617.00	1476.57
617.35	1468.25
617.70	1459.69
618.04	1451.41
618.39	1442.35
618.74	1434.26
619.08	1425.77
619.43	1418.20
619.78	1410.75
620.12	1403.10
620.47	1395.74
620.82	1387.58
621.16	1379.56
621.51	1371.52
621.85	1363.86
622.20	1355.84
622.55	1347.91
622.89	1340.08
623.24	1332.62
623.59	1324.05
623.93	1315.45
624.28	1307.80
624.62	1299.76
624.97	1292.00
625.32	1284.40
625.66	1277.37
626.01	1270.57
626.35	1263.65
626.70	1255.78
627.04	1248.53
627.39	1241.09
627.73	1233.71
628.08	1227.22
628.43	1219.90
628.77	1212.77
629.12	1205.56
629.46	1199.15
629.81	1192.14
630.15	1185.01
630.50	1177.80
630.84	1170.87
631.19	1164.22
631.53	1157.47
631.88	1150.23
632.22	1142.96
632.57	1136.15
632.91	1128.91
633.26	1121.55
633.60	1114.78
633.95	1108.52
634.29	1101.48
634.64	1094.82
634.98	1088.36
635.32	1081.41
635.67	1075.57
636.01	1068.92
636.36	1062.30
636.70	1055.76
637.05	1049.19
637.39	1043.17
637.73	1036.94
638.08	1031.30
638.42	1025.77
638.77	1019.61
639.11	1013.62
639.45	1007.99
639.80	1001.80
640.14	995.65
640.49	989.59
640.83	983.52
641.17	977.40
641.52	971.53
641.86	965.45
642.20	959.29
642.55	952.71
642.89	946.30
643.23	940.38
643.58	934.85
643.92	928.58
644.26	922.62
644.61	916.84
644.95	911.06
645.29	904.79
645.64	898.27
645.98	892.19
646.32	886.63
646.66	880.62
647.01	874.88
647.35	869.40
647.69	863.53
648.04	857.88
648.38	851.98
648.72	846.13
649.06	840.30
649.41	834.53
649.75	828.95
650.09	823.27
650.43	817.52
650.78	811.49
651.12	805.79
651.46	800.39
651.80	794.65
652.14	788.92
652.49	783.44
652.83	777.81
653.17	771.91
653.51	766.31
653.85	760.75
654.20	754.98
654.54	749.27
654.88	743.90
655.22	738.22
655.56	732.58
655.90	726.97
656.25	721.40
656.59	716.21
656.93	711.47
657.27	706.44
657.61	701.19
657.95	696.27
658.29	691.35
658.64	686.29
658.98	681.24
659.32	676.15
659.66	671.04
660.00	666.19
660.34	661.29
660.68	656.23
661.02	651.35
661.36	646.88
661.70	642.22
662.05	637.58
662.39	633.40
662.73	629.22
663.07	625.07
663.41	620.90
663.75	616.55
664.09	611.87
664.43	607.47
664.77	603.38
665.11	599.21
665.45	594.95
665.79	590.74
666.13	586.64
666.47	582.60
666.81	578.74
667.15	574.80
667.49	571.17
667.83	567.41
668.17	563.75
668.51	560.15
668.85	556.51
669.19	553.04
669.53	549.25
669.87	545.36
670.21	541.70
670.55	538.01
670.89	534.63
671.23	531.47
671.57	528.18
671.91	524.72
672.25	521.13
672.58	517.77
672.92	514.37
673.26	511.18
673.60	508.08
673.94	504.85
674.28	501.62
674.62	498.55
674.96	495.58
675.30	492.54
675.64	489.41
675.97	486.35
676.31	483.38
676.65	480.54
676.99	478.03
677.33	475.25
677.67	472.39
678.01	469.23
678.34	466.33
678.68	463.40
679.02	460.53
679.36	457.73
679.70	455.12
680.04	452.44
680.37	449.61
680.71	446.89
681.05	444.21
681.39	441.49
681.73	438.81
682.06	436.28
682.40	433.89
682.74	431.40
683.08	428.98
683.42	426.44
683.75	423.91
684.09	421.25
684.43	418.87
684.77	416.41
685.10	414.11
685.44	411.66
685.78	409.29
686.12	407.19
686.45	405.01
686.79	402.66
687.13	400.60
687.46	398.47
687.80	396.30
688.14	394.08
688.48	392.07
688.81	389.85
689.15	387.71
689.49	385.49
689.82	383.33
690.16	381.02
690.50	378.78
690.83	376.62
691.17	374.51
691.51	372.33
691.84	370.39
692.18	368.45
692.52	366.60
692.85	364.87
693.19	362.95
693.52	361.10
693.86	359.23
694.20	357.37
694.53	355.64
694.87	353.82
695.21	352.02
695.54	350.14
695.88	348.39
696.21	346.50
696.55	344.78
696.88	343.19
697.22	341.63
697.56	340.17
697.89	338.79
698.23	337.24
698.56	335.67
698.90	334.24
699.23	332.66
699.57	331.12
699.90	329.50
700.24	327.87
700.58	326.32
700.91	324.90
701.25	323.51
701.58	322.09
701.92	320.75
702.25	319.50
702.59	318.21
702.92	316.96
703.26	315.71
703.59	314.47
703.93	313.33
704.26	312.06
704.60	310.74
704.93	309.46
705.26	308.27
705.60	307.15
705.93	305.83
706.27	304.72
706.60	303.62
706.94	302.67
707.27	301.58
707.61	300.49
707.94	299.32
708.27	298.16
708.61	297.07
708.94	295.87
709.28	294.72
709.61	293.56
709.94	292.59
710.28	291.61
710.61	290.61
710.95	289.45
711.28	288.59
711.61	287.63
711.95	286.62
712.28	285.58
712.61	284.60
712.95	283.76
713.28	282.93
713.61	282.05
713.95	281.00
714.28	280.18
714.61	279.25
714.95	278.50
715.28	277.52
715.61	276.52
715.95	275.72
716.28	274.84
716.61	274.14
716.95	273.22
717.28	272.43
717.61	271.61
717.94	270.80
718.28	269.92
718.61	269.24
718.94	268.49
719.27	267.85
719.61	267.30
719.94	266.61
720.27	265.80
720.60	265.06
720.94	264.35
721.27	263.64
721.60	263.11
721.93	262.44
722.27	261.93
722.60	261.44
722.93	260.88
723.26	260.33
723.59	259.70
723.93	259.19
724.26	258.56
724.59	258.03
724.92	257.55
725.25	257.15
725.59	256.61
725.92	256.15
726.25	255.65
726.58	255.02
726.91	254.51
727.24	254.14
727.57	253.66
727.91	253.18
728.24	252.72
728.57	252.24
728.90	251.82
729.23	251.31
729.56	251.04
729.89	250.54
730.22	250.14
730.55	249.69
730.89	249.21
731.22	248.90
731.55	248.46
731.88	248.01
732.21	247.49
732.54	247.07
732.87	246.59
733.20	246.17
733.53	245.76
733.86	245.36
734.19	244.87
734.52	244.50
734.85	244.37
735.18	244.04
735.51	243.74
735.84	243.35
736.17	242.99
736.50	242.41
736.83	242.33
737.16	241.94
737.49	241.65
737.82	241.28
738.15	240.85
738.48	240.52
738.81	240.14
739.14	239.81
739.47	239.45
739.80	239.07
740.13	238.70
740.46	238.33
740.79	238.00
741.12	237.67
741.45	237.36
741.78	236.94
742.11	236.59
742.44	236.28
742.77	236.05
743.10	235.79
743.43	235.50
743.75	234.93
744.08	234.97
744.41	234.66
744.74	234.45
745.07	234.17
745.40	233.93
745.73	233.78
746.06	233.55
746.39	233.28
746.71	233.00
747.04	232.79
747.37	232.63
747.70	232.40
748.03	232.15
748.36	231.91
748.68	231.58
749.01	231.29
749.34	230.95
749.67	230.68
750.00	230.43
750.33	230.37
750.65	230.21
750.98	229.64
751.31	229.47
751.64	229.27
751.97	229.19
752.29	228.90
752.62	228.58
752.95	228.30
753.28	228.07
753.60	227.90
753.93	227.75
754.26	227.50
754.59	227.23
754.91	227.07
755.24	226.84
755.57	226.63
755.90	226.43
756.22	226.25
756.55	226.02
756.88	225.85
757.20	225.48
757.53	225.20
757.86	225.07
758.19	224.78
758.51	224.63
758.84	224.31
759.17	224.15
759.49	224.12
759.82	224.06
760.15	223.87
760.47	223.69
760.80	223.45
761.13	223.35
761.45	223.15
761.78	222.95
762.11	222.87
762.43	222.75
762.76	222.64
763.08	222.52
763.41	222.45
763.74	222.24
764.06	222.09
764.39	222.00
764.71	221.87
765.04	221.77
765.37	221.55
765.69	221.47
766.02	221.36
766.34	221.09
766.67	220.88
767.00	220.86
767.32	220.81
767.65	220.80
767.97	220.67
768.30	220.56
768.62	220.47
768.95	220.35
769.27	220.32
769.60	220.26
769.92	220.19
770.25	220.03
770.57	219.93
770.90	219.83
771.22	219.75
771.55	219.62
771.87	219.56
772.20	219.42
772.52	219.47
772.85	219.52
773.17	219.45
773.50	219.41
773.82	219.31
774.15	219.13
774.47	218.96
774.80	218.87
775.12	218.85
775.45	218.77
775.77	218.68
776.09	218.48
776.42	218.36
776.74	218.30
777.07	218.18
777.39	218.07
777.72	218.03
778.04	217.94
778.36	217.90
778.69	217.86
779.01	217.83
779.33	217.62
779.66	217.39
779.98	217.31
780.31	217.14
780.63	217.11
780.95	217.13
781.28	217.00
781.60	216.97
781.92	216.85
782.25	216.82
782.57	216.73
782.89	216.67
783.22	216.62
783.54	216.50
783.86	216.50
784.19	216.50
784.51	216.55
784.83	216.56
785.16	216.49
785.48	216.46
785.80	216.47
786.12	216.39
786.45	216.37
786.77	216.39
787.09	216.35
787.42	216.30
787.74	216.25
788.06	216.30
788.38	216.20
788.71	216.21
789.03	216.14
789.35	216.09
789.67	216.05
789.99	215.99
790.32	215.93
790.64	215.87
790.96	216.01
791.28	215.89
791.61	215.80
791.93	215.80
792.25	215.73
792.57	215.76
792.89	215.72
793.21	215.65
793.54	215.57
793.86	215.52
794.18	215.45
794.50	215.37
794.82	215.39
795.14	215.33
795.47	215.33
795.79	215.31
796.11	215.28
796.43	215.25
796.75	215.22
797.07	215.25
797.39	215.23
797.71	215.03
798.04	214.98
798.36	214.95
798.68	214.89
799.00	214.87
799.32	214.71
799.64	214.69
799.96	214.68
800.28	214.70
800.60	214.73
800.92	214.76
801.24	214.70
801.56	214.58
801.89	214.48
802.21	214.39
802.53	214.38
802.85	214.32
803.17	214.38
803.49	214.35
803.81	214.33
804.13	214.24
804.45	214.20
804.77	214.22
805.09	214.14
805.41	214.09
805.73	214.05
806.05	214.04
806.37	214.01
806.69	213.98
807.01	213.89
807.33	213.79
807.65	213.59
807.97	213.70
808.28	213.67
808.60	213.68
808.92	213.64
809.24	213.59
809.56	213.61
809.88	213.51
810.20	213.44
810.52	213.46
810.84	213.46
811.16	213.44
811.48	213.36
811.80	213.47
812.12	213.40
812.43	213.37
812.75	213.33
813.07	213.34
813.39	213.33
813.71	213.30
814.03	213.24
814.35	213.33
814.67	213.22
814.98	213.22
815.30	213.22
815.62	213.20
815.94	213.13
816.26	213.15
816.58	213.12
816.89	213.14
817.21	213.06
817.53	213.08
817.85	213.05
818.17	213.05
818.48	212.89
818.80	212.98
819.12	212.91
819.44	212.92
819.76	212.81
820.07	212.88
820.39	212.80
820.71	212.82
821.03	212.82
821.34	212.75
821.66	212.72
821.98	212.78
822.30	212.78
822.61	212.89
822.93	212.80
823.25	212.80
823.57	212.76
823.88	212.70
824.20	212.64
824.52	212.66
824.83	212.67
825.15	212.70
825.47	212.68
825.79	212.70
826.10	212.63
826.42	212.60
826.74	212.49
827.05	212.55
827.37	212.60
827.69	212.48
828.00	212.50
828.32	212.46
828.64	212.37
828.95	212.37
829.27	212.30
829.58	212.24
829.90	212.16
830.22	212.19
830.53	212.26
830.85	212.29
831.17	212.15
831.48	212.07
831.80	212.02
832.11	211.95
832.43	211.92
832.75	211.91
833.06	212.03
833.38	211.99
833.69	211.91
834.01	211.89
834.32	211.87
834.64	211.82
834.96	211.83
835.27	211.85
835.59	211.85
835.90	211.76
836.22	211.81
836.53	211.81
836.85	211.80
837.16	211.84
837.48	211.84
837.79	211.99
838.11	212.00
838.42	212.02
838.74	212.03
839.05	212.02
839.37	211.99
839.68	211.89
840.00	211.84
840.31	211.90
840.63	211.85
840.94	211.85
841.26	211.90
841.57	211.84
841.88	211.83
842.20	211.77
842.51	211.83
842.83	211.80
843.14	211.97
843.46	211.98
843.77	211.90
844.08	211.88
844.40	211.83
844.71	211.75
845.03	211.73
845.34	211.75
845.65	211.68
845.97	211.69
846.28	211.64
846.60	211.75
846.91	211.74
847.22	211.78
847.54	211.79
847.85	211.83
848.16	211.86
848.48	211.78
848.79	211.88
849.10	211.88
849.42	211.88
849.73	211.68
850.04	211.66
850.36	211.60
850.67	211.62
850.98	211.55
851.30	211.62
851.61	211.60
851.92	211.56
852.23	211.65
852.55	211.70
852.86	211.75
853.17	211.75
853.49	211.72
853.80	211.73
854.11	211.72
854.42	211.62
854.74	211.60
855.05	211.61
855.36	211.45
855.67	211.42
855.99	211.47
856.30	211.67
856.61	211.66
856.92	211.67
857.23	211.60
857.55	211.61
857.86	211.67
858.17	211.71
858.48	211.72
858.79	211.63
859.11	211.66
859.42	211.66
859.73	211.65
860.04	211.62
860.35	211.60
860.66	211.59
860.98	211.65
861.29	211.65
861.60	211.70
861.91	211.78
862.22	211.72
862.53	211.68
862.84	211.51
863.16	211.58
863.47	211.54
863.78	211.58
864.09	211.60
864.40	211.56
864.71	211.59
865.02	211.58
865.33	211.59
865.64	211.52
865.95	211.47
866.27	211.54
866.58	211.62
866.89	211.66
867.20	211.70
867.51	211.66
867.82	211.64
868.13	211.71
868.44	211.69
868.75	211.73
869.06	211.74
869.37	211.77
869.68	211.68
869.99	211.66
870.30	211.65
870.61	211.70
870.92	211.60
871.23	211.53
871.54	211.53
871.85	211.62
872.16	211.56
872.47	211.63
872.78	211.54
873.09	211.48
873.40	211.40
873.71	211.42
874.02	211.35
874.33	211.31
874.64	211.27
874.95	211.34
875.26	211.33
875.56	211.32
875.87	211.24
876.18	211.27
876.49	211.49
876.80	211.43
877.11	211.34
877.42	211.41
877.73	211.37
878.04	211.30
878.35	211.24
878.66	211.30
878.96	211.21
879.27	211.18
879.58	211.17
879.89	211.20
880.20	211.17
880.51	211.25
880.82	211.35
881.12	211.27
881.43	211.21
881.74	211.13
882.05	211.15
882.36	211.27
882.67	211.22
882.97	211.02
883.28	211.04
883.59	211.05
883.90	211.08
884.21	211.17
884.51	211.18
884.82	211.18
885.13	211.15
885.44	211.12
885.74	211.12
886.05	211.13
886.36	211.03
886.67	211.01
886.98	211.05
887.28	210.97
887.59	211.00
887.90	210.93
888.20	210.97
888.51	211.01
888.82	210.96
889.13	211.01
889.43	211.19
889.74	211.14
890.05	211.07
890.35	211.05
890.66	210.95
890.97	210.94
891.28	210.89
891.58	210.88
891.89	210.92
892.20	210.87
892.50	210.86
892.81	210.97
893.12	210.95
893.42	210.88
893.73	210.92
894.04	210.94
894.34	210.95
894.65	210.94
894.95	210.91
895.26	210.94
895.57	210.96
895.87	210.78
896.18	210.82
896.48	210.87
896.79	210.87
897.10	210.92
897.40	210.94
897.71	210.96
898.01	211.07
898.32	211.10
898.63	211.14
898.93	211.18
899.24	211.12
899.54	211.13
899.85	211.21
900.15	211.20
900.46	211.23
900.76	211.25
901.07	211.23
901.38	211.17
901.68	211.10
901.99	211.05
902.29	211.04
902.60	211.07
902.90	211.04
903.21	211.09
903.51	211.05
903.82	211.14
904.12	211.23
904.43	211.16
904.73	211.21
905.03	211.19
905.34	211.32
905.64	211.33
905.95	211.36
906.25	211.32
906.56	211.26
906.86	211.21
907.17	211.28
907.47	211.29
907.77	211.31
908.08	211.32
908.38	211.36
908.69	211.38
908.99	211.39
909.30	211.45
909.60	211.38
909.90	211.38
910.21	211.30
910.51	211.17
910.81	211.24
911.12	211.17
911.42	211.19
911.73	211.01
912.03	211.03
912.33	211.06
912.64	211.07
912.94	211.14
913.24	211.12
913.55	211.08
913.85	211.11
914.15	211.11
914.46	211.13
914.76	211.09
915.06	211.10
915.37	211.08
915.67	211.10
915.97	211.16
916.27	211.25
916.58	211.26
916.88	211.34
917.18	211.24
917.49	211.43
917.79	211.45
918.09	211.45
918.39	211.52
918.70	211.51
919.00	211.45
919.30	211.50
919.60	211.42
919.91	211.41
920.21	211.49
920.51	211.49
920.81	211.45
921.12	211.55
921.42	211.53
921.72	211.62
922.02	211.57
922.32	211.56
922.63	211.48
922.93	211.65
923.23	211.60
923.53	211.65
923.83	211.47
924.13	211.49
924.44	211.56
924.74	211.54
925.04	211.61
925.34	211.64
925.64	211.65
925.94	211.75
926.24	211.95
926.55	211.90
926.85	211.99
927.15	212.05
927.45	212.00
927.75	211.96
928.05	211.83
928.35	211.84
928.65	211.92
928.95	211.97
929.26	211.82
929.56	211.86
929.86	211.79
930.16	211.86
930.46	211.89
930.76	211.83
931.06	211.76
931.36	211.70
931.66	211.71
931.96	211.72
932.26	211.75
932.56	211.60
932.86	211.62
933.16	211.52
933.46	211.45
933.76	211.43
934.06	211.55
934.36	211.70
934.66	211.72
934.96	211.70
935.26	211.67
935.56	211.70
935.86	211.70
936.16	211.73
936.46	211.69
936.76	211.68
937.06	211.70
937.36	211.76
937.66	211.74
937.96	211.76
938.26	211.67
938.56	211.66
938.86	211.59
939.16	211.62
939.46	211.65
939.76	211.68
940.06	211.62
940.35	211.54
940.65	211.46
940.95	211.45
941.25	211.39
941.55	211.37
941.85	211.34
942.15	211.35
942.45	211.38
942.75	211.30
943.04	211.29
943.34	211.33
943.64	211.28
943.94	211.23
944.24	211.18
944.54	211.17
944.84	211.12
945.13	211.19
945.43	211.19
945.73	211.21
946.03	211.23
946.33	211.23
946.62	211.17
946.92	211.08
947.22	211.07
947.52	211.09
947.82	211.16
948.11	211.18
948.41	211.05
948.71	211.01
949.01	210.98
949.31	211.00
949.60	210.90
949.90	210.94
950.20	210.97
950.50	210.97
950.79	210.94
951.09	210.94
951.39	210.95
951.69	210.82
951.98	210.81
952.28	210.78
952.58	210.80
952.87	210.84
953.17	210.84
953.47	210.87
953.76	210.82
954.06	210.72
954.36	210.67
954.66	210.69
954.95	210.69
955.25	210.76
955.55	210.76
955.84	210.77
956.14	210.77
956.44	210.75
956.73	210.73
957.03	210.79
957.32	210.77
957.62	210.65
957.92	210.76
958.21	210.77
958.51	210.97
958.81	211.10
959.10	211.09
959.40	211.16
959.69	211.21
959.99	211.25
960.29	211.30
960.58	211.29
960.88	211.45
961.17	211.46
961.47	211.50
961.76	211.52
962.06	211.55
962.36	211.52
962.65	211.54
962.95	211.50
963.24	211.48
963.54	211.47
963.83	211.59
964.13	211.55
964.42	211.53
964.72	211.36
965.01	211.30
965.31	211.36
965.60	211.43
965.90	211.54
966.19	211.47
966.49	211.40
966.78	211.45
967.08	211.38
967.37	211.43
967.67	211.37
967.96	211.37
968.26	211.34
968.55	211.40
968.85	211.45
969.14	211.55
969.43	211.55
969.73	211.57
970.02	211.43
970.32	211.37
970.61	211.33
970.91	211.30
971.20	211.30
971.49	211.23
971.79	211.14
972.08	210.96
972.38	211.05
972.67	211.07
972.96	211.09
973.26	211.07
973.55	211.08
973.85	211.05
974.14	211.02
974.43	211.07
974.73	211.00
975.02	210.97
975.31	210.86
975.61	210.83
975.90	210.82
976.19	210.88
976.49	210.95
976.78	210.97
977.07	210.96
977.37	210.84
977.66	210.87
977.95	210.81
978.24	210.73
978.54	210.75
978.83	210.76
979.12	210.68
979.42	210.65
979.71	210.62
980.00	210.63
980.29	210.61
980.59	210.56
980.88	210.62
981.17	210.59
981.46	210.62
981.76	210.68
982.05	210.77
982.34	210.81
982.63	210.80
982.93	210.80
983.22	210.84
983.51	210.91
983.80	210.92
984.09	211.04
984.39	211.04
984.68	210.99
984.97	210.98
985.26	211.02
985.55	211.02
985.85	210.94
986.14	210.92
986.43	210.89
986.72	210.89
987.01	210.81
987.30	210.82
987.59	210.81
987.89	210.79
988.18	210.70
988.47	210.65
988.76	210.58
989.05	210.55
989.34	210.54
989.63	210.61
989.92	210.60
990.22	210.58
990.51	210.61
990.80	210.64
991.09	210.63
991.38	210.65
991.67	210.71
991.96	210.69
992.25	210.74
992.54	210.80
992.83	210.77
993.12	210.75
993.41	210.76
993.70	210.84
993.99	210.91
994.28	210.89
994.58	210.96
994.87	210.94
995.16	210.93
995.45	210.85
995.74	210.67
996.03	210.69
996.32	210.63
996.61	210.63
996.90	210.59
997.19	210.59
997.48	210.62
997.77	210.61
998.06	210.65
998.34	210.62
998.63	210.60
998.92	210.61
999.21	210.68
999.50	210.70
999.79	210.59
1000.08	210.55
1000.37	210.59
1000.66	210.49
1000.95	210.57
1001.24	210.62
1001.53	210.69
1001.82	210.75
1002.11	210.67
1002.40	210.66
1002.68	210.72
1002.97	210.85
1003.26	210.82
1003.55	210.81
1003.84	210.77
1004.13	210.83
1004.42	210.87
1004.71	210.86
1004.99	210.90
1005.28	210.94
1005.57	210.95
1005.86	211.00
1006.15	211.01
1006.44	211.02
1006.72	211.10
1007.01	211.10
1007.30	211.14
1007.59	211.19
1007.88	211.26
1008.17	211.30
1008.45	211.33
1008.74	211.35
1009.03	211.23
1009.32	211.23
1009.60	211.16
1009.89	211.16
1010.18	211.14
1010.47	211.09
1010.76	211.07
1011.04	211.10
1011.33	211.05
1011.62	211.09
1011.91	211.08
1012.19	211.05
1012.48	211.07
1012.77	211.11
1013.05	211.18
1013.34	211.20
1013.63	211.09
1013.92	210.97
1014.20	211.06
1014.49	211.10
1014.78	211.05
1015.06	211.08
1015.35	211.16
1015.64	211.20
1015.92	211.19
1016.21	211.16
1016.50	211.16
1016.78	211.17
1017.07	211.12
1017.36	211.18
1017.64	211.09
1017.93	211.10
1018.22	211.13
1018.50	211.10
1018.79	211.08
1019.08	211.05
1019.36	210.99
1019.65	211.05
1019.93	211.19
1020.22	211.11
1020.51	211.17
1020.79	211.15
1021.08	211.25
1021.36	211.25
1021.65	211.40
1021.94	211.90
1022.22	211.10
1022.51	210.90
1022.79	212.00
1023.08	210.75
1023.36	213.10
1023.65	210.25
>>>>>End Processed Spectral Data<<<<<
