SpectraSuite Data File
++++++++++++++++++++++++++++++++++++
Date: Mon Feb 25 17:36:01 EST 2013
User: group
Dark Spectrum Present: No
Reference Spectrum Present: No
Number of Sampled Component Spectra: 1
Spectrometers: USB2E7196
Integration Time (usec): 52000 (USB2E7196)
Spectra Averaged: 20 (USB2E7196)
Boxcar Smoothing: 10 (USB2E7196)
Correct for Electrical Dark: No (USB2E7196)
Strobe/Lamp Enabled: No (USB2E7196)
Correct for Detector Non-linearity: No (USB2E7196)
Correct for Stray Light: No (USB2E7196)
Number of Pixels in Processed Spectrum: 2048
>>>>>Begin Processed Spectral Data<<<<<
339.09	0.00
339.48	198.10
339.86	200.30
340.24	201.25
340.63	201.65
341.01	206.40
341.39	205.60
341.78	206.95
342.16	207.70
342.54	209.45
342.93	197.86
343.31	207.84
343.69	208.36
344.07	208.82
344.46	209.29
344.84	209.79
345.22	210.06
345.60	210.41
345.99	210.70
346.37	210.91
346.75	211.12
347.13	211.28
347.52	211.50
347.90	211.65
348.28	211.79
348.66	212.06
349.05	212.16
349.43	212.26
349.81	212.49
350.19	212.70
350.57	212.87
350.96	213.01
351.34	213.27
351.72	213.51
352.10	213.69
352.48	213.85
352.87	213.94
353.25	214.10
353.63	214.18
354.01	214.28
354.39	214.43
354.77	214.52
355.15	214.69
355.54	214.71
355.92	214.74
356.30	214.81
356.68	214.91
357.06	214.93
357.44	215.00
357.82	214.97
358.20	215.02
358.58	215.11
358.97	215.20
359.35	215.27
359.73	215.41
360.11	215.51
360.49	215.55
360.87	215.54
361.25	215.60
361.63	215.69
362.01	215.75
362.39	215.80
362.77	215.80
363.15	215.80
363.53	215.88
363.91	215.90
364.29	215.94
364.67	215.86
365.05	215.95
365.43	216.02
365.81	216.13
366.19	216.28
366.57	216.38
366.95	216.32
367.33	216.31
367.71	216.28
368.09	216.33
368.47	216.37
368.85	216.38
369.23	216.40
369.61	216.30
369.99	216.32
370.37	216.33
370.75	216.39
371.13	216.31
371.51	216.23
371.89	216.25
372.27	216.27
372.65	216.28
373.03	216.20
373.41	216.12
373.78	216.14
374.16	215.98
374.54	215.88
374.92	215.92
375.30	215.90
375.68	215.89
376.06	215.88
376.44	215.75
376.82	215.75
377.19	215.73
377.57	215.75
377.95	215.66
378.33	215.64
378.71	215.55
379.09	215.52
379.47	215.56
379.84	215.49
380.22	215.41
380.60	215.35
380.98	215.35
381.36	215.32
381.73	215.19
382.11	215.19
382.49	215.15
382.87	215.04
383.25	215.01
383.62	215.09
384.00	214.96
384.38	215.01
384.76	215.10
385.13	215.11
385.51	215.12
385.89	215.05
386.27	214.97
386.64	215.01
387.02	215.06
387.40	215.05
387.78	215.09
388.15	215.19
388.53	215.16
388.91	215.15
389.29	215.15
389.66	215.20
390.04	215.24
390.42	215.23
390.79	215.33
391.17	215.32
391.55	215.19
391.92	215.26
392.30	215.30
392.68	215.25
393.05	215.20
393.43	215.17
393.81	215.25
394.18	215.33
394.56	215.34
394.94	215.45
395.31	215.44
395.69	215.53
396.06	215.60
396.44	215.74
396.82	215.86
397.19	216.07
397.57	216.23
397.95	216.33
398.32	216.53
398.70	216.68
399.07	216.89
399.45	217.07
399.82	217.26
400.20	217.56
400.58	217.80
400.95	218.03
401.33	218.38
401.70	218.82
402.08	219.17
402.45	219.54
402.83	219.95
403.20	220.43
403.58	220.89
403.95	221.34
404.33	221.93
404.71	222.51
405.08	223.23
405.46	223.89
405.83	224.64
406.21	225.40
406.58	226.28
406.96	227.28
407.33	228.29
407.70	229.42
408.08	230.77
408.45	232.18
408.83	233.71
409.20	235.21
409.58	236.75
409.95	238.53
410.33	240.46
410.70	242.36
411.08	244.48
411.45	246.79
411.82	249.23
412.20	251.77
412.57	254.79
412.95	257.65
413.32	260.90
413.69	264.39
414.07	268.03
414.44	272.05
414.82	276.20
415.19	280.97
415.56	285.89
415.94	291.14
416.31	296.87
416.68	302.64
417.06	309.26
417.43	315.46
417.81	322.61
418.18	330.04
418.55	338.16
418.93	346.67
419.30	355.54
419.67	364.81
420.04	374.65
420.42	384.91
420.79	396.20
421.16	407.94
421.54	419.80
421.91	432.46
422.28	445.70
422.66	459.84
423.03	473.36
423.40	487.79
423.77	503.17
424.15	519.02
424.52	535.47
424.89	553.26
425.26	570.99
425.64	587.89
426.01	606.42
426.38	625.94
426.75	645.73
427.13	666.42
427.50	688.32
427.87	711.19
428.24	734.31
428.61	756.65
428.99	780.40
429.36	806.81
429.73	832.56
430.10	858.01
430.47	884.28
430.85	912.34
431.22	941.41
431.59	972.04
431.96	1002.10
432.33	1035.40
432.70	1067.83
433.08	1105.58
433.45	1141.17
433.82	1176.98
434.19	1216.21
434.56	1254.93
434.93	1292.75
435.30	1330.51
435.68	1372.40
436.05	1414.04
436.42	1455.70
436.79	1493.93
437.16	1535.34
437.53	1579.43
437.90	1623.04
438.27	1665.94
438.64	1710.59
439.01	1752.14
439.38	1790.23
439.75	1826.56
440.13	1868.06
440.50	1907.42
440.87	1940.23
441.24	1974.97
441.61	2012.57
441.98	2041.79
442.35	2075.15
442.72	2107.73
443.09	2139.28
443.46	2160.42
443.83	2175.99
444.20	2190.17
444.57	2209.44
444.94	2220.57
445.31	2231.51
445.68	2241.35
446.05	2248.91
446.42	2249.30
446.79	2248.41
447.16	2247.15
447.53	2247.21
447.90	2235.50
448.27	2223.80
448.64	2205.81
449.01	2193.26
449.37	2168.54
449.74	2144.72
450.11	2114.55
450.48	2083.52
450.85	2051.82
451.22	2024.28
451.59	1997.26
451.96	1971.85
452.33	1936.67
452.70	1904.98
453.07	1866.61
453.43	1828.36
453.80	1790.34
454.17	1753.84
454.54	1720.14
454.91	1682.80
455.28	1646.72
455.65	1613.30
456.02	1577.60
456.38	1548.62
456.75	1512.02
457.12	1482.04
457.49	1451.95
457.86	1424.09
458.23	1398.18
458.59	1370.17
458.96	1341.81
459.33	1317.04
459.70	1291.73
460.07	1271.85
460.43	1248.84
460.80	1226.84
461.17	1207.77
461.54	1187.71
461.91	1168.68
462.27	1149.27
462.64	1133.00
463.01	1114.39
463.38	1096.32
463.74	1080.36
464.11	1065.01
464.48	1051.38
464.85	1036.35
465.21	1024.90
465.58	1012.44
465.95	998.23
466.32	986.09
466.68	973.76
467.05	961.70
467.42	949.66
467.78	936.92
468.15	924.91
468.52	915.91
468.88	904.70
469.25	894.45
469.62	885.98
469.98	877.10
470.35	868.82
470.72	861.16
471.08	852.81
471.45	845.35
471.82	837.68
472.18	829.76
472.55	824.08
472.92	817.34
473.28	811.49
473.65	805.63
474.02	799.84
474.38	795.07
474.75	790.87
475.11	786.65
475.48	783.13
475.85	780.24
476.21	777.54
476.58	775.00
476.94	773.20
477.31	771.02
477.67	768.74
478.04	766.99
478.41	766.02
478.77	765.22
479.14	764.14
479.50	763.91
479.87	764.57
480.23	765.12
480.60	765.27
480.96	765.50
481.33	767.14
481.69	768.84
482.06	770.19
482.42	771.10
482.79	772.61
483.15	775.46
483.52	779.03
483.88	782.00
484.25	785.30
484.61	788.66
484.98	792.37
485.34	796.65
485.71	801.35
486.07	806.26
486.44	811.51
486.80	817.36
487.17	823.53
487.53	830.21
487.90	837.15
488.26	844.67
488.62	852.84
488.99	860.57
489.35	868.63
489.72	877.88
490.08	888.04
490.44	898.14
490.81	908.16
491.17	917.98
491.54	929.18
491.90	940.26
492.26	952.28
492.63	964.73
492.99	977.86
493.36	991.02
493.72	1004.85
494.08	1018.91
494.45	1033.75
494.81	1049.30
495.17	1065.02
495.54	1081.42
495.90	1098.53
496.26	1115.87
496.63	1134.00
496.99	1152.25
497.35	1170.62
497.72	1189.35
498.08	1208.25
498.44	1227.79
498.80	1248.20
499.17	1268.52
499.53	1289.64
499.89	1311.34
500.26	1332.82
500.62	1353.84
500.98	1376.57
501.34	1399.35
501.71	1422.57
502.07	1446.26
502.43	1469.68
502.79	1492.93
503.16	1516.53
503.52	1540.10
503.88	1563.45
504.24	1586.96
504.60	1611.32
504.97	1636.28
505.33	1660.87
505.69	1686.87
506.05	1712.23
506.41	1737.10
506.78	1762.27
507.14	1787.09
507.50	1811.87
507.86	1837.20
508.22	1863.28
508.59	1888.20
508.95	1913.51
509.31	1938.65
509.67	1964.05
510.03	1989.34
510.39	2015.59
510.75	2041.30
511.12	2065.88
511.48	2090.71
511.84	2115.30
512.20	2139.52
512.56	2163.99
512.92	2188.84
513.28	2212.57
513.64	2236.64
514.00	2260.28
514.37	2283.60
514.73	2307.24
515.09	2330.12
515.45	2352.85
515.81	2375.29
516.17	2397.92
516.53	2419.61
516.89	2441.35
517.25	2461.02
517.61	2481.04
517.97	2500.51
518.33	2518.87
518.69	2538.64
519.05	2558.30
519.41	2577.40
519.77	2596.88
520.13	2615.12
520.49	2632.37
520.85	2649.40
521.21	2665.92
521.57	2683.42
521.93	2699.09
522.29	2716.25
522.65	2732.93
523.01	2749.06
523.37	2764.32
523.73	2779.34
524.09	2793.49
524.45	2807.58
524.81	2822.37
525.17	2837.18
525.53	2851.24
525.89	2865.99
526.25	2879.78
526.61	2891.70
526.97	2904.88
527.33	2917.05
527.68	2929.73
528.04	2942.41
528.40	2954.70
528.76	2966.82
529.12	2978.22
529.48	2990.84
529.84	3000.10
530.20	3010.49
530.56	3020.70
530.91	3031.99
531.27	3042.94
531.63	3053.93
531.99	3063.79
532.35	3073.20
532.71	3082.15
533.07	3092.77
533.42	3102.65
533.78	3112.80
534.14	3122.52
534.50	3131.11
534.86	3140.44
535.21	3147.50
535.57	3155.70
535.93	3162.79
536.29	3169.55
536.65	3177.33
537.00	3184.11
537.36	3191.81
537.72	3198.32
538.08	3205.27
538.44	3211.62
538.79	3217.74
539.15	3224.14
539.51	3231.10
539.87	3239.20
540.22	3245.61
540.58	3251.21
540.94	3256.63
541.29	3260.33
541.65	3263.48
542.01	3267.71
542.37	3271.35
542.72	3276.13
543.08	3279.75
543.44	3284.03
543.79	3287.35
544.15	3289.92
544.51	3294.15
544.87	3298.19
545.22	3300.79
545.58	3302.30
545.94	3303.47
546.29	3304.14
546.65	3304.87
547.01	3305.27
547.36	3305.71
547.72	3306.42
548.07	3305.94
548.43	3305.12
548.79	3304.71
549.14	3306.33
549.50	3306.35
549.86	3306.33
550.21	3306.08
550.57	3306.29
550.92	3305.33
551.28	3304.33
551.64	3302.68
551.99	3301.32
552.35	3299.75
552.70	3299.00
553.06	3298.92
553.41	3298.69
553.77	3298.49
554.13	3297.95
554.48	3299.08
554.84	3297.91
555.19	3296.62
555.55	3296.62
555.90	3296.19
556.26	3296.01
556.61	3295.42
556.97	3293.70
557.32	3291.31
557.68	3288.60
558.03	3285.51
558.39	3283.46
558.74	3283.70
559.10	3283.87
559.45	3282.86
559.81	3282.25
560.16	3280.75
560.52	3279.46
560.87	3277.53
561.23	3274.22
561.58	3271.40
561.94	3267.15
562.29	3263.39
562.64	3260.54
563.00	3256.22
563.35	3252.12
563.71	3249.04
564.06	3245.77
564.42	3243.27
564.77	3240.46
565.12	3237.92
565.48	3235.45
565.83	3233.51
566.19	3230.98
566.54	3227.80
566.89	3223.27
567.25	3218.52
567.60	3215.19
567.96	3210.44
568.31	3206.06
568.66	3202.84
569.02	3199.88
569.37	3196.39
569.72	3193.65
570.08	3190.60
570.43	3186.45
570.78	3183.66
571.14	3180.36
571.49	3176.52
571.84	3173.85
572.20	3169.99
572.55	3166.53
572.90	3161.75
573.26	3156.52
573.61	3150.08
573.96	3143.34
574.31	3137.34
574.67	3131.98
575.02	3125.61
575.37	3118.70
575.72	3112.13
576.08	3105.50
576.43	3098.25
576.78	3091.05
577.13	3084.21
577.49	3077.02
577.84	3070.53
578.19	3063.20
578.54	3054.80
578.90	3047.20
579.25	3037.85
579.60	3028.95
579.95	3020.01
580.30	3012.72
580.66	3004.46
581.01	2995.89
581.36	2986.76
581.71	2978.86
582.06	2970.75
582.42	2963.35
582.77	2955.20
583.12	2946.70
583.47	2937.72
583.82	2928.96
584.17	2919.48
584.53	2910.16
584.88	2900.61
585.23	2891.15
585.58	2882.25
585.93	2873.35
586.28	2864.86
586.63	2856.59
586.98	2849.00
587.34	2841.11
587.69	2831.05
588.04	2822.39
588.39	2813.73
588.74	2804.75
589.09	2795.09
589.44	2783.79
589.79	2773.21
590.14	2764.59
590.49	2754.45
590.84	2745.63
591.19	2736.70
591.54	2727.31
591.89	2716.99
592.25	2707.50
592.60	2697.37
592.95	2686.12
593.30	2675.50
593.65	2664.50
594.00	2653.87
594.35	2643.94
594.70	2632.96
595.05	2623.51
595.40	2612.60
595.75	2601.08
596.10	2590.69
596.45	2580.36
596.80	2571.41
597.15	2561.35
597.50	2550.51
597.85	2541.03
598.19	2529.46
598.54	2518.15
598.89	2507.88
599.24	2497.53
599.59	2486.91
599.94	2476.58
600.29	2465.94
600.64	2455.40
600.99	2443.95
601.34	2433.33
601.69	2421.18
602.04	2410.16
602.39	2399.32
602.74	2389.80
603.08	2381.39
603.43	2373.40
603.78	2364.01
604.13	2354.10
604.48	2343.10
604.83	2333.50
605.18	2323.48
605.53	2313.86
605.87	2303.74
606.22	2293.97
606.57	2283.53
606.92	2272.24
607.27	2261.78
607.62	2252.54
607.96	2243.29
608.31	2234.70
608.66	2224.70
609.01	2215.16
609.36	2204.48
609.70	2193.18
610.05	2181.42
610.40	2169.30
610.75	2156.59
611.10	2144.87
611.44	2131.99
611.79	2121.45
612.14	2109.39
612.49	2097.08
612.83	2085.55
613.18	2073.75
613.53	2061.64
613.88	2049.09
614.22	2037.61
614.57	2025.64
614.92	2013.02
615.27	2000.91
615.61	1987.20
615.96	1974.97
616.31	1963.13
616.65	1952.69
617.00	1941.83
617.35	1930.30
617.70	1918.69
618.04	1907.33
618.39	1896.39
618.74	1885.63
619.08	1873.06
619.43	1861.16
619.78	1850.33
620.12	1839.98
620.47	1829.42
620.82	1818.30
621.16	1808.06
621.51	1797.36
621.85	1786.75
622.20	1776.25
622.55	1764.58
622.89	1754.88
623.24	1744.46
623.59	1733.48
623.93	1722.49
624.28	1711.88
624.62	1701.45
624.97	1691.22
625.32	1680.94
625.66	1670.15
626.01	1660.34
626.35	1651.72
626.70	1642.97
627.04	1632.95
627.39	1622.60
627.73	1612.81
628.08	1603.71
628.43	1594.12
628.77	1585.16
629.12	1575.20
629.46	1565.41
629.81	1555.54
630.15	1545.30
630.50	1534.72
630.84	1524.65
631.19	1513.86
631.53	1503.95
631.88	1494.23
632.22	1484.47
632.57	1474.97
632.91	1465.26
633.26	1455.70
633.60	1445.57
633.95	1435.59
634.29	1426.49
634.64	1417.58
634.98	1408.17
635.32	1398.78
635.67	1389.79
636.01	1380.50
636.36	1371.53
636.70	1362.89
637.05	1354.67
637.39	1346.36
637.73	1338.11
638.08	1330.38
638.42	1322.78
638.77	1314.83
639.11	1306.40
639.45	1298.06
639.80	1289.76
640.14	1281.39
640.49	1272.83
640.83	1264.39
641.17	1256.29
641.52	1247.86
641.86	1238.97
642.20	1230.51
642.55	1221.60
642.89	1213.20
643.23	1204.50
643.58	1196.36
643.92	1187.67
644.26	1179.14
644.61	1170.40
644.95	1162.02
645.29	1153.50
645.64	1144.98
645.98	1136.40
646.32	1128.45
646.66	1120.38
647.01	1112.27
647.35	1104.25
647.69	1096.08
648.04	1088.23
648.38	1079.73
648.72	1071.84
649.06	1063.99
649.41	1055.86
649.75	1047.61
650.09	1040.05
650.43	1032.69
650.78	1025.16
651.12	1017.75
651.46	1010.65
651.80	1003.82
652.14	997.00
652.49	989.66
652.83	982.49
653.17	974.45
653.51	966.83
653.85	959.61
654.20	952.51
654.54	945.55
654.88	938.63
655.22	931.43
655.56	924.16
655.90	916.33
656.25	909.07
656.59	902.52
656.93	896.29
657.27	889.40
657.61	882.54
657.95	876.06
658.29	869.54
658.64	863.00
658.98	856.55
659.32	849.56
659.66	843.11
660.00	836.61
660.34	831.02
660.68	824.99
661.02	818.53
661.36	812.25
661.70	806.27
662.05	800.54
662.39	794.86
662.73	789.57
663.07	784.73
663.41	779.63
663.75	774.02
664.09	768.38
664.43	762.58
664.77	757.18
665.11	751.64
665.45	746.37
665.79	741.05
666.13	735.84
666.47	731.10
666.81	726.25
667.15	721.30
667.49	716.33
667.83	711.51
668.17	707.16
668.51	702.48
668.85	697.50
669.19	692.55
669.53	687.76
669.87	682.70
670.21	677.86
670.55	672.88
670.89	668.17
671.23	663.69
671.57	659.24
671.91	654.40
672.25	650.03
672.58	645.51
672.92	641.05
673.26	636.66
673.60	632.27
673.94	628.20
674.28	624.30
674.62	620.31
674.96	616.19
675.30	611.99
675.64	608.23
675.97	604.64
676.31	601.09
676.65	597.60
676.99	594.47
677.33	591.02
677.67	587.66
678.01	584.04
678.34	580.43
678.68	577.02
679.02	573.57
679.36	569.75
679.70	566.20
680.04	562.71
680.37	559.32
680.71	556.00
681.05	552.48
681.39	549.06
681.73	545.78
682.06	542.61
682.40	539.40
682.74	536.04
683.08	532.70
683.42	529.28
683.75	525.77
684.09	522.07
684.43	518.54
684.77	515.14
685.10	511.88
685.44	508.61
685.78	505.44
686.12	502.33
686.45	499.36
686.79	496.50
687.13	493.65
687.46	490.58
687.80	487.54
688.14	484.50
688.48	481.56
688.81	478.57
689.15	475.74
689.49	472.73
689.82	469.78
690.16	466.65
690.50	463.78
690.83	461.10
691.17	458.46
691.51	455.70
691.84	452.99
692.18	450.42
692.52	447.94
692.85	445.38
693.19	442.90
693.52	440.35
693.86	437.75
694.20	435.18
694.53	432.60
694.87	429.86
695.21	427.22
695.54	424.62
695.88	422.08
696.21	419.57
696.55	417.33
696.88	414.99
697.22	412.79
697.56	410.66
697.89	408.36
698.23	406.29
698.56	404.22
698.90	402.16
699.23	399.80
699.57	397.46
699.90	395.21
700.24	393.07
700.58	390.93
700.91	388.89
701.25	386.89
701.58	385.00
701.92	383.35
702.25	381.66
702.59	379.71
702.92	377.90
703.26	376.05
703.59	374.28
703.93	372.65
704.26	370.84
704.60	368.94
704.93	367.03
705.26	365.06
705.60	363.30
705.93	361.63
706.27	360.26
706.60	358.88
706.94	357.44
707.27	355.76
707.61	354.06
707.94	352.26
708.27	350.52
708.61	348.87
708.94	347.25
709.28	345.69
709.61	344.30
709.94	342.72
710.28	341.10
710.61	339.57
710.95	337.79
711.28	336.40
711.61	334.90
711.95	333.56
712.28	332.23
712.61	330.90
712.95	329.47
713.28	328.11
713.61	326.55
713.95	325.13
714.28	323.88
714.61	322.81
714.95	321.75
715.28	320.53
715.61	319.22
715.95	317.95
716.28	316.53
716.61	315.19
716.95	313.85
717.28	312.78
717.61	311.50
717.94	310.43
718.28	309.25
718.61	308.13
718.94	307.03
719.27	305.93
719.61	304.84
719.94	303.85
720.27	302.65
720.60	301.71
720.94	300.73
721.27	299.77
721.60	298.94
721.93	297.90
722.27	296.97
722.60	295.99
722.93	295.05
723.26	294.30
723.59	293.45
723.93	292.66
724.26	291.74
724.59	290.87
724.92	290.07
725.25	289.38
725.59	288.69
725.92	287.97
726.25	287.26
726.58	286.41
726.91	285.50
727.24	284.75
727.57	283.95
727.91	283.12
728.24	282.40
728.57	281.44
728.90	280.81
729.23	280.11
729.56	279.57
729.89	278.88
730.22	278.02
730.55	277.32
730.89	276.56
731.22	275.90
731.55	275.21
731.88	274.56
732.21	273.82
732.54	273.16
732.87	272.35
733.20	271.64
733.53	271.06
733.86	270.51
734.19	269.98
734.52	269.45
734.85	269.06
735.18	268.42
735.51	268.00
735.84	267.39
736.17	266.80
736.50	266.15
736.83	265.70
737.16	265.29
737.49	264.80
737.82	264.28
738.15	263.68
738.48	263.13
738.81	262.45
739.14	261.89
739.47	261.22
739.80	260.80
740.13	260.28
740.46	259.73
740.79	259.21
741.12	258.63
741.45	258.06
741.78	257.43
742.11	256.94
742.44	256.33
742.77	255.76
743.10	255.21
743.43	254.64
743.75	253.95
744.08	253.70
744.41	253.16
744.74	252.77
745.07	252.27
745.40	251.97
745.73	251.68
746.06	251.15
746.39	250.70
746.71	250.13
747.04	249.69
747.37	249.22
747.70	248.75
748.03	248.27
748.36	247.87
748.68	247.45
749.01	246.98
749.34	246.51
749.67	246.11
750.00	245.76
750.33	245.47
750.65	245.19
750.98	244.54
751.31	244.19
751.64	243.85
751.97	243.56
752.29	243.07
752.62	242.56
752.95	242.17
753.28	241.85
753.60	241.55
753.93	241.21
754.26	240.92
754.59	240.50
754.91	240.23
755.24	239.90
755.57	239.43
755.90	239.11
756.22	238.81
756.55	238.51
756.88	238.15
757.20	237.84
757.53	237.43
757.86	237.14
758.19	236.81
758.51	236.39
758.84	236.02
759.17	235.80
759.49	235.63
759.82	235.49
760.15	235.21
760.47	234.97
760.80	234.68
761.13	234.35
761.45	234.15
761.78	233.89
762.11	233.57
762.43	233.37
762.76	233.12
763.08	232.91
763.41	232.64
763.74	232.37
764.06	232.10
764.39	231.84
764.71	231.54
765.04	231.28
765.37	231.03
765.69	230.80
766.02	230.52
766.34	230.27
766.67	229.96
767.00	229.75
767.32	229.56
767.65	229.40
767.97	229.30
768.30	229.10
768.62	228.89
768.95	228.75
769.27	228.60
769.60	228.42
769.92	228.22
770.25	228.05
770.57	227.85
770.90	227.63
771.22	227.47
771.55	227.37
771.87	227.16
772.20	226.99
772.52	227.01
772.85	227.00
773.17	226.77
773.50	226.55
773.82	226.31
774.15	226.06
774.47	225.84
774.80	225.58
775.12	225.44
775.45	225.25
775.77	225.07
776.09	224.90
776.42	224.78
776.74	224.67
777.07	224.50
777.39	224.38
777.72	224.25
778.04	224.10
778.36	223.90
778.69	223.78
779.01	223.65
779.33	223.36
779.66	223.08
779.98	222.91
780.31	222.83
780.63	222.85
780.95	222.81
781.28	222.70
781.60	222.60
781.92	222.44
782.25	222.39
782.57	222.30
782.89	222.17
783.22	222.00
783.54	221.87
783.86	221.81
784.19	221.75
784.51	221.77
784.83	221.66
785.16	221.64
785.48	221.55
785.80	221.46
786.12	221.41
786.45	221.38
786.77	221.32
787.09	221.18
787.42	221.00
787.74	220.91
788.06	220.81
788.38	220.78
788.71	220.73
789.03	220.66
789.35	220.61
789.67	220.50
789.99	220.45
790.32	220.33
790.64	220.19
790.96	220.12
791.28	219.94
791.61	219.86
791.93	219.77
792.25	219.74
792.57	219.81
792.89	219.66
793.21	219.56
793.54	219.50
793.86	219.45
794.18	219.37
794.50	219.26
794.82	219.19
795.14	219.15
795.47	219.05
795.79	218.96
796.11	218.83
796.43	218.75
796.75	218.60
797.07	218.56
797.39	218.56
797.71	218.43
798.04	218.34
798.36	218.28
798.68	218.24
799.00	218.14
799.32	217.95
799.64	217.93
799.96	217.84
800.28	217.81
800.60	217.76
800.92	217.75
801.24	217.71
801.56	217.64
801.89	217.50
802.21	217.45
802.53	217.39
802.85	217.36
803.17	217.42
803.49	217.39
803.81	217.28
804.13	217.27
804.45	217.24
804.77	217.21
805.09	217.17
805.41	217.06
805.73	216.98
806.05	216.88
806.37	216.81
806.69	216.70
807.01	216.60
807.33	216.63
807.65	216.41
807.97	216.45
808.28	216.48
808.60	216.42
808.92	216.42
809.24	216.40
809.56	216.34
809.88	216.28
810.20	216.27
810.52	216.29
810.84	216.09
811.16	215.97
811.48	215.90
811.80	215.92
812.12	215.86
812.43	215.90
812.75	215.87
813.07	215.74
813.39	215.69
813.71	215.62
814.03	215.44
814.35	215.43
814.67	215.30
814.98	215.13
815.30	215.10
815.62	214.98
815.94	214.85
816.26	214.79
816.58	214.69
816.89	214.67
817.21	214.59
817.53	214.62
817.85	214.62
818.17	214.55
818.48	214.43
818.80	214.44
819.12	214.28
819.44	214.21
819.76	214.22
820.07	214.23
820.39	214.23
820.71	214.28
821.03	214.30
821.34	214.23
821.66	214.27
821.98	214.22
822.30	214.17
822.61	214.16
822.93	214.08
823.25	214.07
823.57	213.98
823.88	214.00
824.20	213.92
824.52	213.91
824.83	213.96
825.15	213.88
825.47	213.76
825.79	213.77
826.10	213.73
826.42	213.69
826.74	213.70
827.05	213.68
827.37	213.60
827.69	213.54
828.00	213.55
828.32	213.45
828.64	213.42
828.95	213.50
829.27	213.49
829.58	213.53
829.90	213.49
830.22	213.48
830.53	213.36
830.85	213.39
831.17	213.35
831.48	213.33
831.80	213.32
832.11	213.38
832.43	213.42
832.75	213.38
833.06	213.44
833.38	213.31
833.69	213.29
834.01	213.32
834.32	213.30
834.64	213.26
834.96	213.33
835.27	213.29
835.59	213.23
835.90	213.20
836.22	213.19
836.53	213.10
836.85	213.08
837.16	213.35
837.48	213.28
837.79	213.28
838.11	213.18
838.42	213.23
838.74	213.27
839.05	213.14
839.37	213.14
839.68	213.05
840.00	213.05
840.31	213.05
840.63	213.05
840.94	213.06
841.26	213.03
841.57	212.96
841.88	213.03
842.20	213.02
842.51	212.94
842.83	212.94
843.14	213.15
843.46	213.10
843.77	212.90
844.08	212.97
844.40	212.96
844.71	212.93
845.03	212.86
845.34	212.75
845.65	212.79
845.97	212.79
846.28	212.80
846.60	212.79
846.91	212.76
847.22	212.70
847.54	212.72
847.85	212.68
848.16	212.67
848.48	212.56
848.79	212.60
849.10	212.64
849.42	212.60
849.73	212.37
850.04	212.43
850.36	212.40
850.67	212.37
850.98	212.36
851.30	212.39
851.61	212.43
851.92	212.47
852.23	212.51
852.55	212.53
852.86	212.44
853.17	212.49
853.49	212.50
853.80	212.48
854.11	212.54
854.42	212.61
854.74	212.60
855.05	212.60
855.36	212.51
855.67	212.52
855.99	212.49
856.30	212.75
856.61	212.75
856.92	212.77
857.23	212.75
857.55	212.71
857.86	212.71
858.17	212.64
858.48	212.56
858.79	212.53
859.11	212.54
859.42	212.59
859.73	212.51
860.04	212.49
860.35	212.49
860.66	212.35
860.98	212.26
861.29	212.27
861.60	212.30
861.91	212.31
862.22	212.26
862.53	212.22
862.84	211.99
863.16	211.99
863.47	211.91
863.78	211.87
864.09	211.90
864.40	211.89
864.71	211.90
865.02	211.99
865.33	211.94
865.64	211.85
865.95	211.85
866.27	212.01
866.58	212.00
866.89	212.00
867.20	212.01
867.51	212.00
867.82	211.95
868.13	211.91
868.44	211.83
868.75	211.89
869.06	211.96
869.37	211.94
869.68	211.93
869.99	211.91
870.30	211.89
870.61	211.84
870.92	211.80
871.23	211.76
871.54	211.70
871.85	211.70
872.16	211.68
872.47	211.66
872.78	211.49
873.09	211.51
873.40	211.50
873.71	211.54
874.02	211.60
874.33	211.64
874.64	211.70
874.95	211.73
875.26	211.70
875.56	211.62
875.87	211.70
876.18	211.63
876.49	211.82
876.80	211.88
877.11	211.83
877.42	211.86
877.73	211.89
878.04	211.93
878.35	211.98
878.66	212.05
878.96	212.03
879.27	212.05
879.58	212.02
879.89	212.05
880.20	212.05
880.51	211.97
880.82	211.97
881.12	211.92
881.43	211.93
881.74	211.92
882.05	211.91
882.36	211.78
882.67	211.83
882.97	211.67
883.28	211.64
883.59	211.70
883.90	211.72
884.21	211.80
884.51	211.79
884.82	211.74
885.13	211.72
885.44	211.73
885.74	211.79
886.05	211.72
886.36	211.69
886.67	211.58
886.98	211.69
887.28	211.73
887.59	211.70
887.90	211.73
888.20	211.74
888.51	211.83
888.82	211.90
889.13	211.89
889.43	212.00
889.74	211.99
890.05	211.90
890.35	211.77
890.66	211.69
890.97	211.63
891.28	211.65
891.58	211.71
891.89	211.66
892.20	211.53
892.50	211.59
892.81	211.60
893.12	211.62
893.42	211.56
893.73	211.52
894.04	211.57
894.34	211.51
894.65	211.48
894.95	211.43
895.26	211.42
895.57	211.49
895.87	211.42
896.18	211.35
896.48	211.50
896.79	211.62
897.10	211.64
897.40	211.65
897.71	211.59
898.01	211.51
898.32	211.58
898.63	211.65
898.93	211.66
899.24	211.68
899.54	211.70
899.85	211.71
900.15	211.72
900.46	211.76
900.76	211.78
901.07	211.73
901.38	211.76
901.68	211.80
901.99	211.75
902.29	211.72
902.60	211.80
902.90	211.70
903.21	211.69
903.51	211.70
903.82	211.75
904.12	211.85
904.43	211.93
904.73	211.90
905.03	211.93
905.34	211.99
905.64	211.98
905.95	212.00
906.25	211.94
906.56	211.91
906.86	211.92
907.17	211.96
907.47	212.00
907.77	211.93
908.08	211.85
908.38	211.84
908.69	211.81
908.99	211.87
909.30	211.91
909.60	211.92
909.90	211.95
910.21	211.92
910.51	211.80
910.81	211.79
911.12	211.80
911.42	211.73
911.73	211.64
912.03	211.65
912.33	211.66
912.64	211.69
912.94	211.73
913.24	211.65
913.55	211.61
913.85	211.57
914.15	211.65
914.46	211.67
914.76	211.63
915.06	211.62
915.37	211.54
915.67	211.56
915.97	211.54
916.27	211.46
916.58	211.46
916.88	211.54
917.18	211.51
917.49	211.61
917.79	211.67
918.09	211.68
918.39	211.67
918.70	211.61
919.00	211.60
919.30	211.58
919.60	211.58
919.91	211.50
920.21	211.55
920.51	211.43
920.81	211.40
921.12	211.47
921.42	211.48
921.72	211.50
922.02	211.47
922.32	211.43
922.63	211.36
922.93	211.39
923.23	211.33
923.53	211.32
923.83	211.24
924.13	211.20
924.44	211.23
924.74	211.31
925.04	211.35
925.34	211.31
925.64	211.30
925.94	211.23
926.24	211.39
926.55	211.38
926.85	211.43
927.15	211.43
927.45	211.35
927.75	211.33
928.05	211.33
928.35	211.27
928.65	211.42
928.95	211.54
929.26	211.49
929.56	211.52
929.86	211.46
930.16	211.38
930.46	211.40
930.76	211.37
931.06	211.30
931.36	211.21
931.66	211.22
931.96	211.24
932.26	211.32
932.56	211.24
932.86	211.23
933.16	211.26
933.46	211.25
933.76	211.26
934.06	211.25
934.36	211.28
934.66	211.28
934.96	211.21
935.26	211.22
935.56	211.24
935.86	211.24
936.16	211.26
936.46	211.29
936.76	211.32
937.06	211.34
937.36	211.28
937.66	211.38
937.96	211.37
938.26	211.35
938.56	211.30
938.86	211.28
939.16	211.32
939.46	211.37
939.76	211.42
940.06	211.45
940.35	211.51
940.65	211.40
940.95	211.43
941.25	211.38
941.55	211.40
941.85	211.36
942.15	211.33
942.45	211.39
942.75	211.37
943.04	211.37
943.34	211.36
943.64	211.38
943.94	211.34
944.24	211.39
944.54	211.43
944.84	211.44
945.13	211.43
945.43	211.37
945.73	211.32
946.03	211.28
946.33	211.23
946.62	211.23
946.92	211.21
947.22	211.20
947.52	211.23
947.82	211.19
948.11	211.17
948.41	211.10
948.71	211.05
949.01	211.05
949.31	210.93
949.60	210.90
949.90	210.88
950.20	210.86
950.50	210.82
950.79	210.79
951.09	210.82
951.39	210.83
951.69	210.83
951.98	210.85
952.28	210.85
952.58	210.85
952.87	210.73
953.17	210.77
953.47	210.74
953.76	210.69
954.06	210.65
954.36	210.67
954.66	210.71
954.95	210.80
955.25	210.85
955.55	210.94
955.84	210.87
956.14	210.92
956.44	210.98
956.73	210.97
957.03	210.90
957.32	210.85
957.62	210.77
957.92	210.83
958.21	210.74
958.51	210.90
958.81	210.94
959.10	211.02
959.40	211.03
959.69	211.10
959.99	211.16
960.29	211.15
960.58	211.14
960.88	211.20
961.17	211.14
961.47	211.15
961.76	211.12
962.06	211.18
962.36	211.11
962.65	211.04
962.95	211.01
963.24	210.99
963.54	210.97
963.83	211.05
964.13	211.01
964.42	211.01
964.72	210.95
965.01	210.89
965.31	210.88
965.60	210.92
965.90	210.99
966.19	210.84
966.49	210.88
966.78	210.89
967.08	210.95
967.37	210.92
967.67	210.91
967.96	210.90
968.26	210.94
968.55	210.99
968.85	210.98
969.14	211.04
969.43	211.03
969.73	211.00
970.02	210.95
970.32	210.92
970.61	210.91
970.91	210.84
971.20	210.92
971.49	210.89
971.79	210.87
972.08	210.71
972.38	210.82
972.67	210.82
972.96	210.77
973.26	210.67
973.55	210.69
973.85	210.62
974.14	210.65
974.43	210.59
974.73	210.57
975.02	210.56
975.31	210.56
975.61	210.61
975.90	210.60
976.19	210.67
976.49	210.66
976.78	210.72
977.07	210.67
977.37	210.63
977.66	210.68
977.95	210.64
978.24	210.66
978.54	210.71
978.83	210.62
979.12	210.64
979.42	210.62
979.71	210.56
980.00	210.61
980.29	210.59
980.59	210.63
980.88	210.66
981.17	210.70
981.46	210.69
981.76	210.64
982.05	210.78
982.34	210.77
982.63	210.86
982.93	210.85
983.22	210.95
983.51	210.93
983.80	210.93
984.09	210.97
984.39	210.96
984.68	210.96
984.97	211.00
985.26	210.99
985.55	211.01
985.85	211.08
986.14	211.06
986.43	211.17
986.72	211.12
987.01	211.07
987.30	210.99
987.59	211.05
987.89	211.10
988.18	211.02
988.47	210.97
988.76	210.90
989.05	210.85
989.34	210.80
989.63	210.89
989.92	210.89
990.22	210.88
990.51	210.88
990.80	210.84
991.09	210.80
991.38	210.85
991.67	210.83
991.96	210.72
992.25	210.75
992.54	210.69
992.83	210.76
993.12	210.69
993.41	210.77
993.70	210.80
993.99	210.88
994.28	210.89
994.58	210.92
994.87	210.95
995.16	210.97
995.45	210.96
995.74	210.90
996.03	210.87
996.32	210.86
996.61	210.97
996.90	210.97
997.19	211.06
997.48	211.05
997.77	211.02
998.06	211.14
998.34	211.14
998.63	211.05
998.92	211.06
999.21	211.17
999.50	211.22
999.79	211.16
1000.08	211.11
1000.37	211.14
1000.66	211.14
1000.95	211.13
1001.24	211.13
1001.53	211.17
1001.82	211.12
1002.11	211.12
1002.40	211.14
1002.68	211.16
1002.97	211.26
1003.26	211.15
1003.55	211.17
1003.84	211.20
1004.13	211.28
1004.42	211.23
1004.71	211.19
1004.99	211.16
1005.28	211.23
1005.57	211.18
1005.86	211.13
1006.15	211.09
1006.44	211.02
1006.72	211.05
1007.01	211.06
1007.30	211.09
1007.59	210.96
1007.88	210.96
1008.17	210.96
1008.45	210.94
1008.74	210.84
1009.03	210.75
1009.32	210.79
1009.60	210.75
1009.89	210.75
1010.18	210.62
1010.47	210.56
1010.76	210.71
1011.04	210.64
1011.33	210.58
1011.62	210.58
1011.91	210.60
1012.19	210.60
1012.48	210.65
1012.77	210.59
1013.05	210.64
1013.34	210.59
1013.63	210.71
1013.92	210.77
1014.20	210.79
1014.49	210.78
1014.78	210.79
1015.06	210.65
1015.35	210.70
1015.64	210.69
1015.92	210.68
1016.21	210.67
1016.50	210.69
1016.78	210.58
1017.07	210.62
1017.36	210.59
1017.64	210.50
1017.93	210.50
1018.22	210.46
1018.50	210.45
1018.79	210.49
1019.08	210.38
1019.36	210.43
1019.65	210.34
1019.93	210.39
1020.22	210.41
1020.51	210.49
1020.79	210.42
1021.08	209.35
1021.36	210.65
1021.65	210.80
1021.94	209.95
1022.22	211.55
1022.51	209.85
1022.79	211.85
1023.08	211.55
1023.36	212.40
1023.65	209.55
>>>>>End Processed Spectral Data<<<<<
