SpectraSuite Data File
++++++++++++++++++++++++++++++++++++
Date: Mon Feb 25 17:30:36 EST 2013
User: group
Dark Spectrum Present: No
Reference Spectrum Present: No
Number of Sampled Component Spectra: 1
Spectrometers: USB2E7196
Integration Time (usec): 52000 (USB2E7196)
Spectra Averaged: 20 (USB2E7196)
Boxcar Smoothing: 10 (USB2E7196)
Correct for Electrical Dark: No (USB2E7196)
Strobe/Lamp Enabled: No (USB2E7196)
Correct for Detector Non-linearity: No (USB2E7196)
Correct for Stray Light: No (USB2E7196)
Number of Pixels in Processed Spectrum: 2048
>>>>>Begin Processed Spectral Data<<<<<
339.09	0.00
339.48	199.25
339.86	200.60
340.24	201.50
340.63	204.25
341.01	207.35
341.39	205.50
341.78	207.40
342.16	209.00
342.54	209.45
342.93	198.17
343.31	208.22
343.69	208.75
344.07	209.19
344.46	209.63
344.84	209.98
345.22	210.16
345.60	210.43
345.99	210.64
346.37	210.77
346.75	210.86
347.13	210.95
347.52	211.00
347.90	211.21
348.28	211.24
348.66	211.35
349.05	211.31
349.43	211.41
349.81	211.52
350.19	211.61
350.57	211.61
350.96	211.65
351.34	211.73
351.72	211.82
352.10	211.90
352.48	212.01
352.87	212.04
353.25	212.10
353.63	212.20
354.01	212.24
354.39	212.28
354.77	212.38
355.15	212.54
355.54	212.57
355.92	212.48
356.30	212.54
356.68	212.73
357.06	212.82
357.44	212.80
357.82	212.82
358.20	212.88
358.58	212.94
358.97	213.04
359.35	213.09
359.73	213.21
360.11	213.25
360.49	213.34
360.87	213.41
361.25	213.42
361.63	213.44
362.01	213.52
362.39	213.57
362.77	213.56
363.15	213.64
363.53	213.66
363.91	213.74
364.29	213.75
364.67	213.59
365.05	213.60
365.43	213.65
365.81	213.69
366.19	213.79
366.57	213.98
366.95	213.94
367.33	213.96
367.71	213.95
368.09	214.03
368.47	213.98
368.85	213.95
369.23	214.03
369.61	214.04
369.99	214.11
370.37	214.11
370.75	214.19
371.13	214.05
371.51	214.01
371.89	214.07
372.27	214.10
372.65	214.09
373.03	214.02
373.41	214.06
373.78	214.03
374.16	213.90
374.54	213.76
374.92	213.76
375.30	213.70
375.68	213.62
376.06	213.62
376.44	213.49
376.82	213.41
377.19	213.38
377.57	213.26
377.95	213.10
378.33	213.02
378.71	212.89
379.09	212.92
379.47	212.90
379.84	212.75
380.22	212.64
380.60	212.58
380.98	212.57
381.36	212.45
381.73	212.37
382.11	212.34
382.49	212.25
382.87	212.13
383.25	212.04
383.62	212.17
384.00	212.03
384.38	212.10
384.76	212.14
385.13	212.13
385.51	212.13
385.89	212.08
386.27	212.06
386.64	212.06
387.02	211.98
387.40	211.88
387.78	211.96
388.15	211.97
388.53	211.91
388.91	211.88
389.29	211.85
389.66	211.85
390.04	211.80
390.42	211.83
390.79	211.82
391.17	211.88
391.55	211.72
391.92	211.70
392.30	211.65
392.68	211.60
393.05	211.59
393.43	211.58
393.81	211.62
394.18	211.58
394.56	211.53
394.94	211.57
395.31	211.61
395.69	211.60
396.06	211.65
396.44	211.71
396.82	211.75
397.19	211.82
397.57	211.80
397.95	211.84
398.32	211.82
398.70	211.90
399.07	211.95
399.45	211.89
399.82	211.99
400.20	212.08
400.58	212.17
400.95	212.05
401.33	212.14
401.70	212.32
402.08	212.32
402.45	212.44
402.83	212.50
403.20	212.58
403.58	212.67
403.95	212.74
404.33	212.86
404.71	212.91
405.08	213.11
405.46	213.25
405.83	213.42
406.21	213.53
406.58	213.69
406.96	213.79
407.33	214.05
407.70	214.22
408.08	214.45
408.45	214.71
408.83	215.04
409.20	215.29
409.58	215.43
409.95	215.80
410.33	216.05
410.70	216.33
411.08	216.68
411.45	217.00
411.82	217.35
412.20	217.73
412.57	218.31
412.95	218.63
413.32	219.17
413.69	219.76
414.07	220.30
414.44	220.84
414.82	221.49
415.19	222.21
415.56	222.86
415.94	223.64
416.31	224.41
416.68	225.29
417.06	226.22
417.43	227.19
417.81	228.30
418.18	229.46
418.55	230.65
418.93	231.82
419.30	233.09
419.67	234.47
420.04	235.92
420.42	237.28
420.79	239.04
421.16	240.68
421.54	242.35
421.91	244.22
422.28	246.17
422.66	248.11
423.03	250.05
423.40	252.18
423.77	254.22
424.15	256.41
424.52	258.62
424.89	261.16
425.26	263.48
425.64	265.79
426.01	268.18
426.38	270.77
426.75	273.56
427.13	276.32
427.50	279.26
427.87	282.22
428.24	285.19
428.61	287.93
428.99	291.19
429.36	294.64
429.73	298.04
430.10	301.34
430.47	304.81
430.85	308.39
431.22	312.12
431.59	316.25
431.96	320.03
432.33	324.27
432.70	328.34
433.08	333.18
433.45	337.64
433.82	342.22
434.19	347.15
434.56	352.05
434.93	356.68
435.30	361.39
435.68	366.53
436.05	371.56
436.42	376.69
436.79	381.22
437.16	386.14
437.53	391.32
437.90	396.47
438.27	401.45
438.64	406.65
439.01	411.56
439.38	415.69
439.75	419.91
440.13	424.71
440.50	429.10
440.87	432.68
441.24	436.34
441.61	440.39
441.98	443.44
442.35	446.90
442.72	450.33
443.09	453.57
443.46	455.53
443.83	456.91
444.20	457.94
444.57	459.58
444.94	460.24
445.31	460.94
445.68	461.71
446.05	461.90
446.42	461.27
446.79	460.38
447.16	459.58
447.53	458.99
447.90	456.88
448.27	454.83
448.64	452.03
449.01	450.03
449.37	446.53
449.74	443.06
450.11	438.95
450.48	434.69
450.85	430.22
451.22	426.30
451.59	422.71
451.96	419.33
452.33	414.71
452.70	410.52
453.07	405.58
453.43	400.40
453.80	395.63
454.17	391.03
454.54	386.71
454.91	382.08
455.28	377.38
455.65	373.08
456.02	368.76
456.38	365.14
456.75	360.64
457.12	356.81
457.49	353.07
457.86	349.45
458.23	346.30
458.59	342.91
458.96	339.57
459.33	336.47
459.70	333.29
460.07	330.83
460.43	328.12
460.80	325.50
461.17	323.23
461.54	320.73
461.91	318.40
462.27	316.05
462.64	314.18
463.01	312.05
463.38	310.03
463.74	307.89
464.11	306.00
464.48	304.37
464.85	302.71
465.21	301.45
465.58	300.10
465.95	298.35
466.32	297.01
466.68	295.66
467.05	294.30
467.42	293.04
467.78	291.64
468.15	290.29
468.52	289.27
468.88	287.97
469.25	286.95
469.62	286.04
469.98	285.11
470.35	284.13
470.72	283.30
471.08	282.36
471.45	281.64
471.82	280.88
472.18	280.12
472.55	279.57
472.92	278.86
473.28	278.27
473.65	277.87
474.02	277.36
474.38	277.00
474.75	276.66
475.11	276.28
475.48	276.07
475.85	275.81
476.21	275.61
476.58	275.62
476.94	275.62
477.31	275.52
477.67	275.50
478.04	275.58
478.41	275.79
478.77	276.12
479.14	276.39
479.50	276.75
479.87	277.07
480.23	277.47
480.60	277.93
480.96	278.44
481.33	279.01
481.69	279.63
482.06	280.29
482.42	281.00
482.79	281.74
483.15	282.65
483.52	283.70
483.88	284.65
484.25	285.58
484.61	286.59
484.98	287.74
485.34	289.10
485.71	290.45
486.07	291.79
486.44	293.12
486.80	294.53
487.17	296.04
487.53	297.78
487.90	299.57
488.26	301.49
488.62	303.47
488.99	305.54
489.35	307.64
489.72	310.00
490.08	312.31
490.44	314.83
490.81	317.35
491.17	319.96
491.54	322.87
491.90	325.91
492.26	329.16
492.63	332.53
492.99	335.89
493.36	339.36
493.72	343.22
494.08	347.29
494.45	351.58
494.81	356.20
495.17	360.79
495.54	365.63
495.90	370.61
496.26	375.80
496.63	381.22
496.99	387.02
497.35	392.88
497.72	399.21
498.08	405.67
498.44	412.40
498.80	419.68
499.17	427.06
499.53	434.62
499.89	442.51
500.26	450.54
500.62	458.82
500.98	467.58
501.34	476.60
501.71	485.83
502.07	495.42
502.43	505.17
502.79	515.27
503.16	525.77
503.52	536.55
503.88	547.82
504.24	559.13
504.60	570.65
504.97	582.82
505.33	595.05
505.69	608.14
506.05	621.22
506.41	634.45
506.78	647.96
507.14	661.97
507.50	676.31
507.86	691.18
508.22	706.44
508.59	721.91
508.95	737.80
509.31	754.01
509.67	770.39
510.03	787.33
510.39	804.70
510.75	822.28
511.12	840.23
511.48	858.31
511.84	876.87
512.20	895.59
512.56	914.69
512.92	933.99
513.28	953.21
513.64	972.95
514.00	992.83
514.37	1013.26
514.73	1033.72
515.09	1054.25
515.45	1074.76
515.81	1095.52
516.17	1116.40
516.53	1137.22
516.89	1158.29
517.25	1179.75
517.61	1200.89
517.97	1222.13
518.33	1243.25
518.69	1264.59
519.05	1286.00
519.41	1307.90
519.77	1330.14
520.13	1351.70
520.49	1373.36
520.85	1395.67
521.21	1417.77
521.57	1440.21
521.93	1461.52
522.29	1483.94
522.65	1505.76
523.01	1527.81
523.37	1549.84
523.73	1571.71
524.09	1593.70
524.45	1615.68
524.81	1637.33
525.17	1659.26
525.53	1681.11
525.89	1703.09
526.25	1724.42
526.61	1745.28
526.97	1766.18
527.33	1787.07
527.68	1807.93
528.04	1828.67
528.40	1848.63
528.76	1868.75
529.12	1888.66
529.48	1909.60
529.84	1929.54
530.20	1949.49
530.56	1969.50
530.91	1989.21
531.27	2009.28
531.63	2028.54
531.99	2047.60
532.35	2066.51
532.71	2084.98
533.07	2103.71
533.42	2121.50
533.78	2140.02
534.14	2158.26
534.50	2174.90
534.86	2191.99
535.21	2208.43
535.57	2225.69
535.93	2242.24
536.29	2258.12
536.65	2274.12
537.00	2289.26
537.36	2304.05
537.72	2319.17
538.08	2333.60
538.44	2348.34
538.79	2363.06
539.15	2377.43
539.51	2391.46
539.87	2405.74
540.22	2419.81
540.58	2434.40
540.94	2448.53
541.29	2461.05
541.65	2472.73
542.01	2485.62
542.37	2496.95
542.72	2509.06
543.08	2519.59
543.44	2530.99
543.79	2541.05
544.15	2551.22
544.51	2562.00
544.87	2572.56
545.22	2581.07
545.58	2589.06
545.94	2595.87
546.29	2601.81
546.65	2607.62
547.01	2613.53
547.36	2618.89
547.72	2623.85
548.07	2626.99
548.43	2630.25
548.79	2633.42
549.14	2637.70
549.50	2641.55
549.86	2645.54
550.21	2648.54
550.57	2652.10
550.92	2654.08
551.28	2656.62
551.64	2658.42
551.99	2660.37
552.35	2661.05
552.70	2663.43
553.06	2665.89
553.41	2668.50
553.77	2670.99
554.13	2673.07
554.48	2674.87
554.84	2676.35
555.19	2676.54
555.55	2676.71
555.90	2677.33
556.26	2677.68
556.61	2677.46
556.97	2676.01
557.32	2675.16
557.68	2673.45
558.03	2671.71
558.39	2669.91
558.74	2669.34
559.10	2668.29
559.45	2665.88
559.81	2664.95
560.16	2662.23
560.52	2659.52
560.87	2656.82
561.23	2652.72
561.58	2650.29
561.94	2646.76
562.29	2642.61
562.64	2640.46
563.00	2638.17
563.35	2635.55
563.71	2633.84
564.06	2631.38
564.42	2629.28
564.77	2626.49
565.12	2624.85
565.48	2621.46
565.83	2618.49
566.19	2614.70
566.54	2609.98
566.89	2606.14
567.25	2602.34
567.60	2598.94
567.96	2595.41
568.31	2591.53
568.66	2588.26
569.02	2583.58
569.37	2578.49
569.72	2574.95
570.08	2569.70
570.43	2563.88
570.78	2558.04
571.14	2551.51
571.49	2544.70
571.84	2538.73
572.20	2532.00
572.55	2525.30
572.90	2518.83
573.26	2511.89
573.61	2505.06
573.96	2498.69
574.31	2491.10
574.67	2482.80
575.02	2474.40
575.37	2466.18
575.72	2457.23
576.08	2449.47
576.43	2440.87
576.78	2433.25
577.13	2425.35
577.49	2417.17
577.84	2409.78
578.19	2402.19
578.54	2394.92
578.90	2388.15
579.25	2379.93
579.60	2371.00
579.95	2361.74
580.30	2353.93
580.66	2346.23
581.01	2337.31
581.36	2328.36
581.71	2320.51
582.06	2312.18
582.42	2304.26
582.77	2295.27
583.12	2286.53
583.47	2278.30
583.82	2270.04
584.17	2260.92
584.53	2252.02
584.88	2243.45
585.23	2234.57
585.58	2225.60
585.93	2216.30
586.28	2207.42
586.63	2198.65
586.98	2190.77
587.34	2182.85
587.69	2173.96
588.04	2164.95
588.39	2157.07
588.74	2148.32
589.09	2139.41
589.44	2130.26
589.79	2121.99
590.14	2114.36
590.49	2106.67
590.84	2097.73
591.19	2090.07
591.54	2082.00
591.89	2072.28
592.25	2063.38
592.60	2054.36
592.95	2045.45
593.30	2036.58
593.65	2027.37
594.00	2018.05
594.35	2010.08
594.70	2001.19
595.05	1992.78
595.40	1984.62
595.75	1975.09
596.10	1967.23
596.45	1958.81
596.80	1951.49
597.15	1943.41
597.50	1934.36
597.85	1926.21
598.19	1917.82
598.54	1909.17
598.89	1901.33
599.24	1894.49
599.59	1887.44
599.94	1880.47
600.29	1872.67
600.64	1864.83
600.99	1856.60
601.34	1849.62
601.69	1841.31
602.04	1833.28
602.39	1825.63
602.74	1817.78
603.08	1811.46
603.43	1804.63
603.78	1797.18
604.13	1789.50
604.48	1781.77
604.83	1775.27
605.18	1768.26
605.53	1761.15
605.87	1753.80
606.22	1747.03
606.57	1739.47
606.92	1731.81
607.27	1724.13
607.62	1716.97
607.96	1710.35
608.31	1704.45
608.66	1696.84
609.01	1689.57
609.36	1682.23
609.70	1674.18
610.05	1666.87
610.40	1659.11
610.75	1650.67
611.10	1643.39
611.44	1634.37
611.79	1625.55
612.14	1616.60
612.49	1607.45
612.83	1598.55
613.18	1589.35
613.53	1579.96
613.88	1570.61
614.22	1561.87
614.57	1552.50
614.92	1543.52
615.27	1534.50
615.61	1524.89
615.96	1516.22
616.31	1507.76
616.65	1500.08
617.00	1492.09
617.35	1483.60
617.70	1474.94
618.04	1466.32
618.39	1457.32
618.74	1449.38
619.08	1440.89
619.43	1432.94
619.78	1425.13
620.12	1417.64
620.47	1410.24
620.82	1402.00
621.16	1394.06
621.51	1385.51
621.85	1377.66
622.20	1369.30
622.55	1360.94
622.89	1352.93
623.24	1345.21
623.59	1336.72
623.93	1328.26
624.28	1320.29
624.62	1312.37
624.97	1304.30
625.32	1296.67
625.66	1289.17
626.01	1281.91
626.35	1274.98
626.70	1267.33
627.04	1260.05
627.39	1252.45
627.73	1245.13
628.08	1238.51
628.43	1231.34
628.77	1224.25
629.12	1217.25
629.46	1211.03
629.81	1203.92
630.15	1196.72
630.50	1189.82
630.84	1182.86
631.19	1176.10
631.53	1169.44
631.88	1161.90
632.22	1154.77
632.57	1147.86
632.91	1140.65
633.26	1133.24
633.60	1126.26
633.95	1119.79
634.29	1112.79
634.64	1106.21
634.98	1099.33
635.32	1092.59
635.67	1086.32
636.01	1079.90
636.36	1073.23
636.70	1066.81
637.05	1060.72
637.39	1054.52
637.73	1048.05
638.08	1042.36
638.42	1036.47
638.77	1030.16
639.11	1024.19
639.45	1018.29
639.80	1012.04
640.14	1005.95
640.49	999.94
640.83	993.95
641.17	987.82
641.52	981.92
641.86	975.50
642.20	969.48
642.55	962.71
642.89	956.30
643.23	950.21
643.58	944.61
643.92	937.98
644.26	931.80
644.61	925.82
644.95	919.84
645.29	913.63
645.64	907.20
645.98	901.18
646.32	895.63
646.66	889.65
647.01	884.00
647.35	878.34
647.69	872.30
648.04	866.45
648.38	860.48
648.72	854.61
649.06	848.83
649.41	842.85
649.75	837.40
650.09	831.73
650.43	826.00
650.78	819.81
651.12	814.09
651.46	808.46
651.80	802.81
652.14	797.13
652.49	791.24
652.83	785.68
653.17	779.57
653.51	773.80
653.85	768.35
654.20	762.45
654.54	756.72
654.88	751.50
655.22	745.99
655.56	740.17
655.90	734.47
656.25	728.81
656.59	723.41
656.93	718.30
657.27	713.35
657.61	707.91
657.95	702.91
658.29	698.02
658.64	692.93
658.98	687.80
659.32	682.35
659.66	677.38
660.00	672.14
660.34	667.27
660.68	662.13
661.02	656.92
661.36	652.38
661.70	647.57
662.05	642.83
662.39	638.42
662.73	634.26
663.07	630.09
663.41	625.95
663.75	621.76
664.09	617.14
664.43	612.50
664.77	608.28
665.11	603.98
665.45	599.69
665.79	595.32
666.13	591.21
666.47	587.34
666.81	583.37
667.15	579.44
667.49	575.68
667.83	571.71
668.17	568.02
668.51	564.24
668.85	560.59
669.19	556.91
669.53	552.95
669.87	548.92
670.21	545.10
670.55	541.28
670.89	537.81
671.23	534.64
671.57	531.25
671.91	527.78
672.25	524.14
672.58	520.74
672.92	517.44
673.26	514.38
673.60	511.14
673.94	507.94
674.28	504.70
674.62	501.57
674.96	498.74
675.30	495.68
675.64	492.48
675.97	489.38
676.31	486.37
676.65	483.53
676.99	481.00
677.33	478.10
677.67	475.29
678.01	472.17
678.34	469.16
678.68	466.24
679.02	463.29
679.36	460.68
679.70	457.79
680.04	454.99
680.37	451.98
680.71	449.37
681.05	446.70
681.39	444.08
681.73	441.38
682.06	438.80
682.40	436.41
682.74	433.92
683.08	431.48
683.42	428.90
683.75	426.35
684.09	423.77
684.43	421.35
684.77	418.85
685.10	416.44
685.44	414.00
685.78	411.60
686.12	409.49
686.45	407.13
686.79	404.93
687.13	402.84
687.46	400.76
687.80	398.50
688.14	396.20
688.48	394.15
688.81	391.98
689.15	389.83
689.49	387.53
689.82	385.36
690.16	383.02
690.50	380.86
690.83	378.76
691.17	376.55
691.51	374.39
691.84	372.30
692.18	370.35
692.52	368.41
692.85	366.65
693.19	364.78
693.52	362.85
693.86	361.01
694.20	359.15
694.53	357.33
694.87	355.53
695.21	353.77
695.54	351.82
695.88	350.00
696.21	348.10
696.55	346.47
696.88	344.81
697.22	343.09
697.56	341.62
697.89	340.05
698.23	338.48
698.56	336.90
698.90	335.42
699.23	333.87
699.57	332.29
699.90	330.70
700.24	329.05
700.58	327.57
700.91	326.05
701.25	324.70
701.58	323.33
701.92	321.90
702.25	320.53
702.59	319.16
702.92	317.84
703.26	316.58
703.59	315.20
703.93	314.08
704.26	312.90
704.60	311.55
704.93	310.23
705.26	309.06
705.60	307.85
705.93	306.64
706.27	305.45
706.60	304.37
706.94	303.27
707.27	302.13
707.61	301.08
707.94	300.04
708.27	298.71
708.61	297.51
708.94	296.42
709.28	295.27
709.61	294.28
709.94	293.27
710.28	292.19
710.61	291.19
710.95	290.03
711.28	289.12
711.61	288.17
711.95	287.25
712.28	286.25
712.61	285.24
712.95	284.38
713.28	283.42
713.61	282.44
713.95	281.52
714.28	280.68
714.61	279.66
714.95	278.72
715.28	277.88
715.61	276.94
715.95	276.05
716.28	275.19
716.61	274.31
716.95	273.46
717.28	272.69
717.61	271.95
717.94	271.17
718.28	270.33
718.61	269.52
718.94	268.81
719.27	268.03
719.61	267.44
719.94	266.79
720.27	266.10
720.60	265.39
720.94	264.74
721.27	264.10
721.60	263.54
721.93	262.95
722.27	262.36
722.60	261.76
722.93	261.23
723.26	260.74
723.59	260.16
723.93	259.59
724.26	258.98
724.59	258.46
724.92	257.97
725.25	257.51
725.59	257.07
725.92	256.57
726.25	256.05
726.58	255.53
726.91	254.97
727.24	254.43
727.57	253.97
727.91	253.41
728.24	252.95
728.57	252.46
728.90	251.99
729.23	251.46
729.56	251.17
729.89	250.70
730.22	250.22
730.55	249.74
730.89	249.33
731.22	248.87
731.55	248.49
731.88	248.03
732.21	247.53
732.54	247.01
732.87	246.56
733.20	246.13
733.53	245.80
733.86	245.42
734.19	245.08
734.52	244.74
734.85	244.47
735.18	244.04
735.51	243.74
735.84	243.35
736.17	243.11
736.50	242.65
736.83	242.48
737.16	242.10
737.49	241.78
737.82	241.42
738.15	241.08
738.48	240.66
738.81	240.33
739.14	240.02
739.47	239.70
739.80	239.32
740.13	239.01
740.46	238.62
740.79	238.28
741.12	237.94
741.45	237.56
741.78	237.26
742.11	237.01
742.44	236.67
742.77	236.34
743.10	235.94
743.43	235.58
743.75	235.09
744.08	235.06
744.41	234.83
744.74	234.60
745.07	234.30
745.40	233.95
745.73	233.75
746.06	233.49
746.39	233.24
746.71	232.90
747.04	232.67
747.37	232.33
747.70	232.00
748.03	231.84
748.36	231.64
748.68	231.29
749.01	231.02
749.34	230.78
749.67	230.56
750.00	230.37
750.33	230.26
750.65	230.09
750.98	229.68
751.31	229.33
751.64	229.05
751.97	228.93
752.29	228.73
752.62	228.44
752.95	228.21
753.28	228.06
753.60	227.88
753.93	227.74
754.26	227.58
754.59	227.35
754.91	227.06
755.24	226.80
755.57	226.60
755.90	226.34
756.22	226.15
756.55	225.98
756.88	225.83
757.20	225.50
757.53	225.20
757.86	225.02
758.19	224.94
758.51	224.79
758.84	224.54
759.17	224.42
759.49	224.26
759.82	224.24
760.15	223.97
760.47	223.89
760.80	223.66
761.13	223.50
761.45	223.40
761.78	223.25
762.11	223.13
762.43	223.00
762.76	222.86
763.08	222.74
763.41	222.59
763.74	222.43
764.06	222.30
764.39	222.25
764.71	222.07
765.04	221.85
765.37	221.72
765.69	221.59
766.02	221.40
766.34	221.35
766.67	221.12
767.00	221.14
767.32	221.11
767.65	221.12
767.97	221.05
768.30	220.91
768.62	220.81
768.95	220.70
769.27	220.60
769.60	220.55
769.92	220.40
770.25	220.35
770.57	220.18
770.90	220.14
771.22	219.99
771.55	219.84
771.87	219.80
772.20	219.65
772.52	219.74
772.85	219.95
773.17	219.87
773.50	219.82
773.82	219.72
774.15	219.59
774.47	219.37
774.80	219.28
775.12	219.24
775.45	219.12
775.77	219.05
776.09	219.06
776.42	219.00
776.74	218.94
777.07	218.79
777.39	218.79
777.72	218.63
778.04	218.53
778.36	218.55
778.69	218.48
779.01	218.44
779.33	218.18
779.66	217.86
779.98	217.63
780.31	217.47
780.63	217.38
780.95	217.26
781.28	217.17
781.60	217.07
781.92	216.99
782.25	216.96
782.57	216.91
782.89	216.76
783.22	216.68
783.54	216.59
783.86	216.65
784.19	216.55
784.51	216.55
784.83	216.52
785.16	216.40
785.48	216.37
785.80	216.34
786.12	216.30
786.45	216.26
786.77	216.30
787.09	216.29
787.42	216.22
787.74	216.22
788.06	216.20
788.38	216.15
788.71	216.15
789.03	216.10
789.35	216.11
789.67	216.04
789.99	216.02
790.32	215.92
790.64	215.77
790.96	215.85
791.28	215.80
791.61	215.79
791.93	215.77
792.25	215.66
792.57	215.77
792.89	215.76
793.21	215.68
793.54	215.57
793.86	215.48
794.18	215.44
794.50	215.35
794.82	215.26
795.14	215.27
795.47	215.21
795.79	215.20
796.11	215.06
796.43	215.04
796.75	215.03
797.07	215.04
797.39	214.99
797.71	214.85
798.04	214.80
798.36	214.79
798.68	214.71
799.00	214.70
799.32	214.52
799.64	214.47
799.96	214.52
800.28	214.59
800.60	214.55
800.92	214.47
801.24	214.39
801.56	214.42
801.89	214.37
802.21	214.43
802.53	214.31
802.85	214.33
803.17	214.37
803.49	214.30
803.81	214.25
804.13	214.24
804.45	214.20
804.77	214.11
805.09	214.04
805.41	214.00
805.73	213.99
806.05	213.92
806.37	213.87
806.69	213.77
807.01	213.73
807.33	213.76
807.65	213.74
807.97	213.90
808.28	213.90
808.60	213.84
808.92	213.70
809.24	213.83
809.56	213.81
809.88	213.70
810.20	213.64
810.52	213.66
810.84	213.64
811.16	213.58
811.48	213.56
811.80	213.56
812.12	213.53
812.43	213.52
812.75	213.49
813.07	213.40
813.39	213.34
813.71	213.23
814.03	213.24
814.35	213.25
814.67	213.04
814.98	213.00
815.30	213.01
815.62	213.02
815.94	212.83
816.26	212.83
816.58	212.75
816.89	212.74
817.21	212.69
817.53	212.64
817.85	212.62
818.17	212.57
818.48	212.55
818.80	212.61
819.12	212.55
819.44	212.52
819.76	212.50
820.07	212.53
820.39	212.56
820.71	212.52
821.03	212.47
821.34	212.49
821.66	212.42
821.98	212.40
822.30	212.35
822.61	212.49
822.93	212.38
823.25	212.40
823.57	212.41
823.88	212.45
824.20	212.46
824.52	212.49
824.83	212.56
825.15	212.55
825.47	212.57
825.79	212.50
826.10	212.53
826.42	212.52
826.74	212.59
827.05	212.48
827.37	212.43
827.69	212.44
828.00	212.46
828.32	212.44
828.64	212.38
828.95	212.52
829.27	212.42
829.58	212.39
829.90	212.44
830.22	212.42
830.53	212.32
830.85	212.30
831.17	212.23
831.48	212.16
831.80	212.17
832.11	212.18
832.43	212.21
832.75	212.20
833.06	212.36
833.38	212.32
833.69	212.35
834.01	212.39
834.32	212.34
834.64	212.34
834.96	212.38
835.27	212.40
835.59	212.28
835.90	212.25
836.22	212.34
836.53	212.30
836.85	212.26
837.16	212.48
837.48	212.51
837.79	212.57
838.11	212.60
838.42	212.53
838.74	212.48
839.05	212.52
839.37	212.49
839.68	212.33
840.00	212.31
840.31	212.36
840.63	212.29
840.94	212.23
841.26	212.19
841.57	212.13
841.88	212.17
842.20	212.21
842.51	212.21
842.83	212.16
843.14	212.30
843.46	212.32
843.77	212.15
844.08	212.11
844.40	212.07
844.71	212.03
845.03	212.02
845.34	212.02
845.65	211.95
845.97	211.92
846.28	211.91
846.60	211.87
846.91	211.82
847.22	211.77
847.54	211.86
847.85	211.87
848.16	211.85
848.48	211.84
848.79	211.83
849.10	211.82
849.42	211.89
849.73	211.68
850.04	211.65
850.36	211.66
850.67	211.67
850.98	211.70
851.30	211.75
851.61	211.71
851.92	211.69
852.23	211.79
852.55	211.77
852.86	211.81
853.17	211.78
853.49	211.82
853.80	211.94
854.11	211.94
854.42	211.98
854.74	211.95
855.05	211.91
855.36	211.86
855.67	211.90
855.99	211.86
856.30	212.10
856.61	212.15
856.92	212.07
857.23	212.06
857.55	212.03
857.86	212.03
858.17	212.12
858.48	212.08
858.79	212.04
859.11	212.13
859.42	212.13
859.73	212.12
860.04	212.14
860.35	212.12
860.66	212.05
860.98	212.05
861.29	212.10
861.60	212.14
861.91	212.15
862.22	212.11
862.53	212.12
862.84	211.89
863.16	211.95
863.47	211.94
863.78	211.95
864.09	211.93
864.40	211.97
864.71	211.96
865.02	211.99
865.33	211.98
865.64	211.87
865.95	211.85
866.27	212.05
866.58	212.02
866.89	212.05
867.20	212.10
867.51	212.06
867.82	212.10
868.13	212.08
868.44	212.07
868.75	212.08
869.06	212.05
869.37	212.09
869.68	211.96
869.99	212.05
870.30	212.05
870.61	212.06
870.92	211.98
871.23	211.90
871.54	211.88
871.85	211.91
872.16	211.99
872.47	211.93
872.78	211.75
873.09	211.73
873.40	211.66
873.71	211.73
874.02	211.68
874.33	211.63
874.64	211.61
874.95	211.63
875.26	211.56
875.56	211.57
875.87	211.51
876.18	211.57
876.49	211.74
876.80	211.75
877.11	211.71
877.42	211.74
877.73	211.80
878.04	211.76
878.35	211.67
878.66	211.73
878.96	211.70
879.27	211.74
879.58	211.76
879.89	211.74
880.20	211.65
880.51	211.64
880.82	211.59
881.12	211.56
881.43	211.50
881.74	211.50
882.05	211.43
882.36	211.49
882.67	211.42
882.97	211.19
883.28	211.09
883.59	211.09
883.90	211.10
884.21	211.14
884.51	211.13
884.82	211.11
885.13	211.03
885.44	211.13
885.74	211.09
886.05	211.03
886.36	211.07
886.67	211.09
886.98	211.21
887.28	211.17
887.59	211.14
887.90	211.11
888.20	211.01
888.51	211.07
888.82	211.07
889.13	211.05
889.43	211.12
889.74	211.12
890.05	211.06
890.35	211.03
890.66	210.98
890.97	210.97
891.28	211.04
891.58	211.00
891.89	210.97
892.20	210.98
892.50	210.99
892.81	210.92
893.12	210.85
893.42	210.77
893.73	210.84
894.04	210.83
894.34	210.87
894.65	210.98
894.95	210.91
895.26	210.89
895.57	211.03
895.87	210.95
896.18	211.02
896.48	211.10
896.79	211.17
897.10	211.11
897.40	211.14
897.71	211.09
898.01	211.09
898.32	211.09
898.63	211.07
898.93	211.08
899.24	211.08
899.54	211.13
899.85	211.08
900.15	211.08
900.46	211.08
900.76	211.12
901.07	211.14
901.38	211.10
901.68	211.12
901.99	210.91
902.29	210.92
902.60	210.81
902.90	210.82
903.21	210.80
903.51	210.86
903.82	210.92
904.12	210.96
904.43	210.96
904.73	210.89
905.03	210.83
905.34	210.97
905.64	211.00
905.95	210.96
906.25	210.96
906.56	210.93
906.86	211.01
907.17	210.99
907.47	210.96
907.77	211.03
908.08	211.04
908.38	211.11
908.69	211.11
908.99	211.19
909.30	211.19
909.60	211.17
909.90	211.15
910.21	211.16
910.51	211.04
910.81	211.05
911.12	211.14
911.42	211.18
911.73	211.06
912.03	211.06
912.33	211.10
912.64	211.13
912.94	211.12
913.24	211.06
913.55	211.05
913.85	211.00
914.15	211.01
914.46	210.99
914.76	211.05
915.06	211.08
915.37	211.02
915.67	210.96
915.97	211.02
916.27	210.95
916.58	210.96
916.88	210.99
917.18	210.94
917.49	210.99
917.79	210.99
918.09	211.05
918.39	211.09
918.70	211.10
919.00	211.10
919.30	211.21
919.60	211.18
919.91	211.17
920.21	211.25
920.51	211.17
920.81	211.10
921.12	211.10
921.42	211.06
921.72	211.19
922.02	211.25
922.32	211.20
922.63	211.22
922.93	211.27
923.23	211.32
923.53	211.29
923.83	211.30
924.13	211.34
924.44	211.26
924.74	211.31
925.04	211.32
925.34	211.27
925.64	211.17
925.94	211.25
926.24	211.29
926.55	211.25
926.85	211.31
927.15	211.39
927.45	211.35
927.75	211.29
928.05	211.21
928.35	211.17
928.65	211.29
928.95	211.29
929.26	211.23
929.56	211.24
929.86	211.28
930.16	211.19
930.46	211.17
930.76	211.16
931.06	211.07
931.36	211.04
931.66	211.13
931.96	211.15
932.26	211.12
932.56	211.08
932.86	211.07
933.16	211.06
933.46	211.01
933.76	210.96
934.06	211.08
934.36	211.12
934.66	211.09
934.96	210.97
935.26	210.99
935.56	210.99
935.86	210.96
936.16	210.95
936.46	210.93
936.76	210.98
937.06	210.90
937.36	210.86
937.66	210.85
937.96	210.82
938.26	210.79
938.56	210.79
938.86	210.76
939.16	210.85
939.46	210.95
939.76	210.96
940.06	211.03
940.35	210.98
940.65	210.92
940.95	210.96
941.25	210.98
941.55	210.97
941.85	210.98
942.15	210.96
942.45	211.11
942.75	211.14
943.04	211.08
943.34	211.20
943.64	211.27
943.94	211.31
944.24	211.24
944.54	211.24
944.84	211.24
945.13	211.16
945.43	211.17
945.73	211.15
946.03	211.12
946.33	211.02
946.62	211.01
946.92	211.00
947.22	211.00
947.52	211.04
947.82	211.13
948.11	211.12
948.41	211.15
948.71	211.05
949.01	211.09
949.31	211.13
949.60	211.11
949.90	211.12
950.20	211.10
950.50	211.16
950.79	211.17
951.09	211.24
951.39	211.35
951.69	211.32
951.98	211.38
952.28	211.43
952.58	211.52
952.87	211.52
953.17	211.58
953.47	211.61
953.76	211.63
954.06	211.53
954.36	211.56
954.66	211.54
954.95	211.56
955.25	211.58
955.55	211.56
955.84	211.51
956.14	211.51
956.44	211.56
956.73	211.45
957.03	211.49
957.32	211.52
957.62	211.49
957.92	211.56
958.21	211.47
958.51	211.66
958.81	211.71
959.10	211.70
959.40	211.74
959.69	211.74
959.99	211.74
960.29	211.76
960.58	211.76
960.88	211.80
961.17	211.77
961.47	211.73
961.76	211.81
962.06	211.86
962.36	211.85
962.65	211.82
962.95	211.93
963.24	211.90
963.54	211.83
963.83	211.82
964.13	211.78
964.42	211.76
964.72	211.67
965.01	211.63
965.31	211.61
965.60	211.55
965.90	211.66
966.19	211.59
966.49	211.61
966.78	211.57
967.08	211.61
967.37	211.64
967.67	211.64
967.96	211.64
968.26	211.60
968.55	211.65
968.85	211.67
969.14	211.64
969.43	211.65
969.73	211.68
970.02	211.68
970.32	211.61
970.61	211.59
970.91	211.51
971.20	211.52
971.49	211.48
971.79	211.53
972.08	211.38
972.38	211.40
972.67	211.39
972.96	211.40
973.26	211.36
973.55	211.42
973.85	211.39
974.14	211.28
974.43	211.23
974.73	211.19
975.02	211.15
975.31	211.17
975.61	211.14
975.90	211.09
976.19	211.08
976.49	211.14
976.78	211.17
977.07	211.13
977.37	211.12
977.66	211.13
977.95	211.10
978.24	211.10
978.54	211.07
978.83	211.05
979.12	211.06
979.42	211.01
979.71	210.96
980.00	210.97
980.29	210.96
980.59	211.00
980.88	210.95
981.17	210.96
981.46	210.95
981.76	210.89
982.05	210.93
982.34	210.96
982.63	210.90
982.93	210.90
983.22	211.01
983.51	211.00
983.80	210.98
984.09	210.96
984.39	210.90
984.68	210.91
984.97	210.87
985.26	210.79
985.55	210.83
985.85	210.77
986.14	210.83
986.43	210.86
986.72	210.86
987.01	210.93
987.30	210.90
987.59	210.85
987.89	210.95
988.18	210.91
988.47	210.84
988.76	210.79
989.05	210.73
989.34	210.61
989.63	210.61
989.92	210.66
990.22	210.63
990.51	210.66
990.80	210.66
991.09	210.70
991.38	210.68
991.67	210.65
991.96	210.65
992.25	210.57
992.54	210.54
992.83	210.46
993.12	210.39
993.41	210.46
993.70	210.55
993.99	210.53
994.28	210.57
994.58	210.68
994.87	210.77
995.16	210.76
995.45	210.76
995.74	210.76
996.03	210.86
996.32	210.89
996.61	210.92
996.90	210.91
997.19	210.89
997.48	210.90
997.77	210.93
998.06	210.92
998.34	210.95
998.63	211.04
998.92	211.14
999.21	211.16
999.50	211.05
999.79	210.99
1000.08	210.92
1000.37	210.85
1000.66	210.72
1000.95	210.71
1001.24	210.75
1001.53	210.76
1001.82	210.75
1002.11	210.64
1002.40	210.60
1002.68	210.70
1002.97	210.84
1003.26	210.80
1003.55	210.81
1003.84	210.77
1004.13	210.85
1004.42	210.84
1004.71	210.75
1004.99	210.68
1005.28	210.76
1005.57	210.81
1005.86	210.81
1006.15	210.81
1006.44	210.79
1006.72	210.83
1007.01	210.80
1007.30	210.83
1007.59	210.78
1007.88	210.73
1008.17	210.70
1008.45	210.70
1008.74	210.62
1009.03	210.57
1009.32	210.60
1009.60	210.62
1009.89	210.62
1010.18	210.57
1010.47	210.53
1010.76	210.55
1011.04	210.57
1011.33	210.47
1011.62	210.49
1011.91	210.58
1012.19	210.56
1012.48	210.57
1012.77	210.61
1013.05	210.65
1013.34	210.62
1013.63	210.66
1013.92	210.67
1014.20	210.65
1014.49	210.66
1014.78	210.56
1015.06	210.43
1015.35	210.43
1015.64	210.46
1015.92	210.44
1016.21	210.41
1016.50	210.45
1016.78	210.49
1017.07	210.49
1017.36	210.46
1017.64	210.38
1017.93	210.31
1018.22	210.33
1018.50	210.36
1018.79	210.38
1019.08	210.33
1019.36	210.29
1019.65	210.26
1019.93	210.33
1020.22	210.40
1020.51	210.53
1020.79	210.54
1021.08	209.75
1021.36	210.25
1021.65	211.75
1021.94	210.55
1022.22	209.90
1022.51	210.10
1022.79	211.40
1023.08	210.95
1023.36	213.15
1023.65	209.55
>>>>>End Processed Spectral Data<<<<<
