SpectraSuite Data File
++++++++++++++++++++++++++++++++++++
Date: Mon Feb 25 17:33:40 EST 2013
User: group
Dark Spectrum Present: No
Reference Spectrum Present: No
Number of Sampled Component Spectra: 1
Spectrometers: USB2E7196
Integration Time (usec): 52000 (USB2E7196)
Spectra Averaged: 20 (USB2E7196)
Boxcar Smoothing: 10 (USB2E7196)
Correct for Electrical Dark: No (USB2E7196)
Strobe/Lamp Enabled: No (USB2E7196)
Correct for Detector Non-linearity: No (USB2E7196)
Correct for Stray Light: No (USB2E7196)
Number of Pixels in Processed Spectrum: 2048
>>>>>Begin Processed Spectral Data<<<<<
339.09	0.00
339.48	198.80
339.86	201.05
340.24	201.85
340.63	202.80
341.01	206.45
341.39	207.70
341.78	209.00
342.16	209.00
342.54	208.35
342.93	198.58
343.31	208.71
343.69	209.23
344.07	209.70
344.46	210.17
344.84	210.57
345.22	210.84
345.60	211.03
345.99	211.10
346.37	211.27
346.75	211.41
347.13	211.56
347.52	211.59
347.90	211.64
348.28	211.65
348.66	211.72
349.05	211.70
349.43	211.83
349.81	211.85
350.19	211.92
350.57	211.99
350.96	212.14
351.34	212.14
351.72	212.27
352.10	212.42
352.48	212.48
352.87	212.63
353.25	212.68
353.63	212.77
354.01	212.92
354.39	212.94
354.77	212.99
355.15	213.13
355.54	213.17
355.92	213.17
356.30	213.24
356.68	213.40
357.06	213.48
357.44	213.49
357.82	213.58
358.20	213.66
358.58	213.72
358.97	213.75
359.35	213.86
359.73	213.95
360.11	213.94
360.49	214.00
360.87	213.93
361.25	213.99
361.63	214.04
362.01	214.12
362.39	214.15
362.77	214.19
363.15	214.20
363.53	214.20
363.91	214.23
364.29	214.22
364.67	214.06
365.05	214.07
365.43	214.07
365.81	214.06
366.19	214.11
366.57	214.20
366.95	214.14
367.33	214.06
367.71	214.03
368.09	213.99
368.47	213.95
368.85	213.96
369.23	213.93
369.61	213.85
369.99	213.83
370.37	213.84
370.75	213.89
371.13	213.77
371.51	213.78
371.89	213.68
372.27	213.66
372.65	213.58
373.03	213.51
373.41	213.51
373.78	213.42
374.16	213.26
374.54	213.21
374.92	213.25
375.30	213.21
375.68	213.05
376.06	213.06
376.44	213.00
376.82	212.98
377.19	212.92
377.57	212.81
377.95	212.65
378.33	212.60
378.71	212.41
379.09	212.37
379.47	212.32
379.84	212.29
380.22	212.24
380.60	212.23
380.98	212.14
381.36	212.06
381.73	212.01
382.11	212.00
382.49	211.86
382.87	211.70
383.25	211.67
383.62	211.93
384.00	211.85
384.38	211.82
384.76	211.83
385.13	211.89
385.51	211.91
385.89	211.89
386.27	211.78
386.64	211.83
387.02	211.79
387.40	211.66
387.78	211.68
388.15	211.60
388.53	211.63
388.91	211.64
389.29	211.61
389.66	211.64
390.04	211.63
390.42	211.64
390.79	211.66
391.17	211.59
391.55	211.38
391.92	211.37
392.30	211.30
392.68	211.20
393.05	211.14
393.43	211.13
393.81	211.21
394.18	211.20
394.56	211.21
394.94	211.20
395.31	211.26
395.69	211.29
396.06	211.41
396.44	211.40
396.82	211.43
397.19	211.58
397.57	211.57
397.95	211.64
398.32	211.63
398.70	211.74
399.07	211.87
399.45	211.83
399.82	211.87
400.20	212.00
400.58	212.09
400.95	212.14
401.33	212.25
401.70	212.36
402.08	212.51
402.45	212.59
402.83	212.76
403.20	212.81
403.58	212.92
403.95	212.94
404.33	212.96
404.71	213.13
405.08	213.32
405.46	213.50
405.83	213.64
406.21	213.79
406.58	213.94
406.96	214.09
407.33	214.32
407.70	214.59
408.08	214.85
408.45	215.09
408.83	215.36
409.20	215.56
409.58	215.76
409.95	216.03
410.33	216.35
410.70	216.61
411.08	217.00
411.45	217.36
411.82	217.72
412.20	218.24
412.57	218.75
412.95	219.02
413.32	219.49
413.69	219.97
414.07	220.54
414.44	221.15
414.82	221.77
415.19	222.44
415.56	223.13
415.94	223.92
416.31	224.72
416.68	225.51
417.06	226.44
417.43	227.39
417.81	228.46
418.18	229.57
418.55	230.76
418.93	232.01
419.30	233.32
419.67	234.75
420.04	236.12
420.42	237.51
420.79	239.32
421.16	241.06
421.54	242.97
421.91	244.81
422.28	246.73
422.66	248.79
423.03	250.94
423.40	252.98
423.77	255.14
424.15	257.41
424.52	259.79
424.89	262.45
425.26	264.88
425.64	267.24
426.01	269.80
426.38	272.54
426.75	275.28
427.13	278.06
427.50	280.98
427.87	284.15
428.24	287.33
428.61	290.27
428.99	293.53
429.36	296.88
429.73	300.43
430.10	303.96
430.47	307.51
430.85	311.17
431.22	315.20
431.59	319.41
431.96	323.40
432.33	327.79
432.70	332.00
433.08	337.03
433.45	341.69
433.82	346.32
434.19	351.47
434.56	356.45
434.93	361.18
435.30	366.01
435.68	371.33
436.05	376.44
436.42	381.52
436.79	386.22
437.16	391.32
437.53	396.66
437.90	401.78
438.27	407.00
438.64	412.37
439.01	417.15
439.38	421.53
439.75	425.82
440.13	430.63
440.50	435.11
440.87	438.82
441.24	442.70
441.61	446.95
441.98	449.99
442.35	453.67
442.72	457.43
443.09	460.89
443.46	462.82
443.83	464.27
444.20	465.46
444.57	467.17
444.94	467.94
445.31	468.60
445.68	469.48
446.05	469.66
446.42	468.93
446.79	468.18
447.16	467.25
447.53	466.53
447.90	464.41
448.27	462.33
448.64	459.44
449.01	457.24
449.37	453.58
449.74	450.06
450.11	445.90
450.48	441.35
450.85	436.88
451.22	433.03
451.59	429.32
451.96	425.75
452.33	421.01
452.70	416.73
453.07	411.59
453.43	406.28
453.80	401.23
454.17	396.50
454.54	392.07
454.91	387.28
455.28	382.57
455.65	378.29
456.02	373.98
456.38	370.23
456.75	365.64
457.12	361.73
457.49	357.85
457.86	354.06
458.23	350.91
458.59	347.33
458.96	343.81
459.33	340.53
459.70	337.45
460.07	334.90
460.43	332.02
460.80	329.42
461.17	326.99
461.54	324.49
461.91	322.06
462.27	319.55
462.64	317.44
463.01	315.18
463.38	312.91
463.74	310.68
464.11	308.71
464.48	307.10
464.85	305.35
465.21	304.09
465.58	302.78
465.95	300.97
466.32	299.57
466.68	298.04
467.05	296.65
467.42	295.18
467.78	293.73
468.15	292.42
468.52	291.39
468.88	290.14
469.25	288.99
469.62	288.10
469.98	287.22
470.35	286.40
470.72	285.59
471.08	284.66
471.45	283.85
471.82	283.14
472.18	282.28
472.55	281.72
472.92	280.92
473.28	280.09
473.65	279.51
474.02	278.90
474.38	278.54
474.75	278.25
475.11	277.81
475.48	277.56
475.85	277.30
476.21	277.09
476.58	276.96
476.94	276.95
477.31	276.82
477.67	276.76
478.04	276.90
478.41	276.99
478.77	277.22
479.14	277.32
479.50	277.55
479.87	277.88
480.23	278.23
480.60	278.66
480.96	279.21
481.33	279.90
481.69	280.49
482.06	280.99
482.42	281.57
482.79	282.35
483.15	283.23
483.52	284.19
483.88	285.10
484.25	286.15
484.61	287.24
484.98	288.36
485.34	289.65
485.71	290.86
486.07	292.27
486.44	293.68
486.80	295.37
487.17	296.88
487.53	298.63
487.90	300.50
488.26	302.45
488.62	304.52
488.99	306.55
489.35	308.76
489.72	311.14
490.08	313.57
490.44	316.05
490.81	318.65
491.17	321.35
491.54	324.23
491.90	327.24
492.26	330.46
492.63	333.84
492.99	337.31
493.36	340.93
493.72	344.74
494.08	348.79
494.45	352.96
494.81	357.46
495.17	361.99
495.54	366.75
495.90	371.75
496.26	376.95
496.63	382.45
496.99	388.17
497.35	394.16
497.72	400.42
498.08	406.98
498.44	413.67
498.80	420.78
499.17	428.25
499.53	435.80
499.89	443.69
500.26	451.75
500.62	460.06
500.98	469.04
501.34	478.28
501.71	487.68
502.07	497.43
502.43	507.50
502.79	517.80
503.16	528.51
503.52	539.40
503.88	550.56
504.24	562.20
504.60	573.97
504.97	586.38
505.33	598.87
505.69	612.15
506.05	625.74
506.41	639.27
506.78	653.02
507.14	667.31
507.50	681.88
507.86	696.81
508.22	712.22
508.59	727.51
508.95	743.22
509.31	759.63
509.67	776.32
510.03	793.24
510.39	810.75
510.75	828.26
511.12	846.53
511.48	864.95
511.84	883.60
512.20	902.36
512.56	921.48
512.92	941.14
513.28	960.74
513.64	980.49
514.00	1000.47
514.37	1020.98
514.73	1041.70
515.09	1062.55
515.45	1083.58
515.81	1104.87
516.17	1126.37
516.53	1147.67
516.89	1169.00
517.25	1190.40
517.61	1212.07
517.97	1233.63
518.33	1255.33
518.69	1276.94
519.05	1299.16
519.41	1321.34
519.77	1343.90
520.13	1366.10
520.49	1388.18
520.85	1410.75
521.21	1433.29
521.57	1456.41
521.93	1478.59
522.29	1501.43
522.65	1524.01
523.01	1546.51
523.37	1568.81
523.73	1590.97
524.09	1613.65
524.45	1636.27
524.81	1658.77
525.17	1681.58
525.53	1704.01
525.89	1726.62
526.25	1748.98
526.61	1770.40
526.97	1792.08
527.33	1813.69
527.68	1835.42
528.04	1856.62
528.40	1877.12
528.76	1897.94
529.12	1918.44
529.48	1940.08
529.84	1960.46
530.20	1980.88
530.56	2001.51
530.91	2022.10
531.27	2042.95
531.63	2063.06
531.99	2082.67
532.35	2102.07
532.71	2120.85
533.07	2140.53
533.42	2158.93
533.78	2177.70
534.14	2196.18
534.50	2213.48
534.86	2231.71
535.21	2248.37
535.57	2266.15
535.93	2283.59
536.29	2300.30
536.65	2317.41
537.00	2332.95
537.36	2348.62
537.72	2363.91
538.08	2379.10
538.44	2394.56
538.79	2409.73
539.15	2424.41
539.51	2439.32
539.87	2454.60
540.22	2469.28
540.58	2484.12
540.94	2498.75
541.29	2511.85
541.65	2523.91
542.01	2537.45
542.37	2549.26
542.72	2561.86
543.08	2572.88
543.44	2584.86
543.79	2595.56
544.15	2605.63
544.51	2616.50
544.87	2627.46
545.22	2637.08
545.58	2645.54
545.94	2652.84
546.29	2659.30
546.65	2665.55
547.01	2671.79
547.36	2677.35
547.72	2682.92
548.07	2687.02
548.43	2690.98
548.79	2694.88
549.14	2699.94
549.50	2704.24
549.86	2708.40
550.21	2712.23
550.57	2716.70
550.92	2719.42
551.28	2722.07
551.64	2724.65
551.99	2727.10
552.35	2728.54
552.70	2731.10
553.06	2733.82
553.41	2736.85
553.77	2740.09
554.13	2742.74
554.48	2744.99
554.84	2746.53
555.19	2746.97
555.55	2747.12
555.90	2747.58
556.26	2748.15
556.61	2748.04
556.97	2746.77
557.32	2746.32
557.68	2744.86
558.03	2743.36
558.39	2741.93
558.74	2741.62
559.10	2740.12
559.45	2738.26
559.81	2737.22
560.16	2734.72
560.52	2732.36
560.87	2729.28
561.23	2725.03
561.58	2722.73
561.94	2719.11
562.29	2715.55
562.64	2713.59
563.00	2711.80
563.35	2709.77
563.71	2708.18
564.06	2706.27
564.42	2704.36
564.77	2702.23
565.12	2700.50
565.48	2697.18
565.83	2693.91
566.19	2690.43
566.54	2686.30
566.89	2682.72
567.25	2679.26
567.60	2675.88
567.96	2672.64
568.31	2669.35
568.66	2665.86
569.02	2661.11
569.37	2656.29
569.72	2652.47
570.08	2646.81
570.43	2640.84
570.78	2635.05
571.14	2628.50
571.49	2621.51
571.84	2615.68
572.20	2608.43
572.55	2601.81
572.90	2595.16
573.26	2588.47
573.61	2581.52
573.96	2575.28
574.31	2567.44
574.67	2558.90
575.02	2550.55
575.37	2541.63
575.72	2532.42
576.08	2524.93
576.43	2516.25
576.78	2508.28
577.13	2500.15
577.49	2492.08
577.84	2484.64
578.19	2476.84
578.54	2469.47
578.90	2462.53
579.25	2453.60
579.60	2444.41
579.95	2435.01
580.30	2426.58
580.66	2418.07
581.01	2408.55
581.36	2399.22
581.71	2390.86
582.06	2382.30
582.42	2373.93
582.77	2364.82
583.12	2355.77
583.47	2347.23
583.82	2339.01
584.17	2330.12
584.53	2321.11
584.88	2312.46
585.23	2302.74
585.58	2293.22
585.93	2283.26
586.28	2274.20
586.63	2265.33
586.98	2257.15
587.34	2248.71
587.69	2239.99
588.04	2230.90
588.39	2222.94
588.74	2214.31
589.09	2205.35
589.44	2195.65
589.79	2187.11
590.14	2179.36
590.49	2171.31
590.84	2161.91
591.19	2153.70
591.54	2144.89
591.89	2134.82
592.25	2125.75
592.60	2116.21
592.95	2107.07
593.30	2097.57
593.65	2087.65
594.00	2077.99
594.35	2069.76
594.70	2060.55
595.05	2051.81
595.40	2042.88
595.75	2033.24
596.10	2024.55
596.45	2015.75
596.80	2008.36
597.15	1999.87
597.50	1990.87
597.85	1982.27
598.19	1973.66
598.54	1964.87
598.89	1957.02
599.24	1950.11
599.59	1942.48
599.94	1935.98
600.29	1927.88
600.64	1919.94
600.99	1911.65
601.34	1904.43
601.69	1895.30
602.04	1887.20
602.39	1879.02
602.74	1871.00
603.08	1864.20
603.43	1857.18
603.78	1849.54
604.13	1841.32
604.48	1833.39
604.83	1825.86
605.18	1818.82
605.53	1811.11
605.87	1803.33
606.22	1795.83
606.57	1788.10
606.92	1779.71
607.27	1771.17
607.62	1764.30
607.96	1757.49
608.31	1751.16
608.66	1743.35
609.01	1735.76
609.36	1728.03
609.70	1719.82
610.05	1712.32
610.40	1704.20
610.75	1695.34
611.10	1687.59
611.44	1678.46
611.79	1669.29
612.14	1660.27
612.49	1650.53
612.83	1641.81
613.18	1632.13
613.53	1622.77
613.88	1612.80
614.22	1604.16
614.57	1594.89
614.92	1585.11
615.27	1575.66
615.61	1565.77
615.96	1556.78
616.31	1548.43
616.65	1540.45
617.00	1532.16
617.35	1523.44
617.70	1514.26
618.04	1505.31
618.39	1495.55
618.74	1486.91
619.08	1478.28
619.43	1470.14
619.78	1462.25
620.12	1453.95
620.47	1446.30
620.82	1437.46
621.16	1429.09
621.51	1420.56
621.85	1412.42
622.20	1403.88
622.55	1395.63
622.89	1387.35
623.24	1379.32
623.59	1370.53
623.93	1361.84
624.28	1353.66
624.62	1345.30
624.97	1337.21
625.32	1329.37
625.66	1322.25
626.01	1315.10
626.35	1307.94
626.70	1299.95
627.04	1292.52
627.39	1285.00
627.73	1277.48
628.08	1270.69
628.43	1263.20
628.77	1255.76
629.12	1248.18
629.46	1241.67
629.81	1234.23
630.15	1226.91
630.50	1219.35
630.84	1212.10
631.19	1204.90
631.53	1197.99
631.88	1190.43
632.22	1182.76
632.57	1175.88
632.91	1168.35
633.26	1160.66
633.60	1153.44
633.95	1146.78
634.29	1139.48
634.64	1132.89
634.98	1125.63
635.32	1118.48
635.67	1112.25
636.01	1105.69
636.36	1098.96
636.70	1092.17
637.05	1085.62
637.39	1079.38
637.73	1073.22
638.08	1067.43
638.42	1061.42
638.77	1054.89
639.11	1048.70
639.45	1042.65
639.80	1036.13
640.14	1029.70
640.49	1023.74
640.83	1017.29
641.17	1010.79
641.52	1004.53
641.86	997.79
642.20	991.71
642.55	985.17
642.89	978.56
643.23	971.90
643.58	965.92
643.92	959.27
644.26	952.90
644.61	946.70
644.95	940.40
645.29	933.85
645.64	927.22
645.98	920.85
646.32	914.89
646.66	908.97
647.01	902.87
647.35	897.01
647.69	890.51
648.04	884.79
648.38	878.82
648.72	872.98
649.06	866.90
649.41	860.79
649.75	854.94
650.09	849.03
650.43	843.13
650.78	836.96
651.12	830.94
651.46	825.38
651.80	819.45
652.14	813.53
652.49	807.57
652.83	801.84
653.17	795.73
653.51	789.90
653.85	784.11
654.20	778.29
654.54	772.44
654.88	767.11
655.22	761.15
655.56	755.15
655.90	749.15
656.25	743.45
656.59	737.94
656.93	732.83
657.27	727.77
657.61	722.33
657.95	717.06
658.29	712.03
658.64	706.72
658.98	701.44
659.32	696.10
659.66	691.05
660.00	685.70
660.34	680.50
660.68	675.23
661.02	670.23
661.36	665.50
661.70	660.80
662.05	656.03
662.39	651.69
662.73	647.35
663.07	643.08
663.41	638.81
663.75	634.25
664.09	629.38
664.43	624.59
664.77	620.28
665.11	615.95
665.45	611.51
665.79	607.16
666.13	602.75
666.47	598.51
666.81	594.29
667.15	590.28
667.49	586.61
667.83	582.79
668.17	578.78
668.51	574.90
668.85	571.11
669.19	567.35
669.53	563.21
669.87	559.30
670.21	555.32
670.55	551.33
670.89	547.84
671.23	544.47
671.57	540.97
671.91	537.29
672.25	533.74
672.58	530.15
672.92	526.58
673.26	523.41
673.60	520.27
673.94	516.92
674.28	513.63
674.62	510.20
674.96	506.92
675.30	503.91
675.64	500.66
675.97	497.44
676.31	494.36
676.65	491.56
676.99	488.75
677.33	485.73
677.67	482.84
678.01	479.73
678.34	476.83
678.68	473.93
679.02	471.03
679.36	468.22
679.70	465.43
680.04	462.60
680.37	459.67
680.71	456.88
681.05	454.32
681.39	451.54
681.73	449.02
682.06	446.42
682.40	443.70
682.74	441.10
683.08	438.42
683.42	435.79
683.75	433.12
684.09	430.49
684.43	428.12
684.77	425.54
685.10	423.17
685.44	420.55
685.78	417.93
686.12	415.67
686.45	413.30
686.79	411.09
687.13	408.94
687.46	406.69
687.80	404.31
688.14	401.96
688.48	399.93
688.81	397.54
689.15	395.34
689.49	393.08
689.82	390.72
690.16	388.45
690.50	386.10
690.83	383.82
691.17	381.60
691.51	379.32
691.84	377.27
692.18	375.12
692.52	373.23
692.85	371.54
693.19	369.70
693.52	367.74
693.86	365.67
694.20	363.78
694.53	361.85
694.87	360.01
695.21	357.94
695.54	355.81
695.88	354.02
696.21	352.21
696.55	350.48
696.88	348.84
697.22	347.18
697.56	345.62
697.89	344.11
698.23	342.47
698.56	340.90
698.90	339.41
699.23	337.76
699.57	336.13
699.90	334.40
700.24	332.77
700.58	331.12
700.91	329.68
701.25	328.18
701.58	326.78
701.92	325.36
702.25	324.11
702.59	322.79
702.92	321.41
703.26	320.05
703.59	318.78
703.93	317.60
704.26	316.23
704.60	314.97
704.93	313.62
705.26	312.40
705.60	311.21
705.93	309.82
706.27	308.75
706.60	307.56
706.94	306.44
707.27	305.18
707.61	304.06
707.94	302.97
708.27	301.71
708.61	300.62
708.94	299.44
709.28	298.15
709.61	297.04
709.94	296.06
710.28	295.00
710.61	293.94
710.95	292.76
711.28	291.85
711.61	290.84
711.95	289.92
712.28	288.89
712.61	287.90
712.95	287.16
713.28	286.23
713.61	285.28
713.95	284.33
714.28	283.45
714.61	282.54
714.95	281.56
715.28	280.68
715.61	279.65
715.95	278.86
716.28	278.02
716.61	277.20
716.95	276.26
717.28	275.47
717.61	274.70
717.94	273.98
718.28	273.15
718.61	272.36
718.94	271.63
719.27	270.93
719.61	270.15
719.94	269.28
720.27	268.49
720.60	267.79
720.94	267.05
721.27	266.33
721.60	265.80
721.93	265.18
722.27	264.65
722.60	264.01
722.93	263.38
723.26	262.87
723.59	262.18
723.93	261.58
724.26	260.91
724.59	260.22
724.92	259.60
725.25	259.07
725.59	258.50
725.92	257.94
726.25	257.40
726.58	256.91
726.91	256.43
727.24	255.93
727.57	255.40
727.91	254.86
728.24	254.41
728.57	253.78
728.90	253.32
729.23	252.75
729.56	252.40
729.89	251.89
730.22	251.33
730.55	250.90
730.89	250.44
731.22	250.02
731.55	249.56
731.88	249.09
732.21	248.64
732.54	248.13
732.87	247.60
733.20	247.16
733.53	246.78
733.86	246.33
734.19	245.94
734.52	245.60
734.85	245.47
735.18	245.00
735.51	244.75
735.84	244.31
736.17	243.93
736.50	243.47
736.83	243.34
737.16	243.11
737.49	242.80
737.82	242.45
738.15	242.09
738.48	241.79
738.81	241.40
739.14	240.95
739.47	240.67
739.80	240.38
740.13	240.03
740.46	239.62
740.79	239.28
741.12	238.90
741.45	238.48
741.78	238.00
742.11	237.79
742.44	237.41
742.77	237.24
743.10	236.95
743.43	236.71
743.75	236.17
744.08	236.04
744.41	235.78
744.74	235.46
745.07	235.10
745.40	234.78
745.73	234.67
746.06	234.50
746.39	234.29
746.71	234.00
747.04	233.68
747.37	233.44
747.70	233.17
748.03	232.96
748.36	232.79
748.68	232.50
749.01	232.17
749.34	231.91
749.67	231.61
750.00	231.45
750.33	231.33
750.65	231.07
750.98	230.57
751.31	230.36
751.64	230.17
751.97	230.19
752.29	230.05
752.62	229.70
752.95	229.41
753.28	229.14
753.60	228.95
753.93	228.86
754.26	228.66
754.59	228.36
754.91	228.12
755.24	227.88
755.57	227.66
755.90	227.50
756.22	227.30
756.55	227.08
756.88	226.83
757.20	226.45
757.53	226.26
757.86	226.12
758.19	225.93
758.51	225.78
758.84	225.39
759.17	225.15
759.49	224.96
759.82	224.86
760.15	224.69
760.47	224.57
760.80	224.35
761.13	224.16
761.45	224.05
761.78	223.90
762.11	223.76
762.43	223.67
762.76	223.47
763.08	223.32
763.41	223.18
763.74	223.12
764.06	222.93
764.39	222.70
764.71	222.57
765.04	222.42
765.37	222.18
765.69	222.12
766.02	222.00
766.34	221.86
766.67	221.68
767.00	221.59
767.32	221.47
767.65	221.39
767.97	221.25
768.30	221.11
768.62	220.98
768.95	220.88
769.27	220.75
769.60	220.68
769.92	220.52
770.25	220.39
770.57	220.19
770.90	220.16
771.22	220.08
771.55	219.95
771.87	219.79
772.20	219.71
772.52	219.76
772.85	219.80
773.17	219.73
773.50	219.58
773.82	219.40
774.15	219.26
774.47	219.10
774.80	218.98
775.12	218.90
775.45	218.77
775.77	218.65
776.09	218.50
776.42	218.39
776.74	218.36
777.07	218.30
777.39	218.18
777.72	218.06
778.04	218.05
778.36	218.00
778.69	218.00
779.01	217.99
779.33	217.77
779.66	217.56
779.98	217.53
780.31	217.53
780.63	217.59
780.95	217.57
781.28	217.50
781.60	217.52
781.92	217.47
782.25	217.48
782.57	217.52
782.89	217.48
783.22	217.47
783.54	217.37
783.86	217.24
784.19	217.20
784.51	217.20
784.83	217.15
785.16	217.10
785.48	217.02
785.80	216.95
786.12	216.86
786.45	216.88
786.77	216.75
787.09	216.70
787.42	216.55
787.74	216.51
788.06	216.52
788.38	216.44
788.71	216.37
789.03	216.32
789.35	216.25
789.67	216.24
789.99	216.19
790.32	216.20
790.64	216.19
790.96	216.35
791.28	216.22
791.61	216.16
791.93	216.12
792.25	216.06
792.57	216.09
792.89	216.04
793.21	215.88
793.54	215.90
793.86	215.79
794.18	215.77
794.50	215.70
794.82	215.64
795.14	215.57
795.47	215.61
795.79	215.63
796.11	215.48
796.43	215.37
796.75	215.34
797.07	215.27
797.39	215.27
797.71	215.07
798.04	215.07
798.36	215.04
798.68	215.01
799.00	214.91
799.32	214.82
799.64	214.84
799.96	214.91
800.28	214.90
800.60	214.86
800.92	214.87
801.24	214.76
801.56	214.67
801.89	214.70
802.21	214.68
802.53	214.54
802.85	214.63
803.17	214.71
803.49	214.62
803.81	214.60
804.13	214.56
804.45	214.50
804.77	214.50
805.09	214.44
805.41	214.39
805.73	214.35
806.05	214.27
806.37	214.22
806.69	214.07
807.01	213.95
807.33	214.04
807.65	213.94
807.97	213.98
808.28	214.03
808.60	213.97
808.92	213.88
809.24	214.00
809.56	213.90
809.88	213.82
810.20	213.77
810.52	213.78
810.84	213.71
811.16	213.64
811.48	213.57
811.80	213.66
812.12	213.64
812.43	213.66
812.75	213.67
813.07	213.62
813.39	213.62
813.71	213.58
814.03	213.49
814.35	213.45
814.67	213.40
814.98	213.33
815.30	213.31
815.62	213.25
815.94	213.10
816.26	213.08
816.58	212.98
816.89	213.02
817.21	212.94
817.53	212.96
817.85	212.99
818.17	212.96
818.48	212.80
818.80	212.79
819.12	212.80
819.44	212.78
819.76	212.76
820.07	212.71
820.39	212.75
820.71	212.75
821.03	212.75
821.34	212.71
821.66	212.68
821.98	212.64
822.30	212.65
822.61	212.75
822.93	212.70
823.25	212.72
823.57	212.62
823.88	212.64
824.20	212.55
824.52	212.54
824.83	212.46
825.15	212.42
825.47	212.36
825.79	212.31
826.10	212.31
826.42	212.29
826.74	212.39
827.05	212.39
827.37	212.34
827.69	212.32
828.00	212.32
828.32	212.34
828.64	212.38
828.95	212.44
829.27	212.35
829.58	212.32
829.90	212.33
830.22	212.38
830.53	212.32
830.85	212.38
831.17	212.33
831.48	212.38
831.80	212.44
832.11	212.45
832.43	212.48
832.75	212.45
833.06	212.53
833.38	212.46
833.69	212.43
834.01	212.42
834.32	212.37
834.64	212.35
834.96	212.31
835.27	212.25
835.59	212.19
835.90	212.14
836.22	212.13
836.53	212.13
836.85	212.07
837.16	212.22
837.48	212.22
837.79	212.29
838.11	212.33
838.42	212.30
838.74	212.35
839.05	212.26
839.37	212.18
839.68	212.08
840.00	212.03
840.31	212.08
840.63	212.13
840.94	212.15
841.26	212.09
841.57	212.12
841.88	212.15
842.20	212.14
842.51	212.09
842.83	212.05
843.14	212.19
843.46	212.16
843.77	212.16
844.08	212.17
844.40	212.08
844.71	212.04
845.03	211.97
845.34	211.93
845.65	211.95
845.97	212.02
846.28	212.04
846.60	212.12
846.91	212.08
847.22	212.07
847.54	212.01
847.85	212.08
848.16	212.08
848.48	211.98
848.79	212.01
849.10	212.08
849.42	212.16
849.73	211.96
850.04	212.00
850.36	211.81
850.67	211.80
850.98	211.84
851.30	211.88
851.61	211.95
851.92	211.94
852.23	212.00
852.55	211.99
852.86	212.00
853.17	211.95
853.49	211.96
853.80	211.92
854.11	212.04
854.42	212.01
854.74	212.04
855.05	212.09
855.36	211.96
855.67	211.91
855.99	211.89
856.30	212.09
856.61	212.05
856.92	212.05
857.23	212.01
857.55	212.03
857.86	212.01
858.17	211.98
858.48	211.91
858.79	211.92
859.11	211.92
859.42	211.86
859.73	211.83
860.04	211.80
860.35	211.81
860.66	211.78
860.98	211.81
861.29	211.75
861.60	211.72
861.91	211.82
862.22	211.79
862.53	211.74
862.84	211.53
863.16	211.61
863.47	211.59
863.78	211.55
864.09	211.49
864.40	211.47
864.71	211.53
865.02	211.58
865.33	211.48
865.64	211.50
865.95	211.50
866.27	211.67
866.58	211.63
866.89	211.65
867.20	211.60
867.51	211.56
867.82	211.58
868.13	211.58
868.44	211.50
868.75	211.61
869.06	211.73
869.37	211.78
869.68	211.74
869.99	211.81
870.30	211.84
870.61	211.88
870.92	211.82
871.23	211.76
871.54	211.81
871.85	211.84
872.16	211.82
872.47	211.81
872.78	211.65
873.09	211.69
873.40	211.72
873.71	211.70
874.02	211.74
874.33	211.70
874.64	211.67
874.95	211.72
875.26	211.63
875.56	211.52
875.87	211.50
876.18	211.45
876.49	211.61
876.80	211.59
877.11	211.53
877.42	211.58
877.73	211.53
878.04	211.46
878.35	211.45
878.66	211.46
878.96	211.48
879.27	211.52
879.58	211.54
879.89	211.48
880.20	211.57
880.51	211.51
880.82	211.57
881.12	211.63
881.43	211.71
881.74	211.65
882.05	211.63
882.36	211.67
882.67	211.70
882.97	211.50
883.28	211.53
883.59	211.62
883.90	211.60
884.21	211.66
884.51	211.66
884.82	211.62
885.13	211.53
885.44	211.54
885.74	211.48
886.05	211.36
886.36	211.30
886.67	211.16
886.98	211.25
887.28	211.24
887.59	211.24
887.90	211.12
888.20	211.10
888.51	211.13
888.82	211.05
889.13	211.05
889.43	211.16
889.74	211.09
890.05	211.07
890.35	211.03
890.66	210.99
890.97	210.99
891.28	211.00
891.58	211.01
891.89	211.00
892.20	211.03
892.50	211.05
892.81	211.01
893.12	211.10
893.42	211.00
893.73	210.95
894.04	210.88
894.34	210.95
894.65	211.01
894.95	210.98
895.26	211.04
895.57	211.02
895.87	210.87
896.18	210.94
896.48	210.92
896.79	210.87
897.10	210.93
897.40	210.91
897.71	210.92
898.01	210.93
898.32	210.89
898.63	210.87
898.93	210.87
899.24	210.95
899.54	210.96
899.85	210.97
900.15	211.01
900.46	211.02
900.76	211.00
901.07	211.04
901.38	211.03
901.68	211.03
901.99	211.05
902.29	211.06
902.60	210.96
902.90	210.90
903.21	210.97
903.51	210.93
903.82	210.98
904.12	211.05
904.43	211.05
904.73	211.07
905.03	211.05
905.34	211.24
905.64	211.21
905.95	211.20
906.25	211.21
906.56	211.21
906.86	211.20
907.17	211.20
907.47	211.21
907.77	211.29
908.08	211.30
908.38	211.35
908.69	211.35
908.99	211.45
909.30	211.47
909.60	211.45
909.90	211.44
910.21	211.40
910.51	211.31
910.81	211.32
911.12	211.32
911.42	211.29
911.73	211.15
912.03	211.23
912.33	211.25
912.64	211.22
912.94	211.17
913.24	211.15
913.55	211.17
913.85	211.08
914.15	211.01
914.46	210.95
914.76	210.92
915.06	210.98
915.37	210.96
915.67	210.96
915.97	211.00
916.27	211.03
916.58	211.05
916.88	211.02
917.18	211.06
917.49	211.12
917.79	211.21
918.09	211.17
918.39	211.17
918.70	211.18
919.00	211.17
919.30	211.21
919.60	211.20
919.91	211.19
920.21	211.24
920.51	211.22
920.81	211.24
921.12	211.21
921.42	211.24
921.72	211.27
922.02	211.30
922.32	211.31
922.63	211.30
922.93	211.37
923.23	211.50
923.53	211.45
923.83	211.41
924.13	211.45
924.44	211.45
924.74	211.47
925.04	211.48
925.34	211.49
925.64	211.49
925.94	211.50
926.24	211.57
926.55	211.60
926.85	211.63
927.15	211.59
927.45	211.62
927.75	211.64
928.05	211.57
928.35	211.51
928.65	211.49
928.95	211.49
929.26	211.51
929.56	211.51
929.86	211.58
930.16	211.56
930.46	211.52
930.76	211.56
931.06	211.53
931.36	211.55
931.66	211.59
931.96	211.60
932.26	211.63
932.56	211.60
932.86	211.60
933.16	211.64
933.46	211.58
933.76	211.54
934.06	211.50
934.36	211.60
934.66	211.64
934.96	211.67
935.26	211.65
935.56	211.61
935.86	211.56
936.16	211.45
936.46	211.49
936.76	211.46
937.06	211.43
937.36	211.40
937.66	211.38
937.96	211.38
938.26	211.33
938.56	211.35
938.86	211.32
939.16	211.36
939.46	211.34
939.76	211.39
940.06	211.41
940.35	211.42
940.65	211.34
940.95	211.31
941.25	211.27
941.55	211.30
941.85	211.26
942.15	211.32
942.45	211.41
942.75	211.34
943.04	211.32
943.34	211.36
943.64	211.40
943.94	211.30
944.24	211.33
944.54	211.33
944.84	211.31
945.13	211.27
945.43	211.21
945.73	211.21
946.03	211.22
946.33	211.15
946.62	211.13
946.92	211.17
947.22	211.26
947.52	211.30
947.82	211.27
948.11	211.20
948.41	211.09
948.71	211.04
949.01	211.07
949.31	210.98
949.60	210.99
949.90	210.93
950.20	210.91
950.50	210.81
950.79	210.80
951.09	210.75
951.39	210.75
951.69	210.79
951.98	210.81
952.28	210.82
952.58	210.80
952.87	210.75
953.17	210.70
953.47	210.67
953.76	210.63
954.06	210.62
954.36	210.67
954.66	210.68
954.95	210.76
955.25	210.76
955.55	210.87
955.84	210.77
956.14	210.85
956.44	210.90
956.73	210.85
957.03	210.91
957.32	210.95
957.62	210.92
957.92	210.87
958.21	210.82
958.51	211.03
958.81	211.12
959.10	211.13
959.40	211.17
959.69	211.12
959.99	211.11
960.29	211.12
960.58	211.08
960.88	211.17
961.17	211.15
961.47	211.20
961.76	211.16
962.06	211.26
962.36	211.16
962.65	211.19
962.95	211.25
963.24	211.25
963.54	211.27
963.83	211.27
964.13	211.27
964.42	211.23
964.72	211.11
965.01	211.08
965.31	211.08
965.60	210.99
965.90	211.09
966.19	211.08
966.49	211.10
966.78	211.12
967.08	211.13
967.37	211.10
967.67	211.03
967.96	211.03
968.26	211.05
968.55	211.11
968.85	211.19
969.14	211.15
969.43	211.14
969.73	211.12
970.02	211.17
970.32	211.17
970.61	211.14
970.91	211.06
971.20	211.08
971.49	211.09
971.79	211.20
972.08	211.08
972.38	211.14
972.67	211.14
972.96	211.17
973.26	211.04
973.55	211.07
973.85	211.06
974.14	211.10
974.43	211.02
974.73	211.03
975.02	210.93
975.31	211.01
975.61	210.94
975.90	210.96
976.19	210.91
976.49	210.94
976.78	211.02
977.07	211.04
977.37	211.07
977.66	211.07
977.95	211.05
978.24	211.10
978.54	211.11
978.83	211.11
979.12	211.12
979.42	211.19
979.71	211.14
980.00	211.15
980.29	211.10
980.59	211.15
980.88	211.10
981.17	211.10
981.46	211.00
981.76	211.07
982.05	211.14
982.34	211.21
982.63	211.23
982.93	211.23
983.22	211.30
983.51	211.26
983.80	211.29
984.09	211.28
984.39	211.24
984.68	211.16
984.97	211.20
985.26	211.18
985.55	211.12
985.85	211.20
986.14	211.21
986.43	211.29
986.72	211.24
987.01	211.20
987.30	211.17
987.59	211.27
987.89	211.31
988.18	211.20
988.47	211.15
988.76	211.11
989.05	211.06
989.34	211.00
989.63	211.04
989.92	211.03
990.22	211.11
990.51	211.12
990.80	211.19
991.09	211.14
991.38	211.13
991.67	211.16
991.96	211.06
992.25	211.05
992.54	211.00
992.83	211.03
993.12	211.08
993.41	211.12
993.70	211.16
993.99	211.16
994.28	211.20
994.58	211.26
994.87	211.24
995.16	211.22
995.45	211.21
995.74	211.11
996.03	211.15
996.32	211.13
996.61	211.14
996.90	211.13
997.19	211.16
997.48	211.17
997.77	211.13
998.06	211.18
998.34	211.20
998.63	211.15
998.92	211.18
999.21	211.30
999.50	211.30
999.79	211.21
1000.08	211.21
1000.37	211.18
1000.66	211.07
1000.95	211.23
1001.24	211.27
1001.53	211.23
1001.82	211.23
1002.11	211.20
1002.40	211.16
1002.68	211.17
1002.97	211.25
1003.26	211.20
1003.55	211.18
1003.84	211.26
1004.13	211.32
1004.42	211.29
1004.71	211.39
1004.99	211.31
1005.28	211.28
1005.57	211.27
1005.86	211.27
1006.15	211.28
1006.44	211.25
1006.72	211.38
1007.01	211.26
1007.30	211.27
1007.59	211.30
1007.88	211.32
1008.17	211.29
1008.45	211.25
1008.74	211.25
1009.03	211.20
1009.32	211.15
1009.60	211.11
1009.89	211.10
1010.18	211.01
1010.47	211.00
1010.76	210.97
1011.04	210.95
1011.33	210.90
1011.62	210.97
1011.91	210.95
1012.19	210.95
1012.48	210.93
1012.77	210.90
1013.05	210.99
1013.34	211.00
1013.63	211.02
1013.92	211.03
1014.20	211.03
1014.49	211.07
1014.78	211.15
1015.06	211.09
1015.35	211.24
1015.64	211.29
1015.92	211.27
1016.21	211.18
1016.50	211.20
1016.78	211.24
1017.07	211.25
1017.36	211.21
1017.64	211.18
1017.93	211.21
1018.22	211.08
1018.50	211.18
1018.79	211.20
1019.08	211.10
1019.36	211.07
1019.65	211.02
1019.93	211.12
1020.22	211.11
1020.51	211.21
1020.79	211.14
1021.08	209.15
1021.36	212.00
1021.65	211.75
1021.94	211.15
1022.22	210.70
1022.51	209.95
1022.79	213.00
1023.08	210.80
1023.36	213.85
1023.65	210.75
>>>>>End Processed Spectral Data<<<<<
