SpectraSuite Data File
++++++++++++++++++++++++++++++++++++
Date: Mon Feb 25 17:33:05 EST 2013
User: group
Dark Spectrum Present: No
Reference Spectrum Present: No
Number of Sampled Component Spectra: 1
Spectrometers: USB2E7196
Integration Time (usec): 52000 (USB2E7196)
Spectra Averaged: 20 (USB2E7196)
Boxcar Smoothing: 10 (USB2E7196)
Correct for Electrical Dark: No (USB2E7196)
Strobe/Lamp Enabled: No (USB2E7196)
Correct for Detector Non-linearity: No (USB2E7196)
Correct for Stray Light: No (USB2E7196)
Number of Pixels in Processed Spectrum: 2048
>>>>>Begin Processed Spectral Data<<<<<
339.09	0.00
339.48	199.20
339.86	199.05
340.24	201.80
340.63	202.10
341.01	207.00
341.39	204.50
341.78	206.75
342.16	209.10
342.54	208.40
342.93	197.77
343.31	207.75
343.69	208.23
344.07	208.76
344.46	209.13
344.84	209.51
345.22	209.69
345.60	209.99
345.99	210.21
346.37	210.33
346.75	210.42
347.13	210.43
347.52	210.48
347.90	210.57
348.28	210.61
348.66	210.69
349.05	210.62
349.43	210.64
349.81	210.64
350.19	210.70
350.57	210.74
350.96	210.82
351.34	210.99
351.72	211.07
352.10	211.17
352.48	211.30
352.87	211.35
353.25	211.37
353.63	211.41
354.01	211.46
354.39	211.46
354.77	211.58
355.15	211.77
355.54	211.82
355.92	211.77
356.30	211.87
356.68	212.07
357.06	212.25
357.44	212.31
357.82	212.35
358.20	212.48
358.58	212.65
358.97	212.71
359.35	212.78
359.73	212.91
360.11	212.95
360.49	213.00
360.87	213.10
361.25	213.21
361.63	213.33
362.01	213.40
362.39	213.55
362.77	213.58
363.15	213.59
363.53	213.66
363.91	213.74
364.29	213.81
364.67	213.68
365.05	213.71
365.43	213.78
365.81	213.89
366.19	213.93
366.57	213.98
366.95	214.10
367.33	214.05
367.71	214.08
368.09	214.18
368.47	214.21
368.85	214.28
369.23	214.31
369.61	214.29
369.99	214.35
370.37	214.34
370.75	214.46
371.13	214.41
371.51	214.37
371.89	214.35
372.27	214.35
372.65	214.33
373.03	214.25
373.41	214.16
373.78	214.12
374.16	214.00
374.54	213.91
374.92	213.83
375.30	213.81
375.68	213.76
376.06	213.72
376.44	213.68
376.82	213.68
377.19	213.64
377.57	213.64
377.95	213.52
378.33	213.35
378.71	213.17
379.09	213.20
379.47	213.13
379.84	213.08
380.22	212.95
380.60	212.87
380.98	212.86
381.36	212.91
381.73	212.88
382.11	212.83
382.49	212.75
382.87	212.70
383.25	212.65
383.62	212.75
384.00	212.66
384.38	212.58
384.76	212.49
385.13	212.50
385.51	212.35
385.89	212.29
386.27	212.31
386.64	212.38
387.02	212.28
387.40	212.29
387.78	212.23
388.15	212.22
388.53	212.20
388.91	212.19
389.29	212.09
389.66	212.07
390.04	212.12
390.42	212.15
390.79	212.11
391.17	212.01
391.55	211.92
391.92	211.90
392.30	211.94
392.68	211.85
393.05	211.74
393.43	211.80
393.81	211.81
394.18	211.79
394.56	211.72
394.94	211.73
395.31	211.69
395.69	211.77
396.06	211.79
396.44	211.79
396.82	211.72
397.19	211.89
397.57	211.84
397.95	211.86
398.32	211.77
398.70	211.84
399.07	211.99
399.45	211.92
399.82	211.97
400.20	211.97
400.58	212.03
400.95	212.13
401.33	212.20
401.70	212.38
402.08	212.42
402.45	212.52
402.83	212.64
403.20	212.71
403.58	212.76
403.95	212.94
404.33	213.11
404.71	213.28
405.08	213.42
405.46	213.55
405.83	213.65
406.21	213.84
406.58	214.01
406.96	214.08
407.33	214.28
407.70	214.38
408.08	214.68
408.45	214.92
408.83	215.12
409.20	215.35
409.58	215.51
409.95	215.84
410.33	216.10
410.70	216.41
411.08	216.79
411.45	217.20
411.82	217.46
412.20	217.80
412.57	218.30
412.95	218.59
413.32	219.10
413.69	219.60
414.07	220.11
414.44	220.69
414.82	221.35
415.19	222.08
415.56	222.86
415.94	223.60
416.31	224.46
416.68	225.40
417.06	226.31
417.43	227.26
417.81	228.42
418.18	229.56
418.55	230.71
418.93	231.83
419.30	233.05
419.67	234.48
420.04	235.96
420.42	237.50
420.79	239.28
421.16	240.99
421.54	242.79
421.91	244.69
422.28	246.63
422.66	248.74
423.03	250.86
423.40	252.95
423.77	255.13
424.15	257.44
424.52	259.74
424.89	262.40
425.26	264.89
425.64	267.20
426.01	269.74
426.38	272.46
426.75	275.31
427.13	278.18
427.50	281.14
427.87	284.21
428.24	287.26
428.61	290.23
428.99	293.51
429.36	297.05
429.73	300.56
430.10	304.08
430.47	307.54
430.85	311.03
431.22	314.93
431.59	319.11
431.96	322.97
432.33	327.25
432.70	331.38
433.08	336.28
433.45	341.02
433.82	345.59
434.19	350.69
434.56	355.73
434.93	360.49
435.30	365.22
435.68	370.54
436.05	375.69
436.42	380.84
436.79	385.50
437.16	390.50
437.53	395.73
437.90	400.86
438.27	406.13
438.64	411.47
439.01	416.32
439.38	420.66
439.75	424.93
440.13	429.80
440.50	434.27
440.87	437.99
441.24	441.68
441.61	445.92
441.98	448.97
442.35	452.58
442.72	456.28
443.09	459.65
443.46	461.78
443.83	463.13
444.20	464.26
444.57	465.95
444.94	466.69
445.31	467.56
445.68	468.40
446.05	468.56
446.42	467.95
446.79	467.23
447.16	466.42
447.53	465.71
447.90	463.68
448.27	461.58
448.64	458.60
449.01	456.44
449.37	452.79
449.74	449.28
450.11	445.10
450.48	440.58
450.85	436.06
451.22	431.92
451.59	428.15
451.96	424.57
452.33	419.92
452.70	415.61
453.07	410.48
453.43	405.22
453.80	400.25
454.17	395.44
454.54	391.00
454.91	386.07
455.28	381.38
455.65	376.93
456.02	372.68
456.38	369.01
456.75	364.45
457.12	360.64
457.49	356.81
457.86	353.08
458.23	349.85
458.59	346.44
458.96	342.99
459.33	339.82
459.70	336.67
460.07	334.14
460.43	331.32
460.80	328.58
461.17	326.27
461.54	323.84
461.91	321.55
462.27	319.08
462.64	317.16
463.01	315.01
463.38	312.94
463.74	310.71
464.11	308.83
464.48	307.15
464.85	305.39
465.21	304.02
465.58	302.60
465.95	300.90
466.32	299.49
466.68	298.06
467.05	296.75
467.42	295.42
467.78	293.97
468.15	292.59
468.52	291.70
468.88	290.33
469.25	289.16
469.62	288.20
469.98	287.20
470.35	286.23
470.72	285.31
471.08	284.30
471.45	283.49
471.82	282.75
472.18	281.95
472.55	281.32
472.92	280.57
473.28	279.91
473.65	279.33
474.02	278.72
474.38	278.29
474.75	277.95
475.11	277.51
475.48	277.27
475.85	277.05
476.21	276.69
476.58	276.51
476.94	276.44
477.31	276.33
477.67	276.23
478.04	276.28
478.41	276.45
478.77	276.80
479.14	276.93
479.50	277.17
479.87	277.52
480.23	277.97
480.60	278.53
480.96	279.02
481.33	279.72
481.69	280.47
482.06	281.07
482.42	281.68
482.79	282.41
483.15	283.20
483.52	284.22
483.88	285.25
484.25	286.35
484.61	287.41
484.98	288.60
485.34	289.95
485.71	291.24
486.07	292.57
486.44	293.97
486.80	295.51
487.17	297.01
487.53	298.69
487.90	300.50
488.26	302.41
488.62	304.42
488.99	306.48
489.35	308.48
489.72	310.78
490.08	313.20
490.44	315.61
490.81	318.29
491.17	320.93
491.54	323.82
491.90	326.79
492.26	330.08
492.63	333.32
492.99	336.80
493.36	340.56
493.72	344.48
494.08	348.37
494.45	352.73
494.81	357.29
495.17	361.87
495.54	366.69
495.90	371.70
496.26	376.95
496.63	382.35
496.99	388.15
497.35	394.15
497.72	400.44
498.08	406.99
498.44	413.66
498.80	420.79
499.17	428.24
499.53	435.94
499.89	443.87
500.26	452.03
500.62	460.29
500.98	469.24
501.34	478.31
501.71	487.83
502.07	497.47
502.43	507.50
502.79	517.84
503.16	528.45
503.52	539.35
503.88	550.50
504.24	562.21
504.60	574.01
504.97	586.35
505.33	598.93
505.69	612.27
506.05	625.80
506.41	639.35
506.78	653.01
507.14	667.06
507.50	681.59
507.86	696.56
508.22	712.08
508.59	727.50
508.95	743.60
509.31	759.74
509.67	776.35
510.03	793.18
510.39	810.68
510.75	828.35
511.12	846.31
511.48	864.70
511.84	883.21
512.20	901.71
512.56	920.92
512.92	940.43
513.28	959.82
513.64	979.53
514.00	999.44
514.37	1019.90
514.73	1040.70
515.09	1061.55
515.45	1082.41
515.81	1103.41
516.17	1124.46
516.53	1145.82
516.89	1167.47
517.25	1189.05
517.61	1210.65
517.97	1232.12
518.33	1253.90
518.69	1275.82
519.05	1297.87
519.41	1320.07
519.77	1343.03
520.13	1365.27
520.49	1387.28
520.85	1409.92
521.21	1432.30
521.57	1455.45
521.93	1477.54
522.29	1500.61
522.65	1522.92
523.01	1545.54
523.37	1567.60
523.73	1590.13
524.09	1612.28
524.45	1634.65
524.81	1657.29
525.17	1679.85
525.53	1702.18
525.89	1724.51
526.25	1746.39
526.61	1767.79
526.97	1789.25
527.33	1810.29
527.68	1831.75
528.04	1852.86
528.40	1873.29
528.76	1894.13
529.12	1914.52
529.48	1936.31
529.84	1956.41
530.20	1977.19
530.56	1997.64
530.91	2018.68
531.27	2039.10
531.63	2058.95
531.99	2078.59
532.35	2097.63
532.71	2116.67
533.07	2136.10
533.42	2154.53
533.78	2173.60
534.14	2192.14
534.50	2209.52
534.86	2227.53
535.21	2244.24
535.57	2262.14
535.93	2279.65
536.29	2296.34
536.65	2312.87
537.00	2328.15
537.36	2343.35
537.72	2358.18
538.08	2373.36
538.44	2388.51
538.79	2403.93
539.15	2419.22
539.51	2433.94
539.87	2448.94
540.22	2463.43
540.58	2478.53
540.94	2493.08
541.29	2505.88
541.65	2518.13
542.01	2531.28
542.37	2542.95
542.72	2555.47
543.08	2566.22
543.44	2577.95
543.79	2588.40
544.15	2598.79
544.51	2609.93
544.87	2621.16
545.22	2630.74
545.58	2639.20
545.94	2646.09
546.29	2652.41
546.65	2658.35
547.01	2664.48
547.36	2670.39
547.72	2675.90
548.07	2679.68
548.43	2683.20
548.79	2687.32
549.14	2691.61
549.50	2696.13
549.86	2700.57
550.21	2704.35
550.57	2708.45
550.92	2711.27
551.28	2714.01
551.64	2716.61
551.99	2719.06
552.35	2720.42
552.70	2722.73
553.06	2725.59
553.41	2728.79
553.77	2731.60
554.13	2733.88
554.48	2735.85
554.84	2736.98
555.19	2737.35
555.55	2738.10
555.90	2739.05
556.26	2739.49
556.61	2740.08
556.97	2738.60
557.32	2737.92
557.68	2736.53
558.03	2735.35
558.39	2733.38
558.74	2732.94
559.10	2732.10
559.45	2729.79
559.81	2728.37
560.16	2725.72
560.52	2722.87
560.87	2720.07
561.23	2716.28
561.58	2713.82
561.94	2710.67
562.29	2707.29
562.64	2705.36
563.00	2702.99
563.35	2700.53
563.71	2698.81
564.06	2696.39
564.42	2694.78
564.77	2692.79
565.12	2690.51
565.48	2687.18
565.83	2684.60
566.19	2681.32
566.54	2676.63
566.89	2672.92
567.25	2669.30
567.60	2666.69
567.96	2663.55
568.31	2659.98
568.66	2656.23
569.02	2651.67
569.37	2646.67
569.72	2643.05
570.08	2637.57
570.43	2631.54
570.78	2625.90
571.14	2619.34
571.49	2612.51
571.84	2606.31
572.20	2599.24
572.55	2592.70
572.90	2585.81
573.26	2578.72
573.61	2571.83
573.96	2565.44
574.31	2557.82
574.67	2549.65
575.02	2540.86
575.37	2531.96
575.72	2523.14
576.08	2515.62
576.43	2507.25
576.78	2499.38
577.13	2490.91
577.49	2482.89
577.84	2475.40
578.19	2467.74
578.54	2460.12
578.90	2453.47
579.25	2444.63
579.60	2435.69
579.95	2426.48
580.30	2418.62
580.66	2410.44
581.01	2400.99
581.36	2391.62
581.71	2382.86
582.06	2374.64
582.42	2366.36
582.77	2357.64
583.12	2348.60
583.47	2339.97
583.82	2331.50
584.17	2322.24
584.53	2313.07
584.88	2304.20
585.23	2295.01
585.58	2285.48
585.93	2275.85
586.28	2266.56
586.63	2258.13
586.98	2249.61
587.34	2241.33
587.69	2231.89
588.04	2222.64
588.39	2214.74
588.74	2206.06
589.09	2197.49
589.44	2187.99
589.79	2179.43
590.14	2171.50
590.49	2163.08
590.84	2154.03
591.19	2146.00
591.54	2137.57
591.89	2127.55
592.25	2118.44
592.60	2108.76
592.95	2099.09
593.30	2089.54
593.65	2079.88
594.00	2069.99
594.35	2061.80
594.70	2052.65
595.05	2044.04
595.40	2035.40
595.75	2025.51
596.10	2017.07
596.45	2008.61
596.80	2000.91
597.15	1992.58
597.50	1983.24
597.85	1974.83
598.19	1966.19
598.54	1957.52
598.89	1949.25
599.24	1942.59
599.59	1935.22
599.94	1928.21
600.29	1920.66
600.64	1912.92
600.99	1904.32
601.34	1897.14
601.69	1888.32
602.04	1880.40
602.39	1872.54
602.74	1864.51
603.08	1858.00
603.43	1850.90
603.78	1842.77
604.13	1834.75
604.48	1826.53
604.83	1819.59
605.18	1812.80
605.53	1805.19
605.87	1797.33
606.22	1790.40
606.57	1782.38
606.92	1774.03
607.27	1766.03
607.62	1758.80
607.96	1752.09
608.31	1746.15
608.66	1738.57
609.01	1730.84
609.36	1722.88
609.70	1714.80
610.05	1707.20
610.40	1699.16
610.75	1690.56
611.10	1683.07
611.44	1673.70
611.79	1664.80
612.14	1655.52
612.49	1645.51
612.83	1636.50
613.18	1626.89
613.53	1617.17
613.88	1607.75
614.22	1598.87
614.57	1589.42
614.92	1580.06
615.27	1570.63
615.61	1560.86
615.96	1552.03
616.31	1543.63
616.65	1535.76
617.00	1527.33
617.35	1518.54
617.70	1509.22
618.04	1500.16
618.39	1490.80
618.74	1482.42
619.08	1473.83
619.43	1465.58
619.78	1458.05
620.12	1450.20
620.47	1442.51
620.82	1434.35
621.16	1425.95
621.51	1417.51
621.85	1409.37
622.20	1400.91
622.55	1392.54
622.89	1384.09
623.24	1375.74
623.59	1367.10
623.93	1358.51
624.28	1350.34
624.62	1342.11
624.97	1334.28
625.32	1326.42
625.66	1319.01
626.01	1311.87
626.35	1304.77
626.70	1296.96
627.04	1289.39
627.39	1281.64
627.73	1274.04
628.08	1267.11
628.43	1259.59
628.77	1252.34
629.12	1244.89
629.46	1238.20
629.81	1230.81
630.15	1223.50
630.50	1216.13
630.84	1208.83
631.19	1201.45
631.53	1194.52
631.88	1187.10
632.22	1179.44
632.57	1172.48
632.91	1165.01
633.26	1157.16
633.60	1149.92
633.95	1143.29
634.29	1135.84
634.64	1129.13
634.98	1121.92
635.32	1114.71
635.67	1108.61
636.01	1102.11
636.36	1095.48
636.70	1088.74
637.05	1082.12
637.39	1075.74
637.73	1069.56
638.08	1063.98
638.42	1058.22
638.77	1051.91
639.11	1045.53
639.45	1039.53
639.80	1033.01
640.14	1026.63
640.49	1020.74
640.83	1014.65
641.17	1008.04
641.52	1002.08
641.86	995.64
642.20	989.71
642.55	983.04
642.89	976.29
643.23	969.66
643.58	963.76
643.92	957.19
644.26	951.20
644.61	945.06
644.95	938.89
645.29	932.24
645.64	925.45
645.98	919.39
646.32	913.60
646.66	907.33
647.01	901.50
647.35	895.62
647.69	889.38
648.04	883.11
648.38	877.36
648.72	871.33
649.06	865.23
649.41	859.26
649.75	853.50
650.09	847.82
650.43	841.91
650.78	835.58
651.12	829.70
651.46	823.86
651.80	817.93
652.14	811.85
652.49	805.85
652.83	800.03
653.17	793.70
653.51	787.68
653.85	782.02
654.20	776.05
654.54	770.08
654.88	764.61
655.22	758.88
655.56	752.99
655.90	746.98
656.25	741.28
656.59	735.74
656.93	730.71
657.27	725.29
657.61	719.83
657.95	714.97
658.29	709.75
658.64	704.54
658.98	699.33
659.32	693.91
659.66	688.98
660.00	683.79
660.34	678.68
660.68	673.58
661.02	668.45
661.36	663.63
661.70	658.84
662.05	654.13
662.39	649.67
662.73	645.26
663.07	641.11
663.41	636.76
663.75	632.10
664.09	627.33
664.43	622.64
664.77	618.43
665.11	613.80
665.45	609.44
665.79	604.97
666.13	600.60
666.47	596.60
666.81	592.34
667.15	588.48
667.49	584.55
667.83	580.80
668.17	577.02
668.51	573.22
668.85	569.55
669.19	565.91
669.53	561.98
669.87	557.92
670.21	554.12
670.55	550.26
670.89	546.81
671.23	543.32
671.57	540.00
671.91	536.37
672.25	532.76
672.58	529.27
672.92	525.87
673.26	522.58
673.60	519.27
673.94	515.89
674.28	512.32
674.62	509.23
674.96	505.89
675.30	502.67
675.64	499.51
675.97	496.41
676.31	493.13
676.65	490.14
676.99	487.44
677.33	484.35
677.67	481.49
678.01	478.36
678.34	475.32
678.68	472.25
679.02	469.18
679.36	466.54
679.70	463.73
680.04	460.84
680.37	458.09
680.71	455.24
681.05	452.80
681.39	450.24
681.73	447.48
682.06	445.00
682.40	442.51
682.74	439.88
683.08	437.31
683.42	434.70
683.75	432.20
684.09	429.57
684.43	427.20
684.77	424.67
685.10	422.23
685.44	419.76
685.78	417.30
686.12	415.10
686.45	412.52
686.79	410.20
687.13	408.09
687.46	405.89
687.80	403.72
688.14	401.23
688.48	399.15
688.81	396.97
689.15	394.59
689.49	392.21
689.82	390.01
690.16	387.64
690.50	385.35
690.83	383.12
691.17	380.86
691.51	378.61
691.84	376.50
692.18	374.48
692.52	372.50
692.85	370.71
693.19	368.84
693.52	366.98
693.86	365.08
694.20	363.05
694.53	361.07
694.87	359.05
695.21	357.20
695.54	355.25
695.88	353.29
696.21	351.45
696.55	349.80
696.88	348.01
697.22	346.33
697.56	344.78
697.89	343.13
698.23	341.47
698.56	339.81
698.90	338.33
699.23	336.59
699.57	335.02
699.90	333.33
700.24	331.57
700.58	329.99
700.91	328.49
701.25	327.22
701.58	325.72
701.92	324.37
702.25	323.04
702.59	321.67
702.92	320.42
703.26	319.12
703.59	317.81
703.93	316.70
704.26	315.42
704.60	314.15
704.93	312.85
705.26	311.65
705.60	310.45
705.93	309.14
706.27	308.12
706.60	307.04
706.94	306.00
707.27	304.85
707.61	303.80
707.94	302.64
708.27	301.35
708.61	300.29
708.94	299.11
709.28	297.91
709.61	296.77
709.94	295.66
710.28	294.64
710.61	293.71
710.95	292.48
711.28	291.58
711.61	290.58
711.95	289.56
712.28	288.62
712.61	287.74
712.95	286.79
713.28	285.87
713.61	284.83
713.95	283.82
714.28	282.99
714.61	282.04
714.95	281.17
715.28	280.29
715.61	279.35
715.95	278.48
716.28	277.60
716.61	276.73
716.95	275.93
717.28	275.15
717.61	274.21
717.94	273.52
718.28	272.60
718.61	271.87
718.94	271.21
719.27	270.46
719.61	269.76
719.94	269.03
720.27	268.21
720.60	267.46
720.94	266.82
721.27	266.13
721.60	265.55
721.93	264.90
722.27	264.31
722.60	263.74
722.93	263.16
723.26	262.61
723.59	262.03
723.93	261.43
724.26	260.82
724.59	260.32
724.92	259.65
725.25	259.14
725.59	258.46
725.92	257.91
726.25	257.44
726.58	256.89
726.91	256.35
727.24	255.80
727.57	255.35
727.91	254.80
728.24	254.29
728.57	253.70
728.90	253.27
729.23	252.78
729.56	252.32
729.89	251.84
730.22	251.31
730.55	250.80
730.89	250.26
731.22	249.75
731.55	249.24
731.88	248.90
732.21	248.41
732.54	247.98
732.87	247.59
733.20	247.09
733.53	246.63
733.86	246.26
734.19	245.80
734.52	245.47
734.85	245.27
735.18	244.89
735.51	244.61
735.84	244.08
736.17	243.75
736.50	243.31
736.83	243.10
737.16	242.78
737.49	242.46
737.82	242.14
738.15	241.81
738.48	241.38
738.81	241.00
739.14	240.65
739.47	240.33
739.80	239.95
740.13	239.64
740.46	239.22
740.79	238.89
741.12	238.69
741.45	238.29
741.78	237.83
742.11	237.53
742.44	237.17
742.77	236.98
743.10	236.59
743.43	236.29
743.75	235.91
744.08	235.77
744.41	235.52
744.74	235.16
745.07	234.90
745.40	234.74
745.73	234.49
746.06	234.28
746.39	234.05
746.71	233.79
747.04	233.48
747.37	233.26
747.70	232.98
748.03	232.71
748.36	232.44
748.68	232.16
749.01	231.90
749.34	231.68
749.67	231.45
750.00	231.24
750.33	231.14
750.65	230.85
750.98	230.45
751.31	230.19
751.64	230.01
751.97	229.87
752.29	229.61
752.62	229.40
752.95	229.15
753.28	228.91
753.60	228.66
753.93	228.51
754.26	228.33
754.59	228.00
754.91	227.73
755.24	227.60
755.57	227.34
755.90	227.19
756.22	226.90
756.55	226.69
756.88	226.45
757.20	226.08
757.53	225.90
757.86	225.79
758.19	225.60
758.51	225.43
758.84	225.13
759.17	224.95
759.49	224.68
759.82	224.57
760.15	224.41
760.47	224.23
760.80	224.01
761.13	223.82
761.45	223.64
761.78	223.47
762.11	223.22
762.43	223.14
762.76	222.94
763.08	222.75
763.41	222.55
763.74	222.49
764.06	222.42
764.39	222.29
764.71	222.12
765.04	222.02
765.37	221.93
765.69	221.79
766.02	221.60
766.34	221.52
766.67	221.30
767.00	221.15
767.32	221.13
767.65	221.09
767.97	221.01
768.30	220.93
768.62	220.83
768.95	220.75
769.27	220.59
769.60	220.53
769.92	220.47
770.25	220.41
770.57	220.19
770.90	220.05
771.22	219.86
771.55	219.71
771.87	219.56
772.20	219.40
772.52	219.44
772.85	219.57
773.17	219.42
773.50	219.38
773.82	219.29
774.15	219.13
774.47	218.88
774.80	218.71
775.12	218.61
775.45	218.54
775.77	218.48
776.09	218.39
776.42	218.32
776.74	218.31
777.07	218.23
777.39	218.10
777.72	218.05
778.04	218.05
778.36	217.91
778.69	217.81
779.01	217.71
779.33	217.49
779.66	217.28
779.98	217.26
780.31	217.15
780.63	217.10
780.95	217.12
781.28	217.10
781.60	217.05
781.92	217.03
782.25	216.96
782.57	216.91
782.89	216.83
783.22	216.76
783.54	216.71
783.86	216.61
784.19	216.62
784.51	216.58
784.83	216.49
785.16	216.55
785.48	216.43
785.80	216.41
786.12	216.40
786.45	216.30
786.77	216.28
787.09	216.31
787.42	216.26
787.74	216.15
788.06	216.17
788.38	216.19
788.71	216.11
789.03	216.10
789.35	216.08
789.67	216.08
789.99	215.98
790.32	215.91
790.64	215.91
790.96	216.07
791.28	216.00
791.61	215.95
791.93	215.90
792.25	216.00
792.57	216.05
792.89	215.95
793.21	215.98
793.54	215.96
793.86	215.79
794.18	215.77
794.50	215.72
794.82	215.76
795.14	215.67
795.47	215.68
795.79	215.62
796.11	215.56
796.43	215.45
796.75	215.51
797.07	215.45
797.39	215.36
797.71	215.14
798.04	215.15
798.36	215.09
798.68	215.01
799.00	214.95
799.32	214.84
799.64	214.88
799.96	214.81
800.28	214.75
800.60	214.77
800.92	214.70
801.24	214.66
801.56	214.60
801.89	214.56
802.21	214.53
802.53	214.50
802.85	214.42
803.17	214.57
803.49	214.45
803.81	214.35
804.13	214.35
804.45	214.32
804.77	214.23
805.09	214.25
805.41	214.19
805.73	214.10
806.05	214.05
806.37	214.02
806.69	213.99
807.01	213.97
807.33	213.97
807.65	213.92
807.97	213.96
808.28	213.84
808.60	213.76
808.92	213.77
809.24	213.78
809.56	213.76
809.88	213.61
810.20	213.61
810.52	213.68
810.84	213.66
811.16	213.62
811.48	213.59
811.80	213.59
812.12	213.61
812.43	213.69
812.75	213.62
813.07	213.54
813.39	213.50
813.71	213.39
814.03	213.32
814.35	213.32
814.67	213.13
814.98	213.11
815.30	213.15
815.62	213.06
815.94	212.96
816.26	212.91
816.58	212.91
816.89	212.87
817.21	212.83
817.53	212.82
817.85	212.84
818.17	212.87
818.48	212.80
818.80	212.81
819.12	212.74
819.44	212.70
819.76	212.68
820.07	212.65
820.39	212.70
820.71	212.71
821.03	212.71
821.34	212.73
821.66	212.76
821.98	212.77
822.30	212.79
822.61	212.85
822.93	212.88
823.25	212.83
823.57	212.83
823.88	212.82
824.20	212.80
824.52	212.79
824.83	212.74
825.15	212.72
825.47	212.70
825.79	212.70
826.10	212.70
826.42	212.72
826.74	212.77
827.05	212.73
827.37	212.75
827.69	212.73
828.00	212.77
828.32	212.78
828.64	212.80
828.95	212.88
829.27	212.90
829.58	212.83
829.90	212.91
830.22	212.83
830.53	212.77
830.85	212.70
831.17	212.60
831.48	212.62
831.80	212.61
832.11	212.53
832.43	212.56
832.75	212.57
833.06	212.63
833.38	212.50
833.69	212.50
834.01	212.52
834.32	212.50
834.64	212.48
834.96	212.43
835.27	212.39
835.59	212.34
835.90	212.26
836.22	212.24
836.53	212.14
836.85	212.18
837.16	212.40
837.48	212.39
837.79	212.47
838.11	212.46
838.42	212.41
838.74	212.46
839.05	212.36
839.37	212.35
839.68	212.29
840.00	212.30
840.31	212.35
840.63	212.30
840.94	212.22
841.26	212.14
841.57	212.13
841.88	212.10
842.20	211.98
842.51	211.99
842.83	212.01
843.14	212.20
843.46	212.26
843.77	212.16
844.08	212.14
844.40	212.06
844.71	212.03
845.03	212.02
845.34	212.00
845.65	211.99
845.97	212.02
846.28	212.06
846.60	212.01
846.91	211.93
847.22	211.86
847.54	211.93
847.85	212.00
848.16	212.01
848.48	212.02
848.79	212.10
849.10	212.15
849.42	212.17
849.73	211.92
850.04	211.86
850.36	211.84
850.67	211.88
850.98	211.90
851.30	211.93
851.61	211.94
851.92	211.95
852.23	211.99
852.55	212.08
852.86	212.01
853.17	212.08
853.49	212.10
853.80	212.20
854.11	212.27
854.42	212.27
854.74	212.19
855.05	212.16
855.36	212.14
855.67	212.09
855.99	212.02
856.30	212.28
856.61	212.27
856.92	212.17
857.23	212.17
857.55	212.15
857.86	212.05
858.17	212.09
858.48	212.05
858.79	212.05
859.11	211.96
859.42	211.95
859.73	211.89
860.04	211.91
860.35	211.85
860.66	211.74
860.98	211.68
861.29	211.75
861.60	211.72
861.91	211.73
862.22	211.67
862.53	211.72
862.84	211.46
863.16	211.53
863.47	211.56
863.78	211.49
864.09	211.50
864.40	211.58
864.71	211.54
865.02	211.52
865.33	211.43
865.64	211.37
865.95	211.32
866.27	211.50
866.58	211.55
866.89	211.58
867.20	211.52
867.51	211.51
867.82	211.46
868.13	211.52
868.44	211.51
868.75	211.61
869.06	211.52
869.37	211.65
869.68	211.58
869.99	211.57
870.30	211.66
870.61	211.71
870.92	211.68
871.23	211.66
871.54	211.69
871.85	211.77
872.16	211.77
872.47	211.78
872.78	211.63
873.09	211.57
873.40	211.51
873.71	211.57
874.02	211.57
874.33	211.55
874.64	211.57
874.95	211.52
875.26	211.45
875.56	211.49
875.87	211.41
876.18	211.45
876.49	211.61
876.80	211.64
877.11	211.58
877.42	211.64
877.73	211.65
878.04	211.69
878.35	211.68
878.66	211.73
878.96	211.72
879.27	211.72
879.58	211.70
879.89	211.68
880.20	211.70
880.51	211.70
880.82	211.69
881.12	211.62
881.43	211.62
881.74	211.60
882.05	211.63
882.36	211.66
882.67	211.62
882.97	211.41
883.28	211.30
883.59	211.29
883.90	211.24
884.21	211.25
884.51	211.18
884.82	211.10
885.13	211.09
885.44	211.12
885.74	211.19
886.05	211.15
886.36	211.20
886.67	211.17
886.98	211.32
887.28	211.37
887.59	211.39
887.90	211.40
888.20	211.37
888.51	211.35
888.82	211.28
889.13	211.29
889.43	211.43
889.74	211.47
890.05	211.49
890.35	211.43
890.66	211.40
890.97	211.41
891.28	211.50
891.58	211.50
891.89	211.49
892.20	211.37
892.50	211.39
892.81	211.36
893.12	211.41
893.42	211.26
893.73	211.19
894.04	211.19
894.34	211.20
894.65	211.20
894.95	211.18
895.26	211.21
895.57	211.21
895.87	211.04
896.18	211.05
896.48	211.09
896.79	211.18
897.10	211.19
897.40	211.28
897.71	211.26
898.01	211.22
898.32	211.25
898.63	211.33
898.93	211.34
899.24	211.31
899.54	211.25
899.85	211.25
900.15	211.34
900.46	211.39
900.76	211.43
901.07	211.41
901.38	211.41
901.68	211.43
901.99	211.36
902.29	211.47
902.60	211.41
902.90	211.36
903.21	211.30
903.51	211.25
903.82	211.20
904.12	211.15
904.43	211.23
904.73	211.17
905.03	211.15
905.34	211.31
905.64	211.36
905.95	211.35
906.25	211.41
906.56	211.37
906.86	211.27
907.17	211.25
907.47	211.27
907.77	211.31
908.08	211.31
908.38	211.27
908.69	211.20
908.99	211.26
909.30	211.32
909.60	211.34
909.90	211.38
910.21	211.36
910.51	211.42
910.81	211.40
911.12	211.37
911.42	211.31
911.73	211.10
912.03	211.15
912.33	211.15
912.64	211.10
912.94	211.17
913.24	211.16
913.55	211.20
913.85	211.21
914.15	211.22
914.46	211.21
914.76	211.25
915.06	211.28
915.37	211.24
915.67	211.15
915.97	211.09
916.27	211.08
916.58	211.05
916.88	210.98
917.18	210.94
917.49	211.10
917.79	211.19
918.09	211.29
918.39	211.30
918.70	211.29
919.00	211.25
919.30	211.28
919.60	211.29
919.91	211.19
920.21	211.19
920.51	211.16
920.81	211.18
921.12	211.23
921.42	211.18
921.72	211.26
922.02	211.39
922.32	211.43
922.63	211.40
922.93	211.53
923.23	211.61
923.53	211.57
923.83	211.50
924.13	211.47
924.44	211.44
924.74	211.44
925.04	211.52
925.34	211.51
925.64	211.43
925.94	211.44
926.24	211.58
926.55	211.56
926.85	211.57
927.15	211.55
927.45	211.54
927.75	211.50
928.05	211.44
928.35	211.37
928.65	211.40
928.95	211.42
929.26	211.28
929.56	211.28
929.86	211.29
930.16	211.26
930.46	211.21
930.76	211.27
931.06	211.21
931.36	211.13
931.66	211.25
931.96	211.24
932.26	211.20
932.56	211.09
932.86	211.04
933.16	211.07
933.46	211.04
933.76	210.94
934.06	211.03
934.36	211.07
934.66	210.99
934.96	210.95
935.26	210.96
935.56	211.01
935.86	210.97
936.16	211.03
936.46	211.02
936.76	211.06
937.06	210.98
937.36	210.99
937.66	210.97
937.96	210.94
938.26	211.00
938.56	211.07
938.86	211.09
939.16	211.16
939.46	211.21
939.76	211.26
940.06	211.29
940.35	211.23
940.65	211.15
940.95	211.24
941.25	211.25
941.55	211.25
941.85	211.25
942.15	211.25
942.45	211.24
942.75	211.24
943.04	211.22
943.34	211.25
943.64	211.25
943.94	211.27
944.24	211.25
944.54	211.23
944.84	211.23
945.13	211.20
945.43	211.19
945.73	211.15
946.03	211.21
946.33	211.17
946.62	211.19
946.92	211.22
947.22	211.22
947.52	211.20
947.82	211.23
948.11	211.28
948.41	211.28
948.71	211.26
949.01	211.27
949.31	211.32
949.60	211.29
949.90	211.30
950.20	211.29
950.50	211.32
950.79	211.29
951.09	211.24
951.39	211.28
951.69	211.26
951.98	211.20
952.28	211.15
952.58	211.25
952.87	211.29
953.17	211.30
953.47	211.28
953.76	211.33
954.06	211.29
954.36	211.21
954.66	211.20
954.95	211.25
955.25	211.20
955.55	211.13
955.84	211.06
956.14	211.08
956.44	211.10
956.73	211.03
957.03	211.08
957.32	211.10
957.62	211.09
957.92	211.12
958.21	211.16
958.51	211.32
958.81	211.35
959.10	211.27
959.40	211.36
959.69	211.39
959.99	211.42
960.29	211.39
960.58	211.42
960.88	211.48
961.17	211.46
961.47	211.50
961.76	211.60
962.06	211.69
962.36	211.67
962.65	211.67
962.95	211.71
963.24	211.67
963.54	211.69
963.83	211.72
964.13	211.72
964.42	211.63
964.72	211.55
965.01	211.52
965.31	211.56
965.60	211.44
965.90	211.52
966.19	211.42
966.49	211.48
966.78	211.38
967.08	211.41
967.37	211.43
967.67	211.38
967.96	211.32
968.26	211.25
968.55	211.23
968.85	211.22
969.14	211.19
969.43	211.15
969.73	211.10
970.02	211.02
970.32	210.97
970.61	210.98
970.91	210.88
971.20	210.89
971.49	210.87
971.79	210.92
972.08	210.79
972.38	210.81
972.67	210.77
972.96	210.79
973.26	210.70
973.55	210.68
973.85	210.71
974.14	210.67
974.43	210.71
974.73	210.69
975.02	210.75
975.31	210.75
975.61	210.75
975.90	210.79
976.19	210.81
976.49	210.88
976.78	210.92
977.07	210.91
977.37	210.93
977.66	210.89
977.95	210.82
978.24	210.82
978.54	210.91
978.83	210.92
979.12	210.95
979.42	210.91
979.71	210.88
980.00	210.90
980.29	210.96
980.59	210.90
980.88	210.95
981.17	210.90
981.46	210.88
981.76	210.89
982.05	210.86
982.34	210.89
982.63	210.89
982.93	210.87
983.22	210.91
983.51	210.86
983.80	210.89
984.09	211.00
984.39	211.06
984.68	210.95
984.97	210.99
985.26	211.02
985.55	211.10
985.85	211.16
986.14	211.19
986.43	211.19
986.72	211.24
987.01	211.20
987.30	211.17
987.59	211.18
987.89	211.26
988.18	211.29
988.47	211.25
988.76	211.23
989.05	211.25
989.34	211.20
989.63	211.23
989.92	211.27
990.22	211.14
990.51	211.05
990.80	211.09
991.09	211.03
991.38	211.01
991.67	210.95
991.96	210.87
992.25	210.80
992.54	210.79
992.83	210.73
993.12	210.70
993.41	210.71
993.70	210.72
993.99	210.61
994.28	210.57
994.58	210.55
994.87	210.53
995.16	210.50
995.45	210.50
995.74	210.46
996.03	210.43
996.32	210.53
996.61	210.69
996.90	210.63
997.19	210.63
997.48	210.62
997.77	210.64
998.06	210.63
998.34	210.67
998.63	210.65
998.92	210.64
999.21	210.71
999.50	210.75
999.79	210.73
1000.08	210.75
1000.37	210.76
1000.66	210.82
1000.95	210.89
1001.24	210.84
1001.53	210.90
1001.82	210.84
1002.11	210.81
1002.40	210.84
1002.68	210.74
1002.97	210.87
1003.26	210.83
1003.55	210.85
1003.84	210.78
1004.13	210.85
1004.42	210.81
1004.71	210.81
1004.99	210.79
1005.28	210.81
1005.57	210.77
1005.86	210.72
1006.15	210.72
1006.44	210.67
1006.72	210.65
1007.01	210.60
1007.30	210.62
1007.59	210.54
1007.88	210.53
1008.17	210.55
1008.45	210.44
1008.74	210.42
1009.03	210.34
1009.32	210.33
1009.60	210.30
1009.89	210.31
1010.18	210.24
1010.47	210.22
1010.76	210.23
1011.04	210.20
1011.33	210.22
1011.62	210.26
1011.91	210.28
1012.19	210.29
1012.48	210.32
1012.77	210.30
1013.05	210.35
1013.34	210.33
1013.63	210.46
1013.92	210.53
1014.20	210.52
1014.49	210.59
1014.78	210.63
1015.06	210.66
1015.35	210.64
1015.64	210.70
1015.92	210.73
1016.21	210.69
1016.50	210.73
1016.78	210.78
1017.07	210.89
1017.36	210.80
1017.64	210.72
1017.93	210.80
1018.22	210.70
1018.50	210.70
1018.79	210.71
1019.08	210.70
1019.36	210.81
1019.65	210.74
1019.93	210.79
1020.22	210.75
1020.51	210.85
1020.79	210.82
1021.08	208.60
1021.36	210.30
1021.65	210.50
1021.94	211.60
1022.22	212.00
1022.51	211.20
1022.79	211.85
1023.08	209.75
1023.36	213.55
1023.65	210.75
>>>>>End Processed Spectral Data<<<<<
