SpectraSuite Data File
++++++++++++++++++++++++++++++++++++
Date: Mon Feb 25 17:31:39 EST 2013
User: group
Dark Spectrum Present: No
Reference Spectrum Present: No
Number of Sampled Component Spectra: 1
Spectrometers: USB2E7196
Integration Time (usec): 52000 (USB2E7196)
Spectra Averaged: 20 (USB2E7196)
Boxcar Smoothing: 10 (USB2E7196)
Correct for Electrical Dark: No (USB2E7196)
Strobe/Lamp Enabled: No (USB2E7196)
Correct for Detector Non-linearity: No (USB2E7196)
Correct for Stray Light: No (USB2E7196)
Number of Pixels in Processed Spectrum: 2048
>>>>>Begin Processed Spectral Data<<<<<
339.09	0.00
339.48	198.50
339.86	199.20
340.24	202.35
340.63	202.80
341.01	207.00
341.39	206.40
341.78	207.50
342.16	207.90
342.54	207.75
342.93	197.91
343.31	207.96
343.69	208.50
344.07	208.99
344.46	209.39
344.84	209.79
345.22	209.95
345.60	210.18
345.99	210.38
346.37	210.53
346.75	210.70
347.13	210.70
347.52	210.73
347.90	210.82
348.28	210.83
348.66	210.90
349.05	210.87
349.43	210.98
349.81	211.16
350.19	211.20
350.57	211.27
350.96	211.37
351.34	211.46
351.72	211.55
352.10	211.69
352.48	211.78
352.87	211.83
353.25	211.94
353.63	212.00
354.01	212.04
354.39	212.19
354.77	212.23
355.15	212.36
355.54	212.36
355.92	212.37
356.30	212.47
356.68	212.68
357.06	212.82
357.44	212.84
357.82	212.81
358.20	212.95
358.58	213.07
358.97	213.15
359.35	213.24
359.73	213.40
360.11	213.40
360.49	213.46
360.87	213.52
361.25	213.66
361.63	213.81
362.01	213.88
362.39	213.90
362.77	213.95
363.15	214.01
363.53	214.08
363.91	214.14
364.29	214.12
364.67	213.99
365.05	214.02
365.43	214.12
365.81	214.12
366.19	214.24
366.57	214.28
366.95	214.27
367.33	214.19
367.71	214.11
368.09	214.20
368.47	214.16
368.85	214.22
369.23	214.21
369.61	214.10
369.99	214.11
370.37	214.07
370.75	214.16
371.13	214.10
371.51	214.11
371.89	214.12
372.27	214.19
372.65	214.15
373.03	214.08
373.41	213.97
373.78	213.91
374.16	213.83
374.54	213.73
374.92	213.74
375.30	213.72
375.68	213.65
376.06	213.58
376.44	213.53
376.82	213.40
377.19	213.19
377.57	213.10
377.95	213.05
378.33	212.95
378.71	212.79
379.09	212.82
379.47	212.76
379.84	212.60
380.22	212.48
380.60	212.42
380.98	212.35
381.36	212.35
381.73	212.32
382.11	212.25
382.49	212.20
382.87	212.07
383.25	212.00
383.62	212.15
384.00	212.02
384.38	212.00
384.76	212.01
385.13	212.05
385.51	212.05
385.89	211.97
386.27	211.91
386.64	211.93
387.02	211.87
387.40	211.84
387.78	211.87
388.15	211.78
388.53	211.71
388.91	211.69
389.29	211.62
389.66	211.60
390.04	211.51
390.42	211.51
390.79	211.48
391.17	211.51
391.55	211.35
391.92	211.46
392.30	211.47
392.68	211.42
393.05	211.45
393.43	211.43
393.81	211.45
394.18	211.45
394.56	211.43
394.94	211.40
395.31	211.39
395.69	211.47
396.06	211.48
396.44	211.52
396.82	211.56
397.19	211.61
397.57	211.63
397.95	211.72
398.32	211.65
398.70	211.63
399.07	211.74
399.45	211.73
399.82	211.67
400.20	211.66
400.58	211.72
400.95	211.75
401.33	211.82
401.70	212.01
402.08	212.16
402.45	212.18
402.83	212.27
403.20	212.30
403.58	212.27
403.95	212.47
404.33	212.60
404.71	212.70
405.08	212.94
405.46	213.06
405.83	213.19
406.21	213.40
406.58	213.58
406.96	213.65
407.33	213.80
407.70	214.03
408.08	214.34
408.45	214.50
408.83	214.73
409.20	214.95
409.58	215.05
409.95	215.29
410.33	215.65
410.70	215.92
411.08	216.27
411.45	216.68
411.82	217.02
412.20	217.47
412.57	217.99
412.95	218.26
413.32	218.77
413.69	219.27
414.07	219.74
414.44	220.36
414.82	221.09
415.19	221.88
415.56	222.63
415.94	223.34
416.31	224.26
416.68	225.12
417.06	226.13
417.43	227.07
417.81	228.15
418.18	229.14
418.55	230.39
418.93	231.71
419.30	233.00
419.67	234.34
420.04	235.66
420.42	237.15
420.79	238.91
421.16	240.61
421.54	242.45
421.91	244.30
422.28	246.12
422.66	248.05
423.03	250.06
423.40	251.99
423.77	254.21
424.15	256.44
424.52	258.72
424.89	261.23
425.26	263.72
425.64	265.99
426.01	268.60
426.38	271.15
426.75	273.82
427.13	276.60
427.50	279.55
427.87	282.63
428.24	285.60
428.61	288.52
428.99	291.72
429.36	295.05
429.73	298.59
430.10	302.07
430.47	305.58
430.85	309.14
431.22	313.04
431.59	317.16
431.96	321.04
432.33	325.38
432.70	329.57
433.08	334.37
433.45	339.04
433.82	343.63
434.19	348.70
434.56	353.67
434.93	358.36
435.30	362.99
435.68	368.20
436.05	373.26
436.42	378.32
436.79	382.93
437.16	387.99
437.53	393.15
437.90	398.38
438.27	403.49
438.64	408.70
439.01	413.75
439.38	417.95
439.75	422.14
440.13	426.82
440.50	431.21
440.87	434.92
441.24	438.67
441.61	442.84
441.98	445.93
442.35	449.50
442.72	453.14
443.09	456.70
443.46	458.84
443.83	460.31
444.20	461.44
444.57	463.21
444.94	463.93
445.31	464.74
445.68	465.52
446.05	465.70
446.42	465.10
446.79	464.22
447.16	463.45
447.53	462.93
447.90	460.94
448.27	458.95
448.64	456.05
449.01	453.95
449.37	450.35
449.74	446.83
450.11	442.76
450.48	438.37
450.85	433.76
451.22	429.82
451.59	426.09
451.96	422.59
452.33	417.94
452.70	413.73
453.07	408.70
453.43	403.50
453.80	398.65
454.17	394.02
454.54	389.47
454.91	384.73
455.28	379.94
455.65	375.65
456.02	371.39
456.38	367.78
456.75	363.25
457.12	359.40
457.49	355.66
457.86	351.87
458.23	348.66
458.59	345.14
458.96	341.65
459.33	338.55
459.70	335.38
460.07	332.92
460.43	330.05
460.80	327.44
461.17	325.14
461.54	322.64
461.91	320.33
462.27	318.14
462.64	316.16
463.01	314.05
463.38	311.94
463.74	309.74
464.11	307.81
464.48	306.24
464.85	304.53
465.21	303.26
465.58	301.91
465.95	300.20
466.32	298.87
466.68	297.38
467.05	295.91
467.42	294.62
467.78	293.13
468.15	291.79
468.52	290.69
468.88	289.26
469.25	288.13
469.62	287.28
469.98	286.26
470.35	285.33
470.72	284.45
471.08	283.49
471.45	282.71
471.82	281.94
472.18	281.05
472.55	280.60
472.92	279.86
473.28	279.25
473.65	278.66
474.02	278.10
474.38	277.76
474.75	277.46
475.11	277.10
475.48	276.84
475.85	276.67
476.21	276.56
476.58	276.56
476.94	276.57
477.31	276.41
477.67	276.37
478.04	276.42
478.41	276.49
478.77	276.79
479.14	277.04
479.50	277.35
479.87	277.71
480.23	278.00
480.60	278.38
480.96	278.87
481.33	279.57
481.69	280.31
482.06	280.94
482.42	281.64
482.79	282.32
483.15	283.17
483.52	284.14
483.88	285.04
484.25	286.01
484.61	287.05
484.98	288.22
485.34	289.55
485.71	290.91
486.07	292.30
486.44	293.58
486.80	295.05
487.17	296.67
487.53	298.43
487.90	300.19
488.26	302.11
488.62	304.08
488.99	306.13
489.35	308.22
489.72	310.51
490.08	312.89
490.44	315.47
490.81	318.10
491.17	320.78
491.54	323.64
491.90	326.64
492.26	329.89
492.63	333.12
492.99	336.46
493.36	340.03
493.72	343.86
494.08	347.88
494.45	352.17
494.81	356.56
495.17	361.08
495.54	366.01
495.90	371.01
496.26	376.15
496.63	381.44
496.99	387.16
497.35	393.19
497.72	399.35
498.08	405.75
498.44	412.48
498.80	419.61
499.17	426.95
499.53	434.53
499.89	442.32
500.26	450.44
500.62	458.74
500.98	467.52
501.34	476.70
501.71	486.16
502.07	495.73
502.43	505.72
502.79	515.98
503.16	526.54
503.52	537.45
503.88	548.76
504.24	560.48
504.60	572.29
504.97	584.46
505.33	597.04
505.69	610.32
506.05	623.62
506.41	637.14
506.78	651.01
507.14	665.29
507.50	679.90
507.86	694.85
508.22	710.29
508.59	725.86
508.95	741.76
509.31	757.80
509.67	774.45
510.03	791.22
510.39	808.60
510.75	826.27
511.12	844.20
511.48	862.38
511.84	880.90
512.20	899.51
512.56	918.60
512.92	937.92
513.28	957.30
513.64	976.84
514.00	996.54
514.37	1016.77
514.73	1037.18
515.09	1058.00
515.45	1078.52
515.81	1099.56
516.17	1120.60
516.53	1141.80
516.89	1163.29
517.25	1184.71
517.61	1206.41
517.97	1227.90
518.33	1249.25
518.69	1270.88
519.05	1292.84
519.41	1314.67
519.77	1337.08
520.13	1358.90
520.49	1380.88
520.85	1403.41
521.21	1425.82
521.57	1448.88
521.93	1470.75
522.29	1493.57
522.65	1515.75
523.01	1538.20
523.37	1560.00
523.73	1582.23
524.09	1604.30
524.45	1626.27
524.81	1648.50
525.17	1670.75
525.53	1692.89
525.89	1715.11
526.25	1736.91
526.61	1757.98
526.97	1779.60
527.33	1800.55
527.68	1821.99
528.04	1843.02
528.40	1863.16
528.76	1883.87
529.12	1903.91
529.48	1925.11
529.84	1945.19
530.20	1965.49
530.56	1985.88
530.91	2006.55
531.27	2026.56
531.63	2045.99
531.99	2065.85
532.35	2084.90
532.71	2103.47
533.07	2122.79
533.42	2141.10
533.78	2159.97
534.14	2178.34
534.50	2194.97
534.86	2213.08
535.21	2229.57
535.57	2247.03
535.93	2263.90
536.29	2280.51
536.65	2297.05
537.00	2312.35
537.36	2327.54
537.72	2342.34
538.08	2357.21
538.44	2372.14
538.79	2387.42
539.15	2402.26
539.51	2416.51
539.87	2431.26
540.22	2445.41
540.58	2460.14
540.94	2474.45
541.29	2486.92
541.65	2498.98
542.01	2512.50
542.37	2523.92
542.72	2536.42
543.08	2547.21
543.44	2558.87
543.79	2568.78
544.15	2578.88
544.51	2589.55
544.87	2600.59
545.22	2609.78
545.58	2618.19
545.94	2625.19
546.29	2631.24
546.65	2637.03
547.01	2642.80
547.36	2648.30
547.72	2653.65
548.07	2656.88
548.43	2660.35
548.79	2664.16
549.14	2668.54
549.50	2672.62
549.86	2676.50
550.21	2680.14
550.57	2684.23
550.92	2686.83
551.28	2689.55
551.64	2691.99
551.99	2694.49
552.35	2695.72
552.70	2698.29
553.06	2700.76
553.41	2703.65
553.77	2706.49
554.13	2709.07
554.48	2711.44
554.84	2712.96
555.19	2713.63
555.55	2714.33
555.90	2715.08
556.26	2715.30
556.61	2715.46
556.97	2714.06
557.32	2713.41
557.68	2711.57
558.03	2709.99
558.39	2708.33
558.74	2707.68
559.10	2705.99
559.45	2703.89
559.81	2702.48
560.16	2699.73
560.52	2696.99
560.87	2694.14
561.23	2690.43
561.58	2687.88
561.94	2684.29
562.29	2680.28
562.64	2677.93
563.00	2675.35
563.35	2672.80
563.71	2671.05
564.06	2668.34
564.42	2666.42
564.77	2663.93
565.12	2661.77
565.48	2658.36
565.83	2655.34
566.19	2652.06
566.54	2648.00
566.89	2644.38
567.25	2640.40
567.60	2636.80
567.96	2633.38
568.31	2629.46
568.66	2625.72
569.02	2621.18
569.37	2616.05
569.72	2612.21
570.08	2606.91
570.43	2601.02
570.78	2595.17
571.14	2588.88
571.49	2582.35
571.84	2576.31
572.20	2569.60
572.55	2563.11
572.90	2556.59
573.26	2549.64
573.61	2542.54
573.96	2536.22
574.31	2527.93
574.67	2519.94
575.02	2511.82
575.37	2503.15
575.72	2494.40
576.08	2486.76
576.43	2478.07
576.78	2470.30
577.13	2462.31
577.49	2454.34
577.84	2447.07
578.19	2439.43
578.54	2431.90
578.90	2424.97
579.25	2416.19
579.60	2407.30
579.95	2398.20
580.30	2390.17
580.66	2382.05
581.01	2373.20
581.36	2363.76
581.71	2355.76
582.06	2347.39
582.42	2339.50
582.77	2330.69
583.12	2321.94
583.47	2313.31
583.82	2305.36
584.17	2296.74
584.53	2287.81
584.88	2278.98
585.23	2269.73
585.58	2260.53
585.93	2251.15
586.28	2241.94
586.63	2233.40
586.98	2225.10
587.34	2216.99
587.69	2207.71
588.04	2198.58
588.39	2190.19
588.74	2181.29
589.09	2172.74
589.44	2163.08
589.79	2154.12
590.14	2146.42
590.49	2138.34
590.84	2129.30
591.19	2121.20
591.54	2112.45
591.89	2102.56
592.25	2093.74
592.60	2084.49
592.95	2075.20
593.30	2065.88
593.65	2056.30
594.00	2046.75
594.35	2038.67
594.70	2029.49
595.05	2020.92
595.40	2012.45
595.75	2003.19
596.10	1995.32
596.45	1987.00
596.80	1979.52
597.15	1971.72
597.50	1962.56
597.85	1954.19
598.19	1945.70
598.54	1937.07
598.89	1929.09
599.24	1922.30
599.59	1914.67
599.94	1907.51
600.29	1900.01
600.64	1892.18
600.99	1884.22
601.34	1877.46
601.69	1868.79
602.04	1860.64
602.39	1852.67
602.74	1844.96
603.08	1838.19
603.43	1831.03
603.78	1823.00
604.13	1814.80
604.48	1806.63
604.83	1799.65
605.18	1792.54
605.53	1785.10
605.87	1777.51
606.22	1770.48
606.57	1762.74
606.92	1754.76
607.27	1746.90
607.62	1739.45
607.96	1732.75
608.31	1726.63
608.66	1718.54
609.01	1711.10
609.36	1703.41
609.70	1695.59
610.05	1688.08
610.40	1679.98
610.75	1671.68
611.10	1664.07
611.44	1655.32
611.79	1646.43
612.14	1637.35
612.49	1627.76
612.83	1619.32
613.18	1609.76
613.53	1600.41
613.88	1590.87
614.22	1581.76
614.57	1572.66
614.92	1563.70
615.27	1554.33
615.61	1544.47
615.96	1535.70
616.31	1527.10
616.65	1519.57
617.00	1511.55
617.35	1502.91
617.70	1494.22
618.04	1485.24
618.39	1476.06
618.74	1468.07
619.08	1459.80
619.43	1451.90
619.78	1444.14
620.12	1435.92
620.47	1428.40
620.82	1419.98
621.16	1411.73
621.51	1403.99
621.85	1395.84
622.20	1387.23
622.55	1379.15
622.89	1371.00
623.24	1363.01
623.59	1354.43
623.93	1345.68
624.28	1337.30
624.62	1329.05
624.97	1320.72
625.32	1313.09
625.66	1305.82
626.01	1298.49
626.35	1291.28
626.70	1283.45
627.04	1276.11
627.39	1268.76
627.73	1261.05
628.08	1254.49
628.43	1247.38
628.77	1240.15
629.12	1232.73
629.46	1226.06
629.81	1218.78
630.15	1211.46
630.50	1204.20
630.84	1197.11
631.19	1190.19
631.53	1183.49
631.88	1175.95
632.22	1168.58
632.57	1161.54
632.91	1154.06
633.26	1146.40
633.60	1139.03
633.95	1132.52
634.29	1125.25
634.64	1118.59
634.98	1111.61
635.32	1104.37
635.67	1097.94
636.01	1091.16
636.36	1084.65
636.70	1078.04
637.05	1071.69
637.39	1065.60
637.73	1059.28
638.08	1053.66
638.42	1047.87
638.77	1041.36
639.11	1035.55
639.45	1029.73
639.80	1023.11
640.14	1016.74
640.49	1010.73
640.83	1004.93
641.17	998.35
641.52	992.28
641.86	985.69
642.20	979.69
642.55	972.98
642.89	966.55
643.23	960.05
643.58	954.30
643.92	948.05
644.26	941.69
644.61	935.69
644.95	929.73
645.29	923.36
645.64	916.73
645.98	910.58
646.32	904.47
646.66	898.34
647.01	892.49
647.35	886.95
647.69	880.77
648.04	874.70
648.38	868.72
648.72	862.93
649.06	857.02
649.41	851.08
649.75	845.50
650.09	839.77
650.43	834.01
650.78	827.75
651.12	821.71
651.46	816.11
651.80	810.07
652.14	804.22
652.49	798.19
652.83	792.67
653.17	786.80
653.51	781.00
653.85	775.45
654.20	769.89
654.54	764.10
654.88	758.71
655.22	752.88
655.56	747.17
655.90	741.33
656.25	735.53
656.59	730.18
656.93	725.11
657.27	719.82
657.61	714.49
657.95	709.24
658.29	704.13
658.64	698.85
658.98	693.77
659.32	688.37
659.66	683.37
660.00	677.84
660.34	672.65
660.68	667.37
661.02	662.13
661.36	657.54
661.70	652.69
662.05	647.93
662.39	643.59
662.73	639.44
663.07	635.29
663.41	631.07
663.75	626.62
664.09	621.93
664.43	617.32
664.77	613.02
665.11	608.77
665.45	604.50
665.79	600.20
666.13	595.87
666.47	591.86
666.81	587.66
667.15	583.88
667.49	580.16
667.83	576.51
668.17	572.82
668.51	568.94
668.85	565.27
669.19	561.76
669.53	557.73
669.87	553.63
670.21	549.79
670.55	546.03
670.89	542.46
671.23	539.14
671.57	535.78
671.91	532.29
672.25	528.82
672.58	525.41
672.92	522.02
673.26	518.86
673.60	515.68
673.94	512.57
674.28	509.27
674.62	506.01
674.96	502.86
675.30	499.84
675.64	496.58
675.97	493.39
676.31	490.31
676.65	487.56
676.99	485.00
677.33	482.09
677.67	479.20
678.01	476.19
678.34	473.14
678.68	470.15
679.02	467.35
679.36	464.61
679.70	461.81
680.04	458.85
680.37	456.00
680.71	453.20
681.05	450.66
681.39	448.12
681.73	445.53
682.06	442.95
682.40	440.34
682.74	437.81
683.08	435.42
683.42	432.77
683.75	430.30
684.09	427.61
684.43	425.13
684.77	422.63
685.10	420.10
685.44	417.63
685.78	415.26
686.12	412.90
686.45	410.54
686.79	408.39
687.13	406.42
687.46	404.28
687.80	401.99
688.14	399.58
688.48	397.39
688.81	395.02
689.15	392.86
689.49	390.66
689.82	388.40
690.16	385.84
690.50	383.61
690.83	381.35
691.17	379.14
691.51	376.99
691.84	374.86
692.18	372.81
692.52	370.95
692.85	369.09
693.19	367.19
693.52	365.26
693.86	363.17
694.20	361.22
694.53	359.40
694.87	357.58
695.21	355.74
695.54	353.72
695.88	351.96
696.21	350.14
696.55	348.53
696.88	346.89
697.22	345.37
697.56	343.91
697.89	342.28
698.23	340.76
698.56	339.21
698.90	337.78
699.23	336.29
699.57	334.61
699.90	333.01
700.24	331.43
700.58	329.83
700.91	328.41
701.25	327.05
701.58	325.60
701.92	324.11
702.25	322.78
702.59	321.51
702.92	320.20
703.26	318.89
703.59	317.64
703.93	316.50
704.26	315.25
704.60	313.84
704.93	312.58
705.26	311.30
705.60	310.13
705.93	308.84
706.27	307.66
706.60	306.62
706.94	305.50
707.27	304.31
707.61	303.22
707.94	302.10
708.27	300.83
708.61	299.58
708.94	298.54
709.28	297.41
709.61	296.27
709.94	295.21
710.28	294.18
710.61	292.96
710.95	291.83
711.28	290.87
711.61	289.92
711.95	289.01
712.28	288.05
712.61	287.02
712.95	286.13
713.28	285.28
713.61	284.26
713.95	283.32
714.28	282.46
714.61	281.57
714.95	280.63
715.28	279.67
715.61	278.84
715.95	277.93
716.28	277.01
716.61	276.25
716.95	275.38
717.28	274.50
717.61	273.71
717.94	272.89
718.28	272.10
718.61	271.35
718.94	270.55
719.27	269.82
719.61	269.11
719.94	268.37
720.27	267.57
720.60	266.84
720.94	266.12
721.27	265.40
721.60	264.75
721.93	264.14
722.27	263.58
722.60	262.98
722.93	262.40
723.26	261.83
723.59	261.12
723.93	260.64
724.26	260.08
724.59	259.55
724.92	259.01
725.25	258.41
725.59	257.75
725.92	257.25
726.25	256.72
726.58	256.15
726.91	255.64
727.24	255.13
727.57	254.64
727.91	254.09
728.24	253.64
728.57	253.16
728.90	252.77
729.23	252.23
729.56	251.91
729.89	251.41
730.22	250.89
730.55	250.51
730.89	250.06
731.22	249.62
731.55	249.16
731.88	248.72
732.21	248.20
732.54	247.78
732.87	247.24
733.20	246.84
733.53	246.46
733.86	246.10
734.19	245.77
734.52	245.41
734.85	245.20
735.18	244.76
735.51	244.29
735.84	243.83
736.17	243.59
736.50	243.09
736.83	242.98
737.16	242.72
737.49	242.38
737.82	241.94
738.15	241.58
738.48	241.17
738.81	240.74
739.14	240.48
739.47	240.18
739.80	239.92
740.13	239.50
740.46	239.13
740.79	238.75
741.12	238.39
741.45	238.09
741.78	237.65
742.11	237.43
742.44	237.17
742.77	236.90
743.10	236.55
743.43	236.21
743.75	235.68
744.08	235.57
744.41	235.28
744.74	234.98
745.07	234.69
745.40	234.48
745.73	234.27
746.06	233.96
746.39	233.63
746.71	233.37
747.04	233.16
747.37	232.90
747.70	232.65
748.03	232.34
748.36	232.07
748.68	231.81
749.01	231.43
749.34	231.16
749.67	230.94
750.00	230.73
750.33	230.58
750.65	230.35
750.98	229.90
751.31	229.66
751.64	229.40
751.97	229.31
752.29	229.05
752.62	228.82
752.95	228.54
753.28	228.37
753.60	228.05
753.93	227.78
754.26	227.63
754.59	227.27
754.91	227.08
755.24	226.85
755.57	226.67
755.90	226.60
756.22	226.40
756.55	226.20
756.88	225.97
757.20	225.67
757.53	225.45
757.86	225.30
758.19	225.10
758.51	224.94
758.84	224.62
759.17	224.51
759.49	224.34
759.82	224.35
760.15	224.20
760.47	224.07
760.80	223.89
761.13	223.70
761.45	223.60
761.78	223.45
762.11	223.24
762.43	223.06
762.76	222.87
763.08	222.68
763.41	222.47
763.74	222.33
764.06	222.21
764.39	222.03
764.71	221.93
765.04	221.77
765.37	221.74
765.69	221.57
766.02	221.38
766.34	221.29
766.67	221.11
767.00	221.02
767.32	221.04
767.65	221.09
767.97	220.93
768.30	220.89
768.62	220.75
768.95	220.67
769.27	220.64
769.60	220.51
769.92	220.47
770.25	220.40
770.57	220.38
770.90	220.25
771.22	220.26
771.55	220.07
771.87	220.01
772.20	219.82
772.52	219.95
772.85	220.09
773.17	219.97
773.50	219.83
773.82	219.78
774.15	219.55
774.47	219.34
774.80	219.26
775.12	219.19
775.45	219.09
775.77	219.04
776.09	218.92
776.42	218.86
776.74	218.84
777.07	218.78
777.39	218.62
777.72	218.50
778.04	218.37
778.36	218.30
778.69	218.16
779.01	218.12
779.33	217.83
779.66	217.54
779.98	217.48
780.31	217.43
780.63	217.36
780.95	217.41
781.28	217.29
781.60	217.28
781.92	217.17
782.25	217.14
782.57	217.13
782.89	217.02
783.22	216.97
783.54	216.80
783.86	216.72
784.19	216.65
784.51	216.73
784.83	216.69
785.16	216.63
785.48	216.62
785.80	216.60
786.12	216.62
786.45	216.53
786.77	216.51
787.09	216.39
787.42	216.26
787.74	216.17
788.06	216.22
788.38	216.19
788.71	216.15
789.03	216.15
789.35	216.06
789.67	216.03
789.99	215.95
790.32	215.94
790.64	215.93
790.96	216.00
791.28	215.85
791.61	215.82
791.93	215.84
792.25	215.83
792.57	215.91
792.89	215.79
793.21	215.81
793.54	215.70
793.86	215.70
794.18	215.69
794.50	215.58
794.82	215.50
795.14	215.42
795.47	215.42
795.79	215.27
796.11	215.20
796.43	215.18
796.75	215.15
797.07	215.13
797.39	215.07
797.71	214.97
798.04	215.03
798.36	214.95
798.68	214.88
799.00	214.83
799.32	214.65
799.64	214.60
799.96	214.62
800.28	214.70
800.60	214.65
800.92	214.63
801.24	214.58
801.56	214.54
801.89	214.48
802.21	214.44
802.53	214.47
802.85	214.45
803.17	214.50
803.49	214.44
803.81	214.39
804.13	214.35
804.45	214.22
804.77	214.13
805.09	214.04
805.41	213.95
805.73	213.89
806.05	213.85
806.37	213.86
806.69	213.74
807.01	213.68
807.33	213.61
807.65	213.50
807.97	213.62
808.28	213.64
808.60	213.57
808.92	213.53
809.24	213.64
809.56	213.56
809.88	213.51
810.20	213.50
810.52	213.47
810.84	213.45
811.16	213.49
811.48	213.44
811.80	213.47
812.12	213.45
812.43	213.44
812.75	213.42
813.07	213.40
813.39	213.34
813.71	213.22
814.03	213.20
814.35	213.20
814.67	213.10
814.98	213.06
815.30	213.04
815.62	212.96
815.94	212.74
816.26	212.73
816.58	212.60
816.89	212.60
817.21	212.57
817.53	212.43
817.85	212.41
818.17	212.38
818.48	212.36
818.80	212.40
819.12	212.35
819.44	212.36
819.76	212.32
820.07	212.38
820.39	212.41
820.71	212.35
821.03	212.31
821.34	212.30
821.66	212.26
821.98	212.28
822.30	212.24
822.61	212.33
822.93	212.32
823.25	212.30
823.57	212.28
823.88	212.34
824.20	212.41
824.52	212.47
824.83	212.47
825.15	212.45
825.47	212.42
825.79	212.43
826.10	212.32
826.42	212.29
826.74	212.26
827.05	212.23
827.37	212.25
827.69	212.22
828.00	212.15
828.32	212.15
828.64	212.14
828.95	212.27
829.27	212.30
829.58	212.33
829.90	212.32
830.22	212.33
830.53	212.29
830.85	212.26
831.17	212.18
831.48	212.19
831.80	212.13
832.11	212.13
832.43	212.18
832.75	212.21
833.06	212.31
833.38	212.24
833.69	212.26
834.01	212.38
834.32	212.41
834.64	212.45
834.96	212.46
835.27	212.51
835.59	212.43
835.90	212.38
836.22	212.39
836.53	212.47
836.85	212.42
837.16	212.56
837.48	212.55
837.79	212.58
838.11	212.55
838.42	212.54
838.74	212.54
839.05	212.45
839.37	212.49
839.68	212.36
840.00	212.34
840.31	212.40
840.63	212.45
840.94	212.42
841.26	212.36
841.57	212.35
841.88	212.29
842.20	212.25
842.51	212.25
842.83	212.20
843.14	212.24
843.46	212.21
843.77	212.13
844.08	212.11
844.40	212.05
844.71	212.01
845.03	212.05
845.34	212.00
845.65	212.02
845.97	211.99
846.28	212.07
846.60	212.17
846.91	212.07
847.22	211.92
847.54	211.96
847.85	211.99
848.16	211.97
848.48	211.93
848.79	212.05
849.10	211.99
849.42	211.91
849.73	211.82
850.04	211.82
850.36	211.76
850.67	211.82
850.98	211.83
851.30	211.83
851.61	211.89
851.92	211.92
852.23	211.90
852.55	211.86
852.86	211.81
853.17	211.75
853.49	211.81
853.80	211.87
854.11	211.86
854.42	211.92
854.74	211.92
855.05	211.95
855.36	211.80
855.67	211.89
855.99	212.00
856.30	212.10
856.61	212.10
856.92	212.08
857.23	212.05
857.55	212.02
857.86	212.05
858.17	212.03
858.48	211.96
858.79	211.96
859.11	211.99
859.42	211.99
859.73	211.96
860.04	211.97
860.35	211.90
860.66	211.83
860.98	211.77
861.29	211.80
861.60	211.82
861.91	211.92
862.22	211.83
862.53	211.72
862.84	211.61
863.16	211.67
863.47	211.66
863.78	211.63
864.09	211.67
864.40	211.69
864.71	211.67
865.02	211.71
865.33	211.72
865.64	211.73
865.95	211.71
866.27	211.83
866.58	211.80
866.89	211.87
867.20	211.88
867.51	211.84
867.82	211.78
868.13	211.77
868.44	211.68
868.75	211.70
869.06	211.82
869.37	211.76
869.68	211.65
869.99	211.66
870.30	211.70
870.61	211.62
870.92	211.51
871.23	211.51
871.54	211.55
871.85	211.56
872.16	211.55
872.47	211.55
872.78	211.43
873.09	211.46
873.40	211.39
873.71	211.41
874.02	211.47
874.33	211.44
874.64	211.45
874.95	211.57
875.26	211.49
875.56	211.42
875.87	211.47
876.18	211.45
876.49	211.60
876.80	211.55
877.11	211.55
877.42	211.61
877.73	211.57
878.04	211.52
878.35	211.55
878.66	211.56
878.96	211.55
879.27	211.63
879.58	211.56
879.89	211.60
880.20	211.63
880.51	211.55
880.82	211.56
881.12	211.56
881.43	211.50
881.74	211.53
882.05	211.50
882.36	211.49
882.67	211.61
882.97	211.47
883.28	211.48
883.59	211.57
883.90	211.59
884.21	211.57
884.51	211.61
884.82	211.50
885.13	211.43
885.44	211.45
885.74	211.38
886.05	211.32
886.36	211.28
886.67	211.19
886.98	211.30
887.28	211.34
887.59	211.35
887.90	211.34
888.20	211.34
888.51	211.40
888.82	211.39
889.13	211.36
889.43	211.48
889.74	211.51
890.05	211.45
890.35	211.43
890.66	211.46
890.97	211.30
891.28	211.37
891.58	211.42
891.89	211.37
892.20	211.34
892.50	211.35
892.81	211.34
893.12	211.34
893.42	211.22
893.73	211.14
894.04	211.02
894.34	211.06
894.65	211.07
894.95	211.06
895.26	211.11
895.57	211.23
895.87	211.11
896.18	211.10
896.48	211.11
896.79	211.13
897.10	211.17
897.40	211.31
897.71	211.34
898.01	211.31
898.32	211.36
898.63	211.38
898.93	211.50
899.24	211.48
899.54	211.58
899.85	211.54
900.15	211.58
900.46	211.64
900.76	211.63
901.07	211.60
901.38	211.50
901.68	211.41
901.99	211.26
902.29	211.16
902.60	211.20
902.90	211.22
903.21	211.19
903.51	211.10
903.82	211.12
904.12	211.10
904.43	211.08
904.73	211.06
905.03	211.02
905.34	211.14
905.64	211.16
905.95	211.11
906.25	211.17
906.56	211.18
906.86	211.18
907.17	211.13
907.47	211.17
907.77	211.22
908.08	211.20
908.38	211.24
908.69	211.34
908.99	211.33
909.30	211.28
909.60	211.26
909.90	211.30
910.21	211.25
910.51	211.24
910.81	211.27
911.12	211.26
911.42	211.31
911.73	211.15
912.03	211.26
912.33	211.31
912.64	211.32
912.94	211.31
913.24	211.30
913.55	211.30
913.85	211.35
914.15	211.40
914.46	211.42
914.76	211.37
915.06	211.34
915.37	211.25
915.67	211.28
915.97	211.34
916.27	211.35
916.58	211.32
916.88	211.29
917.18	211.28
917.49	211.44
917.79	211.42
918.09	211.34
918.39	211.27
918.70	211.18
919.00	211.14
919.30	211.21
919.60	211.12
919.91	211.13
920.21	211.03
920.51	211.00
920.81	210.98
921.12	211.06
921.42	211.03
921.72	211.05
922.02	211.06
922.32	211.08
922.63	211.08
922.93	211.17
923.23	211.17
923.53	211.19
923.83	211.01
924.13	211.03
924.44	211.05
924.74	211.08
925.04	211.09
925.34	211.09
925.64	211.03
925.94	211.09
926.24	211.16
926.55	211.11
926.85	211.09
927.15	211.07
927.45	211.04
927.75	211.01
928.05	211.06
928.35	211.06
928.65	210.98
928.95	211.00
929.26	210.92
929.56	210.98
929.86	210.94
930.16	210.91
930.46	210.95
930.76	210.95
931.06	210.88
931.36	210.87
931.66	210.96
931.96	210.96
932.26	210.92
932.56	210.87
932.86	210.99
933.16	211.04
933.46	211.02
933.76	210.96
934.06	210.97
934.36	211.00
934.66	210.86
934.96	210.88
935.26	210.84
935.56	210.80
935.86	210.78
936.16	210.84
936.46	210.84
936.76	210.82
937.06	210.82
937.36	210.81
937.66	210.80
937.96	210.77
938.26	210.73
938.56	210.76
938.86	210.71
939.16	210.59
939.46	210.60
939.76	210.65
940.06	210.60
940.35	210.62
940.65	210.47
940.95	210.57
941.25	210.54
941.55	210.50
941.85	210.57
942.15	210.55
942.45	210.49
942.75	210.49
943.04	210.52
943.34	210.52
943.64	210.52
943.94	210.42
944.24	210.38
944.54	210.35
944.84	210.35
945.13	210.37
945.43	210.44
945.73	210.37
946.03	210.37
946.33	210.36
946.62	210.28
946.92	210.38
947.22	210.34
947.52	210.34
947.82	210.37
948.11	210.36
948.41	210.33
948.71	210.36
949.01	210.31
949.31	210.25
949.60	210.23
949.90	210.25
950.20	210.34
950.50	210.34
950.79	210.33
951.09	210.38
951.39	210.39
951.69	210.31
951.98	210.46
952.28	210.51
952.58	210.51
952.87	210.62
953.17	210.59
953.47	210.59
953.76	210.65
954.06	210.65
954.36	210.62
954.66	210.63
954.95	210.65
955.25	210.75
955.55	210.74
955.84	210.78
956.14	210.83
956.44	210.91
956.73	210.91
957.03	210.96
957.32	210.97
957.62	210.93
957.92	211.01
958.21	210.97
958.51	211.18
958.81	211.29
959.10	211.27
959.40	211.31
959.69	211.39
959.99	211.38
960.29	211.38
960.58	211.36
960.88	211.43
961.17	211.42
961.47	211.44
961.76	211.43
962.06	211.43
962.36	211.33
962.65	211.32
962.95	211.38
963.24	211.37
963.54	211.35
963.83	211.37
964.13	211.36
964.42	211.26
964.72	211.07
965.01	211.05
965.31	211.03
965.60	210.96
965.90	211.02
966.19	211.02
966.49	211.04
966.78	211.07
967.08	211.10
967.37	211.09
967.67	211.07
967.96	211.12
968.26	211.07
968.55	211.18
968.85	211.17
969.14	211.13
969.43	211.12
969.73	211.08
970.02	211.11
970.32	211.07
970.61	211.11
970.91	211.02
971.20	211.04
971.49	211.06
971.79	211.16
972.08	211.07
972.38	211.06
972.67	211.14
972.96	211.11
973.26	211.01
973.55	211.09
973.85	211.07
974.14	211.09
974.43	211.15
974.73	211.12
975.02	211.09
975.31	211.07
975.61	211.06
975.90	211.04
976.19	210.99
976.49	211.02
976.78	211.02
977.07	211.09
977.37	210.98
977.66	210.96
977.95	210.93
978.24	210.94
978.54	211.00
978.83	210.88
979.12	210.96
979.42	211.00
979.71	210.99
980.00	210.97
980.29	210.95
980.59	210.95
980.88	210.95
981.17	211.00
981.46	210.99
981.76	211.01
982.05	211.10
982.34	211.24
982.63	211.28
982.93	211.31
983.22	211.31
983.51	211.36
983.80	211.43
984.09	211.44
984.39	211.37
984.68	211.37
984.97	211.45
985.26	211.38
985.55	211.33
985.85	211.34
986.14	211.40
986.43	211.45
986.72	211.44
987.01	211.38
987.30	211.32
987.59	211.29
987.89	211.26
988.18	211.27
988.47	211.16
988.76	211.15
989.05	211.19
989.34	211.21
989.63	211.27
989.92	211.23
990.22	211.20
990.51	211.24
990.80	211.22
991.09	211.21
991.38	211.20
991.67	211.21
991.96	211.14
992.25	211.11
992.54	211.03
992.83	210.99
993.12	211.01
993.41	211.06
993.70	211.20
993.99	211.30
994.28	211.34
994.58	211.33
994.87	211.26
995.16	211.21
995.45	211.20
995.74	211.09
996.03	211.12
996.32	211.18
996.61	211.19
996.90	211.15
997.19	211.10
997.48	211.15
997.77	211.15
998.06	211.22
998.34	211.28
998.63	211.31
998.92	211.29
999.21	211.29
999.50	211.29
999.79	211.28
1000.08	211.22
1000.37	211.17
1000.66	211.20
1000.95	211.23
1001.24	211.25
1001.53	211.25
1001.82	211.33
1002.11	211.21
1002.40	211.26
1002.68	211.29
1002.97	211.43
1003.26	211.37
1003.55	211.23
1003.84	211.30
1004.13	211.31
1004.42	211.28
1004.71	211.26
1004.99	211.31
1005.28	211.39
1005.57	211.33
1005.86	211.24
1006.15	211.17
1006.44	211.10
1006.72	211.06
1007.01	211.05
1007.30	211.00
1007.59	210.93
1007.88	210.89
1008.17	210.93
1008.45	210.84
1008.74	210.84
1009.03	210.76
1009.32	210.78
1009.60	210.88
1009.89	210.77
1010.18	210.67
1010.47	210.60
1010.76	210.58
1011.04	210.56
1011.33	210.56
1011.62	210.57
1011.91	210.61
1012.19	210.74
1012.48	210.84
1012.77	210.85
1013.05	210.92
1013.34	210.91
1013.63	210.93
1013.92	210.99
1014.20	211.04
1014.49	211.04
1014.78	211.01
1015.06	210.99
1015.35	211.03
1015.64	211.08
1015.92	211.22
1016.21	211.23
1016.50	211.29
1016.78	211.30
1017.07	211.30
1017.36	211.27
1017.64	211.29
1017.93	211.27
1018.22	211.23
1018.50	211.20
1018.79	211.24
1019.08	211.19
1019.36	211.26
1019.65	211.33
1019.93	211.30
1020.22	211.29
1020.51	211.36
1020.79	211.37
1021.08	211.20
1021.36	211.35
1021.65	211.45
1021.94	211.15
1022.22	212.15
1022.51	211.80
1022.79	211.00
1023.08	210.95
1023.36	212.45
1023.65	211.35
>>>>>End Processed Spectral Data<<<<<
