SpectraSuite Data File
++++++++++++++++++++++++++++++++++++
Date: Mon Feb 25 17:34:54 EST 2013
User: group
Dark Spectrum Present: No
Reference Spectrum Present: No
Number of Sampled Component Spectra: 1
Spectrometers: USB2E7196
Integration Time (usec): 52000 (USB2E7196)
Spectra Averaged: 20 (USB2E7196)
Boxcar Smoothing: 10 (USB2E7196)
Correct for Electrical Dark: No (USB2E7196)
Strobe/Lamp Enabled: No (USB2E7196)
Correct for Detector Non-linearity: No (USB2E7196)
Correct for Stray Light: No (USB2E7196)
Number of Pixels in Processed Spectrum: 2048
>>>>>Begin Processed Spectral Data<<<<<
339.09	0.00
339.48	197.45
339.86	201.25
340.24	202.05
340.63	203.20
341.01	208.00
341.39	205.25
341.78	206.65
342.16	209.05
342.54	208.80
342.93	197.81
343.31	207.81
343.69	208.35
344.07	208.78
344.46	209.19
344.84	209.54
345.22	209.66
345.60	209.99
345.99	210.24
346.37	210.33
346.75	210.40
347.13	210.51
347.52	210.63
347.90	210.75
348.28	210.74
348.66	210.84
349.05	210.86
349.43	210.88
349.81	210.94
350.19	211.04
350.57	211.18
350.96	211.35
351.34	211.42
351.72	211.55
352.10	211.66
352.48	211.73
352.87	211.87
353.25	211.95
353.63	212.00
354.01	211.95
354.39	212.08
354.77	212.23
355.15	212.34
355.54	212.38
355.92	212.40
356.30	212.45
356.68	212.60
357.06	212.68
357.44	212.79
357.82	212.89
358.20	213.02
358.58	213.00
358.97	213.06
359.35	213.21
359.73	213.34
360.11	213.42
360.49	213.55
360.87	213.51
361.25	213.65
361.63	213.74
362.01	213.94
362.39	213.99
362.77	214.03
363.15	214.06
363.53	214.11
363.91	214.18
364.29	214.25
364.67	214.11
365.05	214.10
365.43	214.13
365.81	214.17
366.19	214.25
366.57	214.43
366.95	214.44
367.33	214.37
367.71	214.30
368.09	214.34
368.47	214.32
368.85	214.34
369.23	214.30
369.61	214.25
369.99	214.23
370.37	214.19
370.75	214.23
371.13	214.23
371.51	214.15
371.89	214.12
372.27	214.06
372.65	214.09
373.03	214.11
373.41	214.03
373.78	213.92
374.16	213.74
374.54	213.60
374.92	213.55
375.30	213.52
375.68	213.50
376.06	213.39
376.44	213.25
376.82	213.21
377.19	213.18
377.57	213.12
377.95	213.00
378.33	212.95
378.71	212.79
379.09	212.73
379.47	212.69
379.84	212.70
380.22	212.64
380.60	212.58
380.98	212.49
381.36	212.44
381.73	212.40
382.11	212.34
382.49	212.34
382.87	212.29
383.25	212.24
383.62	212.37
384.00	212.28
384.38	212.30
384.76	212.30
385.13	212.25
385.51	212.15
385.89	212.07
386.27	212.02
386.64	212.02
387.02	211.96
387.40	211.93
387.78	211.92
388.15	211.83
388.53	211.73
388.91	211.71
389.29	211.67
389.66	211.62
390.04	211.62
390.42	211.52
390.79	211.55
391.17	211.55
391.55	211.39
391.92	211.41
392.30	211.38
392.68	211.36
393.05	211.33
393.43	211.41
393.81	211.52
394.18	211.37
394.56	211.38
394.94	211.37
395.31	211.31
395.69	211.33
396.06	211.43
396.44	211.47
396.82	211.47
397.19	211.63
397.57	211.64
397.95	211.69
398.32	211.62
398.70	211.61
399.07	211.70
399.45	211.62
399.82	211.63
400.20	211.70
400.58	211.65
400.95	211.66
401.33	211.77
401.70	211.90
402.08	212.08
402.45	212.08
402.83	212.21
403.20	212.34
403.58	212.37
403.95	212.50
404.33	212.60
404.71	212.72
405.08	212.88
405.46	213.00
405.83	213.12
406.21	213.30
406.58	213.48
406.96	213.63
407.33	213.95
407.70	214.12
408.08	214.47
408.45	214.76
408.83	215.02
409.20	215.14
409.58	215.25
409.95	215.62
410.33	215.96
410.70	216.19
411.08	216.55
411.45	216.91
411.82	217.23
412.20	217.66
412.57	218.18
412.95	218.51
413.32	219.03
413.69	219.58
414.07	220.18
414.44	220.81
414.82	221.38
415.19	222.16
415.56	222.94
415.94	223.62
416.31	224.55
416.68	225.47
417.06	226.47
417.43	227.52
417.81	228.54
418.18	229.65
418.55	230.83
418.93	232.08
419.30	233.41
419.67	234.85
420.04	236.31
420.42	237.83
420.79	239.57
421.16	241.36
421.54	243.21
421.91	245.06
422.28	246.91
422.66	249.00
423.03	250.96
423.40	253.00
423.77	255.21
424.15	257.44
424.52	259.79
424.89	262.34
425.26	264.79
425.64	267.18
426.01	269.88
426.38	272.68
426.75	275.53
427.13	278.37
427.50	281.37
427.87	284.41
428.24	287.41
428.61	290.39
428.99	293.60
429.36	297.12
429.73	300.70
430.10	304.19
430.47	307.75
430.85	311.43
431.22	315.36
431.59	319.59
431.96	323.55
432.33	327.86
432.70	332.16
433.08	337.09
433.45	341.79
433.82	346.41
434.19	351.54
434.56	356.57
434.93	361.39
435.30	366.11
435.68	371.44
436.05	376.74
436.42	382.03
436.79	386.84
437.16	391.88
437.53	397.17
437.90	402.53
438.27	407.78
438.64	413.19
439.01	418.18
439.38	422.51
439.75	426.76
440.13	431.70
440.50	436.24
440.87	440.02
441.24	443.87
441.61	448.09
441.98	451.09
442.35	454.61
442.72	458.30
443.09	461.90
443.46	464.00
443.83	465.34
444.20	466.41
444.57	468.18
444.94	468.98
445.31	469.80
445.68	470.46
446.05	470.72
446.42	470.18
446.79	469.38
447.16	468.54
447.53	467.87
447.90	465.74
448.27	463.59
448.64	460.73
449.01	458.50
449.37	454.75
449.74	451.29
450.11	447.24
450.48	442.72
450.85	438.01
451.22	434.02
451.59	430.32
451.96	426.72
452.33	421.83
452.70	417.51
453.07	412.36
453.43	407.17
453.80	402.06
454.17	397.14
454.54	392.74
454.91	387.87
455.28	383.11
455.65	378.62
456.02	374.25
456.38	370.40
456.75	365.86
457.12	362.04
457.49	358.23
457.86	354.31
458.23	351.05
458.59	347.56
458.96	344.08
459.33	340.91
459.70	337.69
460.07	335.26
460.43	332.28
460.80	329.58
461.17	327.27
461.54	324.78
461.91	322.41
462.27	319.97
462.64	317.90
463.01	315.76
463.38	313.70
463.74	311.50
464.11	309.55
464.48	307.80
464.85	306.00
465.21	304.63
465.58	303.24
465.95	301.47
466.32	300.05
466.68	298.66
467.05	297.23
467.42	295.88
467.78	294.36
468.15	292.96
468.52	291.87
468.88	290.44
469.25	289.30
469.62	288.40
469.98	287.31
470.35	286.44
470.72	285.46
471.08	284.45
471.45	283.62
471.82	282.93
472.18	282.08
472.55	281.47
472.92	280.68
473.28	280.07
473.65	279.43
474.02	278.84
474.38	278.36
474.75	277.99
475.11	277.56
475.48	277.24
475.85	277.14
476.21	276.96
476.58	276.85
476.94	276.82
477.31	276.70
477.67	276.74
478.04	276.77
478.41	276.96
478.77	277.23
479.14	277.28
479.50	277.47
479.87	277.94
480.23	278.27
480.60	278.64
480.96	279.08
481.33	279.76
481.69	280.42
482.06	280.99
482.42	281.63
482.79	282.46
483.15	283.43
483.52	284.36
483.88	285.32
484.25	286.34
484.61	287.44
484.98	288.48
485.34	289.72
485.71	291.08
486.07	292.50
486.44	293.85
486.80	295.51
487.17	297.13
487.53	298.76
487.90	300.70
488.26	302.69
488.62	304.73
488.99	306.85
489.35	308.97
489.72	311.23
490.08	313.58
490.44	316.03
490.81	318.64
491.17	321.34
491.54	324.14
491.90	327.13
492.26	330.22
492.63	333.71
492.99	337.15
493.36	340.72
493.72	344.53
494.08	348.60
494.45	352.82
494.81	357.35
495.17	361.96
495.54	366.77
495.90	371.86
496.26	377.07
496.63	382.44
496.99	388.28
497.35	394.33
497.72	400.71
498.08	407.20
498.44	413.91
498.80	421.13
499.17	428.63
499.53	436.25
499.89	444.11
500.26	452.20
500.62	460.60
500.98	469.57
501.34	478.74
501.71	488.16
502.07	497.92
502.43	507.89
502.79	518.15
503.16	528.78
503.52	539.73
503.88	550.97
504.24	562.68
504.60	574.38
504.97	586.76
505.33	599.28
505.69	612.53
506.05	625.98
506.41	639.50
506.78	653.28
507.14	667.48
507.50	682.24
507.86	697.24
508.22	712.73
508.59	728.23
508.95	744.44
509.31	760.89
509.67	777.48
510.03	794.53
510.39	812.33
510.75	830.15
511.12	848.23
511.48	866.76
511.84	885.40
512.20	904.15
512.56	923.36
512.92	942.71
513.28	962.53
513.64	982.44
514.00	1002.54
514.37	1023.17
514.73	1043.90
515.09	1064.87
515.45	1085.83
515.81	1107.01
516.17	1128.35
516.53	1149.71
516.89	1171.17
517.25	1192.93
517.61	1214.71
517.97	1235.99
518.33	1257.54
518.69	1279.56
519.05	1301.66
519.41	1323.99
519.77	1346.92
520.13	1369.19
520.49	1391.71
520.85	1414.40
521.21	1437.10
521.57	1460.13
521.93	1482.28
522.29	1505.31
522.65	1528.03
523.01	1550.89
523.37	1573.47
523.73	1595.86
524.09	1618.31
524.45	1640.84
524.81	1663.48
525.17	1685.97
525.53	1708.80
525.89	1731.46
526.25	1753.39
526.61	1774.73
526.97	1796.33
527.33	1817.70
527.68	1839.54
528.04	1860.60
528.40	1880.98
528.76	1901.76
529.12	1922.91
529.48	1944.62
529.84	1965.41
530.20	1985.78
530.56	2006.17
530.91	2026.91
531.27	2047.63
531.63	2067.94
531.99	2087.86
532.35	2107.13
532.71	2126.50
533.07	2146.08
533.42	2164.90
533.78	2184.48
534.14	2203.41
534.50	2220.86
534.86	2238.88
535.21	2255.69
535.57	2274.13
535.93	2291.75
536.29	2308.76
536.65	2325.10
537.00	2340.72
537.36	2356.21
537.72	2371.97
538.08	2387.70
538.44	2403.17
538.79	2418.69
539.15	2433.28
539.51	2448.02
539.87	2463.52
540.22	2477.96
540.58	2493.33
540.94	2507.99
541.29	2520.93
541.65	2533.40
542.01	2547.21
542.37	2559.65
542.72	2572.21
543.08	2583.27
543.44	2595.39
543.79	2605.71
544.15	2616.47
544.51	2627.77
544.87	2639.01
545.22	2647.98
545.58	2656.74
545.94	2663.88
546.29	2670.62
546.65	2677.45
547.01	2683.63
547.36	2689.36
547.72	2695.17
548.07	2698.97
548.43	2702.86
548.79	2706.85
549.14	2711.69
549.50	2716.03
549.86	2720.57
550.21	2724.45
550.57	2728.34
550.92	2730.95
551.28	2734.34
551.64	2736.91
551.99	2739.28
552.35	2740.56
552.70	2743.79
553.06	2746.38
553.41	2749.86
553.77	2752.78
554.13	2754.79
554.48	2757.44
554.84	2759.23
555.19	2759.71
555.55	2760.18
555.90	2761.05
556.26	2761.53
556.61	2761.40
556.97	2760.38
557.32	2759.66
557.68	2758.55
558.03	2757.23
558.39	2755.78
558.74	2755.51
559.10	2754.59
559.45	2753.11
559.81	2752.32
560.16	2749.57
560.52	2747.32
560.87	2744.36
561.23	2740.65
561.58	2738.63
561.94	2735.38
562.29	2731.66
562.64	2729.88
563.00	2727.60
563.35	2725.23
563.71	2723.40
564.06	2721.71
564.42	2719.82
564.77	2717.53
565.12	2715.99
565.48	2713.04
565.83	2710.04
566.19	2706.36
566.54	2702.03
566.89	2697.92
567.25	2694.20
567.60	2690.92
567.96	2687.34
568.31	2683.62
568.66	2679.89
569.02	2675.08
569.37	2669.93
569.72	2666.33
570.08	2660.84
570.43	2655.24
570.78	2649.72
571.14	2643.63
571.49	2636.73
571.84	2630.62
572.20	2623.63
572.55	2616.66
572.90	2609.85
573.26	2602.93
573.61	2595.55
573.96	2588.82
574.31	2580.85
574.67	2572.60
575.02	2564.28
575.37	2555.38
575.72	2546.36
576.08	2538.94
576.43	2530.16
576.78	2522.48
577.13	2514.13
577.49	2505.71
577.84	2498.01
578.19	2490.24
578.54	2482.86
578.90	2475.82
579.25	2467.19
579.60	2457.90
579.95	2448.59
580.30	2440.74
580.66	2432.59
581.01	2423.64
581.36	2414.30
581.71	2406.24
582.06	2397.51
582.42	2389.36
582.77	2380.23
583.12	2371.41
583.47	2362.44
583.82	2354.18
584.17	2344.70
584.53	2335.59
584.88	2326.81
585.23	2317.39
585.58	2307.51
585.93	2297.41
586.28	2288.20
586.63	2279.34
586.98	2270.95
587.34	2262.19
587.69	2252.47
588.04	2243.08
588.39	2234.92
588.74	2225.99
589.09	2216.81
589.44	2207.47
589.79	2198.96
590.14	2191.22
590.49	2182.73
590.84	2173.71
591.19	2165.69
591.54	2157.00
591.89	2146.54
592.25	2137.46
592.60	2127.99
592.95	2118.49
593.30	2109.02
593.65	2098.91
594.00	2089.04
594.35	2080.65
594.70	2071.45
595.05	2062.88
595.40	2054.09
595.75	2044.50
596.10	2036.15
596.45	2027.59
596.80	2019.28
597.15	2010.32
597.50	2000.73
597.85	1992.26
598.19	1983.36
598.54	1974.44
598.89	1966.29
599.24	1959.80
599.59	1952.29
599.94	1945.50
600.29	1937.80
600.64	1929.61
600.99	1921.36
601.34	1914.11
601.69	1905.04
602.04	1897.00
602.39	1888.58
602.74	1880.60
603.08	1873.52
603.43	1865.93
603.78	1858.02
604.13	1849.97
604.48	1842.08
604.83	1835.33
605.18	1827.84
605.53	1820.01
605.87	1812.28
606.22	1805.20
606.57	1796.79
606.92	1788.42
607.27	1779.66
607.62	1772.14
607.96	1765.58
608.31	1759.26
608.66	1751.06
609.01	1743.80
609.36	1735.96
609.70	1728.17
610.05	1720.28
610.40	1712.15
610.75	1703.54
611.10	1695.60
611.44	1686.51
611.79	1677.42
612.14	1668.05
612.49	1658.51
612.83	1649.78
613.18	1640.21
613.53	1630.51
613.88	1621.03
614.22	1611.95
614.57	1602.69
614.92	1593.17
615.27	1583.53
615.61	1573.37
615.96	1564.54
616.31	1555.73
616.65	1547.55
617.00	1539.16
617.35	1530.21
617.70	1521.20
618.04	1512.45
618.39	1503.03
618.74	1494.62
619.08	1485.59
619.43	1477.09
619.78	1469.14
620.12	1461.04
620.47	1453.07
620.82	1444.46
621.16	1436.02
621.51	1427.48
621.85	1419.40
622.20	1410.94
622.55	1402.40
622.89	1394.23
623.24	1386.15
623.59	1377.28
623.93	1368.74
624.28	1360.30
624.62	1352.42
624.97	1343.95
625.32	1335.81
625.66	1328.40
626.01	1321.04
626.35	1313.81
626.70	1305.94
627.04	1298.47
627.39	1290.77
627.73	1283.13
628.08	1276.22
628.43	1268.70
628.77	1261.43
629.12	1253.70
629.46	1247.01
629.81	1239.65
630.15	1232.24
630.50	1224.55
630.84	1217.45
631.19	1210.10
631.53	1203.06
631.88	1195.32
632.22	1187.85
632.57	1180.85
632.91	1173.42
633.26	1165.76
633.60	1158.67
633.95	1151.86
634.29	1144.56
634.64	1137.59
634.98	1130.35
635.32	1123.27
635.67	1116.85
636.01	1110.17
636.36	1103.38
636.70	1096.61
637.05	1090.22
637.39	1083.86
637.73	1077.69
638.08	1071.69
638.42	1065.89
638.77	1059.49
639.11	1053.21
639.45	1047.14
639.80	1040.49
640.14	1033.86
640.49	1027.63
640.83	1021.23
641.17	1014.77
641.52	1008.63
641.86	1002.11
642.20	995.96
642.55	988.97
642.89	982.36
643.23	975.86
643.58	970.09
643.92	963.41
644.26	957.05
644.61	950.98
644.95	944.77
645.29	938.36
645.64	931.48
645.98	925.22
646.32	919.15
646.66	912.90
647.01	907.12
647.35	901.16
647.69	895.05
648.04	889.05
648.38	883.21
648.72	877.03
649.06	870.96
649.41	864.93
649.75	859.24
650.09	853.49
650.43	847.50
650.78	841.14
651.12	835.13
651.46	829.14
651.80	822.95
652.14	816.98
652.49	811.07
652.83	805.34
653.17	799.12
653.51	793.33
653.85	787.73
654.20	781.62
654.54	775.90
654.88	770.22
655.22	764.49
655.56	758.46
655.90	752.68
656.25	746.89
656.59	741.16
656.93	735.93
657.27	730.65
657.61	725.10
657.95	719.98
658.29	714.88
658.64	709.72
658.98	704.53
659.32	699.05
659.66	693.87
660.00	688.61
660.34	683.60
660.68	678.38
661.02	673.22
661.36	668.40
661.70	663.60
662.05	658.79
662.39	654.15
662.73	649.79
663.07	645.45
663.41	641.06
663.75	636.58
664.09	631.82
664.43	627.11
664.77	622.86
665.11	618.36
665.45	614.10
665.79	609.60
666.13	605.19
666.47	601.00
666.81	596.81
667.15	592.52
667.49	588.58
667.83	584.65
668.17	580.73
668.51	577.05
668.85	573.20
669.19	569.41
669.53	565.45
669.87	561.30
670.21	557.28
670.55	553.43
670.89	549.94
671.23	546.59
671.57	542.98
671.91	539.26
672.25	535.62
672.58	531.82
672.92	528.37
673.26	525.09
673.60	521.72
673.94	518.41
674.28	515.19
674.62	511.93
674.96	508.79
675.30	505.71
675.64	502.36
675.97	499.21
676.31	496.14
676.65	493.22
676.99	490.64
677.33	487.75
677.67	484.68
678.01	481.70
678.34	478.66
678.68	475.68
679.02	472.78
679.36	469.90
679.70	467.20
680.04	464.36
680.37	461.53
680.71	458.72
681.05	455.97
681.39	453.27
681.73	450.59
682.06	447.89
682.40	445.10
682.74	442.53
683.08	440.02
683.42	437.39
683.75	434.84
684.09	432.10
684.43	429.51
684.77	427.01
685.10	424.51
685.44	421.99
685.78	419.58
686.12	417.20
686.45	414.87
686.79	412.56
687.13	410.32
687.46	408.05
687.80	405.92
688.14	403.54
688.48	401.39
688.81	398.91
689.15	396.66
689.49	394.41
689.82	392.26
690.16	389.81
690.50	387.56
690.83	385.21
691.17	382.93
691.51	380.75
691.84	378.76
692.18	376.59
692.52	374.61
692.85	372.70
693.19	370.85
693.52	368.88
693.86	366.80
694.20	364.89
694.53	363.02
694.87	361.00
695.21	359.13
695.54	357.20
695.88	355.38
696.21	353.58
696.55	351.94
696.88	350.00
697.22	348.23
697.56	346.67
697.89	345.06
698.23	343.46
698.56	341.92
698.90	340.35
699.23	338.70
699.57	337.06
699.90	335.31
700.24	333.55
700.58	331.94
700.91	330.38
701.25	329.01
701.58	327.46
701.92	326.08
702.25	324.68
702.59	323.23
702.92	321.90
703.26	320.49
703.59	319.11
703.93	318.04
704.26	316.80
704.60	315.44
704.93	314.11
705.26	312.77
705.60	311.53
705.93	310.20
706.27	308.99
706.60	307.88
706.94	306.91
707.27	305.81
707.61	304.66
707.94	303.57
708.27	302.30
708.61	301.27
708.94	300.17
709.28	298.96
709.61	297.84
709.94	296.69
710.28	295.65
710.61	294.45
710.95	293.19
711.28	292.33
711.61	291.28
711.95	290.37
712.28	289.38
712.61	288.36
712.95	287.47
713.28	286.50
713.61	285.41
713.95	284.33
714.28	283.42
714.61	282.51
714.95	281.56
715.28	280.65
715.61	279.61
715.95	278.65
716.28	277.75
716.61	276.90
716.95	276.07
717.28	275.16
717.61	274.36
717.94	273.60
718.28	272.69
718.61	271.94
718.94	271.20
719.27	270.55
719.61	269.79
719.94	269.02
720.27	268.29
720.60	267.59
720.94	266.87
721.27	266.21
721.60	265.54
721.93	264.92
722.27	264.32
722.60	263.75
722.93	263.20
723.26	262.75
723.59	262.15
723.93	261.65
724.26	261.10
724.59	260.56
724.92	259.95
725.25	259.41
725.59	258.87
725.92	258.34
726.25	257.67
726.58	257.11
726.91	256.51
727.24	256.10
727.57	255.63
727.91	255.10
728.24	254.59
728.57	254.11
728.90	253.68
729.23	253.16
729.56	252.82
729.89	252.27
730.22	251.75
730.55	251.30
730.89	250.79
731.22	250.32
731.55	249.94
731.88	249.52
732.21	249.06
732.54	248.54
732.87	248.10
733.20	247.66
733.53	247.28
733.86	246.87
734.19	246.40
734.52	246.06
734.85	245.85
735.18	245.40
735.51	245.10
735.84	244.75
736.17	244.36
736.50	243.78
736.83	243.64
737.16	243.30
737.49	242.89
737.82	242.46
738.15	242.08
738.48	241.66
738.81	241.33
739.14	241.00
739.47	240.65
739.80	240.24
740.13	239.96
740.46	239.55
740.79	239.24
741.12	238.91
741.45	238.50
741.78	238.03
742.11	237.79
742.44	237.34
742.77	237.04
743.10	236.77
743.43	236.56
743.75	236.05
744.08	235.91
744.41	235.68
744.74	235.44
745.07	235.10
745.40	234.96
745.73	234.69
746.06	234.37
746.39	234.14
746.71	233.90
747.04	233.61
747.37	233.38
747.70	233.18
748.03	232.90
748.36	232.71
748.68	232.52
749.01	232.26
749.34	232.04
749.67	231.82
750.00	231.50
750.33	231.34
750.65	231.02
750.98	230.60
751.31	230.36
751.64	230.19
751.97	230.10
752.29	229.73
752.62	229.49
752.95	229.20
753.28	229.00
753.60	228.79
753.93	228.59
754.26	228.40
754.59	228.10
754.91	227.88
755.24	227.62
755.57	227.32
755.90	227.10
756.22	226.96
756.55	226.65
756.88	226.49
757.20	226.19
757.53	226.01
757.86	225.82
758.19	225.62
758.51	225.45
758.84	225.23
759.17	225.09
759.49	224.90
759.82	224.90
760.15	224.72
760.47	224.46
760.80	224.26
761.13	224.10
761.45	223.95
761.78	223.82
762.11	223.68
762.43	223.62
762.76	223.40
763.08	223.23
763.41	223.17
763.74	222.99
764.06	222.83
764.39	222.75
764.71	222.57
765.04	222.36
765.37	222.14
765.69	221.91
766.02	221.80
766.34	221.57
766.67	221.36
767.00	221.25
767.32	221.29
767.65	221.27
767.97	221.10
768.30	220.98
768.62	220.82
768.95	220.68
769.27	220.56
769.60	220.54
769.92	220.40
770.25	220.27
770.57	220.10
770.90	219.96
771.22	219.81
771.55	219.67
771.87	219.63
772.20	219.47
772.52	219.62
772.85	219.71
773.17	219.65
773.50	219.48
773.82	219.32
774.15	219.15
774.47	218.87
774.80	218.87
775.12	218.80
775.45	218.81
775.77	218.76
776.09	218.66
776.42	218.53
776.74	218.55
777.07	218.40
777.39	218.43
777.72	218.31
778.04	218.27
778.36	218.22
778.69	218.13
779.01	218.10
779.33	217.85
779.66	217.60
779.98	217.56
780.31	217.53
780.63	217.53
780.95	217.52
781.28	217.49
781.60	217.35
781.92	217.24
782.25	217.20
782.57	217.10
782.89	217.04
783.22	216.96
783.54	216.82
783.86	216.86
784.19	216.74
784.51	216.82
784.83	216.69
785.16	216.64
785.48	216.60
785.80	216.57
786.12	216.44
786.45	216.32
786.77	216.29
787.09	216.29
787.42	216.10
787.74	216.03
788.06	216.04
788.38	216.00
788.71	215.96
789.03	215.84
789.35	215.84
789.67	215.75
789.99	215.71
790.32	215.63
790.64	215.60
790.96	215.71
791.28	215.64
791.61	215.67
791.93	215.65
792.25	215.59
792.57	215.64
792.89	215.61
793.21	215.60
793.54	215.47
793.86	215.45
794.18	215.54
794.50	215.45
794.82	215.35
795.14	215.36
795.47	215.35
795.79	215.29
796.11	215.20
796.43	215.20
796.75	215.15
797.07	215.06
797.39	214.96
797.71	214.78
798.04	214.72
798.36	214.68
798.68	214.63
799.00	214.65
799.32	214.59
799.64	214.52
799.96	214.45
800.28	214.48
800.60	214.43
800.92	214.36
801.24	214.34
801.56	214.33
801.89	214.20
802.21	214.21
802.53	214.16
802.85	214.22
803.17	214.23
803.49	214.20
803.81	214.22
804.13	214.21
804.45	214.22
804.77	214.21
805.09	214.15
805.41	214.04
805.73	213.92
806.05	213.81
806.37	213.92
806.69	213.87
807.01	213.81
807.33	213.72
807.65	213.60
807.97	213.62
808.28	213.60
808.60	213.58
808.92	213.50
809.24	213.65
809.56	213.62
809.88	213.48
810.20	213.52
810.52	213.54
810.84	213.47
811.16	213.37
811.48	213.31
811.80	213.40
812.12	213.43
812.43	213.44
812.75	213.47
813.07	213.42
813.39	213.47
813.71	213.40
814.03	213.41
814.35	213.45
814.67	213.35
814.98	213.34
815.30	213.35
815.62	213.29
815.94	213.08
816.26	213.03
816.58	212.95
816.89	212.85
817.21	212.78
817.53	212.83
817.85	212.86
818.17	212.91
818.48	212.75
818.80	212.75
819.12	212.66
819.44	212.58
819.76	212.51
820.07	212.45
820.39	212.55
820.71	212.47
821.03	212.44
821.34	212.47
821.66	212.51
821.98	212.54
822.30	212.48
822.61	212.65
822.93	212.60
823.25	212.64
823.57	212.67
823.88	212.70
824.20	212.63
824.52	212.65
824.83	212.60
825.15	212.61
825.47	212.59
825.79	212.65
826.10	212.64
826.42	212.66
826.74	212.68
827.05	212.67
827.37	212.69
827.69	212.70
828.00	212.66
828.32	212.62
828.64	212.46
828.95	212.56
829.27	212.41
829.58	212.40
829.90	212.40
830.22	212.39
830.53	212.31
830.85	212.29
831.17	212.16
831.48	212.12
831.80	212.12
832.11	212.12
832.43	212.07
832.75	212.00
833.06	212.09
833.38	211.99
833.69	211.93
834.01	211.89
834.32	211.86
834.64	211.86
834.96	211.87
835.27	212.00
835.59	211.95
835.90	211.98
836.22	211.96
836.53	211.90
836.85	211.89
837.16	212.04
837.48	212.00
837.79	212.11
838.11	212.14
838.42	212.24
838.74	212.28
839.05	212.25
839.37	212.33
839.68	212.20
840.00	212.20
840.31	212.16
840.63	212.16
840.94	212.09
841.26	212.08
841.57	212.06
841.88	212.06
842.20	212.06
842.51	212.00
842.83	212.03
843.14	212.28
843.46	212.28
843.77	212.21
844.08	212.28
844.40	212.25
844.71	212.21
845.03	212.11
845.34	212.08
845.65	212.08
845.97	212.05
846.28	212.01
846.60	212.03
846.91	212.04
847.22	212.07
847.54	212.17
847.85	212.23
848.16	212.20
848.48	212.10
848.79	212.17
849.10	212.20
849.42	212.25
849.73	211.97
850.04	211.91
850.36	211.94
850.67	211.95
850.98	211.93
851.30	211.92
851.61	211.90
851.92	211.93
852.23	211.98
852.55	212.00
852.86	212.05
853.17	212.07
853.49	212.14
853.80	212.20
854.11	212.17
854.42	212.17
854.74	212.18
855.05	212.24
855.36	212.15
855.67	212.09
855.99	212.01
856.30	212.26
856.61	212.27
856.92	212.16
857.23	212.14
857.55	212.17
857.86	212.21
858.17	212.29
858.48	212.24
858.79	212.21
859.11	212.18
859.42	212.14
859.73	212.12
860.04	212.09
860.35	212.05
860.66	212.02
860.98	211.93
861.29	211.92
861.60	211.95
861.91	211.94
862.22	211.94
862.53	211.94
862.84	211.70
863.16	211.69
863.47	211.72
863.78	211.67
864.09	211.63
864.40	211.59
864.71	211.50
865.02	211.56
865.33	211.60
865.64	211.55
865.95	211.59
866.27	211.67
866.58	211.73
866.89	211.71
867.20	211.68
867.51	211.65
867.82	211.64
868.13	211.65
868.44	211.65
868.75	211.67
869.06	211.67
869.37	211.71
869.68	211.75
869.99	211.74
870.30	211.72
870.61	211.73
870.92	211.72
871.23	211.70
871.54	211.72
871.85	211.66
872.16	211.69
872.47	211.62
872.78	211.59
873.09	211.52
873.40	211.45
873.71	211.45
874.02	211.43
874.33	211.49
874.64	211.38
874.95	211.40
875.26	211.38
875.56	211.37
875.87	211.42
876.18	211.37
876.49	211.56
876.80	211.56
877.11	211.57
877.42	211.58
877.73	211.66
878.04	211.65
878.35	211.70
878.66	211.71
878.96	211.71
879.27	211.71
879.58	211.65
879.89	211.70
880.20	211.78
880.51	211.86
880.82	211.81
881.12	211.84
881.43	211.80
881.74	211.86
882.05	211.90
882.36	211.89
882.67	211.92
882.97	211.71
883.28	211.67
883.59	211.64
883.90	211.74
884.21	211.72
884.51	211.67
884.82	211.57
885.13	211.56
885.44	211.62
885.74	211.56
886.05	211.61
886.36	211.61
886.67	211.54
886.98	211.59
887.28	211.57
887.59	211.59
887.90	211.65
888.20	211.55
888.51	211.55
888.82	211.52
889.13	211.42
889.43	211.57
889.74	211.68
890.05	211.66
890.35	211.55
890.66	211.51
890.97	211.48
891.28	211.46
891.58	211.47
891.89	211.46
892.20	211.41
892.50	211.39
892.81	211.34
893.12	211.40
893.42	211.27
893.73	211.29
894.04	211.33
894.34	211.25
894.65	211.28
894.95	211.25
895.26	211.25
895.57	211.43
895.87	211.25
896.18	211.20
896.48	211.20
896.79	211.19
897.10	211.24
897.40	211.33
897.71	211.44
898.01	211.46
898.32	211.46
898.63	211.51
898.93	211.54
899.24	211.54
899.54	211.49
899.85	211.52
900.15	211.53
900.46	211.53
900.76	211.59
901.07	211.60
901.38	211.67
901.68	211.69
901.99	211.59
902.29	211.67
902.60	211.64
902.90	211.67
903.21	211.67
903.51	211.65
903.82	211.67
904.12	211.62
904.43	211.66
904.73	211.58
905.03	211.59
905.34	211.69
905.64	211.70
905.95	211.67
906.25	211.65
906.56	211.66
906.86	211.61
907.17	211.53
907.47	211.49
907.77	211.36
908.08	211.38
908.38	211.39
908.69	211.34
908.99	211.36
909.30	211.33
909.60	211.39
909.90	211.41
910.21	211.29
910.51	211.26
910.81	211.20
911.12	211.29
911.42	211.29
911.73	211.17
912.03	211.19
912.33	211.33
912.64	211.30
912.94	211.28
913.24	211.29
913.55	211.31
913.85	211.37
914.15	211.43
914.46	211.38
914.76	211.32
915.06	211.30
915.37	211.25
915.67	211.25
915.97	211.15
916.27	211.12
916.58	211.10
916.88	211.10
917.18	211.07
917.49	211.20
917.79	211.14
918.09	211.13
918.39	211.19
918.70	211.08
919.00	211.12
919.30	211.20
919.60	211.13
919.91	211.09
920.21	211.05
920.51	211.00
920.81	211.01
921.12	211.01
921.42	211.04
921.72	211.04
922.02	211.04
922.32	211.04
922.63	211.06
922.93	211.15
923.23	211.18
923.53	211.14
923.83	210.96
924.13	210.95
924.44	210.90
924.74	210.93
925.04	210.91
925.34	210.89
925.64	210.82
925.94	210.85
926.24	210.97
926.55	210.95
926.85	211.03
927.15	211.08
927.45	211.10
927.75	211.03
928.05	211.06
928.35	211.00
928.65	211.09
928.95	211.08
929.26	211.04
929.56	211.03
929.86	211.09
930.16	211.08
930.46	211.14
930.76	211.27
931.06	211.18
931.36	211.14
931.66	211.15
931.96	211.12
932.26	211.16
932.56	211.12
932.86	211.13
933.16	211.06
933.46	211.01
933.76	211.06
934.06	211.16
934.36	211.23
934.66	211.33
934.96	211.27
935.26	211.23
935.56	211.29
935.86	211.26
936.16	211.29
936.46	211.29
936.76	211.36
937.06	211.22
937.36	211.19
937.66	211.27
937.96	211.30
938.26	211.38
938.56	211.39
938.86	211.38
939.16	211.40
939.46	211.46
939.76	211.49
940.06	211.46
940.35	211.40
940.65	211.34
940.95	211.30
941.25	211.31
941.55	211.37
941.85	211.31
942.15	211.42
942.45	211.46
942.75	211.50
943.04	211.52
943.34	211.60
943.64	211.61
943.94	211.64
944.24	211.60
944.54	211.57
944.84	211.51
945.13	211.48
945.43	211.47
945.73	211.40
946.03	211.41
946.33	211.39
946.62	211.40
946.92	211.36
947.22	211.35
947.52	211.33
947.82	211.33
948.11	211.33
948.41	211.30
948.71	211.16
949.01	211.10
949.31	211.04
949.60	211.00
949.90	211.03
950.20	211.00
950.50	211.06
950.79	211.03
951.09	211.04
951.39	211.08
951.69	211.11
951.98	211.16
952.28	211.15
952.58	211.16
952.87	211.13
953.17	211.15
953.47	211.21
953.76	211.23
954.06	211.16
954.36	211.18
954.66	211.17
954.95	211.27
955.25	211.40
955.55	211.35
955.84	211.35
956.14	211.36
956.44	211.33
956.73	211.25
957.03	211.24
957.32	211.24
957.62	211.20
957.92	211.23
958.21	211.26
958.51	211.41
958.81	211.40
959.10	211.40
959.40	211.43
959.69	211.33
959.99	211.34
960.29	211.35
960.58	211.35
960.88	211.34
961.17	211.27
961.47	211.22
961.76	211.25
962.06	211.24
962.36	211.19
962.65	211.25
962.95	211.27
963.24	211.25
963.54	211.27
963.83	211.31
964.13	211.21
964.42	211.11
964.72	210.90
965.01	210.88
965.31	210.96
965.60	210.95
965.90	211.01
966.19	210.97
966.49	210.97
966.78	210.89
967.08	210.91
967.37	210.98
967.67	210.90
967.96	210.93
968.26	210.93
968.55	210.94
968.85	210.87
969.14	210.91
969.43	210.92
969.73	210.90
970.02	210.90
970.32	210.90
970.61	210.94
970.91	210.94
971.20	211.01
971.49	210.97
971.79	210.98
972.08	210.97
972.38	211.03
972.67	211.05
972.96	211.10
973.26	211.04
973.55	210.99
973.85	211.04
974.14	211.00
974.43	211.03
974.73	211.00
975.02	211.03
975.31	211.01
975.61	211.00
975.90	210.98
976.19	210.93
976.49	210.94
976.78	210.93
977.07	210.91
977.37	210.88
977.66	210.86
977.95	210.82
978.24	210.82
978.54	210.78
978.83	210.78
979.12	210.73
979.42	210.75
979.71	210.76
980.00	210.78
980.29	210.77
980.59	210.73
980.88	210.76
981.17	210.75
981.46	210.75
981.76	210.72
982.05	210.75
982.34	210.77
982.63	210.77
982.93	210.81
983.22	210.91
983.51	210.89
983.80	210.91
984.09	210.97
984.39	210.92
984.68	210.92
984.97	210.94
985.26	210.93
985.55	210.95
985.85	210.94
986.14	210.93
986.43	211.03
986.72	210.99
987.01	210.99
987.30	210.97
987.59	211.00
987.89	211.06
988.18	211.02
988.47	210.99
988.76	211.00
989.05	210.94
989.34	210.85
989.63	210.96
989.92	210.95
990.22	210.89
990.51	210.90
990.80	210.88
991.09	210.84
991.38	210.92
991.67	210.88
991.96	210.88
992.25	210.83
992.54	210.73
992.83	210.77
993.12	210.74
993.41	210.81
993.70	210.80
993.99	210.78
994.28	210.85
994.58	210.83
994.87	210.81
995.16	210.90
995.45	210.91
995.74	210.78
996.03	210.82
996.32	210.84
996.61	210.89
996.90	210.88
997.19	210.94
997.48	210.95
997.77	210.96
998.06	210.95
998.34	210.90
998.63	210.90
998.92	210.94
999.21	210.96
999.50	210.98
999.79	210.90
1000.08	210.94
1000.37	210.93
1000.66	210.95
1000.95	211.02
1001.24	211.00
1001.53	211.04
1001.82	211.08
1002.11	211.02
1002.40	211.08
1002.68	211.14
1002.97	211.27
1003.26	211.27
1003.55	211.21
1003.84	211.25
1004.13	211.30
1004.42	211.31
1004.71	211.34
1004.99	211.33
1005.28	211.41
1005.57	211.42
1005.86	211.43
1006.15	211.40
1006.44	211.36
1006.72	211.33
1007.01	211.25
1007.30	211.25
1007.59	211.22
1007.88	211.26
1008.17	211.29
1008.45	211.22
1008.74	211.15
1009.03	211.09
1009.32	211.03
1009.60	211.00
1009.89	210.92
1010.18	210.83
1010.47	210.92
1010.76	210.90
1011.04	210.85
1011.33	210.82
1011.62	210.76
1011.91	210.84
1012.19	210.82
1012.48	210.84
1012.77	210.92
1013.05	211.03
1013.34	211.02
1013.63	210.99
1013.92	210.94
1014.20	210.86
1014.49	210.91
1014.78	210.91
1015.06	210.85
1015.35	210.85
1015.64	210.92
1015.92	211.00
1016.21	211.05
1016.50	210.99
1016.78	211.02
1017.07	211.04
1017.36	211.02
1017.64	210.97
1017.93	210.96
1018.22	210.95
1018.50	210.91
1018.79	210.85
1019.08	210.77
1019.36	210.72
1019.65	210.71
1019.93	210.72
1020.22	210.78
1020.51	210.80
1020.79	210.76
1021.08	210.30
1021.36	209.60
1021.65	210.45
1021.94	210.95
1022.22	210.20
1022.51	210.00
1022.79	210.95
1023.08	210.60
1023.36	212.35
1023.65	210.30
>>>>>End Processed Spectral Data<<<<<
