SpectraSuite Data File
++++++++++++++++++++++++++++++++++++
Date: Mon Feb 25 17:36:36 EST 2013
User: group
Dark Spectrum Present: No
Reference Spectrum Present: No
Number of Sampled Component Spectra: 1
Spectrometers: USB2E7196
Integration Time (usec): 52000 (USB2E7196)
Spectra Averaged: 20 (USB2E7196)
Boxcar Smoothing: 10 (USB2E7196)
Correct for Electrical Dark: No (USB2E7196)
Strobe/Lamp Enabled: No (USB2E7196)
Correct for Detector Non-linearity: No (USB2E7196)
Correct for Stray Light: No (USB2E7196)
Number of Pixels in Processed Spectrum: 2048
>>>>>Begin Processed Spectral Data<<<<<
339.09	0.00
339.48	198.25
339.86	199.15
340.24	202.40
340.63	202.80
341.01	206.20
341.39	205.85
341.78	207.00
342.16	207.95
342.54	208.45
342.93	197.94
343.31	207.93
343.69	208.48
344.07	209.06
344.46	209.48
344.84	210.01
345.22	210.38
345.60	210.77
345.99	211.10
346.37	211.31
346.75	211.55
347.13	211.69
347.52	211.91
347.90	212.18
348.28	212.40
348.66	212.62
349.05	212.73
349.43	212.83
349.81	213.04
350.19	213.22
350.57	213.43
350.96	213.59
351.34	213.85
351.72	214.04
352.10	214.19
352.48	214.35
352.87	214.40
353.25	214.46
353.63	214.51
354.01	214.59
354.39	214.75
354.77	214.82
355.15	214.99
355.54	215.01
355.92	215.00
356.30	215.05
356.68	215.17
357.06	215.24
357.44	215.33
357.82	215.43
358.20	215.47
358.58	215.52
358.97	215.55
359.35	215.66
359.73	215.79
360.11	215.85
360.49	215.94
360.87	216.04
361.25	216.12
361.63	216.29
362.01	216.28
362.39	216.30
362.77	216.39
363.15	216.45
363.53	216.49
363.91	216.53
364.29	216.60
364.67	216.54
365.05	216.52
365.43	216.58
365.81	216.52
366.19	216.61
366.57	216.64
366.95	216.69
367.33	216.60
367.71	216.61
368.09	216.67
368.47	216.58
368.85	216.54
369.23	216.54
369.61	216.33
369.99	216.42
370.37	216.44
370.75	216.52
371.13	216.39
371.51	216.28
371.89	216.27
372.27	216.22
372.65	216.14
373.03	216.17
373.41	216.13
373.78	216.16
374.16	216.03
374.54	216.02
374.92	215.99
375.30	215.99
375.68	215.92
376.06	215.87
376.44	215.87
376.82	215.82
377.19	215.75
377.57	215.74
377.95	215.54
378.33	215.44
378.71	215.24
379.09	215.27
379.47	215.29
379.84	215.24
380.22	215.11
380.60	215.04
380.98	215.03
381.36	214.95
381.73	214.85
382.11	214.81
382.49	214.81
382.87	214.64
383.25	214.60
383.62	214.72
384.00	214.65
384.38	214.62
384.76	214.62
385.13	214.65
385.51	214.64
385.89	214.71
386.27	214.70
386.64	214.74
387.02	214.69
387.40	214.68
387.78	214.64
388.15	214.64
388.53	214.67
388.91	214.58
389.29	214.64
389.66	214.68
390.04	214.74
390.42	214.77
390.79	214.84
391.17	214.89
391.55	214.75
391.92	214.75
392.30	214.91
392.68	214.93
393.05	214.97
393.43	214.99
393.81	215.03
394.18	215.08
394.56	215.12
394.94	215.25
395.31	215.29
395.69	215.46
396.06	215.62
396.44	215.76
396.82	215.91
397.19	216.10
397.57	216.18
397.95	216.30
398.32	216.36
398.70	216.56
399.07	216.75
399.45	216.96
399.82	217.22
400.20	217.36
400.58	217.61
400.95	217.88
401.33	218.25
401.70	218.68
402.08	219.05
402.45	219.52
402.83	219.87
403.20	220.33
403.58	220.76
403.95	221.36
404.33	221.87
404.71	222.44
405.08	223.11
405.46	223.86
405.83	224.63
406.21	225.36
406.58	226.32
406.96	227.23
407.33	228.23
407.70	229.35
408.08	230.69
408.45	232.11
408.83	233.55
409.20	235.05
409.58	236.57
409.95	238.26
410.33	240.08
410.70	242.05
411.08	244.18
411.45	246.51
411.82	248.90
412.20	251.53
412.57	254.49
412.95	257.34
413.32	260.50
413.69	263.84
414.07	267.54
414.44	271.44
414.82	275.42
415.19	280.05
415.56	284.85
415.94	289.96
416.31	295.49
416.68	301.09
417.06	307.45
417.43	313.56
417.81	320.74
418.18	327.92
418.55	335.86
418.93	344.16
419.30	352.89
419.67	361.93
420.04	371.49
420.42	381.45
420.79	392.51
421.16	404.21
421.54	415.90
421.91	428.17
422.28	441.15
422.66	455.19
423.03	468.32
423.40	482.44
423.77	497.61
424.15	513.17
424.52	529.41
424.89	547.13
425.26	564.48
425.64	580.86
426.01	599.22
426.38	618.30
426.75	637.66
427.13	657.70
427.50	679.11
427.87	701.46
428.24	724.26
428.61	746.32
428.99	769.52
429.36	795.79
429.73	821.54
430.10	846.85
430.47	872.87
430.85	900.82
431.22	929.83
431.59	960.11
431.96	989.63
432.33	1022.39
432.70	1054.36
433.08	1091.87
433.45	1127.04
433.82	1162.21
434.19	1201.13
434.56	1239.56
434.93	1277.01
435.30	1314.39
435.68	1355.51
436.05	1396.29
436.42	1436.97
436.79	1474.60
437.16	1515.24
437.53	1558.01
437.90	1600.65
438.27	1642.63
438.64	1686.74
439.01	1727.61
439.38	1765.20
439.75	1801.27
440.13	1841.52
440.50	1879.55
440.87	1911.20
441.24	1944.85
441.61	1981.40
441.98	2010.03
442.35	2042.53
442.72	2074.96
443.09	2106.10
443.46	2127.17
443.83	2142.12
444.20	2156.46
444.57	2175.62
444.94	2186.45
445.31	2197.51
445.68	2207.02
446.05	2214.15
446.42	2214.05
446.79	2212.71
447.16	2210.72
447.53	2210.39
447.90	2199.07
448.27	2187.93
448.64	2170.40
449.01	2158.21
449.37	2134.10
449.74	2110.30
450.11	2080.49
450.48	2049.45
450.85	2017.68
451.22	1989.95
451.59	1963.60
451.96	1937.80
452.33	1902.45
452.70	1870.95
453.07	1832.98
453.43	1795.16
453.80	1757.56
454.17	1721.24
454.54	1687.78
454.91	1651.21
455.28	1615.34
455.65	1582.28
456.02	1546.56
456.38	1517.48
456.75	1481.21
457.12	1451.33
457.49	1421.50
457.86	1393.87
458.23	1368.12
458.59	1340.35
458.96	1312.64
459.33	1288.29
459.70	1263.38
460.07	1243.64
460.43	1220.85
460.80	1199.05
461.17	1180.26
461.54	1160.50
461.91	1141.92
462.27	1122.77
462.64	1106.70
463.01	1088.72
463.38	1070.68
463.74	1055.25
464.11	1040.52
464.48	1027.37
464.85	1012.75
465.21	1001.34
465.58	989.00
465.95	974.88
466.32	962.91
466.68	950.94
467.05	938.73
467.42	927.15
467.78	914.65
468.15	902.89
468.52	894.25
468.88	883.32
469.25	873.50
469.62	865.16
469.98	856.30
470.35	848.02
470.72	840.21
471.08	832.29
471.45	825.07
471.82	817.58
472.18	809.74
472.55	804.03
472.92	797.66
473.28	791.98
473.65	786.46
474.02	780.92
474.38	776.14
474.75	772.31
475.11	768.08
475.48	764.97
475.85	762.19
476.21	759.32
476.58	756.75
476.94	754.98
477.31	752.83
477.67	750.76
478.04	749.16
478.41	748.20
478.77	747.40
479.14	746.23
479.50	745.91
479.87	746.37
480.23	746.92
480.60	746.95
480.96	747.19
481.33	748.57
481.69	749.86
482.06	751.05
482.42	751.82
482.79	753.25
483.15	755.78
483.52	758.87
483.88	761.63
484.25	764.60
484.61	767.60
484.98	770.90
485.34	775.03
485.71	779.55
486.07	784.32
486.44	789.21
486.80	794.67
487.17	800.32
487.53	806.75
487.90	813.46
488.26	820.67
488.62	828.33
488.99	835.77
489.35	843.89
489.72	852.91
490.08	862.84
490.44	872.50
490.81	882.34
491.17	892.12
491.54	903.09
491.90	913.70
492.26	925.35
492.63	937.35
492.99	949.60
493.36	962.23
493.72	975.36
494.08	989.10
494.45	1003.65
494.81	1018.97
495.17	1034.32
495.54	1050.29
495.90	1066.98
496.26	1083.85
496.63	1101.38
496.99	1119.17
497.35	1136.94
497.72	1155.18
498.08	1173.87
498.44	1192.59
498.80	1212.69
499.17	1232.52
499.53	1253.04
499.89	1274.07
500.26	1295.16
500.62	1316.22
500.98	1338.37
501.34	1360.76
501.71	1383.44
502.07	1406.30
502.43	1429.25
502.79	1451.82
503.16	1475.00
503.52	1498.09
503.88	1521.10
504.24	1544.37
504.60	1567.90
504.97	1592.07
505.33	1615.70
505.69	1640.94
506.05	1665.83
506.41	1690.07
506.78	1714.87
507.14	1739.62
507.50	1764.49
507.86	1789.36
508.22	1814.86
508.59	1839.70
508.95	1864.79
509.31	1890.22
509.67	1915.69
510.03	1940.64
510.39	1966.55
510.75	1991.50
511.12	2015.83
511.48	2040.59
511.84	2065.25
512.20	2089.33
512.56	2114.09
512.92	2138.64
513.28	2162.36
513.64	2186.18
514.00	2209.39
514.37	2232.25
514.73	2255.84
515.09	2278.16
515.45	2300.87
515.81	2323.49
516.17	2346.05
516.53	2367.54
516.89	2388.54
517.25	2408.46
517.61	2428.34
517.97	2447.68
518.33	2466.64
518.69	2486.38
519.05	2506.00
519.41	2525.44
519.77	2544.99
520.13	2563.35
520.49	2581.48
520.85	2599.24
521.21	2616.55
521.57	2634.69
521.93	2651.44
522.29	2668.40
522.65	2685.40
523.01	2701.81
523.37	2716.87
523.73	2732.40
524.09	2747.81
524.45	2762.65
524.81	2777.59
525.17	2792.80
525.53	2807.52
525.89	2822.79
526.25	2837.25
526.61	2850.06
526.97	2863.28
527.33	2876.27
527.68	2889.45
528.04	2902.58
528.40	2914.81
528.76	2927.36
529.12	2938.68
529.48	2951.01
529.84	2960.81
530.20	2972.08
530.56	2982.99
530.91	2995.22
531.27	3005.78
531.63	3016.32
531.99	3026.50
532.35	3036.54
532.71	3046.89
533.07	3058.55
533.42	3068.08
533.78	3078.45
534.14	3088.41
534.50	3097.63
534.86	3107.26
535.21	3114.75
535.57	3123.66
535.93	3131.63
536.29	3139.05
536.65	3147.65
537.00	3154.84
537.36	3163.71
537.72	3170.71
538.08	3178.29
538.44	3184.70
538.79	3191.29
539.15	3198.61
539.51	3205.85
539.87	3213.40
540.22	3219.50
540.58	3225.09
540.94	3231.28
541.29	3236.39
541.65	3240.32
542.01	3244.48
542.37	3248.18
542.72	3253.70
543.08	3256.92
543.44	3261.22
543.79	3264.52
544.15	3267.33
544.51	3271.21
544.87	3274.63
545.22	3277.38
545.58	3278.76
545.94	3280.86
546.29	3282.38
546.65	3282.90
547.01	3283.65
547.36	3284.55
547.72	3285.60
548.07	3285.26
548.43	3285.08
548.79	3284.50
549.14	3285.90
549.50	3287.14
549.86	3288.43
550.21	3287.22
550.57	3287.64
550.92	3286.59
551.28	3285.79
551.64	3285.00
551.99	3284.47
552.35	3283.92
552.70	3283.33
553.06	3283.11
553.41	3282.38
553.77	3282.37
554.13	3281.80
554.48	3282.30
554.84	3281.55
555.19	3279.89
555.55	3279.39
555.90	3278.79
556.26	3278.51
556.61	3277.25
556.97	3274.35
557.32	3270.87
557.68	3269.11
558.03	3266.60
558.39	3264.83
558.74	3265.28
559.10	3264.75
559.45	3263.75
559.81	3262.30
560.16	3260.96
560.52	3260.19
560.87	3258.31
561.23	3254.89
561.58	3252.18
561.94	3247.66
562.29	3243.21
562.64	3239.70
563.00	3235.97
563.35	3231.75
563.71	3228.29
564.06	3225.78
564.42	3223.46
564.77	3220.97
565.12	3218.22
565.48	3215.27
565.83	3212.44
566.19	3208.93
566.54	3204.78
566.89	3199.53
567.25	3193.99
567.60	3189.66
567.96	3184.45
568.31	3179.99
568.66	3176.09
569.02	3172.44
569.37	3169.21
569.72	3166.28
570.08	3162.92
570.43	3157.27
570.78	3153.32
571.14	3148.70
571.49	3143.19
571.84	3138.46
572.20	3133.00
572.55	3127.70
572.90	3121.65
573.26	3115.66
573.61	3107.88
573.96	3100.91
574.31	3093.70
574.67	3087.60
575.02	3080.24
575.37	3072.48
575.72	3064.54
576.08	3057.31
576.43	3049.05
576.78	3041.20
577.13	3033.39
577.49	3025.34
577.84	3018.73
578.19	3010.28
578.54	3001.74
578.90	2993.71
579.25	2984.79
579.60	2975.32
579.95	2966.25
580.30	2957.93
580.66	2949.07
581.01	2940.14
581.36	2930.50
581.71	2922.29
582.06	2913.27
582.42	2905.12
582.77	2895.95
583.12	2886.48
583.47	2877.19
583.82	2867.97
584.17	2857.60
584.53	2848.18
584.88	2838.28
585.23	2828.20
585.58	2819.38
585.93	2809.35
586.28	2800.06
586.63	2790.58
586.98	2781.95
587.34	2772.90
587.69	2762.57
588.04	2753.42
588.39	2744.60
588.74	2734.38
589.09	2724.22
589.44	2712.91
589.79	2701.64
590.14	2692.15
590.49	2681.63
590.84	2671.68
591.19	2662.19
591.54	2651.88
591.89	2640.10
592.25	2629.83
592.60	2618.41
592.95	2606.49
593.30	2595.67
593.65	2584.59
594.00	2573.58
594.35	2563.53
594.70	2552.11
595.05	2541.48
595.40	2528.90
595.75	2516.81
596.10	2506.77
596.45	2495.73
596.80	2485.82
597.15	2475.24
597.50	2463.87
597.85	2453.74
598.19	2441.61
598.54	2429.80
598.89	2418.92
599.24	2408.70
599.59	2397.93
599.94	2388.75
600.29	2378.96
600.64	2368.61
600.99	2356.50
601.34	2346.44
601.69	2334.60
602.04	2323.59
602.39	2313.56
602.74	2305.00
603.08	2296.40
603.43	2287.75
603.78	2278.26
604.13	2268.61
604.48	2257.96
604.83	2248.63
605.18	2238.93
605.53	2229.37
605.87	2219.64
606.22	2210.47
606.57	2200.92
606.92	2189.77
607.27	2178.82
607.62	2168.54
607.96	2158.53
608.31	2149.85
608.66	2138.70
609.01	2128.08
609.36	2117.79
609.70	2106.53
610.05	2094.56
610.40	2082.48
610.75	2069.85
611.10	2058.61
611.44	2046.60
611.79	2035.92
612.14	2024.05
612.49	2011.69
612.83	2000.42
613.18	1988.12
613.53	1976.26
613.88	1963.20
614.22	1951.43
614.57	1938.92
614.92	1926.20
615.27	1913.96
615.61	1900.70
615.96	1889.15
616.31	1878.31
616.65	1867.63
617.00	1856.84
617.35	1846.19
617.70	1834.42
618.04	1822.54
618.39	1810.20
618.74	1799.00
619.08	1786.91
619.43	1774.85
619.78	1763.88
620.12	1753.00
620.47	1743.04
620.82	1731.86
621.16	1721.70
621.51	1711.36
621.85	1700.84
622.20	1690.05
622.55	1678.48
622.89	1668.19
623.24	1657.37
623.59	1646.11
623.93	1634.75
624.28	1623.68
624.62	1612.91
624.97	1602.75
625.32	1592.89
625.66	1583.00
626.01	1572.79
626.35	1563.93
626.70	1555.13
627.04	1545.38
627.39	1534.92
627.73	1524.73
628.08	1515.29
628.43	1505.82
628.77	1496.68
629.12	1487.04
629.46	1477.99
629.81	1468.75
630.15	1459.12
630.50	1449.55
630.84	1440.00
631.19	1430.24
631.53	1420.66
631.88	1410.81
632.22	1401.92
632.57	1393.34
632.91	1384.87
633.26	1376.27
633.60	1366.84
633.95	1357.82
634.29	1349.28
634.64	1341.08
634.98	1331.75
635.32	1323.10
635.67	1314.96
636.01	1306.54
636.36	1298.24
636.70	1290.07
637.05	1281.95
637.39	1273.87
637.73	1265.94
638.08	1258.60
638.42	1251.48
638.77	1244.26
639.11	1236.84
639.45	1228.79
639.80	1220.58
640.14	1212.80
640.49	1204.61
640.83	1196.31
641.17	1187.96
641.52	1180.02
641.86	1171.72
642.20	1164.19
642.55	1155.49
642.89	1146.76
643.23	1138.58
643.58	1130.89
643.92	1122.50
644.26	1114.51
644.61	1106.87
644.95	1098.56
645.29	1090.45
645.64	1082.06
645.98	1073.86
646.32	1066.23
646.66	1058.81
647.01	1051.10
647.35	1043.12
647.69	1035.43
648.04	1028.10
648.38	1020.69
648.72	1013.12
649.06	1005.84
649.41	998.39
649.75	991.14
650.09	984.28
650.43	977.27
650.78	970.06
651.12	963.27
651.46	956.82
651.80	950.00
652.14	943.89
652.49	937.29
652.83	930.61
653.17	923.57
653.51	916.56
653.85	909.93
654.20	903.48
654.54	897.00
654.88	890.62
655.22	883.95
655.56	877.06
655.90	870.04
656.25	862.95
656.59	856.56
656.93	850.40
657.27	843.83
657.61	836.98
657.95	830.69
658.29	824.42
658.64	818.27
658.98	812.30
659.32	805.81
659.66	799.75
660.00	793.81
660.34	788.23
660.68	782.40
661.02	776.11
661.36	770.21
661.70	764.52
662.05	759.01
662.39	753.84
662.73	748.95
663.07	744.15
663.41	739.68
663.75	734.82
664.09	729.69
664.43	724.54
664.77	719.79
665.11	714.96
665.45	710.26
665.79	705.40
666.13	700.47
666.47	696.01
666.81	691.52
667.15	686.91
667.49	682.58
667.83	678.16
668.17	673.79
668.51	669.69
668.85	665.20
669.19	660.94
669.53	656.41
669.87	651.72
670.21	647.39
670.55	642.95
670.89	638.47
671.23	634.52
671.57	630.50
671.91	626.49
672.25	622.47
672.58	618.14
672.92	613.96
673.26	610.15
673.60	606.20
673.94	602.31
674.28	598.79
674.62	594.84
674.96	590.84
675.30	587.14
675.64	583.13
675.97	579.62
676.31	576.24
676.65	572.95
676.99	570.08
677.33	566.93
677.67	563.48
678.01	560.09
678.34	556.65
678.68	553.24
679.02	549.84
679.36	546.54
679.70	543.35
680.04	540.20
680.37	536.85
680.71	533.66
681.05	530.46
681.39	527.21
681.73	524.09
682.06	521.19
682.40	518.29
682.74	515.28
683.08	512.17
683.42	508.87
683.75	505.71
684.09	502.39
684.43	499.20
684.77	496.28
685.10	493.27
685.44	490.06
685.78	487.09
686.12	484.21
686.45	481.21
686.79	478.54
687.13	475.83
687.46	473.18
687.80	470.31
688.14	467.41
688.48	464.68
688.81	461.88
689.15	459.35
689.49	456.58
689.82	453.75
690.16	450.87
690.50	448.11
690.83	445.36
691.17	442.68
691.51	440.14
691.84	437.77
692.18	435.49
692.52	433.26
692.85	430.97
693.19	428.52
693.52	426.15
693.86	423.63
694.20	421.25
694.53	418.68
694.87	416.28
695.21	413.95
695.54	411.58
695.88	409.37
696.21	407.08
696.55	404.88
696.88	402.90
697.22	401.09
697.56	399.18
697.89	397.30
698.23	395.26
698.56	393.15
698.90	391.16
699.23	388.99
699.57	387.03
699.90	384.94
700.24	383.02
700.58	381.11
700.91	379.26
701.25	377.39
701.58	375.68
701.92	374.05
702.25	372.44
702.59	370.76
702.92	368.98
703.26	367.28
703.59	365.66
703.93	364.12
704.26	362.32
704.60	360.62
704.93	358.83
705.26	357.22
705.60	355.60
705.93	354.00
706.27	352.58
706.60	351.12
706.94	349.78
707.27	348.14
707.61	346.58
707.94	345.11
708.27	343.55
708.61	342.09
708.94	340.56
709.28	339.05
709.61	337.68
709.94	336.20
710.28	334.56
710.61	333.11
710.95	331.49
711.28	330.32
711.61	328.91
711.95	327.65
712.28	326.36
712.61	325.12
712.95	323.77
713.28	322.52
713.61	321.17
713.95	319.89
714.28	318.74
714.61	317.65
714.95	316.43
715.28	315.23
715.61	313.96
715.95	312.81
716.28	311.68
716.61	310.38
716.95	309.26
717.28	308.24
717.61	307.19
717.94	306.20
718.28	304.97
718.61	303.95
718.94	302.98
719.27	301.96
719.61	301.04
719.94	300.07
720.27	299.01
720.60	298.00
720.94	297.10
721.27	296.21
721.60	295.35
721.93	294.54
722.27	293.75
722.60	293.05
722.93	292.24
723.26	291.37
723.59	290.56
723.93	289.85
724.26	289.07
724.59	288.25
724.92	287.52
725.25	286.86
725.59	285.99
725.92	285.22
726.25	284.52
726.58	283.79
726.91	283.06
727.24	282.35
727.57	281.68
727.91	280.85
728.24	280.19
728.57	279.42
728.90	278.69
729.23	277.94
729.56	277.22
729.89	276.56
730.22	275.87
730.55	275.15
730.89	274.44
731.22	273.77
731.55	273.08
731.88	272.36
732.21	271.60
732.54	271.09
732.87	270.41
733.20	269.80
733.53	269.15
733.86	268.49
734.19	267.89
734.52	267.37
734.85	266.98
735.18	266.35
735.51	265.76
735.84	265.24
736.17	264.60
736.50	264.03
736.83	263.67
737.16	263.13
737.49	262.65
737.82	262.11
738.15	261.58
738.48	261.12
738.81	260.62
739.14	260.12
739.47	259.59
739.80	259.07
740.13	258.58
740.46	258.02
740.79	257.59
741.12	257.09
741.45	256.56
741.78	255.98
742.11	255.50
742.44	254.96
742.77	254.44
743.10	253.96
743.43	253.50
743.75	252.76
744.08	252.50
744.41	252.01
744.74	251.55
745.07	251.02
745.40	250.62
745.73	250.21
746.06	249.76
746.39	249.28
746.71	248.85
747.04	248.37
747.37	247.91
747.70	247.47
748.03	247.06
748.36	246.66
748.68	246.20
749.01	245.78
749.34	245.42
749.67	245.05
750.00	244.75
750.33	244.42
750.65	244.15
750.98	243.58
751.31	243.19
751.64	242.74
751.97	242.41
752.29	242.00
752.62	241.55
752.95	241.17
753.28	240.90
753.60	240.54
753.93	240.15
754.26	239.80
754.59	239.43
754.91	239.01
755.24	238.74
755.57	238.40
755.90	238.08
756.22	237.79
756.55	237.46
756.88	237.05
757.20	236.67
757.53	236.31
757.86	236.08
758.19	235.87
758.51	235.64
758.84	235.30
759.17	235.00
759.49	234.75
759.82	234.56
760.15	234.28
760.47	234.08
760.80	233.82
761.13	233.61
761.45	233.32
761.78	233.10
762.11	232.79
762.43	232.60
762.76	232.39
763.08	232.18
763.41	231.95
763.74	231.81
764.06	231.50
764.39	231.23
764.71	230.94
765.04	230.68
765.37	230.48
765.69	230.35
766.02	230.09
766.34	229.87
766.67	229.65
767.00	229.40
767.32	229.23
767.65	229.14
767.97	228.92
768.30	228.78
768.62	228.66
768.95	228.42
769.27	228.20
769.60	228.04
769.92	227.77
770.25	227.53
770.57	227.26
770.90	227.08
771.22	226.92
771.55	226.77
771.87	226.55
772.20	226.33
772.52	226.30
772.85	226.42
773.17	226.33
773.50	226.05
773.82	225.97
774.15	225.74
774.47	225.46
774.80	225.32
775.12	225.16
775.45	225.00
775.77	224.90
776.09	224.79
776.42	224.60
776.74	224.53
777.07	224.45
777.39	224.33
777.72	224.19
778.04	224.05
778.36	223.87
778.69	223.80
779.01	223.73
779.33	223.49
779.66	223.12
779.98	222.97
780.31	222.91
780.63	222.76
780.95	222.68
781.28	222.61
781.60	222.53
781.92	222.41
782.25	222.24
782.57	222.21
782.89	222.04
783.22	221.95
783.54	221.82
783.86	221.69
784.19	221.59
784.51	221.52
784.83	221.34
785.16	221.22
785.48	221.08
785.80	220.98
786.12	220.87
786.45	220.82
786.77	220.72
787.09	220.65
787.42	220.54
787.74	220.42
788.06	220.33
788.38	220.18
788.71	220.07
789.03	219.95
789.35	219.77
789.67	219.74
789.99	219.66
790.32	219.53
790.64	219.46
790.96	219.53
791.28	219.43
791.61	219.35
791.93	219.36
792.25	219.30
792.57	219.31
792.89	219.15
793.21	219.00
793.54	218.88
793.86	218.82
794.18	218.74
794.50	218.67
794.82	218.55
795.14	218.53
795.47	218.51
795.79	218.46
796.11	218.37
796.43	218.31
796.75	218.26
797.07	218.22
797.39	218.14
797.71	217.99
798.04	217.92
798.36	217.98
798.68	217.87
799.00	217.83
799.32	217.73
799.64	217.75
799.96	217.74
800.28	217.82
800.60	217.68
800.92	217.59
801.24	217.49
801.56	217.41
801.89	217.32
802.21	217.25
802.53	217.15
802.85	217.21
803.17	217.19
803.49	217.11
803.81	217.10
804.13	217.05
804.45	216.96
804.77	216.99
805.09	216.87
805.41	216.86
805.73	216.74
806.05	216.58
806.37	216.53
806.69	216.50
807.01	216.34
807.33	216.38
807.65	216.37
807.97	216.40
808.28	216.38
808.60	216.40
808.92	216.31
809.24	216.50
809.56	216.39
809.88	216.30
810.20	216.25
810.52	216.20
810.84	216.12
811.16	216.04
811.48	215.90
811.80	215.89
812.12	215.79
812.43	215.80
812.75	215.85
813.07	215.75
813.39	215.69
813.71	215.67
814.03	215.57
814.35	215.54
814.67	215.52
814.98	215.49
815.30	215.42
815.62	215.39
815.94	215.14
816.26	215.10
816.58	215.03
816.89	215.02
817.21	214.93
817.53	214.90
817.85	214.90
818.17	214.84
818.48	214.71
818.80	214.73
819.12	214.67
819.44	214.57
819.76	214.55
820.07	214.54
820.39	214.47
820.71	214.52
821.03	214.43
821.34	214.36
821.66	214.34
821.98	214.30
822.30	214.30
822.61	214.35
822.93	214.26
823.25	214.25
823.57	214.18
823.88	214.15
824.20	214.12
824.52	214.12
824.83	214.07
825.15	214.08
825.47	213.99
825.79	213.98
826.10	213.98
826.42	213.89
826.74	213.86
827.05	213.81
827.37	213.76
827.69	213.71
828.00	213.70
828.32	213.73
828.64	213.69
828.95	213.77
829.27	213.70
829.58	213.72
829.90	213.71
830.22	213.70
830.53	213.65
830.85	213.67
831.17	213.56
831.48	213.63
831.80	213.58
832.11	213.57
832.43	213.49
832.75	213.48
833.06	213.49
833.38	213.40
833.69	213.41
834.01	213.39
834.32	213.32
834.64	213.26
834.96	213.17
835.27	213.11
835.59	212.95
835.90	212.94
836.22	212.95
836.53	212.85
836.85	212.84
837.16	213.07
837.48	213.05
837.79	213.13
838.11	213.12
838.42	213.15
838.74	213.15
839.05	213.13
839.37	213.06
839.68	213.02
840.00	213.03
840.31	213.04
840.63	213.00
840.94	213.10
841.26	213.07
841.57	213.05
841.88	213.05
842.20	213.05
842.51	213.01
842.83	212.97
843.14	213.19
843.46	213.15
843.77	213.02
844.08	212.89
844.40	212.82
844.71	212.83
845.03	212.81
845.34	212.90
845.65	212.88
845.97	212.89
846.28	212.88
846.60	212.91
846.91	212.87
847.22	212.90
847.54	212.95
847.85	212.97
848.16	212.99
848.48	212.98
848.79	213.09
849.10	213.08
849.42	213.07
849.73	212.92
850.04	212.94
850.36	212.85
850.67	212.94
850.98	212.95
851.30	212.91
851.61	212.89
851.92	212.75
852.23	212.88
852.55	212.95
852.86	213.04
853.17	213.02
853.49	213.10
853.80	213.11
854.11	213.07
854.42	213.08
854.74	213.02
855.05	213.01
855.36	212.87
855.67	212.90
855.99	212.93
856.30	213.05
856.61	213.08
856.92	213.06
857.23	213.04
857.55	213.04
857.86	213.00
858.17	213.01
858.48	213.08
858.79	213.00
859.11	212.98
859.42	212.86
859.73	212.80
860.04	212.83
860.35	212.76
860.66	212.71
860.98	212.68
861.29	212.71
861.60	212.67
861.91	212.71
862.22	212.67
862.53	212.68
862.84	212.44
863.16	212.43
863.47	212.45
863.78	212.48
864.09	212.49
864.40	212.43
864.71	212.41
865.02	212.35
865.33	212.29
865.64	212.20
865.95	212.21
866.27	212.28
866.58	212.11
866.89	212.15
867.20	212.09
867.51	212.01
867.82	211.92
868.13	211.97
868.44	211.92
868.75	211.99
869.06	211.90
869.37	211.96
869.68	211.88
869.99	211.79
870.30	211.70
870.61	211.70
870.92	211.74
871.23	211.67
871.54	211.69
871.85	211.73
872.16	211.72
872.47	211.66
872.78	211.60
873.09	211.64
873.40	211.52
873.71	211.60
874.02	211.64
874.33	211.67
874.64	211.66
874.95	211.68
875.26	211.58
875.56	211.55
875.87	211.50
876.18	211.49
876.49	211.65
876.80	211.69
877.11	211.66
877.42	211.71
877.73	211.67
878.04	211.65
878.35	211.66
878.66	211.70
878.96	211.73
879.27	211.74
879.58	211.67
879.89	211.75
880.20	211.75
880.51	211.72
880.82	211.67
881.12	211.68
881.43	211.67
881.74	211.68
882.05	211.64
882.36	211.69
882.67	211.79
882.97	211.60
883.28	211.60
883.59	211.53
883.90	211.53
884.21	211.66
884.51	211.61
884.82	211.56
885.13	211.56
885.44	211.63
885.74	211.58
886.05	211.67
886.36	211.68
886.67	211.60
886.98	211.75
887.28	211.82
887.59	211.86
887.90	211.83
888.20	211.82
888.51	211.89
888.82	211.88
889.13	211.84
889.43	212.04
889.74	211.97
890.05	212.04
890.35	212.00
890.66	211.92
890.97	211.95
891.28	211.90
891.58	211.86
891.89	211.77
892.20	211.72
892.50	211.68
892.81	211.59
893.12	211.66
893.42	211.57
893.73	211.60
894.04	211.54
894.34	211.60
894.65	211.58
894.95	211.64
895.26	211.62
895.57	211.69
895.87	211.55
896.18	211.67
896.48	211.67
896.79	211.58
897.10	211.63
897.40	211.62
897.71	211.69
898.01	211.69
898.32	211.77
898.63	211.84
898.93	211.82
899.24	211.80
899.54	211.70
899.85	211.66
900.15	211.60
900.46	211.58
900.76	211.55
901.07	211.52
901.38	211.45
901.68	211.41
901.99	211.26
902.29	211.20
902.60	211.16
902.90	211.12
903.21	211.23
903.51	211.22
903.82	211.25
904.12	211.24
904.43	211.24
904.73	211.17
905.03	211.17
905.34	211.36
905.64	211.34
905.95	211.33
906.25	211.25
906.56	211.25
906.86	211.26
907.17	211.17
907.47	211.20
907.77	211.17
908.08	211.14
908.38	211.17
908.69	211.25
908.99	211.22
909.30	211.20
909.60	211.20
909.90	211.18
910.21	211.10
910.51	211.11
910.81	211.13
911.12	211.15
911.42	211.13
911.73	210.92
912.03	211.00
912.33	211.05
912.64	211.07
912.94	211.00
913.24	210.91
913.55	210.94
913.85	210.98
914.15	210.96
914.46	211.01
914.76	210.96
915.06	210.90
915.37	210.90
915.67	210.90
915.97	210.86
916.27	210.84
916.58	210.85
916.88	210.80
917.18	210.74
917.49	210.86
917.79	210.88
918.09	210.90
918.39	210.94
918.70	210.86
919.00	210.89
919.30	211.09
919.60	211.17
919.91	211.18
920.21	211.13
920.51	211.13
920.81	211.09
921.12	211.17
921.42	211.24
921.72	211.25
922.02	211.25
922.32	211.32
922.63	211.32
922.93	211.38
923.23	211.45
923.53	211.50
923.83	211.32
924.13	211.26
924.44	211.34
924.74	211.34
925.04	211.47
925.34	211.54
925.64	211.43
925.94	211.39
926.24	211.49
926.55	211.46
926.85	211.52
927.15	211.48
927.45	211.46
927.75	211.42
928.05	211.42
928.35	211.38
928.65	211.36
928.95	211.41
929.26	211.37
929.56	211.38
929.86	211.37
930.16	211.41
930.46	211.44
930.76	211.39
931.06	211.37
931.36	211.30
931.66	211.34
931.96	211.35
932.26	211.38
932.56	211.28
932.86	211.35
933.16	211.33
933.46	211.39
933.76	211.33
934.06	211.31
934.36	211.36
934.66	211.35
934.96	211.26
935.26	211.24
935.56	211.28
935.86	211.21
936.16	211.15
936.46	211.10
936.76	211.09
937.06	211.05
937.36	210.99
937.66	211.03
937.96	210.90
938.26	210.86
938.56	210.80
938.86	210.78
939.16	210.76
939.46	210.79
939.76	210.85
940.06	210.87
940.35	210.86
940.65	210.70
940.95	210.75
941.25	210.73
941.55	210.79
941.85	210.78
942.15	210.76
942.45	210.79
942.75	210.80
943.04	210.82
943.34	210.84
943.64	210.85
943.94	210.72
944.24	210.77
944.54	210.74
944.84	210.76
945.13	210.84
945.43	210.77
945.73	210.76
946.03	210.66
946.33	210.65
946.62	210.60
946.92	210.65
947.22	210.64
947.52	210.67
947.82	210.57
948.11	210.61
948.41	210.58
948.71	210.57
949.01	210.65
949.31	210.59
949.60	210.63
949.90	210.65
950.20	210.69
950.50	210.71
950.79	210.79
951.09	210.83
951.39	210.77
951.69	210.83
951.98	210.90
952.28	210.98
952.58	210.96
952.87	210.99
953.17	211.04
953.47	211.04
953.76	211.03
954.06	211.05
954.36	210.98
954.66	211.02
954.95	211.07
955.25	211.02
955.55	211.10
955.84	211.01
956.14	211.00
956.44	211.07
956.73	210.97
957.03	210.93
957.32	210.91
957.62	210.91
957.92	210.94
958.21	210.89
958.51	211.04
958.81	211.08
959.10	211.13
959.40	211.09
959.69	211.09
959.99	211.10
960.29	211.13
960.58	211.18
960.88	211.24
961.17	211.21
961.47	211.20
961.76	211.27
962.06	211.31
962.36	211.35
962.65	211.30
962.95	211.37
963.24	211.41
963.54	211.43
963.83	211.41
964.13	211.42
964.42	211.36
964.72	211.28
965.01	211.26
965.31	211.26
965.60	211.30
965.90	211.48
966.19	211.48
966.49	211.46
966.78	211.43
967.08	211.40
967.37	211.43
967.67	211.44
967.96	211.35
968.26	211.35
968.55	211.37
968.85	211.41
969.14	211.40
969.43	211.40
969.73	211.39
970.02	211.40
970.32	211.36
970.61	211.38
970.91	211.34
971.20	211.32
971.49	211.33
971.79	211.37
972.08	211.20
972.38	211.27
972.67	211.23
972.96	211.25
973.26	211.20
973.55	211.28
973.85	211.30
974.14	211.33
974.43	211.38
974.73	211.33
975.02	211.38
975.31	211.34
975.61	211.31
975.90	211.27
976.19	211.26
976.49	211.25
976.78	211.23
977.07	211.19
977.37	211.22
977.66	211.19
977.95	211.15
978.24	211.16
978.54	211.10
978.83	211.08
979.12	211.10
979.42	211.19
979.71	211.05
980.00	211.14
980.29	211.14
980.59	211.01
980.88	211.06
981.17	211.00
981.46	211.01
981.76	211.04
982.05	211.17
982.34	211.16
982.63	211.16
982.93	211.20
983.22	211.21
983.51	211.27
983.80	211.31
984.09	211.23
984.39	211.27
984.68	211.29
984.97	211.39
985.26	211.36
985.55	211.29
985.85	211.33
986.14	211.20
986.43	211.19
986.72	211.22
987.01	211.16
987.30	211.15
987.59	211.13
987.89	211.09
988.18	211.08
988.47	211.12
988.76	211.12
989.05	211.14
989.34	211.13
989.63	211.14
989.92	211.06
990.22	211.08
990.51	211.08
990.80	211.07
991.09	211.08
991.38	211.07
991.67	211.08
991.96	211.00
992.25	211.00
992.54	210.95
992.83	210.94
993.12	210.91
993.41	211.02
993.70	211.16
993.99	211.21
994.28	211.12
994.58	211.09
994.87	211.06
995.16	210.90
995.45	210.93
995.74	210.83
996.03	210.96
996.32	210.98
996.61	210.95
996.90	210.98
997.19	210.91
997.48	210.86
997.77	210.83
998.06	210.87
998.34	210.95
998.63	210.95
998.92	210.96
999.21	211.07
999.50	210.97
999.79	210.81
1000.08	210.80
1000.37	210.80
1000.66	210.80
1000.95	210.80
1001.24	210.93
1001.53	210.92
1001.82	210.91
1002.11	210.81
1002.40	210.87
1002.68	210.87
1002.97	210.89
1003.26	210.81
1003.55	210.82
1003.84	210.84
1004.13	210.92
1004.42	210.90
1004.71	210.90
1004.99	210.86
1005.28	210.81
1005.57	210.77
1005.86	210.77
1006.15	210.78
1006.44	210.74
1006.72	210.76
1007.01	210.78
1007.30	210.74
1007.59	210.68
1007.88	210.69
1008.17	210.70
1008.45	210.55
1008.74	210.54
1009.03	210.50
1009.32	210.59
1009.60	210.61
1009.89	210.66
1010.18	210.56
1010.47	210.54
1010.76	210.55
1011.04	210.59
1011.33	210.61
1011.62	210.62
1011.91	210.62
1012.19	210.63
1012.48	210.65
1012.77	210.63
1013.05	210.71
1013.34	210.67
1013.63	210.66
1013.92	210.67
1014.20	210.66
1014.49	210.74
1014.78	210.77
1015.06	210.71
1015.35	210.68
1015.64	210.74
1015.92	210.68
1016.21	210.67
1016.50	210.59
1016.78	210.65
1017.07	210.73
1017.36	210.75
1017.64	210.74
1017.93	210.81
1018.22	210.78
1018.50	210.81
1018.79	210.85
1019.08	210.78
1019.36	210.81
1019.65	210.80
1019.93	210.83
1020.22	210.86
1020.51	210.99
1020.79	210.95
1021.08	210.90
1021.36	210.85
1021.65	211.55
1021.94	211.30
1022.22	210.30
1022.51	209.80
1022.79	211.60
1023.08	211.05
1023.36	212.90
1023.65	210.70
>>>>>End Processed Spectral Data<<<<<
