SpectraSuite Data File
++++++++++++++++++++++++++++++++++++
Date: Mon Feb 25 17:36:10 EST 2013
User: group
Dark Spectrum Present: No
Reference Spectrum Present: No
Number of Sampled Component Spectra: 1
Spectrometers: USB2E7196
Integration Time (usec): 52000 (USB2E7196)
Spectra Averaged: 20 (USB2E7196)
Boxcar Smoothing: 10 (USB2E7196)
Correct for Electrical Dark: No (USB2E7196)
Strobe/Lamp Enabled: No (USB2E7196)
Correct for Detector Non-linearity: No (USB2E7196)
Correct for Stray Light: No (USB2E7196)
Number of Pixels in Processed Spectrum: 2048
>>>>>Begin Processed Spectral Data<<<<<
339.09	0.00
339.48	198.75
339.86	201.10
340.24	201.50
340.63	203.60
341.01	207.05
341.39	205.90
341.78	207.50
342.16	208.35
342.54	208.45
342.93	197.94
343.31	207.97
343.69	208.46
344.07	208.85
344.46	209.38
344.84	209.81
345.22	210.05
345.60	210.40
345.99	210.63
346.37	210.87
346.75	211.07
347.13	211.25
347.52	211.41
347.90	211.68
348.28	211.85
348.66	211.97
349.05	212.06
349.43	212.18
349.81	212.36
350.19	212.51
350.57	212.63
350.96	212.80
351.34	212.99
351.72	213.27
352.10	213.46
352.48	213.52
352.87	213.61
353.25	213.77
353.63	213.88
354.01	213.93
354.39	213.98
354.77	214.07
355.15	214.25
355.54	214.39
355.92	214.34
356.30	214.49
356.68	214.71
357.06	214.77
357.44	214.83
357.82	214.87
358.20	215.00
358.58	215.18
358.97	215.27
359.35	215.34
359.73	215.42
360.11	215.61
360.49	215.70
360.87	215.81
361.25	215.86
361.63	215.88
362.01	216.03
362.39	216.11
362.77	216.24
363.15	216.33
363.53	216.30
363.91	216.42
364.29	216.33
364.67	216.25
365.05	216.36
365.43	216.45
365.81	216.56
366.19	216.69
366.57	216.74
366.95	216.75
367.33	216.73
367.71	216.79
368.09	216.75
368.47	216.82
368.85	216.75
369.23	216.80
369.61	216.81
369.99	216.88
370.37	216.90
370.75	216.96
371.13	216.85
371.51	216.86
371.89	216.85
372.27	216.93
372.65	216.82
373.03	216.75
373.41	216.74
373.78	216.71
374.16	216.62
374.54	216.55
374.92	216.50
375.30	216.47
375.68	216.35
376.06	216.32
376.44	216.29
376.82	216.32
377.19	216.27
377.57	216.20
377.95	216.12
378.33	216.11
378.71	215.91
379.09	215.86
379.47	215.82
379.84	215.74
380.22	215.70
380.60	215.74
380.98	215.64
381.36	215.54
381.73	215.41
382.11	215.35
382.49	215.31
382.87	215.27
383.25	215.32
383.62	215.45
384.00	215.36
384.38	215.28
384.76	215.24
385.13	215.33
385.51	215.35
385.89	215.30
386.27	215.25
386.64	215.25
387.02	215.29
387.40	215.30
387.78	215.35
388.15	215.29
388.53	215.19
388.91	215.23
389.29	215.28
389.66	215.38
390.04	215.36
390.42	215.40
390.79	215.40
391.17	215.41
391.55	215.28
391.92	215.36
392.30	215.40
392.68	215.45
393.05	215.40
393.43	215.46
393.81	215.51
394.18	215.57
394.56	215.67
394.94	215.74
395.31	215.83
395.69	215.86
396.06	216.03
396.44	216.21
396.82	216.38
397.19	216.58
397.57	216.63
397.95	216.80
398.32	216.83
398.70	217.10
399.07	217.26
399.45	217.44
399.82	217.58
400.20	217.78
400.58	218.00
400.95	218.15
401.33	218.47
401.70	218.88
402.08	219.18
402.45	219.57
402.83	220.02
403.20	220.40
403.58	220.94
403.95	221.43
404.33	221.99
404.71	222.56
405.08	223.24
405.46	223.95
405.83	224.70
406.21	225.59
406.58	226.42
406.96	227.43
407.33	228.46
407.70	229.58
408.08	230.94
408.45	232.32
408.83	233.83
409.20	235.32
409.58	236.75
409.95	238.56
410.33	240.46
410.70	242.40
411.08	244.54
411.45	246.80
411.82	249.25
412.20	251.97
412.57	255.02
412.95	257.88
413.32	261.20
413.69	264.69
414.07	268.39
414.44	272.36
414.82	276.44
415.19	281.30
415.56	286.24
415.94	291.59
416.31	297.40
416.68	303.28
417.06	309.82
417.43	316.19
417.81	323.44
418.18	330.96
418.55	339.16
418.93	347.69
419.30	356.54
419.67	365.95
420.04	375.67
420.42	385.93
420.79	397.42
421.16	409.37
421.54	421.40
421.91	434.07
422.28	447.49
422.66	461.68
423.03	475.15
423.40	489.76
423.77	505.29
424.15	521.20
424.52	537.70
424.89	555.89
425.26	573.57
425.64	590.35
426.01	608.95
426.38	628.52
426.75	648.28
427.13	669.04
427.50	690.96
427.87	713.71
428.24	736.51
428.61	758.69
428.99	782.39
429.36	809.00
429.73	835.19
430.10	860.72
430.47	887.35
430.85	915.74
431.22	944.96
431.59	975.64
431.96	1005.52
432.33	1038.94
432.70	1071.14
433.08	1109.09
433.45	1144.77
433.82	1180.42
434.19	1219.65
434.56	1258.47
434.93	1296.33
435.30	1333.57
435.68	1375.49
436.05	1416.89
436.42	1458.21
436.79	1496.02
437.16	1536.74
437.53	1580.13
437.90	1623.40
438.27	1665.42
438.64	1709.65
439.01	1750.87
439.38	1788.83
439.75	1824.98
440.13	1865.70
440.50	1904.16
440.87	1936.26
441.24	1970.32
441.61	2007.36
441.98	2036.09
442.35	2068.43
442.72	2100.73
443.09	2132.05
443.46	2152.65
443.83	2167.85
444.20	2181.60
444.57	2200.35
444.94	2210.90
445.31	2221.35
445.68	2230.49
446.05	2237.54
446.42	2237.12
446.79	2235.56
447.16	2233.16
447.53	2232.33
447.90	2220.10
448.27	2208.50
448.64	2190.13
449.01	2177.13
449.37	2151.95
449.74	2127.80
450.11	2097.78
450.48	2066.21
450.85	2033.80
451.22	2005.66
451.59	1978.68
451.96	1953.11
452.33	1917.46
452.70	1885.59
453.07	1846.83
453.43	1808.56
453.80	1770.77
454.17	1734.11
454.54	1699.94
454.91	1662.84
455.28	1626.92
455.65	1593.46
456.02	1557.35
456.38	1528.38
456.75	1491.74
457.12	1461.72
457.49	1431.56
457.86	1403.66
458.23	1377.83
458.59	1350.22
458.96	1322.09
459.33	1297.38
459.70	1272.01
460.07	1252.17
460.43	1229.36
460.80	1207.65
461.17	1188.66
461.54	1168.59
461.91	1149.78
462.27	1130.53
462.64	1114.15
463.01	1095.87
463.38	1077.88
463.74	1062.25
464.11	1047.13
464.48	1034.02
464.85	1019.31
465.21	1007.97
465.58	995.63
465.95	981.40
466.32	969.37
466.68	957.44
467.05	945.18
467.42	933.62
467.78	921.37
468.15	909.60
468.52	900.84
468.88	889.81
469.25	880.01
469.62	871.61
469.98	862.87
470.35	854.75
470.72	847.04
471.08	839.08
471.45	831.82
471.82	824.28
472.18	816.45
472.55	810.95
472.92	804.22
473.28	798.58
473.65	792.92
474.02	787.28
474.38	782.61
474.75	778.84
475.11	774.50
475.48	771.24
475.85	768.48
476.21	765.76
476.58	763.19
476.94	761.43
477.31	759.44
477.67	757.46
478.04	755.99
478.41	755.24
478.77	754.54
479.14	753.77
479.50	753.54
479.87	754.09
480.23	754.57
480.60	754.73
480.96	754.91
481.33	756.41
481.69	758.20
482.06	759.43
482.42	760.45
482.79	761.94
483.15	764.62
483.52	768.04
483.88	771.08
484.25	774.56
484.61	777.73
484.98	781.13
485.34	785.75
485.71	790.48
486.07	795.37
486.44	800.54
486.80	806.20
487.17	812.31
487.53	819.19
487.90	826.20
488.26	833.76
488.62	841.79
488.99	849.66
489.35	857.90
489.72	867.28
490.08	877.49
490.44	887.80
490.81	897.75
491.17	907.80
491.54	918.85
491.90	929.65
492.26	941.47
492.63	954.15
492.99	966.75
493.36	979.75
493.72	993.41
494.08	1007.56
494.45	1022.33
494.81	1037.91
495.17	1053.39
495.54	1069.81
495.90	1087.15
496.26	1104.42
496.63	1122.32
496.99	1140.43
497.35	1158.72
497.72	1177.36
498.08	1196.28
498.44	1215.85
498.80	1236.33
499.17	1256.95
499.53	1278.14
499.89	1299.90
500.26	1321.29
500.62	1342.60
500.98	1365.53
501.34	1388.29
501.71	1411.30
502.07	1434.68
502.43	1458.08
502.79	1481.93
503.16	1505.61
503.52	1529.23
503.88	1552.81
504.24	1576.49
504.60	1600.81
504.97	1626.02
505.33	1650.66
505.69	1676.50
506.05	1701.75
506.41	1726.70
506.78	1751.71
507.14	1776.78
507.50	1802.10
507.86	1827.47
508.22	1853.55
508.59	1879.00
508.95	1904.61
509.31	1930.31
509.67	1956.08
510.03	1982.31
510.39	2008.15
510.75	2033.53
511.12	2058.32
511.48	2083.91
511.84	2109.39
512.20	2133.85
512.56	2158.59
512.92	2183.47
513.28	2208.13
513.64	2232.79
514.00	2256.65
514.37	2280.33
514.73	2304.49
515.09	2326.98
515.45	2350.47
515.81	2373.29
516.17	2396.03
516.53	2418.01
516.89	2439.75
517.25	2459.95
517.61	2479.49
517.97	2498.95
518.33	2517.79
518.69	2537.84
519.05	2557.40
519.41	2576.75
519.77	2596.38
520.13	2614.87
520.49	2632.51
520.85	2649.53
521.21	2666.70
521.57	2684.87
521.93	2701.71
522.29	2718.75
522.65	2736.12
523.01	2752.36
523.37	2767.74
523.73	2783.08
524.09	2798.12
524.45	2812.93
524.81	2827.89
525.17	2842.82
525.53	2857.95
525.89	2873.98
526.25	2888.55
526.61	2901.21
526.97	2914.24
527.33	2927.06
527.68	2940.22
528.04	2953.63
528.40	2965.69
528.76	2978.15
529.12	2989.43
529.48	3001.43
529.84	3011.30
530.20	3022.21
530.56	3032.27
530.91	3044.06
531.27	3054.58
531.63	3065.35
531.99	3075.32
532.35	3085.25
532.71	3094.87
533.07	3105.73
533.42	3114.96
533.78	3124.75
534.14	3134.56
534.50	3143.03
534.86	3152.50
535.21	3159.30
535.57	3167.20
535.93	3174.85
536.29	3181.67
536.65	3189.88
537.00	3196.08
537.36	3203.46
537.72	3209.85
538.08	3217.50
538.44	3223.38
538.79	3229.33
539.15	3235.83
539.51	3242.91
539.87	3250.21
540.22	3256.53
540.58	3261.52
540.94	3266.75
541.29	3270.92
541.65	3273.32
542.01	3277.77
542.37	3280.67
542.72	3285.76
543.08	3289.10
543.44	3293.33
543.79	3296.16
544.15	3297.53
544.51	3301.61
544.87	3305.09
545.22	3307.25
545.58	3308.27
545.94	3309.24
546.29	3310.30
546.65	3310.33
547.01	3310.25
547.36	3310.84
547.72	3311.12
548.07	3310.55
548.43	3310.18
548.79	3308.72
549.14	3310.23
549.50	3310.67
549.86	3311.36
550.21	3310.07
550.57	3309.92
550.92	3308.78
551.28	3307.34
551.64	3306.39
551.99	3305.86
552.35	3305.45
552.70	3305.00
553.06	3304.51
553.41	3303.68
553.77	3302.48
554.13	3301.56
554.48	3301.94
554.84	3300.58
555.19	3299.15
555.55	3298.64
555.90	3297.74
556.26	3297.45
556.61	3295.66
556.97	3292.26
557.32	3288.85
557.68	3286.20
558.03	3283.22
558.39	3281.07
558.74	3280.75
559.10	3280.03
559.45	3277.86
559.81	3275.48
560.16	3272.99
560.52	3271.59
560.87	3269.99
561.23	3267.19
561.58	3264.32
561.94	3259.03
562.29	3254.56
562.64	3251.00
563.00	3246.12
563.35	3241.06
563.71	3237.47
564.06	3235.04
564.42	3232.64
564.77	3229.74
565.12	3226.91
565.48	3223.61
565.83	3220.22
566.19	3217.20
566.54	3213.64
566.89	3208.90
567.25	3204.01
567.60	3200.63
567.96	3195.12
568.31	3190.33
568.66	3186.44
569.02	3182.94
569.37	3179.90
569.72	3176.36
570.08	3172.17
570.43	3167.34
570.78	3163.88
571.14	3159.35
571.49	3153.86
571.84	3149.46
572.20	3144.13
572.55	3139.58
572.90	3133.92
573.26	3127.85
573.61	3120.27
573.96	3112.81
574.31	3105.82
574.67	3099.62
575.02	3091.51
575.37	3084.25
575.72	3076.85
576.08	3069.86
576.43	3061.40
576.78	3053.11
577.13	3045.60
577.49	3038.26
577.84	3031.48
578.19	3023.57
578.54	3015.31
578.90	3007.15
579.25	2997.67
579.60	2988.60
579.95	2978.89
580.30	2970.62
580.66	2961.86
581.01	2953.00
581.36	2942.90
581.71	2934.10
582.06	2924.82
582.42	2917.07
582.77	2907.95
583.12	2898.74
583.47	2889.33
583.82	2880.41
584.17	2870.90
584.53	2861.41
584.88	2851.85
585.23	2841.52
585.58	2832.27
585.93	2822.67
586.28	2813.73
586.63	2804.84
586.98	2796.55
587.34	2787.62
587.69	2777.40
588.04	2768.07
588.39	2759.23
588.74	2749.78
589.09	2740.21
589.44	2729.43
589.79	2719.09
590.14	2709.36
590.49	2698.54
590.84	2688.87
591.19	2679.61
591.54	2669.16
591.89	2658.06
592.25	2647.76
592.60	2636.89
592.95	2625.45
593.30	2614.72
593.65	2603.88
594.00	2593.88
594.35	2583.96
594.70	2573.90
595.05	2564.41
595.40	2553.57
595.75	2542.03
596.10	2532.19
596.45	2521.79
596.80	2512.46
597.15	2501.91
597.50	2491.54
597.85	2482.38
598.19	2470.51
598.54	2458.73
598.89	2448.30
599.24	2438.35
599.59	2427.53
599.94	2418.12
600.29	2408.22
600.64	2397.73
600.99	2386.25
601.34	2375.67
601.69	2363.55
602.04	2352.30
602.39	2341.88
602.74	2333.18
603.08	2324.90
603.43	2316.66
603.78	2306.91
604.13	2296.70
604.48	2286.15
604.83	2276.94
605.18	2266.97
605.53	2257.81
605.87	2248.81
606.22	2239.90
606.57	2230.09
606.92	2219.18
607.27	2208.55
607.62	2198.15
607.96	2188.45
608.31	2179.69
608.66	2169.55
609.01	2160.16
609.36	2150.29
609.70	2139.52
610.05	2127.56
610.40	2115.89
610.75	2103.55
611.10	2093.02
611.44	2081.44
611.79	2071.12
612.14	2059.35
612.49	2047.23
612.83	2035.98
613.18	2023.96
613.53	2012.23
613.88	1999.74
614.22	1989.00
614.57	1977.53
614.92	1966.14
615.27	1954.99
615.61	1942.88
615.96	1931.08
616.31	1920.03
616.65	1909.56
617.00	1898.74
617.35	1887.86
617.70	1876.74
618.04	1865.31
618.39	1853.22
618.74	1842.19
619.08	1830.42
619.43	1819.50
619.78	1809.37
620.12	1799.28
620.47	1789.52
620.82	1779.00
621.16	1769.15
621.51	1758.90
621.85	1748.52
622.20	1738.13
622.55	1726.57
622.89	1716.21
623.24	1706.05
623.59	1695.32
623.93	1684.40
624.28	1674.17
624.62	1664.05
624.97	1653.82
625.32	1644.65
625.66	1635.65
626.01	1626.61
626.35	1618.21
626.70	1609.06
627.04	1599.59
627.39	1589.42
627.73	1579.75
628.08	1570.47
628.43	1561.18
628.77	1552.18
629.12	1543.16
629.46	1534.03
629.81	1524.65
630.15	1515.11
630.50	1505.55
630.84	1495.96
631.19	1486.15
631.53	1476.34
631.88	1466.68
632.22	1457.40
632.57	1448.21
632.91	1438.89
633.26	1429.75
633.60	1419.74
633.95	1410.89
634.29	1402.11
634.64	1393.89
634.98	1384.40
635.32	1375.75
635.67	1367.59
636.01	1358.81
636.36	1349.99
636.70	1341.34
637.05	1333.61
637.39	1325.44
637.73	1317.36
638.08	1310.00
638.42	1302.43
638.77	1294.85
639.11	1287.09
639.45	1278.90
639.80	1270.62
640.14	1262.38
640.49	1253.97
640.83	1245.43
641.17	1236.72
641.52	1228.29
641.86	1219.78
642.20	1211.97
642.55	1203.33
642.89	1194.60
643.23	1186.17
643.58	1178.36
643.92	1170.07
644.26	1161.80
644.61	1153.77
644.95	1145.54
645.29	1137.08
645.64	1128.70
645.98	1120.41
646.32	1112.55
646.66	1105.08
647.01	1097.33
647.35	1089.37
647.69	1081.60
648.04	1074.60
648.38	1067.00
648.72	1059.57
649.06	1051.95
649.41	1044.22
649.75	1036.38
650.09	1029.09
650.43	1022.07
650.78	1014.68
651.12	1007.62
651.46	1000.62
651.80	993.70
652.14	986.89
652.49	979.58
652.83	972.53
653.17	965.23
653.51	958.14
653.85	951.32
654.20	944.57
654.54	938.00
654.88	931.00
655.22	923.57
655.56	916.23
655.90	908.77
656.25	901.43
656.59	894.76
656.93	888.55
657.27	882.14
657.61	875.20
657.95	868.89
658.29	862.28
658.64	856.24
658.98	850.05
659.32	843.70
659.66	837.79
660.00	831.89
660.34	826.54
660.68	820.68
661.02	814.20
661.36	808.37
661.70	802.50
662.05	797.19
662.39	792.21
662.73	787.21
663.07	782.27
663.41	777.50
663.75	772.49
664.09	767.21
664.43	761.71
664.77	756.63
665.11	751.39
665.45	746.45
665.79	741.30
666.13	736.40
666.47	731.60
666.81	726.91
667.15	721.97
667.49	716.83
667.83	712.09
668.17	707.73
668.51	702.97
668.85	698.37
669.19	693.72
669.53	688.64
669.87	683.67
670.21	678.97
670.55	674.15
670.89	669.50
671.23	665.07
671.57	660.54
671.91	655.95
672.25	651.60
672.58	647.27
672.92	642.80
673.26	638.41
673.60	634.15
673.94	629.99
674.28	626.20
674.62	622.50
674.96	618.50
675.30	614.73
675.64	610.96
675.97	607.29
676.31	603.74
676.65	600.56
676.99	597.62
677.33	594.20
677.67	590.83
678.01	587.17
678.34	583.75
678.68	580.39
679.02	577.03
679.36	573.61
679.70	570.17
680.04	566.70
680.37	563.25
680.71	559.91
681.05	556.66
681.39	553.26
681.73	549.80
682.06	546.54
682.40	543.26
682.74	539.87
683.08	536.34
683.42	532.91
683.75	529.51
684.09	525.95
684.43	522.73
684.77	519.41
685.10	516.06
685.44	512.67
685.78	509.43
686.12	506.36
686.45	503.30
686.79	500.39
687.13	497.60
687.46	494.77
687.80	491.80
688.14	488.76
688.48	485.98
688.81	483.05
689.15	480.24
689.49	477.14
689.82	474.16
690.16	471.27
690.50	468.32
690.83	465.48
691.17	462.67
691.51	459.94
691.84	457.30
692.18	454.75
692.52	452.25
692.85	449.80
693.19	447.25
693.52	444.59
693.86	441.84
694.20	439.18
694.53	436.44
694.87	433.72
695.21	431.10
695.54	428.44
695.88	426.07
696.21	423.39
696.55	421.08
696.88	418.95
697.22	416.85
697.56	414.81
697.89	412.61
698.23	410.55
698.56	408.36
698.90	406.28
699.23	404.10
699.57	401.94
699.90	399.68
700.24	397.49
700.58	395.45
700.91	393.58
701.25	391.71
701.58	389.89
701.92	388.16
702.25	386.35
702.59	384.48
702.92	382.48
703.26	380.89
703.59	379.20
703.93	377.49
704.26	375.67
704.60	373.76
704.93	371.89
705.26	370.00
705.60	368.20
705.93	366.47
706.27	364.92
706.60	363.43
706.94	361.99
707.27	360.33
707.61	358.63
707.94	356.95
708.27	355.23
708.61	353.72
708.94	352.14
709.28	350.55
709.61	348.94
709.94	347.43
710.28	345.64
710.61	343.99
710.95	342.15
711.28	340.59
711.61	339.07
711.95	337.60
712.28	336.14
712.61	334.81
712.95	333.43
713.28	332.02
713.61	330.41
713.95	328.98
714.28	327.79
714.61	326.44
714.95	325.11
715.28	323.71
715.61	322.25
715.95	320.82
716.28	319.58
716.61	318.28
716.95	317.01
717.28	315.88
717.61	314.58
717.94	313.52
718.28	312.31
718.61	311.18
718.94	310.07
719.27	308.95
719.61	307.79
719.94	306.65
720.27	305.55
720.60	304.60
720.94	303.58
721.27	302.59
721.60	301.72
721.93	300.79
722.27	299.97
722.60	299.07
722.93	298.22
723.26	297.30
723.59	296.42
723.93	295.51
724.26	294.62
724.59	293.82
724.92	293.00
725.25	292.15
725.59	291.31
725.92	290.61
726.25	289.87
726.58	289.05
726.91	288.23
727.24	287.41
727.57	286.55
727.91	285.67
728.24	284.85
728.57	284.07
728.90	283.27
729.23	282.37
729.56	281.67
729.89	280.91
730.22	280.11
730.55	279.41
730.89	278.70
731.22	277.92
731.55	277.22
731.88	276.48
732.21	275.81
732.54	275.14
732.87	274.41
733.20	273.67
733.53	273.06
733.86	272.40
734.19	271.83
734.52	271.29
734.85	270.86
735.18	270.27
735.51	269.72
735.84	269.06
736.17	268.60
736.50	267.96
736.83	267.57
737.16	267.06
737.49	266.41
737.82	265.81
738.15	265.24
738.48	264.63
738.81	264.03
739.14	263.42
739.47	262.80
739.80	262.21
740.13	261.71
740.46	261.01
740.79	260.49
741.12	259.93
741.45	259.30
741.78	258.59
742.11	258.00
742.44	257.33
742.77	256.88
743.10	256.30
743.43	255.67
743.75	254.93
744.08	254.65
744.41	254.15
744.74	253.64
745.07	253.21
745.40	252.80
745.73	252.43
746.06	251.96
746.39	251.55
746.71	251.04
747.04	250.59
747.37	250.19
747.70	249.71
748.03	249.28
748.36	248.94
748.68	248.56
749.01	248.07
749.34	247.74
749.67	247.30
750.00	246.93
750.33	246.78
750.65	246.44
750.98	245.83
751.31	245.46
751.64	245.08
751.97	244.90
752.29	244.45
752.62	244.04
752.95	243.66
753.28	243.31
753.60	242.90
753.93	242.60
754.26	242.19
754.59	241.87
754.91	241.45
755.24	241.09
755.57	240.71
755.90	240.40
756.22	240.00
756.55	239.71
756.88	239.38
757.20	238.90
757.53	238.57
757.86	238.25
758.19	237.98
758.51	237.61
758.84	237.12
759.17	236.86
759.49	236.58
759.82	236.42
760.15	236.14
760.47	235.92
760.80	235.55
761.13	235.38
761.45	235.02
761.78	234.78
762.11	234.48
762.43	234.19
762.76	233.92
763.08	233.63
763.41	233.35
763.74	233.03
764.06	232.81
764.39	232.51
764.71	232.24
765.04	231.85
765.37	231.66
765.69	231.40
766.02	231.10
766.34	230.90
766.67	230.55
767.00	230.36
767.32	230.22
767.65	230.11
767.97	229.83
768.30	229.75
768.62	229.51
768.95	229.32
769.27	229.19
769.60	229.06
769.92	228.90
770.25	228.69
770.57	228.47
770.90	228.22
771.22	228.07
771.55	227.90
771.87	227.77
772.20	227.60
772.52	227.56
772.85	227.58
773.17	227.36
773.50	227.23
773.82	226.99
774.15	226.78
774.47	226.46
774.80	226.25
775.12	226.07
775.45	225.89
775.77	225.76
776.09	225.65
776.42	225.40
776.74	225.37
777.07	225.20
777.39	225.08
777.72	224.90
778.04	224.82
778.36	224.62
778.69	224.47
779.01	224.38
779.33	224.12
779.66	223.80
779.98	223.65
780.31	223.51
780.63	223.44
780.95	223.30
781.28	223.22
781.60	223.14
781.92	222.99
782.25	222.89
782.57	222.74
782.89	222.59
783.22	222.53
783.54	222.33
783.86	222.16
784.19	222.03
784.51	222.03
784.83	221.76
785.16	221.70
785.48	221.63
785.80	221.46
786.12	221.35
786.45	221.30
786.77	221.26
787.09	221.13
787.42	220.99
787.74	220.90
788.06	220.81
788.38	220.71
788.71	220.59
789.03	220.45
789.35	220.34
789.67	220.11
789.99	219.99
790.32	219.87
790.64	219.88
790.96	219.89
791.28	219.72
791.61	219.65
791.93	219.52
792.25	219.45
792.57	219.45
792.89	219.39
793.21	219.33
793.54	219.21
793.86	219.12
794.18	219.05
794.50	218.97
794.82	218.85
795.14	218.77
795.47	218.71
795.79	218.64
796.11	218.52
796.43	218.50
796.75	218.40
797.07	218.34
797.39	218.23
797.71	218.12
798.04	218.07
798.36	218.05
798.68	218.02
799.00	218.00
799.32	217.87
799.64	217.82
799.96	217.73
800.28	217.70
800.60	217.64
800.92	217.58
801.24	217.50
801.56	217.53
801.89	217.50
802.21	217.42
802.53	217.38
802.85	217.46
803.17	217.50
803.49	217.49
803.81	217.40
804.13	217.36
804.45	217.20
804.77	217.18
805.09	217.08
805.41	217.04
805.73	216.87
806.05	216.81
806.37	216.77
806.69	216.62
807.01	216.51
807.33	216.43
807.65	216.32
807.97	216.37
808.28	216.33
808.60	216.28
808.92	216.20
809.24	216.25
809.56	216.08
809.88	216.02
810.20	215.98
810.52	215.95
810.84	215.84
811.16	215.80
811.48	215.81
811.80	215.87
812.12	215.78
812.43	215.81
812.75	215.77
813.07	215.65
813.39	215.61
813.71	215.57
814.03	215.53
814.35	215.54
814.67	215.46
814.98	215.30
815.30	215.24
815.62	215.20
815.94	215.12
816.26	215.12
816.58	215.01
816.89	214.95
817.21	214.94
817.53	214.94
817.85	214.90
818.17	214.80
818.48	214.68
818.80	214.75
819.12	214.69
819.44	214.54
819.76	214.50
820.07	214.55
820.39	214.53
820.71	214.60
821.03	214.55
821.34	214.46
821.66	214.56
821.98	214.56
822.30	214.54
822.61	214.54
822.93	214.48
823.25	214.50
823.57	214.43
823.88	214.42
824.20	214.44
824.52	214.50
824.83	214.41
825.15	214.40
825.47	214.29
825.79	214.24
826.10	214.32
826.42	214.37
826.74	214.36
827.05	214.32
827.37	214.26
827.69	214.17
828.00	214.12
828.32	214.10
828.64	214.04
828.95	214.09
829.27	214.06
829.58	214.00
829.90	213.98
830.22	214.04
830.53	213.94
830.85	213.83
831.17	213.70
831.48	213.74
831.80	213.74
832.11	213.70
832.43	213.68
832.75	213.59
833.06	213.60
833.38	213.52
833.69	213.48
834.01	213.41
834.32	213.39
834.64	213.43
834.96	213.30
835.27	213.30
835.59	213.20
835.90	213.12
836.22	213.17
836.53	213.07
836.85	213.02
837.16	213.12
837.48	213.11
837.79	213.13
838.11	213.08
838.42	213.00
838.74	212.98
839.05	212.97
839.37	212.94
839.68	212.85
840.00	212.83
840.31	212.84
840.63	212.85
840.94	212.91
841.26	212.83
841.57	212.83
841.88	212.84
842.20	212.85
842.51	212.76
842.83	212.73
843.14	212.91
843.46	212.91
843.77	212.82
844.08	212.87
844.40	212.82
844.71	212.81
845.03	212.78
845.34	212.73
845.65	212.67
845.97	212.70
846.28	212.66
846.60	212.71
846.91	212.60
847.22	212.63
847.54	212.61
847.85	212.62
848.16	212.65
848.48	212.63
848.79	212.64
849.10	212.70
849.42	212.73
849.73	212.53
850.04	212.45
850.36	212.47
850.67	212.42
850.98	212.48
851.30	212.43
851.61	212.40
851.92	212.36
852.23	212.43
852.55	212.38
852.86	212.34
853.17	212.23
853.49	212.34
853.80	212.29
854.11	212.26
854.42	212.29
854.74	212.22
855.05	212.19
855.36	212.10
855.67	212.10
855.99	212.09
856.30	212.31
856.61	212.37
856.92	212.30
857.23	212.27
857.55	212.17
857.86	212.20
858.17	212.22
858.48	212.26
858.79	212.31
859.11	212.39
859.42	212.37
859.73	212.38
860.04	212.34
860.35	212.28
860.66	212.23
860.98	212.17
861.29	212.19
861.60	212.14
861.91	212.09
862.22	212.07
862.53	211.98
862.84	211.77
863.16	211.78
863.47	211.69
863.78	211.72
864.09	211.70
864.40	211.69
864.71	211.72
865.02	211.69
865.33	211.59
865.64	211.53
865.95	211.56
866.27	211.63
866.58	211.59
866.89	211.68
867.20	211.65
867.51	211.64
867.82	211.62
868.13	211.71
868.44	211.69
868.75	211.68
869.06	211.72
869.37	211.69
869.68	211.59
869.99	211.62
870.30	211.56
870.61	211.63
870.92	211.57
871.23	211.55
871.54	211.54
871.85	211.55
872.16	211.56
872.47	211.55
872.78	211.46
873.09	211.53
873.40	211.45
873.71	211.50
874.02	211.49
874.33	211.45
874.64	211.39
874.95	211.47
875.26	211.52
875.56	211.45
875.87	211.48
876.18	211.45
876.49	211.66
876.80	211.73
877.11	211.61
877.42	211.64
877.73	211.74
878.04	211.83
878.35	211.86
878.66	211.86
878.96	211.84
879.27	211.85
879.58	211.82
879.89	211.80
880.20	211.87
880.51	211.91
880.82	211.89
881.12	211.86
881.43	211.85
881.74	211.80
882.05	211.86
882.36	211.94
882.67	211.98
882.97	211.78
883.28	211.74
883.59	211.81
883.90	211.84
884.21	211.72
884.51	211.62
884.82	211.59
885.13	211.59
885.44	211.61
885.74	211.67
886.05	211.68
886.36	211.72
886.67	211.64
886.98	211.67
887.28	211.75
887.59	211.80
887.90	211.75
888.20	211.80
888.51	211.81
888.82	211.80
889.13	211.90
889.43	212.06
889.74	212.06
890.05	212.10
890.35	212.06
890.66	212.17
890.97	212.18
891.28	212.12
891.58	212.10
891.89	212.15
892.20	212.10
892.50	212.07
892.81	212.05
893.12	212.04
893.42	211.96
893.73	211.99
894.04	211.93
894.34	211.94
894.65	211.85
894.95	211.78
895.26	211.69
895.57	211.68
895.87	211.51
896.18	211.54
896.48	211.46
896.79	211.45
897.10	211.39
897.40	211.38
897.71	211.42
898.01	211.38
898.32	211.34
898.63	211.31
898.93	211.35
899.24	211.29
899.54	211.29
899.85	211.27
900.15	211.24
900.46	211.24
900.76	211.31
901.07	211.37
901.38	211.37
901.68	211.40
901.99	211.32
902.29	211.33
902.60	211.33
902.90	211.37
903.21	211.42
903.51	211.40
903.82	211.48
904.12	211.45
904.43	211.47
904.73	211.45
905.03	211.46
905.34	211.58
905.64	211.64
905.95	211.66
906.25	211.66
906.56	211.65
906.86	211.70
907.17	211.62
907.47	211.61
907.77	211.65
908.08	211.55
908.38	211.52
908.69	211.57
908.99	211.53
909.30	211.55
909.60	211.53
909.90	211.49
910.21	211.39
910.51	211.40
910.81	211.38
911.12	211.39
911.42	211.44
911.73	211.24
912.03	211.14
912.33	211.13
912.64	211.14
912.94	211.05
913.24	210.89
913.55	210.90
913.85	210.89
914.15	210.82
914.46	210.91
914.76	210.94
915.06	210.88
915.37	210.88
915.67	210.80
915.97	210.80
916.27	210.80
916.58	210.90
916.88	210.89
917.18	210.83
917.49	210.97
917.79	210.90
918.09	210.95
918.39	211.04
918.70	211.07
919.00	211.06
919.30	211.19
919.60	211.27
919.91	211.27
920.21	211.24
920.51	211.25
920.81	211.25
921.12	211.23
921.42	211.25
921.72	211.24
922.02	211.31
922.32	211.40
922.63	211.43
922.93	211.47
923.23	211.51
923.53	211.55
923.83	211.42
924.13	211.37
924.44	211.33
924.74	211.36
925.04	211.29
925.34	211.31
925.64	211.25
925.94	211.25
926.24	211.38
926.55	211.41
926.85	211.41
927.15	211.39
927.45	211.43
927.75	211.40
928.05	211.43
928.35	211.45
928.65	211.37
928.95	211.32
929.26	211.25
929.56	211.28
929.86	211.29
930.16	211.27
930.46	211.35
930.76	211.37
931.06	211.29
931.36	211.39
931.66	211.42
931.96	211.40
932.26	211.47
932.56	211.36
932.86	211.36
933.16	211.36
933.46	211.31
933.76	211.27
934.06	211.31
934.36	211.30
934.66	211.17
934.96	211.14
935.26	211.20
935.56	211.16
935.86	211.10
936.16	211.12
936.46	211.11
936.76	211.10
937.06	211.11
937.36	211.13
937.66	211.06
937.96	210.98
938.26	210.94
938.56	210.90
938.86	210.86
939.16	210.88
939.46	210.95
939.76	210.98
940.06	210.97
940.35	210.96
940.65	210.95
940.95	211.00
941.25	211.00
941.55	211.02
941.85	211.06
942.15	211.08
942.45	211.12
942.75	211.09
943.04	211.18
943.34	211.16
943.64	211.13
943.94	211.15
944.24	211.15
944.54	211.18
944.84	211.17
945.13	211.10
945.43	211.13
945.73	211.13
946.03	211.14
946.33	211.16
946.62	211.10
946.92	211.10
947.22	211.07
947.52	211.08
947.82	211.11
948.11	211.05
948.41	210.98
948.71	210.94
949.01	210.97
949.31	210.87
949.60	210.85
949.90	210.90
950.20	210.84
950.50	210.85
950.79	210.83
951.09	210.84
951.39	210.89
951.69	210.79
951.98	210.79
952.28	210.77
952.58	210.75
952.87	210.78
953.17	210.75
953.47	210.76
953.76	210.70
954.06	210.58
954.36	210.61
954.66	210.57
954.95	210.58
955.25	210.58
955.55	210.57
955.84	210.53
956.14	210.53
956.44	210.55
956.73	210.53
957.03	210.57
957.32	210.52
957.62	210.60
957.92	210.68
958.21	210.64
958.51	210.85
958.81	210.86
959.10	210.90
959.40	210.98
959.69	211.05
959.99	211.25
960.29	211.30
960.58	211.26
960.88	211.35
961.17	211.31
961.47	211.35
961.76	211.31
962.06	211.41
962.36	211.46
962.65	211.45
962.95	211.49
963.24	211.44
963.54	211.46
963.83	211.42
964.13	211.38
964.42	211.33
964.72	211.15
965.01	211.17
965.31	211.10
965.60	210.99
965.90	211.06
966.19	210.93
966.49	210.94
966.78	210.98
967.08	211.04
967.37	211.09
967.67	211.11
967.96	211.15
968.26	211.19
968.55	211.20
968.85	211.20
969.14	211.21
969.43	211.27
969.73	211.30
970.02	211.32
970.32	211.34
970.61	211.35
970.91	211.35
971.20	211.31
971.49	211.25
971.79	211.30
972.08	211.17
972.38	211.10
972.67	211.08
972.96	211.04
973.26	210.95
973.55	210.94
973.85	210.86
974.14	210.85
974.43	210.76
974.73	210.69
975.02	210.64
975.31	210.65
975.61	210.65
975.90	210.70
976.19	210.65
976.49	210.61
976.78	210.63
977.07	210.69
977.37	210.72
977.66	210.84
977.95	210.85
978.24	210.85
978.54	210.91
978.83	210.88
979.12	210.90
979.42	210.91
979.71	210.87
980.00	210.87
980.29	210.85
980.59	210.81
980.88	210.83
981.17	210.88
981.46	210.78
981.76	210.71
982.05	210.68
982.34	210.64
982.63	210.65
982.93	210.65
983.22	210.60
983.51	210.58
983.80	210.56
984.09	210.62
984.39	210.64
984.68	210.64
984.97	210.63
985.26	210.62
985.55	210.64
985.85	210.64
986.14	210.71
986.43	210.78
986.72	210.83
987.01	210.81
987.30	210.78
987.59	210.82
987.89	210.90
988.18	210.83
988.47	210.86
988.76	210.85
989.05	210.79
989.34	210.77
989.63	210.82
989.92	210.77
990.22	210.66
990.51	210.64
990.80	210.71
991.09	210.74
991.38	210.75
991.67	210.76
991.96	210.70
992.25	210.64
992.54	210.59
992.83	210.50
993.12	210.48
993.41	210.53
993.70	210.61
993.99	210.64
994.28	210.67
994.58	210.75
994.87	210.77
995.16	210.80
995.45	210.81
995.74	210.78
996.03	210.83
996.32	210.95
996.61	210.97
996.90	210.87
997.19	210.84
997.48	210.86
997.77	210.84
998.06	210.90
998.34	210.90
998.63	210.93
998.92	211.01
999.21	211.01
999.50	211.03
999.79	210.90
1000.08	210.87
1000.37	210.92
1000.66	210.80
1000.95	210.87
1001.24	210.94
1001.53	210.94
1001.82	210.91
1002.11	210.82
1002.40	210.78
1002.68	210.87
1002.97	211.05
1003.26	211.05
1003.55	211.02
1003.84	210.99
1004.13	211.14
1004.42	211.12
1004.71	211.10
1004.99	211.13
1005.28	211.25
1005.57	211.19
1005.86	211.22
1006.15	211.20
1006.44	211.12
1006.72	211.23
1007.01	211.11
1007.30	211.09
1007.59	211.12
1007.88	211.10
1008.17	211.22
1008.45	211.20
1008.74	211.17
1009.03	211.11
1009.32	211.21
1009.60	211.20
1009.89	211.19
1010.18	211.03
1010.47	211.00
1010.76	211.02
1011.04	211.02
1011.33	211.01
1011.62	211.07
1011.91	211.04
1012.19	211.07
1012.48	211.05
1012.77	210.97
1013.05	211.11
1013.34	211.07
1013.63	211.00
1013.92	210.96
1014.20	210.89
1014.49	210.92
1014.78	210.85
1015.06	210.79
1015.35	210.69
1015.64	210.77
1015.92	210.84
1016.21	210.94
1016.50	210.99
1016.78	211.02
1017.07	210.96
1017.36	210.95
1017.64	210.91
1017.93	211.00
1018.22	210.96
1018.50	210.98
1018.79	211.05
1019.08	211.01
1019.36	211.00
1019.65	211.01
1019.93	211.14
1020.22	211.10
1020.51	211.15
1020.79	211.17
1021.08	210.55
1021.36	210.20
1021.65	212.00
1021.94	211.65
1022.22	210.05
1022.51	210.45
1022.79	211.90
1023.08	209.75
1023.36	212.65
1023.65	210.70
>>>>>End Processed Spectral Data<<<<<
