SpectraSuite Data File
++++++++++++++++++++++++++++++++++++
Date: Mon Feb 25 17:31:41 EST 2013
User: group
Dark Spectrum Present: No
Reference Spectrum Present: No
Number of Sampled Component Spectra: 1
Spectrometers: USB2E7196
Integration Time (usec): 52000 (USB2E7196)
Spectra Averaged: 20 (USB2E7196)
Boxcar Smoothing: 10 (USB2E7196)
Correct for Electrical Dark: No (USB2E7196)
Strobe/Lamp Enabled: No (USB2E7196)
Correct for Detector Non-linearity: No (USB2E7196)
Correct for Stray Light: No (USB2E7196)
Number of Pixels in Processed Spectrum: 2048
>>>>>Begin Processed Spectral Data<<<<<
339.09	0.00
339.48	198.95
339.86	199.30
340.24	201.75
340.63	203.55
341.01	208.20
341.39	206.05
341.78	207.50
342.16	206.95
342.54	208.20
342.93	197.82
343.31	207.88
343.69	208.36
344.07	208.85
344.46	209.29
344.84	209.62
345.22	209.82
345.60	210.03
345.99	210.23
346.37	210.47
346.75	210.59
347.13	210.67
347.52	210.75
347.90	210.87
348.28	210.86
348.66	210.95
349.05	210.98
349.43	211.07
349.81	211.17
350.19	211.29
350.57	211.33
350.96	211.35
351.34	211.37
351.72	211.51
352.10	211.62
352.48	211.71
352.87	211.80
353.25	211.80
353.63	211.93
354.01	211.98
354.39	212.00
354.77	212.12
355.15	212.27
355.54	212.33
355.92	212.36
356.30	212.48
356.68	212.65
357.06	212.78
357.44	212.83
357.82	212.82
358.20	212.93
358.58	213.01
358.97	213.14
359.35	213.26
359.73	213.33
360.11	213.40
360.49	213.46
360.87	213.55
361.25	213.70
361.63	213.77
362.01	213.87
362.39	213.98
362.77	213.99
363.15	213.99
363.53	214.05
363.91	214.04
364.29	214.04
364.67	213.97
365.05	214.00
365.43	214.05
365.81	214.10
366.19	214.17
366.57	214.32
366.95	214.35
367.33	214.40
367.71	214.42
368.09	214.49
368.47	214.45
368.85	214.39
369.23	214.31
369.61	214.26
369.99	214.29
370.37	214.23
370.75	214.30
371.13	214.23
371.51	214.23
371.89	214.29
372.27	214.30
372.65	214.31
373.03	214.22
373.41	214.17
373.78	214.09
374.16	213.95
374.54	213.83
374.92	213.71
375.30	213.66
375.68	213.61
376.06	213.54
376.44	213.48
376.82	213.42
377.19	213.43
377.57	213.37
377.95	213.24
378.33	213.14
378.71	213.01
379.09	213.00
379.47	212.87
379.84	212.77
380.22	212.73
380.60	212.53
380.98	212.52
381.36	212.41
381.73	212.42
382.11	212.45
382.49	212.45
382.87	212.41
383.25	212.34
383.62	212.51
384.00	212.48
384.38	212.48
384.76	212.50
385.13	212.52
385.51	212.44
385.89	212.32
386.27	212.31
386.64	212.33
387.02	212.29
387.40	212.30
387.78	212.33
388.15	212.27
388.53	212.26
388.91	212.25
389.29	212.23
389.66	212.26
390.04	212.12
390.42	212.09
390.79	212.12
391.17	212.00
391.55	211.75
391.92	211.66
392.30	211.68
392.68	211.64
393.05	211.60
393.43	211.63
393.81	211.66
394.18	211.62
394.56	211.63
394.94	211.64
395.31	211.62
395.69	211.58
396.06	211.61
396.44	211.60
396.82	211.58
397.19	211.68
397.57	211.56
397.95	211.64
398.32	211.60
398.70	211.56
399.07	211.70
399.45	211.78
399.82	211.83
400.20	211.84
400.58	211.85
400.95	211.78
401.33	211.90
401.70	212.12
402.08	212.25
402.45	212.26
402.83	212.40
403.20	212.46
403.58	212.53
403.95	212.63
404.33	212.87
404.71	212.95
405.08	213.18
405.46	213.32
405.83	213.47
406.21	213.59
406.58	213.76
406.96	213.89
407.33	213.99
407.70	214.21
408.08	214.55
408.45	214.79
408.83	215.04
409.20	215.26
409.58	215.36
409.95	215.69
410.33	215.98
410.70	216.21
411.08	216.62
411.45	216.95
411.82	217.33
412.20	217.75
412.57	218.32
412.95	218.61
413.32	219.17
413.69	219.65
414.07	220.22
414.44	220.81
414.82	221.39
415.19	222.15
415.56	222.88
415.94	223.55
416.31	224.41
416.68	225.34
417.06	226.33
417.43	227.24
417.81	228.26
418.18	229.36
418.55	230.56
418.93	231.72
419.30	233.09
419.67	234.44
420.04	235.77
420.42	237.18
420.79	238.92
421.16	240.68
421.54	242.54
421.91	244.41
422.28	246.37
422.66	248.35
423.03	250.40
423.40	252.45
423.77	254.65
424.15	256.87
424.52	259.14
424.89	261.60
425.26	264.03
425.64	266.33
426.01	268.89
426.38	271.57
426.75	274.24
427.13	276.96
427.50	279.93
427.87	282.94
428.24	285.98
428.61	288.90
428.99	291.99
429.36	295.39
429.73	298.67
430.10	302.03
430.47	305.58
430.85	309.13
431.22	312.94
431.59	316.99
431.96	320.90
432.33	325.28
432.70	329.47
433.08	334.43
433.45	339.02
433.82	343.53
434.19	348.51
434.56	353.53
434.93	358.16
435.30	362.82
435.68	367.99
436.05	373.05
436.42	378.12
436.79	382.85
437.16	387.88
437.53	393.30
437.90	398.46
438.27	403.61
438.64	408.95
439.01	413.94
439.38	418.25
439.75	422.44
440.13	427.18
440.50	431.64
440.87	435.17
441.24	438.98
441.61	443.19
441.98	446.16
442.35	449.76
442.72	453.53
443.09	457.05
443.46	459.13
443.83	460.54
444.20	461.77
444.57	463.53
444.94	464.41
445.31	465.10
445.68	465.90
446.05	465.99
446.42	465.23
446.79	464.38
447.16	463.60
447.53	462.97
447.90	460.88
448.27	458.77
448.64	456.01
449.01	453.96
449.37	450.36
449.74	446.99
450.11	442.85
450.48	438.25
450.85	433.70
451.22	429.84
451.59	426.14
451.96	422.51
452.33	417.68
452.70	413.28
453.07	408.23
453.43	403.15
453.80	398.40
454.17	393.76
454.54	389.42
454.91	384.58
455.28	379.96
455.65	375.51
456.02	371.29
456.38	367.55
456.75	363.00
457.12	359.13
457.49	355.33
457.86	351.73
458.23	348.72
458.59	345.29
458.96	341.85
459.33	338.78
459.70	335.64
460.07	333.23
460.43	330.38
460.80	327.75
461.17	325.40
461.54	322.87
461.91	320.57
462.27	318.17
462.64	316.22
463.01	313.99
463.38	311.98
463.74	309.78
464.11	308.06
464.48	306.41
464.85	304.70
465.21	303.34
465.58	301.90
465.95	300.14
466.32	298.74
466.68	297.42
467.05	296.07
467.42	294.76
467.78	293.36
468.15	291.98
468.52	290.94
468.88	289.68
469.25	288.54
469.62	287.62
469.98	286.62
470.35	285.80
470.72	284.98
471.08	284.05
471.45	283.29
471.82	282.45
472.18	281.55
472.55	281.09
472.92	280.44
473.28	279.83
473.65	279.26
474.02	278.65
474.38	278.18
474.75	277.77
475.11	277.39
475.48	277.20
475.85	277.05
476.21	276.89
476.58	276.64
476.94	276.66
477.31	276.71
477.67	276.62
478.04	276.61
478.41	276.67
478.77	277.01
479.14	277.08
479.50	277.34
479.87	277.69
480.23	278.00
480.60	278.32
480.96	278.77
481.33	279.39
481.69	279.99
482.06	280.55
482.42	281.23
482.79	281.97
483.15	282.70
483.52	283.66
483.88	284.58
484.25	285.60
484.61	286.66
484.98	287.65
485.34	289.03
485.71	290.39
486.07	291.82
486.44	293.08
486.80	294.65
487.17	296.26
487.53	298.07
487.90	299.94
488.26	302.00
488.62	303.99
488.99	306.03
489.35	308.22
489.72	310.56
490.08	312.99
490.44	315.46
490.81	318.06
491.17	320.74
491.54	323.62
491.90	326.72
492.26	329.88
492.63	333.16
492.99	336.57
493.36	340.07
493.72	343.90
494.08	347.86
494.45	352.12
494.81	356.65
495.17	361.15
495.54	365.94
495.90	370.83
496.26	376.07
496.63	381.51
496.99	387.19
497.35	393.22
497.72	399.28
498.08	405.71
498.44	412.46
498.80	419.61
499.17	427.03
499.53	434.53
499.89	442.53
500.26	450.66
500.62	459.05
500.98	467.92
501.34	477.00
501.71	486.44
502.07	496.06
502.43	505.82
502.79	516.12
503.16	526.67
503.52	537.62
503.88	548.85
504.24	560.42
504.60	572.23
504.97	584.48
505.33	597.05
505.69	610.39
506.05	623.78
506.41	637.27
506.78	651.09
507.14	665.21
507.50	679.45
507.86	694.35
508.22	709.48
508.59	724.95
508.95	740.96
509.31	757.13
509.67	773.89
510.03	790.70
510.39	808.03
510.75	825.70
511.12	843.49
511.48	861.59
511.84	880.28
512.20	899.05
512.56	918.05
512.92	937.50
513.28	956.83
513.64	976.45
514.00	996.35
514.37	1016.33
514.73	1037.15
515.09	1058.02
515.45	1078.75
515.81	1099.67
516.17	1120.91
516.53	1142.03
516.89	1163.63
517.25	1184.99
517.61	1206.49
517.97	1228.10
518.33	1249.63
518.69	1271.41
519.05	1293.37
519.41	1315.14
519.77	1337.55
520.13	1359.49
520.49	1381.50
520.85	1403.96
521.21	1426.31
521.57	1449.05
521.93	1471.04
522.29	1493.33
522.65	1515.69
523.01	1538.18
523.37	1560.32
523.73	1582.18
524.09	1604.38
524.45	1626.22
524.81	1648.25
525.17	1670.68
525.53	1692.82
525.89	1715.05
526.25	1736.75
526.61	1757.79
526.97	1779.54
527.33	1800.58
527.68	1821.97
528.04	1842.74
528.40	1862.64
528.76	1883.31
529.12	1903.89
529.48	1925.37
529.84	1945.40
530.20	1965.55
530.56	1985.64
530.91	2006.16
531.27	2026.50
531.63	2046.04
531.99	2065.76
532.35	2084.77
532.71	2103.53
533.07	2122.86
533.42	2140.77
533.78	2159.52
534.14	2177.90
534.50	2194.61
534.86	2212.74
535.21	2229.25
535.57	2246.94
535.93	2264.10
536.29	2280.72
536.65	2296.72
537.00	2311.62
537.36	2327.13
537.72	2342.10
538.08	2357.04
538.44	2372.20
538.79	2387.45
539.15	2402.19
539.51	2416.72
539.87	2431.75
540.22	2445.94
540.58	2460.46
540.94	2474.87
541.29	2487.55
541.65	2499.46
542.01	2512.75
542.37	2523.85
542.72	2535.97
543.08	2546.66
543.44	2558.62
543.79	2568.51
544.15	2578.75
544.51	2590.10
544.87	2600.49
545.22	2609.55
545.58	2617.98
545.94	2624.77
546.29	2630.90
546.65	2636.98
547.01	2642.88
547.36	2648.33
547.72	2653.76
548.07	2657.29
548.43	2660.85
548.79	2664.74
549.14	2669.48
549.50	2673.21
549.86	2677.40
550.21	2681.11
550.57	2685.29
550.92	2687.69
551.28	2690.47
551.64	2692.74
551.99	2694.78
552.35	2696.64
552.70	2699.03
553.06	2701.48
553.41	2704.78
553.77	2707.67
554.13	2709.62
554.48	2711.53
554.84	2712.85
555.19	2713.33
555.55	2713.91
555.90	2714.72
556.26	2715.39
556.61	2715.36
556.97	2714.35
557.32	2713.66
557.68	2712.04
558.03	2710.28
558.39	2708.58
558.74	2707.82
559.10	2706.42
559.45	2704.55
559.81	2703.23
560.16	2700.77
560.52	2698.51
560.87	2695.28
561.23	2691.47
561.58	2689.28
561.94	2685.94
562.29	2682.33
562.64	2679.96
563.00	2677.47
563.35	2674.73
563.71	2672.55
564.06	2670.08
564.42	2667.94
564.77	2665.39
565.12	2663.44
565.48	2660.27
565.83	2657.16
566.19	2654.16
566.54	2650.02
566.89	2646.11
567.25	2642.15
567.60	2639.00
567.96	2635.17
568.31	2631.61
568.66	2628.01
569.02	2623.33
569.37	2618.37
569.72	2614.28
570.08	2609.17
570.43	2603.43
570.78	2597.51
571.14	2591.05
571.49	2584.33
571.84	2578.55
572.20	2571.79
572.55	2565.32
572.90	2558.33
573.26	2551.46
573.61	2544.16
573.96	2537.80
574.31	2529.80
574.67	2521.59
575.02	2513.04
575.37	2504.41
575.72	2495.27
576.08	2487.31
576.43	2478.64
576.78	2470.65
577.13	2462.58
577.49	2454.39
577.84	2446.70
578.19	2439.46
578.54	2431.85
578.90	2425.18
579.25	2416.37
579.60	2407.12
579.95	2397.90
580.30	2390.11
580.66	2382.21
581.01	2373.13
581.36	2363.99
581.71	2355.85
582.06	2347.60
582.42	2339.41
582.77	2330.57
583.12	2321.78
583.47	2313.02
583.82	2304.74
584.17	2295.58
584.53	2286.85
584.88	2277.98
585.23	2269.04
585.58	2259.98
585.93	2250.56
586.28	2241.60
586.63	2233.17
586.98	2225.38
587.34	2217.13
587.69	2207.96
588.04	2198.76
588.39	2190.61
588.74	2181.77
589.09	2173.01
589.44	2163.50
589.79	2154.93
590.14	2146.91
590.49	2138.86
590.84	2130.19
591.19	2122.38
591.54	2114.07
591.89	2104.12
592.25	2095.17
592.60	2086.01
592.95	2076.57
593.30	2067.44
593.65	2057.51
594.00	2047.84
594.35	2039.44
594.70	2030.12
595.05	2021.70
595.40	2013.03
595.75	2003.42
596.10	1995.18
596.45	1986.74
596.80	1979.18
597.15	1970.83
597.50	1961.92
597.85	1953.52
598.19	1944.76
598.54	1936.00
598.89	1928.09
599.24	1921.52
599.59	1914.32
599.94	1907.18
600.29	1899.36
600.64	1891.30
600.99	1883.17
601.34	1876.13
601.69	1867.42
602.04	1859.60
602.39	1851.58
602.74	1843.67
603.08	1837.36
603.43	1830.26
603.78	1822.52
604.13	1814.44
604.48	1806.83
604.83	1800.05
605.18	1793.15
605.53	1786.14
605.87	1778.49
606.22	1771.55
606.57	1763.50
606.92	1755.31
607.27	1747.24
607.62	1740.23
607.96	1733.82
608.31	1727.70
608.66	1720.07
609.01	1712.72
609.36	1705.14
609.70	1697.23
610.05	1689.75
610.40	1681.22
610.75	1672.63
611.10	1665.22
611.44	1656.30
611.79	1647.22
612.14	1637.91
612.49	1628.32
612.83	1619.40
613.18	1610.10
613.53	1600.90
613.88	1591.42
614.22	1582.54
614.57	1573.50
614.92	1564.22
615.27	1555.04
615.61	1545.27
615.96	1536.32
616.31	1527.70
616.65	1519.70
617.00	1511.61
617.35	1503.22
617.70	1494.75
618.04	1485.84
618.39	1476.39
618.74	1468.35
619.08	1460.05
619.43	1452.10
619.78	1444.38
620.12	1436.48
620.47	1428.99
620.82	1420.30
621.16	1412.09
621.51	1403.87
621.85	1395.65
622.20	1386.86
622.55	1378.42
622.89	1370.21
623.24	1362.24
623.59	1353.66
623.93	1345.32
624.28	1337.07
624.62	1328.80
624.97	1320.70
625.32	1313.15
625.66	1305.94
626.01	1298.36
626.35	1291.31
626.70	1283.44
627.04	1276.35
627.39	1268.76
627.73	1261.19
628.08	1254.84
628.43	1247.55
628.77	1240.19
629.12	1232.80
629.46	1226.68
629.81	1219.47
630.15	1212.37
630.50	1205.09
630.84	1198.12
631.19	1190.93
631.53	1184.01
631.88	1176.60
632.22	1168.99
632.57	1162.05
632.91	1154.61
633.26	1147.44
633.60	1140.27
633.95	1133.89
634.29	1126.42
634.64	1119.86
634.98	1112.77
635.32	1105.26
635.67	1099.06
636.01	1092.78
636.36	1086.09
636.70	1079.26
637.05	1072.74
637.39	1066.42
637.73	1060.09
638.08	1054.44
638.42	1048.74
638.77	1042.34
639.11	1036.23
639.45	1030.61
639.80	1024.13
640.14	1017.73
640.49	1011.56
640.83	1005.48
641.17	999.07
641.52	992.92
641.86	986.49
642.20	980.49
642.55	973.90
642.89	967.48
643.23	960.95
643.58	955.19
643.92	948.79
644.26	942.60
644.61	936.57
644.95	930.57
645.29	924.25
645.64	917.66
645.98	911.65
646.32	905.93
646.66	899.77
647.01	894.03
647.35	888.41
647.69	882.23
648.04	876.03
648.38	870.12
648.72	864.14
649.06	858.08
649.41	852.09
649.75	846.63
650.09	840.70
650.43	834.93
650.78	828.86
651.12	822.79
651.46	817.12
651.80	811.30
652.14	805.28
652.49	799.44
652.83	793.65
653.17	787.70
653.51	781.70
653.85	776.08
654.20	770.37
654.54	764.60
654.88	759.16
655.22	753.54
655.56	747.66
655.90	742.03
656.25	736.29
656.59	730.89
656.93	725.67
657.27	720.76
657.61	715.41
657.95	710.29
658.29	705.40
658.64	700.42
658.98	695.30
659.32	689.90
659.66	684.94
660.00	679.73
660.34	674.66
660.68	669.62
661.02	664.52
661.36	659.81
661.70	655.00
662.05	650.26
662.39	645.84
662.73	641.54
663.07	637.32
663.41	633.18
663.75	628.62
664.09	623.90
664.43	619.17
664.77	614.81
665.11	610.38
665.45	606.09
665.79	601.64
666.13	597.23
666.47	593.25
666.81	588.82
667.15	584.80
667.49	580.84
667.83	576.85
668.17	573.03
668.51	569.15
668.85	565.50
669.19	561.96
669.53	558.07
669.87	553.95
670.21	550.03
670.55	546.14
670.89	542.71
671.23	539.37
671.57	535.73
671.91	532.14
672.25	528.65
672.58	525.10
672.92	521.68
673.26	518.65
673.60	515.45
673.94	512.35
674.28	509.21
674.62	505.94
674.96	502.81
675.30	499.75
675.64	496.64
675.97	493.38
676.31	490.28
676.65	487.38
676.99	484.81
677.33	481.93
677.67	478.94
678.01	475.92
678.34	472.94
678.68	470.11
679.02	467.26
679.36	464.51
679.70	461.72
680.04	458.94
680.37	455.84
680.71	453.27
681.05	450.49
681.39	447.77
681.73	445.28
682.06	442.72
682.40	440.19
682.74	437.59
683.08	435.15
683.42	432.47
683.75	430.00
684.09	427.41
684.43	424.99
684.77	422.48
685.10	419.96
685.44	417.46
685.78	415.07
686.12	412.73
686.45	410.31
686.79	408.06
687.13	405.81
687.46	403.61
687.80	401.26
688.14	398.92
688.48	396.80
688.81	394.58
689.15	392.42
689.49	390.12
689.82	387.88
690.16	385.44
690.50	383.22
690.83	380.90
691.17	378.71
691.51	376.47
691.84	374.52
692.18	372.46
692.52	370.48
692.85	368.64
693.19	366.78
693.52	364.88
693.86	362.89
694.20	361.02
694.53	359.23
694.87	357.35
695.21	355.64
695.54	353.67
695.88	351.73
696.21	349.87
696.55	348.13
696.88	346.46
697.22	344.83
697.56	343.30
697.89	341.77
698.23	340.13
698.56	338.52
698.90	337.03
699.23	335.44
699.57	333.79
699.90	332.12
700.24	330.41
700.58	328.87
700.91	327.45
701.25	326.12
701.58	324.71
701.92	323.36
702.25	321.99
702.59	320.65
702.92	319.41
703.26	318.09
703.59	316.84
703.93	315.65
704.26	314.45
704.60	313.17
704.93	311.89
705.26	310.62
705.60	309.47
705.93	308.16
706.27	307.11
706.60	306.09
706.94	305.07
707.27	303.99
707.61	302.92
707.94	301.81
708.27	300.49
708.61	299.45
708.94	298.24
709.28	297.04
709.61	295.95
709.94	294.90
710.28	293.87
710.61	292.77
710.95	291.60
711.28	290.68
711.61	289.72
711.95	288.73
712.28	287.82
712.61	286.83
712.95	285.93
713.28	285.02
713.61	284.13
713.95	283.14
714.28	282.33
714.61	281.42
714.95	280.51
715.28	279.57
715.61	278.49
715.95	277.63
716.28	276.79
716.61	276.02
716.95	275.16
717.28	274.30
717.61	273.55
717.94	272.81
718.28	271.99
718.61	271.20
718.94	270.50
719.27	269.80
719.61	269.10
719.94	268.37
720.27	267.60
720.60	266.85
720.94	266.10
721.27	265.37
721.60	264.78
721.93	264.21
722.27	263.62
722.60	263.12
722.93	262.53
723.26	261.96
723.59	261.30
723.93	260.69
724.26	260.16
724.59	259.60
724.92	258.98
725.25	258.47
725.59	257.95
725.92	257.38
726.25	256.90
726.58	256.42
726.91	255.85
727.24	255.44
727.57	254.94
727.91	254.47
728.24	254.11
728.57	253.54
728.90	253.04
729.23	252.64
729.56	252.24
729.89	251.79
730.22	251.33
730.55	250.92
730.89	250.50
731.22	250.07
731.55	249.65
731.88	249.19
732.21	248.67
732.54	248.14
732.87	247.72
733.20	247.20
733.53	246.69
733.86	246.33
734.19	245.81
734.52	245.40
734.85	245.16
735.18	244.65
735.51	244.33
735.84	243.91
736.17	243.55
736.50	243.10
736.83	242.95
737.16	242.54
737.49	242.18
737.82	241.81
738.15	241.45
738.48	241.04
738.81	240.71
739.14	240.38
739.47	240.09
739.80	239.68
740.13	239.35
740.46	239.02
740.79	238.62
741.12	238.25
741.45	237.92
741.78	237.44
742.11	237.14
742.44	236.72
742.77	236.45
743.10	236.07
743.43	235.80
743.75	235.30
744.08	235.27
744.41	235.00
744.74	234.73
745.07	234.46
745.40	234.25
745.73	234.05
746.06	233.80
746.39	233.56
746.71	233.35
747.04	233.08
747.37	232.86
747.70	232.65
748.03	232.49
748.36	232.27
748.68	231.99
749.01	231.73
749.34	231.52
749.67	231.29
750.00	231.13
750.33	230.94
750.65	230.70
750.98	230.24
751.31	229.95
751.64	229.74
751.97	229.61
752.29	229.35
752.62	229.03
752.95	228.82
753.28	228.59
753.60	228.38
753.93	228.25
754.26	228.10
754.59	227.89
754.91	227.71
755.24	227.47
755.57	227.30
755.90	227.16
756.22	226.99
756.55	226.80
756.88	226.52
757.20	226.21
757.53	225.91
757.86	225.62
758.19	225.49
758.51	225.25
758.84	224.92
759.17	224.68
759.49	224.56
759.82	224.43
760.15	224.23
760.47	224.02
760.80	223.82
761.13	223.63
761.45	223.45
761.78	223.21
762.11	223.10
762.43	222.94
762.76	222.77
763.08	222.65
763.41	222.48
763.74	222.42
764.06	222.27
764.39	222.21
764.71	222.14
765.04	222.02
765.37	221.88
765.69	221.81
766.02	221.72
766.34	221.61
766.67	221.40
767.00	221.29
767.32	221.33
767.65	221.25
767.97	221.10
768.30	220.97
768.62	220.88
768.95	220.75
769.27	220.66
769.60	220.57
769.92	220.37
770.25	220.23
770.57	220.05
770.90	219.99
771.22	219.85
771.55	219.79
771.87	219.64
772.20	219.58
772.52	219.67
772.85	219.78
773.17	219.65
773.50	219.58
773.82	219.44
774.15	219.22
774.47	219.02
774.80	218.92
775.12	218.87
775.45	218.73
775.77	218.62
776.09	218.55
776.42	218.42
776.74	218.45
777.07	218.43
777.39	218.37
777.72	218.30
778.04	218.21
778.36	218.14
778.69	218.10
779.01	218.05
779.33	217.78
779.66	217.51
779.98	217.49
780.31	217.40
780.63	217.41
780.95	217.36
781.28	217.34
781.60	217.28
781.92	217.18
782.25	217.08
782.57	216.97
782.89	216.96
783.22	216.92
783.54	216.83
783.86	216.69
784.19	216.60
784.51	216.57
784.83	216.45
785.16	216.38
785.48	216.30
785.80	216.28
786.12	216.22
786.45	216.16
786.77	216.09
787.09	216.04
787.42	216.00
787.74	216.01
788.06	215.99
788.38	215.91
788.71	215.90
789.03	215.96
789.35	216.08
789.67	215.95
789.99	215.90
790.32	215.86
790.64	215.92
790.96	216.03
791.28	215.95
791.61	215.98
791.93	215.92
792.25	215.92
792.57	215.97
792.89	215.91
793.21	215.87
793.54	215.81
793.86	215.80
794.18	215.68
794.50	215.54
794.82	215.45
795.14	215.41
795.47	215.37
795.79	215.31
796.11	215.13
796.43	215.09
796.75	215.08
797.07	215.03
797.39	214.98
797.71	214.84
798.04	214.82
798.36	214.77
798.68	214.72
799.00	214.67
799.32	214.50
799.64	214.45
799.96	214.43
800.28	214.43
800.60	214.35
800.92	214.39
801.24	214.37
801.56	214.37
801.89	214.38
802.21	214.32
802.53	214.21
802.85	214.23
803.17	214.29
803.49	214.22
803.81	214.18
804.13	214.11
804.45	214.14
804.77	214.10
805.09	214.11
805.41	214.14
805.73	214.10
806.05	214.11
806.37	214.04
806.69	214.01
807.01	213.99
807.33	213.96
807.65	213.90
807.97	213.97
808.28	213.94
808.60	213.85
808.92	213.85
809.24	213.89
809.56	213.93
809.88	213.86
810.20	213.84
810.52	213.82
810.84	213.80
811.16	213.71
811.48	213.64
811.80	213.70
812.12	213.70
812.43	213.70
812.75	213.69
813.07	213.71
813.39	213.75
813.71	213.66
814.03	213.64
814.35	213.63
814.67	213.54
814.98	213.50
815.30	213.53
815.62	213.43
815.94	213.37
816.26	213.29
816.58	213.28
816.89	213.28
817.21	213.20
817.53	213.17
817.85	213.14
818.17	213.18
818.48	213.04
818.80	212.99
819.12	212.96
819.44	212.90
819.76	212.83
820.07	212.86
820.39	212.90
820.71	212.87
821.03	212.84
821.34	212.85
821.66	212.81
821.98	212.82
822.30	212.84
822.61	212.97
822.93	212.95
823.25	212.87
823.57	212.81
823.88	212.85
824.20	212.79
824.52	212.82
824.83	212.74
825.15	212.72
825.47	212.71
825.79	212.70
826.10	212.66
826.42	212.69
826.74	212.59
827.05	212.61
827.37	212.60
827.69	212.56
828.00	212.55
828.32	212.53
828.64	212.50
828.95	212.51
829.27	212.42
829.58	212.41
829.90	212.45
830.22	212.46
830.53	212.36
830.85	212.41
831.17	212.31
831.48	212.31
831.80	212.28
832.11	212.21
832.43	212.13
832.75	212.14
833.06	212.23
833.38	212.14
833.69	212.06
834.01	212.11
834.32	212.12
834.64	212.04
834.96	212.13
835.27	212.10
835.59	212.08
835.90	212.00
836.22	211.96
836.53	211.88
836.85	211.88
837.16	212.11
837.48	212.08
837.79	212.11
838.11	212.12
838.42	212.14
838.74	212.19
839.05	212.21
839.37	212.12
839.68	212.00
840.00	212.04
840.31	212.04
840.63	212.01
840.94	211.95
841.26	211.96
841.57	211.89
841.88	211.92
842.20	211.89
842.51	211.90
842.83	211.93
843.14	212.09
843.46	212.08
843.77	211.93
844.08	211.97
844.40	211.93
844.71	211.87
845.03	211.86
845.34	211.82
845.65	211.86
845.97	211.90
846.28	211.89
846.60	211.88
846.91	211.85
847.22	211.82
847.54	211.83
847.85	211.83
848.16	211.82
848.48	211.74
848.79	211.79
849.10	211.80
849.42	211.78
849.73	211.63
850.04	211.58
850.36	211.56
850.67	211.53
850.98	211.56
851.30	211.57
851.61	211.55
851.92	211.54
852.23	211.57
852.55	211.57
852.86	211.63
853.17	211.66
853.49	211.75
853.80	211.81
854.11	211.81
854.42	211.85
854.74	211.80
855.05	211.84
855.36	211.73
855.67	211.77
855.99	211.77
856.30	211.94
856.61	211.95
856.92	211.91
857.23	211.92
857.55	211.86
857.86	211.86
858.17	211.92
858.48	211.87
858.79	211.81
859.11	211.86
859.42	211.80
859.73	211.81
860.04	211.72
860.35	211.66
860.66	211.69
860.98	211.71
861.29	211.74
861.60	211.74
861.91	211.85
862.22	211.78
862.53	211.75
862.84	211.60
863.16	211.58
863.47	211.55
863.78	211.51
864.09	211.56
864.40	211.55
864.71	211.46
865.02	211.47
865.33	211.50
865.64	211.44
865.95	211.38
866.27	211.45
866.58	211.49
866.89	211.53
867.20	211.48
867.51	211.41
867.82	211.46
868.13	211.49
868.44	211.39
868.75	211.44
869.06	211.50
869.37	211.53
869.68	211.49
869.99	211.56
870.30	211.58
870.61	211.61
870.92	211.60
871.23	211.64
871.54	211.69
871.85	211.73
872.16	211.74
872.47	211.76
872.78	211.67
873.09	211.55
873.40	211.51
873.71	211.48
874.02	211.48
874.33	211.37
874.64	211.28
874.95	211.37
875.26	211.25
875.56	211.19
875.87	211.15
876.18	211.22
876.49	211.37
876.80	211.38
877.11	211.28
877.42	211.30
877.73	211.26
878.04	211.25
878.35	211.16
878.66	211.13
878.96	211.13
879.27	211.08
879.58	211.14
879.89	211.13
880.20	211.21
880.51	211.24
880.82	211.32
881.12	211.37
881.43	211.23
881.74	211.29
882.05	211.26
882.36	211.31
882.67	211.34
882.97	211.16
883.28	211.09
883.59	211.11
883.90	211.14
884.21	211.24
884.51	211.16
884.82	211.07
885.13	211.08
885.44	211.08
885.74	211.12
886.05	211.13
886.36	211.13
886.67	211.10
886.98	211.16
887.28	211.11
887.59	211.06
887.90	211.09
888.20	211.09
888.51	211.22
888.82	211.20
889.13	211.18
889.43	211.30
889.74	211.36
890.05	211.39
890.35	211.39
890.66	211.31
890.97	211.36
891.28	211.41
891.58	211.45
891.89	211.44
892.20	211.42
892.50	211.44
892.81	211.43
893.12	211.42
893.42	211.36
893.73	211.36
894.04	211.41
894.34	211.50
894.65	211.50
894.95	211.39
895.26	211.33
895.57	211.41
895.87	211.21
896.18	211.26
896.48	211.25
896.79	211.21
897.10	211.20
897.40	211.24
897.71	211.34
898.01	211.40
898.32	211.44
898.63	211.43
898.93	211.38
899.24	211.38
899.54	211.40
899.85	211.38
900.15	211.46
900.46	211.50
900.76	211.53
901.07	211.51
901.38	211.52
901.68	211.59
901.99	211.47
902.29	211.47
902.60	211.42
902.90	211.45
903.21	211.45
903.51	211.53
903.82	211.55
904.12	211.49
904.43	211.42
904.73	211.43
905.03	211.47
905.34	211.63
905.64	211.60
905.95	211.56
906.25	211.47
906.56	211.42
906.86	211.39
907.17	211.30
907.47	211.31
907.77	211.33
908.08	211.28
908.38	211.34
908.69	211.39
908.99	211.39
909.30	211.37
909.60	211.40
909.90	211.43
910.21	211.36
910.51	211.40
910.81	211.44
911.12	211.42
911.42	211.35
911.73	211.19
912.03	211.22
912.33	211.24
912.64	211.30
912.94	211.31
913.24	211.26
913.55	211.22
913.85	211.22
914.15	211.23
914.46	211.30
914.76	211.26
915.06	211.26
915.37	211.27
915.67	211.25
915.97	211.22
916.27	211.06
916.58	211.08
916.88	210.99
917.18	210.97
917.49	211.12
917.79	211.20
918.09	211.25
918.39	211.28
918.70	211.32
919.00	211.34
919.30	211.37
919.60	211.37
919.91	211.48
920.21	211.49
920.51	211.45
920.81	211.39
921.12	211.37
921.42	211.36
921.72	211.34
922.02	211.36
922.32	211.44
922.63	211.48
922.93	211.60
923.23	211.63
923.53	211.59
923.83	211.46
924.13	211.48
924.44	211.49
924.74	211.55
925.04	211.61
925.34	211.56
925.64	211.58
925.94	211.62
926.24	211.67
926.55	211.65
926.85	211.68
927.15	211.71
927.45	211.75
927.75	211.75
928.05	211.76
928.35	211.75
928.65	211.69
928.95	211.68
929.26	211.56
929.56	211.66
929.86	211.70
930.16	211.66
930.46	211.58
930.76	211.57
931.06	211.47
931.36	211.42
931.66	211.50
931.96	211.46
932.26	211.45
932.56	211.32
932.86	211.33
933.16	211.42
933.46	211.41
933.76	211.31
934.06	211.36
934.36	211.40
934.66	211.43
934.96	211.49
935.26	211.53
935.56	211.57
935.86	211.48
936.16	211.45
936.46	211.43
936.76	211.44
937.06	211.37
937.36	211.34
937.66	211.27
937.96	211.24
938.26	211.14
938.56	211.12
938.86	211.19
939.16	211.26
939.46	211.18
939.76	211.19
940.06	211.28
940.35	211.20
940.65	211.14
940.95	211.14
941.25	211.11
941.55	211.11
941.85	211.10
942.15	211.14
942.45	211.14
942.75	211.18
943.04	211.23
943.34	211.33
943.64	211.30
943.94	211.30
944.24	211.32
944.54	211.41
944.84	211.35
945.13	211.27
945.43	211.17
945.73	211.19
946.03	211.19
946.33	211.10
946.62	211.14
946.92	211.03
947.22	211.03
947.52	210.99
947.82	210.93
948.11	210.92
948.41	210.84
948.71	210.86
949.01	210.92
949.31	210.83
949.60	210.81
949.90	210.88
950.20	210.88
950.50	210.87
950.79	210.82
951.09	210.83
951.39	210.84
951.69	210.88
951.98	210.88
952.28	210.88
952.58	210.88
952.87	210.89
953.17	210.93
953.47	210.90
953.76	210.95
954.06	210.97
954.36	210.90
954.66	210.97
954.95	210.92
955.25	210.87
955.55	210.88
955.84	210.83
956.14	210.89
956.44	210.85
956.73	210.85
957.03	210.84
957.32	210.92
957.62	210.91
957.92	210.91
958.21	210.90
958.51	211.05
958.81	211.08
959.10	211.06
959.40	211.09
959.69	211.12
959.99	211.11
960.29	211.09
960.58	211.10
960.88	211.12
961.17	211.16
961.47	211.21
961.76	211.24
962.06	211.34
962.36	211.29
962.65	211.32
962.95	211.32
963.24	211.29
963.54	211.22
963.83	211.23
964.13	211.22
964.42	211.20
964.72	211.06
965.01	211.10
965.31	211.08
965.60	211.10
965.90	211.23
966.19	211.16
966.49	211.15
966.78	211.18
967.08	211.10
967.37	211.03
967.67	211.02
967.96	211.06
968.26	210.96
968.55	210.96
968.85	210.94
969.14	210.89
969.43	210.92
969.73	211.00
970.02	211.00
970.32	210.97
970.61	210.96
970.91	210.93
971.20	210.90
971.49	210.91
971.79	210.97
972.08	210.81
972.38	210.82
972.67	210.89
972.96	210.89
973.26	210.85
973.55	210.92
973.85	210.87
974.14	210.88
974.43	210.94
974.73	210.90
975.02	210.86
975.31	210.88
975.61	210.86
975.90	210.75
976.19	210.77
976.49	210.74
976.78	210.75
977.07	210.77
977.37	210.75
977.66	210.74
977.95	210.74
978.24	210.75
978.54	210.79
978.83	210.79
979.12	210.76
979.42	210.80
979.71	210.83
980.00	210.80
980.29	210.80
980.59	210.70
980.88	210.76
981.17	210.78
981.46	210.81
981.76	210.76
982.05	210.79
982.34	210.76
982.63	210.83
982.93	210.85
983.22	210.85
983.51	210.89
983.80	210.97
984.09	210.93
984.39	210.90
984.68	210.85
984.97	210.78
985.26	210.81
985.55	210.89
985.85	210.78
986.14	210.77
986.43	210.75
986.72	210.75
987.01	210.69
987.30	210.67
987.59	210.65
987.89	210.69
988.18	210.75
988.47	210.68
988.76	210.69
989.05	210.69
989.34	210.64
989.63	210.64
989.92	210.61
990.22	210.61
990.51	210.63
990.80	210.65
991.09	210.69
991.38	210.68
991.67	210.61
991.96	210.63
992.25	210.69
992.54	210.68
992.83	210.73
993.12	210.74
993.41	210.77
993.70	210.95
993.99	211.00
994.28	210.96
994.58	211.03
994.87	211.00
995.16	210.98
995.45	210.95
995.74	210.87
996.03	210.81
996.32	210.80
996.61	210.79
996.90	210.76
997.19	210.74
997.48	210.73
997.77	210.70
998.06	210.65
998.34	210.59
998.63	210.50
998.92	210.51
999.21	210.50
999.50	210.49
999.79	210.26
1000.08	210.25
1000.37	210.27
1000.66	210.28
1000.95	210.37
1001.24	210.30
1001.53	210.40
1001.82	210.46
1002.11	210.51
1002.40	210.58
1002.68	210.67
1002.97	210.77
1003.26	210.79
1003.55	210.75
1003.84	210.81
1004.13	210.92
1004.42	210.85
1004.71	210.93
1004.99	210.86
1005.28	210.89
1005.57	210.95
1005.86	210.98
1006.15	210.97
1006.44	210.98
1006.72	210.97
1007.01	210.85
1007.30	210.91
1007.59	210.84
1007.88	210.83
1008.17	210.82
1008.45	210.82
1008.74	210.76
1009.03	210.64
1009.32	210.64
1009.60	210.67
1009.89	210.64
1010.18	210.57
1010.47	210.63
1010.76	210.64
1011.04	210.62
1011.33	210.64
1011.62	210.54
1011.91	210.59
1012.19	210.59
1012.48	210.58
1012.77	210.55
1013.05	210.66
1013.34	210.59
1013.63	210.60
1013.92	210.63
1014.20	210.63
1014.49	210.61
1014.78	210.58
1015.06	210.59
1015.35	210.55
1015.64	210.63
1015.92	210.66
1016.21	210.70
1016.50	210.75
1016.78	210.76
1017.07	210.87
1017.36	210.86
1017.64	210.89
1017.93	210.80
1018.22	210.80
1018.50	210.85
1018.79	210.90
1019.08	210.80
1019.36	210.85
1019.65	210.81
1019.93	210.81
1020.22	210.84
1020.51	210.90
1020.79	210.92
1021.08	210.50
1021.36	211.55
1021.65	211.15
1021.94	210.55
1022.22	210.70
1022.51	210.05
1022.79	211.20
1023.08	211.25
1023.36	213.35
1023.65	210.85
>>>>>End Processed Spectral Data<<<<<
