SpectraSuite Data File
++++++++++++++++++++++++++++++++++++
Date: Mon Feb 25 17:33:32 EST 2013
User: group
Dark Spectrum Present: No
Reference Spectrum Present: No
Number of Sampled Component Spectra: 1
Spectrometers: USB2E7196
Integration Time (usec): 52000 (USB2E7196)
Spectra Averaged: 20 (USB2E7196)
Boxcar Smoothing: 10 (USB2E7196)
Correct for Electrical Dark: No (USB2E7196)
Strobe/Lamp Enabled: No (USB2E7196)
Correct for Detector Non-linearity: No (USB2E7196)
Correct for Stray Light: No (USB2E7196)
Number of Pixels in Processed Spectrum: 2048
>>>>>Begin Processed Spectral Data<<<<<
339.09	0.00
339.48	198.75
339.86	200.45
340.24	201.75
340.63	203.15
341.01	206.90
341.39	206.15
341.78	206.55
342.16	208.60
342.54	208.25
342.93	198.15
343.31	208.13
343.69	208.68
344.07	209.20
344.46	209.64
344.84	210.06
345.22	210.27
345.60	210.58
345.99	210.80
346.37	210.91
346.75	211.09
347.13	211.15
347.52	211.23
347.90	211.39
348.28	211.40
348.66	211.46
349.05	211.33
349.43	211.29
349.81	211.39
350.19	211.50
350.57	211.51
350.96	211.60
351.34	211.69
351.72	211.83
352.10	211.88
352.48	211.98
352.87	211.99
353.25	212.07
353.63	212.03
354.01	212.14
354.39	212.24
354.77	212.33
355.15	212.49
355.54	212.54
355.92	212.50
356.30	212.55
356.68	212.74
357.06	212.89
357.44	213.06
357.82	213.12
358.20	213.22
358.58	213.32
358.97	213.37
359.35	213.50
359.73	213.55
360.11	213.63
360.49	213.67
360.87	213.74
361.25	213.84
361.63	213.95
362.01	213.99
362.39	214.00
362.77	214.04
363.15	214.11
363.53	214.20
363.91	214.21
364.29	214.32
364.67	214.18
365.05	214.20
365.43	214.12
365.81	214.10
366.19	214.22
366.57	214.35
366.95	214.36
367.33	214.32
367.71	214.35
368.09	214.40
368.47	214.33
368.85	214.33
369.23	214.31
369.61	214.29
369.99	214.35
370.37	214.40
370.75	214.44
371.13	214.30
371.51	214.18
371.89	214.22
372.27	214.20
372.65	214.17
373.03	214.12
373.41	214.09
373.78	214.15
374.16	213.96
374.54	213.89
374.92	213.80
375.30	213.73
375.68	213.65
376.06	213.55
376.44	213.58
376.82	213.52
377.19	213.41
377.57	213.37
377.95	213.20
378.33	213.20
378.71	213.08
379.09	213.05
379.47	213.14
379.84	213.03
380.22	212.92
380.60	212.89
380.98	212.86
381.36	212.92
381.73	212.82
382.11	212.81
382.49	212.71
382.87	212.67
383.25	212.66
383.62	212.77
384.00	212.62
384.38	212.57
384.76	212.64
385.13	212.70
385.51	212.69
385.89	212.65
386.27	212.57
386.64	212.46
387.02	212.46
387.40	212.29
387.78	212.32
388.15	212.27
388.53	212.16
388.91	212.11
389.29	211.99
389.66	211.93
390.04	211.85
390.42	211.89
390.79	211.89
391.17	211.83
391.55	211.68
391.92	211.70
392.30	211.71
392.68	211.63
393.05	211.64
393.43	211.60
393.81	211.62
394.18	211.59
394.56	211.65
394.94	211.66
395.31	211.66
395.69	211.58
396.06	211.60
396.44	211.67
396.82	211.74
397.19	211.94
397.57	212.00
397.95	212.10
398.32	212.09
398.70	212.11
399.07	212.19
399.45	212.20
399.82	212.25
400.20	212.15
400.58	212.19
400.95	212.17
401.33	212.17
401.70	212.30
402.08	212.36
402.45	212.45
402.83	212.61
403.20	212.68
403.58	212.85
403.95	212.89
404.33	213.02
404.71	213.06
405.08	213.14
405.46	213.22
405.83	213.30
406.21	213.37
406.58	213.60
406.96	213.73
407.33	213.90
407.70	214.19
408.08	214.61
408.45	214.81
408.83	215.08
409.20	215.41
409.58	215.53
409.95	215.75
410.33	216.06
410.70	216.25
411.08	216.59
411.45	216.97
411.82	217.42
412.20	217.81
412.57	218.36
412.95	218.66
413.32	219.22
413.69	219.73
414.07	220.25
414.44	220.80
414.82	221.48
415.19	222.20
415.56	222.94
415.94	223.62
416.31	224.50
416.68	225.36
417.06	226.36
417.43	227.40
417.81	228.51
418.18	229.60
418.55	230.78
418.93	232.11
419.30	233.35
419.67	234.70
420.04	236.16
420.42	237.65
420.79	239.52
421.16	241.20
421.54	243.12
421.91	245.03
422.28	246.94
422.66	249.00
423.03	251.03
423.40	253.01
423.77	255.28
424.15	257.48
424.52	259.71
424.89	262.18
425.26	264.60
425.64	267.03
426.01	269.61
426.38	272.30
426.75	274.95
427.13	277.85
427.50	280.78
427.87	283.83
428.24	286.88
428.61	289.75
428.99	293.07
429.36	296.48
429.73	300.02
430.10	303.51
430.47	307.05
430.85	310.76
431.22	314.66
431.59	318.88
431.96	322.86
432.33	327.24
432.70	331.47
433.08	336.44
433.45	341.02
433.82	345.62
434.19	350.72
434.56	355.77
434.93	360.55
435.30	365.43
435.68	370.80
436.05	376.07
436.42	381.34
436.79	385.95
437.16	391.01
437.53	396.33
437.90	401.54
438.27	406.78
438.64	412.10
439.01	417.01
439.38	421.36
439.75	425.50
440.13	430.46
440.50	435.09
440.87	438.72
441.24	442.55
441.61	446.91
441.98	450.03
442.35	453.49
442.72	457.09
443.09	460.51
443.46	462.40
443.83	463.75
444.20	464.83
444.57	466.68
444.94	467.55
445.31	468.25
445.68	469.00
446.05	469.09
446.42	468.50
446.79	467.81
447.16	466.92
447.53	466.30
447.90	464.12
448.27	461.90
448.64	459.10
449.01	456.97
449.37	453.25
449.74	449.68
450.11	445.70
450.48	441.26
450.85	436.73
451.22	432.86
451.59	429.10
451.96	425.49
452.33	420.63
452.70	416.29
453.07	411.24
453.43	406.00
453.80	401.04
454.17	396.25
454.54	391.65
454.91	386.64
455.28	381.92
455.65	377.46
456.02	373.16
456.38	369.39
456.75	364.69
457.12	360.82
457.49	357.05
457.86	353.32
458.23	350.09
458.59	346.54
458.96	342.97
459.33	339.78
459.70	336.64
460.07	334.18
460.43	331.23
460.80	328.49
461.17	326.16
461.54	323.73
461.91	321.23
462.27	318.95
462.64	317.06
463.01	314.94
463.38	312.90
463.74	310.70
464.11	308.88
464.48	307.35
464.85	305.57
465.21	304.15
465.58	302.74
465.95	301.05
466.32	299.69
466.68	298.27
467.05	296.89
467.42	295.57
467.78	294.05
468.15	292.73
468.52	291.75
468.88	290.48
469.25	289.25
469.62	288.47
469.98	287.52
470.35	286.65
470.72	285.73
471.08	284.70
471.45	283.94
471.82	283.13
472.18	282.26
472.55	281.64
472.92	281.01
473.28	280.37
473.65	279.66
474.02	279.09
474.38	278.70
474.75	278.35
475.11	277.97
475.48	277.70
475.85	277.45
476.21	277.23
476.58	277.05
476.94	277.13
477.31	277.02
477.67	276.94
478.04	276.94
478.41	277.09
478.77	277.47
479.14	277.62
479.50	277.93
479.87	278.28
480.23	278.72
480.60	279.09
480.96	279.56
481.33	280.26
481.69	280.84
482.06	281.44
482.42	282.03
482.79	282.73
483.15	283.65
483.52	284.63
483.88	285.62
484.25	286.71
484.61	287.62
484.98	288.71
485.34	290.04
485.71	291.40
486.07	292.78
486.44	294.07
486.80	295.71
487.17	297.25
487.53	298.97
487.90	300.80
488.26	302.67
488.62	304.74
488.99	306.72
489.35	308.95
489.72	311.26
490.08	313.61
490.44	315.97
490.81	318.57
491.17	321.20
491.54	324.02
491.90	327.01
492.26	330.30
492.63	333.67
492.99	337.05
493.36	340.76
493.72	344.59
494.08	348.63
494.45	352.74
494.81	357.14
495.17	361.78
495.54	366.63
495.90	371.79
496.26	376.93
496.63	382.49
496.99	388.24
497.35	394.19
497.72	400.53
498.08	407.15
498.44	413.94
498.80	421.19
499.17	428.67
499.53	436.21
499.89	443.99
500.26	452.01
500.62	460.25
500.98	468.93
501.34	478.11
501.71	487.69
502.07	497.39
502.43	507.50
502.79	517.76
503.16	528.38
503.52	539.33
503.88	550.55
504.24	562.12
504.60	573.92
504.97	586.30
505.33	598.93
505.69	612.04
506.05	625.52
506.41	639.10
506.78	652.80
507.14	667.04
507.50	681.65
507.86	696.85
508.22	712.47
508.59	728.12
508.95	744.05
509.31	760.15
509.67	776.92
510.03	793.70
510.39	811.20
510.75	828.89
511.12	846.96
511.48	865.30
511.84	883.77
512.20	902.58
512.56	921.65
512.92	941.23
513.28	960.84
513.64	980.50
514.00	1000.50
514.37	1021.09
514.73	1041.92
515.09	1062.80
515.45	1083.53
515.81	1104.62
516.17	1125.95
516.53	1147.36
516.89	1169.05
517.25	1190.53
517.61	1212.28
517.97	1233.63
518.33	1255.09
518.69	1276.77
519.05	1299.08
519.41	1321.65
519.77	1344.34
520.13	1366.57
520.49	1388.54
520.85	1411.31
521.21	1434.31
521.57	1457.15
521.93	1479.09
522.29	1501.77
522.65	1524.50
523.01	1547.10
523.37	1569.16
523.73	1591.63
524.09	1613.92
524.45	1636.37
524.81	1659.03
525.17	1681.80
525.53	1704.46
525.89	1727.11
526.25	1749.19
526.61	1770.38
526.97	1791.64
527.33	1812.96
527.68	1834.59
528.04	1855.76
528.40	1876.12
528.76	1896.50
529.12	1917.21
529.48	1939.21
529.84	1959.82
530.20	1980.21
530.56	2000.67
530.91	2021.52
531.27	2041.91
531.63	2061.85
531.99	2081.48
532.35	2100.84
532.71	2119.64
533.07	2139.14
533.42	2157.66
533.78	2176.70
534.14	2195.32
534.50	2212.70
534.86	2230.75
535.21	2247.65
535.57	2265.98
535.93	2283.39
536.29	2300.59
536.65	2317.28
537.00	2332.38
537.36	2347.72
537.72	2362.97
538.08	2378.49
538.44	2394.30
538.79	2409.67
539.15	2424.63
539.51	2439.55
539.87	2454.38
540.22	2469.32
540.58	2484.30
540.94	2498.94
541.29	2511.92
541.65	2524.26
542.01	2537.87
542.37	2549.68
542.72	2562.18
543.08	2572.95
543.44	2585.16
543.79	2595.10
544.15	2605.60
544.51	2617.06
544.87	2627.97
545.22	2637.01
545.58	2644.90
545.94	2651.75
546.29	2658.25
546.65	2664.69
547.01	2670.72
547.36	2676.73
547.72	2682.00
548.07	2685.92
548.43	2689.55
548.79	2693.40
549.14	2698.13
549.50	2702.13
549.86	2706.32
550.21	2710.23
550.57	2714.52
550.92	2716.72
551.28	2719.48
551.64	2722.07
551.99	2724.65
552.35	2726.48
552.70	2729.70
553.06	2733.12
553.41	2736.21
553.77	2738.87
554.13	2741.22
554.48	2743.30
554.84	2744.63
555.19	2745.32
555.55	2746.01
555.90	2746.64
556.26	2747.18
556.61	2747.02
556.97	2745.97
557.32	2745.67
557.68	2744.11
558.03	2742.51
558.39	2741.29
558.74	2741.08
559.10	2739.83
559.45	2737.30
559.81	2736.04
560.16	2733.46
560.52	2730.76
560.87	2727.49
561.23	2724.22
561.58	2722.09
561.94	2718.87
562.29	2715.37
562.64	2713.02
563.00	2710.43
563.35	2708.45
563.71	2706.86
564.06	2704.88
564.42	2703.08
564.77	2700.57
565.12	2698.45
565.48	2695.35
565.83	2692.19
566.19	2688.68
566.54	2684.28
566.89	2680.56
567.25	2676.65
567.60	2673.10
567.96	2669.55
568.31	2666.39
568.66	2662.65
569.02	2657.86
569.37	2652.83
569.72	2649.05
570.08	2643.73
570.43	2638.23
570.78	2632.44
571.14	2626.12
571.49	2619.45
571.84	2613.72
572.20	2606.84
572.55	2600.44
572.90	2593.55
573.26	2586.71
573.61	2579.54
573.96	2573.39
574.31	2565.41
574.67	2557.38
575.02	2548.99
575.37	2540.53
575.72	2531.51
576.08	2523.85
576.43	2515.20
576.78	2507.26
577.13	2499.05
577.49	2491.03
577.84	2483.43
578.19	2475.56
578.54	2468.09
578.90	2461.22
579.25	2452.13
579.60	2442.91
579.95	2433.76
580.30	2425.77
580.66	2417.34
581.01	2408.45
581.36	2398.89
581.71	2390.70
582.06	2381.91
582.42	2373.63
582.77	2364.53
583.12	2355.55
583.47	2346.58
583.82	2337.92
584.17	2328.90
584.53	2319.48
584.88	2310.49
585.23	2301.12
585.58	2291.64
585.93	2282.00
586.28	2272.72
586.63	2264.25
586.98	2255.92
587.34	2247.48
587.69	2238.45
588.04	2229.38
588.39	2221.16
588.74	2212.32
589.09	2203.63
589.44	2194.01
589.79	2185.40
590.14	2177.24
590.49	2168.81
590.84	2159.84
591.19	2151.71
591.54	2142.75
591.89	2132.71
592.25	2123.55
592.60	2113.95
592.95	2104.51
593.30	2094.81
593.65	2084.69
594.00	2074.64
594.35	2066.28
594.70	2057.00
595.05	2048.17
595.40	2039.35
595.75	2029.63
596.10	2021.25
596.45	2012.85
596.80	2005.39
597.15	1996.96
597.50	1987.76
597.85	1979.42
598.19	1970.65
598.54	1961.91
598.89	1954.45
599.24	1947.72
599.59	1940.22
599.94	1933.16
600.29	1925.23
600.64	1917.28
600.99	1908.99
601.34	1901.97
601.69	1892.97
602.04	1884.67
602.39	1876.30
602.74	1868.24
603.08	1861.54
603.43	1854.32
603.78	1846.05
604.13	1838.04
604.48	1830.01
604.83	1823.30
605.18	1815.97
605.53	1808.34
605.87	1800.90
606.22	1793.62
606.57	1785.85
606.92	1777.85
607.27	1769.63
607.62	1762.70
607.96	1755.83
608.31	1749.84
608.66	1741.88
609.01	1734.51
609.36	1726.99
609.70	1719.28
610.05	1711.73
610.40	1703.40
610.75	1694.85
611.10	1687.34
611.44	1678.07
611.79	1669.04
612.14	1659.52
612.49	1650.17
612.83	1641.13
613.18	1631.30
613.53	1621.46
613.88	1611.57
614.22	1602.52
614.57	1593.27
614.92	1583.64
615.27	1574.47
615.61	1564.28
615.96	1555.42
616.31	1547.09
616.65	1539.07
617.00	1530.48
617.35	1521.87
617.70	1513.10
618.04	1503.78
618.39	1494.17
618.74	1485.74
619.08	1477.22
619.43	1468.94
619.78	1460.86
620.12	1453.19
620.47	1445.81
620.82	1437.42
621.16	1429.30
621.51	1420.87
621.85	1412.76
622.20	1404.39
622.55	1395.64
622.89	1387.66
623.24	1379.67
623.59	1370.75
623.93	1362.19
624.28	1353.90
624.62	1345.48
624.97	1337.11
625.32	1329.39
625.66	1322.08
626.01	1314.85
626.35	1307.58
626.70	1299.96
627.04	1292.56
627.39	1284.71
627.73	1276.76
628.08	1269.85
628.43	1262.41
628.77	1255.02
629.12	1247.41
629.46	1240.79
629.81	1233.40
630.15	1225.85
630.50	1218.15
630.84	1210.85
631.19	1203.48
631.53	1196.56
631.88	1188.90
632.22	1181.39
632.57	1174.55
632.91	1166.92
633.26	1159.34
633.60	1152.14
633.95	1145.45
634.29	1138.06
634.64	1131.31
634.98	1124.38
635.32	1117.38
635.67	1110.95
636.01	1104.18
636.36	1097.43
636.70	1090.69
637.05	1084.33
637.39	1078.13
637.73	1071.93
638.08	1066.15
638.42	1060.19
638.77	1053.61
639.11	1047.43
639.45	1041.46
639.80	1034.69
640.14	1028.65
640.49	1022.59
640.83	1016.35
641.17	1009.72
641.52	1003.67
641.86	997.08
642.20	990.78
642.55	984.02
642.89	977.45
643.23	970.93
643.58	964.97
643.92	958.30
644.26	952.16
644.61	946.08
644.95	940.05
645.29	933.78
645.64	927.23
645.98	921.10
646.32	915.38
646.66	909.25
647.01	903.48
647.35	897.42
647.69	890.87
648.04	884.82
648.38	878.98
648.72	872.84
649.06	866.74
649.41	860.87
649.75	855.21
650.09	849.34
650.43	843.68
650.78	837.44
651.12	831.35
651.46	825.44
651.80	819.50
652.14	813.51
652.49	807.39
652.83	801.49
653.17	795.53
653.51	789.48
653.85	783.70
654.20	777.74
654.54	771.84
654.88	766.50
655.22	760.82
655.56	754.70
655.90	748.81
656.25	743.35
656.59	737.70
656.93	732.36
657.27	727.15
657.61	721.62
657.95	716.45
658.29	711.52
658.64	706.34
658.98	701.12
659.32	695.60
659.66	690.55
660.00	685.36
660.34	680.08
660.68	674.89
661.02	669.77
661.36	665.06
661.70	660.33
662.05	655.64
662.39	651.00
662.73	646.74
663.07	642.69
663.41	638.14
663.75	633.63
664.09	628.92
664.43	624.28
664.77	619.96
665.11	615.63
665.45	610.99
665.79	606.55
666.13	602.03
666.47	597.88
666.81	593.71
667.15	589.67
667.49	585.80
667.83	582.01
668.17	578.13
668.51	574.22
668.85	570.51
669.19	566.70
669.53	562.65
669.87	558.63
670.21	554.51
670.55	550.66
670.89	547.22
671.23	543.79
671.57	540.34
671.91	536.76
672.25	533.20
672.58	529.79
672.92	526.32
673.26	523.08
673.60	519.86
673.94	516.41
674.28	513.02
674.62	509.88
674.96	506.64
675.30	503.70
675.64	500.41
675.97	497.14
676.31	494.10
676.65	491.30
676.99	488.71
677.33	485.78
677.67	482.83
678.01	479.58
678.34	476.47
678.68	473.34
679.02	470.26
679.36	467.42
679.70	464.66
680.04	461.88
680.37	458.98
680.71	456.13
681.05	453.58
681.39	450.85
681.73	448.08
682.06	445.59
682.40	442.81
682.74	440.39
683.08	437.82
683.42	435.21
683.75	432.64
684.09	429.95
684.43	427.53
684.77	425.06
685.10	422.61
685.44	420.07
685.78	417.63
686.12	415.46
686.45	413.12
686.79	410.74
687.13	408.55
687.46	406.51
687.80	404.36
688.14	401.99
688.48	399.91
688.81	397.59
689.15	395.41
689.49	393.24
689.82	391.01
690.16	388.66
690.50	386.45
690.83	384.18
691.17	381.86
691.51	379.66
691.84	377.57
692.18	375.55
692.52	373.72
692.85	371.91
693.19	369.87
693.52	367.92
693.86	366.05
694.20	364.12
694.53	362.16
694.87	360.13
695.21	358.25
695.54	356.20
695.88	354.47
696.21	352.60
696.55	350.77
696.88	348.86
697.22	347.16
697.56	345.47
697.89	343.78
698.23	342.23
698.56	340.60
698.90	339.10
699.23	337.49
699.57	335.87
699.90	334.22
700.24	332.65
700.58	331.07
700.91	329.44
701.25	328.01
701.58	326.53
701.92	325.17
702.25	323.83
702.59	322.53
702.92	321.16
703.26	319.78
703.59	318.51
703.93	317.42
704.26	316.21
704.60	315.02
704.93	313.80
705.26	312.51
705.60	311.31
705.93	309.96
706.27	308.78
706.60	307.72
706.94	306.59
707.27	305.35
707.61	304.19
707.94	303.04
708.27	301.77
708.61	300.62
708.94	299.51
709.28	298.33
709.61	297.25
709.94	296.17
710.28	295.03
710.61	293.93
710.95	292.72
711.28	291.75
711.61	290.62
711.95	289.65
712.28	288.61
712.61	287.59
712.95	286.72
713.28	285.81
713.61	284.73
713.95	283.81
714.28	282.95
714.61	281.95
714.95	281.13
715.28	280.25
715.61	279.31
715.95	278.37
716.28	277.56
716.61	276.72
716.95	275.76
717.28	274.93
717.61	274.16
717.94	273.37
718.28	272.50
718.61	271.77
718.94	270.99
719.27	270.34
719.61	269.64
719.94	268.91
720.27	268.10
720.60	267.34
720.94	266.56
721.27	265.94
721.60	265.39
721.93	264.69
722.27	264.15
722.60	263.49
722.93	262.84
723.26	262.20
723.59	261.60
723.93	261.13
724.26	260.66
724.59	260.05
724.92	259.57
725.25	259.05
725.59	258.37
725.92	257.92
726.25	257.30
726.58	256.82
726.91	256.29
727.24	255.79
727.57	255.39
727.91	254.87
728.24	254.35
728.57	253.84
728.90	253.49
729.23	252.93
729.56	252.60
729.89	252.15
730.22	251.68
730.55	251.19
730.89	250.68
731.22	250.18
731.55	249.82
731.88	249.35
732.21	248.78
732.54	248.51
732.87	248.03
733.20	247.60
733.53	247.12
733.86	246.75
734.19	246.33
734.52	245.88
734.85	245.61
735.18	245.19
735.51	244.89
735.84	244.35
736.17	243.97
736.50	243.48
736.83	243.35
737.16	242.93
737.49	242.52
737.82	242.17
738.15	241.78
738.48	241.41
738.81	241.03
739.14	240.73
739.47	240.28
739.80	239.90
740.13	239.65
740.46	239.30
740.79	238.86
741.12	238.52
741.45	238.19
741.78	237.85
742.11	237.52
742.44	237.10
742.77	236.84
743.10	236.51
743.43	236.21
743.75	235.68
744.08	235.62
744.41	235.30
744.74	235.03
745.07	234.79
745.40	234.44
745.73	234.19
746.06	233.88
746.39	233.59
746.71	233.31
747.04	232.94
747.37	232.73
747.70	232.47
748.03	232.18
748.36	231.95
748.68	231.67
749.01	231.36
749.34	231.11
749.67	230.93
750.00	230.75
750.33	230.63
750.65	230.50
750.98	230.08
751.31	229.87
751.64	229.66
751.97	229.45
752.29	229.23
752.62	228.96
752.95	228.74
753.28	228.53
753.60	228.32
753.93	228.16
754.26	227.87
754.59	227.69
754.91	227.55
755.24	227.31
755.57	227.02
755.90	226.90
756.22	226.65
756.55	226.43
756.88	226.19
757.20	225.87
757.53	225.52
757.86	225.33
758.19	225.18
758.51	224.93
758.84	224.68
759.17	224.60
759.49	224.45
759.82	224.45
760.15	224.36
760.47	224.15
760.80	223.94
761.13	223.86
761.45	223.66
761.78	223.49
762.11	223.38
762.43	223.24
762.76	223.02
763.08	223.00
763.41	222.81
763.74	222.68
764.06	222.54
764.39	222.41
764.71	222.23
765.04	222.05
765.37	221.89
765.69	221.80
766.02	221.58
766.34	221.47
766.67	221.26
767.00	221.13
767.32	221.17
767.65	221.21
767.97	221.06
768.30	220.95
768.62	220.86
768.95	220.67
769.27	220.63
769.60	220.64
769.92	220.49
770.25	220.40
770.57	220.34
770.90	220.22
771.22	220.14
771.55	220.00
771.87	219.92
772.20	219.89
772.52	219.80
772.85	219.91
773.17	219.83
773.50	219.67
773.82	219.59
774.15	219.39
774.47	219.12
774.80	218.97
775.12	218.92
775.45	218.79
775.77	218.82
776.09	218.73
776.42	218.57
776.74	218.48
777.07	218.37
777.39	218.26
777.72	218.17
778.04	218.12
778.36	218.10
778.69	218.04
779.01	217.98
779.33	217.87
779.66	217.60
779.98	217.44
780.31	217.36
780.63	217.33
780.95	217.28
781.28	217.19
781.60	217.19
781.92	217.08
782.25	217.01
782.57	216.85
782.89	216.71
783.22	216.63
783.54	216.64
783.86	216.61
784.19	216.51
784.51	216.51
784.83	216.38
785.16	216.32
785.48	216.27
785.80	216.16
786.12	216.16
786.45	216.08
786.77	216.09
787.09	216.05
787.42	215.92
787.74	215.88
788.06	215.98
788.38	215.92
788.71	215.88
789.03	215.82
789.35	215.83
789.67	215.80
789.99	215.76
790.32	215.72
790.64	215.73
790.96	215.79
791.28	215.72
791.61	215.72
791.93	215.68
792.25	215.69
792.57	215.84
792.89	215.74
793.21	215.72
793.54	215.60
793.86	215.59
794.18	215.64
794.50	215.56
794.82	215.50
795.14	215.42
795.47	215.47
795.79	215.49
796.11	215.46
796.43	215.40
796.75	215.43
797.07	215.30
797.39	215.26
797.71	215.14
798.04	215.03
798.36	215.03
798.68	215.05
799.00	215.02
799.32	214.87
799.64	214.92
799.96	214.92
800.28	214.95
800.60	214.87
800.92	214.73
801.24	214.75
801.56	214.67
801.89	214.61
802.21	214.53
802.53	214.41
802.85	214.30
803.17	214.31
803.49	214.25
803.81	214.24
804.13	214.19
804.45	214.16
804.77	214.21
805.09	214.12
805.41	213.95
805.73	213.88
806.05	213.81
806.37	213.74
806.69	213.68
807.01	213.67
807.33	213.69
807.65	213.65
807.97	213.66
808.28	213.64
808.60	213.67
808.92	213.65
809.24	213.81
809.56	213.82
809.88	213.86
810.20	213.79
810.52	213.82
810.84	213.71
811.16	213.69
811.48	213.61
811.80	213.66
812.12	213.73
812.43	213.72
812.75	213.74
813.07	213.62
813.39	213.59
813.71	213.56
814.03	213.51
814.35	213.55
814.67	213.49
814.98	213.45
815.30	213.40
815.62	213.29
815.94	213.11
816.26	213.12
816.58	213.07
816.89	213.10
817.21	213.05
817.53	213.16
817.85	213.15
818.17	213.16
818.48	213.07
818.80	213.07
819.12	213.00
819.44	212.97
819.76	212.99
820.07	212.97
820.39	212.89
820.71	212.90
821.03	212.89
821.34	212.87
821.66	212.84
821.98	212.91
822.30	212.89
822.61	212.98
822.93	212.95
823.25	212.90
823.57	212.89
823.88	212.90
824.20	212.82
824.52	212.83
824.83	212.81
825.15	212.83
825.47	212.88
825.79	212.91
826.10	212.80
826.42	212.79
826.74	212.90
827.05	212.96
827.37	212.98
827.69	212.93
828.00	212.89
828.32	212.91
828.64	212.84
828.95	212.98
829.27	212.90
829.58	212.91
829.90	212.93
830.22	212.90
830.53	212.85
830.85	212.87
831.17	212.83
831.48	212.86
831.80	212.89
832.11	212.82
832.43	212.81
832.75	212.88
833.06	213.03
833.38	212.93
833.69	212.80
834.01	212.83
834.32	212.89
834.64	212.85
834.96	212.80
835.27	212.75
835.59	212.70
835.90	212.74
836.22	212.73
836.53	212.66
836.85	212.61
837.16	212.73
837.48	212.68
837.79	212.70
838.11	212.66
838.42	212.62
838.74	212.58
839.05	212.55
839.37	212.43
839.68	212.29
840.00	212.25
840.31	212.33
840.63	212.23
840.94	212.11
841.26	212.13
841.57	212.14
841.88	212.16
842.20	212.13
842.51	212.02
842.83	211.94
843.14	212.09
843.46	212.09
843.77	211.96
844.08	211.94
844.40	211.86
844.71	211.80
845.03	211.78
845.34	211.79
845.65	211.78
845.97	211.77
846.28	211.78
846.60	211.73
846.91	211.69
847.22	211.69
847.54	211.78
847.85	211.82
848.16	211.78
848.48	211.80
848.79	211.81
849.10	211.81
849.42	211.85
849.73	211.75
850.04	211.75
850.36	211.75
850.67	211.77
850.98	211.75
851.30	211.76
851.61	211.75
851.92	211.70
852.23	211.73
852.55	211.72
852.86	211.70
853.17	211.80
853.49	211.84
853.80	211.87
854.11	211.87
854.42	211.84
854.74	211.82
855.05	211.80
855.36	211.74
855.67	211.80
855.99	211.72
856.30	211.85
856.61	211.83
856.92	211.87
857.23	211.83
857.55	211.82
857.86	211.84
858.17	211.84
858.48	211.90
858.79	211.85
859.11	211.86
859.42	211.81
859.73	211.77
860.04	211.71
860.35	211.66
860.66	211.58
860.98	211.56
861.29	211.59
861.60	211.51
861.91	211.57
862.22	211.51
862.53	211.53
862.84	211.32
863.16	211.33
863.47	211.28
863.78	211.27
864.09	211.26
864.40	211.25
864.71	211.25
865.02	211.23
865.33	211.23
865.64	211.29
865.95	211.30
866.27	211.41
866.58	211.42
866.89	211.40
867.20	211.43
867.51	211.40
867.82	211.40
868.13	211.46
868.44	211.39
868.75	211.41
869.06	211.45
869.37	211.51
869.68	211.43
869.99	211.38
870.30	211.40
870.61	211.40
870.92	211.38
871.23	211.35
871.54	211.34
871.85	211.37
872.16	211.36
872.47	211.42
872.78	211.31
873.09	211.36
873.40	211.31
873.71	211.29
874.02	211.29
874.33	211.28
874.64	211.28
874.95	211.32
875.26	211.33
875.56	211.30
875.87	211.17
876.18	211.26
876.49	211.47
876.80	211.50
877.11	211.51
877.42	211.53
877.73	211.52
878.04	211.56
878.35	211.50
878.66	211.52
878.96	211.45
879.27	211.43
879.58	211.37
879.89	211.51
880.20	211.56
880.51	211.54
880.82	211.54
881.12	211.45
881.43	211.38
881.74	211.32
882.05	211.37
882.36	211.49
882.67	211.47
882.97	211.29
883.28	211.29
883.59	211.26
883.90	211.31
884.21	211.30
884.51	211.25
884.82	211.24
885.13	211.28
885.44	211.28
885.74	211.29
886.05	211.26
886.36	211.15
886.67	211.10
886.98	211.23
887.28	211.27
887.59	211.31
887.90	211.33
888.20	211.37
888.51	211.34
888.82	211.28
889.13	211.29
889.43	211.43
889.74	211.42
890.05	211.39
890.35	211.37
890.66	211.45
890.97	211.48
891.28	211.54
891.58	211.48
891.89	211.46
892.20	211.35
892.50	211.34
892.81	211.35
893.12	211.26
893.42	211.13
893.73	211.07
894.04	211.17
894.34	211.18
894.65	211.16
894.95	211.18
895.26	211.21
895.57	211.27
895.87	211.12
896.18	211.20
896.48	211.33
896.79	211.34
897.10	211.31
897.40	211.26
897.71	211.21
898.01	211.28
898.32	211.34
898.63	211.39
898.93	211.46
899.24	211.48
899.54	211.60
899.85	211.62
900.15	211.67
900.46	211.63
900.76	211.65
901.07	211.61
901.38	211.55
901.68	211.57
901.99	211.53
902.29	211.54
902.60	211.43
902.90	211.35
903.21	211.29
903.51	211.31
903.82	211.37
904.12	211.40
904.43	211.30
904.73	211.28
905.03	211.32
905.34	211.44
905.64	211.49
905.95	211.45
906.25	211.50
906.56	211.47
906.86	211.49
907.17	211.43
907.47	211.46
907.77	211.43
908.08	211.42
908.38	211.41
908.69	211.43
908.99	211.45
909.30	211.43
909.60	211.42
909.90	211.41
910.21	211.35
910.51	211.33
910.81	211.33
911.12	211.28
911.42	211.29
911.73	211.13
912.03	211.03
912.33	211.06
912.64	211.07
912.94	211.07
913.24	211.01
913.55	211.06
913.85	211.08
914.15	211.22
914.46	211.14
914.76	211.07
915.06	211.05
915.37	210.97
915.67	211.02
915.97	211.03
916.27	211.03
916.58	211.01
916.88	211.00
917.18	211.03
917.49	211.11
917.79	211.10
918.09	211.13
918.39	211.15
918.70	211.13
919.00	211.08
919.30	211.14
919.60	211.18
919.91	211.15
920.21	211.16
920.51	211.03
920.81	211.15
921.12	211.18
921.42	211.17
921.72	211.22
922.02	211.19
922.32	211.28
922.63	211.24
922.93	211.33
923.23	211.38
923.53	211.31
923.83	211.28
924.13	211.25
924.44	211.19
924.74	211.31
925.04	211.35
925.34	211.39
925.64	211.29
925.94	211.26
926.24	211.35
926.55	211.31
926.85	211.35
927.15	211.30
927.45	211.29
927.75	211.35
928.05	211.39
928.35	211.36
928.65	211.29
928.95	211.35
929.26	211.27
929.56	211.27
929.86	211.35
930.16	211.36
930.46	211.40
930.76	211.45
931.06	211.32
931.36	211.31
931.66	211.34
931.96	211.38
932.26	211.41
932.56	211.41
932.86	211.44
933.16	211.46
933.46	211.45
933.76	211.47
934.06	211.45
934.36	211.50
934.66	211.52
934.96	211.52
935.26	211.50
935.56	211.55
935.86	211.45
936.16	211.40
936.46	211.36
936.76	211.37
937.06	211.34
937.36	211.40
937.66	211.36
937.96	211.30
938.26	211.27
938.56	211.20
938.86	211.11
939.16	211.14
939.46	211.15
939.76	211.18
940.06	211.13
940.35	211.12
940.65	211.04
940.95	211.08
941.25	211.06
941.55	211.02
941.85	211.01
942.15	211.09
942.45	211.18
942.75	211.24
943.04	211.24
943.34	211.26
943.64	211.23
943.94	211.26
944.24	211.34
944.54	211.28
944.84	211.29
945.13	211.31
945.43	211.29
945.73	211.28
946.03	211.27
946.33	211.29
946.62	211.22
946.92	211.23
947.22	211.18
947.52	211.14
947.82	211.25
948.11	211.28
948.41	211.25
948.71	211.17
949.01	211.12
949.31	211.07
949.60	211.04
949.90	211.02
950.20	210.99
950.50	210.90
950.79	210.90
951.09	210.97
951.39	210.95
951.69	210.88
951.98	210.88
952.28	210.86
952.58	210.82
952.87	210.89
953.17	210.90
953.47	210.87
953.76	210.87
954.06	210.76
954.36	210.66
954.66	210.63
954.95	210.69
955.25	210.70
955.55	210.72
955.84	210.70
956.14	210.73
956.44	210.75
956.73	210.72
957.03	210.77
957.32	210.73
957.62	210.68
957.92	210.67
958.21	210.67
958.51	210.79
958.81	210.75
959.10	210.79
959.40	210.81
959.69	210.83
959.99	210.90
960.29	210.91
960.58	210.92
960.88	211.00
961.17	210.89
961.47	210.87
961.76	210.93
962.06	210.99
962.36	210.93
962.65	210.87
962.95	210.90
963.24	210.89
963.54	210.87
963.83	210.84
964.13	210.91
964.42	210.80
964.72	210.78
965.01	210.89
965.31	210.85
965.60	210.79
965.90	210.96
966.19	210.93
966.49	210.97
966.78	210.99
967.08	210.99
967.37	211.03
967.67	211.01
967.96	210.94
968.26	210.91
968.55	211.01
968.85	211.02
969.14	211.04
969.43	211.02
969.73	211.01
970.02	211.11
970.32	211.05
970.61	211.13
970.91	211.05
971.20	211.02
971.49	210.99
971.79	211.03
972.08	210.88
972.38	210.84
972.67	210.80
972.96	210.79
973.26	210.80
973.55	210.92
973.85	210.95
974.14	210.93
974.43	211.05
974.73	210.97
975.02	210.98
975.31	210.99
975.61	211.07
975.90	211.08
976.19	211.07
976.49	211.18
976.78	211.19
977.07	211.15
977.37	211.18
977.66	211.20
977.95	211.17
978.24	211.22
978.54	211.28
978.83	211.24
979.12	211.23
979.42	211.20
979.71	211.21
980.00	211.24
980.29	211.29
980.59	211.20
980.88	211.26
981.17	211.30
981.46	211.28
981.76	211.19
982.05	211.30
982.34	211.30
982.63	211.31
982.93	211.30
983.22	211.34
983.51	211.31
983.80	211.33
984.09	211.41
984.39	211.36
984.68	211.33
984.97	211.41
985.26	211.37
985.55	211.38
985.85	211.26
986.14	211.28
986.43	211.33
986.72	211.27
987.01	211.22
987.30	211.17
987.59	211.21
987.89	211.23
988.18	211.15
988.47	211.09
988.76	211.00
989.05	211.00
989.34	210.98
989.63	211.09
989.92	211.07
990.22	211.01
990.51	211.03
990.80	211.02
991.09	210.99
991.38	211.07
991.67	211.07
991.96	211.06
992.25	211.04
992.54	210.96
992.83	210.95
993.12	210.96
993.41	211.03
993.70	211.05
993.99	211.15
994.28	211.14
994.58	211.16
994.87	211.18
995.16	211.14
995.45	211.15
995.74	210.99
996.03	211.06
996.32	211.12
996.61	211.20
996.90	211.25
997.19	211.21
997.48	211.18
997.77	211.10
998.06	211.11
998.34	211.11
998.63	211.11
998.92	211.10
999.21	211.09
999.50	211.05
999.79	211.01
1000.08	210.91
1000.37	210.95
1000.66	210.96
1000.95	210.96
1001.24	210.94
1001.53	210.93
1001.82	210.94
1002.11	210.87
1002.40	210.89
1002.68	210.85
1002.97	210.89
1003.26	210.85
1003.55	210.91
1003.84	210.94
1004.13	211.06
1004.42	211.00
1004.71	211.02
1004.99	211.04
1005.28	211.00
1005.57	210.97
1005.86	210.96
1006.15	210.99
1006.44	210.97
1006.72	210.98
1007.01	210.98
1007.30	211.00
1007.59	211.00
1007.88	210.99
1008.17	210.99
1008.45	210.87
1008.74	210.83
1009.03	210.72
1009.32	210.76
1009.60	210.73
1009.89	210.76
1010.18	210.71
1010.47	210.72
1010.76	210.73
1011.04	210.79
1011.33	210.83
1011.62	210.87
1011.91	210.91
1012.19	210.95
1012.48	210.95
1012.77	210.93
1013.05	211.01
1013.34	211.00
1013.63	210.99
1013.92	211.02
1014.20	211.01
1014.49	211.02
1014.78	211.07
1015.06	211.01
1015.35	211.05
1015.64	210.99
1015.92	210.98
1016.21	210.89
1016.50	210.94
1016.78	210.94
1017.07	210.90
1017.36	210.92
1017.64	210.86
1017.93	210.84
1018.22	210.82
1018.50	210.76
1018.79	210.83
1019.08	210.79
1019.36	210.88
1019.65	210.89
1019.93	210.89
1020.22	210.94
1020.51	211.03
1020.79	211.00
1021.08	211.15
1021.36	210.30
1021.65	212.10
1021.94	211.45
1022.22	211.85
1022.51	210.85
1022.79	210.65
1023.08	211.95
1023.36	212.25
1023.65	211.15
>>>>>End Processed Spectral Data<<<<<
