SpectraSuite Data File
++++++++++++++++++++++++++++++++++++
Date: Mon Feb 25 17:34:44 EST 2013
User: group
Dark Spectrum Present: No
Reference Spectrum Present: No
Number of Sampled Component Spectra: 1
Spectrometers: USB2E7196
Integration Time (usec): 52000 (USB2E7196)
Spectra Averaged: 20 (USB2E7196)
Boxcar Smoothing: 10 (USB2E7196)
Correct for Electrical Dark: No (USB2E7196)
Strobe/Lamp Enabled: No (USB2E7196)
Correct for Detector Non-linearity: No (USB2E7196)
Correct for Stray Light: No (USB2E7196)
Number of Pixels in Processed Spectrum: 2048
>>>>>Begin Processed Spectral Data<<<<<
339.09	0.00
339.48	198.40
339.86	201.05
340.24	203.85
340.63	203.00
341.01	207.25
341.39	206.35
341.78	207.50
342.16	210.80
342.54	209.55
342.93	198.50
343.31	208.52
343.69	209.08
344.07	209.51
344.46	209.85
344.84	210.28
345.22	210.49
345.60	210.77
345.99	211.01
346.37	211.06
346.75	211.21
347.13	211.20
347.52	211.26
347.90	211.44
348.28	211.48
348.66	211.56
349.05	211.54
349.43	211.60
349.81	211.68
350.19	211.80
350.57	211.87
350.96	211.98
351.34	212.12
351.72	212.18
352.10	212.30
352.48	212.40
352.87	212.40
353.25	212.48
353.63	212.49
354.01	212.50
354.39	212.56
354.77	212.55
355.15	212.67
355.54	212.77
355.92	212.74
356.30	212.77
356.68	212.89
357.06	212.97
357.44	212.98
357.82	213.02
358.20	213.08
358.58	213.20
358.97	213.20
359.35	213.27
359.73	213.34
360.11	213.26
360.49	213.28
360.87	213.42
361.25	213.48
361.63	213.52
362.01	213.54
362.39	213.56
362.77	213.64
363.15	213.62
363.53	213.65
363.91	213.60
364.29	213.62
364.67	213.52
365.05	213.61
365.43	213.58
365.81	213.60
366.19	213.65
366.57	213.71
366.95	213.68
367.33	213.66
367.71	213.69
368.09	213.82
368.47	213.86
368.85	213.74
369.23	213.72
369.61	213.74
369.99	213.78
370.37	213.73
370.75	213.88
371.13	213.86
371.51	213.77
371.89	213.93
372.27	213.96
372.65	213.89
373.03	213.83
373.41	213.85
373.78	213.82
374.16	213.70
374.54	213.64
374.92	213.61
375.30	213.51
375.68	213.41
376.06	213.40
376.44	213.33
376.82	213.33
377.19	213.27
377.57	213.24
377.95	213.18
378.33	213.13
378.71	212.88
379.09	212.87
379.47	212.92
379.84	212.73
380.22	212.68
380.60	212.60
380.98	212.49
381.36	212.45
381.73	212.43
382.11	212.49
382.49	212.44
382.87	212.43
383.25	212.36
383.62	212.62
384.00	212.58
384.38	212.51
384.76	212.50
385.13	212.52
385.51	212.46
385.89	212.37
386.27	212.43
386.64	212.40
387.02	212.38
387.40	212.29
387.78	212.28
388.15	212.21
388.53	212.19
388.91	212.19
389.29	212.19
389.66	212.13
390.04	212.05
390.42	212.00
390.79	211.96
391.17	211.99
391.55	211.68
391.92	211.59
392.30	211.62
392.68	211.59
393.05	211.58
393.43	211.64
393.81	211.65
394.18	211.49
394.56	211.45
394.94	211.42
395.31	211.35
395.69	211.46
396.06	211.47
396.44	211.51
396.82	211.48
397.19	211.58
397.57	211.60
397.95	211.63
398.32	211.60
398.70	211.62
399.07	211.63
399.45	211.69
399.82	211.74
400.20	211.83
400.58	211.80
400.95	211.77
401.33	211.77
401.70	212.01
402.08	212.16
402.45	212.25
402.83	212.37
403.20	212.45
403.58	212.47
403.95	212.62
404.33	212.76
404.71	212.90
405.08	212.94
405.46	212.98
405.83	213.09
406.21	213.18
406.58	213.37
406.96	213.56
407.33	213.70
407.70	213.88
408.08	214.14
408.45	214.41
408.83	214.68
409.20	214.87
409.58	214.94
409.95	215.25
410.33	215.63
410.70	215.82
411.08	216.25
411.45	216.60
411.82	216.97
412.20	217.37
412.57	217.96
412.95	218.41
413.32	218.96
413.69	219.42
414.07	220.01
414.44	220.59
414.82	221.22
415.19	222.00
415.56	222.75
415.94	223.36
416.31	224.32
416.68	225.18
417.06	226.23
417.43	227.16
417.81	228.29
418.18	229.40
418.55	230.68
418.93	231.96
419.30	233.27
419.67	234.60
420.04	236.03
420.42	237.55
420.79	239.40
421.16	241.17
421.54	243.10
421.91	245.09
422.28	247.07
422.66	249.14
423.03	251.17
423.40	253.33
423.77	255.65
424.15	257.86
424.52	260.24
424.89	262.77
425.26	265.32
425.64	267.64
426.01	270.22
426.38	272.96
426.75	275.71
427.13	278.65
427.50	281.58
427.87	284.63
428.24	287.65
428.61	290.48
428.99	293.76
429.36	297.19
429.73	300.65
430.10	304.20
430.47	307.69
430.85	311.40
431.22	315.25
431.59	319.47
431.96	323.45
432.33	327.81
432.70	332.07
433.08	336.93
433.45	341.58
433.82	346.24
434.19	351.32
434.56	356.40
434.93	361.13
435.30	366.00
435.68	371.41
436.05	376.56
436.42	381.81
436.79	386.55
437.16	391.79
437.53	397.04
437.90	402.32
438.27	407.57
438.64	412.95
439.01	418.02
439.38	422.42
439.75	426.74
440.13	431.65
440.50	436.20
440.87	440.09
441.24	443.98
441.61	448.26
441.98	451.36
442.35	454.85
442.72	458.59
443.09	462.25
443.46	464.25
443.83	465.64
444.20	466.83
444.57	468.55
444.94	469.22
445.31	470.05
445.68	470.82
446.05	471.12
446.42	470.50
446.79	469.63
447.16	468.71
447.53	468.04
447.90	465.82
448.27	463.68
448.64	460.72
449.01	458.56
449.37	454.93
449.74	451.32
450.11	447.21
450.48	442.59
450.85	437.80
451.22	433.94
451.59	430.19
451.96	426.61
452.33	421.83
452.70	417.56
453.07	412.42
453.43	407.09
453.80	401.99
454.17	397.15
454.54	392.62
454.91	387.87
455.28	383.06
455.65	378.66
456.02	374.33
456.38	370.59
456.75	365.86
457.12	361.89
457.49	358.20
457.86	354.46
458.23	351.30
458.59	347.93
458.96	344.27
459.33	341.02
459.70	337.68
460.07	335.22
460.43	332.28
460.80	329.58
461.17	327.15
461.54	324.59
461.91	322.22
462.27	319.86
462.64	317.64
463.01	315.40
463.38	313.26
463.74	311.08
464.11	309.13
464.48	307.69
464.85	305.89
465.21	304.53
465.58	303.06
465.95	301.21
466.32	299.74
466.68	298.45
467.05	297.10
467.42	295.78
467.78	294.26
468.15	292.88
468.52	291.90
468.88	290.58
469.25	289.51
469.62	288.61
469.98	287.51
470.35	286.75
470.72	285.80
471.08	284.89
471.45	283.97
471.82	283.27
472.18	282.25
472.55	281.69
472.92	280.91
473.28	280.29
473.65	279.83
474.02	279.23
474.38	278.73
474.75	278.44
475.11	278.05
475.48	277.74
475.85	277.53
476.21	277.24
476.58	277.19
476.94	277.11
477.31	277.05
477.67	277.06
478.04	277.02
478.41	277.24
478.77	277.58
479.14	277.80
479.50	277.96
479.87	278.37
480.23	278.76
480.60	279.12
480.96	279.57
481.33	280.10
481.69	280.70
482.06	281.33
482.42	281.91
482.79	282.69
483.15	283.51
483.52	284.42
483.88	285.33
484.25	286.25
484.61	287.28
484.98	288.35
485.34	289.63
485.71	290.96
486.07	292.37
486.44	293.59
486.80	295.15
487.17	296.77
487.53	298.47
487.90	300.23
488.26	302.12
488.62	304.16
488.99	306.22
489.35	308.35
489.72	310.72
490.08	313.19
490.44	315.65
490.81	318.34
491.17	321.05
491.54	323.95
491.90	326.98
492.26	330.21
492.63	333.56
492.99	337.01
493.36	340.68
493.72	344.61
494.08	348.67
494.45	352.86
494.81	357.38
495.17	361.90
495.54	366.95
495.90	372.00
496.26	377.11
496.63	382.67
496.99	388.43
497.35	394.35
497.72	400.56
498.08	407.23
498.44	413.99
498.80	421.10
499.17	428.67
499.53	436.37
499.89	444.36
500.26	452.41
500.62	460.72
500.98	469.51
501.34	478.56
501.71	488.06
502.07	497.83
502.43	507.80
502.79	518.11
503.16	528.59
503.52	539.51
503.88	550.94
504.24	562.52
504.60	574.53
504.97	586.84
505.33	599.38
505.69	612.53
506.05	626.10
506.41	639.81
506.78	653.47
507.14	667.61
507.50	682.26
507.86	697.39
508.22	713.00
508.59	728.43
508.95	744.40
509.31	760.61
509.67	777.31
510.03	794.32
510.39	812.03
510.75	829.94
511.12	848.12
511.48	866.38
511.84	884.91
512.20	903.63
512.56	922.87
512.92	942.54
513.28	962.12
513.64	981.85
514.00	1001.85
514.37	1022.41
514.73	1043.24
515.09	1064.11
515.45	1085.03
515.81	1106.21
516.17	1127.75
516.53	1149.25
516.89	1170.82
517.25	1192.48
517.61	1214.22
517.97	1235.81
518.33	1257.39
518.69	1279.09
519.05	1301.54
519.41	1324.02
519.77	1346.69
520.13	1368.91
520.49	1391.22
520.85	1413.77
521.21	1436.39
521.57	1459.52
521.93	1481.65
522.29	1504.74
522.65	1527.57
523.01	1550.40
523.37	1572.54
523.73	1595.07
524.09	1617.40
524.45	1639.85
524.81	1662.52
525.17	1685.19
525.53	1708.01
525.89	1730.50
526.25	1753.06
526.61	1774.28
526.97	1796.21
527.33	1817.67
527.68	1839.46
528.04	1860.70
528.40	1881.45
528.76	1902.25
529.12	1922.89
529.48	1944.74
529.84	1965.09
530.20	1985.28
530.56	2005.88
530.91	2027.00
531.27	2047.86
531.63	2067.99
531.99	2088.13
532.35	2107.47
532.71	2126.58
533.07	2146.00
533.42	2164.46
533.78	2183.24
534.14	2202.16
534.50	2219.17
534.86	2237.29
535.21	2253.99
535.57	2272.22
535.93	2289.97
536.29	2307.28
536.65	2324.22
537.00	2339.80
537.36	2355.39
537.72	2370.75
538.08	2386.12
538.44	2401.29
538.79	2416.41
539.15	2431.80
539.51	2446.39
539.87	2461.91
540.22	2476.62
540.58	2492.06
540.94	2507.07
541.29	2520.27
541.65	2532.60
542.01	2546.41
542.37	2558.78
542.72	2571.52
543.08	2582.43
543.44	2594.40
543.79	2604.45
544.15	2614.68
544.51	2625.96
544.87	2637.27
545.22	2646.77
545.58	2655.40
545.94	2663.11
546.29	2669.91
546.65	2676.19
547.01	2682.70
547.36	2688.30
547.72	2694.03
548.07	2697.40
548.43	2700.74
548.79	2704.70
549.14	2709.52
549.50	2713.95
549.86	2717.77
550.21	2721.81
550.57	2725.96
550.92	2728.52
551.28	2731.57
551.64	2734.09
551.99	2736.48
552.35	2737.97
552.70	2740.99
553.06	2744.05
553.41	2747.09
553.77	2749.76
554.13	2752.25
554.48	2754.55
554.84	2756.01
555.19	2756.72
555.55	2757.73
555.90	2758.91
556.26	2759.51
556.61	2759.42
556.97	2758.42
557.32	2758.31
557.68	2757.00
558.03	2755.33
558.39	2753.83
558.74	2753.44
559.10	2752.61
559.45	2750.82
559.81	2749.91
560.16	2747.36
560.52	2744.79
560.87	2741.72
561.23	2738.38
561.58	2735.99
561.94	2732.98
562.29	2729.58
562.64	2727.55
563.00	2725.17
563.35	2722.98
563.71	2721.38
564.06	2719.50
564.42	2717.46
564.77	2714.74
565.12	2712.81
565.48	2709.94
565.83	2706.95
566.19	2703.85
566.54	2699.60
566.89	2695.90
567.25	2691.90
567.60	2688.58
567.96	2685.06
568.31	2681.73
568.66	2677.88
569.02	2673.21
569.37	2667.99
569.72	2664.09
570.08	2658.55
570.43	2652.90
570.78	2647.38
571.14	2640.85
571.49	2634.19
571.84	2628.30
572.20	2621.81
572.55	2615.22
572.90	2608.28
573.26	2601.25
573.61	2594.11
573.96	2587.57
574.31	2579.66
574.67	2571.62
575.02	2563.24
575.37	2554.40
575.72	2545.09
576.08	2537.74
576.43	2528.80
576.78	2520.82
577.13	2512.60
577.49	2504.40
577.84	2496.48
578.19	2488.66
578.54	2481.52
578.90	2474.29
579.25	2465.50
579.60	2456.09
579.95	2446.64
580.30	2438.93
580.66	2430.99
581.01	2421.74
581.36	2412.56
581.71	2404.14
582.06	2395.62
582.42	2387.21
582.77	2378.08
583.12	2369.33
583.47	2360.29
583.82	2352.18
584.17	2342.65
584.53	2333.50
584.88	2324.79
585.23	2315.46
585.58	2305.70
585.93	2295.86
586.28	2286.56
586.63	2277.81
586.98	2269.44
587.34	2261.19
587.69	2251.42
588.04	2241.94
588.39	2233.43
588.74	2224.30
589.09	2215.12
589.44	2205.53
589.79	2196.78
590.14	2188.80
590.49	2180.28
590.84	2171.03
591.19	2162.77
591.54	2154.10
591.89	2144.04
592.25	2134.70
592.60	2125.35
592.95	2116.12
593.30	2106.56
593.65	2096.80
594.00	2086.89
594.35	2078.44
594.70	2068.94
595.05	2060.25
595.40	2051.48
595.75	2041.90
596.10	2033.45
596.45	2025.03
596.80	2017.04
597.15	2008.62
597.50	1999.56
597.85	1991.04
598.19	1982.49
598.54	1973.80
598.89	1965.86
599.24	1958.80
599.59	1951.26
599.94	1943.93
600.29	1935.90
600.64	1927.73
600.99	1919.53
601.34	1911.96
601.69	1903.10
602.04	1894.88
602.39	1886.85
602.74	1878.99
603.08	1872.54
603.43	1865.37
603.78	1857.29
604.13	1849.19
604.48	1841.19
604.83	1834.17
605.18	1827.27
605.53	1819.42
605.87	1811.80
606.22	1804.54
606.57	1796.89
606.92	1788.51
607.27	1780.46
607.62	1773.11
607.96	1766.26
608.31	1759.65
608.66	1752.08
609.01	1744.47
609.36	1736.70
609.70	1728.58
610.05	1720.39
610.40	1711.58
610.75	1702.88
611.10	1695.28
611.44	1686.11
611.79	1676.97
612.14	1667.45
612.49	1657.57
612.83	1648.79
613.18	1638.81
613.53	1629.14
613.88	1619.10
614.22	1610.21
614.57	1600.73
614.92	1591.28
615.27	1581.82
615.61	1571.91
615.96	1562.67
616.31	1554.23
616.65	1546.15
617.00	1537.79
617.35	1529.31
617.70	1520.34
618.04	1511.21
618.39	1501.74
618.74	1493.16
619.08	1484.54
619.43	1476.56
619.78	1468.74
620.12	1460.55
620.47	1452.62
620.82	1444.10
621.16	1435.75
621.51	1427.33
621.85	1419.11
622.20	1410.36
622.55	1401.74
622.89	1393.39
623.24	1385.52
623.59	1376.76
623.93	1368.21
624.28	1359.95
624.62	1351.76
624.97	1343.71
625.32	1335.90
625.66	1328.56
626.01	1321.21
626.35	1313.74
626.70	1305.60
627.04	1298.02
627.39	1290.16
627.73	1282.85
628.08	1276.10
628.43	1268.55
628.77	1260.95
629.12	1253.40
629.46	1246.83
629.81	1239.54
630.15	1232.06
630.50	1224.41
630.84	1216.89
631.19	1209.62
631.53	1202.68
631.88	1195.01
632.22	1187.18
632.57	1179.99
632.91	1172.20
633.26	1164.63
633.60	1157.59
633.95	1150.75
634.29	1143.20
634.64	1136.54
634.98	1129.20
635.32	1122.04
635.67	1115.69
636.01	1108.91
636.36	1102.15
636.70	1095.42
637.05	1088.95
637.39	1082.75
637.73	1076.35
638.08	1070.60
638.42	1064.50
638.77	1057.88
639.11	1051.39
639.45	1045.52
639.80	1039.08
640.14	1032.70
640.49	1026.61
640.83	1020.11
641.17	1013.62
641.52	1007.57
641.86	1000.92
642.20	994.81
642.55	987.84
642.89	981.35
643.23	975.14
643.58	969.20
643.92	962.75
644.26	956.50
644.61	950.33
644.95	944.20
645.29	937.79
645.64	931.26
645.98	924.93
646.32	919.17
646.66	913.04
647.01	906.94
647.35	901.15
647.69	894.85
648.04	888.93
648.38	882.69
648.72	876.57
649.06	870.51
649.41	864.31
649.75	858.76
650.09	852.81
650.43	846.79
650.78	840.39
651.12	834.17
651.46	828.30
651.80	822.29
652.14	816.34
652.49	810.40
652.83	804.46
653.17	798.35
653.51	792.55
653.85	786.97
654.20	781.10
654.54	775.20
654.88	769.57
655.22	763.72
655.56	758.10
655.90	752.27
656.25	746.58
656.59	741.04
656.93	735.71
657.27	730.33
657.61	724.84
657.95	719.74
658.29	714.75
658.64	709.48
658.98	704.22
659.32	698.86
659.66	693.61
660.00	688.28
660.34	683.11
660.68	677.92
661.02	672.54
661.36	667.90
661.70	662.95
662.05	658.20
662.39	653.84
662.73	649.46
663.07	645.20
663.41	640.91
663.75	636.35
664.09	631.59
664.43	626.86
664.77	622.49
665.11	618.08
665.45	613.68
665.79	609.24
666.13	604.96
666.47	600.70
666.81	596.61
667.15	592.52
667.49	588.71
667.83	584.63
668.17	580.67
668.51	576.77
668.85	573.06
669.19	569.32
669.53	565.15
669.87	561.05
670.21	557.12
670.55	552.97
670.89	549.44
671.23	546.12
671.57	542.74
671.91	539.03
672.25	535.33
672.58	531.67
672.92	528.22
673.26	525.02
673.60	521.68
673.94	518.18
674.28	514.97
674.62	511.72
674.96	508.46
675.30	505.42
675.64	502.06
675.97	498.89
676.31	495.81
676.65	492.98
676.99	490.22
677.33	487.13
677.67	484.30
678.01	481.34
678.34	478.18
678.68	475.33
679.02	472.46
679.36	469.63
679.70	466.80
680.04	463.87
680.37	460.87
680.71	458.05
681.05	455.40
681.39	452.70
681.73	450.08
682.06	447.66
682.40	445.12
682.74	442.63
683.08	440.03
683.42	437.32
683.75	434.66
684.09	432.03
684.43	429.52
684.77	427.04
685.10	424.47
685.44	421.95
685.78	419.36
686.12	416.98
686.45	414.78
686.79	412.34
687.13	410.23
687.46	407.97
687.80	405.71
688.14	403.36
688.48	401.17
688.81	398.84
689.15	396.43
689.49	394.12
689.82	391.82
690.16	389.36
690.50	387.09
690.83	384.91
691.17	382.62
691.51	380.41
691.84	378.27
692.18	376.14
692.52	374.21
692.85	372.31
693.19	370.46
693.52	368.38
693.86	366.48
694.20	364.51
694.53	362.63
694.87	360.66
695.21	358.76
695.54	356.81
695.88	354.87
696.21	353.04
696.55	351.28
696.88	349.47
697.22	347.82
697.56	346.34
697.89	344.66
698.23	343.07
698.56	341.43
698.90	339.89
699.23	338.35
699.57	336.71
699.90	334.99
700.24	333.20
700.58	331.54
700.91	329.99
701.25	328.45
701.58	326.93
701.92	325.43
702.25	324.02
702.59	322.57
702.92	321.32
703.26	319.91
703.59	318.67
703.93	317.54
704.26	316.26
704.60	314.78
704.93	313.59
705.26	312.30
705.60	311.15
705.93	309.90
706.27	308.72
706.60	307.66
706.94	306.59
707.27	305.51
707.61	304.33
707.94	303.21
708.27	302.09
708.61	300.91
708.94	299.90
709.28	298.76
709.61	297.69
709.94	296.60
710.28	295.61
710.61	294.44
710.95	293.19
711.28	292.26
711.61	291.23
711.95	290.20
712.28	289.18
712.61	288.15
712.95	287.17
713.28	286.28
713.61	285.19
713.95	284.29
714.28	283.43
714.61	282.69
714.95	281.78
715.28	280.78
715.61	279.80
715.95	278.84
716.28	277.99
716.61	277.20
716.95	276.31
717.28	275.56
717.61	274.84
717.94	274.11
718.28	273.23
718.61	272.38
718.94	271.50
719.27	270.69
719.61	270.03
719.94	269.32
720.27	268.46
720.60	267.75
720.94	266.97
721.27	266.25
721.60	265.61
721.93	264.97
722.27	264.47
722.60	264.00
722.93	263.44
723.26	262.92
723.59	262.26
723.93	261.68
724.26	260.97
724.59	260.39
724.92	259.92
725.25	259.41
725.59	259.02
725.92	258.62
726.25	258.21
726.58	257.63
726.91	257.04
727.24	256.56
727.57	256.09
727.91	255.54
728.24	255.11
728.57	254.53
728.90	254.04
729.23	253.52
729.56	253.13
729.89	252.65
730.22	252.15
730.55	251.65
730.89	251.22
731.22	250.77
731.55	250.25
731.88	249.70
732.21	249.25
732.54	248.78
732.87	248.34
733.20	247.87
733.53	247.49
733.86	247.11
734.19	246.64
734.52	246.24
734.85	246.06
735.18	245.60
735.51	245.21
735.84	244.82
736.17	244.38
736.50	243.89
736.83	243.71
737.16	243.35
737.49	243.01
737.82	242.64
738.15	242.31
738.48	241.94
738.81	241.56
739.14	241.20
739.47	240.88
739.80	240.49
740.13	240.09
740.46	239.74
740.79	239.35
741.12	239.04
741.45	238.75
741.78	238.30
742.11	238.08
742.44	237.73
742.77	237.52
743.10	237.26
743.43	236.93
743.75	236.45
744.08	236.31
744.41	235.96
744.74	235.64
745.07	235.29
745.40	235.02
745.73	234.83
746.06	234.52
746.39	234.23
746.71	233.98
747.04	233.79
747.37	233.47
747.70	233.30
748.03	233.01
748.36	232.75
748.68	232.42
749.01	232.07
749.34	231.85
749.67	231.50
750.00	231.20
750.33	231.07
750.65	230.87
750.98	230.43
751.31	230.14
751.64	229.85
751.97	229.70
752.29	229.48
752.62	229.13
752.95	228.90
753.28	228.58
753.60	228.29
753.93	228.08
754.26	227.87
754.59	227.60
754.91	227.40
755.24	227.21
755.57	227.01
755.90	226.78
756.22	226.52
756.55	226.35
756.88	226.21
757.20	225.88
757.53	225.53
757.86	225.34
758.19	225.21
758.51	225.06
758.84	224.81
759.17	224.64
759.49	224.54
759.82	224.43
760.15	224.29
760.47	224.12
760.80	223.89
761.13	223.72
761.45	223.53
761.78	223.36
762.11	223.16
762.43	223.01
762.76	222.89
763.08	222.88
763.41	222.67
763.74	222.51
764.06	222.35
764.39	222.28
764.71	222.12
765.04	222.02
765.37	221.94
765.69	221.84
766.02	221.65
766.34	221.46
766.67	221.34
767.00	221.23
767.32	221.14
767.65	221.15
767.97	221.03
768.30	220.88
768.62	220.77
768.95	220.69
769.27	220.54
769.60	220.48
769.92	220.27
770.25	220.14
770.57	220.01
770.90	219.94
771.22	219.80
771.55	219.73
771.87	219.58
772.20	219.38
772.52	219.43
772.85	219.65
773.17	219.53
773.50	219.43
773.82	219.38
774.15	219.24
774.47	219.03
774.80	218.94
775.12	218.88
775.45	218.83
775.77	218.76
776.09	218.75
776.42	218.56
776.74	218.51
777.07	218.47
777.39	218.39
777.72	218.29
778.04	218.24
778.36	218.18
778.69	218.16
779.01	218.15
779.33	217.98
779.66	217.65
779.98	217.62
780.31	217.55
780.63	217.53
780.95	217.54
781.28	217.50
781.60	217.42
781.92	217.30
782.25	217.16
782.57	217.02
782.89	216.96
783.22	216.89
783.54	216.83
783.86	216.76
784.19	216.70
784.51	216.72
784.83	216.65
785.16	216.60
785.48	216.52
785.80	216.43
786.12	216.36
786.45	216.37
786.77	216.29
787.09	216.22
787.42	216.04
787.74	215.91
788.06	215.84
788.38	215.85
788.71	215.82
789.03	215.80
789.35	215.77
789.67	215.71
789.99	215.76
790.32	215.67
790.64	215.69
790.96	215.73
791.28	215.62
791.61	215.61
791.93	215.54
792.25	215.45
792.57	215.58
792.89	215.48
793.21	215.40
793.54	215.37
793.86	215.27
794.18	215.27
794.50	215.24
794.82	215.22
795.14	215.19
795.47	215.19
795.79	215.17
796.11	215.12
796.43	215.02
796.75	214.99
797.07	214.93
797.39	214.90
797.71	214.79
798.04	214.80
798.36	214.78
798.68	214.71
799.00	214.69
799.32	214.45
799.64	214.49
799.96	214.38
800.28	214.46
800.60	214.48
800.92	214.43
801.24	214.40
801.56	214.34
801.89	214.27
802.21	214.24
802.53	214.17
802.85	214.19
803.17	214.32
803.49	214.19
803.81	214.14
804.13	214.05
804.45	213.95
804.77	213.91
805.09	213.84
805.41	213.89
805.73	213.88
806.05	213.90
806.37	213.85
806.69	213.83
807.01	213.77
807.33	213.80
807.65	213.78
807.97	213.80
808.28	213.78
808.60	213.78
808.92	213.80
809.24	213.87
809.56	213.89
809.88	213.78
810.20	213.79
810.52	213.85
810.84	213.77
811.16	213.81
811.48	213.73
811.80	213.81
812.12	213.75
812.43	213.75
812.75	213.80
813.07	213.70
813.39	213.70
813.71	213.63
814.03	213.54
814.35	213.53
814.67	213.49
814.98	213.41
815.30	213.36
815.62	213.24
815.94	213.10
816.26	213.01
816.58	212.96
816.89	212.93
817.21	212.86
817.53	212.91
817.85	212.87
818.17	212.95
818.48	212.94
818.80	212.92
819.12	212.84
819.44	212.82
819.76	212.76
820.07	212.83
820.39	212.78
820.71	212.72
821.03	212.71
821.34	212.67
821.66	212.78
821.98	212.81
822.30	212.84
822.61	212.94
822.93	212.90
823.25	212.87
823.57	212.88
823.88	212.89
824.20	212.87
824.52	212.90
824.83	212.83
825.15	212.71
825.47	212.67
825.79	212.75
826.10	212.67
826.42	212.71
826.74	212.68
827.05	212.66
827.37	212.74
827.69	212.65
828.00	212.67
828.32	212.61
828.64	212.55
828.95	212.62
829.27	212.57
829.58	212.58
829.90	212.66
830.22	212.66
830.53	212.61
830.85	212.53
831.17	212.48
831.48	212.50
831.80	212.50
832.11	212.52
832.43	212.43
832.75	212.46
833.06	212.54
833.38	212.45
833.69	212.47
834.01	212.46
834.32	212.53
834.64	212.49
834.96	212.47
835.27	212.48
835.59	212.40
835.90	212.34
836.22	212.33
836.53	212.24
836.85	212.25
837.16	212.44
837.48	212.44
837.79	212.45
838.11	212.33
838.42	212.35
838.74	212.31
839.05	212.30
839.37	212.25
839.68	212.14
840.00	212.21
840.31	212.18
840.63	212.09
840.94	212.10
841.26	212.11
841.57	212.06
841.88	212.08
842.20	212.08
842.51	212.06
842.83	212.08
843.14	212.25
843.46	212.25
843.77	212.17
844.08	212.14
844.40	212.12
844.71	212.23
845.03	212.19
845.34	212.22
845.65	212.23
845.97	212.23
846.28	212.22
846.60	212.18
846.91	212.22
847.22	212.24
847.54	212.22
847.85	212.24
848.16	212.29
848.48	212.22
848.79	212.24
849.10	212.28
849.42	212.25
849.73	212.05
850.04	211.97
850.36	211.91
850.67	211.98
850.98	211.98
851.30	211.91
851.61	211.95
851.92	211.95
852.23	212.01
852.55	212.05
852.86	212.09
853.17	212.08
853.49	212.12
853.80	212.11
854.11	212.17
854.42	212.17
854.74	212.14
855.05	212.19
855.36	212.11
855.67	212.10
855.99	212.15
856.30	212.36
856.61	212.42
856.92	212.35
857.23	212.39
857.55	212.30
857.86	212.37
858.17	212.39
858.48	212.39
858.79	212.29
859.11	212.23
859.42	212.22
859.73	212.25
860.04	212.13
860.35	212.14
860.66	212.00
860.98	211.92
861.29	211.90
861.60	211.85
861.91	211.89
862.22	211.85
862.53	211.78
862.84	211.60
863.16	211.58
863.47	211.61
863.78	211.57
864.09	211.61
864.40	211.56
864.71	211.48
865.02	211.38
865.33	211.37
865.64	211.40
865.95	211.39
866.27	211.39
866.58	211.46
866.89	211.46
867.20	211.50
867.51	211.43
867.82	211.42
868.13	211.43
868.44	211.42
868.75	211.43
869.06	211.43
869.37	211.44
869.68	211.38
869.99	211.35
870.30	211.29
870.61	211.32
870.92	211.32
871.23	211.29
871.54	211.37
871.85	211.41
872.16	211.46
872.47	211.42
872.78	211.36
873.09	211.31
873.40	211.27
873.71	211.36
874.02	211.43
874.33	211.49
874.64	211.47
874.95	211.44
875.26	211.41
875.56	211.40
875.87	211.32
876.18	211.31
876.49	211.53
876.80	211.55
877.11	211.50
877.42	211.53
877.73	211.53
878.04	211.50
878.35	211.53
878.66	211.48
878.96	211.51
879.27	211.52
879.58	211.55
879.89	211.52
880.20	211.45
880.51	211.47
880.82	211.43
881.12	211.44
881.43	211.45
881.74	211.47
882.05	211.45
882.36	211.51
882.67	211.53
882.97	211.33
883.28	211.28
883.59	211.31
883.90	211.30
884.21	211.40
884.51	211.42
884.82	211.35
885.13	211.34
885.44	211.37
885.74	211.36
886.05	211.34
886.36	211.35
886.67	211.33
886.98	211.42
887.28	211.44
887.59	211.45
887.90	211.42
888.20	211.37
888.51	211.42
888.82	211.43
889.13	211.40
889.43	211.47
889.74	211.47
890.05	211.46
890.35	211.42
890.66	211.35
890.97	211.36
891.28	211.34
891.58	211.37
891.89	211.26
892.20	211.26
892.50	211.21
892.81	211.17
893.12	211.18
893.42	211.02
893.73	210.99
894.04	211.01
894.34	211.00
894.65	211.03
894.95	210.91
895.26	210.94
895.57	211.08
895.87	211.00
896.18	211.09
896.48	211.05
896.79	211.09
897.10	211.08
897.40	211.02
897.71	211.01
898.01	210.99
898.32	211.05
898.63	211.02
898.93	211.03
899.24	211.06
899.54	211.09
899.85	211.11
900.15	211.10
900.46	211.10
900.76	211.15
901.07	211.11
901.38	211.14
901.68	211.07
901.99	210.92
902.29	210.95
902.60	210.96
902.90	210.95
903.21	210.94
903.51	210.98
903.82	211.02
904.12	211.02
904.43	211.08
904.73	211.11
905.03	211.12
905.34	211.33
905.64	211.32
905.95	211.29
906.25	211.28
906.56	211.28
906.86	211.29
907.17	211.29
907.47	211.35
907.77	211.38
908.08	211.41
908.38	211.50
908.69	211.50
908.99	211.57
909.30	211.64
909.60	211.62
909.90	211.58
910.21	211.56
910.51	211.58
910.81	211.49
911.12	211.49
911.42	211.50
911.73	211.38
912.03	211.40
912.33	211.40
912.64	211.40
912.94	211.39
913.24	211.30
913.55	211.21
913.85	211.17
914.15	211.20
914.46	211.22
914.76	211.14
915.06	211.14
915.37	211.01
915.67	210.99
915.97	210.99
916.27	211.01
916.58	210.98
916.88	210.98
917.18	211.01
917.49	211.06
917.79	211.04
918.09	211.03
918.39	211.10
918.70	211.15
919.00	211.21
919.30	211.30
919.60	211.33
919.91	211.44
920.21	211.45
920.51	211.43
920.81	211.44
921.12	211.49
921.42	211.50
921.72	211.46
922.02	211.45
922.32	211.39
922.63	211.38
922.93	211.48
923.23	211.47
923.53	211.38
923.83	211.28
924.13	211.33
924.44	211.25
924.74	211.25
925.04	211.25
925.34	211.13
925.64	211.08
925.94	211.04
926.24	211.04
926.55	211.05
926.85	210.97
927.15	210.90
927.45	210.95
927.75	210.92
928.05	210.99
928.35	211.01
928.65	211.07
928.95	211.10
929.26	211.03
929.56	211.03
929.86	211.07
930.16	211.08
930.46	211.06
930.76	211.15
931.06	211.11
931.36	211.05
931.66	211.14
931.96	211.19
932.26	211.27
932.56	211.25
932.86	211.22
933.16	211.31
933.46	211.37
933.76	211.27
934.06	211.24
934.36	211.19
934.66	211.15
934.96	211.13
935.26	211.08
935.56	211.14
935.86	211.18
936.16	211.20
936.46	211.25
936.76	211.18
937.06	211.12
937.36	211.08
937.66	211.05
937.96	211.05
938.26	210.94
938.56	210.88
938.86	210.86
939.16	210.96
939.46	210.94
939.76	210.92
940.06	210.91
940.35	210.97
940.65	210.90
940.95	210.89
941.25	210.87
941.55	210.90
941.85	210.85
942.15	210.88
942.45	210.92
942.75	210.93
943.04	211.04
943.34	211.06
943.64	211.01
943.94	211.02
944.24	210.95
944.54	211.02
944.84	211.03
945.13	211.02
945.43	210.96
945.73	210.99
946.03	211.02
946.33	211.07
946.62	211.08
946.92	211.15
947.22	211.23
947.52	211.27
947.82	211.27
948.11	211.29
948.41	211.26
948.71	211.24
949.01	211.15
949.31	211.11
949.60	211.15
949.90	211.16
950.20	211.16
950.50	211.23
950.79	211.26
951.09	211.25
951.39	211.25
951.69	211.20
951.98	211.17
952.28	211.11
952.58	211.07
952.87	210.96
953.17	210.99
953.47	210.93
953.76	210.89
954.06	210.87
954.36	210.86
954.66	210.87
954.95	210.87
955.25	210.87
955.55	210.82
955.84	210.75
956.14	210.83
956.44	210.84
956.73	210.83
957.03	210.83
957.32	210.87
957.62	210.80
957.92	210.84
958.21	210.80
958.51	210.99
958.81	211.01
959.10	211.00
959.40	211.01
959.69	210.97
959.99	211.02
960.29	210.99
960.58	210.90
960.88	210.95
961.17	210.97
961.47	211.04
961.76	211.08
962.06	211.11
962.36	211.05
962.65	210.99
962.95	210.98
963.24	210.90
963.54	210.90
963.83	210.97
964.13	210.96
964.42	210.97
964.72	210.85
965.01	210.85
965.31	210.92
965.60	210.87
965.90	211.01
966.19	210.97
966.49	211.07
966.78	211.10
967.08	210.98
967.37	210.98
967.67	210.88
967.96	210.88
968.26	210.90
968.55	210.96
968.85	211.05
969.14	210.97
969.43	210.99
969.73	210.95
970.02	210.89
970.32	210.91
970.61	210.89
970.91	210.75
971.20	210.78
971.49	210.81
971.79	210.77
972.08	210.69
972.38	210.72
972.67	210.64
972.96	210.73
973.26	210.78
973.55	210.76
973.85	210.81
974.14	210.81
974.43	210.75
974.73	210.69
975.02	210.68
975.31	210.68
975.61	210.67
975.90	210.67
976.19	210.62
976.49	210.60
976.78	210.67
977.07	210.75
977.37	210.70
977.66	210.70
977.95	210.77
978.24	210.77
978.54	210.79
978.83	210.69
979.12	210.55
979.42	210.58
979.71	210.61
980.00	210.60
980.29	210.64
980.59	210.60
980.88	210.64
981.17	210.65
981.46	210.70
981.76	210.73
982.05	210.81
982.34	210.88
982.63	210.85
982.93	210.79
983.22	210.85
983.51	210.89
983.80	210.91
984.09	210.91
984.39	210.93
984.68	210.90
984.97	211.00
985.26	211.07
985.55	211.03
985.85	210.96
986.14	211.00
986.43	210.97
986.72	211.02
987.01	210.96
987.30	210.95
987.59	210.99
987.89	210.99
988.18	210.91
988.47	210.99
988.76	210.97
989.05	211.01
989.34	211.00
989.63	211.07
989.92	211.03
990.22	210.99
990.51	210.90
990.80	210.87
991.09	210.90
991.38	210.90
991.67	210.92
991.96	210.94
992.25	210.92
992.54	210.88
992.83	210.94
993.12	210.96
993.41	211.00
993.70	211.02
993.99	211.03
994.28	211.06
994.58	211.00
994.87	211.05
995.16	210.99
995.45	210.89
995.74	210.79
996.03	210.81
996.32	210.78
996.61	210.87
996.90	210.94
997.19	210.90
997.48	210.92
997.77	210.89
998.06	210.91
998.34	210.93
998.63	210.95
998.92	210.93
999.21	210.96
999.50	210.92
999.79	210.84
1000.08	210.83
1000.37	210.84
1000.66	210.76
1000.95	210.75
1001.24	210.80
1001.53	210.85
1001.82	210.87
1002.11	210.90
1002.40	210.97
1002.68	210.97
1002.97	211.05
1003.26	211.06
1003.55	211.07
1003.84	211.13
1004.13	211.15
1004.42	211.09
1004.71	211.18
1004.99	211.17
1005.28	211.19
1005.57	211.16
1005.86	211.18
1006.15	211.11
1006.44	211.04
1006.72	211.18
1007.01	211.19
1007.30	211.19
1007.59	211.23
1007.88	211.20
1008.17	211.17
1008.45	211.18
1008.74	211.14
1009.03	211.01
1009.32	210.98
1009.60	210.93
1009.89	210.87
1010.18	210.85
1010.47	210.84
1010.76	210.73
1011.04	210.70
1011.33	210.74
1011.62	210.82
1011.91	210.85
1012.19	210.91
1012.48	210.95
1012.77	210.88
1013.05	211.03
1013.34	210.99
1013.63	210.98
1013.92	210.98
1014.20	211.03
1014.49	210.96
1014.78	210.96
1015.06	210.96
1015.35	211.04
1015.64	211.07
1015.92	211.02
1016.21	210.99
1016.50	211.03
1016.78	211.12
1017.07	211.18
1017.36	211.15
1017.64	211.06
1017.93	211.12
1018.22	211.10
1018.50	211.09
1018.79	211.15
1019.08	211.07
1019.36	210.99
1019.65	210.93
1019.93	211.09
1020.22	211.09
1020.51	211.23
1020.79	211.28
1021.08	210.20
1021.36	210.25
1021.65	212.20
1021.94	212.25
1022.22	208.80
1022.51	210.40
1022.79	213.75
1023.08	212.00
1023.36	213.35
1023.65	211.60
>>>>>End Processed Spectral Data<<<<<
