SpectraSuite Data File
++++++++++++++++++++++++++++++++++++
Date: Mon Feb 25 17:31:30 EST 2013
User: group
Dark Spectrum Present: No
Reference Spectrum Present: No
Number of Sampled Component Spectra: 1
Spectrometers: USB2E7196
Integration Time (usec): 52000 (USB2E7196)
Spectra Averaged: 20 (USB2E7196)
Boxcar Smoothing: 10 (USB2E7196)
Correct for Electrical Dark: No (USB2E7196)
Strobe/Lamp Enabled: No (USB2E7196)
Correct for Detector Non-linearity: No (USB2E7196)
Correct for Stray Light: No (USB2E7196)
Number of Pixels in Processed Spectrum: 2048
>>>>>Begin Processed Spectral Data<<<<<
339.09	0.00
339.48	199.80
339.86	200.05
340.24	202.65
340.63	204.20
341.01	206.80
341.39	205.25
341.78	206.75
342.16	210.05
342.54	209.95
342.93	198.48
343.31	208.57
343.69	209.10
344.07	209.60
344.46	210.00
344.84	210.37
345.22	210.60
345.60	210.91
345.99	211.16
346.37	211.31
346.75	211.38
347.13	211.53
347.52	211.55
347.90	211.64
348.28	211.66
348.66	211.75
349.05	211.73
349.43	211.82
349.81	211.90
350.19	211.95
350.57	211.98
350.96	212.12
351.34	212.18
351.72	212.26
352.10	212.35
352.48	212.45
352.87	212.53
353.25	212.60
353.63	212.59
354.01	212.66
354.39	212.69
354.77	212.77
355.15	212.84
355.54	212.89
355.92	212.92
356.30	213.00
356.68	213.17
357.06	213.27
357.44	213.30
357.82	213.36
358.20	213.47
358.58	213.40
358.97	213.45
359.35	213.55
359.73	213.61
360.11	213.70
360.49	213.76
360.87	213.72
361.25	213.81
361.63	213.97
362.01	214.02
362.39	214.01
362.77	214.02
363.15	214.05
363.53	214.09
363.91	214.14
364.29	214.12
364.67	213.94
365.05	213.91
365.43	213.89
365.81	213.80
366.19	213.86
366.57	213.95
366.95	213.90
367.33	213.83
367.71	213.73
368.09	213.74
368.47	213.67
368.85	213.65
369.23	213.60
369.61	213.48
369.99	213.50
370.37	213.43
370.75	213.45
371.13	213.41
371.51	213.36
371.89	213.32
372.27	213.23
372.65	213.23
373.03	213.19
373.41	213.15
373.78	213.11
374.16	212.93
374.54	212.80
374.92	212.78
375.30	212.74
375.68	212.80
376.06	212.66
376.44	212.62
376.82	212.60
377.19	212.57
377.57	212.53
377.95	212.32
378.33	212.35
378.71	212.28
379.09	212.25
379.47	212.18
379.84	212.07
380.22	212.06
380.60	211.97
380.98	211.92
381.36	211.91
381.73	211.90
382.11	211.93
382.49	211.95
382.87	211.96
383.25	211.90
383.62	211.98
384.00	211.99
384.38	211.92
384.76	211.96
385.13	211.93
385.51	211.86
385.89	211.90
386.27	211.81
386.64	211.74
387.02	211.64
387.40	211.61
387.78	211.64
388.15	211.67
388.53	211.67
388.91	211.65
389.29	211.58
389.66	211.59
390.04	211.55
390.42	211.53
390.79	211.42
391.17	211.40
391.55	211.27
391.92	211.20
392.30	211.23
392.68	211.17
393.05	211.17
393.43	211.18
393.81	211.19
394.18	211.20
394.56	211.17
394.94	211.25
395.31	211.24
395.69	211.31
396.06	211.31
396.44	211.26
396.82	211.24
397.19	211.36
397.57	211.37
397.95	211.38
398.32	211.33
398.70	211.35
399.07	211.39
399.45	211.34
399.82	211.43
400.20	211.48
400.58	211.54
400.95	211.58
401.33	211.70
401.70	211.83
402.08	211.93
402.45	212.13
402.83	212.29
403.20	212.41
403.58	212.51
403.95	212.56
404.33	212.73
404.71	212.90
405.08	213.08
405.46	213.25
405.83	213.40
406.21	213.54
406.58	213.73
406.96	213.90
407.33	214.03
407.70	214.26
408.08	214.52
408.45	214.76
408.83	214.99
409.20	215.25
409.58	215.41
409.95	215.65
410.33	215.83
410.70	216.05
411.08	216.35
411.45	216.65
411.82	217.07
412.20	217.47
412.57	218.03
412.95	218.34
413.32	218.75
413.69	219.27
414.07	219.79
414.44	220.41
414.82	220.97
415.19	221.77
415.56	222.42
415.94	223.14
416.31	223.98
416.68	224.81
417.06	225.72
417.43	226.69
417.81	227.75
418.18	228.91
418.55	230.14
418.93	231.34
419.30	232.61
419.67	233.95
420.04	235.46
420.42	236.83
420.79	238.58
421.16	240.41
421.54	242.23
421.91	244.07
422.28	245.95
422.66	248.06
423.03	250.14
423.40	252.24
423.77	254.40
424.15	256.65
424.52	259.02
424.89	261.66
425.26	264.16
425.64	266.44
426.01	268.95
426.38	271.50
426.75	274.18
427.13	276.98
427.50	279.96
427.87	282.93
428.24	286.00
428.61	288.84
428.99	291.95
429.36	295.41
429.73	298.82
430.10	302.27
430.47	305.72
430.85	309.25
431.22	313.17
431.59	317.25
431.96	321.06
432.33	325.31
432.70	329.29
433.08	334.11
433.45	338.79
433.82	343.33
434.19	348.36
434.56	353.41
434.93	358.04
435.30	362.72
435.68	367.89
436.05	372.88
436.42	377.94
436.79	382.59
437.16	387.56
437.53	392.92
437.90	398.09
438.27	403.24
438.64	408.66
439.01	413.54
439.38	417.81
439.75	422.11
440.13	426.97
440.50	431.43
440.87	435.09
441.24	438.79
441.61	442.94
441.98	446.22
442.35	449.77
442.72	453.42
443.09	456.96
443.46	459.11
443.83	460.50
444.20	461.75
444.57	463.50
444.94	464.24
445.31	464.86
445.68	465.66
446.05	465.86
446.42	465.15
446.79	464.45
447.16	463.65
447.53	463.02
447.90	460.80
448.27	458.76
448.64	455.81
449.01	453.75
449.37	450.25
449.74	446.58
450.11	442.55
450.48	438.11
450.85	433.44
451.22	429.50
451.59	425.91
451.96	422.35
452.33	417.68
452.70	413.36
453.07	408.38
453.43	403.09
453.80	398.06
454.17	393.25
454.54	388.66
454.91	383.95
455.28	379.25
455.65	375.00
456.02	370.79
456.38	367.08
456.75	362.48
457.12	358.58
457.49	354.91
457.86	351.15
458.23	347.95
458.59	344.51
458.96	341.01
459.33	337.89
459.70	334.80
460.07	332.30
460.43	329.51
460.80	326.89
461.17	324.61
461.54	322.22
461.91	319.98
462.27	317.66
462.64	315.61
463.01	313.39
463.38	311.25
463.74	309.02
464.11	307.20
464.48	305.68
464.85	304.00
465.21	302.65
465.58	301.27
465.95	299.62
466.32	298.27
466.68	296.79
467.05	295.35
467.42	294.00
467.78	292.54
468.15	291.23
468.52	290.36
468.88	289.03
469.25	287.95
469.62	287.02
469.98	286.00
470.35	285.23
470.72	284.42
471.08	283.43
471.45	282.72
471.82	282.08
472.18	281.16
472.55	280.59
472.92	279.84
473.28	279.21
473.65	278.61
474.02	278.10
474.38	277.74
474.75	277.38
475.11	276.97
475.48	276.78
475.85	276.55
476.21	276.20
476.58	276.16
476.94	276.15
477.31	276.06
477.67	276.00
478.04	275.89
478.41	276.00
478.77	276.25
479.14	276.38
479.50	276.61
479.87	277.05
480.23	277.38
480.60	277.80
480.96	278.25
481.33	278.90
481.69	279.48
482.06	280.10
482.42	280.85
482.79	281.66
483.15	282.47
483.52	283.48
483.88	284.50
484.25	285.48
484.61	286.54
484.98	287.70
485.34	289.03
485.71	290.41
486.07	291.77
486.44	293.09
486.80	294.62
487.17	296.16
487.53	297.90
487.90	299.75
488.26	301.70
488.62	303.75
488.99	305.74
489.35	307.93
489.72	310.23
490.08	312.56
490.44	314.98
490.81	317.57
491.17	320.18
491.54	323.00
491.90	325.94
492.26	329.09
492.63	332.36
492.99	335.75
493.36	339.43
493.72	343.37
494.08	347.49
494.45	351.71
494.81	356.31
495.17	360.87
495.54	365.77
495.90	370.83
496.26	375.97
496.63	381.45
496.99	387.06
497.35	393.03
497.72	399.27
498.08	405.84
498.44	412.58
498.80	419.73
499.17	427.02
499.53	434.71
499.89	442.50
500.26	450.53
500.62	458.86
500.98	467.60
501.34	476.64
501.71	485.97
502.07	495.60
502.43	505.50
502.79	515.61
503.16	526.05
503.52	536.80
503.88	548.09
504.24	559.52
504.60	571.47
504.97	583.73
505.33	596.34
505.69	609.55
506.05	622.95
506.41	636.48
506.78	650.43
507.14	664.48
507.50	678.99
507.86	693.95
508.22	709.40
508.59	724.82
508.95	740.70
509.31	757.03
509.67	773.64
510.03	790.28
510.39	807.80
510.75	825.45
511.12	843.31
511.48	861.46
511.84	880.19
512.20	898.49
512.56	917.57
512.92	936.87
513.28	956.10
513.64	975.78
514.00	995.50
514.37	1015.72
514.73	1036.34
515.09	1056.88
515.45	1077.80
515.81	1098.75
516.17	1120.18
516.53	1141.28
516.89	1162.61
517.25	1183.90
517.61	1205.75
517.97	1227.07
518.33	1248.44
518.69	1270.22
519.05	1292.31
519.41	1314.55
519.77	1337.29
520.13	1359.11
520.49	1381.08
520.85	1403.31
521.21	1425.63
521.57	1448.58
521.93	1470.45
522.29	1493.18
522.65	1515.54
523.01	1537.85
523.37	1559.64
523.73	1581.66
524.09	1603.89
524.45	1625.78
524.81	1647.85
525.17	1670.00
525.53	1692.22
525.89	1714.56
526.25	1736.55
526.61	1757.43
526.97	1778.59
527.33	1799.52
527.68	1820.74
528.04	1841.79
528.40	1861.98
528.76	1882.70
529.12	1902.65
529.48	1924.08
529.84	1944.16
530.20	1964.54
530.56	1984.65
530.91	2005.15
531.27	2025.13
531.63	2044.48
531.99	2064.04
532.35	2083.14
532.71	2101.68
533.07	2121.01
533.42	2139.03
533.78	2157.35
534.14	2175.67
534.50	2192.17
534.86	2209.59
535.21	2226.42
535.57	2243.71
535.93	2260.85
536.29	2277.08
536.65	2293.83
537.00	2308.86
537.36	2323.93
537.72	2338.61
538.08	2353.25
538.44	2368.27
538.79	2383.65
539.15	2398.42
539.51	2412.73
539.87	2427.54
540.22	2441.76
540.58	2456.18
540.94	2470.53
541.29	2483.37
541.65	2495.23
542.01	2508.69
542.37	2520.62
542.72	2532.50
543.08	2543.20
543.44	2554.95
543.79	2565.11
544.15	2574.96
544.51	2585.55
544.87	2596.04
545.22	2605.40
545.58	2613.85
545.94	2620.86
546.29	2626.49
546.65	2632.33
547.01	2638.47
547.36	2643.87
547.72	2648.98
548.07	2652.85
548.43	2656.26
548.79	2659.91
549.14	2664.29
549.50	2668.15
549.86	2671.79
550.21	2675.59
550.57	2679.41
550.92	2681.67
551.28	2684.03
551.64	2686.21
551.99	2688.62
552.35	2689.78
552.70	2691.82
553.06	2694.43
553.41	2697.52
553.77	2700.51
554.13	2702.91
554.48	2704.45
554.84	2705.98
555.19	2706.81
555.55	2707.02
555.90	2707.39
556.26	2707.90
556.61	2708.00
556.97	2706.91
557.32	2706.41
557.68	2704.69
558.03	2703.11
558.39	2701.27
558.74	2700.73
559.10	2699.45
559.45	2697.27
559.81	2696.36
560.16	2694.08
560.52	2691.49
560.87	2687.81
561.23	2683.65
561.58	2681.32
561.94	2678.32
562.29	2674.57
562.64	2671.98
563.00	2669.22
563.35	2666.96
563.71	2664.84
564.06	2662.55
564.42	2660.64
564.77	2658.27
565.12	2656.25
565.48	2652.91
565.83	2649.60
566.19	2645.96
566.54	2641.91
566.89	2637.80
567.25	2634.00
567.60	2630.47
567.96	2626.86
568.31	2623.58
568.66	2620.17
569.02	2615.39
569.37	2610.52
569.72	2606.72
570.08	2601.33
570.43	2596.05
570.78	2590.24
571.14	2584.13
571.49	2577.68
571.84	2571.53
572.20	2564.52
572.55	2558.00
572.90	2551.40
573.26	2545.01
573.61	2538.10
573.96	2531.74
574.31	2524.35
574.67	2516.13
575.02	2508.02
575.37	2499.10
575.72	2490.49
576.08	2482.97
576.43	2474.39
576.78	2466.24
577.13	2458.17
577.49	2450.36
577.84	2442.64
578.19	2435.17
578.54	2427.72
578.90	2420.85
579.25	2412.28
579.60	2403.22
579.95	2394.03
580.30	2386.08
580.66	2378.08
581.01	2369.25
581.36	2359.94
581.71	2351.74
582.06	2343.56
582.42	2335.50
582.77	2326.76
583.12	2317.78
583.47	2309.34
583.82	2301.35
584.17	2292.30
584.53	2283.20
584.88	2274.37
585.23	2265.40
585.58	2255.88
585.93	2246.22
586.28	2237.04
586.63	2228.28
586.98	2220.54
587.34	2212.39
587.69	2203.48
588.04	2194.70
588.39	2186.75
588.74	2177.79
589.09	2169.28
589.44	2159.51
589.79	2151.08
590.14	2143.37
590.49	2135.25
590.84	2126.16
591.19	2118.30
591.54	2110.07
591.89	2100.22
592.25	2091.18
592.60	2081.95
592.95	2072.87
593.30	2063.59
593.65	2053.61
594.00	2044.12
594.35	2035.92
594.70	2026.93
595.05	2018.14
595.40	2009.23
595.75	1999.79
596.10	1991.84
596.45	1983.24
596.80	1975.75
597.15	1967.25
597.50	1958.27
597.85	1950.07
598.19	1941.41
598.54	1932.58
598.89	1924.63
599.24	1918.00
599.59	1910.54
599.94	1903.57
600.29	1896.24
600.64	1888.32
600.99	1880.35
601.34	1873.60
601.69	1864.74
602.04	1856.67
602.39	1848.88
602.74	1841.17
603.08	1834.69
603.43	1827.47
603.78	1819.50
604.13	1811.80
604.48	1804.19
604.83	1797.17
605.18	1789.99
605.53	1782.50
605.87	1774.85
606.22	1767.95
606.57	1760.25
606.92	1752.44
607.27	1744.23
607.62	1737.00
607.96	1730.30
608.31	1724.12
608.66	1716.04
609.01	1708.70
609.36	1701.15
609.70	1693.26
610.05	1685.67
610.40	1677.14
610.75	1668.70
611.10	1661.34
611.44	1652.06
611.79	1643.07
612.14	1634.00
612.49	1624.54
612.83	1616.05
613.18	1606.63
613.53	1597.12
613.88	1587.57
614.22	1578.79
614.57	1569.78
614.92	1560.50
615.27	1551.30
615.61	1541.73
615.96	1533.08
616.31	1524.63
616.65	1516.90
617.00	1508.71
617.35	1500.46
617.70	1491.64
618.04	1482.83
618.39	1473.55
618.74	1465.71
619.08	1457.24
619.43	1449.27
619.78	1441.75
620.12	1433.91
620.47	1426.45
620.82	1418.07
621.16	1409.83
621.51	1401.54
621.85	1393.47
622.20	1385.13
622.55	1376.97
622.89	1368.81
623.24	1360.87
623.59	1352.24
623.93	1343.62
624.28	1335.61
624.62	1327.26
624.97	1319.65
625.32	1312.15
625.66	1304.92
626.01	1297.68
626.35	1290.35
626.70	1282.81
627.04	1275.45
627.39	1267.72
627.73	1260.19
628.08	1253.51
628.43	1246.24
628.77	1239.22
629.12	1231.82
629.46	1225.26
629.81	1218.09
630.15	1211.01
630.50	1203.73
630.84	1196.91
631.19	1189.74
631.53	1182.81
631.88	1175.44
632.22	1167.67
632.57	1160.75
632.91	1153.42
633.26	1145.94
633.60	1139.14
633.95	1132.40
634.29	1124.98
634.64	1118.45
634.98	1111.56
635.32	1104.55
635.67	1098.17
636.01	1091.41
636.36	1084.83
636.70	1078.22
637.05	1071.58
637.39	1065.09
637.73	1058.75
638.08	1052.89
638.42	1047.10
638.77	1040.79
639.11	1034.36
639.45	1028.58
639.80	1021.94
640.14	1015.52
640.49	1009.41
640.83	1003.16
641.17	996.72
641.52	990.91
641.86	984.41
642.20	978.17
642.55	971.56
642.89	965.24
643.23	958.95
643.58	952.97
643.92	946.63
644.26	940.50
644.61	934.91
644.95	928.88
645.29	922.44
645.64	915.81
645.98	909.58
646.32	903.90
646.66	897.65
647.01	891.78
647.35	885.98
647.69	879.87
648.04	873.83
648.38	867.95
648.72	861.83
649.06	855.81
649.41	849.82
649.75	844.19
650.09	838.51
650.43	832.59
650.78	826.59
651.12	820.53
651.46	814.98
651.80	808.81
652.14	803.03
652.49	797.33
652.83	791.69
653.17	785.70
653.51	779.98
653.85	774.41
654.20	768.66
654.54	762.86
654.88	757.38
655.22	751.65
655.56	745.84
655.90	740.21
656.25	734.60
656.59	729.23
656.93	724.01
657.27	718.77
657.61	713.50
657.95	708.46
658.29	703.36
658.64	698.12
658.98	693.10
659.32	687.68
659.66	682.64
660.00	677.47
660.34	672.47
660.68	667.31
661.02	662.39
661.36	657.71
661.70	652.97
662.05	648.25
662.39	644.01
662.73	639.74
663.07	635.41
663.41	631.21
663.75	626.65
664.09	622.08
664.43	617.42
664.77	613.07
665.11	608.55
665.45	604.25
665.79	599.97
666.13	595.64
666.47	591.67
666.81	587.49
667.15	583.46
667.49	579.56
667.83	575.71
668.17	571.96
668.51	568.30
668.85	564.61
669.19	561.04
669.53	557.05
669.87	553.10
670.21	549.31
670.55	545.49
670.89	542.13
671.23	538.82
671.57	535.31
671.91	531.80
672.25	528.33
672.58	524.77
672.92	521.32
673.26	518.24
673.60	515.05
673.94	511.69
674.28	508.48
674.62	505.38
674.96	502.23
675.30	499.09
675.64	495.92
675.97	492.79
676.31	489.77
676.65	486.98
676.99	484.52
677.33	481.56
677.67	478.60
678.01	475.43
678.34	472.35
678.68	469.71
679.02	466.80
679.36	463.98
679.70	461.31
680.04	458.63
680.37	455.60
680.71	452.70
681.05	450.19
681.39	447.52
681.73	444.83
682.06	442.35
682.40	439.87
682.74	437.23
683.08	434.85
683.42	432.19
683.75	429.60
684.09	426.81
684.43	424.38
684.77	421.95
685.10	419.65
685.44	417.27
685.78	414.73
686.12	412.47
686.45	410.18
686.79	407.90
687.13	405.74
687.46	403.56
687.80	401.39
688.14	399.01
688.48	396.88
688.81	394.69
689.15	392.48
689.49	390.24
689.82	388.12
690.16	385.77
690.50	383.56
690.83	381.43
691.17	379.15
691.51	376.98
691.84	374.88
692.18	372.92
692.52	370.92
692.85	369.15
693.19	367.24
693.52	365.31
693.86	363.37
694.20	361.46
694.53	359.62
694.87	357.74
695.21	356.01
695.54	354.12
695.88	352.30
696.21	350.37
696.55	348.70
696.88	346.94
697.22	345.21
697.56	343.65
697.89	341.97
698.23	340.45
698.56	338.77
698.90	337.25
699.23	335.61
699.57	334.11
699.90	332.47
700.24	330.85
700.58	329.28
700.91	327.84
701.25	326.39
701.58	324.99
701.92	323.55
702.25	322.11
702.59	320.82
702.92	319.56
703.26	318.32
703.59	316.98
703.93	315.90
704.26	314.70
704.60	313.39
704.93	312.21
705.26	311.10
705.60	310.11
705.93	308.91
706.27	307.75
706.60	306.49
706.94	305.38
707.27	304.27
707.61	303.22
707.94	302.00
708.27	300.78
708.61	299.61
708.94	298.57
709.28	297.44
709.61	296.30
709.94	295.10
710.28	294.05
710.61	292.96
710.95	291.76
711.28	290.88
711.61	289.90
711.95	288.92
712.28	287.92
712.61	286.84
712.95	285.90
713.28	285.09
713.61	284.14
713.95	283.18
714.28	282.31
714.61	281.32
714.95	280.43
715.28	279.53
715.61	278.63
715.95	277.76
716.28	276.87
716.61	275.93
716.95	275.17
717.28	274.35
717.61	273.54
717.94	272.77
718.28	271.87
718.61	271.08
718.94	270.27
719.27	269.51
719.61	268.77
719.94	268.09
720.27	267.24
720.60	266.59
720.94	265.87
721.27	265.14
721.60	264.50
721.93	263.92
722.27	263.36
722.60	262.69
722.93	262.08
723.26	261.59
723.59	261.07
723.93	260.42
724.26	259.80
724.59	259.23
724.92	258.66
725.25	258.12
725.59	257.54
725.92	257.01
726.25	256.44
726.58	255.96
726.91	255.40
727.24	254.82
727.57	254.31
727.91	253.64
728.24	253.22
728.57	252.68
728.90	252.24
729.23	251.61
729.56	251.20
729.89	250.66
730.22	250.05
730.55	249.64
730.89	249.22
731.22	248.81
731.55	248.38
731.88	247.90
732.21	247.46
732.54	247.07
732.87	246.68
733.20	246.19
733.53	245.68
733.86	245.32
734.19	244.97
734.52	244.67
734.85	244.59
735.18	244.19
735.51	243.94
735.84	243.55
736.17	243.34
736.50	242.87
736.83	242.74
737.16	242.47
737.49	242.12
737.82	241.80
738.15	241.50
738.48	241.07
738.81	240.81
739.14	240.39
739.47	239.99
739.80	239.62
740.13	239.33
740.46	238.97
740.79	238.59
741.12	238.24
741.45	237.81
741.78	237.34
742.11	237.02
742.44	236.65
742.77	236.33
743.10	236.05
743.43	235.86
743.75	235.42
744.08	235.35
744.41	234.99
744.74	234.66
745.07	234.36
745.40	234.16
745.73	233.95
746.06	233.75
746.39	233.55
746.71	233.28
747.04	233.06
747.37	232.89
747.70	232.67
748.03	232.50
748.36	232.25
748.68	231.95
749.01	231.69
749.34	231.54
749.67	231.32
750.00	231.12
750.33	230.97
750.65	230.75
750.98	230.37
751.31	230.21
751.64	230.05
751.97	229.91
752.29	229.71
752.62	229.39
752.95	229.15
753.28	228.91
753.60	228.70
753.93	228.56
754.26	228.37
754.59	228.06
754.91	227.80
755.24	227.65
755.57	227.55
755.90	227.41
756.22	227.22
756.55	227.01
756.88	226.79
757.20	226.46
757.53	226.20
757.86	225.95
758.19	225.76
758.51	225.59
758.84	225.27
759.17	225.10
759.49	224.90
759.82	224.89
760.15	224.76
760.47	224.59
760.80	224.41
761.13	224.37
761.45	224.30
761.78	224.11
762.11	223.94
762.43	223.74
762.76	223.62
763.08	223.48
763.41	223.37
763.74	223.13
764.06	222.97
764.39	222.82
764.71	222.71
765.04	222.57
765.37	222.40
765.69	222.32
766.02	222.20
766.34	222.16
766.67	221.93
767.00	221.80
767.32	221.79
767.65	221.74
767.97	221.54
768.30	221.39
768.62	221.35
768.95	221.22
769.27	221.11
769.60	221.06
769.92	220.88
770.25	220.75
770.57	220.66
770.90	220.64
771.22	220.57
771.55	220.46
771.87	220.37
772.20	220.29
772.52	220.40
772.85	220.45
773.17	220.31
773.50	220.19
773.82	220.05
774.15	219.79
774.47	219.56
774.80	219.45
775.12	219.31
775.45	219.23
775.77	219.15
776.09	219.07
776.42	218.93
776.74	218.94
777.07	218.79
777.39	218.73
777.72	218.64
778.04	218.60
778.36	218.39
778.69	218.33
779.01	218.29
779.33	217.95
779.66	217.75
779.98	217.68
780.31	217.62
780.63	217.71
780.95	217.74
781.28	217.70
781.60	217.60
781.92	217.60
782.25	217.50
782.57	217.52
782.89	217.47
783.22	217.35
783.54	217.23
783.86	217.21
784.19	217.06
784.51	216.99
784.83	216.87
785.16	216.95
785.48	216.86
785.80	216.80
786.12	216.84
786.45	216.65
786.77	216.58
787.09	216.51
787.42	216.33
787.74	216.28
788.06	216.17
788.38	216.12
788.71	216.06
789.03	216.02
789.35	215.93
789.67	215.91
789.99	215.87
790.32	215.80
790.64	215.72
790.96	215.91
791.28	215.78
791.61	215.73
791.93	215.63
792.25	215.60
792.57	215.61
792.89	215.55
793.21	215.59
793.54	215.55
793.86	215.50
794.18	215.45
794.50	215.38
794.82	215.34
795.14	215.27
795.47	215.24
795.79	215.23
796.11	215.18
796.43	214.98
796.75	214.90
797.07	214.82
797.39	214.76
797.71	214.56
798.04	214.52
798.36	214.45
798.68	214.43
799.00	214.39
799.32	214.27
799.64	214.20
799.96	214.23
800.28	214.15
800.60	214.15
800.92	214.12
801.24	214.05
801.56	214.05
801.89	214.00
802.21	213.99
802.53	213.87
802.85	213.81
803.17	213.99
803.49	213.97
803.81	213.93
804.13	213.92
804.45	213.88
804.77	213.88
805.09	213.88
805.41	213.85
805.73	213.79
806.05	213.78
806.37	213.82
806.69	213.75
807.01	213.76
807.33	213.75
807.65	213.68
807.97	213.75
808.28	213.74
808.60	213.79
808.92	213.71
809.24	213.85
809.56	213.84
809.88	213.72
810.20	213.68
810.52	213.78
810.84	213.78
811.16	213.77
811.48	213.77
811.80	213.83
812.12	213.74
812.43	213.75
812.75	213.70
813.07	213.64
813.39	213.60
813.71	213.66
814.03	213.55
814.35	213.57
814.67	213.47
814.98	213.37
815.30	213.34
815.62	213.30
815.94	213.15
816.26	213.16
816.58	213.11
816.89	213.15
817.21	213.00
817.53	213.04
817.85	213.08
818.17	213.06
818.48	213.04
818.80	213.09
819.12	213.03
819.44	212.97
819.76	212.89
820.07	212.89
820.39	212.83
820.71	212.81
821.03	212.82
821.34	212.74
821.66	212.80
821.98	212.75
822.30	212.75
822.61	212.87
822.93	212.81
823.25	212.85
823.57	212.82
823.88	212.87
824.20	212.76
824.52	212.69
824.83	212.70
825.15	212.56
825.47	212.60
825.79	212.64
826.10	212.68
826.42	212.75
826.74	212.72
827.05	212.67
827.37	212.62
827.69	212.57
828.00	212.62
828.32	212.61
828.64	212.53
828.95	212.68
829.27	212.64
829.58	212.58
829.90	212.52
830.22	212.52
830.53	212.44
830.85	212.46
831.17	212.42
831.48	212.39
831.80	212.40
832.11	212.34
832.43	212.19
832.75	212.14
833.06	212.24
833.38	212.19
833.69	212.15
834.01	212.15
834.32	212.16
834.64	212.11
834.96	212.11
835.27	212.17
835.59	212.03
835.90	211.95
836.22	212.05
836.53	212.02
836.85	211.97
837.16	212.16
837.48	212.14
837.79	212.19
838.11	212.21
838.42	212.18
838.74	212.13
839.05	212.20
839.37	212.18
839.68	212.01
840.00	212.00
840.31	212.02
840.63	212.03
840.94	211.96
841.26	211.94
841.57	211.87
841.88	211.84
842.20	211.73
842.51	211.64
842.83	211.55
843.14	211.74
843.46	211.72
843.77	211.60
844.08	211.52
844.40	211.47
844.71	211.39
845.03	211.33
845.34	211.37
845.65	211.30
845.97	211.26
846.28	211.17
846.60	211.17
846.91	211.13
847.22	211.17
847.54	211.15
847.85	211.26
848.16	211.22
848.48	211.30
848.79	211.38
849.10	211.44
849.42	211.45
849.73	211.26
850.04	211.28
850.36	211.26
850.67	211.37
850.98	211.35
851.30	211.37
851.61	211.51
851.92	211.54
852.23	211.63
852.55	211.67
852.86	211.76
853.17	211.80
853.49	211.92
853.80	211.95
854.11	211.97
854.42	211.93
854.74	211.91
855.05	211.82
855.36	211.72
855.67	211.74
855.99	211.77
856.30	211.96
856.61	211.98
856.92	211.98
857.23	211.94
857.55	211.96
857.86	211.92
858.17	211.90
858.48	211.80
858.79	211.84
859.11	211.89
859.42	211.86
859.73	211.87
860.04	211.75
860.35	211.72
860.66	211.80
860.98	211.78
861.29	211.90
861.60	211.89
861.91	211.98
862.22	211.96
862.53	211.93
862.84	211.75
863.16	211.72
863.47	211.77
863.78	211.76
864.09	211.72
864.40	211.78
864.71	211.79
865.02	211.85
865.33	211.77
865.64	211.70
865.95	211.70
866.27	211.79
866.58	211.81
866.89	211.84
867.20	211.77
867.51	211.79
867.82	211.77
868.13	211.89
868.44	211.85
868.75	211.84
869.06	211.90
869.37	211.93
869.68	211.90
869.99	211.80
870.30	211.83
870.61	211.84
870.92	211.77
871.23	211.72
871.54	211.73
871.85	211.83
872.16	211.85
872.47	211.81
872.78	211.67
873.09	211.68
873.40	211.60
873.71	211.61
874.02	211.59
874.33	211.53
874.64	211.44
874.95	211.52
875.26	211.53
875.56	211.43
875.87	211.40
876.18	211.40
876.49	211.59
876.80	211.55
877.11	211.53
877.42	211.56
877.73	211.52
878.04	211.50
878.35	211.43
878.66	211.41
878.96	211.43
879.27	211.40
879.58	211.39
879.89	211.34
880.20	211.36
880.51	211.35
880.82	211.31
881.12	211.32
881.43	211.25
881.74	211.18
882.05	211.13
882.36	211.17
882.67	211.21
882.97	211.05
883.28	211.06
883.59	211.04
883.90	211.05
884.21	211.10
884.51	211.07
884.82	211.08
885.13	211.04
885.44	211.09
885.74	211.13
886.05	211.14
886.36	211.23
886.67	211.12
886.98	211.23
887.28	211.23
887.59	211.24
887.90	211.19
888.20	211.18
888.51	211.24
888.82	211.24
889.13	211.24
889.43	211.35
889.74	211.28
890.05	211.26
890.35	211.25
890.66	211.19
890.97	211.18
891.28	211.13
891.58	211.22
891.89	211.17
892.20	211.14
892.50	211.12
892.81	211.10
893.12	211.07
893.42	210.95
893.73	210.97
894.04	210.95
894.34	210.96
894.65	211.03
894.95	211.01
895.26	210.97
895.57	211.07
895.87	210.91
896.18	211.08
896.48	211.18
896.79	211.22
897.10	211.30
897.40	211.30
897.71	211.37
898.01	211.30
898.32	211.28
898.63	211.28
898.93	211.27
899.24	211.31
899.54	211.37
899.85	211.34
900.15	211.31
900.46	211.38
900.76	211.46
901.07	211.42
901.38	211.41
901.68	211.45
901.99	211.28
902.29	211.30
902.60	211.19
902.90	211.12
903.21	211.08
903.51	211.04
903.82	211.11
904.12	211.03
904.43	211.05
904.73	211.09
905.03	211.07
905.34	211.31
905.64	211.23
905.95	211.19
906.25	211.17
906.56	211.22
906.86	211.11
907.17	211.11
907.47	211.16
907.77	211.11
908.08	211.03
908.38	211.10
908.69	211.14
908.99	211.16
909.30	211.15
909.60	211.20
909.90	211.23
910.21	211.20
910.51	211.24
910.81	211.27
911.12	211.30
911.42	211.35
911.73	211.15
912.03	211.16
912.33	211.19
912.64	211.24
912.94	211.17
913.24	211.21
913.55	211.12
913.85	211.08
914.15	211.19
914.46	211.24
914.76	211.24
915.06	211.20
915.37	211.18
915.67	211.27
915.97	211.24
916.27	211.19
916.58	211.12
916.88	211.11
917.18	211.02
917.49	211.10
917.79	211.07
918.09	211.12
918.39	211.17
918.70	211.22
919.00	211.22
919.30	211.35
919.60	211.40
919.91	211.35
920.21	211.36
920.51	211.35
920.81	211.34
921.12	211.36
921.42	211.38
921.72	211.39
922.02	211.35
922.32	211.42
922.63	211.43
922.93	211.61
923.23	211.63
923.53	211.72
923.83	211.59
924.13	211.60
924.44	211.56
924.74	211.62
925.04	211.61
925.34	211.60
925.64	211.55
925.94	211.49
926.24	211.69
926.55	211.69
926.85	211.65
927.15	211.65
927.45	211.70
927.75	211.70
928.05	211.72
928.35	211.74
928.65	211.70
928.95	211.75
929.26	211.61
929.56	211.59
929.86	211.62
930.16	211.60
930.46	211.58
930.76	211.59
931.06	211.47
931.36	211.52
931.66	211.57
931.96	211.54
932.26	211.52
932.56	211.44
932.86	211.49
933.16	211.48
933.46	211.50
933.76	211.42
934.06	211.41
934.36	211.47
934.66	211.40
934.96	211.42
935.26	211.40
935.56	211.48
935.86	211.47
936.16	211.34
936.46	211.40
936.76	211.41
937.06	211.38
937.36	211.45
937.66	211.39
937.96	211.35
938.26	211.29
938.56	211.32
938.86	211.30
939.16	211.29
939.46	211.28
939.76	211.31
940.06	211.25
940.35	211.29
940.65	211.18
940.95	211.20
941.25	211.13
941.55	211.06
941.85	211.00
942.15	211.02
942.45	211.14
942.75	211.02
943.04	211.00
943.34	211.00
943.64	210.92
943.94	210.94
944.24	210.92
944.54	210.97
944.84	210.96
945.13	210.89
945.43	210.87
945.73	210.94
946.03	210.92
946.33	210.88
946.62	210.85
946.92	210.89
947.22	210.98
947.52	210.96
947.82	210.97
948.11	210.99
948.41	210.94
948.71	210.82
949.01	210.85
949.31	210.84
949.60	210.79
949.90	210.81
950.20	210.75
950.50	210.75
950.79	210.65
951.09	210.69
951.39	210.71
951.69	210.71
951.98	210.68
952.28	210.65
952.58	210.79
952.87	210.78
953.17	210.84
953.47	210.72
953.76	210.69
954.06	210.71
954.36	210.69
954.66	210.66
954.95	210.80
955.25	210.81
955.55	210.79
955.84	210.81
956.14	210.81
956.44	210.84
956.73	210.80
957.03	210.84
957.32	210.85
957.62	210.80
957.92	210.80
958.21	210.72
958.51	210.95
958.81	210.90
959.10	210.93
959.40	210.91
959.69	210.96
959.99	211.07
960.29	211.07
960.58	211.03
960.88	211.15
961.17	211.09
961.47	211.14
961.76	211.18
962.06	211.23
962.36	211.31
962.65	211.30
962.95	211.32
963.24	211.28
963.54	211.24
963.83	211.30
964.13	211.29
964.42	211.30
964.72	211.09
965.01	211.05
965.31	210.95
965.60	210.88
965.90	210.98
966.19	210.97
966.49	210.98
966.78	210.99
967.08	210.92
967.37	210.96
967.67	210.88
967.96	210.89
968.26	210.85
968.55	210.77
968.85	210.76
969.14	210.80
969.43	210.83
969.73	210.87
970.02	210.81
970.32	210.79
970.61	210.81
970.91	210.74
971.20	210.74
971.49	210.71
971.79	210.78
972.08	210.61
972.38	210.58
972.67	210.56
972.96	210.62
973.26	210.57
973.55	210.55
973.85	210.57
974.14	210.59
974.43	210.62
974.73	210.57
975.02	210.58
975.31	210.53
975.61	210.59
975.90	210.56
976.19	210.57
976.49	210.52
976.78	210.46
977.07	210.52
977.37	210.47
977.66	210.57
977.95	210.44
978.24	210.50
978.54	210.52
978.83	210.51
979.12	210.52
979.42	210.60
979.71	210.56
980.00	210.56
980.29	210.52
980.59	210.48
980.88	210.56
981.17	210.55
981.46	210.51
981.76	210.46
982.05	210.41
982.34	210.41
982.63	210.53
982.93	210.55
983.22	210.55
983.51	210.60
983.80	210.62
984.09	210.69
984.39	210.71
984.68	210.76
984.97	210.74
985.26	210.66
985.55	210.62
985.85	210.64
986.14	210.75
986.43	210.77
986.72	210.72
987.01	210.73
987.30	210.78
987.59	210.83
987.89	210.85
988.18	210.81
988.47	210.80
988.76	210.71
989.05	210.72
989.34	210.80
989.63	210.80
989.92	210.76
990.22	210.77
990.51	210.73
990.80	210.67
991.09	210.72
991.38	210.78
991.67	210.78
991.96	210.75
992.25	210.70
992.54	210.73
992.83	210.76
993.12	210.70
993.41	210.67
993.70	210.70
993.99	210.74
994.28	210.76
994.58	210.88
994.87	210.89
995.16	210.85
995.45	210.74
995.74	210.69
996.03	210.71
996.32	210.71
996.61	210.77
996.90	210.74
997.19	210.68
997.48	210.71
997.77	210.70
998.06	210.69
998.34	210.70
998.63	210.70
998.92	210.70
999.21	210.74
999.50	210.75
999.79	210.73
1000.08	210.82
1000.37	210.83
1000.66	210.70
1000.95	210.79
1001.24	210.83
1001.53	210.89
1001.82	210.93
1002.11	210.89
1002.40	210.90
1002.68	210.95
1002.97	211.11
1003.26	211.22
1003.55	211.13
1003.84	211.10
1004.13	211.13
1004.42	211.11
1004.71	211.11
1004.99	211.17
1005.28	211.21
1005.57	211.20
1005.86	211.16
1006.15	211.09
1006.44	211.15
1006.72	211.20
1007.01	211.19
1007.30	211.18
1007.59	211.25
1007.88	211.21
1008.17	211.22
1008.45	211.22
1008.74	211.11
1009.03	211.02
1009.32	210.97
1009.60	211.03
1009.89	211.08
1010.18	211.07
1010.47	211.05
1010.76	211.02
1011.04	210.96
1011.33	210.95
1011.62	211.01
1011.91	211.12
1012.19	211.07
1012.48	211.04
1012.77	210.96
1013.05	211.00
1013.34	210.99
1013.63	210.91
1013.92	210.99
1014.20	211.01
1014.49	211.05
1014.78	211.05
1015.06	211.00
1015.35	210.96
1015.64	210.92
1015.92	210.94
1016.21	210.95
1016.50	210.99
1016.78	211.00
1017.07	211.00
1017.36	210.96
1017.64	210.88
1017.93	210.82
1018.22	210.86
1018.50	210.83
1018.79	210.91
1019.08	210.79
1019.36	210.80
1019.65	210.81
1019.93	210.88
1020.22	210.92
1020.51	210.91
1020.79	210.95
1021.08	211.10
1021.36	210.05
1021.65	210.95
1021.94	209.90
1022.22	210.35
1022.51	211.30
1022.79	212.75
1023.08	211.80
1023.36	211.70
1023.65	211.40
>>>>>End Processed Spectral Data<<<<<
