SpectraSuite Data File
++++++++++++++++++++++++++++++++++++
Date: Mon Feb 25 17:33:20 EST 2013
User: group
Dark Spectrum Present: No
Reference Spectrum Present: No
Number of Sampled Component Spectra: 1
Spectrometers: USB2E7196
Integration Time (usec): 52000 (USB2E7196)
Spectra Averaged: 20 (USB2E7196)
Boxcar Smoothing: 10 (USB2E7196)
Correct for Electrical Dark: No (USB2E7196)
Strobe/Lamp Enabled: No (USB2E7196)
Correct for Detector Non-linearity: No (USB2E7196)
Correct for Stray Light: No (USB2E7196)
Number of Pixels in Processed Spectrum: 2048
>>>>>Begin Processed Spectral Data<<<<<
339.09	0.00
339.48	199.70
339.86	201.15
340.24	201.85
340.63	203.20
341.01	206.60
341.39	206.25
341.78	208.10
342.16	208.30
342.54	209.35
342.93	198.42
343.31	208.46
343.69	208.99
344.07	209.44
344.46	209.92
344.84	210.34
345.22	210.60
345.60	210.86
345.99	211.02
346.37	211.12
346.75	211.20
347.13	211.23
347.52	211.30
347.90	211.44
348.28	211.46
348.66	211.54
349.05	211.49
349.43	211.60
349.81	211.67
350.19	211.69
350.57	211.78
350.96	211.89
351.34	211.96
351.72	212.03
352.10	212.10
352.48	212.08
352.87	212.15
353.25	212.19
353.63	212.26
354.01	212.33
354.39	212.49
354.77	212.61
355.15	212.84
355.54	212.96
355.92	212.92
356.30	212.99
356.68	213.19
357.06	213.28
357.44	213.25
357.82	213.25
358.20	213.35
358.58	213.43
358.97	213.50
359.35	213.61
359.73	213.72
360.11	213.71
360.49	213.85
360.87	213.84
361.25	213.92
361.63	214.02
362.01	214.06
362.39	213.99
362.77	214.02
363.15	213.93
363.53	213.80
363.91	213.87
364.29	213.88
364.67	213.74
365.05	213.75
365.43	213.83
365.81	213.88
366.19	213.93
366.57	213.96
366.95	213.92
367.33	213.83
367.71	213.85
368.09	213.95
368.47	213.91
368.85	213.91
369.23	213.95
369.61	213.81
369.99	213.90
370.37	213.92
370.75	213.98
371.13	214.00
371.51	213.97
371.89	213.95
372.27	213.94
372.65	213.89
373.03	213.87
373.41	213.79
373.78	213.72
374.16	213.59
374.54	213.46
374.92	213.41
375.30	213.36
375.68	213.26
376.06	213.22
376.44	213.13
376.82	213.08
377.19	212.93
377.57	212.92
377.95	212.80
378.33	212.75
378.71	212.56
379.09	212.44
379.47	212.40
379.84	212.31
380.22	212.27
380.60	212.19
380.98	212.17
381.36	212.12
381.73	212.08
382.11	212.08
382.49	212.04
382.87	211.99
383.25	211.98
383.62	212.08
384.00	212.01
384.38	211.99
384.76	212.01
385.13	212.03
385.51	211.95
385.89	211.89
386.27	211.91
386.64	211.94
387.02	211.95
387.40	211.96
387.78	211.94
388.15	211.91
388.53	211.86
388.91	211.72
389.29	211.73
389.66	211.70
390.04	211.65
390.42	211.73
390.79	211.73
391.17	211.72
391.55	211.57
391.92	211.59
392.30	211.66
392.68	211.56
393.05	211.58
393.43	211.61
393.81	211.61
394.18	211.55
394.56	211.62
394.94	211.63
395.31	211.62
395.69	211.66
396.06	211.72
396.44	211.80
396.82	211.89
397.19	211.96
397.57	211.97
397.95	212.08
398.32	211.94
398.70	211.97
399.07	212.01
399.45	212.02
399.82	211.98
400.20	211.98
400.58	212.06
400.95	212.03
401.33	212.10
401.70	212.29
402.08	212.39
402.45	212.38
402.83	212.52
403.20	212.56
403.58	212.68
403.95	212.82
404.33	212.93
404.71	213.04
405.08	213.23
405.46	213.38
405.83	213.43
406.21	213.64
406.58	213.76
406.96	213.94
407.33	214.21
407.70	214.50
408.08	214.81
408.45	215.00
408.83	215.27
409.20	215.50
409.58	215.62
409.95	215.94
410.33	216.23
410.70	216.46
411.08	216.89
411.45	217.22
411.82	217.51
412.20	217.92
412.57	218.43
412.95	218.82
413.32	219.35
413.69	219.92
414.07	220.53
414.44	221.16
414.82	221.79
415.19	222.47
415.56	223.18
415.94	223.97
416.31	224.86
416.68	225.76
417.06	226.73
417.43	227.67
417.81	228.75
418.18	229.89
418.55	231.06
418.93	232.32
419.30	233.65
419.67	234.97
420.04	236.40
420.42	237.90
420.79	239.57
421.16	241.32
421.54	243.13
421.91	245.03
422.28	247.02
422.66	249.06
423.03	251.11
423.40	253.13
423.77	255.28
424.15	257.56
424.52	259.88
424.89	262.48
425.26	264.89
425.64	267.18
426.01	269.81
426.38	272.52
426.75	275.20
427.13	278.04
427.50	281.09
427.87	284.18
428.24	287.23
428.61	290.15
428.99	293.36
429.36	296.84
429.73	300.14
430.10	303.51
430.47	307.09
430.85	310.76
431.22	314.66
431.59	318.77
431.96	322.70
432.33	327.01
432.70	331.15
433.08	336.05
433.45	340.63
433.82	345.20
434.19	350.31
434.56	355.26
434.93	360.00
435.30	364.77
435.68	370.00
436.05	375.20
436.42	380.41
436.79	385.16
437.16	390.25
437.53	395.60
437.90	400.95
438.27	406.05
438.64	411.41
439.01	416.36
439.38	420.76
439.75	425.04
440.13	429.86
440.50	434.35
440.87	438.25
441.24	442.15
441.61	446.29
441.98	449.40
442.35	453.12
442.72	456.68
443.09	460.24
443.46	462.28
443.83	463.60
444.20	464.69
444.57	466.33
444.94	467.02
445.31	467.90
445.68	468.65
446.05	468.82
446.42	468.09
446.79	467.37
447.16	466.45
447.53	465.76
447.90	463.76
448.27	461.81
448.64	458.79
449.01	456.62
449.37	453.11
449.74	449.57
450.11	445.45
450.48	441.02
450.85	436.41
451.22	432.44
451.59	428.76
451.96	425.27
452.33	420.49
452.70	416.14
453.07	411.02
453.43	405.76
453.80	400.90
454.17	396.14
454.54	391.57
454.91	386.83
455.28	382.15
455.65	377.61
456.02	373.18
456.38	369.48
456.75	364.94
457.12	361.06
457.49	357.37
457.86	353.54
458.23	350.38
458.59	346.90
458.96	343.46
459.33	340.31
459.70	337.12
460.07	334.68
460.43	331.88
460.80	329.13
461.17	326.77
461.54	324.22
461.91	321.91
462.27	319.58
462.64	317.51
463.01	315.26
463.38	313.26
463.74	311.08
464.11	309.19
464.48	307.58
464.85	305.78
465.21	304.37
465.58	302.93
465.95	301.19
466.32	299.67
466.68	298.24
467.05	296.73
467.42	295.38
467.78	293.91
468.15	292.51
468.52	291.50
468.88	290.20
469.25	289.12
469.62	288.23
469.98	287.20
470.35	286.27
470.72	285.40
471.08	284.45
471.45	283.75
471.82	283.02
472.18	282.14
472.55	281.54
472.92	280.78
473.28	280.26
473.65	279.72
474.02	279.15
474.38	278.72
474.75	278.39
475.11	277.95
475.48	277.70
475.85	277.57
476.21	277.37
476.58	277.23
476.94	277.11
477.31	277.00
477.67	276.98
478.04	277.04
478.41	277.18
478.77	277.45
479.14	277.55
479.50	277.74
479.87	278.06
480.23	278.46
480.60	278.80
480.96	279.19
481.33	279.85
481.69	280.51
482.06	281.15
482.42	281.81
482.79	282.51
483.15	283.41
483.52	284.30
483.88	285.25
484.25	286.22
484.61	287.28
484.98	288.28
485.34	289.57
485.71	290.83
486.07	292.20
486.44	293.53
486.80	294.99
487.17	296.62
487.53	298.38
487.90	300.12
488.26	302.15
488.62	304.20
488.99	306.13
489.35	308.22
489.72	310.51
490.08	312.96
490.44	315.47
490.81	318.13
491.17	320.82
491.54	323.68
491.90	326.69
492.26	329.82
492.63	333.34
492.99	336.75
493.36	340.55
493.72	344.44
494.08	348.51
494.45	352.83
494.81	357.37
495.17	362.09
495.54	367.01
495.90	372.00
496.26	377.27
496.63	382.87
496.99	388.68
497.35	394.65
497.72	400.90
498.08	407.45
498.44	414.18
498.80	421.38
499.17	428.71
499.53	436.24
499.89	444.22
500.26	452.25
500.62	460.54
500.98	469.41
501.34	478.45
501.71	487.87
502.07	497.45
502.43	507.35
502.79	517.38
503.16	528.08
503.52	538.83
503.88	549.89
504.24	561.40
504.60	573.38
504.97	585.70
505.33	598.13
505.69	611.58
506.05	625.13
506.41	638.73
506.78	652.77
507.14	667.10
507.50	681.79
507.86	696.89
508.22	712.48
508.59	727.91
508.95	743.95
509.31	760.18
509.67	776.90
510.03	793.78
510.39	811.44
510.75	829.11
511.12	847.40
511.48	866.05
511.84	884.74
512.20	903.32
512.56	922.53
512.92	942.14
513.28	961.59
513.64	981.10
514.00	1000.89
514.37	1021.19
514.73	1042.00
515.09	1062.89
515.45	1083.95
515.81	1105.01
516.17	1126.33
516.53	1147.45
516.89	1168.97
517.25	1190.65
517.61	1212.55
517.97	1234.10
518.33	1255.48
518.69	1277.28
519.05	1299.32
519.41	1321.45
519.77	1344.10
520.13	1366.12
520.49	1388.33
520.85	1410.83
521.21	1433.61
521.57	1456.61
521.93	1478.46
522.29	1501.27
522.65	1523.45
523.01	1545.78
523.37	1568.06
523.73	1590.44
524.09	1613.01
524.45	1635.28
524.81	1657.72
525.17	1680.14
525.53	1702.45
525.89	1725.02
526.25	1746.95
526.61	1768.18
526.97	1790.00
527.33	1811.37
527.68	1833.09
528.04	1854.06
528.40	1874.29
528.76	1894.88
529.12	1915.57
529.48	1937.54
529.84	1957.68
530.20	1978.14
530.56	1998.57
530.91	2019.34
531.27	2039.76
531.63	2060.02
531.99	2080.04
532.35	2099.10
532.71	2117.61
533.07	2137.03
533.42	2155.37
533.78	2174.50
534.14	2192.99
534.50	2209.96
534.86	2228.14
535.21	2245.02
535.57	2263.04
535.93	2280.76
536.29	2297.53
536.65	2313.95
537.00	2329.46
537.36	2345.04
537.72	2360.33
538.08	2375.68
538.44	2391.09
538.79	2406.31
539.15	2420.84
539.51	2435.65
539.87	2451.15
540.22	2466.10
540.58	2481.25
540.94	2496.20
541.29	2509.09
541.65	2521.38
542.01	2534.86
542.37	2546.43
542.72	2558.79
543.08	2569.88
543.44	2581.89
543.79	2592.32
544.15	2603.12
544.51	2614.06
544.87	2625.22
545.22	2634.39
545.58	2642.87
545.94	2649.89
546.29	2656.32
546.65	2662.60
547.01	2668.55
547.36	2674.21
547.72	2679.52
548.07	2683.29
548.43	2686.98
548.79	2690.79
549.14	2695.72
549.50	2699.97
549.86	2704.41
550.21	2708.35
550.57	2712.42
550.92	2714.57
551.28	2717.43
551.64	2719.55
551.99	2722.01
552.35	2723.62
552.70	2726.74
553.06	2729.75
553.41	2733.14
553.77	2736.05
554.13	2738.61
554.48	2740.70
554.84	2741.99
555.19	2743.04
555.55	2743.66
555.90	2743.93
556.26	2744.46
556.61	2744.50
556.97	2743.24
557.32	2742.69
557.68	2741.22
558.03	2739.81
558.39	2738.33
558.74	2737.98
559.10	2737.01
559.45	2734.77
559.81	2733.33
560.16	2730.38
560.52	2727.81
560.87	2724.17
561.23	2720.81
561.58	2718.39
561.94	2715.23
562.29	2711.53
562.64	2709.51
563.00	2707.13
563.35	2705.16
563.71	2703.55
564.06	2701.20
564.42	2699.70
564.77	2697.22
565.12	2695.31
565.48	2691.89
565.83	2688.95
566.19	2685.69
566.54	2681.44
566.89	2677.73
567.25	2674.03
567.60	2670.75
567.96	2666.90
568.31	2663.35
568.66	2659.55
569.02	2654.75
569.37	2649.97
569.72	2646.34
570.08	2640.92
570.43	2635.12
570.78	2629.42
571.14	2623.15
571.49	2616.37
571.84	2610.34
572.20	2603.59
572.55	2596.83
572.90	2590.23
573.26	2583.64
573.61	2576.42
573.96	2569.83
574.31	2561.81
574.67	2553.54
575.02	2545.37
575.37	2536.72
575.72	2527.91
576.08	2520.13
576.43	2511.58
576.78	2503.59
577.13	2495.22
577.49	2486.98
577.84	2479.63
578.19	2471.89
578.54	2464.26
578.90	2457.26
579.25	2448.24
579.60	2439.19
579.95	2430.04
580.30	2421.98
580.66	2413.37
581.01	2404.27
581.36	2395.10
581.71	2387.30
582.06	2378.94
582.42	2370.75
582.77	2361.88
583.12	2352.89
583.47	2344.13
583.82	2335.72
584.17	2326.41
584.53	2317.16
584.88	2308.08
585.23	2298.77
585.58	2289.31
585.93	2279.68
586.28	2270.54
586.63	2261.91
586.98	2253.49
587.34	2245.14
587.69	2236.22
588.04	2227.16
588.39	2218.92
588.74	2209.97
589.09	2201.19
589.44	2191.75
589.79	2183.31
590.14	2175.50
590.49	2167.47
590.84	2158.48
591.19	2150.60
591.54	2141.77
591.89	2131.81
592.25	2122.52
592.60	2112.92
592.95	2103.37
593.30	2093.99
593.65	2084.08
594.00	2074.27
594.35	2065.89
594.70	2056.38
595.05	2047.30
595.40	2038.55
595.75	2028.70
596.10	2020.71
596.45	2011.89
596.80	2003.97
597.15	1995.18
597.50	1986.09
597.85	1977.66
598.19	1968.98
598.54	1960.05
598.89	1952.22
599.24	1945.70
599.59	1938.58
599.94	1931.35
600.29	1923.73
600.64	1916.01
600.99	1907.85
601.34	1900.74
601.69	1891.91
602.04	1883.86
602.39	1875.85
602.74	1868.04
603.08	1861.49
603.43	1854.22
603.78	1846.00
604.13	1838.00
604.48	1830.15
604.83	1822.92
605.18	1815.67
605.53	1808.02
605.87	1800.35
606.22	1793.29
606.57	1785.35
606.92	1777.09
607.27	1769.25
607.62	1761.81
607.96	1754.67
608.31	1748.49
608.66	1740.65
609.01	1733.02
609.36	1725.40
609.70	1717.43
610.05	1709.67
610.40	1701.36
610.75	1692.49
611.10	1685.08
611.44	1675.77
611.79	1666.55
612.14	1657.25
612.49	1647.80
612.83	1638.97
613.18	1629.32
613.53	1619.60
613.88	1609.70
614.22	1600.60
614.57	1591.17
614.92	1581.58
615.27	1572.05
615.61	1562.14
615.96	1553.17
616.31	1544.85
616.65	1537.02
617.00	1528.76
617.35	1520.21
617.70	1511.17
618.04	1502.24
618.39	1492.80
618.74	1484.57
619.08	1476.31
619.43	1467.99
619.78	1460.05
620.12	1451.86
620.47	1444.27
620.82	1435.58
621.16	1427.34
621.51	1418.97
621.85	1410.82
622.20	1402.65
622.55	1394.10
622.89	1386.05
623.24	1377.80
623.59	1368.95
623.93	1359.97
624.28	1351.59
624.62	1343.09
624.97	1334.92
625.32	1326.93
625.66	1319.67
626.01	1312.59
626.35	1305.21
626.70	1297.50
627.04	1289.93
627.39	1282.28
627.73	1274.53
628.08	1267.97
628.43	1260.58
628.77	1253.27
629.12	1245.78
629.46	1239.10
629.81	1231.90
630.15	1224.29
630.50	1216.96
630.84	1209.84
631.19	1203.04
631.53	1196.17
631.88	1188.70
632.22	1181.25
632.57	1174.28
632.91	1166.67
633.26	1158.90
633.60	1151.70
633.95	1144.85
634.29	1137.50
634.64	1130.79
634.98	1123.66
635.32	1116.50
635.67	1110.17
636.01	1103.33
636.36	1096.53
636.70	1089.92
637.05	1083.57
637.39	1077.30
637.73	1070.91
638.08	1065.09
638.42	1058.97
638.77	1052.31
639.11	1046.16
639.45	1040.33
639.80	1033.88
640.14	1027.46
640.49	1021.48
640.83	1015.28
641.17	1008.99
641.52	1002.96
641.86	996.48
642.20	990.41
642.55	983.90
642.89	977.51
643.23	971.24
643.58	965.42
643.92	958.86
644.26	952.55
644.61	946.43
644.95	940.45
645.29	933.92
645.64	927.25
645.98	921.28
646.32	915.38
646.66	909.17
647.01	903.08
647.35	897.27
647.69	890.78
648.04	884.69
648.38	878.60
648.72	872.48
649.06	866.54
649.41	860.59
649.75	854.54
650.09	848.70
650.43	842.91
650.78	836.69
651.12	830.60
651.46	824.84
651.80	819.06
652.14	812.97
652.49	807.04
652.83	801.23
653.17	795.19
653.51	789.21
653.85	783.39
654.20	777.72
654.54	771.91
654.88	766.50
655.22	760.72
655.56	754.88
655.90	749.13
656.25	743.34
656.59	737.75
656.93	732.67
657.27	727.26
657.61	721.71
657.95	716.48
658.29	711.30
658.64	706.10
658.98	700.74
659.32	695.62
659.66	690.50
660.00	685.22
660.34	679.86
660.68	674.73
661.02	669.59
661.36	664.94
661.70	660.10
662.05	655.23
662.39	650.85
662.73	646.55
663.07	642.25
663.41	637.97
663.75	633.46
664.09	628.67
664.43	623.92
664.77	619.60
665.11	615.17
665.45	610.79
665.79	606.23
666.13	601.73
666.47	597.36
666.81	593.23
667.15	589.26
667.49	585.45
667.83	581.64
668.17	577.81
668.51	573.92
668.85	570.03
669.19	566.38
669.53	562.30
669.87	558.29
670.21	554.29
670.55	550.35
670.89	546.89
671.23	543.45
671.57	540.01
671.91	536.28
672.25	532.77
672.58	529.33
672.92	526.05
673.26	522.91
673.60	519.61
673.94	516.18
674.28	512.86
674.62	509.68
674.96	506.47
675.30	503.28
675.64	499.92
675.97	496.78
676.31	493.80
676.65	490.95
676.99	488.20
677.33	485.34
677.67	482.44
678.01	479.15
678.34	476.20
678.68	473.28
679.02	470.47
679.36	467.53
679.70	464.56
680.04	461.76
680.37	458.79
680.71	456.06
681.05	453.40
681.39	450.69
681.73	447.98
682.06	445.45
682.40	442.95
682.74	440.38
683.08	437.86
683.42	435.19
683.75	432.58
684.09	430.03
684.43	427.50
684.77	424.93
685.10	422.61
685.44	419.90
685.78	417.50
686.12	415.20
686.45	412.98
686.79	410.87
687.13	408.58
687.46	406.56
687.80	404.34
688.14	401.96
688.48	399.76
688.81	397.39
689.15	395.08
689.49	392.72
689.82	390.46
690.16	388.19
690.50	385.82
690.83	383.53
691.17	381.24
691.51	379.02
691.84	376.96
692.18	374.88
692.52	373.17
692.85	371.26
693.19	369.32
693.52	367.36
693.86	365.30
694.20	363.47
694.53	361.34
694.87	359.38
695.21	357.66
695.54	355.81
695.88	353.98
696.21	352.11
696.55	350.44
696.88	348.76
697.22	346.98
697.56	345.45
697.89	343.78
698.23	342.12
698.56	340.53
698.90	338.99
699.23	337.34
699.57	335.72
699.90	333.93
700.24	332.20
700.58	330.56
700.91	329.08
701.25	327.60
701.58	326.22
701.92	324.76
702.25	323.23
702.59	321.81
702.92	320.56
703.26	319.24
703.59	317.94
703.93	316.79
704.26	315.59
704.60	314.30
704.93	313.10
705.26	311.82
705.60	310.68
705.93	309.44
706.27	308.32
706.60	307.14
706.94	306.20
707.27	305.12
707.61	303.95
707.94	302.75
708.27	301.38
708.61	300.20
708.94	299.16
709.28	298.09
709.61	296.93
709.94	295.80
710.28	294.71
710.61	293.62
710.95	292.38
711.28	291.44
711.61	290.44
711.95	289.55
712.28	288.60
712.61	287.60
712.95	286.70
713.28	285.69
713.61	284.62
713.95	283.68
714.28	282.79
714.61	281.88
714.95	280.93
715.28	280.05
715.61	279.11
715.95	278.20
716.28	277.27
716.61	276.53
716.95	275.67
717.28	274.84
717.61	274.04
717.94	273.33
718.28	272.43
718.61	271.69
718.94	270.80
719.27	270.03
719.61	269.25
719.94	268.49
720.27	267.77
720.60	267.20
720.94	266.40
721.27	265.71
721.60	265.06
721.93	264.48
722.27	263.91
722.60	263.41
722.93	262.75
723.26	262.25
723.59	261.57
723.93	260.95
724.26	260.38
724.59	259.79
724.92	259.22
725.25	258.71
725.59	258.10
725.92	257.62
726.25	257.08
726.58	256.55
726.91	256.02
727.24	255.56
727.57	255.02
727.91	254.45
728.24	253.90
728.57	253.35
728.90	252.92
729.23	252.47
729.56	251.98
729.89	251.50
730.22	251.01
730.55	250.63
730.89	250.24
731.22	249.77
731.55	249.34
731.88	248.85
732.21	248.32
732.54	247.86
732.87	247.36
733.20	246.95
733.53	246.54
733.86	246.13
734.19	245.67
734.52	245.29
734.85	245.05
735.18	244.67
735.51	244.46
735.84	244.06
736.17	243.73
736.50	243.25
736.83	243.07
737.16	242.68
737.49	242.30
737.82	241.87
738.15	241.57
738.48	241.24
738.81	240.97
739.14	240.62
739.47	240.24
739.80	239.90
740.13	239.60
740.46	239.29
740.79	238.98
741.12	238.60
741.45	238.25
741.78	237.89
742.11	237.65
742.44	237.21
742.77	236.96
743.10	236.60
743.43	236.31
743.75	235.90
744.08	235.85
744.41	235.49
744.74	235.25
745.07	234.93
745.40	234.66
745.73	234.41
746.06	234.18
746.39	233.97
746.71	233.72
747.04	233.35
747.37	233.08
747.70	232.80
748.03	232.60
748.36	232.33
748.68	232.09
749.01	231.79
749.34	231.58
749.67	231.32
750.00	231.12
750.33	230.98
750.65	230.65
750.98	230.18
751.31	229.96
751.64	229.64
751.97	229.40
752.29	229.18
752.62	228.82
752.95	228.70
753.28	228.36
753.60	228.14
753.93	228.03
754.26	227.78
754.59	227.52
754.91	227.31
755.24	227.12
755.57	226.85
755.90	226.68
756.22	226.51
756.55	226.26
756.88	226.03
757.20	225.73
757.53	225.51
757.86	225.34
758.19	225.13
758.51	225.01
758.84	224.79
759.17	224.62
759.49	224.45
759.82	224.25
760.15	224.15
760.47	224.00
760.80	223.80
761.13	223.70
761.45	223.50
761.78	223.32
762.11	223.20
762.43	223.00
762.76	222.78
763.08	222.61
763.41	222.51
763.74	222.36
764.06	222.25
764.39	222.17
764.71	222.01
765.04	221.88
765.37	221.83
765.69	221.73
766.02	221.59
766.34	221.46
766.67	221.27
767.00	221.16
767.32	221.11
767.65	221.08
767.97	220.89
768.30	220.85
768.62	220.78
768.95	220.59
769.27	220.59
769.60	220.55
769.92	220.44
770.25	220.31
770.57	220.18
770.90	220.06
771.22	219.96
771.55	219.91
771.87	219.78
772.20	219.58
772.52	219.64
772.85	219.77
773.17	219.79
773.50	219.70
773.82	219.58
774.15	219.40
774.47	219.19
774.80	219.16
775.12	219.05
775.45	218.93
775.77	218.92
776.09	218.82
776.42	218.70
776.74	218.68
777.07	218.56
777.39	218.50
777.72	218.46
778.04	218.34
778.36	218.18
778.69	218.23
779.01	218.19
779.33	217.98
779.66	217.64
779.98	217.53
780.31	217.44
780.63	217.51
780.95	217.50
781.28	217.54
781.60	217.37
781.92	217.35
782.25	217.30
782.57	217.20
782.89	217.09
783.22	217.05
783.54	216.95
783.86	216.88
784.19	216.80
784.51	216.72
784.83	216.64
785.16	216.61
785.48	216.51
785.80	216.45
786.12	216.40
786.45	216.35
786.77	216.28
787.09	216.21
787.42	216.05
787.74	215.95
788.06	215.82
788.38	215.84
788.71	215.81
789.03	215.76
789.35	215.75
789.67	215.70
789.99	215.68
790.32	215.61
790.64	215.63
790.96	215.79
791.28	215.75
791.61	215.78
791.93	215.78
792.25	215.78
792.57	215.89
792.89	215.81
793.21	215.80
793.54	215.79
793.86	215.76
794.18	215.77
794.50	215.77
794.82	215.73
795.14	215.72
795.47	215.66
795.79	215.58
796.11	215.47
796.43	215.43
796.75	215.33
797.07	215.40
797.39	215.39
797.71	215.22
798.04	215.21
798.36	215.18
798.68	215.10
799.00	215.07
799.32	214.95
799.64	214.94
799.96	214.92
800.28	214.87
800.60	214.81
800.92	214.76
801.24	214.74
801.56	214.75
801.89	214.72
802.21	214.62
802.53	214.64
802.85	214.72
803.17	214.80
803.49	214.83
803.81	214.73
804.13	214.67
804.45	214.68
804.77	214.69
805.09	214.62
805.41	214.60
805.73	214.52
806.05	214.39
806.37	214.39
806.69	214.34
807.01	214.30
807.33	214.35
807.65	214.28
807.97	214.30
808.28	214.21
808.60	214.21
808.92	214.19
809.24	214.18
809.56	214.05
809.88	213.99
810.20	213.96
810.52	213.93
810.84	213.89
811.16	213.76
811.48	213.60
811.80	213.64
812.12	213.63
812.43	213.60
812.75	213.63
813.07	213.51
813.39	213.51
813.71	213.47
814.03	213.40
814.35	213.41
814.67	213.33
814.98	213.40
815.30	213.36
815.62	213.29
815.94	213.22
816.26	213.20
816.58	213.14
816.89	213.07
817.21	213.04
817.53	212.99
817.85	213.02
818.17	213.05
818.48	212.97
818.80	212.95
819.12	212.96
819.44	212.91
819.76	212.95
820.07	212.90
820.39	212.88
820.71	212.89
821.03	212.82
821.34	212.76
821.66	212.62
821.98	212.63
822.30	212.63
822.61	212.65
822.93	212.63
823.25	212.58
823.57	212.60
823.88	212.61
824.20	212.63
824.52	212.56
824.83	212.50
825.15	212.46
825.47	212.41
825.79	212.37
826.10	212.36
826.42	212.40
826.74	212.42
827.05	212.35
827.37	212.30
827.69	212.28
828.00	212.27
828.32	212.28
828.64	212.18
828.95	212.29
829.27	212.30
829.58	212.34
829.90	212.42
830.22	212.39
830.53	212.29
830.85	212.23
831.17	212.26
831.48	212.25
831.80	212.35
832.11	212.32
832.43	212.30
832.75	212.34
833.06	212.32
833.38	212.25
833.69	212.27
834.01	212.29
834.32	212.33
834.64	212.28
834.96	212.24
835.27	212.28
835.59	212.23
835.90	212.19
836.22	212.10
836.53	212.04
836.85	212.01
837.16	212.16
837.48	212.18
837.79	212.19
838.11	212.18
838.42	212.05
838.74	212.11
839.05	212.04
839.37	211.90
839.68	211.79
840.00	211.78
840.31	211.81
840.63	211.78
840.94	211.74
841.26	211.75
841.57	211.81
841.88	211.83
842.20	211.75
842.51	211.67
842.83	211.74
843.14	211.90
843.46	211.85
843.77	211.74
844.08	211.68
844.40	211.59
844.71	211.67
845.03	211.75
845.34	211.71
845.65	211.72
845.97	211.78
846.28	211.81
846.60	211.81
846.91	211.86
847.22	211.86
847.54	211.88
847.85	211.92
848.16	211.87
848.48	211.83
848.79	211.95
849.10	211.97
849.42	211.88
849.73	211.64
850.04	211.70
850.36	211.68
850.67	211.73
850.98	211.70
851.30	211.67
851.61	211.61
851.92	211.60
852.23	211.69
852.55	211.65
852.86	211.66
853.17	211.73
853.49	211.73
853.80	211.74
854.11	211.70
854.42	211.73
854.74	211.73
855.05	211.74
855.36	211.65
855.67	211.62
855.99	211.71
856.30	211.92
856.61	211.86
856.92	211.88
857.23	211.84
857.55	211.83
857.86	211.78
858.17	211.80
858.48	211.86
858.79	211.83
859.11	211.88
859.42	211.82
859.73	211.70
860.04	211.66
860.35	211.59
860.66	211.54
860.98	211.55
861.29	211.60
861.60	211.55
861.91	211.61
862.22	211.65
862.53	211.59
862.84	211.41
863.16	211.46
863.47	211.35
863.78	211.37
864.09	211.47
864.40	211.53
864.71	211.52
865.02	211.45
865.33	211.40
865.64	211.35
865.95	211.39
866.27	211.55
866.58	211.58
866.89	211.60
867.20	211.61
867.51	211.54
867.82	211.50
868.13	211.52
868.44	211.47
868.75	211.48
869.06	211.42
869.37	211.49
869.68	211.52
869.99	211.64
870.30	211.66
870.61	211.66
870.92	211.58
871.23	211.61
871.54	211.67
871.85	211.71
872.16	211.73
872.47	211.76
872.78	211.65
873.09	211.64
873.40	211.60
873.71	211.60
874.02	211.57
874.33	211.49
874.64	211.48
874.95	211.50
875.26	211.48
875.56	211.51
875.87	211.45
876.18	211.42
876.49	211.57
876.80	211.51
877.11	211.44
877.42	211.43
877.73	211.32
878.04	211.32
878.35	211.35
878.66	211.46
878.96	211.35
879.27	211.34
879.58	211.33
879.89	211.40
880.20	211.41
880.51	211.45
880.82	211.44
881.12	211.44
881.43	211.37
881.74	211.33
882.05	211.33
882.36	211.34
882.67	211.32
882.97	211.10
883.28	211.10
883.59	211.13
883.90	211.15
884.21	211.16
884.51	211.09
884.82	210.98
885.13	210.91
885.44	210.96
885.74	210.99
886.05	210.98
886.36	210.98
886.67	210.94
886.98	211.00
887.28	211.12
887.59	211.12
887.90	211.20
888.20	211.23
888.51	211.29
888.82	211.30
889.13	211.31
889.43	211.44
889.74	211.41
890.05	211.45
890.35	211.47
890.66	211.48
890.97	211.49
891.28	211.45
891.58	211.48
891.89	211.48
892.20	211.46
892.50	211.44
892.81	211.44
893.12	211.49
893.42	211.44
893.73	211.45
894.04	211.43
894.34	211.40
894.65	211.37
894.95	211.33
895.26	211.29
895.57	211.35
895.87	211.17
896.18	211.25
896.48	211.27
896.79	211.29
897.10	211.31
897.40	211.39
897.71	211.48
898.01	211.41
898.32	211.44
898.63	211.39
898.93	211.46
899.24	211.43
899.54	211.37
899.85	211.36
900.15	211.25
900.46	211.24
900.76	211.22
901.07	211.25
901.38	211.21
901.68	211.27
901.99	211.25
902.29	211.37
902.60	211.34
902.90	211.31
903.21	211.30
903.51	211.36
903.82	211.36
904.12	211.43
904.43	211.50
904.73	211.47
905.03	211.51
905.34	211.68
905.64	211.67
905.95	211.72
906.25	211.78
906.56	211.82
906.86	211.83
907.17	211.82
907.47	211.88
907.77	211.91
908.08	211.79
908.38	211.76
908.69	211.80
908.99	211.85
909.30	211.85
909.60	211.85
909.90	211.82
910.21	211.77
910.51	211.72
910.81	211.73
911.12	211.72
911.42	211.75
911.73	211.56
912.03	211.55
912.33	211.56
912.64	211.54
912.94	211.46
913.24	211.48
913.55	211.49
913.85	211.40
914.15	211.41
914.46	211.47
914.76	211.43
915.06	211.34
915.37	211.27
915.67	211.22
915.97	211.19
916.27	211.13
916.58	211.15
916.88	211.17
917.18	211.09
917.49	211.24
917.79	211.28
918.09	211.27
918.39	211.36
918.70	211.43
919.00	211.36
919.30	211.43
919.60	211.38
919.91	211.36
920.21	211.32
920.51	211.32
920.81	211.30
921.12	211.28
921.42	211.27
921.72	211.27
922.02	211.31
922.32	211.34
922.63	211.33
922.93	211.37
923.23	211.28
923.53	211.23
923.83	211.10
924.13	211.04
924.44	210.96
924.74	210.96
925.04	210.94
925.34	210.97
925.64	210.99
925.94	210.97
926.24	211.09
926.55	211.11
926.85	211.05
927.15	211.10
927.45	211.16
927.75	211.14
928.05	211.14
928.35	211.07
928.65	211.08
928.95	211.19
929.26	211.05
929.56	211.03
929.86	211.11
930.16	211.09
930.46	211.05
930.76	211.07
931.06	211.01
931.36	210.94
931.66	210.92
931.96	210.98
932.26	211.05
932.56	210.98
932.86	211.01
933.16	211.06
933.46	211.05
933.76	210.97
934.06	211.04
934.36	211.11
934.66	211.19
934.96	211.19
935.26	211.16
935.56	211.22
935.86	211.29
936.16	211.19
936.46	211.32
936.76	211.29
937.06	211.34
937.36	211.31
937.66	211.35
937.96	211.40
938.26	211.28
938.56	211.30
938.86	211.28
939.16	211.35
939.46	211.33
939.76	211.34
940.06	211.43
940.35	211.39
940.65	211.35
940.95	211.35
941.25	211.32
941.55	211.28
941.85	211.22
942.15	211.23
942.45	211.33
942.75	211.25
943.04	211.31
943.34	211.40
943.64	211.44
943.94	211.46
944.24	211.41
944.54	211.49
944.84	211.45
945.13	211.42
945.43	211.31
945.73	211.34
946.03	211.31
946.33	211.26
946.62	211.21
946.92	211.21
947.22	211.23
947.52	211.22
947.82	211.24
948.11	211.27
948.41	211.28
948.71	211.22
949.01	211.15
949.31	211.15
949.60	211.08
949.90	211.11
950.20	210.96
950.50	210.94
950.79	210.84
951.09	210.84
951.39	210.84
951.69	210.82
951.98	210.83
952.28	210.79
952.58	210.81
952.87	210.88
953.17	210.83
953.47	210.76
953.76	210.81
954.06	210.83
954.36	210.80
954.66	210.79
954.95	210.83
955.25	210.94
955.55	210.92
955.84	210.92
956.14	210.91
956.44	211.00
956.73	211.02
957.03	211.09
957.32	211.07
957.62	211.07
957.92	211.15
958.21	211.15
958.51	211.40
958.81	211.42
959.10	211.49
959.40	211.59
959.69	211.63
959.99	211.68
960.29	211.65
960.58	211.71
960.88	211.79
961.17	211.76
961.47	211.68
961.76	211.67
962.06	211.66
962.36	211.58
962.65	211.57
962.95	211.59
963.24	211.57
963.54	211.53
963.83	211.62
964.13	211.60
964.42	211.58
964.72	211.39
965.01	211.40
965.31	211.31
965.60	211.20
965.90	211.28
966.19	211.23
966.49	211.22
966.78	211.15
967.08	211.15
967.37	211.15
967.67	211.08
967.96	211.12
968.26	211.14
968.55	211.23
968.85	211.20
969.14	211.17
969.43	211.19
969.73	211.23
970.02	211.19
970.32	211.21
970.61	211.18
970.91	211.15
971.20	211.11
971.49	211.05
971.79	211.19
972.08	211.14
972.38	211.14
972.67	211.11
972.96	211.14
973.26	211.09
973.55	211.16
973.85	211.20
974.14	211.13
974.43	211.06
974.73	211.01
975.02	210.99
975.31	210.92
975.61	210.84
975.90	210.77
976.19	210.72
976.49	210.72
976.78	210.73
977.07	210.76
977.37	210.77
977.66	210.77
977.95	210.74
978.24	210.69
978.54	210.69
978.83	210.73
979.12	210.74
979.42	210.69
979.71	210.62
980.00	210.59
980.29	210.61
980.59	210.56
980.88	210.65
981.17	210.65
981.46	210.69
981.76	210.77
982.05	210.85
982.34	210.85
982.63	210.81
982.93	210.76
983.22	210.79
983.51	210.81
983.80	210.92
984.09	210.81
984.39	210.72
984.68	210.67
984.97	210.61
985.26	210.60
985.55	210.62
985.85	210.65
986.14	210.76
986.43	210.79
986.72	210.79
987.01	210.71
987.30	210.76
987.59	210.76
987.89	210.73
988.18	210.70
988.47	210.72
988.76	210.75
989.05	210.75
989.34	210.74
989.63	210.80
989.92	210.74
990.22	210.82
990.51	210.86
990.80	210.89
991.09	210.99
991.38	210.95
991.67	210.89
991.96	210.81
992.25	210.80
992.54	210.75
992.83	210.77
993.12	210.79
993.41	210.80
993.70	210.95
993.99	211.00
994.28	211.03
994.58	211.05
994.87	211.01
995.16	211.05
995.45	210.99
995.74	210.93
996.03	210.90
996.32	210.88
996.61	210.91
996.90	210.87
997.19	210.85
997.48	210.90
997.77	210.88
998.06	210.92
998.34	210.86
998.63	210.83
998.92	210.84
999.21	210.87
999.50	210.89
999.79	210.76
1000.08	210.74
1000.37	210.71
1000.66	210.65
1000.95	210.68
1001.24	210.70
1001.53	210.73
1001.82	210.73
1002.11	210.75
1002.40	210.80
1002.68	210.81
1002.97	210.94
1003.26	210.84
1003.55	210.77
1003.84	210.82
1004.13	210.91
1004.42	210.94
1004.71	210.98
1004.99	210.95
1005.28	210.91
1005.57	210.92
1005.86	210.87
1006.15	210.85
1006.44	210.82
1006.72	210.89
1007.01	210.89
1007.30	210.81
1007.59	210.82
1007.88	210.75
1008.17	210.73
1008.45	210.67
1008.74	210.68
1009.03	210.63
1009.32	210.73
1009.60	210.74
1009.89	210.72
1010.18	210.56
1010.47	210.56
1010.76	210.60
1011.04	210.62
1011.33	210.65
1011.62	210.60
1011.91	210.61
1012.19	210.66
1012.48	210.68
1012.77	210.63
1013.05	210.69
1013.34	210.70
1013.63	210.70
1013.92	210.69
1014.20	210.74
1014.49	210.73
1014.78	210.80
1015.06	210.73
1015.35	210.72
1015.64	210.77
1015.92	210.82
1016.21	210.96
1016.50	210.98
1016.78	210.94
1017.07	210.92
1017.36	210.94
1017.64	210.97
1017.93	211.01
1018.22	210.99
1018.50	210.98
1018.79	210.98
1019.08	210.89
1019.36	210.96
1019.65	210.89
1019.93	211.01
1020.22	211.03
1020.51	211.15
1020.79	211.02
1021.08	210.75
1021.36	210.30
1021.65	210.60
1021.94	210.15
1022.22	211.50
1022.51	209.50
1022.79	212.45
1023.08	211.70
1023.36	213.30
1023.65	209.90
>>>>>End Processed Spectral Data<<<<<
