SpectraSuite Data File
++++++++++++++++++++++++++++++++++++
Date: Mon Feb 25 17:36:17 EST 2013
User: group
Dark Spectrum Present: No
Reference Spectrum Present: No
Number of Sampled Component Spectra: 1
Spectrometers: USB2E7196
Integration Time (usec): 52000 (USB2E7196)
Spectra Averaged: 20 (USB2E7196)
Boxcar Smoothing: 10 (USB2E7196)
Correct for Electrical Dark: No (USB2E7196)
Strobe/Lamp Enabled: No (USB2E7196)
Correct for Detector Non-linearity: No (USB2E7196)
Correct for Stray Light: No (USB2E7196)
Number of Pixels in Processed Spectrum: 2048
>>>>>Begin Processed Spectral Data<<<<<
339.09	0.00
339.48	199.10
339.86	200.95
340.24	201.75
340.63	203.80
341.01	207.65
341.39	205.60
341.78	207.10
342.16	209.05
342.54	209.05
342.93	198.50
343.31	208.55
343.69	209.11
344.07	209.59
344.46	210.03
344.84	210.51
345.22	210.76
345.60	211.10
345.99	211.34
346.37	211.50
346.75	211.66
347.13	211.82
347.52	211.97
347.90	212.19
348.28	212.32
348.66	212.39
349.05	212.45
349.43	212.60
349.81	212.75
350.19	212.84
350.57	213.05
350.96	213.23
351.34	213.44
351.72	213.62
352.10	213.68
352.48	213.85
352.87	213.84
353.25	213.93
353.63	214.05
354.01	214.16
354.39	214.33
354.77	214.48
355.15	214.55
355.54	214.67
355.92	214.61
356.30	214.66
356.68	214.85
357.06	214.91
357.44	214.87
357.82	214.88
358.20	215.02
358.58	215.06
358.97	215.21
359.35	215.25
359.73	215.29
360.11	215.45
360.49	215.53
360.87	215.66
361.25	215.73
361.63	215.82
362.01	215.85
362.39	215.85
362.77	215.90
363.15	215.96
363.53	215.97
363.91	216.19
364.29	216.24
364.67	216.11
365.05	216.18
365.43	216.24
365.81	216.35
366.19	216.35
366.57	216.38
366.95	216.34
367.33	216.36
367.71	216.37
368.09	216.42
368.47	216.43
368.85	216.37
369.23	216.41
369.61	216.35
369.99	216.45
370.37	216.43
370.75	216.44
371.13	216.38
371.51	216.35
371.89	216.22
372.27	216.24
372.65	216.22
373.03	216.21
373.41	216.22
373.78	216.15
374.16	216.05
374.54	216.01
374.92	215.93
375.30	215.93
375.68	215.94
376.06	215.82
376.44	215.77
376.82	215.76
377.19	215.78
377.57	215.76
377.95	215.65
378.33	215.63
378.71	215.51
379.09	215.43
379.47	215.42
379.84	215.41
380.22	215.31
380.60	215.29
380.98	215.16
381.36	215.10
381.73	215.04
382.11	215.08
382.49	215.10
382.87	215.09
383.25	214.97
383.62	215.12
384.00	215.11
384.38	215.07
384.76	215.05
385.13	215.01
385.51	214.93
385.89	214.92
386.27	214.93
386.64	214.95
387.02	215.04
387.40	215.01
387.78	215.01
388.15	215.01
388.53	215.06
388.91	215.04
389.29	215.09
389.66	215.09
390.04	215.12
390.42	215.15
390.79	215.11
391.17	215.14
391.55	214.95
391.92	214.98
392.30	215.07
392.68	215.15
393.05	215.24
393.43	215.30
393.81	215.40
394.18	215.40
394.56	215.50
394.94	215.51
395.31	215.55
395.69	215.64
396.06	215.78
396.44	215.80
396.82	215.91
397.19	216.11
397.57	216.23
397.95	216.35
398.32	216.39
398.70	216.63
399.07	216.83
399.45	217.04
399.82	217.30
400.20	217.46
400.58	217.55
400.95	217.68
401.33	218.01
401.70	218.35
402.08	218.76
402.45	219.09
402.83	219.51
403.20	219.95
403.58	220.40
403.95	220.91
404.33	221.54
404.71	222.16
405.08	222.87
405.46	223.56
405.83	224.34
406.21	225.13
406.58	226.04
406.96	226.98
407.33	227.90
407.70	228.97
408.08	230.30
408.45	231.69
408.83	233.15
409.20	234.59
409.58	236.15
409.95	237.82
410.33	239.70
410.70	241.72
411.08	243.89
411.45	246.14
411.82	248.56
412.20	251.13
412.57	254.10
412.95	256.87
413.32	260.09
413.69	263.52
414.07	267.24
414.44	271.19
414.82	275.35
415.19	280.11
415.56	284.94
415.94	290.15
416.31	295.90
416.68	301.57
417.06	308.02
417.43	314.01
417.81	321.19
418.18	328.53
418.55	336.43
418.93	344.81
419.30	353.55
419.67	362.77
420.04	372.38
420.42	382.56
420.79	393.79
421.16	405.51
421.54	417.20
421.91	429.65
422.28	442.73
422.66	456.70
423.03	470.06
423.40	484.38
423.77	499.87
424.15	515.52
424.52	531.90
424.89	549.73
425.26	567.45
425.64	584.07
426.01	602.61
426.38	621.92
426.75	641.41
427.13	661.92
427.50	683.60
427.87	706.25
428.24	729.01
428.61	750.97
428.99	774.27
429.36	800.54
429.73	826.13
430.10	851.49
430.47	877.64
430.85	905.58
431.22	934.69
431.59	964.83
431.96	994.49
432.33	1027.39
432.70	1059.32
433.08	1096.51
433.45	1132.04
433.82	1167.10
434.19	1206.02
434.56	1244.31
434.93	1281.65
435.30	1318.74
435.68	1359.96
436.05	1400.81
436.42	1441.95
436.79	1479.83
437.16	1520.30
437.53	1563.55
437.90	1606.49
438.27	1648.38
438.64	1692.41
439.01	1732.89
439.38	1770.29
439.75	1806.05
440.13	1846.14
440.50	1884.32
440.87	1916.28
441.24	1949.73
441.61	1986.29
441.98	2014.54
442.35	2047.08
442.72	2079.07
443.09	2110.00
443.46	2130.55
443.83	2145.80
444.20	2159.41
444.57	2178.05
444.94	2188.99
445.31	2199.57
445.68	2208.59
446.05	2215.66
446.42	2214.91
446.79	2213.51
447.16	2211.63
447.53	2211.13
447.90	2199.76
448.27	2188.36
448.64	2170.30
449.01	2157.77
449.37	2133.48
449.74	2109.82
450.11	2079.84
450.48	2048.74
450.85	2016.86
451.22	1989.30
451.59	1962.29
451.96	1937.08
452.33	1901.79
452.70	1869.95
453.07	1831.45
453.43	1793.49
453.80	1755.74
454.17	1719.88
454.54	1686.20
454.91	1649.37
455.28	1613.66
455.65	1580.09
456.02	1544.21
456.38	1515.35
456.75	1478.97
457.12	1448.87
457.49	1418.94
457.86	1391.11
458.23	1365.19
458.59	1337.45
458.96	1309.36
459.33	1284.86
459.70	1259.66
460.07	1239.79
460.43	1216.95
460.80	1195.34
461.17	1176.64
461.54	1156.84
461.91	1137.96
462.27	1118.94
462.64	1102.78
463.01	1084.49
463.38	1066.57
463.74	1051.01
464.11	1036.33
464.48	1023.17
464.85	1008.47
465.21	997.14
465.58	985.04
465.95	971.20
466.32	959.31
466.68	947.36
467.05	935.12
467.42	923.33
467.78	911.20
468.15	899.65
468.52	891.12
468.88	879.98
469.25	870.15
469.62	861.95
469.98	853.19
470.35	845.01
470.72	837.35
471.08	829.56
471.45	822.50
471.82	814.66
472.18	806.91
472.55	801.48
472.92	795.09
473.28	789.24
473.65	783.86
474.02	778.32
474.38	773.74
474.75	770.12
475.11	765.83
475.48	762.59
475.85	759.69
476.21	756.92
476.58	754.52
476.94	752.80
477.31	750.68
477.67	748.66
478.04	747.13
478.41	746.35
478.77	745.39
479.14	744.45
479.50	744.51
479.87	744.98
480.23	745.52
480.60	745.45
480.96	745.90
481.33	747.05
481.69	748.61
482.06	749.82
482.42	750.69
482.79	752.34
483.15	754.94
483.52	758.40
483.88	761.25
484.25	764.29
484.61	767.46
484.98	770.82
485.34	775.00
485.71	779.45
486.07	784.25
486.44	789.52
486.80	795.17
487.17	801.03
487.53	807.60
487.90	814.42
488.26	821.75
488.62	829.35
488.99	837.00
489.35	844.90
489.72	854.16
490.08	864.09
490.44	873.71
490.81	883.50
491.17	893.06
491.54	904.10
491.90	914.80
492.26	926.45
492.63	938.52
492.99	951.28
493.36	964.29
493.72	977.59
494.08	991.49
494.45	1005.85
494.81	1021.02
495.17	1036.25
495.54	1052.23
495.90	1069.19
496.26	1086.33
496.63	1104.02
496.99	1121.95
497.35	1139.80
497.72	1158.05
498.08	1176.76
498.44	1195.82
498.80	1216.28
499.17	1236.30
499.53	1257.14
499.89	1278.56
500.26	1299.93
500.62	1321.00
500.98	1343.50
501.34	1366.20
501.71	1388.93
502.07	1412.03
502.43	1435.28
502.79	1458.71
503.16	1482.25
503.52	1505.72
503.88	1528.91
504.24	1552.48
504.60	1576.57
504.97	1601.53
505.33	1625.86
505.69	1651.50
506.05	1676.97
506.41	1701.45
506.78	1726.15
507.14	1751.01
507.50	1775.83
507.86	1801.11
508.22	1827.04
508.59	1852.03
508.95	1877.33
509.31	1903.16
509.67	1929.00
510.03	1954.54
510.39	1980.36
510.75	2005.67
511.12	2030.21
511.48	2055.47
511.84	2080.75
512.20	2105.09
512.56	2129.45
512.92	2154.53
513.28	2179.12
513.64	2203.33
514.00	2226.95
514.37	2250.73
514.73	2274.85
515.09	2297.89
515.45	2320.90
515.81	2343.63
516.17	2366.16
516.53	2388.17
516.89	2409.91
517.25	2430.01
517.61	2449.98
517.97	2469.70
518.33	2488.81
518.69	2508.72
519.05	2528.53
519.41	2548.20
519.77	2568.17
520.13	2586.92
520.49	2604.56
520.85	2622.24
521.21	2639.30
521.57	2657.72
521.93	2674.52
522.29	2692.33
522.65	2709.82
523.01	2726.70
523.37	2742.27
523.73	2758.12
524.09	2773.54
524.45	2787.76
524.81	2802.94
525.17	2818.82
525.53	2833.96
525.89	2849.71
526.25	2864.65
526.61	2877.34
526.97	2890.15
527.33	2903.27
527.68	2916.55
528.04	2929.99
528.40	2942.02
528.76	2954.76
529.12	2966.16
529.48	2977.91
529.84	2987.26
530.20	2997.54
530.56	3008.00
530.91	3019.59
531.27	3030.43
531.63	3040.87
531.99	3051.42
532.35	3061.10
532.71	3070.28
533.07	3081.27
533.42	3090.62
533.78	3100.40
534.14	3110.62
534.50	3119.42
534.86	3128.42
535.21	3135.51
535.57	3144.10
535.93	3152.16
536.29	3159.17
536.65	3167.58
537.00	3175.44
537.36	3183.36
537.72	3190.29
538.08	3197.74
538.44	3204.33
538.79	3210.37
539.15	3216.98
539.51	3224.09
539.87	3231.90
540.22	3238.30
540.58	3243.44
540.94	3249.17
541.29	3253.79
541.65	3256.63
542.01	3261.15
542.37	3265.10
542.72	3270.38
543.08	3273.45
543.44	3277.82
543.79	3280.90
544.15	3282.77
544.51	3286.03
544.87	3289.23
545.22	3291.41
545.58	3292.16
545.94	3293.31
546.29	3294.67
546.65	3295.56
547.01	3295.85
547.36	3296.34
547.72	3296.89
548.07	3296.14
548.43	3295.47
548.79	3294.45
549.14	3295.94
549.50	3296.89
549.86	3296.96
550.21	3295.72
550.57	3295.71
550.92	3293.96
551.28	3292.55
551.64	3291.70
551.99	3290.72
552.35	3290.35
552.70	3290.39
553.06	3290.41
553.41	3289.55
553.77	3288.67
554.13	3287.33
554.48	3287.54
554.84	3286.54
555.19	3285.03
555.55	3284.62
555.90	3284.10
556.26	3283.02
556.61	3281.15
556.97	3277.39
557.32	3273.88
557.68	3271.24
558.03	3267.96
558.39	3265.56
558.74	3265.53
559.10	3264.50
559.45	3263.06
559.81	3261.13
560.16	3258.52
560.52	3256.79
560.87	3254.72
561.23	3251.25
561.58	3247.97
561.94	3243.04
562.29	3238.38
562.64	3234.32
563.00	3230.52
563.35	3225.91
563.71	3222.78
564.06	3219.97
564.42	3217.61
564.77	3215.00
565.12	3211.96
565.48	3208.72
565.83	3205.81
566.19	3202.35
566.54	3198.66
566.89	3193.22
567.25	3187.70
567.60	3183.90
567.96	3178.56
568.31	3173.30
568.66	3169.08
569.02	3165.70
569.37	3161.82
569.72	3158.19
570.08	3154.41
570.43	3147.93
570.78	3143.01
571.14	3137.71
571.49	3132.05
571.84	3126.81
572.20	3120.44
572.55	3115.74
572.90	3110.13
573.26	3103.83
573.61	3096.03
573.96	3088.02
574.31	3080.74
574.67	3074.15
575.02	3065.29
575.37	3057.22
575.72	3049.97
576.08	3042.61
576.43	3033.61
576.78	3025.24
577.13	3016.98
577.49	3009.20
577.84	3002.72
578.19	2994.69
578.54	2986.57
578.90	2978.27
579.25	2968.86
579.60	2959.95
579.95	2950.00
580.30	2941.17
580.66	2931.64
581.01	2922.59
581.36	2912.80
581.71	2904.14
582.06	2895.30
582.42	2887.85
582.77	2878.30
583.12	2868.78
583.47	2859.47
583.82	2850.41
584.17	2840.53
584.53	2830.90
584.88	2820.52
585.23	2809.82
585.58	2800.42
585.93	2790.19
586.28	2780.88
586.63	2771.87
586.98	2763.10
587.34	2754.48
587.69	2744.23
588.04	2735.22
588.39	2726.07
588.74	2716.16
589.09	2706.70
589.44	2695.63
589.79	2684.74
590.14	2675.65
590.49	2664.51
590.84	2654.28
591.19	2645.00
591.54	2634.93
591.89	2624.05
592.25	2613.55
592.60	2602.40
592.95	2591.06
593.30	2580.76
593.65	2570.06
594.00	2559.93
594.35	2550.62
594.70	2539.29
595.05	2529.37
595.40	2518.19
595.75	2506.64
596.10	2496.33
596.45	2485.18
596.80	2475.20
597.15	2464.95
597.50	2454.02
597.85	2444.70
598.19	2433.13
598.54	2421.25
598.89	2410.51
599.24	2400.42
599.59	2389.93
599.94	2380.97
600.29	2371.11
600.64	2360.17
600.99	2348.32
601.34	2337.41
601.69	2325.19
602.04	2314.30
602.39	2303.71
602.74	2294.47
603.08	2285.77
603.43	2277.42
603.78	2267.67
604.13	2257.17
604.48	2246.50
604.83	2237.48
605.18	2227.46
605.53	2218.06
605.87	2208.58
606.22	2199.41
606.57	2188.88
606.92	2178.02
607.27	2166.96
607.62	2156.60
607.96	2146.83
608.31	2138.35
608.66	2127.75
609.01	2117.72
609.36	2107.81
609.70	2096.94
610.05	2084.95
610.40	2073.04
610.75	2060.68
611.10	2049.66
611.44	2038.11
611.79	2027.23
612.14	2015.40
612.49	2003.18
612.83	1991.81
613.18	1980.01
613.53	1968.41
613.88	1956.47
614.22	1945.00
614.57	1933.45
614.92	1921.64
615.27	1910.41
615.61	1897.88
615.96	1886.69
616.31	1875.55
616.65	1864.47
617.00	1854.20
617.35	1843.77
617.70	1832.18
618.04	1820.89
618.39	1809.29
618.74	1798.44
619.08	1786.53
619.43	1774.89
619.78	1764.63
620.12	1754.53
620.47	1744.28
620.82	1733.36
621.16	1723.36
621.51	1713.51
621.85	1703.11
622.20	1692.41
622.55	1680.59
622.89	1670.21
623.24	1659.70
623.59	1648.79
623.93	1638.23
624.28	1626.99
624.62	1616.10
624.97	1606.11
625.32	1596.62
625.66	1587.31
626.01	1577.96
626.35	1569.66
626.70	1560.64
627.04	1550.84
627.39	1540.49
627.73	1530.87
628.08	1521.54
628.43	1512.25
628.77	1503.25
629.12	1494.14
629.46	1485.36
629.81	1476.30
630.15	1466.35
630.50	1456.63
630.84	1447.21
631.19	1437.46
631.53	1428.37
631.88	1419.18
632.22	1410.66
632.57	1401.87
632.91	1392.74
633.26	1383.62
633.60	1374.02
633.95	1365.29
634.29	1356.91
634.64	1348.83
634.98	1339.66
635.32	1331.11
635.67	1322.91
636.01	1314.25
636.36	1305.26
636.70	1296.53
637.05	1288.86
637.39	1281.31
637.73	1273.23
638.08	1266.16
638.42	1258.95
638.77	1251.43
639.11	1243.85
639.45	1235.46
639.80	1227.24
640.14	1219.34
640.49	1211.61
640.83	1203.49
641.17	1195.38
641.52	1187.50
641.86	1179.36
642.20	1171.70
642.55	1162.98
642.89	1154.30
643.23	1145.98
643.58	1138.53
643.92	1130.68
644.26	1122.35
644.61	1114.29
644.95	1106.50
645.29	1098.26
645.64	1090.11
645.98	1082.00
646.32	1074.50
646.66	1067.15
647.01	1059.71
647.35	1052.11
647.69	1044.12
648.04	1036.88
648.38	1029.34
648.72	1021.85
649.06	1014.45
649.41	1007.07
649.75	999.86
650.09	992.94
650.43	986.18
650.78	979.12
651.12	971.95
651.46	965.40
651.80	958.92
652.14	952.73
652.49	945.76
652.83	938.85
653.17	931.72
653.51	924.82
653.85	918.32
654.20	911.70
654.54	905.10
654.88	898.59
655.22	891.82
655.56	884.71
655.90	877.50
656.25	870.30
656.59	863.76
656.93	857.79
657.27	851.42
657.61	844.52
657.95	838.28
658.29	832.32
658.64	826.30
658.98	820.20
659.32	813.77
659.66	808.00
660.00	802.11
660.34	796.91
660.68	791.03
661.02	784.73
661.36	779.01
661.70	773.42
662.05	768.35
662.39	763.18
662.73	758.44
663.07	753.68
663.41	749.30
663.75	744.50
664.09	739.30
664.43	734.18
664.77	729.35
665.11	724.40
665.45	719.53
665.79	714.73
666.13	709.79
666.47	705.30
666.81	700.72
667.15	696.06
667.49	691.34
667.83	686.90
668.17	682.81
668.51	678.35
668.85	673.84
669.19	669.31
669.53	664.77
669.87	660.00
670.21	655.61
670.55	650.86
670.89	646.60
671.23	642.53
671.57	638.24
671.91	634.10
672.25	629.96
672.58	625.76
672.92	621.56
673.26	617.69
673.60	613.59
673.94	609.73
674.28	606.33
674.62	602.49
674.96	598.63
675.30	594.76
675.64	591.16
675.97	587.74
676.31	584.35
676.65	581.06
676.99	578.06
677.33	574.73
677.67	571.50
678.01	568.03
678.34	564.56
678.68	561.33
679.02	558.09
679.36	554.84
679.70	551.43
680.04	548.23
680.37	544.79
680.71	541.47
681.05	538.28
681.39	534.76
681.73	531.56
682.06	528.51
682.40	525.47
682.74	522.11
683.08	518.88
683.42	515.69
683.75	512.55
684.09	509.17
684.43	505.90
684.77	502.80
685.10	499.60
685.44	496.42
685.78	493.33
686.12	490.22
686.45	487.20
686.79	484.54
687.13	481.74
687.46	479.16
687.80	476.30
688.14	473.24
688.48	470.64
688.81	467.84
689.15	465.16
689.49	462.34
689.82	459.55
690.16	456.50
690.50	453.62
690.83	450.87
691.17	448.17
691.51	445.68
691.84	442.96
692.18	440.46
692.52	438.15
692.85	435.78
693.19	433.45
693.52	430.95
693.86	428.25
694.20	425.69
694.53	423.12
694.87	420.64
695.21	418.18
695.54	415.56
695.88	413.31
696.21	410.95
696.55	408.78
696.88	406.72
697.22	404.90
697.56	402.99
697.89	400.89
698.23	399.02
698.56	396.95
698.90	395.09
699.23	393.08
699.57	390.99
699.90	388.85
700.24	386.82
700.58	384.89
700.91	383.06
701.25	381.26
701.58	379.50
701.92	377.82
702.25	376.25
702.59	374.65
702.92	372.88
703.26	371.06
703.59	369.42
703.93	367.86
704.26	366.10
704.60	364.31
704.93	362.58
705.26	360.79
705.60	359.16
705.93	357.50
706.27	355.94
706.60	354.52
706.94	353.13
707.27	351.48
707.61	349.90
707.94	348.39
708.27	346.69
708.61	345.23
708.94	343.84
709.28	342.35
709.61	340.80
709.94	339.29
710.28	337.98
710.61	336.45
710.95	334.76
711.28	333.37
711.61	331.85
711.95	330.46
712.28	329.06
712.61	327.79
712.95	326.50
713.28	325.23
713.61	323.92
713.95	322.56
714.28	321.42
714.61	320.25
714.95	319.05
715.28	317.81
715.61	316.52
715.95	315.20
716.28	313.94
716.61	312.68
716.95	311.50
717.28	310.19
717.61	308.99
717.94	308.00
718.28	306.75
718.61	305.61
718.94	304.57
719.27	303.46
719.61	302.30
719.94	301.39
720.27	300.25
720.60	299.10
720.94	298.14
721.27	297.31
721.60	296.37
721.93	295.64
722.27	294.89
722.60	293.95
722.93	293.04
723.26	292.22
723.59	291.49
723.93	290.67
724.26	289.92
724.59	289.08
724.92	288.24
725.25	287.56
725.59	286.82
725.92	286.10
726.25	285.48
726.58	284.89
726.91	283.94
727.24	283.17
727.57	282.49
727.91	281.65
728.24	280.84
728.57	280.01
728.90	279.13
729.23	278.37
729.56	277.81
729.89	277.10
730.22	276.32
730.55	275.56
730.89	274.92
731.22	274.23
731.55	273.52
731.88	272.85
732.21	272.12
732.54	271.48
732.87	270.79
733.20	270.11
733.53	269.43
733.86	268.93
734.19	268.38
734.52	267.87
734.85	267.57
735.18	266.92
735.51	266.42
735.84	265.86
736.17	265.32
736.50	264.71
736.83	264.37
737.16	263.84
737.49	263.30
737.82	262.64
738.15	262.09
738.48	261.57
738.81	261.03
739.14	260.54
739.47	260.05
739.80	259.54
740.13	259.04
740.46	258.46
740.79	257.93
741.12	257.44
741.45	256.83
741.78	256.12
742.11	255.65
742.44	255.20
742.77	254.76
743.10	254.19
743.43	253.61
743.75	253.02
744.08	252.76
744.41	252.26
744.74	251.80
745.07	251.30
745.40	250.86
745.73	250.50
746.06	250.01
746.39	249.53
746.71	249.06
747.04	248.62
747.37	248.17
747.70	247.76
748.03	247.29
748.36	246.98
748.68	246.62
749.01	246.19
749.34	245.73
749.67	245.29
750.00	244.98
750.33	244.71
750.65	244.30
750.98	243.74
751.31	243.41
751.64	243.08
751.97	242.84
752.29	242.55
752.62	242.03
752.95	241.70
753.28	241.43
753.60	241.12
753.93	240.83
754.26	240.51
754.59	240.17
754.91	239.83
755.24	239.41
755.57	239.07
755.90	238.76
756.22	238.55
756.55	238.28
756.88	237.96
757.20	237.57
757.53	237.25
757.86	236.94
758.19	236.64
758.51	236.32
758.84	235.86
759.17	235.52
759.49	235.34
759.82	235.16
760.15	234.88
760.47	234.62
760.80	234.27
761.13	233.99
761.45	233.72
761.78	233.51
762.11	233.29
762.43	233.08
762.76	232.85
763.08	232.50
763.41	232.21
763.74	231.92
764.06	231.65
764.39	231.34
764.71	231.10
765.04	230.86
765.37	230.55
765.69	230.35
766.02	230.18
766.34	229.95
766.67	229.68
767.00	229.50
767.32	229.28
767.65	229.16
767.97	229.00
768.30	228.81
768.62	228.63
768.95	228.43
769.27	228.20
769.60	228.00
769.92	227.74
770.25	227.51
770.57	227.34
770.90	227.16
771.22	226.93
771.55	226.69
771.87	226.42
772.20	226.27
772.52	226.29
772.85	226.27
773.17	226.07
773.50	225.86
773.82	225.60
774.15	225.40
774.47	225.16
774.80	224.96
775.12	224.74
775.45	224.53
775.77	224.36
776.09	224.25
776.42	224.07
776.74	223.99
777.07	223.87
777.39	223.72
777.72	223.59
778.04	223.58
778.36	223.48
778.69	223.43
779.01	223.34
779.33	223.00
779.66	222.68
779.98	222.55
780.31	222.48
780.63	222.48
780.95	222.38
781.28	222.24
781.60	222.13
781.92	222.03
782.25	221.89
782.57	221.79
782.89	221.60
783.22	221.50
783.54	221.44
783.86	221.34
784.19	221.26
784.51	221.12
784.83	220.98
785.16	220.89
785.48	220.82
785.80	220.77
786.12	220.66
786.45	220.59
786.77	220.52
787.09	220.38
787.42	220.22
787.74	220.18
788.06	220.00
788.38	219.95
788.71	219.79
789.03	219.71
789.35	219.68
789.67	219.61
789.99	219.50
790.32	219.42
790.64	219.31
790.96	219.34
791.28	219.27
791.61	219.18
791.93	219.12
792.25	219.02
792.57	219.02
792.89	218.96
793.21	218.89
793.54	218.80
793.86	218.71
794.18	218.62
794.50	218.50
794.82	218.48
795.14	218.37
795.47	218.44
795.79	218.37
796.11	218.25
796.43	218.15
796.75	218.14
797.07	218.11
797.39	218.07
797.71	217.88
798.04	217.81
798.36	217.76
798.68	217.70
799.00	217.65
799.32	217.50
799.64	217.48
799.96	217.46
800.28	217.44
800.60	217.35
800.92	217.33
801.24	217.32
801.56	217.33
801.89	217.26
802.21	217.15
802.53	217.19
802.85	217.11
803.17	217.16
803.49	217.04
803.81	216.89
804.13	216.83
804.45	216.77
804.77	216.77
805.09	216.68
805.41	216.59
805.73	216.50
806.05	216.35
806.37	216.28
806.69	216.17
807.01	216.09
807.33	216.07
807.65	215.98
807.97	216.00
808.28	215.90
808.60	215.90
808.92	215.87
809.24	215.86
809.56	215.76
809.88	215.61
810.20	215.62
810.52	215.73
810.84	215.67
811.16	215.57
811.48	215.46
811.80	215.42
812.12	215.38
812.43	215.37
812.75	215.44
813.07	215.44
813.39	215.37
813.71	215.30
814.03	215.16
814.35	215.05
814.67	214.88
814.98	214.84
815.30	214.75
815.62	214.67
815.94	214.50
816.26	214.50
816.58	214.46
816.89	214.44
817.21	214.25
817.53	214.21
817.85	214.18
818.17	214.12
818.48	214.09
818.80	214.09
819.12	213.99
819.44	213.88
819.76	213.79
820.07	213.77
820.39	213.74
820.71	213.72
821.03	213.77
821.34	213.77
821.66	213.75
821.98	213.74
822.30	213.70
822.61	213.78
822.93	213.73
823.25	213.69
823.57	213.65
823.88	213.69
824.20	213.67
824.52	213.64
824.83	213.63
825.15	213.60
825.47	213.52
825.79	213.54
826.10	213.53
826.42	213.54
826.74	213.52
827.05	213.54
827.37	213.60
827.69	213.57
828.00	213.51
828.32	213.53
828.64	213.51
828.95	213.60
829.27	213.58
829.58	213.55
829.90	213.64
830.22	213.57
830.53	213.50
830.85	213.45
831.17	213.51
831.48	213.54
831.80	213.50
832.11	213.53
832.43	213.53
832.75	213.53
833.06	213.59
833.38	213.61
833.69	213.53
834.01	213.48
834.32	213.42
834.64	213.38
834.96	213.36
835.27	213.37
835.59	213.30
835.90	213.24
836.22	213.28
836.53	213.15
836.85	213.14
837.16	213.28
837.48	213.27
837.79	213.26
838.11	213.26
838.42	213.25
838.74	213.28
839.05	213.18
839.37	213.15
839.68	212.99
840.00	212.86
840.31	212.93
840.63	212.95
840.94	212.95
841.26	213.00
841.57	212.95
841.88	212.92
842.20	212.86
842.51	212.84
842.83	212.82
843.14	212.95
843.46	212.90
843.77	212.81
844.08	212.88
844.40	212.82
844.71	212.74
845.03	212.70
845.34	212.55
845.65	212.66
845.97	212.65
846.28	212.65
846.60	212.75
846.91	212.65
847.22	212.59
847.54	212.59
847.85	212.53
848.16	212.49
848.48	212.39
848.79	212.46
849.10	212.48
849.42	212.46
849.73	212.38
850.04	212.31
850.36	212.21
850.67	212.10
850.98	212.06
851.30	212.11
851.61	212.14
851.92	212.24
852.23	212.18
852.55	212.10
852.86	212.14
853.17	212.09
853.49	212.15
853.80	212.18
854.11	212.16
854.42	212.16
854.74	212.14
855.05	212.21
855.36	212.09
855.67	212.01
855.99	212.05
856.30	212.17
856.61	212.16
856.92	212.18
857.23	212.20
857.55	212.15
857.86	212.15
858.17	212.23
858.48	212.13
858.79	212.12
859.11	212.18
859.42	212.14
859.73	212.16
860.04	212.17
860.35	212.13
860.66	212.09
860.98	212.06
861.29	212.10
861.60	212.04
861.91	212.12
862.22	212.14
862.53	212.05
862.84	211.85
863.16	211.95
863.47	211.91
863.78	211.90
864.09	211.93
864.40	211.91
864.71	211.85
865.02	211.98
865.33	211.87
865.64	211.85
865.95	211.91
866.27	211.98
866.58	211.93
866.89	211.99
867.20	211.95
867.51	211.93
867.82	211.99
868.13	211.99
868.44	211.96
868.75	211.98
869.06	212.07
869.37	212.07
869.68	212.05
869.99	212.05
870.30	212.10
870.61	212.12
870.92	212.11
871.23	212.06
871.54	212.01
871.85	212.12
872.16	212.14
872.47	212.05
872.78	212.01
873.09	212.04
873.40	212.00
873.71	212.09
874.02	212.08
874.33	211.97
874.64	212.03
874.95	212.05
875.26	212.03
875.56	212.04
875.87	212.01
876.18	212.04
876.49	212.32
876.80	212.29
877.11	212.25
877.42	212.22
877.73	212.21
878.04	212.17
878.35	212.22
878.66	212.24
878.96	212.27
879.27	212.22
879.58	212.20
879.89	212.24
880.20	212.24
880.51	212.24
880.82	212.26
881.12	212.24
881.43	212.21
881.74	212.26
882.05	212.22
882.36	212.28
882.67	212.28
882.97	212.06
883.28	212.08
883.59	212.06
883.90	212.08
884.21	212.19
884.51	212.13
884.82	212.15
885.13	212.16
885.44	212.14
885.74	212.15
886.05	212.20
886.36	212.13
886.67	212.07
886.98	212.17
887.28	212.24
887.59	212.28
887.90	212.26
888.20	212.12
888.51	212.15
888.82	212.09
889.13	211.99
889.43	212.08
889.74	212.00
890.05	212.07
890.35	212.10
890.66	212.03
890.97	212.06
891.28	211.95
891.58	211.92
891.89	211.92
892.20	211.86
892.50	211.80
892.81	211.84
893.12	211.80
893.42	211.70
893.73	211.63
894.04	211.55
894.34	211.55
894.65	211.60
894.95	211.59
895.26	211.59
895.57	211.68
895.87	211.52
896.18	211.58
896.48	211.58
896.79	211.53
897.10	211.51
897.40	211.54
897.71	211.59
898.01	211.51
898.32	211.55
898.63	211.58
898.93	211.60
899.24	211.55
899.54	211.57
899.85	211.56
900.15	211.55
900.46	211.52
900.76	211.57
901.07	211.52
901.38	211.43
901.68	211.48
901.99	211.42
902.29	211.42
902.60	211.39
902.90	211.31
903.21	211.31
903.51	211.29
903.82	211.30
904.12	211.30
904.43	211.30
904.73	211.26
905.03	211.29
905.34	211.38
905.64	211.40
905.95	211.38
906.25	211.42
906.56	211.39
906.86	211.42
907.17	211.33
907.47	211.37
907.77	211.47
908.08	211.40
908.38	211.43
908.69	211.43
908.99	211.51
909.30	211.55
909.60	211.57
909.90	211.50
910.21	211.42
910.51	211.35
910.81	211.41
911.12	211.40
911.42	211.32
911.73	211.20
912.03	211.22
912.33	211.26
912.64	211.22
912.94	211.21
913.24	211.18
913.55	211.23
913.85	211.23
914.15	211.18
914.46	211.20
914.76	211.19
915.06	211.16
915.37	211.10
915.67	211.07
915.97	211.04
916.27	211.15
916.58	211.20
916.88	211.16
917.18	211.12
917.49	211.26
917.79	211.30
918.09	211.31
918.39	211.32
918.70	211.33
919.00	211.38
919.30	211.55
919.60	211.55
919.91	211.49
920.21	211.46
920.51	211.44
920.81	211.47
921.12	211.44
921.42	211.48
921.72	211.45
922.02	211.44
922.32	211.50
922.63	211.48
922.93	211.54
923.23	211.56
923.53	211.58
923.83	211.49
924.13	211.45
924.44	211.46
924.74	211.51
925.04	211.55
925.34	211.50
925.64	211.37
925.94	211.45
926.24	211.51
926.55	211.46
926.85	211.52
927.15	211.41
927.45	211.45
927.75	211.40
928.05	211.42
928.35	211.42
928.65	211.44
928.95	211.44
929.26	211.38
929.56	211.43
929.86	211.41
930.16	211.31
930.46	211.34
930.76	211.31
931.06	211.22
931.36	211.17
931.66	211.21
931.96	211.28
932.26	211.15
932.56	211.12
932.86	211.20
933.16	211.18
933.46	211.21
933.76	211.21
934.06	211.33
934.36	211.38
934.66	211.41
934.96	211.35
935.26	211.30
935.56	211.30
935.86	211.21
936.16	211.21
936.46	211.24
936.76	211.23
937.06	211.22
937.36	211.26
937.66	211.25
937.96	211.24
938.26	211.12
938.56	211.21
938.86	211.20
939.16	211.23
939.46	211.18
939.76	211.20
940.06	211.16
940.35	211.05
940.65	210.93
940.95	210.92
941.25	210.87
941.55	210.86
941.85	210.85
942.15	210.87
942.45	210.89
942.75	210.92
943.04	210.92
943.34	210.95
943.64	210.88
943.94	210.85
944.24	210.84
944.54	210.87
944.84	210.84
945.13	210.81
945.43	210.76
945.73	210.74
946.03	210.73
946.33	210.71
946.62	210.67
946.92	210.73
947.22	210.75
947.52	210.83
947.82	210.95
948.11	210.93
948.41	210.95
948.71	210.93
949.01	210.90
949.31	210.93
949.60	210.90
949.90	210.97
950.20	210.97
950.50	210.95
950.79	210.94
951.09	210.91
951.39	210.95
951.69	210.99
951.98	211.09
952.28	211.05
952.58	211.11
952.87	211.14
953.17	211.11
953.47	211.10
953.76	211.00
954.06	210.86
954.36	210.86
954.66	210.87
954.95	210.85
955.25	210.81
955.55	210.79
955.84	210.81
956.14	210.77
956.44	210.75
956.73	210.69
957.03	210.72
957.32	210.81
957.62	210.79
957.92	210.78
958.21	210.73
958.51	211.02
958.81	211.00
959.10	210.98
959.40	211.03
959.69	211.05
959.99	211.04
960.29	211.09
960.58	211.02
960.88	211.11
961.17	211.13
961.47	211.19
961.76	211.15
962.06	211.14
962.36	211.20
962.65	211.22
962.95	211.29
963.24	211.30
963.54	211.25
963.83	211.27
964.13	211.23
964.42	211.14
964.72	210.94
965.01	210.95
965.31	210.97
965.60	210.91
965.90	210.93
966.19	210.97
966.49	210.96
966.78	211.05
967.08	210.98
967.37	211.00
967.67	210.98
967.96	211.03
968.26	211.01
968.55	211.01
968.85	210.96
969.14	210.96
969.43	210.97
969.73	210.96
970.02	210.91
970.32	210.91
970.61	210.94
970.91	210.95
971.20	210.90
971.49	210.85
971.79	210.93
972.08	210.90
972.38	210.97
972.67	211.02
972.96	210.99
973.26	210.95
973.55	211.03
973.85	211.01
974.14	211.05
974.43	211.06
974.73	211.04
975.02	211.03
975.31	211.01
975.61	210.96
975.90	210.90
976.19	210.84
976.49	210.87
976.78	210.83
977.07	210.80
977.37	210.75
977.66	210.80
977.95	210.71
978.24	210.67
978.54	210.57
978.83	210.52
979.12	210.55
979.42	210.58
979.71	210.51
980.00	210.49
980.29	210.46
980.59	210.41
980.88	210.37
981.17	210.42
981.46	210.42
981.76	210.37
982.05	210.43
982.34	210.47
982.63	210.45
982.93	210.51
983.22	210.52
983.51	210.58
983.80	210.66
984.09	210.74
984.39	210.78
984.68	210.89
984.97	210.90
985.26	210.78
985.55	210.80
985.85	210.77
986.14	210.86
986.43	210.90
986.72	210.90
987.01	210.89
987.30	210.98
987.59	210.96
987.89	210.98
988.18	210.95
988.47	210.95
988.76	210.90
989.05	210.83
989.34	210.79
989.63	210.83
989.92	210.76
990.22	210.74
990.51	210.69
990.80	210.64
991.09	210.68
991.38	210.72
991.67	210.67
991.96	210.64
992.25	210.64
992.54	210.59
992.83	210.63
993.12	210.61
993.41	210.53
993.70	210.68
993.99	210.71
994.28	210.73
994.58	210.79
994.87	210.84
995.16	210.93
995.45	211.00
995.74	210.96
996.03	210.95
996.32	211.00
996.61	211.04
996.90	211.03
997.19	211.04
997.48	211.15
997.77	211.19
998.06	211.20
998.34	211.20
998.63	211.17
998.92	211.13
999.21	211.13
999.50	211.18
999.79	211.04
1000.08	211.13
1000.37	211.09
1000.66	211.06
1000.95	211.14
1001.24	211.09
1001.53	211.06
1001.82	211.05
1002.11	211.00
1002.40	211.02
1002.68	211.08
1002.97	211.20
1003.26	211.17
1003.55	211.11
1003.84	211.11
1004.13	211.12
1004.42	211.10
1004.71	211.14
1004.99	211.15
1005.28	211.28
1005.57	211.27
1005.86	211.28
1006.15	211.18
1006.44	211.22
1006.72	211.21
1007.01	211.07
1007.30	211.12
1007.59	211.13
1007.88	211.16
1008.17	211.23
1008.45	211.16
1008.74	211.06
1009.03	211.02
1009.32	211.01
1009.60	210.99
1009.89	210.94
1010.18	210.96
1010.47	210.93
1010.76	210.96
1011.04	210.99
1011.33	211.15
1011.62	211.15
1011.91	211.14
1012.19	211.11
1012.48	211.12
1012.77	211.08
1013.05	211.19
1013.34	211.20
1013.63	211.17
1013.92	211.15
1014.20	211.08
1014.49	211.10
1014.78	211.15
1015.06	211.01
1015.35	211.01
1015.64	211.01
1015.92	211.06
1016.21	211.02
1016.50	210.93
1016.78	210.90
1017.07	210.90
1017.36	210.64
1017.64	210.64
1017.93	210.66
1018.22	210.74
1018.50	210.71
1018.79	210.71
1019.08	210.65
1019.36	210.63
1019.65	210.67
1019.93	210.72
1020.22	210.77
1020.51	210.85
1020.79	210.83
1021.08	211.15
1021.36	210.50
1021.65	210.10
1021.94	210.70
1022.22	210.65
1022.51	211.50
1022.79	211.65
1023.08	210.80
1023.36	212.85
1023.65	210.80
>>>>>End Processed Spectral Data<<<<<
