SpectraSuite Data File
++++++++++++++++++++++++++++++++++++
Date: Mon Feb 25 17:36:31 EST 2013
User: group
Dark Spectrum Present: No
Reference Spectrum Present: No
Number of Sampled Component Spectra: 1
Spectrometers: USB2E7196
Integration Time (usec): 52000 (USB2E7196)
Spectra Averaged: 20 (USB2E7196)
Boxcar Smoothing: 10 (USB2E7196)
Correct for Electrical Dark: No (USB2E7196)
Strobe/Lamp Enabled: No (USB2E7196)
Correct for Detector Non-linearity: No (USB2E7196)
Correct for Stray Light: No (USB2E7196)
Number of Pixels in Processed Spectrum: 2048
>>>>>Begin Processed Spectral Data<<<<<
339.09	0.00
339.48	199.40
339.86	200.55
340.24	201.35
340.63	202.35
341.01	207.35
341.39	206.10
341.78	208.10
342.16	208.90
342.54	208.65
342.93	198.23
343.31	208.30
343.69	208.77
344.07	209.23
344.46	209.71
344.84	210.25
345.22	210.56
345.60	210.90
345.99	211.16
346.37	211.38
346.75	211.59
347.13	211.75
347.52	211.87
347.90	211.99
348.28	212.15
348.66	212.27
349.05	212.34
349.43	212.41
349.81	212.52
350.19	212.70
350.57	212.91
350.96	213.08
351.34	213.29
351.72	213.51
352.10	213.68
352.48	213.82
352.87	213.87
353.25	213.92
353.63	214.04
354.01	214.06
354.39	214.16
354.77	214.29
355.15	214.45
355.54	214.58
355.92	214.65
356.30	214.70
356.68	214.97
357.06	215.05
357.44	215.11
357.82	215.29
358.20	215.37
358.58	215.41
358.97	215.50
359.35	215.54
359.73	215.62
360.11	215.68
360.49	215.74
360.87	215.84
361.25	215.87
361.63	215.94
362.01	216.00
362.39	216.01
362.77	216.09
363.15	216.09
363.53	216.08
363.91	216.10
364.29	216.15
364.67	215.97
365.05	216.00
365.43	216.07
365.81	216.08
366.19	216.15
366.57	216.22
366.95	216.28
367.33	216.25
367.71	216.22
368.09	216.33
368.47	216.34
368.85	216.28
369.23	216.33
369.61	216.31
369.99	216.36
370.37	216.41
370.75	216.42
371.13	216.41
371.51	216.37
371.89	216.34
372.27	216.37
372.65	216.36
373.03	216.29
373.41	216.31
373.78	216.26
374.16	216.17
374.54	216.12
374.92	216.05
375.30	216.01
375.68	216.00
376.06	215.95
376.44	215.95
376.82	215.92
377.19	215.87
377.57	215.80
377.95	215.69
378.33	215.53
378.71	215.36
379.09	215.31
379.47	215.35
379.84	215.33
380.22	215.20
380.60	215.16
380.98	215.12
381.36	215.05
381.73	215.00
382.11	214.97
382.49	214.96
382.87	214.85
383.25	214.83
383.62	215.04
384.00	214.92
384.38	214.87
384.76	214.89
385.13	214.95
385.51	214.90
385.89	214.94
386.27	215.05
386.64	215.04
387.02	215.04
387.40	214.98
387.78	214.94
388.15	215.04
388.53	215.00
388.91	215.01
389.29	215.00
389.66	214.95
390.04	215.00
390.42	214.98
390.79	215.09
391.17	215.10
391.55	214.95
391.92	215.11
392.30	215.18
392.68	215.20
393.05	215.26
393.43	215.30
393.81	215.42
394.18	215.41
394.56	215.55
394.94	215.62
395.31	215.70
395.69	215.90
396.06	216.04
396.44	216.19
396.82	216.25
397.19	216.43
397.57	216.60
397.95	216.70
398.32	216.83
398.70	216.94
399.07	217.18
399.45	217.34
399.82	217.38
400.20	217.60
400.58	217.81
400.95	217.96
401.33	218.31
401.70	218.69
402.08	219.03
402.45	219.41
402.83	219.79
403.20	220.20
403.58	220.57
403.95	221.05
404.33	221.63
404.71	222.23
405.08	222.87
405.46	223.59
405.83	224.41
406.21	225.23
406.58	226.12
406.96	227.02
407.33	227.98
407.70	229.14
408.08	230.39
408.45	231.80
408.83	233.18
409.20	234.54
409.58	236.04
409.95	237.80
410.33	239.68
410.70	241.70
411.08	243.83
411.45	246.15
411.82	248.55
412.20	251.10
412.57	254.12
412.95	256.96
413.32	260.06
413.69	263.37
414.07	266.88
414.44	270.79
414.82	274.73
415.19	279.42
415.56	284.19
415.94	289.38
416.31	295.01
416.68	300.80
417.06	307.19
417.43	313.26
417.81	320.37
418.18	327.61
418.55	335.54
418.93	343.81
419.30	352.49
419.67	361.61
420.04	371.09
420.42	381.20
420.79	392.41
421.16	404.17
421.54	416.00
421.91	428.50
422.28	441.52
422.66	455.34
423.03	468.58
423.40	482.97
423.77	498.22
424.15	513.65
424.52	529.64
424.89	547.31
425.26	564.68
425.64	581.21
426.01	599.42
426.38	618.35
426.75	637.56
427.13	657.55
427.50	678.96
427.87	701.37
428.24	723.77
428.61	745.47
428.99	768.70
429.36	794.73
429.73	820.24
430.10	845.50
430.47	871.38
430.85	899.20
431.22	927.56
431.59	957.62
431.96	987.28
432.33	1020.05
432.70	1051.63
433.08	1089.01
433.45	1124.17
433.82	1159.26
434.19	1198.20
434.56	1236.54
434.93	1273.91
435.30	1310.70
435.68	1351.68
436.05	1392.48
436.42	1433.67
436.79	1471.37
437.16	1511.76
437.53	1554.67
437.90	1597.34
438.27	1639.73
438.64	1683.68
439.01	1724.64
439.38	1762.09
439.75	1797.76
440.13	1838.19
440.50	1876.79
440.87	1908.28
441.24	1941.89
441.61	1978.56
441.98	2006.96
442.35	2039.54
442.72	2071.85
443.09	2103.26
443.46	2124.42
443.83	2139.57
444.20	2153.18
444.57	2171.76
444.94	2182.50
445.31	2193.20
445.68	2202.53
446.05	2209.59
446.42	2209.32
446.79	2208.03
447.16	2206.52
447.53	2206.15
447.90	2194.83
448.27	2183.58
448.64	2166.29
449.01	2153.77
449.37	2129.25
449.74	2105.75
450.11	2076.07
450.48	2045.08
450.85	2013.40
451.22	1985.65
451.59	1959.05
451.96	1933.56
452.33	1898.44
452.70	1867.04
453.07	1829.28
453.43	1791.49
453.80	1753.81
454.17	1717.45
454.54	1683.89
454.91	1647.06
455.28	1611.44
455.65	1578.22
456.02	1542.45
456.38	1513.23
456.75	1477.07
457.12	1447.41
457.49	1417.81
457.86	1389.92
458.23	1364.39
458.59	1336.75
458.96	1308.82
459.33	1284.49
459.70	1259.93
460.07	1240.32
460.43	1217.65
460.80	1195.91
461.17	1177.30
461.54	1157.69
461.91	1139.27
462.27	1120.49
462.64	1104.30
463.01	1086.19
463.38	1068.00
463.74	1052.44
464.11	1037.81
464.48	1024.73
464.85	1010.20
465.21	998.60
465.58	986.58
465.95	972.30
466.32	960.36
466.68	948.43
467.05	936.35
467.42	924.52
467.78	912.36
468.15	900.60
468.52	891.85
468.88	880.77
469.25	870.87
469.62	862.55
469.98	853.70
470.35	845.62
470.72	838.10
471.08	830.50
471.45	823.35
471.82	815.80
472.18	807.90
472.55	802.32
472.92	795.71
473.28	789.98
473.65	784.70
474.02	779.20
474.38	774.74
474.75	771.02
475.11	766.71
475.48	763.20
475.85	760.42
476.21	757.57
476.58	755.09
476.94	753.13
477.31	750.87
477.67	748.75
478.04	747.08
478.41	746.12
478.77	745.28
479.14	744.40
479.50	744.19
479.87	744.81
480.23	745.24
480.60	745.48
480.96	745.70
481.33	746.86
481.69	748.28
482.06	749.19
482.42	749.89
482.79	751.27
483.15	753.76
483.52	756.85
483.88	759.66
484.25	762.73
484.61	765.72
484.98	769.15
485.34	773.20
485.71	777.69
486.07	782.34
486.44	787.26
486.80	792.67
487.17	798.29
487.53	804.60
487.90	811.30
488.26	818.27
488.62	825.86
488.99	833.49
489.35	841.41
489.72	850.45
490.08	860.04
490.44	869.87
490.81	879.72
491.17	889.46
491.54	900.38
491.90	911.03
492.26	922.71
492.63	934.76
492.99	947.22
493.36	959.74
493.72	972.85
494.08	986.61
494.45	1000.86
494.81	1016.11
495.17	1031.50
495.54	1047.38
495.90	1064.33
496.26	1081.15
496.63	1098.66
496.99	1116.15
497.35	1133.81
497.72	1152.13
498.08	1170.76
498.44	1189.88
498.80	1210.05
499.17	1229.82
499.53	1250.37
499.89	1271.27
500.26	1292.30
500.62	1313.27
500.98	1335.61
501.34	1357.76
501.71	1380.06
502.07	1403.05
502.43	1425.89
502.79	1448.72
503.16	1471.81
503.52	1494.54
503.88	1517.50
504.24	1540.26
504.60	1563.92
504.97	1588.67
505.33	1612.69
505.69	1637.80
506.05	1662.31
506.41	1686.43
506.78	1711.02
507.14	1735.44
507.50	1760.27
507.86	1785.31
508.22	1810.90
508.59	1835.52
508.95	1860.73
509.31	1886.32
509.67	1911.96
510.03	1937.29
510.39	1963.07
510.75	1988.25
511.12	2012.69
511.48	2037.35
511.84	2062.40
512.20	2086.75
512.56	2110.71
512.92	2135.20
513.28	2158.97
513.64	2183.20
514.00	2206.56
514.37	2229.70
514.73	2253.22
515.09	2275.94
515.45	2298.50
515.81	2320.84
516.17	2343.70
516.53	2365.04
516.89	2386.08
517.25	2405.69
517.61	2425.22
517.97	2444.21
518.33	2462.99
518.69	2483.16
519.05	2503.11
519.41	2522.73
519.77	2542.36
520.13	2561.20
520.49	2579.03
520.85	2596.75
521.21	2613.66
521.57	2631.41
521.93	2648.07
522.29	2665.24
522.65	2682.25
523.01	2698.93
523.37	2714.51
523.73	2729.58
524.09	2744.85
524.45	2759.63
524.81	2774.41
525.17	2790.01
525.53	2804.77
525.89	2820.00
526.25	2834.36
526.61	2847.08
526.97	2859.94
527.33	2872.95
527.68	2885.95
528.04	2899.40
528.40	2911.56
528.76	2924.25
529.12	2936.07
529.48	2948.43
529.84	2958.04
530.20	2969.31
530.56	2980.10
530.91	2991.51
531.27	3002.38
531.63	3013.55
531.99	3023.84
532.35	3034.14
532.71	3043.93
533.07	3055.45
533.42	3064.94
533.78	3075.43
534.14	3085.70
534.50	3094.82
534.86	3104.06
535.21	3111.63
535.57	3120.62
535.93	3129.11
536.29	3136.18
536.65	3144.75
537.00	3152.20
537.36	3161.27
537.72	3168.17
538.08	3175.74
538.44	3182.86
538.79	3189.50
539.15	3196.11
539.51	3203.50
539.87	3210.96
540.22	3217.46
540.58	3222.95
540.94	3229.37
541.29	3234.16
541.65	3237.47
542.01	3241.82
542.37	3245.59
542.72	3250.76
543.08	3253.87
543.44	3258.02
543.79	3261.65
544.15	3264.56
544.51	3268.38
544.87	3271.61
545.22	3273.96
545.58	3275.43
545.94	3276.60
546.29	3278.07
546.65	3278.98
547.01	3279.89
547.36	3281.16
547.72	3282.27
548.07	3282.03
548.43	3281.88
548.79	3281.12
549.14	3282.87
549.50	3284.05
549.86	3285.10
550.21	3284.51
550.57	3284.51
550.92	3283.43
551.28	3282.32
551.64	3281.09
551.99	3279.94
552.35	3279.32
552.70	3278.80
553.06	3278.21
553.41	3277.65
553.77	3277.60
554.13	3276.96
554.48	3276.91
554.84	3276.09
555.19	3274.50
555.55	3274.47
555.90	3273.85
556.26	3273.23
556.61	3272.04
556.97	3269.21
557.32	3266.17
557.68	3263.89
558.03	3261.02
558.39	3259.17
558.74	3259.55
559.10	3259.19
559.45	3258.44
559.81	3257.16
560.16	3255.66
560.52	3254.92
560.87	3253.16
561.23	3249.33
561.58	3246.53
561.94	3241.83
562.29	3237.16
562.64	3233.80
563.00	3229.81
563.35	3225.55
563.71	3222.32
564.06	3219.50
564.42	3216.87
564.77	3214.16
565.12	3211.35
565.48	3208.75
565.83	3205.43
566.19	3202.05
566.54	3197.87
566.89	3192.55
567.25	3186.60
567.60	3182.57
567.96	3177.37
568.31	3172.76
568.66	3168.99
569.02	3165.46
569.37	3162.57
569.72	3159.45
570.08	3155.18
570.43	3149.50
570.78	3145.04
571.14	3140.29
571.49	3134.83
571.84	3130.31
572.20	3124.49
572.55	3119.62
572.90	3113.77
573.26	3107.49
573.61	3100.02
573.96	3092.88
574.31	3085.78
574.67	3079.82
575.02	3071.94
575.37	3064.30
575.72	3056.90
576.08	3049.77
576.43	3041.36
576.78	3033.08
577.13	3024.87
577.49	3017.24
577.84	3010.49
578.19	3002.41
578.54	2994.09
578.90	2985.61
579.25	2976.42
579.60	2967.36
579.95	2957.92
580.30	2949.46
580.66	2940.91
581.01	2931.66
581.36	2922.05
581.71	2913.67
582.06	2904.89
582.42	2897.22
582.77	2887.59
583.12	2877.78
583.47	2868.32
583.82	2859.01
584.17	2848.73
584.53	2839.62
584.88	2829.34
585.23	2818.64
585.58	2809.52
585.93	2799.22
586.28	2789.91
586.63	2780.25
586.98	2771.06
587.34	2761.95
587.69	2751.71
588.04	2742.73
588.39	2733.47
588.74	2723.21
589.09	2713.34
589.44	2701.77
589.79	2689.95
590.14	2680.38
590.49	2669.85
590.84	2659.78
591.19	2650.19
591.54	2640.34
591.89	2628.44
592.25	2618.25
592.60	2607.42
592.95	2595.83
593.30	2584.78
593.65	2573.56
594.00	2562.82
594.35	2552.94
594.70	2541.42
595.05	2530.55
595.40	2518.23
595.75	2506.42
596.10	2496.01
596.45	2484.64
596.80	2475.30
597.15	2465.10
597.50	2454.07
597.85	2444.29
598.19	2432.22
598.54	2420.07
598.89	2408.79
599.24	2398.58
599.59	2387.28
599.94	2377.58
600.29	2367.65
600.64	2357.61
600.99	2345.79
601.34	2335.55
601.69	2323.39
602.04	2312.70
602.39	2302.47
602.74	2293.61
603.08	2285.19
603.43	2276.55
603.78	2266.94
604.13	2256.51
604.48	2246.09
604.83	2236.44
605.18	2226.31
605.53	2216.88
605.87	2207.40
606.22	2197.94
606.57	2188.08
606.92	2177.72
607.27	2166.94
607.62	2156.83
607.96	2146.84
608.31	2138.46
608.66	2127.81
609.01	2117.89
609.36	2107.47
609.70	2096.62
610.05	2084.62
610.40	2072.39
610.75	2060.02
611.10	2049.02
611.44	2037.23
611.79	2026.35
612.14	2014.85
612.49	2002.55
612.83	1991.12
613.18	1979.20
613.53	1967.47
613.88	1955.02
614.22	1943.38
614.57	1931.20
614.92	1918.65
615.27	1906.39
615.61	1893.07
615.96	1881.35
616.31	1870.15
616.65	1859.35
617.00	1848.21
617.35	1837.25
617.70	1825.60
618.04	1814.19
618.39	1802.42
618.74	1791.42
619.08	1779.22
619.43	1767.13
619.78	1755.93
620.12	1745.53
620.47	1735.25
620.82	1724.23
621.16	1713.86
621.51	1703.62
621.85	1693.24
622.20	1682.18
622.55	1671.18
622.89	1661.11
623.24	1650.57
623.59	1639.70
623.93	1628.53
624.28	1618.00
624.62	1607.48
624.97	1597.35
625.32	1587.19
625.66	1577.45
626.01	1567.51
626.35	1558.96
626.70	1550.05
627.04	1540.68
627.39	1529.95
627.73	1520.01
628.08	1510.56
628.43	1501.02
628.77	1491.93
629.12	1482.45
629.46	1473.46
629.81	1463.80
630.15	1454.17
630.50	1444.40
630.84	1434.79
631.19	1425.05
631.53	1415.57
631.88	1406.13
632.22	1397.28
632.57	1388.91
632.91	1379.79
633.26	1370.97
633.60	1361.45
633.95	1352.89
634.29	1344.34
634.64	1336.44
634.98	1327.28
635.32	1318.98
635.67	1311.13
636.01	1302.44
636.36	1294.32
636.70	1285.95
637.05	1278.28
637.39	1270.27
637.73	1262.36
638.08	1255.03
638.42	1248.03
638.77	1240.45
639.11	1232.85
639.45	1224.95
639.80	1216.57
640.14	1208.88
640.49	1200.91
640.83	1192.57
641.17	1184.18
641.52	1176.34
641.86	1168.14
642.20	1160.47
642.55	1151.84
642.89	1142.84
643.23	1134.70
643.58	1126.89
643.92	1118.93
644.26	1110.76
644.61	1102.81
644.95	1094.66
645.29	1086.40
645.64	1077.93
645.98	1070.13
646.32	1062.53
646.66	1055.00
647.01	1047.61
647.35	1039.76
647.69	1031.93
648.04	1024.80
648.38	1017.18
648.72	1009.66
649.06	1002.39
649.41	995.17
649.75	987.77
650.09	981.30
650.43	974.45
650.78	967.33
651.12	960.27
651.46	953.56
651.80	947.02
652.14	940.80
652.49	934.34
652.83	927.78
653.17	920.56
653.51	913.61
653.85	907.16
654.20	900.70
654.54	894.39
654.88	888.02
655.22	881.46
655.56	874.54
655.90	867.66
656.25	860.64
656.59	854.16
656.93	848.16
657.27	841.44
657.61	834.78
657.95	828.42
658.29	822.32
658.64	816.49
658.98	810.30
659.32	803.92
659.66	797.69
660.00	791.84
660.34	786.42
660.68	780.75
661.02	774.35
661.36	768.50
661.70	762.68
662.05	757.20
662.39	752.00
662.73	747.26
663.07	742.48
663.41	737.80
663.75	732.82
664.09	727.74
664.43	722.80
664.77	717.80
665.11	712.90
665.45	708.39
665.79	703.46
666.13	698.80
666.47	694.40
666.81	690.14
667.15	685.56
667.49	681.05
667.83	676.63
668.17	672.65
668.51	668.30
668.85	663.95
669.19	659.80
669.53	655.16
669.87	650.44
670.21	646.11
670.55	641.74
670.89	637.57
671.23	633.63
671.57	629.41
671.91	625.36
672.25	621.27
672.58	617.05
672.92	612.89
673.26	609.01
673.60	605.15
673.94	601.37
674.28	597.87
674.62	594.09
674.96	590.07
675.30	586.08
675.64	582.42
675.97	578.99
676.31	575.44
676.65	572.21
676.99	569.48
677.33	566.25
677.67	562.94
678.01	559.48
678.34	556.00
678.68	552.89
679.02	549.55
679.36	546.23
679.70	542.84
680.04	539.81
680.37	536.55
680.71	533.25
681.05	530.20
681.39	526.97
681.73	523.87
682.06	521.06
682.40	518.09
682.74	514.88
683.08	511.72
683.42	508.60
683.75	505.54
684.09	502.24
684.43	499.01
684.77	496.00
685.10	493.03
685.44	490.03
685.78	487.01
686.12	484.20
686.45	481.24
686.79	478.52
687.13	475.67
687.46	472.99
687.80	470.40
688.14	467.50
688.48	464.73
688.81	461.90
689.15	459.23
689.49	456.59
689.82	453.87
690.16	450.93
690.50	448.22
690.83	445.48
691.17	442.77
691.51	440.29
691.84	437.80
692.18	435.44
692.52	433.07
692.85	430.64
693.19	428.25
693.52	426.02
693.86	423.65
694.20	421.24
694.53	418.73
694.87	416.19
695.21	413.71
695.54	411.36
695.88	409.13
696.21	406.81
696.55	404.66
696.88	402.68
697.22	400.77
697.56	398.85
697.89	396.99
698.23	395.03
698.56	393.07
698.90	391.14
699.23	389.10
699.57	386.93
699.90	385.07
700.24	383.12
700.58	381.25
700.91	379.41
701.25	377.62
701.58	375.97
701.92	374.30
702.25	372.60
702.59	370.95
702.92	369.24
703.26	367.60
703.59	365.94
703.93	364.51
704.26	362.88
704.60	361.16
704.93	359.34
705.26	357.69
705.60	356.04
705.93	354.41
706.27	352.96
706.60	351.67
706.94	350.11
707.27	348.50
707.61	346.96
707.94	345.42
708.27	343.83
708.61	342.27
708.94	340.91
709.28	339.55
709.61	338.20
709.94	336.81
710.28	335.27
710.61	333.84
710.95	332.20
711.28	330.96
711.61	329.55
711.95	328.27
712.28	327.00
712.61	325.68
712.95	324.44
713.28	323.15
713.61	321.79
713.95	320.64
714.28	319.49
714.61	318.29
714.95	317.19
715.28	316.00
715.61	314.78
715.95	313.40
716.28	312.07
716.61	310.78
716.95	309.54
717.28	308.43
717.61	307.30
717.94	306.14
718.28	304.92
718.61	303.90
718.94	302.83
719.27	301.74
719.61	300.68
719.94	299.68
720.27	298.58
720.60	297.76
720.94	296.80
721.27	295.93
721.60	295.05
721.93	294.20
722.27	293.46
722.60	292.70
722.93	291.87
723.26	291.15
723.59	290.35
723.93	289.52
724.26	288.72
724.59	287.97
724.92	287.25
725.25	286.50
725.59	285.72
725.92	285.05
726.25	284.35
726.58	283.70
726.91	282.89
727.24	282.28
727.57	281.41
727.91	280.54
728.24	279.75
728.57	278.97
728.90	278.19
729.23	277.40
729.56	276.70
729.89	275.96
730.22	275.20
730.55	274.52
730.89	273.95
731.22	273.36
731.55	272.62
731.88	272.03
732.21	271.30
732.54	270.58
732.87	269.88
733.20	269.30
733.53	268.66
733.86	268.10
734.19	267.54
734.52	267.00
734.85	266.64
735.18	266.18
735.51	265.66
735.84	265.09
736.17	264.52
736.50	263.85
736.83	263.52
737.16	263.05
737.49	262.52
737.82	261.92
738.15	261.28
738.48	260.78
738.81	260.18
739.14	259.70
739.47	259.27
739.80	258.89
740.13	258.31
740.46	257.74
740.79	257.28
741.12	256.74
741.45	256.23
741.78	255.62
742.11	255.15
742.44	254.63
742.77	254.19
743.10	253.66
743.43	253.22
743.75	252.61
744.08	252.30
744.41	251.77
744.74	251.27
745.07	250.87
745.40	250.50
745.73	250.09
746.06	249.67
746.39	249.21
746.71	248.70
747.04	248.28
747.37	247.95
747.70	247.56
748.03	247.13
748.36	246.76
748.68	246.35
749.01	245.87
749.34	245.49
749.67	245.13
750.00	244.74
750.33	244.49
750.65	244.14
750.98	243.61
751.31	243.29
751.64	242.99
751.97	242.72
752.29	242.32
752.62	241.94
752.95	241.61
753.28	241.30
753.60	240.93
753.93	240.65
754.26	240.29
754.59	239.88
754.91	239.42
755.24	239.17
755.57	238.93
755.90	238.62
756.22	238.31
756.55	237.94
756.88	237.66
757.20	237.26
757.53	236.94
757.86	236.65
758.19	236.41
758.51	236.13
758.84	235.77
759.17	235.49
759.49	235.25
759.82	235.09
760.15	234.80
760.47	234.63
760.80	234.32
761.13	234.03
761.45	233.80
761.78	233.66
762.11	233.30
762.43	232.99
762.76	232.72
763.08	232.54
763.41	232.32
763.74	232.15
764.06	231.89
764.39	231.68
764.71	231.43
765.04	231.18
765.37	230.96
765.69	230.72
766.02	230.53
766.34	230.34
766.67	230.08
767.00	229.88
767.32	229.65
767.65	229.53
767.97	229.34
768.30	229.09
768.62	228.86
768.95	228.74
769.27	228.49
769.60	228.40
769.92	228.12
770.25	227.88
770.57	227.63
770.90	227.55
771.22	227.28
771.55	227.08
771.87	226.89
772.20	226.66
772.52	226.67
772.85	226.61
773.17	226.44
773.50	226.26
773.82	226.05
774.15	225.82
774.47	225.56
774.80	225.42
775.12	225.29
775.45	225.16
775.77	225.03
776.09	224.94
776.42	224.70
776.74	224.66
777.07	224.55
777.39	224.38
777.72	224.22
778.04	224.16
778.36	224.04
778.69	223.96
779.01	223.85
779.33	223.61
779.66	223.41
779.98	223.23
780.31	223.09
780.63	223.10
780.95	223.06
781.28	222.96
781.60	222.83
781.92	222.68
782.25	222.60
782.57	222.41
782.89	222.27
783.22	222.15
783.54	221.97
783.86	221.84
784.19	221.83
784.51	221.71
784.83	221.57
785.16	221.42
785.48	221.25
785.80	221.15
786.12	221.04
786.45	220.92
786.77	220.87
787.09	220.79
787.42	220.64
787.74	220.58
788.06	220.57
788.38	220.45
788.71	220.47
789.03	220.37
789.35	220.36
789.67	220.35
789.99	220.24
790.32	220.14
790.64	220.08
790.96	220.03
791.28	219.95
791.61	219.91
791.93	219.95
792.25	219.88
792.57	219.90
792.89	219.79
793.21	219.67
793.54	219.55
793.86	219.42
794.18	219.36
794.50	219.25
794.82	219.08
795.14	219.04
795.47	218.97
795.79	218.93
796.11	218.81
796.43	218.67
796.75	218.65
797.07	218.62
797.39	218.59
797.71	218.51
798.04	218.35
798.36	218.29
798.68	218.20
799.00	218.19
799.32	218.08
799.64	218.02
799.96	217.91
800.28	217.94
800.60	217.94
800.92	217.75
801.24	217.66
801.56	217.63
801.89	217.57
802.21	217.44
802.53	217.29
802.85	217.34
803.17	217.36
803.49	217.24
803.81	217.14
804.13	217.01
804.45	216.90
804.77	216.85
805.09	216.81
805.41	216.69
805.73	216.55
806.05	216.44
806.37	216.32
806.69	216.34
807.01	216.20
807.33	216.09
807.65	216.02
807.97	216.07
808.28	216.00
808.60	215.89
808.92	215.82
809.24	215.85
809.56	215.67
809.88	215.61
810.20	215.65
810.52	215.58
810.84	215.57
811.16	215.41
811.48	215.39
811.80	215.36
812.12	215.37
812.43	215.29
812.75	215.21
813.07	215.26
813.39	215.14
813.71	215.09
814.03	215.03
814.35	215.06
814.67	214.93
814.98	214.85
815.30	214.87
815.62	214.82
815.94	214.69
816.26	214.64
816.58	214.58
816.89	214.53
817.21	214.51
817.53	214.44
817.85	214.46
818.17	214.42
818.48	214.28
818.80	214.29
819.12	214.27
819.44	214.16
819.76	214.03
820.07	214.05
820.39	214.01
820.71	214.03
821.03	214.03
821.34	213.99
821.66	213.98
821.98	213.95
822.30	213.88
822.61	213.97
822.93	213.94
823.25	213.83
823.57	213.85
823.88	213.83
824.20	213.86
824.52	213.96
824.83	213.94
825.15	213.99
825.47	213.90
825.79	213.91
826.10	213.97
826.42	213.92
826.74	213.92
827.05	213.94
827.37	213.86
827.69	213.79
828.00	213.74
828.32	213.77
828.64	213.70
828.95	213.81
829.27	213.76
829.58	213.80
829.90	213.82
830.22	213.71
830.53	213.71
830.85	213.62
831.17	213.50
831.48	213.47
831.80	213.43
832.11	213.40
832.43	213.40
832.75	213.40
833.06	213.56
833.38	213.51
833.69	213.43
834.01	213.44
834.32	213.35
834.64	213.33
834.96	213.29
835.27	213.30
835.59	213.27
835.90	213.22
836.22	213.15
836.53	213.11
836.85	213.15
837.16	213.24
837.48	213.30
837.79	213.31
838.11	213.34
838.42	213.33
838.74	213.29
839.05	213.19
839.37	213.22
839.68	213.07
840.00	213.04
840.31	213.03
840.63	212.96
840.94	213.02
841.26	213.00
841.57	213.02
841.88	213.05
842.20	212.95
842.51	212.89
842.83	212.86
843.14	212.98
843.46	212.90
843.77	212.80
844.08	212.74
844.40	212.67
844.71	212.61
845.03	212.56
845.34	212.59
845.65	212.64
845.97	212.62
846.28	212.60
846.60	212.63
846.91	212.63
847.22	212.65
847.54	212.65
847.85	212.67
848.16	212.59
848.48	212.52
848.79	212.62
849.10	212.60
849.42	212.63
849.73	212.46
850.04	212.42
850.36	212.36
850.67	212.32
850.98	212.29
851.30	212.27
851.61	212.26
851.92	212.19
852.23	212.15
852.55	212.12
852.86	212.10
853.17	212.08
853.49	212.10
853.80	212.11
854.11	212.11
854.42	212.13
854.74	212.11
855.05	212.13
855.36	212.01
855.67	212.04
855.99	212.05
856.30	212.28
856.61	212.39
856.92	212.35
857.23	212.34
857.55	212.32
857.86	212.33
858.17	212.29
858.48	212.27
858.79	212.28
859.11	212.21
859.42	212.20
859.73	212.17
860.04	212.15
860.35	212.16
860.66	212.04
860.98	212.06
861.29	212.11
861.60	212.08
861.91	212.14
862.22	212.11
862.53	212.05
862.84	211.90
863.16	211.93
863.47	211.92
863.78	211.98
864.09	212.07
864.40	212.09
864.71	212.12
865.02	212.16
865.33	212.18
865.64	212.23
865.95	212.25
866.27	212.38
866.58	212.32
866.89	212.33
867.20	212.38
867.51	212.28
867.82	212.22
868.13	212.25
868.44	212.21
868.75	212.23
869.06	212.25
869.37	212.20
869.68	212.12
869.99	212.15
870.30	212.15
870.61	212.13
870.92	212.08
871.23	212.06
871.54	212.05
871.85	212.13
872.16	212.17
872.47	212.15
872.78	212.05
873.09	212.14
873.40	212.13
873.71	212.17
874.02	212.17
874.33	212.23
874.64	212.16
874.95	212.17
875.26	212.10
875.56	212.14
875.87	212.10
876.18	212.07
876.49	212.24
876.80	212.15
877.11	212.16
877.42	212.15
877.73	212.16
878.04	212.14
878.35	212.08
878.66	212.05
878.96	212.02
879.27	211.95
879.58	211.86
879.89	211.82
880.20	211.83
880.51	211.78
880.82	211.74
881.12	211.77
881.43	211.74
881.74	211.80
882.05	211.72
882.36	211.71
882.67	211.78
882.97	211.64
883.28	211.61
883.59	211.55
883.90	211.56
884.21	211.64
884.51	211.63
884.82	211.61
885.13	211.60
885.44	211.53
885.74	211.50
886.05	211.49
886.36	211.50
886.67	211.42
886.98	211.59
887.28	211.62
887.59	211.60
887.90	211.65
888.20	211.61
888.51	211.67
888.82	211.70
889.13	211.60
889.43	211.69
889.74	211.76
890.05	211.77
890.35	211.75
890.66	211.61
890.97	211.67
891.28	211.63
891.58	211.64
891.89	211.74
892.20	211.75
892.50	211.72
892.81	211.69
893.12	211.62
893.42	211.55
893.73	211.53
894.04	211.51
894.34	211.46
894.65	211.46
894.95	211.42
895.26	211.40
895.57	211.39
895.87	211.15
896.18	211.15
896.48	211.13
896.79	211.14
897.10	211.18
897.40	211.11
897.71	211.14
898.01	211.11
898.32	211.10
898.63	211.13
898.93	211.21
899.24	211.21
899.54	211.28
899.85	211.22
900.15	211.20
900.46	211.21
900.76	211.24
901.07	211.23
901.38	211.27
901.68	211.29
901.99	211.26
902.29	211.34
902.60	211.37
902.90	211.34
903.21	211.33
903.51	211.32
903.82	211.37
904.12	211.31
904.43	211.24
904.73	211.20
905.03	211.23
905.34	211.37
905.64	211.31
905.95	211.31
906.25	211.35
906.56	211.40
906.86	211.43
907.17	211.31
907.47	211.28
907.77	211.20
908.08	211.15
908.38	211.22
908.69	211.24
908.99	211.27
909.30	211.32
909.60	211.30
909.90	211.36
910.21	211.35
910.51	211.35
910.81	211.38
911.12	211.41
911.42	211.37
911.73	211.11
912.03	211.22
912.33	211.24
912.64	211.19
912.94	211.12
913.24	211.10
913.55	211.14
913.85	211.20
914.15	211.27
914.46	211.29
914.76	211.21
915.06	211.14
915.37	211.03
915.67	211.04
915.97	211.08
916.27	210.98
916.58	210.93
916.88	210.97
917.18	210.98
917.49	211.06
917.79	211.10
918.09	211.19
918.39	211.20
918.70	211.19
919.00	211.21
919.30	211.31
919.60	211.22
919.91	211.20
920.21	211.17
920.51	211.11
920.81	211.10
921.12	211.16
921.42	211.23
921.72	211.29
922.02	211.26
922.32	211.25
922.63	211.25
922.93	211.32
923.23	211.30
923.53	211.34
923.83	211.27
924.13	211.29
924.44	211.28
924.74	211.31
925.04	211.32
925.34	211.35
925.64	211.26
925.94	211.36
926.24	211.42
926.55	211.41
926.85	211.49
927.15	211.47
927.45	211.44
927.75	211.45
928.05	211.46
928.35	211.57
928.65	211.59
928.95	211.63
929.26	211.64
929.56	211.68
929.86	211.67
930.16	211.68
930.46	211.66
930.76	211.62
931.06	211.56
931.36	211.51
931.66	211.52
931.96	211.55
932.26	211.56
932.56	211.56
932.86	211.57
933.16	211.51
933.46	211.48
933.76	211.47
934.06	211.47
934.36	211.55
934.66	211.51
934.96	211.55
935.26	211.50
935.56	211.53
935.86	211.48
936.16	211.45
936.46	211.42
936.76	211.37
937.06	211.41
937.36	211.46
937.66	211.56
937.96	211.51
938.26	211.52
938.56	211.51
938.86	211.51
939.16	211.59
939.46	211.57
939.76	211.65
940.06	211.66
940.35	211.63
940.65	211.54
940.95	211.54
941.25	211.46
941.55	211.52
941.85	211.42
942.15	211.49
942.45	211.52
942.75	211.54
943.04	211.50
943.34	211.53
943.64	211.42
943.94	211.34
944.24	211.39
944.54	211.35
944.84	211.33
945.13	211.36
945.43	211.28
945.73	211.29
946.03	211.29
946.33	211.32
946.62	211.26
946.92	211.25
947.22	211.20
947.52	211.20
947.82	211.19
948.11	211.21
948.41	211.11
948.71	211.04
949.01	211.03
949.31	211.09
949.60	211.08
949.90	211.18
950.20	211.23
950.50	211.21
950.79	211.19
951.09	211.32
951.39	211.26
951.69	211.23
951.98	211.30
952.28	211.30
952.58	211.27
952.87	211.29
953.17	211.34
953.47	211.36
953.76	211.34
954.06	211.37
954.36	211.30
954.66	211.36
954.95	211.39
955.25	211.38
955.55	211.35
955.84	211.31
956.14	211.27
956.44	211.20
956.73	211.16
957.03	211.18
957.32	211.08
957.62	211.05
957.92	211.09
958.21	211.06
958.51	211.22
958.81	211.23
959.10	211.30
959.40	211.29
959.69	211.26
959.99	211.23
960.29	211.22
960.58	211.24
960.88	211.32
961.17	211.35
961.47	211.35
961.76	211.36
962.06	211.40
962.36	211.39
962.65	211.40
962.95	211.41
963.24	211.36
963.54	211.34
963.83	211.44
964.13	211.50
964.42	211.42
964.72	211.30
965.01	211.28
965.31	211.23
965.60	211.16
965.90	211.23
966.19	211.20
966.49	211.18
966.78	211.20
967.08	211.14
967.37	211.11
967.67	211.12
967.96	211.12
968.26	211.02
968.55	211.06
968.85	211.06
969.14	211.10
969.43	211.10
969.73	211.12
970.02	211.01
970.32	210.88
970.61	210.88
970.91	210.69
971.20	210.72
971.49	210.72
971.79	210.70
972.08	210.61
972.38	210.65
972.67	210.59
972.96	210.56
973.26	210.45
973.55	210.46
973.85	210.40
974.14	210.42
974.43	210.52
974.73	210.43
975.02	210.48
975.31	210.42
975.61	210.41
975.90	210.32
976.19	210.31
976.49	210.38
976.78	210.37
977.07	210.46
977.37	210.42
977.66	210.38
977.95	210.42
978.24	210.48
978.54	210.57
978.83	210.54
979.12	210.57
979.42	210.65
979.71	210.62
980.00	210.61
980.29	210.67
980.59	210.60
980.88	210.71
981.17	210.61
981.46	210.65
981.76	210.64
982.05	210.71
982.34	210.73
982.63	210.74
982.93	210.75
983.22	210.79
983.51	210.77
983.80	210.77
984.09	210.80
984.39	210.78
984.68	210.70
984.97	210.81
985.26	210.78
985.55	210.82
985.85	210.82
986.14	210.89
986.43	210.81
986.72	210.84
987.01	210.74
987.30	210.81
987.59	210.77
987.89	210.80
988.18	210.79
988.47	210.81
988.76	210.87
989.05	210.91
989.34	210.88
989.63	210.99
989.92	210.99
990.22	210.93
990.51	210.93
990.80	210.90
991.09	210.92
991.38	211.03
991.67	210.99
991.96	211.00
992.25	210.90
992.54	210.91
992.83	210.85
993.12	210.89
993.41	210.86
993.70	210.93
993.99	210.95
994.28	211.04
994.58	211.05
994.87	210.95
995.16	210.88
995.45	210.84
995.74	210.75
996.03	210.75
996.32	210.83
996.61	210.76
996.90	210.81
997.19	210.80
997.48	210.73
997.77	210.75
998.06	210.70
998.34	210.79
998.63	210.79
998.92	210.81
999.21	210.78
999.50	210.75
999.79	210.69
1000.08	210.68
1000.37	210.63
1000.66	210.60
1000.95	210.63
1001.24	210.66
1001.53	210.77
1001.82	210.70
1002.11	210.70
1002.40	210.72
1002.68	210.79
1002.97	210.92
1003.26	210.86
1003.55	210.82
1003.84	210.85
1004.13	211.02
1004.42	211.04
1004.71	211.01
1004.99	210.98
1005.28	211.09
1005.57	211.09
1005.86	211.12
1006.15	211.17
1006.44	211.11
1006.72	211.11
1007.01	211.07
1007.30	211.02
1007.59	211.00
1007.88	211.04
1008.17	211.08
1008.45	211.00
1008.74	210.97
1009.03	210.77
1009.32	210.77
1009.60	210.79
1009.89	210.71
1010.18	210.54
1010.47	210.52
1010.76	210.48
1011.04	210.47
1011.33	210.40
1011.62	210.48
1011.91	210.40
1012.19	210.31
1012.48	210.38
1012.77	210.40
1013.05	210.49
1013.34	210.49
1013.63	210.45
1013.92	210.41
1014.20	210.42
1014.49	210.37
1014.78	210.32
1015.06	210.33
1015.35	210.30
1015.64	210.33
1015.92	210.35
1016.21	210.37
1016.50	210.35
1016.78	210.47
1017.07	210.47
1017.36	210.42
1017.64	210.33
1017.93	210.41
1018.22	210.44
1018.50	210.36
1018.79	210.40
1019.08	210.31
1019.36	210.39
1019.65	210.33
1019.93	210.44
1020.22	210.44
1020.51	210.62
1020.79	210.65
1021.08	210.50
1021.36	209.95
1021.65	211.50
1021.94	209.75
1022.22	211.40
1022.51	209.25
1022.79	211.85
1023.08	211.20
1023.36	213.25
1023.65	210.20
>>>>>End Processed Spectral Data<<<<<
