SpectraSuite Data File
++++++++++++++++++++++++++++++++++++
Date: Mon Feb 25 17:31:33 EST 2013
User: group
Dark Spectrum Present: No
Reference Spectrum Present: No
Number of Sampled Component Spectra: 1
Spectrometers: USB2E7196
Integration Time (usec): 52000 (USB2E7196)
Spectra Averaged: 20 (USB2E7196)
Boxcar Smoothing: 10 (USB2E7196)
Correct for Electrical Dark: No (USB2E7196)
Strobe/Lamp Enabled: No (USB2E7196)
Correct for Detector Non-linearity: No (USB2E7196)
Correct for Stray Light: No (USB2E7196)
Number of Pixels in Processed Spectrum: 2048
>>>>>Begin Processed Spectral Data<<<<<
339.09	0.00
339.48	198.20
339.86	200.75
340.24	202.05
340.63	203.00
341.01	207.55
341.39	205.70
341.78	206.90
342.16	208.70
342.54	208.30
342.93	198.34
343.31	208.37
343.69	208.95
344.07	209.39
344.46	209.78
344.84	210.16
345.22	210.29
345.60	210.63
345.99	210.84
346.37	211.02
346.75	211.20
347.13	211.26
347.52	211.27
347.90	211.39
348.28	211.39
348.66	211.40
349.05	211.35
349.43	211.40
349.81	211.49
350.19	211.60
350.57	211.62
350.96	211.66
351.34	211.75
351.72	211.81
352.10	211.91
352.48	212.00
352.87	212.04
353.25	212.14
353.63	212.10
354.01	212.12
354.39	212.11
354.77	212.21
355.15	212.32
355.54	212.35
355.92	212.39
356.30	212.44
356.68	212.69
357.06	212.79
357.44	212.83
357.82	212.89
358.20	212.91
358.58	212.97
358.97	213.05
359.35	213.14
359.73	213.28
360.11	213.34
360.49	213.41
360.87	213.53
361.25	213.58
361.63	213.71
362.01	213.87
362.39	213.94
362.77	213.93
363.15	213.94
363.53	214.01
363.91	214.00
364.29	214.08
364.67	213.91
365.05	213.93
365.43	214.01
365.81	214.09
366.19	214.25
366.57	214.30
366.95	214.28
367.33	214.22
367.71	214.26
368.09	214.36
368.47	214.34
368.85	214.29
369.23	214.37
369.61	214.30
369.99	214.33
370.37	214.36
370.75	214.43
371.13	214.38
371.51	214.34
371.89	214.33
372.27	214.23
372.65	214.24
373.03	214.18
373.41	214.14
373.78	213.97
374.16	213.82
374.54	213.82
374.92	213.76
375.30	213.77
375.68	213.61
376.06	213.49
376.44	213.47
376.82	213.43
377.19	213.32
377.57	213.25
377.95	213.16
378.33	213.00
378.71	212.85
379.09	212.82
379.47	212.72
379.84	212.73
380.22	212.70
380.60	212.54
380.98	212.50
381.36	212.41
381.73	212.37
382.11	212.37
382.49	212.23
382.87	212.21
383.25	212.17
383.62	212.37
384.00	212.30
384.38	212.25
384.76	212.27
385.13	212.30
385.51	212.23
385.89	212.12
386.27	212.16
386.64	212.21
387.02	212.11
387.40	212.17
387.78	212.10
388.15	212.05
388.53	212.03
388.91	211.99
389.29	211.95
389.66	212.00
390.04	212.02
390.42	212.04
390.79	212.02
391.17	211.97
391.55	211.70
391.92	211.73
392.30	211.70
392.68	211.67
393.05	211.65
393.43	211.69
393.81	211.75
394.18	211.71
394.56	211.67
394.94	211.78
395.31	211.70
395.69	211.75
396.06	211.75
396.44	211.82
396.82	211.81
397.19	211.91
397.57	211.85
397.95	211.81
398.32	211.76
398.70	211.77
399.07	211.83
399.45	211.95
399.82	211.95
400.20	211.99
400.58	212.02
400.95	212.02
401.33	212.12
401.70	212.21
402.08	212.27
402.45	212.30
402.83	212.40
403.20	212.56
403.58	212.65
403.95	212.81
404.33	212.89
404.71	213.00
405.08	213.22
405.46	213.38
405.83	213.54
406.21	213.68
406.58	213.81
406.96	213.97
407.33	214.12
407.70	214.36
408.08	214.68
408.45	214.93
408.83	215.19
409.20	215.45
409.58	215.60
409.95	215.87
410.33	216.14
410.70	216.38
411.08	216.66
411.45	216.96
411.82	217.31
412.20	217.72
412.57	218.25
412.95	218.56
413.32	219.12
413.69	219.65
414.07	220.25
414.44	220.87
414.82	221.42
415.19	222.09
415.56	222.84
415.94	223.52
416.31	224.42
416.68	225.35
417.06	226.27
417.43	227.24
417.81	228.38
418.18	229.51
418.55	230.70
418.93	231.95
419.30	233.33
419.67	234.68
420.04	236.14
420.42	237.56
420.79	239.35
421.16	241.03
421.54	242.78
421.91	244.58
422.28	246.44
422.66	248.51
423.03	250.57
423.40	252.55
423.77	254.73
424.15	256.81
424.52	259.06
424.89	261.51
425.26	263.90
425.64	266.16
426.01	268.68
426.38	271.25
426.75	273.94
427.13	276.70
427.50	279.65
427.87	282.57
428.24	285.67
428.61	288.57
428.99	291.80
429.36	295.25
429.73	298.68
430.10	302.08
430.47	305.57
430.85	309.21
431.22	313.10
431.59	317.20
431.96	321.23
432.33	325.49
432.70	329.68
433.08	334.61
433.45	339.11
433.82	343.80
434.19	348.97
434.56	354.03
434.93	358.78
435.30	363.43
435.68	368.63
436.05	373.72
436.42	378.74
436.79	383.30
437.16	388.23
437.53	393.54
437.90	398.81
438.27	403.81
438.64	409.10
439.01	413.93
439.38	418.33
439.75	422.54
440.13	427.31
440.50	431.85
440.87	435.61
441.24	439.49
441.61	443.64
441.98	446.55
442.35	449.92
442.72	453.51
443.09	457.08
443.46	459.19
443.83	460.45
444.20	461.72
444.57	463.49
444.94	464.33
445.31	465.05
445.68	465.79
446.05	466.17
446.42	465.40
446.79	464.60
447.16	463.77
447.53	463.11
447.90	460.90
448.27	458.75
448.64	455.69
449.01	453.53
449.37	449.83
449.74	446.47
450.11	442.49
450.48	437.96
450.85	433.26
451.22	429.38
451.59	425.81
451.96	422.12
452.33	417.41
452.70	413.10
453.07	407.99
453.43	402.77
453.80	397.76
454.17	393.12
454.54	388.73
454.91	383.83
455.28	379.11
455.65	374.86
456.02	370.65
456.38	366.96
456.75	362.45
457.12	358.64
457.49	354.79
457.86	351.08
458.23	347.94
458.59	344.63
458.96	341.15
459.33	338.06
459.70	334.97
460.07	332.41
460.43	329.63
460.80	327.00
461.17	324.74
461.54	322.35
461.91	320.10
462.27	317.64
462.64	315.76
463.01	313.55
463.38	311.48
463.74	309.26
464.11	307.37
464.48	305.74
464.85	304.05
465.21	302.78
465.58	301.37
465.95	299.62
466.32	298.17
466.68	296.76
467.05	295.27
467.42	293.93
467.78	292.56
468.15	291.23
468.52	290.25
468.88	288.90
469.25	287.69
469.62	286.77
469.98	285.89
470.35	284.91
470.72	284.05
471.08	283.03
471.45	282.26
471.82	281.56
472.18	280.75
472.55	280.15
472.92	279.39
473.28	278.71
473.65	278.16
474.02	277.57
474.38	277.16
474.75	276.91
475.11	276.48
475.48	276.20
475.85	275.96
476.21	275.74
476.58	275.58
476.94	275.59
477.31	275.42
477.67	275.39
478.04	275.46
478.41	275.65
478.77	276.01
479.14	276.16
479.50	276.45
479.87	276.78
480.23	277.19
480.60	277.61
480.96	278.14
481.33	278.83
481.69	279.50
482.06	280.16
482.42	280.82
482.79	281.62
483.15	282.52
483.52	283.56
483.88	284.45
484.25	285.48
484.61	286.55
484.98	287.69
485.34	288.96
485.71	290.27
486.07	291.60
486.44	292.85
486.80	294.41
487.17	295.99
487.53	297.83
487.90	299.55
488.26	301.47
488.62	303.39
488.99	305.49
489.35	307.62
489.72	309.89
490.08	312.23
490.44	314.65
490.81	317.28
491.17	319.85
491.54	322.81
491.90	325.79
492.26	328.89
492.63	332.24
492.99	335.65
493.36	339.26
493.72	343.16
494.08	347.31
494.45	351.64
494.81	356.25
495.17	360.78
495.54	365.77
495.90	370.76
496.26	376.05
496.63	381.50
496.99	387.23
497.35	393.06
497.72	399.28
498.08	405.85
498.44	412.50
498.80	419.67
499.17	427.01
499.53	434.66
499.89	442.75
500.26	450.98
500.62	459.33
500.98	468.17
501.34	477.09
501.71	486.44
502.07	496.14
502.43	505.97
502.79	516.20
503.16	526.74
503.52	537.58
503.88	548.82
504.24	560.23
504.60	572.03
504.97	584.57
505.33	597.14
505.69	610.30
506.05	623.70
506.41	637.14
506.78	650.85
507.14	664.91
507.50	679.44
507.86	694.32
508.22	709.64
508.59	724.96
508.95	741.04
509.31	757.30
509.67	773.76
510.03	790.68
510.39	808.08
510.75	825.70
511.12	843.78
511.48	862.00
511.84	880.63
512.20	899.36
512.56	918.34
512.92	937.71
513.28	957.06
513.64	976.76
514.00	996.84
514.37	1017.02
514.73	1037.88
515.09	1058.19
515.45	1078.82
515.81	1099.78
516.17	1120.96
516.53	1142.01
516.89	1163.49
517.25	1184.87
517.61	1206.28
517.97	1227.66
518.33	1248.91
518.69	1270.49
519.05	1292.40
519.41	1314.47
519.77	1336.92
520.13	1358.79
520.49	1380.61
520.85	1403.27
521.21	1425.42
521.57	1448.18
521.93	1470.00
522.29	1492.32
522.65	1515.00
523.01	1537.19
523.37	1558.98
523.73	1581.05
524.09	1603.20
524.45	1625.20
524.81	1647.28
525.17	1669.47
525.53	1691.50
525.89	1713.63
526.25	1735.47
526.61	1756.65
526.97	1777.94
527.33	1798.83
527.68	1820.16
528.04	1841.10
528.40	1860.79
528.76	1881.52
529.12	1901.87
529.48	1923.33
529.84	1943.55
530.20	1963.55
530.56	1983.60
530.91	2004.30
531.27	2024.50
531.63	2044.00
531.99	2063.52
532.35	2082.45
532.71	2101.14
533.07	2120.72
533.42	2139.07
533.78	2157.83
534.14	2176.00
534.50	2193.14
534.86	2210.97
535.21	2227.62
535.57	2245.14
535.93	2262.78
536.29	2279.11
536.65	2295.44
537.00	2310.68
537.36	2325.84
537.72	2341.02
538.08	2356.33
538.44	2371.31
538.79	2386.38
539.15	2401.29
539.51	2415.45
539.87	2430.78
540.22	2444.94
540.58	2459.36
540.94	2473.66
541.29	2486.28
541.65	2498.49
542.01	2511.46
542.37	2523.05
542.72	2534.99
543.08	2545.95
543.44	2557.22
543.79	2567.42
544.15	2577.11
544.51	2587.79
544.87	2598.37
545.22	2607.10
545.58	2615.20
545.94	2622.33
546.29	2628.84
546.65	2634.83
547.01	2640.99
547.36	2646.57
547.72	2651.95
548.07	2655.66
548.43	2659.19
548.79	2662.66
549.14	2666.90
549.50	2670.86
549.86	2674.76
550.21	2678.80
550.57	2682.62
550.92	2685.25
551.28	2687.68
551.64	2690.26
551.99	2692.41
552.35	2693.95
552.70	2696.80
553.06	2699.71
553.41	2702.38
553.77	2704.84
554.13	2707.03
554.48	2709.01
554.84	2709.97
555.19	2710.54
555.55	2710.71
555.90	2711.40
556.26	2711.90
556.61	2711.75
556.97	2710.42
557.32	2709.65
557.68	2707.67
558.03	2705.90
558.39	2704.10
558.74	2703.73
559.10	2702.44
559.45	2700.47
559.81	2699.15
560.16	2696.29
560.52	2693.61
560.87	2690.57
561.23	2686.86
561.58	2684.34
561.94	2680.72
562.29	2676.94
562.64	2674.56
563.00	2672.15
563.35	2669.87
563.71	2668.14
564.06	2665.67
564.42	2663.59
564.77	2661.14
565.12	2659.55
565.48	2656.37
565.83	2653.14
566.19	2649.47
566.54	2645.01
566.89	2641.17
567.25	2637.26
567.60	2633.90
567.96	2629.66
568.31	2626.25
568.66	2622.51
569.02	2617.85
569.37	2612.76
569.72	2608.93
570.08	2603.79
570.43	2598.24
570.78	2592.14
571.14	2585.52
571.49	2578.98
571.84	2573.10
572.20	2566.39
572.55	2559.61
572.90	2552.95
573.26	2546.16
573.61	2539.18
573.96	2532.83
574.31	2525.16
574.67	2517.08
575.02	2508.68
575.37	2500.62
575.72	2491.42
576.08	2483.60
576.43	2474.90
576.78	2467.33
577.13	2459.50
577.49	2451.29
577.84	2443.55
578.19	2436.10
578.54	2428.98
578.90	2422.35
579.25	2413.72
579.60	2404.61
579.95	2395.12
580.30	2387.25
580.66	2379.38
581.01	2370.42
581.36	2361.31
581.71	2353.07
582.06	2344.90
582.42	2337.04
582.77	2328.08
583.12	2319.34
583.47	2310.81
583.82	2302.79
584.17	2293.63
584.53	2284.48
584.88	2275.94
585.23	2266.89
585.58	2257.65
585.93	2248.04
586.28	2238.95
586.63	2230.44
586.98	2222.44
587.34	2214.13
587.69	2205.19
588.04	2195.82
588.39	2187.84
588.74	2179.12
589.09	2170.43
589.44	2160.61
589.79	2152.18
590.14	2144.63
590.49	2136.60
590.84	2127.69
591.19	2119.70
591.54	2111.23
591.89	2101.45
592.25	2092.29
592.60	2083.07
592.95	2073.73
593.30	2064.41
593.65	2054.72
594.00	2045.08
594.35	2036.69
594.70	2028.09
595.05	2019.23
595.40	2010.89
595.75	2001.33
596.10	1993.20
596.45	1984.93
596.80	1977.57
597.15	1969.12
597.50	1959.73
597.85	1951.21
598.19	1942.97
598.54	1934.39
598.89	1926.61
599.24	1919.89
599.59	1912.40
599.94	1905.52
600.29	1898.07
600.64	1890.16
600.99	1882.17
601.34	1875.31
601.69	1866.70
602.04	1858.35
602.39	1850.51
602.74	1842.39
603.08	1835.68
603.43	1828.78
603.78	1820.63
604.13	1812.56
604.48	1804.75
604.83	1798.05
605.18	1791.34
605.53	1783.75
605.87	1776.07
606.22	1769.08
606.57	1760.94
606.92	1753.18
607.27	1745.08
607.62	1737.61
607.96	1731.03
608.31	1724.74
608.66	1716.80
609.01	1709.42
609.36	1701.94
609.70	1694.00
610.05	1686.57
610.40	1678.80
610.75	1670.29
611.10	1663.00
611.44	1654.02
611.79	1645.11
612.14	1635.88
612.49	1626.44
612.83	1617.91
613.18	1608.46
613.53	1599.11
613.88	1589.88
614.22	1581.09
614.57	1572.29
614.92	1563.05
615.27	1553.86
615.61	1543.97
615.96	1535.05
616.31	1526.67
616.65	1518.83
617.00	1510.62
617.35	1502.12
617.70	1493.12
618.04	1484.20
618.39	1474.92
618.74	1466.86
619.08	1458.24
619.43	1449.99
619.78	1442.34
620.12	1434.24
620.47	1426.69
620.82	1418.38
621.16	1410.23
621.51	1401.89
621.85	1393.52
622.20	1385.41
622.55	1376.87
622.89	1368.71
623.24	1360.89
623.59	1352.26
623.93	1343.74
624.28	1335.51
624.62	1327.51
624.97	1319.63
625.32	1311.71
625.66	1304.52
626.01	1297.33
626.35	1290.12
626.70	1282.57
627.04	1275.02
627.39	1267.71
627.73	1260.44
628.08	1253.50
628.43	1246.14
628.77	1238.66
629.12	1231.20
629.46	1224.44
629.81	1217.36
630.15	1210.38
630.50	1203.10
630.84	1196.06
631.19	1189.07
631.53	1182.52
631.88	1175.10
632.22	1167.69
632.57	1160.80
632.91	1153.31
633.26	1145.99
633.60	1139.01
633.95	1132.49
634.29	1125.26
634.64	1118.29
634.98	1111.48
635.32	1104.46
635.67	1098.05
636.01	1091.66
636.36	1084.90
636.70	1078.21
637.05	1071.83
637.39	1065.54
637.73	1059.37
638.08	1053.63
638.42	1047.81
638.77	1041.24
639.11	1034.85
639.45	1028.93
639.80	1022.53
640.14	1016.36
640.49	1010.17
640.83	1004.05
641.17	997.69
641.52	991.62
641.86	985.38
642.20	978.98
642.55	972.43
642.89	966.10
643.23	959.58
643.58	954.06
643.92	947.53
644.26	941.39
644.61	935.39
644.95	929.36
645.29	923.13
645.64	916.51
645.98	910.35
646.32	904.81
646.66	898.72
647.01	892.75
647.35	886.84
647.69	880.60
648.04	874.68
648.38	868.64
648.72	862.70
649.06	856.72
649.41	850.57
649.75	844.80
650.09	839.09
650.43	833.35
650.78	827.19
651.12	821.42
651.46	815.76
651.80	809.75
652.14	803.80
652.49	797.78
652.83	792.10
653.17	786.17
653.51	780.23
653.85	774.53
654.20	768.90
654.54	763.06
654.88	757.75
655.22	752.03
655.56	746.40
655.90	740.71
656.25	734.84
656.59	729.66
656.93	724.71
657.27	719.59
657.61	714.38
657.95	709.23
658.29	704.17
658.64	699.08
658.98	693.92
659.32	688.78
659.66	683.82
660.00	678.45
660.34	673.42
660.68	668.26
661.02	663.15
661.36	658.45
661.70	653.78
662.05	648.96
662.39	644.61
662.73	640.30
663.07	636.08
663.41	632.03
663.75	627.55
664.09	622.76
664.43	617.94
664.77	613.53
665.11	609.05
665.45	604.65
665.79	600.16
666.13	595.89
666.47	591.78
666.81	587.59
667.15	583.75
667.49	579.90
667.83	576.15
668.17	572.36
668.51	568.54
668.85	564.86
669.19	561.30
669.53	557.50
669.87	553.47
670.21	549.60
670.55	545.64
670.89	542.26
671.23	539.00
671.57	535.66
671.91	532.14
672.25	528.67
672.58	525.23
672.92	521.82
673.26	518.70
673.60	515.42
673.94	512.07
674.28	508.82
674.62	505.70
674.96	502.67
675.30	499.58
675.64	496.34
675.97	493.14
676.31	490.04
676.65	487.13
676.99	484.59
677.33	481.55
677.67	478.77
678.01	475.51
678.34	472.58
678.68	469.59
679.02	466.66
679.36	463.96
679.70	461.15
680.04	458.25
680.37	455.24
680.71	452.45
681.05	449.90
681.39	447.27
681.73	444.59
682.06	441.95
682.40	439.47
682.74	437.06
683.08	434.67
683.42	432.00
683.75	429.39
684.09	426.72
684.43	424.36
684.77	421.86
685.10	419.50
685.44	416.90
685.78	414.60
686.12	412.28
686.45	409.79
686.79	407.59
687.13	405.63
687.46	403.61
687.80	401.49
688.14	399.22
688.48	397.05
688.81	394.81
689.15	392.51
689.49	390.35
689.82	388.10
690.16	385.76
690.50	383.50
690.83	381.17
691.17	378.98
691.51	376.77
691.84	374.71
692.18	372.59
692.52	370.73
692.85	368.91
693.19	367.17
693.52	365.41
693.86	363.46
694.20	361.45
694.53	359.54
694.87	357.48
695.21	355.62
695.54	353.74
695.88	351.89
696.21	350.12
696.55	348.38
696.88	346.65
697.22	344.99
697.56	343.53
697.89	342.06
698.23	340.46
698.56	339.03
698.90	337.53
699.23	336.00
699.57	334.29
699.90	332.59
700.24	330.88
700.58	329.25
700.91	327.82
701.25	326.49
701.58	325.09
701.92	323.71
702.25	322.34
702.59	321.15
702.92	319.90
703.26	318.61
703.59	317.38
703.93	316.21
704.26	314.97
704.60	313.73
704.93	312.43
705.26	311.19
705.60	309.99
705.93	308.76
706.27	307.68
706.60	306.70
706.94	305.66
707.27	304.52
707.61	303.45
707.94	302.21
708.27	300.95
708.61	299.81
708.94	298.72
709.28	297.66
709.61	296.36
709.94	295.29
710.28	294.19
710.61	293.10
710.95	292.05
711.28	291.11
711.61	289.96
711.95	289.07
712.28	288.01
712.61	286.98
712.95	286.07
713.28	285.16
713.61	284.08
713.95	283.15
714.28	282.27
714.61	281.35
714.95	280.59
715.28	279.75
715.61	278.80
715.95	277.90
716.28	277.02
716.61	276.28
716.95	275.46
717.28	274.60
717.61	273.81
717.94	272.98
718.28	272.11
718.61	271.49
718.94	270.70
719.27	270.01
719.61	269.36
719.94	268.61
720.27	267.75
720.60	267.16
720.94	266.44
721.27	265.84
721.60	265.20
721.93	264.58
722.27	264.03
722.60	263.35
722.93	262.84
723.26	262.19
723.59	261.54
723.93	260.96
724.26	260.43
724.59	259.80
724.92	259.26
725.25	258.69
725.59	258.09
725.92	257.57
726.25	257.02
726.58	256.50
726.91	255.94
727.24	255.51
727.57	254.92
727.91	254.35
728.24	253.90
728.57	253.44
728.90	252.99
729.23	252.41
729.56	252.10
729.89	251.49
730.22	251.07
730.55	250.56
730.89	250.01
731.22	249.56
731.55	249.12
731.88	248.65
732.21	248.22
732.54	247.73
732.87	247.23
733.20	246.88
733.53	246.30
733.86	245.95
734.19	245.45
734.52	245.18
734.85	244.87
735.18	244.49
735.51	244.13
735.84	243.64
736.17	243.26
736.50	242.83
736.83	242.72
737.16	242.35
737.49	242.09
737.82	241.76
738.15	241.37
738.48	241.02
738.81	240.70
739.14	240.32
739.47	240.00
739.80	239.63
740.13	239.24
740.46	238.87
740.79	238.51
741.12	238.28
741.45	237.91
741.78	237.57
742.11	237.26
742.44	236.89
742.77	236.66
743.10	236.38
743.43	236.07
743.75	235.63
744.08	235.57
744.41	235.21
744.74	234.93
745.07	234.67
745.40	234.40
745.73	234.10
746.06	233.81
746.39	233.64
746.71	233.42
747.04	233.13
747.37	232.97
747.70	232.68
748.03	232.40
748.36	232.14
748.68	231.92
749.01	231.62
749.34	231.37
749.67	231.14
750.00	230.91
750.33	230.75
750.65	230.54
750.98	230.11
751.31	229.98
751.64	229.72
751.97	229.59
752.29	229.29
752.62	228.95
752.95	228.88
753.28	228.56
753.60	228.31
753.93	228.18
754.26	227.94
754.59	227.73
754.91	227.52
755.24	227.36
755.57	227.14
755.90	226.89
756.22	226.71
756.55	226.48
756.88	226.28
757.20	225.97
757.53	225.73
757.86	225.48
758.19	225.31
758.51	225.18
758.84	224.82
759.17	224.75
759.49	224.71
759.82	224.57
760.15	224.40
760.47	224.28
760.80	224.02
761.13	223.87
761.45	223.71
761.78	223.50
762.11	223.31
762.43	223.14
762.76	223.01
763.08	222.81
763.41	222.71
763.74	222.54
764.06	222.42
764.39	222.25
764.71	222.19
765.04	221.99
765.37	221.90
765.69	221.82
766.02	221.65
766.34	221.47
766.67	221.31
767.00	221.30
767.32	221.25
767.65	221.23
767.97	221.11
768.30	220.96
768.62	220.92
768.95	220.75
769.27	220.69
769.60	220.65
769.92	220.58
770.25	220.47
770.57	220.39
770.90	220.29
771.22	220.19
771.55	220.05
771.87	219.98
772.20	219.81
772.52	219.94
772.85	220.05
773.17	219.95
773.50	219.82
773.82	219.60
774.15	219.43
774.47	219.26
774.80	219.17
775.12	219.11
775.45	219.01
775.77	218.96
776.09	218.91
776.42	218.77
776.74	218.73
777.07	218.62
777.39	218.48
777.72	218.37
778.04	218.27
778.36	218.23
778.69	218.14
779.01	218.09
779.33	217.85
779.66	217.60
779.98	217.53
780.31	217.45
780.63	217.54
780.95	217.47
781.28	217.42
781.60	217.27
781.92	217.21
782.25	217.06
782.57	217.01
782.89	216.87
783.22	216.78
783.54	216.72
783.86	216.62
784.19	216.62
784.51	216.60
784.83	216.57
785.16	216.55
785.48	216.47
785.80	216.48
786.12	216.42
786.45	216.34
786.77	216.30
787.09	216.18
787.42	215.94
787.74	215.86
788.06	215.78
788.38	215.73
788.71	215.69
789.03	215.69
789.35	215.63
789.67	215.57
789.99	215.50
790.32	215.44
790.64	215.42
790.96	215.52
791.28	215.37
791.61	215.36
791.93	215.27
792.25	215.20
792.57	215.27
792.89	215.16
793.21	215.11
793.54	215.05
793.86	215.04
794.18	215.07
794.50	215.06
794.82	215.05
795.14	215.08
795.47	215.01
795.79	215.01
796.11	214.94
796.43	214.89
796.75	214.92
797.07	214.84
797.39	214.78
797.71	214.58
798.04	214.55
798.36	214.49
798.68	214.43
799.00	214.45
799.32	214.32
799.64	214.37
799.96	214.37
800.28	214.35
800.60	214.30
800.92	214.29
801.24	214.17
801.56	214.13
801.89	214.07
802.21	214.04
802.53	213.93
802.85	213.96
803.17	214.04
803.49	213.96
803.81	213.91
804.13	213.90
804.45	213.88
804.77	213.93
805.09	213.91
805.41	213.89
805.73	213.79
806.05	213.69
806.37	213.70
806.69	213.64
807.01	213.50
807.33	213.51
807.65	213.41
807.97	213.52
808.28	213.52
808.60	213.46
808.92	213.41
809.24	213.60
809.56	213.54
809.88	213.41
810.20	213.46
810.52	213.46
810.84	213.46
811.16	213.39
811.48	213.36
811.80	213.36
812.12	213.25
812.43	213.33
812.75	213.39
813.07	213.32
813.39	213.33
813.71	213.38
814.03	213.39
814.35	213.42
814.67	213.39
814.98	213.31
815.30	213.32
815.62	213.34
815.94	213.20
816.26	213.24
816.58	213.17
816.89	213.18
817.21	213.09
817.53	213.13
817.85	213.21
818.17	213.16
818.48	213.10
818.80	213.09
819.12	213.04
819.44	212.98
819.76	212.85
820.07	212.88
820.39	212.86
820.71	212.85
821.03	212.83
821.34	212.75
821.66	212.79
821.98	212.82
822.30	212.76
822.61	212.83
822.93	212.80
823.25	212.85
823.57	212.76
823.88	212.86
824.20	212.75
824.52	212.70
824.83	212.70
825.15	212.72
825.47	212.77
825.79	212.69
826.10	212.60
826.42	212.69
826.74	212.63
827.05	212.66
827.37	212.65
827.69	212.65
828.00	212.73
828.32	212.77
828.64	212.73
828.95	212.86
829.27	212.76
829.58	212.69
829.90	212.67
830.22	212.68
830.53	212.58
830.85	212.54
831.17	212.58
831.48	212.63
831.80	212.57
832.11	212.53
832.43	212.55
832.75	212.59
833.06	212.66
833.38	212.57
833.69	212.57
834.01	212.48
834.32	212.46
834.64	212.40
834.96	212.29
835.27	212.22
835.59	212.13
835.90	212.07
836.22	212.10
836.53	212.09
836.85	212.07
837.16	212.30
837.48	212.29
837.79	212.30
838.11	212.16
838.42	212.19
838.74	212.23
839.05	212.16
839.37	212.11
839.68	211.96
840.00	211.92
840.31	211.91
840.63	211.93
840.94	211.92
841.26	211.92
841.57	211.93
841.88	211.93
842.20	211.87
842.51	211.91
842.83	211.90
843.14	212.05
843.46	211.98
843.77	211.81
844.08	211.84
844.40	211.74
844.71	211.81
845.03	211.81
845.34	211.85
845.65	211.92
845.97	211.98
846.28	212.01
846.60	212.08
846.91	212.10
847.22	212.18
847.54	212.16
847.85	212.10
848.16	212.10
848.48	212.18
848.79	212.29
849.10	212.25
849.42	212.23
849.73	212.00
850.04	212.14
850.36	212.09
850.67	212.07
850.98	212.05
851.30	212.09
851.61	212.04
851.92	211.96
852.23	211.96
852.55	211.95
852.86	211.99
853.17	212.00
853.49	211.98
853.80	211.95
854.11	211.98
854.42	212.03
854.74	212.03
855.05	212.01
855.36	211.93
855.67	211.98
855.99	212.01
856.30	212.28
856.61	212.21
856.92	212.28
857.23	212.30
857.55	212.25
857.86	212.20
858.17	212.31
858.48	212.25
858.79	212.29
859.11	212.24
859.42	212.18
859.73	212.08
860.04	212.09
860.35	212.08
860.66	211.93
860.98	211.90
861.29	211.86
861.60	211.82
861.91	211.80
862.22	211.68
862.53	211.60
862.84	211.35
863.16	211.45
863.47	211.34
863.78	211.32
864.09	211.36
864.40	211.33
864.71	211.26
865.02	211.33
865.33	211.24
865.64	211.20
865.95	211.19
866.27	211.32
866.58	211.31
866.89	211.31
867.20	211.36
867.51	211.37
867.82	211.32
868.13	211.30
868.44	211.27
868.75	211.33
869.06	211.32
869.37	211.32
869.68	211.20
869.99	211.18
870.30	211.22
870.61	211.23
870.92	211.30
871.23	211.19
871.54	211.21
871.85	211.27
872.16	211.28
872.47	211.26
872.78	211.15
873.09	211.11
873.40	211.08
873.71	211.14
874.02	211.13
874.33	211.14
874.64	211.08
874.95	211.15
875.26	211.18
875.56	211.18
875.87	211.15
876.18	211.14
876.49	211.35
876.80	211.30
877.11	211.25
877.42	211.19
877.73	211.28
878.04	211.22
878.35	211.16
878.66	211.16
878.96	211.15
879.27	211.17
879.58	211.10
879.89	211.11
880.20	211.12
880.51	211.15
880.82	211.17
881.12	211.21
881.43	211.18
881.74	211.16
882.05	211.18
882.36	211.24
882.67	211.19
882.97	211.01
883.28	211.01
883.59	210.92
883.90	210.94
884.21	210.93
884.51	210.93
884.82	210.97
885.13	210.97
885.44	210.97
885.74	211.00
886.05	211.04
886.36	211.00
886.67	210.92
886.98	210.90
887.28	210.93
887.59	211.00
887.90	210.98
888.20	210.92
888.51	211.01
888.82	210.94
889.13	210.99
889.43	211.13
889.74	211.11
890.05	211.25
890.35	211.25
890.66	211.24
890.97	211.23
891.28	211.19
891.58	211.17
891.89	211.15
892.20	211.10
892.50	211.11
892.81	211.12
893.12	211.15
893.42	211.12
893.73	211.07
894.04	211.00
894.34	211.06
894.65	211.09
894.95	210.99
895.26	211.04
895.57	211.16
895.87	211.05
896.18	211.09
896.48	211.10
896.79	211.13
897.10	211.18
897.40	211.13
897.71	211.18
898.01	211.26
898.32	211.31
898.63	211.32
898.93	211.34
899.24	211.29
899.54	211.30
899.85	211.24
900.15	211.31
900.46	211.32
900.76	211.24
901.07	211.26
901.38	211.25
901.68	211.36
901.99	211.18
902.29	211.17
902.60	211.15
902.90	211.08
903.21	211.03
903.51	210.99
903.82	211.04
904.12	211.03
904.43	210.93
904.73	210.91
905.03	210.93
905.34	211.17
905.64	211.17
905.95	211.18
906.25	211.23
906.56	211.15
906.86	211.25
907.17	211.28
907.47	211.22
907.77	211.22
908.08	211.06
908.38	211.10
908.69	211.12
908.99	211.15
909.30	211.14
909.60	211.14
909.90	211.18
910.21	211.17
910.51	211.13
910.81	211.19
911.12	211.20
911.42	211.16
911.73	210.95
912.03	210.97
912.33	211.03
912.64	210.98
912.94	211.05
913.24	210.92
913.55	210.95
913.85	210.94
914.15	210.96
914.46	211.02
914.76	211.03
915.06	211.00
915.37	210.95
915.67	210.95
915.97	210.92
916.27	210.85
916.58	210.84
916.88	210.82
917.18	210.82
917.49	210.97
917.79	210.95
918.09	210.92
918.39	210.97
918.70	210.90
919.00	210.95
919.30	211.01
919.60	211.07
919.91	211.03
920.21	211.09
920.51	211.08
920.81	211.09
921.12	211.12
921.42	211.10
921.72	211.08
922.02	211.10
922.32	211.18
922.63	211.16
922.93	211.27
923.23	211.35
923.53	211.28
923.83	211.14
924.13	211.21
924.44	211.22
924.74	211.22
925.04	211.31
925.34	211.26
925.64	211.20
925.94	211.10
926.24	211.25
926.55	211.26
926.85	211.30
927.15	211.25
927.45	211.27
927.75	211.25
928.05	211.27
928.35	211.25
928.65	211.29
928.95	211.37
929.26	211.29
929.56	211.27
929.86	211.33
930.16	211.35
930.46	211.25
930.76	211.32
931.06	211.24
931.36	211.19
931.66	211.28
931.96	211.33
932.26	211.40
932.56	211.25
932.86	211.20
933.16	211.18
933.46	211.17
933.76	211.15
934.06	211.32
934.36	211.47
934.66	211.45
934.96	211.47
935.26	211.45
935.56	211.55
935.86	211.55
936.16	211.57
936.46	211.54
936.76	211.69
937.06	211.59
937.36	211.68
937.66	211.68
937.96	211.70
938.26	211.58
938.56	211.63
938.86	211.67
939.16	211.74
939.46	211.78
939.76	211.80
940.06	211.82
940.35	211.74
940.65	211.62
940.95	211.70
941.25	211.64
941.55	211.65
941.85	211.64
942.15	211.70
942.45	211.74
942.75	211.76
943.04	211.71
943.34	211.76
943.64	211.70
943.94	211.70
944.24	211.66
944.54	211.73
944.84	211.66
945.13	211.64
945.43	211.61
945.73	211.55
946.03	211.60
946.33	211.58
946.62	211.51
946.92	211.43
947.22	211.44
947.52	211.46
947.82	211.49
948.11	211.40
948.41	211.30
948.71	211.22
949.01	211.20
949.31	211.16
949.60	211.10
949.90	211.07
950.20	211.07
950.50	211.06
950.79	211.05
951.09	211.03
951.39	211.02
951.69	211.04
951.98	211.06
952.28	211.00
952.58	211.00
952.87	210.98
953.17	211.02
953.47	210.94
953.76	210.92
954.06	210.89
954.36	210.92
954.66	210.98
954.95	211.01
955.25	210.97
955.55	210.98
955.84	210.97
956.14	211.03
956.44	211.00
956.73	210.99
957.03	210.95
957.32	211.05
957.62	210.98
957.92	210.98
958.21	211.01
958.51	211.21
958.81	211.20
959.10	211.29
959.40	211.34
959.69	211.42
959.99	211.39
960.29	211.32
960.58	211.21
960.88	211.21
961.17	211.16
961.47	211.26
961.76	211.21
962.06	211.23
962.36	211.20
962.65	211.23
962.95	211.17
963.24	211.20
963.54	211.11
963.83	211.18
964.13	211.18
964.42	211.11
964.72	211.00
965.01	211.00
965.31	210.89
965.60	210.82
965.90	210.88
966.19	210.86
966.49	210.89
966.78	210.98
967.08	210.97
967.37	211.00
967.67	210.97
967.96	211.04
968.26	211.09
968.55	211.08
968.85	211.06
969.14	211.12
969.43	211.05
969.73	211.07
970.02	211.08
970.32	211.07
970.61	211.11
970.91	211.11
971.20	211.11
971.49	211.14
971.79	211.23
972.08	211.15
972.38	211.15
972.67	211.17
972.96	211.20
973.26	211.15
973.55	211.20
973.85	211.17
974.14	211.16
974.43	211.12
974.73	211.12
975.02	211.12
975.31	211.16
975.61	211.21
975.90	211.22
976.19	211.23
976.49	211.23
976.78	211.20
977.07	211.10
977.37	211.11
977.66	211.18
977.95	211.13
978.24	211.10
978.54	211.15
978.83	211.14
979.12	211.06
979.42	211.10
979.71	211.06
980.00	211.08
980.29	211.09
980.59	211.12
980.88	211.22
981.17	211.28
981.46	211.24
981.76	211.19
982.05	211.23
982.34	211.23
982.63	211.20
982.93	211.21
983.22	211.31
983.51	211.30
983.80	211.32
984.09	211.39
984.39	211.37
984.68	211.38
984.97	211.36
985.26	211.35
985.55	211.41
985.85	211.33
986.14	211.37
986.43	211.35
986.72	211.30
987.01	211.22
987.30	211.17
987.59	211.18
987.89	211.25
988.18	211.16
988.47	211.08
988.76	211.12
989.05	211.08
989.34	210.96
989.63	211.04
989.92	210.96
990.22	210.85
990.51	210.87
990.80	210.84
991.09	210.86
991.38	210.92
991.67	210.79
991.96	210.86
992.25	210.81
992.54	210.76
992.83	210.78
993.12	210.77
993.41	210.76
993.70	210.83
993.99	210.82
994.28	210.86
994.58	210.99
994.87	210.91
995.16	211.00
995.45	211.02
995.74	210.92
996.03	210.94
996.32	210.97
996.61	211.04
996.90	210.99
997.19	210.94
997.48	210.93
997.77	210.93
998.06	210.83
998.34	210.79
998.63	210.81
998.92	210.86
999.21	210.92
999.50	210.92
999.79	210.78
1000.08	210.79
1000.37	210.82
1000.66	210.77
1000.95	210.79
1001.24	210.75
1001.53	210.81
1001.82	210.82
1002.11	210.83
1002.40	210.88
1002.68	210.87
1002.97	211.04
1003.26	211.05
1003.55	210.99
1003.84	211.01
1004.13	211.15
1004.42	211.24
1004.71	211.25
1004.99	211.23
1005.28	211.18
1005.57	211.27
1005.86	211.31
1006.15	211.26
1006.44	211.26
1006.72	211.23
1007.01	211.25
1007.30	211.21
1007.59	211.19
1007.88	211.21
1008.17	211.18
1008.45	211.16
1008.74	211.10
1009.03	211.04
1009.32	211.08
1009.60	211.07
1009.89	211.05
1010.18	211.00
1010.47	210.89
1010.76	210.90
1011.04	210.87
1011.33	210.93
1011.62	210.86
1011.91	210.86
1012.19	210.87
1012.48	210.80
1012.77	210.79
1013.05	210.83
1013.34	210.86
1013.63	210.82
1013.92	210.86
1014.20	210.88
1014.49	210.89
1014.78	210.96
1015.06	210.84
1015.35	210.75
1015.64	210.85
1015.92	210.92
1016.21	210.92
1016.50	210.95
1016.78	210.96
1017.07	210.97
1017.36	210.91
1017.64	210.88
1017.93	210.91
1018.22	210.96
1018.50	211.01
1018.79	211.04
1019.08	211.01
1019.36	211.02
1019.65	211.01
1019.93	210.98
1020.22	211.04
1020.51	211.11
1020.79	211.06
1021.08	211.70
1021.36	210.40
1021.65	211.50
1021.94	211.15
1022.22	210.85
1022.51	210.75
1022.79	211.30
1023.08	211.85
1023.36	213.35
1023.65	210.90
>>>>>End Processed Spectral Data<<<<<
