SpectraSuite Data File
++++++++++++++++++++++++++++++++++++
Date: Mon Feb 25 17:35:33 EST 2013
User: group
Dark Spectrum Present: No
Reference Spectrum Present: No
Number of Sampled Component Spectra: 1
Spectrometers: USB2E7196
Integration Time (usec): 52000 (USB2E7196)
Spectra Averaged: 20 (USB2E7196)
Boxcar Smoothing: 10 (USB2E7196)
Correct for Electrical Dark: No (USB2E7196)
Strobe/Lamp Enabled: No (USB2E7196)
Correct for Detector Non-linearity: No (USB2E7196)
Correct for Stray Light: No (USB2E7196)
Number of Pixels in Processed Spectrum: 2048
>>>>>Begin Processed Spectral Data<<<<<
339.09	0.00
339.48	198.10
339.86	201.00
340.24	202.00
340.63	203.20
341.01	206.35
341.39	205.35
341.78	207.05
342.16	209.15
342.54	209.95
342.93	198.27
343.31	208.29
343.69	208.87
344.07	209.31
344.46	209.78
344.84	210.22
345.22	210.43
345.60	210.73
345.99	210.96
346.37	211.04
346.75	211.07
347.13	211.13
347.52	211.18
347.90	211.31
348.28	211.31
348.66	211.43
349.05	211.37
349.43	211.27
349.81	211.31
350.19	211.40
350.57	211.43
350.96	211.46
351.34	211.56
351.72	211.65
352.10	211.75
352.48	211.79
352.87	211.76
353.25	211.81
353.63	211.87
354.01	211.89
354.39	212.01
354.77	212.10
355.15	212.24
355.54	212.28
355.92	212.31
356.30	212.41
356.68	212.54
357.06	212.66
357.44	212.69
357.82	212.73
358.20	212.80
358.58	212.88
358.97	212.97
359.35	213.01
359.73	213.14
360.11	213.17
360.49	213.22
360.87	213.23
361.25	213.26
361.63	213.30
362.01	213.33
362.39	213.25
362.77	213.29
363.15	213.34
363.53	213.34
363.91	213.31
364.29	213.30
364.67	213.14
365.05	213.12
365.43	213.17
365.81	213.26
366.19	213.30
366.57	213.34
366.95	213.30
367.33	213.24
367.71	213.14
368.09	213.18
368.47	213.13
368.85	213.18
369.23	213.23
369.61	213.20
369.99	213.25
370.37	213.37
370.75	213.45
371.13	213.26
371.51	213.21
371.89	213.19
372.27	213.20
372.65	213.24
373.03	213.23
373.41	213.20
373.78	213.15
374.16	213.04
374.54	212.98
374.92	212.95
375.30	212.96
375.68	212.89
376.06	212.86
376.44	212.80
376.82	212.76
377.19	212.72
377.57	212.61
377.95	212.54
378.33	212.41
378.71	212.21
379.09	212.27
379.47	212.22
379.84	212.25
380.22	212.16
380.60	212.06
380.98	211.93
381.36	211.92
381.73	211.85
382.11	211.84
382.49	211.79
382.87	211.74
383.25	211.70
383.62	211.82
384.00	211.78
384.38	211.75
384.76	211.74
385.13	211.80
385.51	211.85
385.89	211.80
386.27	211.77
386.64	211.82
387.02	211.80
387.40	211.81
387.78	211.75
388.15	211.77
388.53	211.79
388.91	211.80
389.29	211.73
389.66	211.78
390.04	211.74
390.42	211.77
390.79	211.74
391.17	211.77
391.55	211.67
391.92	211.64
392.30	211.68
392.68	211.62
393.05	211.57
393.43	211.54
393.81	211.49
394.18	211.46
394.56	211.47
394.94	211.52
395.31	211.48
395.69	211.50
396.06	211.52
396.44	211.50
396.82	211.52
397.19	211.65
397.57	211.62
397.95	211.73
398.32	211.70
398.70	211.80
399.07	211.82
399.45	211.84
399.82	211.94
400.20	211.93
400.58	212.02
400.95	212.01
401.33	212.17
401.70	212.38
402.08	212.45
402.45	212.52
402.83	212.63
403.20	212.73
403.58	212.75
403.95	212.89
404.33	212.99
404.71	213.13
405.08	213.29
405.46	213.40
405.83	213.38
406.21	213.54
406.58	213.60
406.96	213.82
407.33	214.01
407.70	214.10
408.08	214.51
408.45	214.72
408.83	215.01
409.20	215.15
409.58	215.35
409.95	215.72
410.33	215.92
410.70	216.20
411.08	216.62
411.45	217.10
411.82	217.45
412.20	217.92
412.57	218.40
412.95	218.71
413.32	219.30
413.69	219.89
414.07	220.45
414.44	221.19
414.82	221.77
415.19	222.50
415.56	223.24
415.94	223.97
416.31	224.87
416.68	225.69
417.06	226.77
417.43	227.72
417.81	228.78
418.18	230.00
418.55	231.16
418.93	232.48
419.30	233.80
419.67	235.13
420.04	236.54
420.42	238.04
420.79	239.94
421.16	241.56
421.54	243.43
421.91	245.32
422.28	247.26
422.66	249.38
423.03	251.42
423.40	253.55
423.77	255.74
424.15	258.02
424.52	260.45
424.89	262.94
425.26	265.35
425.64	267.65
426.01	270.24
426.38	273.04
426.75	275.71
427.13	278.49
427.50	281.55
427.87	284.72
428.24	287.83
428.61	290.69
428.99	294.02
429.36	297.54
429.73	301.08
430.10	304.46
430.47	308.05
430.85	311.71
431.22	315.70
431.59	320.00
431.96	323.95
432.33	328.34
432.70	332.66
433.08	337.74
433.45	342.43
433.82	347.15
434.19	352.25
434.56	357.37
434.93	362.25
435.30	367.00
435.68	372.32
436.05	377.58
436.42	382.81
436.79	387.55
437.16	392.54
437.53	397.77
437.90	403.13
438.27	408.28
438.64	413.67
439.01	418.66
439.38	422.86
439.75	427.21
440.13	432.07
440.50	436.49
440.87	440.18
441.24	444.16
441.61	448.45
441.98	451.59
442.35	455.18
442.72	458.76
443.09	462.39
443.46	464.45
443.83	465.82
444.20	467.00
444.57	468.82
444.94	469.65
445.31	470.63
445.68	471.31
446.05	471.52
446.42	470.92
446.79	470.12
447.16	469.32
447.53	468.56
447.90	466.29
448.27	464.34
448.64	461.41
449.01	459.20
449.37	455.44
449.74	451.87
450.11	447.67
450.48	443.23
450.85	438.49
451.22	434.47
451.59	430.69
451.96	427.05
452.33	422.26
452.70	417.95
453.07	412.74
453.43	407.52
453.80	402.40
454.17	397.58
454.54	393.04
454.91	388.23
455.28	383.50
455.65	379.17
456.02	374.77
456.38	371.02
456.75	366.37
457.12	362.52
457.49	358.55
457.86	354.72
458.23	351.50
458.59	347.93
458.96	344.36
459.33	341.08
459.70	337.86
460.07	335.30
460.43	332.32
460.80	329.55
461.17	327.14
461.54	324.72
461.91	322.30
462.27	319.90
462.64	317.86
463.01	315.61
463.38	313.53
463.74	311.26
464.11	309.32
464.48	307.62
464.85	305.89
465.21	304.60
465.58	303.18
465.95	301.34
466.32	299.94
466.68	298.53
467.05	297.21
467.42	295.85
467.78	294.37
468.15	293.05
468.52	292.00
468.88	290.68
469.25	289.50
469.62	288.59
469.98	287.53
470.35	286.57
470.72	285.66
471.08	284.61
471.45	283.84
471.82	283.12
472.18	282.27
472.55	281.67
472.92	280.89
473.28	280.30
473.65	279.72
474.02	279.10
474.38	278.65
474.75	278.30
475.11	277.89
475.48	277.67
475.85	277.48
476.21	277.23
476.58	277.09
476.94	277.05
477.31	276.93
477.67	276.88
478.04	276.95
478.41	277.03
478.77	277.30
479.14	277.42
479.50	277.57
479.87	277.97
480.23	278.29
480.60	278.62
480.96	279.05
481.33	279.73
481.69	280.40
482.06	281.14
482.42	281.75
482.79	282.55
483.15	283.40
483.52	284.33
483.88	285.35
484.25	286.43
484.61	287.55
484.98	288.67
485.34	289.93
485.71	291.20
486.07	292.66
486.44	294.05
486.80	295.58
487.17	297.20
487.53	298.90
487.90	300.74
488.26	302.79
488.62	304.82
488.99	306.85
489.35	309.07
489.72	311.33
490.08	313.81
490.44	316.11
490.81	318.73
491.17	321.35
491.54	324.26
491.90	327.13
492.26	330.36
492.63	333.78
492.99	337.30
493.36	340.95
493.72	344.85
494.08	348.92
494.45	353.21
494.81	357.74
495.17	362.37
495.54	367.17
495.90	372.24
496.26	377.44
496.63	382.84
496.99	388.63
497.35	394.62
497.72	400.83
498.08	407.53
498.44	414.23
498.80	421.46
499.17	428.83
499.53	436.61
499.89	444.55
500.26	452.67
500.62	460.99
500.98	469.83
501.34	478.90
501.71	488.32
502.07	498.04
502.43	508.08
502.79	518.43
503.16	529.22
503.52	540.04
503.88	551.42
504.24	563.08
504.60	574.94
504.97	587.24
505.33	599.78
505.69	613.22
506.05	626.72
506.41	640.30
506.78	654.10
507.14	668.40
507.50	682.95
507.86	697.94
508.22	713.36
508.59	728.95
508.95	744.99
509.31	761.17
509.67	777.99
510.03	795.00
510.39	812.53
510.75	830.24
511.12	848.31
511.48	866.59
511.84	885.37
512.20	904.23
512.56	923.41
512.92	942.90
513.28	962.20
513.64	982.18
514.00	1002.33
514.37	1023.07
514.73	1043.94
515.09	1064.86
515.45	1085.79
515.81	1107.15
516.17	1128.61
516.53	1149.88
516.89	1171.65
517.25	1193.17
517.61	1214.95
517.97	1236.38
518.33	1257.92
518.69	1279.65
519.05	1301.99
519.41	1323.99
519.77	1346.62
520.13	1368.93
520.49	1391.40
520.85	1414.20
521.21	1436.78
521.57	1459.75
521.93	1481.81
522.29	1504.75
522.65	1527.71
523.01	1550.56
523.37	1572.86
523.73	1595.58
524.09	1618.11
524.45	1640.65
524.81	1663.44
525.17	1685.97
525.53	1708.93
525.89	1731.56
526.25	1754.24
526.61	1775.41
526.97	1797.79
527.33	1819.38
527.68	1841.35
528.04	1862.80
528.40	1883.35
528.76	1904.34
529.12	1925.44
529.48	1947.29
529.84	1967.80
530.20	1988.16
530.56	2008.66
530.91	2029.80
531.27	2050.24
531.63	2070.73
531.99	2090.76
532.35	2110.40
532.71	2129.56
533.07	2149.12
533.42	2168.06
533.78	2187.13
534.14	2206.18
534.50	2223.58
534.86	2241.62
535.21	2258.09
535.57	2276.03
535.93	2293.88
536.29	2310.86
536.65	2327.55
537.00	2342.85
537.36	2358.20
537.72	2373.76
538.08	2389.14
538.44	2404.44
538.79	2419.94
539.15	2434.95
539.51	2450.00
539.87	2465.03
540.22	2479.81
540.58	2495.02
540.94	2509.84
541.29	2522.66
541.65	2535.15
542.01	2548.86
542.37	2561.03
542.72	2574.15
543.08	2585.27
543.44	2597.40
543.79	2607.90
544.15	2618.61
544.51	2630.30
544.87	2641.98
545.22	2651.60
545.58	2660.63
545.94	2668.19
546.29	2674.97
546.65	2681.22
547.01	2687.31
547.36	2693.46
547.72	2699.20
548.07	2702.75
548.43	2706.46
548.79	2710.87
549.14	2715.73
549.50	2720.00
549.86	2724.46
550.21	2728.74
550.57	2733.50
550.92	2736.29
551.28	2739.58
551.64	2742.04
551.99	2744.78
552.35	2746.52
552.70	2748.92
553.06	2751.85
553.41	2754.51
553.77	2757.65
554.13	2760.40
554.48	2762.55
554.84	2764.07
555.19	2764.81
555.55	2766.24
555.90	2767.13
556.26	2767.81
556.61	2768.20
556.97	2766.91
557.32	2766.46
557.68	2764.80
558.03	2763.33
558.39	2761.76
558.74	2761.16
559.10	2760.15
559.45	2758.03
559.81	2756.81
560.16	2754.55
560.52	2751.97
560.87	2749.40
561.23	2745.31
561.58	2743.17
561.94	2740.14
562.29	2736.47
562.64	2734.65
563.00	2732.18
563.35	2730.02
563.71	2728.29
564.06	2726.27
564.42	2724.70
564.77	2722.21
565.12	2720.21
565.48	2716.56
565.83	2713.43
566.19	2710.06
566.54	2705.75
566.89	2702.07
567.25	2698.19
567.60	2695.13
567.96	2691.67
568.31	2688.19
568.66	2684.62
569.02	2679.56
569.37	2674.48
569.72	2670.70
570.08	2665.38
570.43	2659.43
570.78	2653.53
571.14	2647.31
571.49	2640.34
571.84	2634.22
572.20	2627.46
572.55	2621.03
572.90	2614.39
573.26	2607.57
573.61	2600.48
573.96	2594.02
574.31	2586.27
574.67	2577.75
575.02	2568.99
575.37	2560.32
575.72	2551.64
576.08	2544.15
576.43	2535.54
576.78	2527.68
577.13	2519.43
577.49	2511.01
577.84	2503.38
578.19	2495.75
578.54	2488.08
578.90	2481.16
579.25	2471.93
579.60	2462.53
579.95	2452.85
580.30	2444.49
580.66	2436.35
581.01	2427.08
581.36	2417.57
581.71	2408.95
582.06	2400.68
582.42	2392.33
582.77	2383.22
583.12	2373.89
583.47	2365.25
583.82	2356.88
584.17	2347.73
584.53	2338.56
584.88	2329.61
585.23	2320.36
585.58	2310.68
585.93	2300.97
586.28	2291.48
586.63	2282.87
586.98	2274.77
587.34	2266.36
587.69	2257.52
588.04	2248.11
588.39	2239.56
588.74	2230.54
589.09	2221.68
589.44	2211.99
589.79	2203.33
590.14	2195.26
590.49	2187.02
590.84	2177.44
591.19	2169.24
591.54	2160.54
591.89	2150.12
592.25	2140.92
592.60	2131.27
592.95	2121.68
593.30	2111.93
593.65	2102.07
594.00	2092.25
594.35	2083.58
594.70	2074.37
595.05	2065.35
595.40	2056.24
595.75	2046.65
596.10	2038.47
596.45	2029.70
596.80	2022.01
597.15	2013.53
597.50	2004.16
597.85	1995.42
598.19	1987.04
598.54	1978.23
598.89	1970.17
599.24	1963.52
599.59	1956.01
599.94	1948.72
600.29	1941.05
600.64	1933.12
600.99	1924.79
601.34	1917.55
601.69	1908.62
602.04	1900.24
602.39	1892.03
602.74	1884.40
603.08	1877.94
603.43	1870.43
603.78	1862.48
604.13	1854.30
604.48	1846.41
604.83	1839.38
605.18	1832.07
605.53	1824.10
605.87	1816.42
606.22	1808.97
606.57	1800.83
606.92	1792.32
607.27	1784.10
607.62	1776.75
607.96	1769.75
608.31	1763.49
608.66	1755.23
609.01	1747.84
609.36	1740.07
609.70	1732.23
610.05	1724.37
610.40	1715.80
610.75	1707.00
611.10	1699.30
611.44	1689.58
611.79	1680.33
612.14	1670.81
612.49	1661.13
612.83	1652.49
613.18	1642.54
613.53	1632.95
613.88	1623.08
614.22	1614.11
614.57	1604.94
614.92	1595.30
615.27	1585.69
615.61	1575.38
615.96	1566.70
616.31	1558.12
616.65	1550.31
617.00	1541.73
617.35	1532.60
617.70	1523.48
618.04	1514.63
618.39	1505.03
618.74	1496.95
619.08	1488.14
619.43	1479.91
619.78	1472.31
620.12	1463.97
620.47	1456.31
620.82	1447.70
621.16	1439.57
621.51	1431.07
621.85	1422.71
622.20	1414.20
622.55	1405.71
622.89	1397.47
623.24	1389.18
623.59	1380.33
623.93	1371.50
624.28	1363.09
624.62	1354.89
624.97	1346.75
625.32	1338.80
625.66	1331.42
626.01	1323.99
626.35	1316.81
626.70	1308.87
627.04	1301.18
627.39	1293.34
627.73	1285.69
628.08	1278.85
628.43	1271.22
628.77	1263.71
629.12	1256.05
629.46	1249.45
629.81	1242.29
630.15	1234.67
630.50	1227.22
630.84	1219.97
631.19	1212.70
631.53	1205.87
631.88	1198.30
632.22	1190.65
632.57	1183.48
632.91	1175.95
633.26	1168.37
633.60	1160.85
633.95	1154.18
634.29	1146.60
634.64	1139.65
634.98	1132.41
635.32	1125.12
635.67	1118.74
636.01	1112.13
636.36	1105.49
636.70	1098.53
637.05	1091.89
637.39	1085.88
637.73	1079.54
638.08	1073.60
638.42	1067.60
638.77	1060.78
639.11	1054.61
639.45	1048.69
639.80	1042.10
640.14	1035.60
640.49	1029.32
640.83	1023.20
641.17	1016.68
641.52	1010.47
641.86	1004.05
642.20	997.81
642.55	991.03
642.89	984.42
643.23	977.99
643.58	971.97
643.92	965.30
644.26	958.85
644.61	952.51
644.95	946.32
645.29	939.99
645.64	933.28
645.98	927.06
646.32	921.13
646.66	914.82
647.01	908.89
647.35	902.81
647.69	896.55
648.04	890.64
648.38	884.58
648.72	878.66
649.06	872.59
649.41	866.63
649.75	860.94
650.09	855.01
650.43	848.99
650.78	842.47
651.12	836.50
651.46	830.65
651.80	824.59
652.14	818.72
652.49	812.41
652.83	806.68
653.17	800.61
653.51	794.54
653.85	788.70
654.20	782.82
654.54	776.94
654.88	771.16
655.22	765.11
655.56	759.27
655.90	753.31
656.25	747.50
656.59	741.75
656.93	736.41
657.27	731.24
657.61	725.71
657.95	720.66
658.29	715.64
658.64	710.44
658.98	705.28
659.32	699.54
659.66	694.46
660.00	688.99
660.34	683.71
660.68	678.53
661.02	673.48
661.36	668.60
661.70	663.78
662.05	659.11
662.39	654.71
662.73	650.22
663.07	645.82
663.41	641.52
663.75	637.13
664.09	632.34
664.43	627.38
664.77	622.97
665.11	618.56
665.45	613.90
665.79	609.36
666.13	604.82
666.47	600.90
666.81	596.77
667.15	592.72
667.49	588.90
667.83	584.95
668.17	581.11
668.51	577.20
668.85	573.40
669.19	569.75
669.53	565.68
669.87	561.52
670.21	557.78
670.55	553.78
670.89	550.19
671.23	546.78
671.57	543.32
671.91	539.84
672.25	536.25
672.58	532.78
672.92	529.39
673.26	526.34
673.60	522.90
673.94	519.45
674.28	516.05
674.62	512.79
674.96	509.48
675.30	506.15
675.64	502.81
675.97	499.59
676.31	496.53
676.65	493.50
676.99	490.85
677.33	487.63
677.67	484.66
678.01	481.56
678.34	478.64
678.68	475.70
679.02	472.58
679.36	469.71
679.70	466.86
680.04	463.99
680.37	460.82
680.71	458.05
681.05	455.47
681.39	452.74
681.73	450.00
682.06	447.57
682.40	445.01
682.74	442.47
683.08	439.97
683.42	437.21
683.75	434.72
684.09	432.15
684.43	429.64
684.77	427.20
685.10	424.66
685.44	421.93
685.78	419.49
686.12	417.30
686.45	414.85
686.79	412.52
687.13	410.41
687.46	408.31
687.80	405.98
688.14	403.52
688.48	401.46
688.81	399.24
689.15	397.00
689.49	394.86
689.82	392.71
690.16	390.35
690.50	388.05
690.83	385.75
691.17	383.34
691.51	381.21
691.84	378.92
692.18	376.87
692.52	374.92
692.85	373.06
693.19	371.03
693.52	369.05
693.86	367.12
694.20	365.19
694.53	363.30
694.87	361.35
695.21	359.46
695.54	357.45
695.88	355.51
696.21	353.56
696.55	351.71
696.88	349.90
697.22	348.13
697.56	346.61
697.89	345.00
698.23	343.45
698.56	341.77
698.90	340.33
699.23	338.69
699.57	337.10
699.90	335.33
700.24	333.71
700.58	332.12
700.91	330.47
701.25	328.95
701.58	327.48
701.92	326.11
702.25	324.67
702.59	323.25
702.92	321.96
703.26	320.64
703.59	319.33
703.93	318.15
704.26	316.92
704.60	315.61
704.93	314.29
705.26	312.91
705.60	311.74
705.93	310.49
706.27	309.33
706.60	308.24
706.94	307.19
707.27	306.05
707.61	304.94
707.94	303.91
708.27	302.72
708.61	301.57
708.94	300.43
709.28	299.33
709.61	298.30
709.94	297.19
710.28	296.07
710.61	295.01
710.95	293.73
711.28	292.83
711.61	291.74
711.95	290.84
712.28	289.92
712.61	288.94
712.95	288.01
713.28	287.11
713.61	286.08
713.95	285.07
714.28	284.10
714.61	283.15
714.95	282.27
715.28	281.26
715.61	280.33
715.95	279.48
716.28	278.65
716.61	277.78
716.95	276.83
717.28	276.02
717.61	275.18
717.94	274.48
718.28	273.61
718.61	272.88
718.94	272.03
719.27	271.24
719.61	270.43
719.94	269.62
720.27	268.73
720.60	268.04
720.94	267.32
721.27	266.68
721.60	266.01
721.93	265.33
722.27	264.69
722.60	264.05
722.93	263.38
723.26	262.73
723.59	262.13
723.93	261.62
724.26	261.10
724.59	260.51
724.92	259.91
725.25	259.33
725.59	258.71
725.92	258.24
726.25	257.75
726.58	257.30
726.91	256.84
727.24	256.34
727.57	255.83
727.91	255.37
728.24	254.89
728.57	254.45
728.90	253.98
729.23	253.48
729.56	253.14
729.89	252.67
730.22	252.20
730.55	251.73
730.89	251.30
731.22	250.73
731.55	250.20
731.88	249.75
732.21	249.23
732.54	248.83
732.87	248.31
733.20	247.89
733.53	247.46
733.86	246.98
734.19	246.52
734.52	246.10
734.85	245.79
735.18	245.35
735.51	244.90
735.84	244.43
736.17	244.13
736.50	243.60
736.83	243.41
737.16	243.00
737.49	242.69
737.82	242.28
738.15	241.95
738.48	241.68
738.81	241.33
739.14	241.05
739.47	240.62
739.80	240.24
740.13	239.82
740.46	239.42
740.79	239.05
741.12	238.82
741.45	238.48
741.78	238.04
742.11	237.82
742.44	237.50
742.77	237.34
743.10	237.02
743.43	236.65
743.75	236.18
744.08	236.17
744.41	235.73
744.74	235.42
745.07	235.15
745.40	234.83
745.73	234.66
746.06	234.35
746.39	234.20
746.71	234.00
747.04	233.79
747.37	233.54
747.70	233.37
748.03	233.13
748.36	232.86
748.68	232.63
749.01	232.30
749.34	231.97
749.67	231.66
750.00	231.41
750.33	231.40
750.65	231.23
750.98	230.71
751.31	230.50
751.64	230.32
751.97	230.16
752.29	229.92
752.62	229.62
752.95	229.39
753.28	229.12
753.60	228.86
753.93	228.67
754.26	228.45
754.59	228.15
754.91	227.93
755.24	227.71
755.57	227.48
755.90	227.29
756.22	227.21
756.55	227.00
756.88	226.73
757.20	226.37
757.53	226.15
757.86	226.03
758.19	225.90
758.51	225.66
758.84	225.33
759.17	225.22
759.49	225.01
759.82	224.94
760.15	224.70
760.47	224.51
760.80	224.19
761.13	224.05
761.45	223.92
761.78	223.67
762.11	223.50
762.43	223.36
762.76	223.18
763.08	222.95
763.41	222.78
763.74	222.67
764.06	222.50
764.39	222.30
764.71	222.09
765.04	221.90
765.37	221.79
765.69	221.66
766.02	221.49
766.34	221.35
766.67	221.14
767.00	221.13
767.32	221.18
767.65	221.21
767.97	221.05
768.30	220.93
768.62	220.85
768.95	220.73
769.27	220.62
769.60	220.55
769.92	220.43
770.25	220.26
770.57	220.13
770.90	220.00
771.22	219.91
771.55	219.83
771.87	219.71
772.20	219.61
772.52	219.70
772.85	219.73
773.17	219.61
773.50	219.50
773.82	219.31
774.15	219.04
774.47	218.85
774.80	218.83
775.12	218.74
775.45	218.69
775.77	218.54
776.09	218.43
776.42	218.33
776.74	218.25
777.07	218.25
777.39	218.24
777.72	218.25
778.04	218.18
778.36	218.08
778.69	218.08
779.01	217.98
779.33	217.76
779.66	217.55
779.98	217.50
780.31	217.51
780.63	217.54
780.95	217.53
781.28	217.44
781.60	217.29
781.92	217.20
782.25	217.10
782.57	217.11
782.89	217.06
783.22	217.00
783.54	216.94
783.86	216.85
784.19	216.75
784.51	216.68
784.83	216.64
785.16	216.57
785.48	216.47
785.80	216.42
786.12	216.33
786.45	216.22
786.77	216.18
787.09	216.04
787.42	215.82
787.74	215.73
788.06	215.68
788.38	215.69
788.71	215.68
789.03	215.66
789.35	215.59
789.67	215.49
789.99	215.50
790.32	215.44
790.64	215.45
790.96	215.50
791.28	215.40
791.61	215.33
791.93	215.30
792.25	215.26
792.57	215.30
792.89	215.27
793.21	215.26
793.54	215.14
793.86	215.17
794.18	215.21
794.50	215.15
794.82	215.18
795.14	215.09
795.47	215.07
795.79	215.01
796.11	214.98
796.43	214.97
796.75	214.85
797.07	214.82
797.39	214.70
797.71	214.53
798.04	214.48
798.36	214.38
798.68	214.34
799.00	214.31
799.32	214.26
799.64	214.25
799.96	214.25
800.28	214.27
800.60	214.12
800.92	214.06
801.24	213.99
801.56	213.94
801.89	213.87
802.21	213.84
802.53	213.74
802.85	213.75
803.17	213.74
803.49	213.68
803.81	213.62
804.13	213.56
804.45	213.51
804.77	213.55
805.09	213.54
805.41	213.47
805.73	213.47
806.05	213.41
806.37	213.35
806.69	213.35
807.01	213.33
807.33	213.35
807.65	213.32
807.97	213.41
808.28	213.34
808.60	213.35
808.92	213.27
809.24	213.45
809.56	213.34
809.88	213.34
810.20	213.32
810.52	213.33
810.84	213.35
811.16	213.39
811.48	213.32
811.80	213.41
812.12	213.46
812.43	213.44
812.75	213.46
813.07	213.45
813.39	213.39
813.71	213.36
814.03	213.35
814.35	213.34
814.67	213.26
814.98	213.25
815.30	213.27
815.62	213.24
815.94	213.04
816.26	213.06
816.58	213.04
816.89	213.12
817.21	213.13
817.53	213.15
817.85	213.10
818.17	213.14
818.48	213.08
818.80	213.12
819.12	213.04
819.44	212.95
819.76	212.96
820.07	212.91
820.39	212.89
820.71	212.88
821.03	212.79
821.34	212.78
821.66	212.80
821.98	212.75
822.30	212.82
822.61	212.92
822.93	212.89
823.25	212.86
823.57	212.79
823.88	212.77
824.20	212.76
824.52	212.80
824.83	212.78
825.15	212.71
825.47	212.63
825.79	212.64
826.10	212.56
826.42	212.50
826.74	212.59
827.05	212.57
827.37	212.59
827.69	212.63
828.00	212.56
828.32	212.54
828.64	212.52
828.95	212.54
829.27	212.55
829.58	212.55
829.90	212.58
830.22	212.58
830.53	212.54
830.85	212.50
831.17	212.44
831.48	212.45
831.80	212.49
832.11	212.51
832.43	212.45
832.75	212.42
833.06	212.54
833.38	212.40
833.69	212.41
834.01	212.42
834.32	212.43
834.64	212.42
834.96	212.43
835.27	212.45
835.59	212.28
835.90	212.15
836.22	212.11
836.53	212.00
836.85	211.96
837.16	212.09
837.48	212.01
837.79	212.00
838.11	211.95
838.42	211.84
838.74	211.85
839.05	211.85
839.37	211.88
839.68	211.75
840.00	211.81
840.31	211.82
840.63	211.74
840.94	211.65
841.26	211.65
841.57	211.61
841.88	211.67
842.20	211.68
842.51	211.71
842.83	211.68
843.14	211.88
843.46	211.86
843.77	211.74
844.08	211.74
844.40	211.79
844.71	211.70
845.03	211.74
845.34	211.62
845.65	211.58
845.97	211.58
846.28	211.61
846.60	211.62
846.91	211.58
847.22	211.61
847.54	211.65
847.85	211.64
848.16	211.60
848.48	211.48
848.79	211.57
849.10	211.58
849.42	211.55
849.73	211.38
850.04	211.35
850.36	211.28
850.67	211.31
850.98	211.19
851.30	211.13
851.61	211.14
851.92	211.25
852.23	211.25
852.55	211.28
852.86	211.24
853.17	211.24
853.49	211.25
853.80	211.24
854.11	211.27
854.42	211.29
854.74	211.35
855.05	211.40
855.36	211.37
855.67	211.37
855.99	211.39
856.30	211.53
856.61	211.53
856.92	211.53
857.23	211.58
857.55	211.50
857.86	211.56
858.17	211.56
858.48	211.45
858.79	211.52
859.11	211.44
859.42	211.52
859.73	211.43
860.04	211.45
860.35	211.44
860.66	211.36
860.98	211.38
861.29	211.32
861.60	211.23
861.91	211.21
862.22	211.19
862.53	211.16
862.84	210.98
863.16	211.07
863.47	211.12
863.78	211.09
864.09	211.24
864.40	211.22
864.71	211.25
865.02	211.27
865.33	211.20
865.64	211.19
865.95	211.05
866.27	211.20
866.58	211.19
866.89	211.24
867.20	211.24
867.51	211.24
867.82	211.32
868.13	211.48
868.44	211.32
868.75	211.34
869.06	211.41
869.37	211.38
869.68	211.30
869.99	211.32
870.30	211.33
870.61	211.28
870.92	211.31
871.23	211.26
871.54	211.36
871.85	211.38
872.16	211.38
872.47	211.45
872.78	211.31
873.09	211.36
873.40	211.29
873.71	211.25
874.02	211.20
874.33	211.08
874.64	210.96
874.95	211.07
875.26	211.07
875.56	211.02
875.87	211.04
876.18	211.07
876.49	211.21
876.80	211.21
877.11	211.18
877.42	211.16
877.73	211.13
878.04	210.98
878.35	211.00
878.66	211.04
878.96	210.97
879.27	211.05
879.58	211.00
879.89	211.00
880.20	211.08
880.51	211.10
880.82	211.13
881.12	211.10
881.43	211.11
881.74	211.05
882.05	211.06
882.36	211.04
882.67	211.02
882.97	210.87
883.28	210.84
883.59	210.81
883.90	210.73
884.21	210.79
884.51	210.83
884.82	210.84
885.13	210.88
885.44	210.90
885.74	210.82
886.05	210.80
886.36	210.78
886.67	210.74
886.98	210.80
887.28	210.85
887.59	210.87
887.90	210.80
888.20	210.79
888.51	210.82
888.82	210.79
889.13	210.82
889.43	210.95
889.74	210.93
890.05	210.92
890.35	211.02
890.66	210.97
890.97	211.00
891.28	210.98
891.58	210.93
891.89	210.90
892.20	210.91
892.50	210.90
892.81	210.95
893.12	210.97
893.42	210.91
893.73	210.96
894.04	210.98
894.34	211.07
894.65	211.12
894.95	211.09
895.26	211.14
895.57	211.19
895.87	211.01
896.18	211.03
896.48	211.08
896.79	211.13
897.10	211.14
897.40	211.00
897.71	211.04
898.01	211.06
898.32	211.14
898.63	211.06
898.93	211.05
899.24	211.10
899.54	211.05
899.85	211.08
900.15	210.95
900.46	210.93
900.76	210.93
901.07	210.90
901.38	210.95
901.68	210.98
901.99	210.89
902.29	210.87
902.60	210.86
902.90	210.82
903.21	210.78
903.51	210.77
903.82	210.87
904.12	210.84
904.43	210.87
904.73	210.83
905.03	210.85
905.34	210.99
905.64	210.86
905.95	210.81
906.25	210.77
906.56	210.80
906.86	210.86
907.17	210.85
907.47	210.82
907.77	210.75
908.08	210.68
908.38	210.70
908.69	210.75
908.99	210.84
909.30	210.85
909.60	210.80
909.90	210.82
910.21	210.78
910.51	210.71
910.81	210.69
911.12	210.71
911.42	210.77
911.73	210.61
912.03	210.68
912.33	210.81
912.64	210.77
912.94	210.74
913.24	210.73
913.55	210.74
913.85	210.74
914.15	210.79
914.46	210.85
914.76	210.84
915.06	210.78
915.37	210.72
915.67	210.67
915.97	210.73
916.27	210.72
916.58	210.76
916.88	210.77
917.18	210.74
917.49	210.89
917.79	210.84
918.09	210.88
918.39	210.87
918.70	210.79
919.00	210.83
919.30	210.96
919.60	210.91
919.91	210.87
920.21	210.88
920.51	210.88
920.81	210.87
921.12	210.85
921.42	210.87
921.72	210.85
922.02	210.92
922.32	210.95
922.63	210.92
922.93	211.01
923.23	210.98
923.53	210.96
923.83	210.77
924.13	210.83
924.44	210.86
924.74	210.95
925.04	211.02
925.34	211.02
925.64	210.94
925.94	210.99
926.24	211.09
926.55	211.07
926.85	211.04
927.15	211.02
927.45	211.10
927.75	211.09
928.05	211.09
928.35	211.10
928.65	211.09
928.95	211.09
929.26	211.00
929.56	211.07
929.86	211.08
930.16	211.12
930.46	211.10
930.76	211.08
931.06	210.92
931.36	210.87
931.66	210.95
931.96	210.89
932.26	210.88
932.56	210.81
932.86	210.80
933.16	210.78
933.46	210.73
933.76	210.63
934.06	210.63
934.36	210.68
934.66	210.60
934.96	210.55
935.26	210.60
935.56	210.61
935.86	210.61
936.16	210.66
936.46	210.62
936.76	210.61
937.06	210.66
937.36	210.70
937.66	210.65
937.96	210.60
938.26	210.65
938.56	210.68
938.86	210.61
939.16	210.70
939.46	210.75
939.76	210.83
940.06	210.88
940.35	210.95
940.65	210.94
940.95	211.03
941.25	211.03
941.55	210.98
941.85	210.97
942.15	211.01
942.45	211.07
942.75	211.02
943.04	211.00
943.34	210.98
943.64	211.01
943.94	211.01
944.24	210.96
944.54	210.93
944.84	210.91
945.13	210.97
945.43	210.92
945.73	210.87
946.03	210.81
946.33	210.77
946.62	210.70
946.92	210.69
947.22	210.68
947.52	210.71
947.82	210.77
948.11	210.76
948.41	210.75
948.71	210.65
949.01	210.69
949.31	210.78
949.60	210.76
949.90	210.76
950.20	210.80
950.50	210.87
950.79	210.88
951.09	210.78
951.39	210.77
951.69	210.72
951.98	210.82
952.28	210.85
952.58	210.89
952.87	210.93
953.17	210.90
953.47	210.81
953.76	210.81
954.06	210.82
954.36	210.75
954.66	210.75
954.95	210.77
955.25	210.81
955.55	210.74
955.84	210.74
956.14	210.73
956.44	210.75
956.73	210.72
957.03	210.67
957.32	210.80
957.62	210.79
957.92	210.86
958.21	210.79
958.51	210.88
958.81	210.91
959.10	210.86
959.40	210.90
959.69	210.97
959.99	210.88
960.29	210.84
960.58	210.89
960.88	210.90
961.17	210.84
961.47	210.90
961.76	210.88
962.06	210.93
962.36	210.90
962.65	210.86
962.95	210.91
963.24	210.98
963.54	211.00
963.83	211.01
964.13	210.99
964.42	210.98
964.72	210.97
965.01	210.93
965.31	210.93
965.60	210.90
965.90	210.92
966.19	211.01
966.49	210.98
966.78	210.94
967.08	210.99
967.37	211.02
967.67	210.90
967.96	210.95
968.26	210.92
968.55	210.96
968.85	210.98
969.14	210.92
969.43	210.84
969.73	210.79
970.02	210.75
970.32	210.74
970.61	210.70
970.91	210.64
971.20	210.58
971.49	210.60
971.79	210.57
972.08	210.47
972.38	210.46
972.67	210.49
972.96	210.56
973.26	210.46
973.55	210.52
973.85	210.55
974.14	210.52
974.43	210.53
974.73	210.50
975.02	210.47
975.31	210.47
975.61	210.54
975.90	210.51
976.19	210.54
976.49	210.50
976.78	210.55
977.07	210.52
977.37	210.59
977.66	210.65
977.95	210.70
978.24	210.80
978.54	210.84
978.83	210.78
979.12	210.75
979.42	210.76
979.71	210.77
980.00	210.78
980.29	210.86
980.59	210.79
980.88	210.81
981.17	210.80
981.46	210.74
981.76	210.66
982.05	210.72
982.34	210.67
982.63	210.75
982.93	210.71
983.22	210.71
983.51	210.71
983.80	210.71
984.09	210.73
984.39	210.67
984.68	210.67
984.97	210.69
985.26	210.72
985.55	210.75
985.85	210.68
986.14	210.70
986.43	210.74
986.72	210.78
987.01	210.77
987.30	210.79
987.59	210.86
987.89	210.95
988.18	210.84
988.47	210.86
988.76	210.83
989.05	210.88
989.34	210.91
989.63	210.96
989.92	210.91
990.22	210.83
990.51	210.76
990.80	210.75
991.09	210.77
991.38	210.76
991.67	210.75
991.96	210.72
992.25	210.74
992.54	210.69
992.83	210.70
993.12	210.76
993.41	210.84
993.70	210.90
993.99	210.87
994.28	210.94
994.58	210.96
994.87	210.92
995.16	210.98
995.45	210.93
995.74	210.88
996.03	210.95
996.32	211.01
996.61	211.08
996.90	211.08
997.19	211.05
997.48	211.08
997.77	211.10
998.06	211.16
998.34	211.10
998.63	211.02
998.92	210.97
999.21	210.97
999.50	210.96
999.79	210.90
1000.08	210.87
1000.37	210.88
1000.66	210.87
1000.95	210.90
1001.24	210.84
1001.53	210.88
1001.82	210.87
1002.11	210.81
1002.40	210.80
1002.68	210.82
1002.97	210.86
1003.26	210.86
1003.55	210.79
1003.84	210.77
1004.13	210.84
1004.42	210.90
1004.71	210.99
1004.99	211.02
1005.28	211.02
1005.57	211.04
1005.86	211.00
1006.15	210.98
1006.44	210.89
1006.72	210.93
1007.01	210.85
1007.30	210.86
1007.59	210.79
1007.88	210.78
1008.17	210.78
1008.45	210.71
1008.74	210.65
1009.03	210.64
1009.32	210.71
1009.60	210.71
1009.89	210.68
1010.18	210.57
1010.47	210.51
1010.76	210.49
1011.04	210.44
1011.33	210.43
1011.62	210.37
1011.91	210.33
1012.19	210.38
1012.48	210.44
1012.77	210.35
1013.05	210.45
1013.34	210.42
1013.63	210.45
1013.92	210.35
1014.20	210.34
1014.49	210.43
1014.78	210.49
1015.06	210.45
1015.35	210.38
1015.64	210.44
1015.92	210.50
1016.21	210.51
1016.50	210.53
1016.78	210.55
1017.07	210.56
1017.36	210.49
1017.64	210.52
1017.93	210.58
1018.22	210.55
1018.50	210.54
1018.79	210.57
1019.08	210.52
1019.36	210.53
1019.65	210.52
1019.93	210.65
1020.22	210.69
1020.51	210.72
1020.79	210.65
1021.08	210.20
1021.36	209.90
1021.65	210.25
1021.94	210.45
1022.22	210.35
1022.51	210.55
1022.79	211.10
1023.08	211.35
1023.36	212.00
1023.65	209.70
>>>>>End Processed Spectral Data<<<<<
