SpectraSuite Data File
++++++++++++++++++++++++++++++++++++
Date: Mon Feb 25 17:30:20 EST 2013
User: group
Dark Spectrum Present: No
Reference Spectrum Present: No
Number of Sampled Component Spectra: 1
Spectrometers: USB2E7196
Integration Time (usec): 52000 (USB2E7196)
Spectra Averaged: 20 (USB2E7196)
Boxcar Smoothing: 10 (USB2E7196)
Correct for Electrical Dark: No (USB2E7196)
Strobe/Lamp Enabled: No (USB2E7196)
Correct for Detector Non-linearity: No (USB2E7196)
Correct for Stray Light: No (USB2E7196)
Number of Pixels in Processed Spectrum: 2048
>>>>>Begin Processed Spectral Data<<<<<
339.09	0.00
339.48	198.65
339.86	202.45
340.24	201.35
340.63	203.80
341.01	208.00
341.39	206.80
341.78	207.40
342.16	210.05
342.54	209.40
342.93	198.78
343.31	208.87
343.69	209.43
344.07	209.84
344.46	210.27
344.84	210.64
345.22	210.75
345.60	210.94
345.99	211.14
346.37	211.20
346.75	211.29
347.13	211.40
347.52	211.41
347.90	211.54
348.28	211.53
348.66	211.55
349.05	211.55
349.43	211.55
349.81	211.56
350.19	211.56
350.57	211.58
350.96	211.67
351.34	211.68
351.72	211.76
352.10	211.86
352.48	211.92
352.87	211.93
353.25	211.98
353.63	212.05
354.01	212.09
354.39	212.18
354.77	212.26
355.15	212.31
355.54	212.33
355.92	212.27
356.30	212.37
356.68	212.56
357.06	212.52
357.44	212.59
357.82	212.66
358.20	212.79
358.58	212.74
358.97	212.77
359.35	212.83
359.73	212.83
360.11	212.75
360.49	212.86
360.87	212.89
361.25	212.99
361.63	213.07
362.01	213.11
362.39	213.10
362.77	213.13
363.15	213.17
363.53	213.27
363.91	213.26
364.29	213.25
364.67	213.18
365.05	213.28
365.43	213.35
365.81	213.43
366.19	213.50
366.57	213.64
366.95	213.59
367.33	213.64
367.71	213.73
368.09	213.79
368.47	213.75
368.85	213.79
369.23	213.83
369.61	213.77
369.99	213.82
370.37	213.85
370.75	213.93
371.13	213.91
371.51	213.86
371.89	213.88
372.27	213.90
372.65	213.78
373.03	213.76
373.41	213.64
373.78	213.56
374.16	213.42
374.54	213.31
374.92	213.29
375.30	213.20
375.68	213.14
376.06	213.18
376.44	213.16
376.82	213.12
377.19	213.08
377.57	213.06
377.95	212.93
378.33	212.81
378.71	212.66
379.09	212.64
379.47	212.56
379.84	212.50
380.22	212.40
380.60	212.42
380.98	212.39
381.36	212.39
381.73	212.32
382.11	212.30
382.49	212.29
382.87	212.25
383.25	212.22
383.62	212.41
384.00	212.35
384.38	212.30
384.76	212.31
385.13	212.34
385.51	212.37
385.89	212.37
386.27	212.39
386.64	212.40
387.02	212.31
387.40	212.25
387.78	212.27
388.15	212.24
388.53	212.20
388.91	212.19
389.29	212.12
389.66	212.09
390.04	212.11
390.42	212.05
390.79	212.01
391.17	212.02
391.55	211.75
391.92	211.63
392.30	211.65
392.68	211.59
393.05	211.50
393.43	211.40
393.81	211.38
394.18	211.36
394.56	211.29
394.94	211.34
395.31	211.32
395.69	211.34
396.06	211.35
396.44	211.33
396.82	211.28
397.19	211.44
397.57	211.45
397.95	211.45
398.32	211.41
398.70	211.48
399.07	211.51
399.45	211.49
399.82	211.64
400.20	211.61
400.58	211.60
400.95	211.56
401.33	211.66
401.70	211.84
402.08	211.89
402.45	211.95
402.83	211.95
403.20	212.08
403.58	212.10
403.95	212.19
404.33	212.28
404.71	212.35
405.08	212.50
405.46	212.61
405.83	212.67
406.21	212.89
406.58	213.01
406.96	213.07
407.33	213.30
407.70	213.43
408.08	213.74
408.45	214.00
408.83	214.37
409.20	214.59
409.58	214.68
409.95	214.95
410.33	215.22
410.70	215.55
411.08	215.86
411.45	216.28
411.82	216.61
412.20	217.05
412.57	217.55
412.95	217.83
413.32	218.34
413.69	218.91
414.07	219.43
414.44	220.03
414.82	220.75
415.19	221.43
415.56	222.11
415.94	222.81
416.31	223.63
416.68	224.35
417.06	225.31
417.43	226.24
417.81	227.31
418.18	228.49
418.55	229.66
418.93	230.94
419.30	232.20
419.67	233.63
420.04	234.95
420.42	236.44
420.79	238.27
421.16	239.96
421.54	241.70
421.91	243.45
422.28	245.37
422.66	247.30
423.03	249.21
423.40	251.26
423.77	253.52
424.15	255.75
424.52	258.01
424.89	260.54
425.26	263.07
425.64	265.40
426.01	267.81
426.38	270.42
426.75	273.07
427.13	275.73
427.50	278.57
427.87	281.62
428.24	284.64
428.61	287.46
428.99	290.61
429.36	294.05
429.73	297.47
430.10	300.73
430.47	304.25
430.85	307.87
431.22	311.67
431.59	315.66
431.96	319.52
432.33	323.77
432.70	327.75
433.08	332.36
433.45	336.88
433.82	341.39
434.19	346.29
434.56	351.19
434.93	355.87
435.30	360.49
435.68	365.63
436.05	370.56
436.42	375.45
436.79	380.01
437.16	384.83
437.53	389.92
437.90	395.07
438.27	400.06
438.64	405.16
439.01	409.94
439.38	414.05
439.75	418.20
440.13	422.96
440.50	427.27
440.87	431.05
441.24	434.76
441.61	438.74
441.98	441.69
442.35	445.18
442.72	448.72
443.09	452.20
443.46	454.15
443.83	455.55
444.20	456.69
444.57	458.38
444.94	459.12
445.31	459.89
445.68	460.63
446.05	460.74
446.42	460.27
446.79	459.61
447.16	458.78
447.53	458.08
447.90	456.04
448.27	454.10
448.64	451.15
449.01	449.08
449.37	445.75
449.74	442.53
450.11	438.52
450.48	434.18
450.85	429.63
451.22	425.82
451.59	422.14
451.96	418.72
452.33	414.12
452.70	409.90
453.07	404.96
453.43	399.84
453.80	395.03
454.17	390.36
454.54	385.96
454.91	381.40
455.28	376.77
455.65	372.41
456.02	368.18
456.38	364.56
456.75	360.04
457.12	356.15
457.49	352.44
457.86	348.74
458.23	345.64
458.59	342.29
458.96	338.95
459.33	335.84
459.70	332.78
460.07	330.40
460.43	327.67
460.80	325.07
461.17	322.84
461.54	320.55
461.91	318.23
462.27	315.92
462.64	313.93
463.01	311.89
463.38	309.88
463.74	307.81
464.11	305.98
464.48	304.44
464.85	302.84
465.21	301.51
465.58	300.10
465.95	298.42
466.32	297.11
466.68	295.66
467.05	294.38
467.42	293.03
467.78	291.55
468.15	290.27
468.52	289.37
468.88	288.14
469.25	286.98
469.62	286.17
469.98	285.18
470.35	284.31
470.72	283.40
471.08	282.52
471.45	281.74
471.82	281.07
472.18	280.26
472.55	279.71
472.92	279.00
473.28	278.49
473.65	277.95
474.02	277.34
474.38	276.98
474.75	276.63
475.11	276.22
475.48	276.04
475.85	275.76
476.21	275.50
476.58	275.33
476.94	275.33
477.31	275.26
477.67	275.24
478.04	275.22
478.41	275.43
478.77	275.76
479.14	275.89
479.50	276.16
479.87	276.50
480.23	276.85
480.60	277.23
480.96	277.65
481.33	278.29
481.69	278.89
482.06	279.48
482.42	280.26
482.79	281.06
483.15	281.94
483.52	283.11
483.88	284.13
484.25	285.20
484.61	286.21
484.98	287.32
485.34	288.60
485.71	289.95
486.07	291.27
486.44	292.53
486.80	294.07
487.17	295.64
487.53	297.34
487.90	299.16
488.26	301.11
488.62	303.20
488.99	305.18
489.35	307.37
489.72	309.65
490.08	311.96
490.44	314.44
490.81	317.10
491.17	319.62
491.54	322.48
491.90	325.53
492.26	328.62
492.63	331.86
492.99	335.37
493.36	339.16
493.72	342.92
494.08	346.92
494.45	351.25
494.81	355.69
495.17	360.36
495.54	365.23
495.90	370.27
496.26	375.29
496.63	380.75
496.99	386.44
497.35	392.34
497.72	398.51
498.08	404.94
498.44	411.65
498.80	418.72
499.17	426.10
499.53	433.54
499.89	441.55
500.26	449.65
500.62	457.81
500.98	466.52
501.34	475.70
501.71	485.00
502.07	494.41
502.43	504.33
502.79	514.39
503.16	524.82
503.52	535.59
503.88	546.73
504.24	558.20
504.60	569.79
504.97	581.95
505.33	594.31
505.69	607.44
506.05	620.53
506.41	633.91
506.78	647.33
507.14	661.50
507.50	675.86
507.86	690.71
508.22	705.97
508.59	721.19
508.95	736.98
509.31	753.00
509.67	769.55
510.03	786.06
510.39	803.20
510.75	820.73
511.12	838.51
511.48	856.66
511.84	874.88
512.20	893.67
512.56	912.52
512.92	931.76
513.28	950.96
513.64	970.62
514.00	990.25
514.37	1010.25
514.73	1030.59
515.09	1051.05
515.45	1071.48
515.81	1092.33
516.17	1113.23
516.53	1134.05
516.89	1155.31
517.25	1176.34
517.61	1197.91
517.97	1219.07
518.33	1240.16
518.69	1261.45
519.05	1282.95
519.41	1304.81
519.77	1326.60
520.13	1348.43
520.49	1370.07
520.85	1392.20
521.21	1414.15
521.57	1436.62
521.93	1458.45
522.29	1480.79
522.65	1502.78
523.01	1524.63
523.37	1546.10
523.73	1567.98
524.09	1589.93
524.45	1611.63
524.81	1633.33
525.17	1655.15
525.53	1677.04
525.89	1698.66
526.25	1720.16
526.61	1740.94
526.97	1762.00
527.33	1782.76
527.68	1803.76
528.04	1824.59
528.40	1844.05
528.76	1864.42
529.12	1884.50
529.48	1905.27
529.84	1924.82
530.20	1944.47
530.56	1964.37
530.91	1984.49
531.27	2004.20
531.63	2023.16
531.99	2042.42
532.35	2061.18
532.71	2079.58
533.07	2098.48
533.42	2116.60
533.78	2134.92
534.14	2153.10
534.50	2169.61
534.86	2186.94
535.21	2202.86
535.57	2219.73
535.93	2236.44
536.29	2252.26
536.65	2268.14
537.00	2283.04
537.36	2297.68
537.72	2312.25
538.08	2326.70
538.44	2341.12
538.79	2355.79
539.15	2370.13
539.51	2384.15
539.87	2398.70
540.22	2412.29
540.58	2426.25
540.94	2440.07
541.29	2452.18
541.65	2463.65
542.01	2476.25
542.37	2487.57
542.72	2499.48
543.08	2509.73
543.44	2521.05
543.79	2530.63
544.15	2540.07
544.51	2550.15
544.87	2560.56
545.22	2569.11
545.58	2577.20
545.94	2583.96
546.29	2589.75
546.65	2595.52
547.01	2600.85
547.36	2605.81
547.72	2610.81
548.07	2614.53
548.43	2617.61
548.79	2621.05
549.14	2625.27
549.50	2629.20
549.86	2632.70
550.21	2635.94
550.57	2639.48
550.92	2641.78
551.28	2643.99
551.64	2645.96
551.99	2648.26
552.35	2649.37
552.70	2651.75
553.06	2654.00
553.41	2656.76
553.77	2659.40
554.13	2661.48
554.48	2663.08
554.84	2664.50
555.19	2664.92
555.55	2665.05
555.90	2665.47
556.26	2665.69
556.61	2665.38
556.97	2663.65
557.32	2663.18
557.68	2661.38
558.03	2659.87
558.39	2658.35
558.74	2657.72
559.10	2656.72
559.45	2654.80
559.81	2653.48
560.16	2650.50
560.52	2648.12
560.87	2644.84
561.23	2640.70
561.58	2637.98
561.94	2634.70
562.29	2630.62
562.64	2627.93
563.00	2625.28
563.35	2623.06
563.71	2621.10
564.06	2618.83
564.42	2617.31
564.77	2614.47
565.12	2612.86
565.48	2609.27
565.83	2606.09
566.19	2602.79
566.54	2598.23
566.89	2594.00
567.25	2590.09
567.60	2586.93
567.96	2583.23
568.31	2579.53
568.66	2576.10
569.02	2571.54
569.37	2566.62
569.72	2563.02
570.08	2557.82
570.43	2551.95
570.78	2546.19
571.14	2539.76
571.49	2533.05
571.84	2526.81
572.20	2519.92
572.55	2513.05
572.90	2506.47
573.26	2499.41
573.61	2492.66
573.96	2486.55
574.31	2478.83
574.67	2471.00
575.02	2462.98
575.37	2454.22
575.72	2445.45
576.08	2437.98
576.43	2429.53
576.78	2422.06
577.13	2414.48
577.49	2406.77
577.84	2399.40
578.19	2392.02
578.54	2385.32
578.90	2378.32
579.25	2369.90
579.60	2361.36
579.95	2352.37
580.30	2344.89
580.66	2337.38
581.01	2328.33
581.36	2319.25
581.71	2311.41
582.06	2303.07
582.42	2295.42
582.77	2286.80
583.12	2278.48
583.47	2269.78
583.82	2261.83
584.17	2252.76
584.53	2243.28
584.88	2234.82
585.23	2226.03
585.58	2216.33
585.93	2206.64
586.28	2197.97
586.63	2189.42
586.98	2181.60
587.34	2173.64
587.69	2164.49
588.04	2155.28
588.39	2147.37
588.74	2138.65
589.09	2130.19
589.44	2120.89
589.79	2112.15
590.14	2104.64
590.49	2096.43
590.84	2087.83
591.19	2079.93
591.54	2071.58
591.89	2062.17
592.25	2052.96
592.60	2043.82
592.95	2035.12
593.30	2025.98
593.65	2016.49
594.00	2007.45
594.35	1999.41
594.70	1990.52
595.05	1982.41
595.40	1974.04
595.75	1964.85
596.10	1957.08
596.45	1949.07
596.80	1941.80
597.15	1933.65
597.50	1924.87
597.85	1916.58
598.19	1908.40
598.54	1899.92
598.89	1892.49
599.24	1885.81
599.59	1878.72
599.94	1871.88
600.29	1864.59
600.64	1857.18
600.99	1849.33
601.34	1842.22
601.69	1833.74
602.04	1825.99
602.39	1818.09
602.74	1810.43
603.08	1804.16
603.43	1797.22
603.78	1789.42
604.13	1781.80
604.48	1774.48
604.83	1767.68
605.18	1761.35
605.53	1754.10
605.87	1746.85
606.22	1740.04
606.57	1732.43
606.92	1724.96
607.27	1717.35
607.62	1710.38
607.96	1703.60
608.31	1697.52
608.66	1690.00
609.01	1682.80
609.36	1675.33
609.70	1667.68
610.05	1660.02
610.40	1652.01
610.75	1643.55
611.10	1636.06
611.44	1627.24
611.79	1618.34
612.14	1609.59
612.49	1600.03
612.83	1591.57
613.18	1582.25
613.53	1572.80
613.88	1563.44
614.22	1554.64
614.57	1545.70
614.92	1536.45
615.27	1527.65
615.61	1518.10
615.96	1509.43
616.31	1500.96
616.65	1493.44
617.00	1485.63
617.35	1477.81
617.70	1469.33
618.04	1460.64
618.39	1451.58
618.74	1443.26
619.08	1435.14
619.43	1427.05
619.78	1419.59
620.12	1411.46
620.47	1404.08
620.82	1395.91
621.16	1388.18
621.51	1379.99
621.85	1372.02
622.20	1364.03
622.55	1355.71
622.89	1347.84
623.24	1340.15
623.59	1331.75
623.93	1323.06
624.28	1314.97
624.62	1306.73
624.97	1298.74
625.32	1291.23
625.66	1284.12
626.01	1277.41
626.35	1270.43
626.70	1263.02
627.04	1255.70
627.39	1248.61
627.73	1241.22
628.08	1234.73
628.43	1227.74
628.77	1220.71
629.12	1213.43
629.46	1206.85
629.81	1199.86
630.15	1192.65
630.50	1185.50
630.84	1178.59
631.19	1171.99
631.53	1165.20
631.88	1158.09
632.22	1150.81
632.57	1144.30
632.91	1137.20
633.26	1129.75
633.60	1122.59
633.95	1115.95
634.29	1108.94
634.64	1102.29
634.98	1095.54
635.32	1088.63
635.67	1082.39
636.01	1076.06
636.36	1069.55
636.70	1063.13
637.05	1056.88
637.39	1050.80
637.73	1044.46
638.08	1038.79
638.42	1032.80
638.77	1026.71
639.11	1020.55
639.45	1014.66
639.80	1008.28
640.14	1001.81
640.49	995.87
640.83	989.86
641.17	983.75
641.52	977.84
641.86	971.58
642.20	965.73
642.55	959.23
642.89	952.64
643.23	946.35
643.58	940.86
643.92	934.44
644.26	928.28
644.61	922.32
644.95	916.55
645.29	910.33
645.64	903.96
645.98	897.83
646.32	892.18
646.66	886.07
647.01	880.20
647.35	874.60
647.69	868.54
648.04	862.81
648.38	856.81
648.72	851.08
649.06	845.14
649.41	839.13
649.75	833.63
650.09	828.20
650.43	822.48
650.78	816.23
651.12	810.43
651.46	804.75
651.80	799.04
652.14	793.16
652.49	787.38
652.83	781.73
653.17	775.82
653.51	770.14
653.85	764.70
654.20	758.95
654.54	753.40
654.88	747.94
655.22	742.26
655.56	736.66
655.90	730.89
656.25	725.23
656.59	719.80
656.93	714.58
657.27	709.38
657.61	704.12
657.95	699.18
658.29	694.30
658.64	689.38
658.98	684.33
659.32	679.11
659.66	674.22
660.00	669.21
660.34	664.16
660.68	659.08
661.02	654.16
661.36	649.78
661.70	644.95
662.05	640.35
662.39	635.96
662.73	631.75
663.07	627.52
663.41	623.55
663.75	619.26
664.09	614.69
664.43	610.06
664.77	605.81
665.11	601.46
665.45	597.04
665.79	592.77
666.13	588.51
666.47	584.55
666.81	580.47
667.15	576.51
667.49	572.90
667.83	569.07
668.17	565.33
668.51	561.49
668.85	558.03
669.19	554.54
669.53	550.79
669.87	546.98
670.21	543.27
670.55	539.39
670.89	535.98
671.23	532.72
671.57	529.44
671.91	525.95
672.25	522.50
672.58	519.16
672.92	515.85
673.26	512.86
673.60	509.75
673.94	506.55
674.28	503.38
674.62	500.16
674.96	497.03
675.30	494.01
675.64	491.01
675.97	487.72
676.31	484.74
676.65	481.83
676.99	479.15
677.33	476.26
677.67	473.50
678.01	470.49
678.34	467.64
678.68	464.91
679.02	462.03
679.36	459.34
679.70	456.70
680.04	453.90
680.37	450.96
680.71	448.29
681.05	445.78
681.39	443.14
681.73	440.58
682.06	438.21
682.40	435.82
682.74	433.14
683.08	430.84
683.42	428.37
683.75	425.87
684.09	423.21
684.43	420.77
684.77	418.23
685.10	415.81
685.44	413.31
685.78	410.85
686.12	408.67
686.45	406.31
686.79	404.08
687.13	402.01
687.46	399.90
687.80	397.76
688.14	395.45
688.48	393.42
688.81	391.15
689.15	389.02
689.49	386.73
689.82	384.61
690.16	382.29
690.50	380.00
690.83	377.94
691.17	375.86
691.51	373.85
691.84	371.87
692.18	369.88
692.52	368.17
692.85	366.35
693.19	364.51
693.52	362.73
693.86	360.71
694.20	358.88
694.53	357.01
694.87	355.09
695.21	353.27
695.54	351.34
695.88	349.70
696.21	347.86
696.55	346.21
696.88	344.64
697.22	342.97
697.56	341.40
697.89	339.82
698.23	338.28
698.56	336.63
698.90	335.19
699.23	333.68
699.57	332.07
699.90	330.43
700.24	328.80
700.58	327.19
700.91	325.76
701.25	324.32
701.58	322.98
701.92	321.52
702.25	320.13
702.59	318.82
702.92	317.43
703.26	316.03
703.59	314.79
703.93	313.63
704.26	312.45
704.60	311.23
704.93	309.86
705.26	308.68
705.60	307.52
705.93	306.33
706.27	305.13
706.60	303.94
706.94	302.92
707.27	301.77
707.61	300.61
707.94	299.53
708.27	298.23
708.61	297.01
708.94	296.00
709.28	294.97
709.61	293.88
709.94	292.75
710.28	291.82
710.61	290.73
710.95	289.52
711.28	288.65
711.61	287.63
711.95	286.83
712.28	285.84
712.61	284.94
712.95	284.04
713.28	283.21
713.61	282.30
713.95	281.37
714.28	280.61
714.61	279.83
714.95	278.95
715.28	278.18
715.61	277.36
715.95	276.41
716.28	275.57
716.61	274.84
716.95	274.06
717.28	273.23
717.61	272.45
717.94	271.76
718.28	270.94
718.61	270.21
718.94	269.34
719.27	268.60
719.61	267.88
719.94	267.15
720.27	266.30
720.60	265.62
720.94	264.95
721.27	264.23
721.60	263.59
721.93	262.96
722.27	262.47
722.60	261.92
722.93	261.50
723.26	260.90
723.59	260.25
723.93	259.74
724.26	259.24
724.59	258.69
724.92	258.15
725.25	257.63
725.59	257.09
725.92	256.68
726.25	256.14
726.58	255.65
726.91	255.11
727.24	254.72
727.57	254.19
727.91	253.68
728.24	253.25
728.57	252.73
728.90	252.37
729.23	251.77
729.56	251.37
729.89	250.84
730.22	250.37
730.55	250.02
730.89	249.55
731.22	249.12
731.55	248.78
731.88	248.26
732.21	247.75
732.54	247.31
732.87	246.82
733.20	246.44
733.53	246.09
733.86	245.80
734.19	245.40
734.52	245.14
734.85	244.86
735.18	244.41
735.51	244.10
735.84	243.71
736.17	243.42
736.50	242.92
736.83	242.73
737.16	242.34
737.49	241.96
737.82	241.62
738.15	241.28
738.48	240.84
738.81	240.58
739.14	240.27
739.47	239.98
739.80	239.72
740.13	239.37
740.46	239.01
740.79	238.61
741.12	238.23
741.45	237.82
741.78	237.42
742.11	237.20
742.44	236.80
742.77	236.50
743.10	236.19
743.43	235.95
743.75	235.49
744.08	235.46
744.41	235.07
744.74	234.85
745.07	234.51
745.40	234.21
745.73	233.96
746.06	233.64
746.39	233.38
746.71	233.04
747.04	232.83
747.37	232.46
747.70	232.24
748.03	232.01
748.36	231.75
748.68	231.53
749.01	231.22
749.34	231.11
749.67	230.83
750.00	230.62
750.33	230.50
750.65	230.31
750.98	229.82
751.31	229.60
751.64	229.35
751.97	229.22
752.29	229.05
752.62	228.75
752.95	228.57
753.28	228.34
753.60	228.08
753.93	227.84
754.26	227.72
754.59	227.38
754.91	227.15
755.24	226.92
755.57	226.73
755.90	226.51
756.22	226.23
756.55	226.05
756.88	225.81
757.20	225.50
757.53	225.25
757.86	225.10
758.19	224.96
758.51	224.72
758.84	224.43
759.17	224.23
759.49	224.04
759.82	223.99
760.15	223.83
760.47	223.64
760.80	223.47
761.13	223.30
761.45	223.22
761.78	223.06
762.11	222.95
762.43	222.78
762.76	222.63
763.08	222.52
763.41	222.36
763.74	222.16
764.06	221.99
764.39	221.92
764.71	221.70
765.04	221.51
765.37	221.38
765.69	221.27
766.02	221.16
766.34	221.11
766.67	220.96
767.00	220.92
767.32	220.95
767.65	220.92
767.97	220.79
768.30	220.68
768.62	220.62
768.95	220.48
769.27	220.35
769.60	220.33
769.92	220.17
770.25	220.02
770.57	219.86
770.90	219.75
771.22	219.58
771.55	219.53
771.87	219.49
772.20	219.39
772.52	219.49
772.85	219.62
773.17	219.50
773.50	219.28
773.82	219.14
774.15	219.00
774.47	218.82
774.80	218.72
775.12	218.64
775.45	218.57
775.77	218.49
776.09	218.41
776.42	218.30
776.74	218.28
777.07	218.27
777.39	218.30
777.72	218.22
778.04	218.19
778.36	218.12
778.69	218.05
779.01	218.02
779.33	217.74
779.66	217.45
779.98	217.36
780.31	217.33
780.63	217.32
780.95	217.28
781.28	217.21
781.60	217.15
781.92	217.10
782.25	216.97
782.57	216.98
782.89	216.86
783.22	216.70
783.54	216.60
783.86	216.55
784.19	216.44
784.51	216.43
784.83	216.34
785.16	216.30
785.48	216.21
785.80	216.13
786.12	216.11
786.45	216.02
786.77	215.95
787.09	215.90
787.42	215.75
787.74	215.67
788.06	215.60
788.38	215.52
788.71	215.40
789.03	215.40
789.35	215.31
789.67	215.34
789.99	215.32
790.32	215.30
790.64	215.21
790.96	215.36
791.28	215.34
791.61	215.27
791.93	215.22
792.25	215.14
792.57	215.28
792.89	215.21
793.21	215.19
793.54	215.16
793.86	215.09
794.18	215.06
794.50	215.02
794.82	214.98
795.14	214.92
795.47	214.95
795.79	214.87
796.11	214.81
796.43	214.66
796.75	214.69
797.07	214.60
797.39	214.58
797.71	214.40
798.04	214.32
798.36	214.40
798.68	214.36
799.00	214.44
799.32	214.30
799.64	214.29
799.96	214.23
800.28	214.22
800.60	214.17
800.92	214.14
801.24	214.12
801.56	214.13
801.89	214.18
802.21	214.12
802.53	214.14
802.85	214.16
803.17	214.24
803.49	214.23
803.81	214.25
804.13	214.22
804.45	214.21
804.77	214.19
805.09	214.11
805.41	214.07
805.73	213.98
806.05	213.87
806.37	213.87
806.69	213.89
807.01	213.92
807.33	213.93
807.65	213.94
807.97	213.95
808.28	213.92
808.60	213.92
808.92	213.89
809.24	213.95
809.56	213.85
809.88	213.81
810.20	213.75
810.52	213.75
810.84	213.67
811.16	213.55
811.48	213.54
811.80	213.54
812.12	213.55
812.43	213.59
812.75	213.61
813.07	213.52
813.39	213.44
813.71	213.32
814.03	213.33
814.35	213.32
814.67	213.25
814.98	213.28
815.30	213.15
815.62	213.07
815.94	212.94
816.26	212.95
816.58	212.86
816.89	212.86
817.21	212.77
817.53	212.78
817.85	212.80
818.17	212.71
818.48	212.62
818.80	212.57
819.12	212.49
819.44	212.44
819.76	212.45
820.07	212.55
820.39	212.61
820.71	212.58
821.03	212.43
821.34	212.42
821.66	212.37
821.98	212.39
822.30	212.38
822.61	212.47
822.93	212.52
823.25	212.50
823.57	212.46
823.88	212.50
824.20	212.53
824.52	212.55
824.83	212.61
825.15	212.69
825.47	212.70
825.79	212.77
826.10	212.74
826.42	212.70
826.74	212.61
827.05	212.53
827.37	212.52
827.69	212.52
828.00	212.45
828.32	212.39
828.64	212.37
828.95	212.52
829.27	212.41
829.58	212.37
829.90	212.36
830.22	212.37
830.53	212.28
830.85	212.22
831.17	212.20
831.48	212.14
831.80	212.10
832.11	212.04
832.43	211.95
832.75	211.94
833.06	212.04
833.38	212.01
833.69	211.94
834.01	211.94
834.32	211.93
834.64	211.90
834.96	211.94
835.27	211.92
835.59	211.78
835.90	211.77
836.22	211.73
836.53	211.74
836.85	211.70
837.16	211.87
837.48	211.91
837.79	211.99
838.11	211.97
838.42	211.97
838.74	212.04
839.05	212.00
839.37	212.01
839.68	211.91
840.00	211.96
840.31	212.05
840.63	212.02
840.94	212.01
841.26	212.04
841.57	212.09
841.88	212.10
842.20	212.14
842.51	212.15
842.83	212.17
843.14	212.31
843.46	212.31
843.77	212.25
844.08	212.25
844.40	212.18
844.71	212.18
845.03	212.15
845.34	212.13
845.65	212.15
845.97	212.14
846.28	212.16
846.60	212.08
846.91	212.07
847.22	212.07
847.54	212.18
847.85	212.27
848.16	212.19
848.48	212.13
848.79	212.16
849.10	212.16
849.42	212.12
849.73	211.95
850.04	211.95
850.36	211.90
850.67	211.87
850.98	211.79
851.30	211.80
851.61	211.74
851.92	211.74
852.23	211.75
852.55	211.76
852.86	211.75
853.17	211.83
853.49	211.88
853.80	211.91
854.11	211.89
854.42	211.80
854.74	211.78
855.05	211.85
855.36	211.80
855.67	211.85
855.99	211.89
856.30	212.12
856.61	212.15
856.92	212.05
857.23	212.09
857.55	212.12
857.86	212.08
858.17	212.15
858.48	212.10
858.79	212.04
859.11	212.03
859.42	211.95
859.73	211.96
860.04	211.94
860.35	211.84
860.66	211.69
860.98	211.66
861.29	211.69
861.60	211.62
861.91	211.65
862.22	211.56
862.53	211.58
862.84	211.39
863.16	211.42
863.47	211.45
863.78	211.39
864.09	211.33
864.40	211.36
864.71	211.34
865.02	211.35
865.33	211.40
865.64	211.38
865.95	211.47
866.27	211.50
866.58	211.41
866.89	211.50
867.20	211.55
867.51	211.57
867.82	211.52
868.13	211.56
868.44	211.52
868.75	211.58
869.06	211.52
869.37	211.48
869.68	211.43
869.99	211.49
870.30	211.48
870.61	211.57
870.92	211.54
871.23	211.50
871.54	211.48
871.85	211.50
872.16	211.53
872.47	211.42
872.78	211.38
873.09	211.43
873.40	211.38
873.71	211.45
874.02	211.37
874.33	211.34
874.64	211.39
874.95	211.36
875.26	211.22
875.56	211.20
875.87	211.20
876.18	211.17
876.49	211.29
876.80	211.30
877.11	211.18
877.42	211.17
877.73	211.20
878.04	211.16
878.35	211.18
878.66	211.15
878.96	211.15
879.27	211.08
879.58	211.05
879.89	211.02
880.20	211.04
880.51	211.09
880.82	211.14
881.12	211.07
881.43	211.07
881.74	211.06
882.05	211.02
882.36	210.98
882.67	210.97
882.97	210.81
883.28	210.76
883.59	210.78
883.90	210.76
884.21	210.75
884.51	210.75
884.82	210.71
885.13	210.70
885.44	210.71
885.74	210.71
886.05	210.73
886.36	210.85
886.67	210.73
886.98	210.84
887.28	210.86
887.59	210.93
887.90	210.90
888.20	210.97
888.51	211.05
888.82	211.07
889.13	211.03
889.43	211.19
889.74	211.24
890.05	211.23
890.35	211.27
890.66	211.24
890.97	211.23
891.28	211.14
891.58	211.14
891.89	211.12
892.20	211.08
892.50	211.05
892.81	210.98
893.12	211.05
893.42	210.96
893.73	210.96
894.04	210.95
894.34	211.03
894.65	210.98
894.95	210.98
895.26	210.97
895.57	211.06
895.87	210.90
896.18	210.96
896.48	211.04
896.79	211.03
897.10	211.07
897.40	211.08
897.71	211.22
898.01	211.25
898.32	211.25
898.63	211.29
898.93	211.35
899.24	211.34
899.54	211.30
899.85	211.30
900.15	211.22
900.46	211.15
900.76	211.16
901.07	211.23
901.38	211.20
901.68	211.29
901.99	211.20
902.29	211.22
902.60	211.10
902.90	211.11
903.21	211.14
903.51	211.10
903.82	211.15
904.12	211.08
904.43	211.10
904.73	211.14
905.03	211.14
905.34	211.30
905.64	211.31
905.95	211.30
906.25	211.35
906.56	211.38
906.86	211.44
907.17	211.39
907.47	211.35
907.77	211.34
908.08	211.24
908.38	211.30
908.69	211.33
908.99	211.38
909.30	211.36
909.60	211.35
909.90	211.41
910.21	211.35
910.51	211.36
910.81	211.32
911.12	211.28
911.42	211.24
911.73	211.02
912.03	210.95
912.33	211.07
912.64	211.02
912.94	210.99
913.24	210.89
913.55	210.87
913.85	210.85
914.15	210.94
914.46	211.04
914.76	210.99
915.06	210.98
915.37	210.97
915.67	210.91
915.97	210.88
916.27	210.77
916.58	210.78
916.88	210.77
917.18	210.79
917.49	210.96
917.79	210.97
918.09	210.95
918.39	211.09
918.70	210.94
919.00	210.94
919.30	211.09
919.60	211.12
919.91	211.10
920.21	211.12
920.51	211.04
920.81	210.97
921.12	211.02
921.42	211.01
921.72	211.04
922.02	211.12
922.32	211.13
922.63	211.19
922.93	211.26
923.23	211.28
923.53	211.22
923.83	211.10
924.13	211.14
924.44	211.19
924.74	211.19
925.04	211.28
925.34	211.23
925.64	211.12
925.94	211.13
926.24	211.21
926.55	211.20
926.85	211.19
927.15	211.20
927.45	211.20
927.75	211.16
928.05	211.16
928.35	211.15
928.65	211.21
928.95	211.21
929.26	211.15
929.56	211.15
929.86	211.15
930.16	211.15
930.46	211.13
930.76	211.18
931.06	211.10
931.36	211.06
931.66	211.09
931.96	211.12
932.26	211.09
932.56	211.08
932.86	211.10
933.16	211.16
933.46	211.18
933.76	211.12
934.06	211.18
934.36	211.24
934.66	211.24
934.96	211.20
935.26	211.25
935.56	211.24
935.86	211.20
936.16	211.20
936.46	211.23
936.76	211.22
937.06	211.15
937.36	211.13
937.66	211.08
937.96	211.19
938.26	211.12
938.56	211.12
938.86	211.16
939.16	211.16
939.46	211.14
939.76	211.12
940.06	211.13
940.35	211.09
940.65	210.94
940.95	210.94
941.25	210.97
941.55	210.89
941.85	210.90
942.15	211.04
942.45	211.06
942.75	211.02
943.04	211.14
943.34	211.13
943.64	211.16
943.94	211.20
944.24	211.09
944.54	211.06
944.84	211.09
945.13	211.04
945.43	210.99
945.73	210.94
946.03	210.89
946.33	210.84
946.62	210.85
946.92	210.88
947.22	210.88
947.52	210.88
947.82	210.90
948.11	210.93
948.41	210.77
948.71	210.73
949.01	210.75
949.31	210.70
949.60	210.75
949.90	210.79
950.20	210.72
950.50	210.66
950.79	210.72
951.09	210.79
951.39	210.77
951.69	210.77
951.98	210.89
952.28	210.95
952.58	210.99
952.87	210.93
953.17	210.95
953.47	210.93
953.76	210.95
954.06	210.91
954.36	210.85
954.66	210.90
954.95	210.93
955.25	210.96
955.55	210.93
955.84	210.92
956.14	210.93
956.44	211.04
956.73	211.10
957.03	211.09
957.32	211.10
957.62	211.16
957.92	211.16
958.21	211.14
958.51	211.24
958.81	211.24
959.10	211.29
959.40	211.35
959.69	211.30
959.99	211.32
960.29	211.35
960.58	211.36
960.88	211.48
961.17	211.56
961.47	211.50
961.76	211.53
962.06	211.57
962.36	211.52
962.65	211.49
962.95	211.49
963.24	211.48
963.54	211.40
963.83	211.37
964.13	211.41
964.42	211.38
964.72	211.27
965.01	211.33
965.31	211.28
965.60	211.25
965.90	211.40
966.19	211.31
966.49	211.31
966.78	211.27
967.08	211.20
967.37	211.14
967.67	211.21
967.96	211.15
968.26	211.07
968.55	211.10
968.85	211.03
969.14	211.00
969.43	211.03
969.73	211.05
970.02	210.95
970.32	210.94
970.61	210.90
970.91	210.86
971.20	210.78
971.49	210.85
971.79	210.84
972.08	210.70
972.38	210.69
972.67	210.73
972.96	210.75
973.26	210.66
973.55	210.65
973.85	210.62
974.14	210.62
974.43	210.62
974.73	210.60
975.02	210.59
975.31	210.66
975.61	210.68
975.90	210.63
976.19	210.70
976.49	210.68
976.78	210.58
977.07	210.64
977.37	210.70
977.66	210.62
977.95	210.61
978.24	210.62
978.54	210.70
978.83	210.66
979.12	210.67
979.42	210.75
979.71	210.76
980.00	210.72
980.29	210.72
980.59	210.68
980.88	210.76
981.17	210.82
981.46	210.77
981.76	210.70
982.05	210.80
982.34	210.76
982.63	210.78
982.93	210.86
983.22	210.82
983.51	210.79
983.80	210.84
984.09	210.86
984.39	210.85
984.68	210.80
984.97	210.80
985.26	210.88
985.55	210.93
985.85	210.90
986.14	210.95
986.43	210.97
986.72	210.95
987.01	210.94
987.30	210.92
987.59	210.93
987.89	210.98
988.18	210.88
988.47	210.91
988.76	210.94
989.05	210.98
989.34	210.99
989.63	211.01
989.92	211.00
990.22	211.04
990.51	211.02
990.80	210.99
991.09	210.98
991.38	210.91
991.67	210.83
991.96	210.78
992.25	210.79
992.54	210.74
992.83	210.81
993.12	210.72
993.41	210.77
993.70	210.79
993.99	210.78
994.28	210.85
994.58	210.89
994.87	210.86
995.16	210.86
995.45	210.78
995.74	210.78
996.03	210.82
996.32	210.75
996.61	210.84
996.90	210.84
997.19	210.88
997.48	210.86
997.77	210.89
998.06	210.97
998.34	210.98
998.63	211.05
998.92	211.06
999.21	211.15
999.50	211.11
999.79	211.09
1000.08	211.14
1000.37	211.19
1000.66	211.16
1000.95	211.21
1001.24	211.19
1001.53	211.26
1001.82	211.26
1002.11	211.27
1002.40	211.36
1002.68	211.44
1002.97	211.60
1003.26	211.55
1003.55	211.55
1003.84	211.59
1004.13	211.61
1004.42	211.58
1004.71	211.52
1004.99	211.53
1005.28	211.48
1005.57	211.45
1005.86	211.45
1006.15	211.49
1006.44	211.34
1006.72	211.35
1007.01	211.38
1007.30	211.37
1007.59	211.32
1007.88	211.28
1008.17	211.24
1008.45	211.16
1008.74	211.02
1009.03	210.90
1009.32	210.92
1009.60	210.88
1009.89	210.78
1010.18	210.78
1010.47	210.72
1010.76	210.69
1011.04	210.66
1011.33	210.90
1011.62	210.94
1011.91	210.92
1012.19	210.88
1012.48	211.01
1012.77	210.95
1013.05	210.93
1013.34	210.96
1013.63	210.95
1013.92	210.96
1014.20	210.89
1014.49	210.85
1014.78	210.83
1015.06	210.79
1015.35	210.79
1015.64	210.86
1015.92	210.90
1016.21	210.87
1016.50	210.85
1016.78	210.98
1017.07	210.96
1017.36	210.71
1017.64	210.73
1017.93	210.76
1018.22	210.72
1018.50	210.65
1018.79	210.71
1019.08	210.67
1019.36	210.69
1019.65	210.69
1019.93	210.70
1020.22	210.71
1020.51	210.82
1020.79	210.84
1021.08	210.55
1021.36	210.75
1021.65	211.25
1021.94	210.65
1022.22	211.30
1022.51	210.00
1022.79	210.80
1023.08	209.65
1023.36	212.25
1023.65	210.25
>>>>>End Processed Spectral Data<<<<<
