SpectraSuite Data File
++++++++++++++++++++++++++++++++++++
Date: Mon Feb 25 17:32:32 EST 2013
User: group
Dark Spectrum Present: No
Reference Spectrum Present: No
Number of Sampled Component Spectra: 1
Spectrometers: USB2E7196
Integration Time (usec): 52000 (USB2E7196)
Spectra Averaged: 20 (USB2E7196)
Boxcar Smoothing: 10 (USB2E7196)
Correct for Electrical Dark: No (USB2E7196)
Strobe/Lamp Enabled: No (USB2E7196)
Correct for Detector Non-linearity: No (USB2E7196)
Correct for Stray Light: No (USB2E7196)
Number of Pixels in Processed Spectrum: 2048
>>>>>Begin Processed Spectral Data<<<<<
339.09	0.00
339.48	200.00
339.86	200.35
340.24	202.60
340.63	203.35
341.01	206.20
341.39	206.05
341.78	207.95
342.16	209.20
342.54	210.15
342.93	198.61
343.31	208.61
343.69	209.12
344.07	209.57
344.46	209.91
344.84	210.32
345.22	210.56
345.60	210.85
345.99	211.05
346.37	211.08
346.75	211.12
347.13	211.20
347.52	211.32
347.90	211.49
348.28	211.42
348.66	211.55
349.05	211.53
349.43	211.55
349.81	211.53
350.19	211.59
350.57	211.65
350.96	211.68
351.34	211.79
351.72	211.85
352.10	211.96
352.48	212.10
352.87	212.07
353.25	212.12
353.63	212.12
354.01	212.11
354.39	212.22
354.77	212.28
355.15	212.40
355.54	212.33
355.92	212.24
356.30	212.33
356.68	212.35
357.06	212.42
357.44	212.44
357.82	212.48
358.20	212.53
358.58	212.59
358.97	212.62
359.35	212.66
359.73	212.78
360.11	212.84
360.49	212.84
360.87	212.95
361.25	213.03
361.63	213.14
362.01	213.22
362.39	213.28
362.77	213.34
363.15	213.35
363.53	213.42
363.91	213.51
364.29	213.61
364.67	213.56
365.05	213.56
365.43	213.58
365.81	213.67
366.19	213.74
366.57	213.83
366.95	213.85
367.33	213.89
367.71	213.89
368.09	213.98
368.47	214.00
368.85	214.07
369.23	214.09
369.61	214.04
369.99	214.07
370.37	214.02
370.75	214.14
371.13	214.10
371.51	214.03
371.89	214.03
372.27	213.94
372.65	213.95
373.03	213.93
373.41	213.92
373.78	213.86
374.16	213.71
374.54	213.57
374.92	213.50
375.30	213.46
375.68	213.36
376.06	213.24
376.44	213.20
376.82	213.13
377.19	213.08
377.57	213.00
377.95	212.92
378.33	212.88
378.71	212.68
379.09	212.70
379.47	212.69
379.84	212.65
380.22	212.64
380.60	212.59
380.98	212.56
381.36	212.53
381.73	212.48
382.11	212.49
382.49	212.53
382.87	212.48
383.25	212.39
383.62	212.54
384.00	212.50
384.38	212.47
384.76	212.45
385.13	212.48
385.51	212.45
385.89	212.38
386.27	212.35
386.64	212.33
387.02	212.21
387.40	212.17
387.78	212.14
388.15	212.11
388.53	212.01
388.91	211.92
389.29	211.83
389.66	211.79
390.04	211.75
390.42	211.72
390.79	211.70
391.17	211.64
391.55	211.46
391.92	211.40
392.30	211.40
392.68	211.28
393.05	211.20
393.43	211.17
393.81	211.20
394.18	211.25
394.56	211.24
394.94	211.38
395.31	211.36
395.69	211.45
396.06	211.44
396.44	211.48
396.82	211.54
397.19	211.70
397.57	211.74
397.95	211.82
398.32	211.81
398.70	211.85
399.07	211.96
399.45	211.99
399.82	212.05
400.20	212.05
400.58	212.16
400.95	212.17
401.33	212.30
401.70	212.45
402.08	212.48
402.45	212.59
402.83	212.66
403.20	212.78
403.58	212.78
403.95	212.87
404.33	213.07
404.71	213.18
405.08	213.32
405.46	213.43
405.83	213.56
406.21	213.64
406.58	213.87
406.96	213.99
407.33	214.20
407.70	214.35
408.08	214.74
408.45	214.89
408.83	215.19
409.20	215.37
409.58	215.56
409.95	215.86
410.33	216.19
410.70	216.35
411.08	216.68
411.45	217.04
411.82	217.44
412.20	217.78
412.57	218.40
412.95	218.70
413.32	219.30
413.69	219.81
414.07	220.46
414.44	221.03
414.82	221.68
415.19	222.32
415.56	223.06
415.94	223.75
416.31	224.71
416.68	225.58
417.06	226.59
417.43	227.60
417.81	228.60
418.18	229.64
418.55	230.90
418.93	232.15
419.30	233.38
419.67	234.75
420.04	236.12
420.42	237.52
420.79	239.30
421.16	240.89
421.54	242.67
421.91	244.41
422.28	246.25
422.66	248.32
423.03	250.39
423.40	252.53
423.77	254.76
424.15	256.95
424.52	259.28
424.89	261.85
425.26	264.24
425.64	266.64
426.01	269.17
426.38	271.85
426.75	274.63
427.13	277.52
427.50	280.47
427.87	283.69
428.24	286.71
428.61	289.62
428.99	292.94
429.36	296.38
429.73	299.90
430.10	303.47
430.47	307.05
430.85	310.77
431.22	314.64
431.59	318.81
431.96	322.79
432.33	327.07
432.70	331.12
433.08	336.05
433.45	340.66
433.82	345.28
434.19	350.27
434.56	355.17
434.93	359.91
435.30	364.56
435.68	369.69
436.05	374.83
436.42	379.90
436.79	384.54
437.16	389.57
437.53	394.85
437.90	399.97
438.27	405.06
438.64	410.34
439.01	415.35
439.38	419.67
439.75	423.77
440.13	428.62
440.50	433.20
440.87	436.93
441.24	440.78
441.61	445.05
441.98	448.15
442.35	451.76
442.72	455.39
443.09	458.95
443.46	461.07
443.83	462.44
444.20	463.58
444.57	465.37
444.94	466.19
445.31	467.04
445.68	467.84
446.05	468.09
446.42	467.38
446.79	466.52
447.16	465.59
447.53	464.98
447.90	462.83
448.27	460.77
448.64	457.75
449.01	455.70
449.37	452.00
449.74	448.56
450.11	444.50
450.48	440.11
450.85	435.57
451.22	431.59
451.59	427.91
451.96	424.45
452.33	419.62
452.70	415.26
453.07	410.09
453.43	404.92
453.80	399.91
454.17	395.25
454.54	390.76
454.91	386.05
455.28	381.43
455.65	377.18
456.02	372.86
456.38	369.20
456.75	364.53
457.12	360.77
457.49	356.96
457.86	353.25
458.23	350.03
458.59	346.55
458.96	343.06
459.33	339.94
459.70	336.75
460.07	334.32
460.43	331.47
460.80	328.75
461.17	326.35
461.54	323.86
461.91	321.44
462.27	319.10
462.64	317.07
463.01	314.76
463.38	312.63
463.74	310.41
464.11	308.62
464.48	307.01
464.85	305.21
465.21	303.89
465.58	302.47
465.95	300.75
466.32	299.30
466.68	297.85
467.05	296.45
467.42	295.10
467.78	293.62
468.15	292.34
468.52	291.39
468.88	290.09
469.25	289.00
469.62	288.14
469.98	287.05
470.35	286.06
470.72	285.21
471.08	284.20
471.45	283.44
471.82	282.63
472.18	281.83
472.55	281.32
472.92	280.62
473.28	279.99
473.65	279.38
474.02	278.86
474.38	278.48
474.75	278.16
475.11	277.76
475.48	277.56
475.85	277.33
476.21	277.09
476.58	277.00
476.94	276.96
477.31	276.88
477.67	276.88
478.04	276.95
478.41	277.18
478.77	277.44
479.14	277.58
479.50	277.81
479.87	278.10
480.23	278.42
480.60	278.75
480.96	279.10
481.33	279.76
481.69	280.34
482.06	280.93
482.42	281.47
482.79	282.15
483.15	283.04
483.52	284.03
483.88	285.00
484.25	285.96
484.61	286.93
484.98	288.02
485.34	289.36
485.71	290.76
486.07	292.06
486.44	293.45
486.80	294.95
487.17	296.55
487.53	298.35
487.90	300.10
488.26	301.97
488.62	304.05
488.99	306.05
489.35	308.22
489.72	310.59
490.08	313.04
490.44	315.60
490.81	318.13
491.17	320.77
491.54	323.67
491.90	326.71
492.26	329.99
492.63	333.35
492.99	336.82
493.36	340.38
493.72	344.31
494.08	348.29
494.45	352.60
494.81	357.08
495.17	361.61
495.54	366.57
495.90	371.71
496.26	376.92
496.63	382.40
496.99	388.11
497.35	394.05
497.72	400.25
498.08	406.62
498.44	413.46
498.80	420.54
499.17	427.95
499.53	435.52
499.89	443.49
500.26	451.67
500.62	459.86
500.98	468.60
501.34	477.73
501.71	487.14
502.07	496.87
502.43	506.77
502.79	516.89
503.16	527.45
503.52	538.31
503.88	549.55
504.24	561.17
504.60	573.06
504.97	585.41
505.33	598.04
505.69	611.35
506.05	624.69
506.41	638.31
506.78	652.11
507.14	666.24
507.50	680.72
507.86	695.52
508.22	710.90
508.59	726.36
508.95	742.22
509.31	758.47
509.67	774.94
510.03	791.76
510.39	809.37
510.75	826.98
511.12	845.07
511.48	863.32
511.84	881.70
512.20	900.41
512.56	919.62
512.92	939.11
513.28	958.66
513.64	978.29
514.00	998.00
514.37	1018.27
514.73	1038.99
515.09	1059.58
515.45	1080.66
515.81	1101.77
516.17	1123.14
516.53	1144.45
516.89	1165.98
517.25	1187.67
517.61	1209.36
517.97	1230.81
518.33	1252.55
518.69	1274.23
519.05	1296.30
519.41	1318.57
519.77	1340.98
520.13	1362.95
520.49	1385.19
520.85	1407.65
521.21	1430.50
521.57	1453.79
521.93	1475.76
522.29	1498.49
522.65	1521.18
523.01	1543.37
523.37	1565.59
523.73	1587.90
524.09	1610.18
524.45	1632.27
524.81	1654.55
525.17	1676.96
525.53	1699.53
525.89	1721.75
526.25	1743.72
526.61	1765.01
526.97	1786.80
527.33	1808.16
527.68	1829.67
528.04	1850.72
528.40	1870.97
528.76	1891.53
529.12	1911.74
529.48	1933.20
529.84	1953.54
530.20	1973.82
530.56	1994.25
530.91	2014.99
531.27	2035.40
531.63	2054.96
531.99	2075.03
532.35	2094.14
532.71	2113.44
533.07	2132.60
533.42	2150.92
533.78	2169.83
534.14	2188.43
534.50	2205.63
534.86	2223.70
535.21	2240.19
535.57	2257.69
535.93	2275.20
536.29	2291.77
536.65	2308.46
537.00	2324.16
537.36	2339.29
537.72	2354.45
538.08	2369.65
538.44	2384.93
538.79	2400.23
539.15	2414.97
539.51	2429.21
539.87	2444.37
540.22	2458.49
540.58	2473.43
540.94	2487.93
541.29	2500.90
541.65	2512.93
542.01	2526.02
542.37	2537.48
542.72	2549.80
543.08	2560.63
543.44	2572.35
543.79	2582.58
544.15	2592.89
544.51	2603.86
544.87	2615.15
545.22	2624.52
545.58	2633.00
545.94	2640.08
546.29	2645.99
546.65	2652.57
547.01	2658.93
547.36	2664.64
547.72	2669.94
548.07	2673.65
548.43	2677.52
548.79	2681.17
549.14	2685.84
549.50	2689.97
549.86	2694.37
550.21	2698.53
550.57	2702.61
550.92	2704.89
551.28	2707.50
551.64	2709.84
551.99	2712.13
552.35	2712.98
552.70	2715.31
553.06	2718.00
553.41	2720.59
553.77	2723.92
554.13	2726.17
554.48	2728.06
554.84	2729.42
555.19	2730.02
555.55	2730.64
555.90	2730.93
556.26	2731.70
556.61	2731.63
556.97	2730.31
557.32	2729.82
557.68	2727.77
558.03	2726.40
558.39	2725.00
558.74	2724.70
559.10	2723.22
559.45	2721.04
559.81	2720.44
560.16	2717.78
560.52	2715.13
560.87	2711.98
561.23	2708.08
561.58	2705.57
561.94	2702.25
562.29	2698.50
562.64	2696.40
563.00	2693.99
563.35	2691.84
563.71	2689.84
564.06	2687.68
564.42	2685.69
564.77	2683.10
565.12	2681.55
565.48	2678.11
565.83	2675.20
566.19	2671.86
566.54	2667.78
566.89	2664.37
567.25	2660.40
567.60	2657.25
567.96	2653.95
568.31	2650.98
568.66	2647.12
569.02	2642.79
569.37	2637.97
569.72	2634.08
570.08	2628.73
570.43	2622.89
570.78	2617.47
571.14	2611.03
571.49	2604.30
571.84	2598.35
572.20	2591.31
572.55	2584.88
572.90	2578.07
573.26	2570.88
573.61	2563.87
573.96	2557.39
574.31	2549.30
574.67	2541.22
575.02	2532.75
575.37	2523.90
575.72	2514.80
576.08	2507.07
576.43	2498.30
576.78	2490.22
577.13	2482.16
577.49	2474.31
577.84	2466.72
578.19	2458.79
578.54	2451.46
578.90	2444.57
579.25	2436.06
579.60	2427.18
579.95	2417.30
580.30	2409.52
580.66	2401.65
581.01	2392.54
581.36	2383.24
581.71	2375.00
582.06	2366.45
582.42	2358.45
582.77	2349.55
583.12	2340.59
583.47	2332.29
583.82	2324.04
584.17	2314.82
584.53	2305.88
584.88	2296.55
585.23	2287.25
585.58	2277.69
585.93	2267.93
586.28	2258.76
586.63	2249.81
586.98	2241.50
587.34	2233.58
587.69	2224.46
588.04	2215.47
588.39	2206.81
588.74	2198.10
589.09	2189.27
589.44	2179.79
589.79	2171.11
590.14	2163.07
590.49	2154.87
590.84	2145.82
591.19	2137.46
591.54	2129.18
591.89	2119.17
592.25	2110.27
592.60	2100.68
592.95	2091.29
593.30	2081.82
593.65	2072.02
594.00	2062.49
594.35	2054.41
594.70	2045.08
595.05	2036.32
595.40	2027.35
595.75	2018.00
596.10	2009.77
596.45	2001.25
596.80	1993.34
597.15	1985.00
597.50	1975.84
597.85	1967.33
598.19	1958.50
598.54	1950.02
598.89	1941.85
599.24	1935.07
599.59	1927.52
599.94	1920.81
600.29	1913.28
600.64	1905.73
600.99	1897.52
601.34	1890.56
601.69	1881.58
602.04	1873.61
602.39	1865.48
602.74	1857.76
603.08	1851.25
603.43	1844.02
603.78	1836.00
604.13	1828.25
604.48	1820.18
604.83	1813.46
605.18	1806.39
605.53	1799.21
605.87	1791.45
606.22	1784.32
606.57	1776.23
606.92	1768.18
607.27	1760.04
607.62	1752.69
607.96	1745.58
608.31	1739.44
608.66	1731.40
609.01	1724.08
609.36	1716.39
609.70	1708.67
610.05	1701.01
610.40	1692.83
610.75	1684.33
611.10	1676.61
611.44	1667.56
611.79	1658.90
612.14	1649.17
612.49	1639.63
612.83	1630.60
613.18	1621.16
613.53	1611.92
613.88	1602.35
614.22	1593.69
614.57	1584.64
614.92	1575.34
615.27	1566.00
615.61	1556.00
615.96	1547.18
616.31	1538.65
616.65	1530.95
617.00	1522.74
617.35	1513.97
617.70	1505.05
618.04	1496.26
618.39	1487.10
618.74	1478.90
619.08	1470.05
619.43	1462.25
619.78	1454.48
620.12	1446.48
620.47	1438.88
620.82	1430.24
621.16	1422.05
621.51	1413.39
621.85	1404.99
622.20	1396.62
622.55	1388.22
622.89	1380.17
623.24	1372.04
623.59	1363.20
623.93	1354.61
624.28	1346.30
624.62	1338.23
624.97	1330.06
625.32	1322.19
625.66	1314.87
626.01	1307.53
626.35	1300.32
626.70	1292.80
627.04	1285.54
627.39	1277.95
627.73	1270.20
628.08	1263.31
628.43	1255.87
628.77	1248.74
629.12	1241.25
629.46	1234.37
629.81	1227.21
630.15	1219.88
630.50	1212.41
630.84	1205.18
631.19	1197.95
631.53	1190.97
631.88	1183.50
632.22	1176.06
632.57	1169.19
632.91	1161.59
633.26	1154.10
633.60	1147.05
633.95	1140.06
634.29	1132.70
634.64	1125.75
634.98	1119.03
635.32	1112.00
635.67	1105.70
636.01	1099.01
636.36	1092.52
636.70	1086.10
637.05	1079.54
637.39	1073.29
637.73	1067.40
638.08	1061.73
638.42	1055.81
638.77	1049.35
639.11	1043.01
639.45	1036.89
639.80	1030.29
640.14	1024.03
640.49	1017.81
640.83	1011.54
641.17	1005.37
641.52	999.25
641.86	992.84
642.20	986.45
642.55	979.86
642.89	973.41
643.23	966.95
643.58	960.85
643.92	954.32
644.26	947.93
644.61	941.71
644.95	935.45
645.29	929.02
645.64	922.44
645.98	916.28
646.32	910.49
646.66	904.45
647.01	898.52
647.35	892.66
647.69	886.40
648.04	880.47
648.38	874.26
648.72	868.29
649.06	862.45
649.41	856.51
649.75	850.88
650.09	844.95
650.43	839.10
650.78	833.04
651.12	826.90
651.46	821.38
651.80	815.47
652.14	809.48
652.49	803.73
652.83	797.87
653.17	791.82
653.51	785.89
653.85	780.28
654.20	774.29
654.54	768.47
654.88	763.01
655.22	757.20
655.56	751.47
655.90	745.71
656.25	740.02
656.59	734.43
656.93	729.17
657.27	724.08
657.61	718.76
657.95	713.69
658.29	708.66
658.64	703.55
658.98	698.32
659.32	692.87
659.66	687.55
660.00	682.37
660.34	677.20
660.68	672.18
661.02	667.06
661.36	662.50
661.70	657.83
662.05	653.16
662.39	648.78
662.73	644.39
663.07	639.98
663.41	635.64
663.75	631.22
664.09	626.40
664.43	621.59
664.77	617.31
665.11	612.76
665.45	608.38
665.79	603.88
666.13	599.60
666.47	595.58
666.81	591.59
667.15	587.53
667.49	583.70
667.83	579.69
668.17	575.83
668.51	571.90
668.85	568.02
669.19	564.24
669.53	560.21
669.87	556.24
670.21	552.35
670.55	548.41
670.89	544.82
671.23	541.56
671.57	538.25
671.91	534.51
672.25	531.13
672.58	527.58
672.92	524.12
673.26	521.00
673.60	517.68
673.94	514.31
674.28	511.14
674.62	507.93
674.96	504.80
675.30	501.78
675.64	498.60
675.97	495.42
676.31	492.45
676.65	489.64
676.99	486.87
677.33	483.87
677.67	481.04
678.01	478.01
678.34	474.94
678.68	472.08
679.02	469.21
679.36	466.34
679.70	463.71
680.04	460.84
680.37	457.86
680.71	455.07
681.05	452.43
681.39	449.59
681.73	447.05
682.06	444.41
682.40	441.80
682.74	439.25
683.08	436.82
683.42	434.19
683.75	431.57
684.09	428.98
684.43	426.60
684.77	424.08
685.10	421.69
685.44	419.25
685.78	416.78
686.12	414.61
686.45	412.28
686.79	410.00
687.13	407.89
687.46	405.75
687.80	403.64
688.14	401.31
688.48	399.21
688.81	396.84
689.15	394.65
689.49	392.39
689.82	390.09
690.16	387.77
690.50	385.51
690.83	383.26
691.17	381.05
691.51	378.89
691.84	376.81
692.18	374.69
692.52	372.65
692.85	370.73
693.19	368.75
693.52	366.77
693.86	364.78
694.20	362.80
694.53	360.85
694.87	358.87
695.21	356.97
695.54	355.13
695.88	353.28
696.21	351.47
696.55	349.67
696.88	348.06
697.22	346.41
697.56	344.87
697.89	343.31
698.23	341.75
698.56	340.10
698.90	338.59
699.23	337.03
699.57	335.49
699.90	333.96
700.24	332.40
700.58	330.86
700.91	329.26
701.25	327.87
701.58	326.48
701.92	325.10
702.25	323.63
702.59	322.21
702.92	320.88
703.26	319.48
703.59	318.25
703.93	317.04
704.26	315.68
704.60	314.27
704.93	312.98
705.26	311.73
705.60	310.60
705.93	309.21
706.27	308.05
706.60	306.90
706.94	305.73
707.27	304.42
707.61	303.31
707.94	302.20
708.27	301.06
708.61	299.79
708.94	298.67
709.28	297.59
709.61	296.59
709.94	295.62
710.28	294.59
710.61	293.67
710.95	292.46
711.28	291.60
711.61	290.55
711.95	289.55
712.28	288.49
712.61	287.43
712.95	286.57
713.28	285.60
713.61	284.60
713.95	283.61
714.28	282.82
714.61	281.83
714.95	280.91
715.28	279.93
715.61	279.05
715.95	278.09
716.28	277.22
716.61	276.25
716.95	275.30
717.28	274.47
717.61	273.51
717.94	272.77
718.28	271.92
718.61	271.22
718.94	270.50
719.27	269.74
719.61	269.04
719.94	268.30
720.27	267.55
720.60	266.83
720.94	266.08
721.27	265.40
721.60	264.81
721.93	264.24
722.27	263.70
722.60	263.18
722.93	262.59
723.26	262.04
723.59	261.44
723.93	260.85
724.26	260.29
724.59	259.61
724.92	259.06
725.25	258.50
725.59	257.95
725.92	257.46
726.25	257.01
726.58	256.59
726.91	256.10
727.24	255.61
727.57	255.19
727.91	254.68
728.24	254.25
728.57	253.77
728.90	253.37
729.23	252.86
729.56	252.40
729.89	252.00
730.22	251.57
730.55	251.15
730.89	250.71
731.22	250.24
731.55	249.84
731.88	249.42
732.21	248.97
732.54	248.52
732.87	248.05
733.20	247.68
733.53	247.20
733.86	246.77
734.19	246.37
734.52	245.94
734.85	245.74
735.18	245.25
735.51	244.84
735.84	244.41
736.17	244.06
736.50	243.73
736.83	243.58
737.16	243.21
737.49	242.83
737.82	242.46
738.15	242.15
738.48	241.82
738.81	241.41
739.14	241.04
739.47	240.65
739.80	240.32
740.13	239.93
740.46	239.46
740.79	239.17
741.12	238.84
741.45	238.53
741.78	238.15
742.11	237.89
742.44	237.56
742.77	237.30
743.10	236.97
743.43	236.59
743.75	236.07
744.08	235.95
744.41	235.60
744.74	235.39
745.07	235.03
745.40	234.83
745.73	234.67
746.06	234.38
746.39	234.22
746.71	233.86
747.04	233.59
747.37	233.40
747.70	233.06
748.03	232.77
748.36	232.52
748.68	232.23
749.01	231.93
749.34	231.70
749.67	231.40
750.00	231.15
750.33	231.07
750.65	230.79
750.98	230.37
751.31	230.15
751.64	229.90
751.97	229.73
752.29	229.46
752.62	229.16
752.95	228.99
753.28	228.68
753.60	228.45
753.93	228.32
754.26	228.04
754.59	227.80
754.91	227.65
755.24	227.41
755.57	227.21
755.90	227.02
756.22	226.79
756.55	226.58
756.88	226.40
757.20	226.03
757.53	225.77
757.86	225.57
758.19	225.42
758.51	225.20
758.84	224.96
759.17	224.75
759.49	224.51
759.82	224.37
760.15	224.21
760.47	224.10
760.80	223.84
761.13	223.74
761.45	223.62
761.78	223.44
762.11	223.30
762.43	223.12
762.76	222.94
763.08	222.85
763.41	222.72
763.74	222.55
764.06	222.41
764.39	222.32
764.71	222.19
765.04	222.02
765.37	221.86
765.69	221.73
766.02	221.62
766.34	221.51
766.67	221.35
767.00	221.26
767.32	221.25
767.65	221.30
767.97	221.19
768.30	221.06
768.62	220.89
768.95	220.82
769.27	220.72
769.60	220.70
769.92	220.50
770.25	220.36
770.57	220.24
770.90	220.08
771.22	219.98
771.55	219.90
771.87	219.79
772.20	219.69
772.52	219.71
772.85	219.79
773.17	219.75
773.50	219.63
773.82	219.53
774.15	219.35
774.47	219.10
774.80	218.97
775.12	218.92
775.45	218.83
775.77	218.75
776.09	218.68
776.42	218.59
776.74	218.59
777.07	218.46
777.39	218.38
777.72	218.30
778.04	218.30
778.36	218.19
778.69	218.19
779.01	218.10
779.33	217.95
779.66	217.64
779.98	217.58
780.31	217.53
780.63	217.52
780.95	217.50
781.28	217.45
781.60	217.40
781.92	217.22
782.25	217.19
782.57	217.12
782.89	217.05
783.22	216.95
783.54	216.78
783.86	216.79
784.19	216.72
784.51	216.72
784.83	216.56
785.16	216.50
785.48	216.37
785.80	216.34
786.12	216.30
786.45	216.28
786.77	216.20
787.09	216.08
787.42	215.95
787.74	215.85
788.06	215.85
788.38	215.77
788.71	215.77
789.03	215.80
789.35	215.71
789.67	215.65
789.99	215.63
790.32	215.56
790.64	215.53
790.96	215.63
791.28	215.55
791.61	215.52
791.93	215.43
792.25	215.40
792.57	215.49
792.89	215.41
793.21	215.45
793.54	215.31
793.86	215.27
794.18	215.29
794.50	215.24
794.82	215.16
795.14	215.17
795.47	215.19
795.79	215.04
796.11	214.97
796.43	214.94
796.75	214.83
797.07	214.87
797.39	214.91
797.71	214.79
798.04	214.77
798.36	214.73
798.68	214.77
799.00	214.75
799.32	214.61
799.64	214.59
799.96	214.53
800.28	214.67
800.60	214.70
800.92	214.59
801.24	214.52
801.56	214.47
801.89	214.40
802.21	214.38
802.53	214.38
802.85	214.36
803.17	214.39
803.49	214.36
803.81	214.27
804.13	214.11
804.45	214.03
804.77	214.01
805.09	214.05
805.41	213.99
805.73	213.98
806.05	213.93
806.37	213.90
806.69	213.88
807.01	213.86
807.33	213.78
807.65	213.79
807.97	213.91
808.28	213.90
808.60	213.91
808.92	213.90
809.24	214.02
809.56	214.02
809.88	213.91
810.20	213.94
810.52	213.95
810.84	213.93
811.16	213.92
811.48	213.84
811.80	213.85
812.12	213.76
812.43	213.72
812.75	213.72
813.07	213.70
813.39	213.68
813.71	213.60
814.03	213.54
814.35	213.55
814.67	213.40
814.98	213.35
815.30	213.32
815.62	213.27
815.94	213.16
816.26	213.17
816.58	213.14
816.89	213.09
817.21	213.06
817.53	213.09
817.85	213.08
818.17	213.05
818.48	212.95
818.80	213.02
819.12	213.01
819.44	212.90
819.76	212.89
820.07	212.93
820.39	212.85
820.71	212.85
821.03	212.81
821.34	212.79
821.66	212.76
821.98	212.73
822.30	212.67
822.61	212.68
822.93	212.58
823.25	212.57
823.57	212.60
823.88	212.56
824.20	212.53
824.52	212.54
824.83	212.60
825.15	212.59
825.47	212.57
825.79	212.56
826.10	212.62
826.42	212.54
826.74	212.41
827.05	212.37
827.37	212.40
827.69	212.35
828.00	212.36
828.32	212.40
828.64	212.36
828.95	212.40
829.27	212.35
829.58	212.37
829.90	212.35
830.22	212.28
830.53	212.30
830.85	212.30
831.17	212.20
831.48	212.15
831.80	212.15
832.11	212.10
832.43	212.03
832.75	211.97
833.06	212.09
833.38	212.07
833.69	212.06
834.01	212.07
834.32	212.13
834.64	212.09
834.96	212.10
835.27	212.04
835.59	212.00
835.90	211.94
836.22	211.90
836.53	211.85
836.85	211.87
837.16	212.00
837.48	211.95
837.79	212.01
838.11	212.00
838.42	212.05
838.74	212.01
839.05	212.00
839.37	212.01
839.68	211.89
840.00	211.93
840.31	211.99
840.63	211.97
840.94	211.95
841.26	211.95
841.57	211.87
841.88	211.93
842.20	211.91
842.51	211.94
842.83	211.96
843.14	212.20
843.46	212.21
843.77	212.14
844.08	212.15
844.40	212.10
844.71	212.13
845.03	212.03
845.34	212.07
845.65	212.08
845.97	212.07
846.28	212.04
846.60	212.01
846.91	211.98
847.22	211.99
847.54	212.00
847.85	211.93
848.16	211.99
848.48	211.96
848.79	212.01
849.10	212.01
849.42	211.97
849.73	211.80
850.04	211.79
850.36	211.73
850.67	211.75
850.98	211.83
851.30	211.77
851.61	211.83
851.92	211.87
852.23	211.95
852.55	211.97
852.86	212.06
853.17	212.10
853.49	212.14
853.80	212.15
854.11	212.08
854.42	212.17
854.74	212.17
855.05	212.19
855.36	212.10
855.67	212.12
855.99	212.14
856.30	212.29
856.61	212.25
856.92	212.22
857.23	212.22
857.55	212.17
857.86	212.20
858.17	212.24
858.48	212.21
858.79	212.16
859.11	212.21
859.42	212.13
859.73	212.04
860.04	212.03
860.35	211.99
860.66	212.07
860.98	212.00
861.29	212.00
861.60	212.00
861.91	212.01
862.22	211.98
862.53	212.00
862.84	211.78
863.16	211.87
863.47	211.82
863.78	211.79
864.09	211.75
864.40	211.76
864.71	211.68
865.02	211.63
865.33	211.63
865.64	211.53
865.95	211.58
866.27	211.73
866.58	211.74
866.89	211.72
867.20	211.61
867.51	211.57
867.82	211.56
868.13	211.58
868.44	211.51
868.75	211.49
869.06	211.51
869.37	211.52
869.68	211.48
869.99	211.58
870.30	211.59
870.61	211.63
870.92	211.56
871.23	211.56
871.54	211.60
871.85	211.64
872.16	211.67
872.47	211.62
872.78	211.52
873.09	211.47
873.40	211.50
873.71	211.53
874.02	211.51
874.33	211.46
874.64	211.46
874.95	211.55
875.26	211.56
875.56	211.57
875.87	211.58
876.18	211.60
876.49	211.74
876.80	211.75
877.11	211.71
877.42	211.69
877.73	211.69
878.04	211.65
878.35	211.56
878.66	211.53
878.96	211.55
879.27	211.55
879.58	211.59
879.89	211.56
880.20	211.58
880.51	211.61
880.82	211.63
881.12	211.58
881.43	211.54
881.74	211.51
882.05	211.44
882.36	211.50
882.67	211.43
882.97	211.15
883.28	211.05
883.59	211.14
883.90	211.19
884.21	211.16
884.51	211.13
884.82	211.15
885.13	211.16
885.44	211.17
885.74	211.17
886.05	211.10
886.36	211.14
886.67	211.11
886.98	211.26
887.28	211.22
887.59	211.30
887.90	211.26
888.20	211.30
888.51	211.40
888.82	211.30
889.13	211.33
889.43	211.60
889.74	211.66
890.05	211.62
890.35	211.66
890.66	211.71
890.97	211.75
891.28	211.72
891.58	211.73
891.89	211.74
892.20	211.79
892.50	211.85
892.81	211.77
893.12	211.81
893.42	211.72
893.73	211.83
894.04	211.85
894.34	211.91
894.65	211.80
894.95	211.75
895.26	211.77
895.57	211.84
895.87	211.67
896.18	211.69
896.48	211.69
896.79	211.74
897.10	211.71
897.40	211.74
897.71	211.76
898.01	211.74
898.32	211.72
898.63	211.69
898.93	211.77
899.24	211.82
899.54	211.79
899.85	211.75
900.15	211.70
900.46	211.66
900.76	211.69
901.07	211.74
901.38	211.71
901.68	211.75
901.99	211.68
902.29	211.66
902.60	211.63
902.90	211.55
903.21	211.52
903.51	211.51
903.82	211.52
904.12	211.62
904.43	211.67
904.73	211.66
905.03	211.64
905.34	211.70
905.64	211.70
905.95	211.65
906.25	211.66
906.56	211.69
906.86	211.67
907.17	211.61
907.47	211.62
907.77	211.63
908.08	211.59
908.38	211.57
908.69	211.55
908.99	211.56
909.30	211.58
909.60	211.50
909.90	211.54
910.21	211.47
910.51	211.32
910.81	211.31
911.12	211.26
911.42	211.18
911.73	211.06
912.03	211.07
912.33	211.14
912.64	211.18
912.94	211.09
913.24	211.04
913.55	210.99
913.85	210.99
914.15	210.95
914.46	210.91
914.76	210.93
915.06	210.94
915.37	210.95
915.67	210.95
915.97	210.95
916.27	210.86
916.58	210.86
916.88	210.90
917.18	210.78
917.49	210.92
917.79	210.99
918.09	210.96
918.39	210.92
918.70	210.90
919.00	210.84
919.30	210.86
919.60	210.85
919.91	210.91
920.21	210.90
920.51	210.85
920.81	210.87
921.12	210.87
921.42	210.90
921.72	210.86
922.02	210.82
922.32	210.89
922.63	210.91
922.93	210.99
923.23	210.96
923.53	211.00
923.83	210.89
924.13	210.90
924.44	210.85
924.74	210.91
925.04	210.93
925.34	210.96
925.64	210.97
925.94	210.96
926.24	211.00
926.55	210.96
926.85	211.06
927.15	211.09
927.45	211.08
927.75	211.05
928.05	211.07
928.35	211.15
928.65	211.15
928.95	211.12
929.26	211.00
929.56	211.02
929.86	211.08
930.16	211.05
930.46	211.06
930.76	211.10
931.06	210.97
931.36	210.90
931.66	210.88
931.96	210.85
932.26	210.91
932.56	210.79
932.86	210.83
933.16	210.77
933.46	210.72
933.76	210.67
934.06	210.72
934.36	210.77
934.66	210.70
934.96	210.69
935.26	210.79
935.56	210.82
935.86	210.87
936.16	210.82
936.46	210.78
936.76	210.75
937.06	210.68
937.36	210.80
937.66	210.77
937.96	210.70
938.26	210.68
938.56	210.67
938.86	210.70
939.16	210.77
939.46	210.75
939.76	210.76
940.06	210.77
940.35	210.67
940.65	210.62
940.95	210.62
941.25	210.54
941.55	210.43
941.85	210.44
942.15	210.44
942.45	210.56
942.75	210.61
943.04	210.64
943.34	210.69
943.64	210.61
943.94	210.69
944.24	210.77
944.54	210.82
944.84	210.76
945.13	210.74
945.43	210.73
945.73	210.73
946.03	210.72
946.33	210.70
946.62	210.74
946.92	210.64
947.22	210.67
947.52	210.72
947.82	210.80
948.11	210.77
948.41	210.70
948.71	210.58
949.01	210.57
949.31	210.54
949.60	210.55
949.90	210.57
950.20	210.56
950.50	210.54
950.79	210.51
951.09	210.59
951.39	210.59
951.69	210.50
951.98	210.55
952.28	210.59
952.58	210.64
952.87	210.61
953.17	210.67
953.47	210.62
953.76	210.61
954.06	210.54
954.36	210.57
954.66	210.59
954.95	210.65
955.25	210.64
955.55	210.65
955.84	210.66
956.14	210.68
956.44	210.66
956.73	210.70
957.03	210.68
957.32	210.65
957.62	210.68
957.92	210.80
958.21	210.83
958.51	211.00
958.81	210.96
959.10	211.09
959.40	211.16
959.69	211.15
959.99	211.21
960.29	211.22
960.58	211.20
960.88	211.33
961.17	211.30
961.47	211.30
961.76	211.25
962.06	211.26
962.36	211.24
962.65	211.27
962.95	211.20
963.24	211.26
963.54	211.21
963.83	211.22
964.13	211.16
964.42	211.03
964.72	210.83
965.01	210.90
965.31	210.80
965.60	210.79
965.90	210.98
966.19	210.96
966.49	211.00
966.78	210.98
967.08	210.93
967.37	211.01
967.67	211.03
967.96	211.03
968.26	211.00
968.55	211.01
968.85	211.01
969.14	211.06
969.43	211.06
969.73	211.13
970.02	211.04
970.32	211.05
970.61	211.11
970.91	211.15
971.20	211.10
971.49	211.11
971.79	211.12
972.08	211.06
972.38	211.00
972.67	210.93
972.96	210.95
973.26	210.85
973.55	210.80
973.85	210.84
974.14	210.90
974.43	210.93
974.73	210.91
975.02	210.85
975.31	210.79
975.61	210.71
975.90	210.69
976.19	210.77
976.49	210.75
976.78	210.77
977.07	210.68
977.37	210.70
977.66	210.65
977.95	210.56
978.24	210.48
978.54	210.53
978.83	210.55
979.12	210.60
979.42	210.68
979.71	210.70
980.00	210.61
980.29	210.65
980.59	210.62
980.88	210.69
981.17	210.73
981.46	210.74
981.76	210.82
982.05	210.84
982.34	210.85
982.63	210.89
982.93	210.87
983.22	210.94
983.51	210.97
983.80	211.02
984.09	211.10
984.39	211.11
984.68	211.15
984.97	211.16
985.26	211.10
985.55	211.08
985.85	211.01
986.14	211.05
986.43	211.02
986.72	211.02
987.01	210.96
987.30	211.01
987.59	211.03
987.89	211.02
988.18	211.11
988.47	211.05
988.76	211.02
989.05	211.03
989.34	210.99
989.63	211.07
989.92	211.18
990.22	211.07
990.51	211.06
990.80	210.99
991.09	210.99
991.38	211.06
991.67	211.07
991.96	211.06
992.25	211.08
992.54	211.01
992.83	211.00
993.12	210.94
993.41	210.92
993.70	210.97
993.99	211.00
994.28	210.95
994.58	211.07
994.87	211.06
995.16	211.04
995.45	211.12
995.74	211.07
996.03	211.04
996.32	211.21
996.61	211.28
996.90	211.30
997.19	211.32
997.48	211.35
997.77	211.31
998.06	211.36
998.34	211.38
998.63	211.45
998.92	211.46
999.21	211.60
999.50	211.56
999.79	211.57
1000.08	211.52
1000.37	211.45
1000.66	211.40
1000.95	211.41
1001.24	211.48
1001.53	211.45
1001.82	211.41
1002.11	211.32
1002.40	211.28
1002.68	211.30
1002.97	211.40
1003.26	211.37
1003.55	211.20
1003.84	211.25
1004.13	211.28
1004.42	211.23
1004.71	211.15
1004.99	211.10
1005.28	211.05
1005.57	210.99
1005.86	210.89
1006.15	210.83
1006.44	210.85
1006.72	210.83
1007.01	210.79
1007.30	210.69
1007.59	210.63
1007.88	210.63
1008.17	210.70
1008.45	210.61
1008.74	210.55
1009.03	210.45
1009.32	210.43
1009.60	210.53
1009.89	210.49
1010.18	210.38
1010.47	210.34
1010.76	210.45
1011.04	210.47
1011.33	210.54
1011.62	210.60
1011.91	210.62
1012.19	210.65
1012.48	210.57
1012.77	210.57
1013.05	210.64
1013.34	210.63
1013.63	210.68
1013.92	210.63
1014.20	210.58
1014.49	210.68
1014.78	210.65
1015.06	210.62
1015.35	210.63
1015.64	210.59
1015.92	210.66
1016.21	210.66
1016.50	210.73
1016.78	210.75
1017.07	210.84
1017.36	210.80
1017.64	210.80
1017.93	210.84
1018.22	210.87
1018.50	211.03
1018.79	211.01
1019.08	211.00
1019.36	211.09
1019.65	211.06
1019.93	211.18
1020.22	211.22
1020.51	211.29
1020.79	211.32
1021.08	210.70
1021.36	212.10
1021.65	210.95
1021.94	210.90
1022.22	211.90
1022.51	210.70
1022.79	212.30
1023.08	212.15
1023.36	213.55
1023.65	210.85
>>>>>End Processed Spectral Data<<<<<
