SpectraSuite Data File
++++++++++++++++++++++++++++++++++++
Date: Mon Feb 25 17:29:51 EST 2013
User: group
Dark Spectrum Present: No
Reference Spectrum Present: No
Number of Sampled Component Spectra: 1
Spectrometers: USB2E7196
Integration Time (usec): 52000 (USB2E7196)
Spectra Averaged: 20 (USB2E7196)
Boxcar Smoothing: 10 (USB2E7196)
Correct for Electrical Dark: No (USB2E7196)
Strobe/Lamp Enabled: No (USB2E7196)
Correct for Detector Non-linearity: No (USB2E7196)
Correct for Stray Light: No (USB2E7196)
Number of Pixels in Processed Spectrum: 2048
>>>>>Begin Processed Spectral Data<<<<<
339.09	0.00
339.48	199.35
339.86	199.55
340.24	202.15
340.63	202.05
341.01	206.75
341.39	205.30
341.78	207.50
342.16	208.70
342.54	209.55
342.93	198.12
343.31	208.15
343.69	208.71
344.07	209.18
344.46	209.63
344.84	210.04
345.22	210.21
345.60	210.53
345.99	210.73
346.37	210.88
346.75	210.94
347.13	210.99
347.52	211.05
347.90	211.11
348.28	211.14
348.66	211.24
349.05	211.28
349.43	211.34
349.81	211.45
350.19	211.53
350.57	211.60
350.96	211.70
351.34	211.79
351.72	211.88
352.10	212.03
352.48	212.10
352.87	212.27
353.25	212.40
353.63	212.50
354.01	212.53
354.39	212.64
354.77	212.79
355.15	212.97
355.54	213.03
355.92	213.08
356.30	213.18
356.68	213.35
357.06	213.37
357.44	213.45
357.82	213.48
358.20	213.57
358.58	213.70
358.97	213.80
359.35	213.90
359.73	213.91
360.11	213.95
360.49	214.02
360.87	214.05
361.25	214.09
361.63	214.18
362.01	214.30
362.39	214.33
362.77	214.36
363.15	214.40
363.53	214.41
363.91	214.46
364.29	214.46
364.67	214.34
365.05	214.35
365.43	214.37
365.81	214.44
366.19	214.54
366.57	214.50
366.95	214.45
367.33	214.40
367.71	214.43
368.09	214.44
368.47	214.37
368.85	214.29
369.23	214.33
369.61	214.22
369.99	214.24
370.37	214.17
370.75	214.16
371.13	214.08
371.51	214.11
371.89	214.10
372.27	214.10
372.65	214.07
373.03	214.10
373.41	214.03
373.78	213.99
374.16	213.79
374.54	213.68
374.92	213.66
375.30	213.65
375.68	213.53
376.06	213.53
376.44	213.45
376.82	213.41
377.19	213.35
377.57	213.32
377.95	213.14
378.33	213.11
378.71	212.99
379.09	212.92
379.47	212.88
379.84	212.80
380.22	212.63
380.60	212.52
380.98	212.42
381.36	212.36
381.73	212.25
382.11	212.24
382.49	212.22
382.87	212.09
383.25	212.02
383.62	212.19
384.00	212.12
384.38	212.11
384.76	212.09
385.13	212.07
385.51	211.96
385.89	211.90
386.27	211.84
386.64	211.88
387.02	211.86
387.40	211.73
387.78	211.59
388.15	211.57
388.53	211.51
388.91	211.51
389.29	211.52
389.66	211.51
390.04	211.41
390.42	211.43
390.79	211.43
391.17	211.42
391.55	211.29
391.92	211.28
392.30	211.29
392.68	211.19
393.05	211.22
393.43	211.24
393.81	211.26
394.18	211.20
394.56	211.15
394.94	211.10
395.31	211.13
395.69	211.21
396.06	211.35
396.44	211.41
396.82	211.32
397.19	211.41
397.57	211.39
397.95	211.54
398.32	211.52
398.70	211.60
399.07	211.68
399.45	211.67
399.82	211.68
400.20	211.76
400.58	211.84
400.95	211.72
401.33	211.81
401.70	212.00
402.08	212.09
402.45	212.12
402.83	212.31
403.20	212.34
403.58	212.42
403.95	212.46
404.33	212.55
404.71	212.65
405.08	212.74
405.46	212.77
405.83	212.86
406.21	212.98
406.58	213.10
406.96	213.20
407.33	213.35
407.70	213.43
408.08	213.66
408.45	213.88
408.83	214.20
409.20	214.36
409.58	214.50
409.95	214.82
410.33	215.10
410.70	215.26
411.08	215.65
411.45	216.01
411.82	216.39
412.20	216.82
412.57	217.25
412.95	217.55
413.32	218.09
413.69	218.49
414.07	218.99
414.44	219.46
414.82	219.96
415.19	220.59
415.56	221.37
415.94	221.98
416.31	222.76
416.68	223.47
417.06	224.36
417.43	225.17
417.81	226.12
418.18	227.13
418.55	228.13
418.93	229.22
419.30	230.31
419.67	231.47
420.04	232.66
420.42	234.07
420.79	235.64
421.16	237.10
421.54	238.75
421.91	240.39
422.28	242.09
422.66	243.96
423.03	245.73
423.40	247.46
423.77	249.40
424.15	251.26
424.52	253.30
424.89	255.48
425.26	257.65
425.64	259.68
426.01	261.85
426.38	264.30
426.75	266.67
427.13	269.22
427.50	271.75
427.87	274.46
428.24	277.06
428.61	279.56
428.99	282.46
429.36	285.44
429.73	288.36
430.10	291.38
430.47	294.42
430.85	297.61
431.22	301.02
431.59	304.63
431.96	308.15
432.33	311.93
432.70	315.56
433.08	319.86
433.45	323.93
433.82	328.00
434.19	332.39
434.56	336.70
434.93	340.65
435.30	344.83
435.68	349.32
436.05	353.69
436.42	358.06
436.79	362.21
437.16	366.73
437.53	371.39
437.90	375.94
438.27	380.57
438.64	385.27
439.01	389.55
439.38	393.31
439.75	396.97
440.13	401.30
440.50	405.40
440.87	408.53
441.24	411.88
441.61	415.56
441.98	418.30
442.35	421.42
442.72	424.82
443.09	427.98
443.46	429.85
443.83	431.17
444.20	432.31
444.57	433.90
444.94	434.52
445.31	435.21
445.68	436.13
446.05	436.39
446.42	435.84
446.79	435.29
447.16	434.62
447.53	434.18
447.90	432.35
448.27	430.53
448.64	428.28
449.01	426.50
449.37	423.44
449.74	420.41
450.11	417.04
450.48	413.04
450.85	408.96
451.22	405.59
451.59	402.46
451.96	399.42
452.33	395.24
452.70	391.52
453.07	387.11
453.43	382.45
453.80	378.02
454.17	373.85
454.54	369.95
454.91	365.83
455.28	361.69
455.65	357.75
456.02	353.98
456.38	350.63
456.75	346.54
457.12	343.10
457.49	339.85
457.86	336.51
458.23	333.81
458.59	330.93
458.96	327.89
459.33	325.13
459.70	322.45
460.07	320.23
460.43	317.64
460.80	315.34
461.17	313.28
461.54	311.18
461.91	309.26
462.27	307.14
462.64	305.29
463.01	303.45
463.38	301.80
463.74	299.89
464.11	298.26
464.48	296.90
464.85	295.38
465.21	294.18
465.58	292.99
465.95	291.56
466.32	290.27
466.68	289.10
467.05	287.95
467.42	286.74
467.78	285.53
468.15	284.50
468.52	283.72
468.88	282.61
469.25	281.61
469.62	280.78
469.98	280.00
470.35	279.33
470.72	278.58
471.08	277.73
471.45	277.12
471.82	276.55
472.18	275.85
472.55	275.44
472.92	274.92
473.28	274.42
473.65	273.99
474.02	273.55
474.38	273.26
474.75	272.99
475.11	272.72
475.48	272.57
475.85	272.38
476.21	272.27
476.58	272.23
476.94	272.27
477.31	272.24
477.67	272.26
478.04	272.36
478.41	272.61
478.77	273.01
479.14	273.16
479.50	273.45
479.87	273.85
480.23	274.29
480.60	274.65
480.96	275.08
481.33	275.71
481.69	276.40
482.06	277.02
482.42	277.77
482.79	278.52
483.15	279.40
483.52	280.46
483.88	281.38
484.25	282.44
484.61	283.50
484.98	284.68
485.34	286.07
485.71	287.39
486.07	288.76
486.44	290.05
486.80	291.64
487.17	293.25
487.53	295.00
487.90	296.86
488.26	298.89
488.62	300.97
488.99	303.05
489.35	305.17
489.72	307.40
490.08	309.82
490.44	312.34
490.81	315.00
491.17	317.74
491.54	320.75
491.90	323.85
492.26	326.98
492.63	330.31
492.99	333.75
493.36	337.56
493.72	341.38
494.08	345.36
494.45	349.63
494.81	354.09
495.17	358.68
495.54	363.42
495.90	368.41
496.26	373.60
496.63	378.97
496.99	384.60
497.35	390.50
497.72	396.58
498.08	402.83
498.44	409.34
498.80	416.31
499.17	423.47
499.53	430.77
499.89	438.68
500.26	446.60
500.62	454.70
500.98	463.13
501.34	471.87
501.71	480.88
502.07	490.17
502.43	499.56
502.79	509.33
503.16	519.61
503.52	529.99
503.88	540.76
504.24	551.83
504.60	563.23
504.97	575.01
505.33	587.04
505.69	599.77
506.05	612.79
506.41	625.68
506.78	638.87
507.14	652.37
507.50	666.22
507.86	680.26
508.22	694.87
508.59	709.47
508.95	724.62
509.31	740.17
509.67	755.77
510.03	771.92
510.39	788.39
510.75	805.06
511.12	821.98
511.48	839.31
511.84	856.73
512.20	874.40
512.56	892.39
512.92	910.38
513.28	928.48
513.64	946.52
514.00	964.95
514.37	983.82
514.73	1002.93
515.09	1021.91
515.45	1041.11
515.81	1060.57
516.17	1080.25
516.53	1099.82
516.89	1119.56
517.25	1139.24
517.61	1159.26
517.97	1178.85
518.33	1198.35
518.69	1218.12
519.05	1237.86
519.41	1257.73
519.77	1278.01
520.13	1297.76
520.49	1317.68
520.85	1337.87
521.21	1358.18
521.57	1378.72
521.93	1398.39
522.29	1418.93
522.65	1439.16
523.01	1459.14
523.37	1478.70
523.73	1498.01
524.09	1517.53
524.45	1537.11
524.81	1556.85
525.17	1576.39
525.53	1596.14
525.89	1615.77
526.25	1635.06
526.61	1653.61
526.97	1672.78
527.33	1691.11
527.68	1710.09
528.04	1728.54
528.40	1746.58
528.76	1764.64
529.12	1782.43
529.48	1800.92
529.84	1818.42
530.20	1835.85
530.56	1853.62
530.91	1871.35
531.27	1889.01
531.63	1905.88
531.99	1922.79
532.35	1939.24
532.71	1955.19
533.07	1971.56
533.42	1987.14
533.78	2003.29
534.14	2018.91
534.50	2033.15
534.86	2048.14
535.21	2061.57
535.57	2076.28
535.93	2090.12
536.29	2103.81
536.65	2117.51
537.00	2130.19
537.36	2142.59
537.72	2154.55
538.08	2166.98
538.44	2179.17
538.79	2191.93
539.15	2203.92
539.51	2215.64
539.87	2227.83
540.22	2239.33
540.58	2251.01
540.94	2262.50
541.29	2272.14
541.65	2281.82
542.01	2292.39
542.37	2301.75
542.72	2311.69
543.08	2320.01
543.44	2329.46
543.79	2337.05
544.15	2344.95
544.51	2353.50
544.87	2361.83
545.22	2369.14
545.58	2375.26
545.94	2380.36
546.29	2384.63
546.65	2389.01
547.01	2392.83
547.36	2396.22
547.72	2399.82
548.07	2402.17
548.43	2404.41
548.79	2406.71
549.14	2409.18
549.50	2411.56
549.86	2413.77
550.21	2415.76
550.57	2418.25
550.92	2419.17
551.28	2420.57
551.64	2421.17
551.99	2421.78
552.35	2421.86
552.70	2422.62
553.06	2423.63
553.41	2425.00
553.77	2426.11
554.13	2426.71
554.48	2427.24
554.84	2427.40
555.19	2426.57
555.55	2425.84
555.90	2424.66
556.26	2423.77
556.61	2422.57
556.97	2420.04
557.32	2418.35
557.68	2415.91
558.03	2413.25
558.39	2410.91
558.74	2409.34
559.10	2407.34
559.45	2404.54
559.81	2402.50
560.16	2399.42
560.52	2396.26
560.87	2392.65
561.23	2388.47
561.58	2385.50
561.94	2381.59
562.29	2377.50
562.64	2374.60
563.00	2371.35
563.35	2368.74
563.71	2366.33
564.06	2363.89
564.42	2361.55
564.77	2358.61
565.12	2356.24
565.48	2352.65
565.83	2349.24
566.19	2345.48
566.54	2340.99
566.89	2336.96
567.25	2332.78
567.60	2329.13
567.96	2325.27
568.31	2321.78
568.66	2317.79
569.02	2313.45
569.37	2308.79
569.72	2304.80
570.08	2299.55
570.43	2294.29
570.78	2288.61
571.14	2282.54
571.49	2276.09
571.84	2270.34
572.20	2263.83
572.55	2257.42
572.90	2251.19
573.26	2244.62
573.61	2238.02
573.96	2231.80
574.31	2224.49
574.67	2217.16
575.02	2209.31
575.37	2201.53
575.72	2193.35
576.08	2186.05
576.43	2177.92
576.78	2170.74
577.13	2163.70
577.49	2156.90
577.84	2149.92
578.19	2143.31
578.54	2136.75
578.90	2130.51
579.25	2122.97
579.60	2115.07
579.95	2107.30
580.30	2100.28
580.66	2093.07
581.01	2085.31
581.36	2077.28
581.71	2070.07
582.06	2062.77
582.42	2055.95
582.77	2048.10
583.12	2040.25
583.47	2033.01
583.82	2026.24
584.17	2018.24
584.53	2009.95
584.88	2002.09
585.23	1994.05
585.58	1985.80
585.93	1977.59
586.28	1969.70
586.63	1962.11
586.98	1954.95
587.34	1947.64
587.69	1939.74
588.04	1932.28
588.39	1924.91
588.74	1917.09
589.09	1909.75
589.44	1901.31
589.79	1893.72
590.14	1886.75
590.49	1879.81
590.84	1872.19
591.19	1865.02
591.54	1858.16
591.89	1849.88
592.25	1842.10
592.60	1834.28
592.95	1826.33
593.30	1818.28
593.65	1809.93
594.00	1801.95
594.35	1795.16
594.70	1787.46
595.05	1780.15
595.40	1772.44
595.75	1764.51
596.10	1757.95
596.45	1750.83
596.80	1744.41
597.15	1737.39
597.50	1729.88
597.85	1722.47
598.19	1715.15
598.54	1707.81
598.89	1700.56
599.24	1694.65
599.59	1688.45
599.94	1682.47
600.29	1675.84
600.64	1669.17
600.99	1662.12
601.34	1655.80
601.69	1648.22
602.04	1641.26
602.39	1634.28
602.74	1627.71
603.08	1622.21
603.43	1616.05
603.78	1609.19
604.13	1602.23
604.48	1595.50
604.83	1589.56
605.18	1583.76
605.53	1577.44
605.87	1570.98
606.22	1565.63
606.57	1559.17
606.92	1552.23
607.27	1545.32
607.62	1539.35
607.96	1533.73
608.31	1528.68
608.66	1522.34
609.01	1515.79
609.36	1509.29
609.70	1502.58
610.05	1495.82
610.40	1488.76
610.75	1481.48
611.10	1475.03
611.44	1467.54
611.79	1459.90
612.14	1452.07
612.49	1443.88
612.83	1436.16
613.18	1427.81
613.53	1419.16
613.88	1410.83
614.22	1403.25
614.57	1395.44
614.92	1387.19
615.27	1378.99
615.61	1370.57
615.96	1362.65
616.31	1355.78
616.65	1349.08
617.00	1342.22
617.35	1335.09
617.70	1327.49
618.04	1319.77
618.39	1311.87
618.74	1304.74
619.08	1297.59
619.43	1290.52
619.78	1283.90
620.12	1277.10
620.47	1270.69
620.82	1263.51
621.16	1256.55
621.51	1249.49
621.85	1242.26
622.20	1235.23
622.55	1228.20
622.89	1221.28
623.24	1214.64
623.59	1206.95
623.93	1199.33
624.28	1192.09
624.62	1185.07
624.97	1178.14
625.32	1171.38
625.66	1164.95
626.01	1158.75
626.35	1152.44
626.70	1145.71
627.04	1139.19
627.39	1132.73
627.73	1126.10
628.08	1120.20
628.43	1113.81
628.77	1107.24
629.12	1101.01
629.46	1095.35
629.81	1089.20
630.15	1082.82
630.50	1076.37
630.84	1070.24
631.19	1064.10
631.53	1058.31
631.88	1051.80
632.22	1045.30
632.57	1039.38
632.91	1032.88
633.26	1026.30
633.60	1020.09
633.95	1014.37
634.29	1008.03
634.64	1002.19
634.98	996.15
635.32	990.01
635.67	984.55
636.01	978.98
636.36	973.28
636.70	967.46
637.05	961.72
637.39	956.29
637.73	950.88
638.08	945.84
638.42	940.90
638.77	935.32
639.11	929.88
639.45	924.84
639.80	919.42
640.14	914.07
640.49	908.81
640.83	903.57
641.17	898.13
641.52	893.16
641.86	887.53
642.20	882.35
642.55	876.70
642.89	871.09
643.23	865.57
643.58	860.35
643.92	854.67
644.26	849.22
644.61	843.94
644.95	838.77
645.29	833.23
645.64	827.56
645.98	822.13
646.32	816.87
646.66	811.34
647.01	805.95
647.35	800.92
647.69	795.33
648.04	790.09
648.38	784.85
648.72	779.47
649.06	774.46
649.41	769.28
649.75	764.21
650.09	759.34
650.43	754.16
650.78	748.70
651.12	743.58
651.46	738.65
651.80	733.53
652.14	728.17
652.49	723.12
652.83	718.04
653.17	712.82
653.51	707.84
653.85	702.95
654.20	698.07
654.54	692.79
654.88	688.16
655.22	683.07
655.56	678.00
655.90	673.20
656.25	668.13
656.59	663.40
656.93	659.06
657.27	654.42
657.61	649.75
657.95	645.49
658.29	641.20
658.64	636.80
658.98	632.35
659.32	627.80
659.66	623.31
660.00	618.80
660.34	614.35
660.68	609.82
661.02	605.47
661.36	601.37
661.70	597.31
662.05	593.36
662.39	589.53
662.73	585.82
663.07	581.82
663.41	578.21
663.75	574.32
664.09	570.36
664.43	566.20
664.77	562.43
665.11	558.62
665.45	554.68
665.79	550.72
666.13	546.78
666.47	543.24
666.81	539.74
667.15	536.31
667.49	532.98
667.83	529.78
668.17	526.32
668.51	523.00
668.85	519.81
669.19	516.66
669.53	513.30
669.87	509.70
670.21	506.47
670.55	502.95
670.89	499.85
671.23	496.88
671.57	493.97
671.91	491.05
672.25	487.96
672.58	485.02
672.92	482.01
673.26	479.29
673.60	476.48
673.94	473.60
674.28	470.64
674.62	467.99
674.96	465.18
675.30	462.64
675.64	459.81
675.97	457.01
676.31	454.34
676.65	451.82
676.99	449.66
677.33	447.21
677.67	444.71
678.01	442.14
678.34	439.53
678.68	436.98
679.02	434.33
679.36	432.04
679.70	429.67
680.04	427.35
680.37	424.80
680.71	422.28
681.05	420.08
681.39	417.78
681.73	415.41
682.06	413.27
682.40	411.07
682.74	408.87
683.08	406.75
683.42	404.39
683.75	402.20
684.09	399.85
684.43	397.72
684.77	395.56
685.10	393.34
685.44	391.19
685.78	388.98
686.12	387.09
686.45	384.97
686.79	382.92
687.13	380.96
687.46	379.15
687.80	377.37
688.14	375.23
688.48	373.39
688.81	371.47
689.15	369.50
689.49	367.57
689.82	365.66
690.16	363.58
690.50	361.67
690.83	359.73
691.17	357.83
691.51	355.86
691.84	354.12
692.18	352.43
692.52	350.65
692.85	349.18
693.19	347.53
693.52	345.85
693.86	344.19
694.20	342.60
694.53	340.88
694.87	339.20
695.21	337.60
695.54	335.93
695.88	334.25
696.21	332.66
696.55	331.22
696.88	329.85
697.22	328.42
697.56	327.02
697.89	325.54
698.23	324.24
698.56	322.84
698.90	321.53
699.23	320.14
699.57	318.77
699.90	317.27
700.24	315.74
700.58	314.34
700.91	313.06
701.25	311.90
701.58	310.72
701.92	309.41
702.25	308.24
702.59	307.16
702.92	306.04
703.26	304.89
703.59	303.72
703.93	302.58
704.26	301.51
704.60	300.39
704.93	299.32
705.26	298.05
705.60	297.06
705.93	295.94
706.27	294.87
706.60	293.87
706.94	292.95
707.27	292.05
707.61	291.15
707.94	290.11
708.27	288.93
708.61	287.91
708.94	286.96
709.28	285.99
709.61	284.92
709.94	284.04
710.28	283.04
710.61	282.10
710.95	281.13
711.28	280.37
711.61	279.56
711.95	278.70
712.28	277.97
712.61	277.05
712.95	276.22
713.28	275.52
713.61	274.67
713.95	273.86
714.28	273.12
714.61	272.22
714.95	271.40
715.28	270.71
715.61	269.92
715.95	269.13
716.28	268.25
716.61	267.57
716.95	266.82
717.28	266.22
717.61	265.45
717.94	264.73
718.28	263.95
718.61	263.37
718.94	262.75
719.27	262.12
719.61	261.53
719.94	260.90
720.27	260.14
720.60	259.57
720.94	258.90
721.27	258.25
721.60	257.82
721.93	257.32
722.27	256.84
722.60	256.29
722.93	255.79
723.26	255.41
723.59	254.84
723.93	254.21
724.26	253.63
724.59	253.09
724.92	252.69
725.25	252.23
725.59	251.59
725.92	251.18
726.25	250.71
726.58	250.24
726.91	249.78
727.24	249.46
727.57	249.03
727.91	248.57
728.24	248.15
728.57	247.70
728.90	247.32
729.23	246.87
729.56	246.59
729.89	246.20
730.22	245.75
730.55	245.37
730.89	245.06
731.22	244.69
731.55	244.33
731.88	243.91
732.21	243.54
732.54	243.16
732.87	242.75
733.20	242.38
733.53	242.02
733.86	241.71
734.19	241.32
734.52	240.88
734.85	240.76
735.18	240.34
735.51	239.97
735.84	239.70
736.17	239.35
736.50	238.97
736.83	238.91
737.16	238.71
737.49	238.40
737.82	238.10
738.15	237.89
738.48	237.60
738.81	237.35
739.14	236.98
739.47	236.73
739.80	236.45
740.13	236.21
740.46	235.91
740.79	235.58
741.12	235.26
741.45	235.02
741.78	234.57
742.11	234.38
742.44	234.19
742.77	233.86
743.10	233.61
743.43	233.35
743.75	232.98
744.08	232.88
744.41	232.65
744.74	232.39
745.07	232.10
745.40	231.95
745.73	231.77
746.06	231.60
746.39	231.36
746.71	231.09
747.04	230.82
747.37	230.58
747.70	230.44
748.03	230.25
748.36	230.11
748.68	229.91
749.01	229.67
749.34	229.43
749.67	229.17
750.00	228.94
750.33	228.84
750.65	228.51
750.98	228.10
751.31	227.89
751.64	227.73
751.97	227.60
752.29	227.38
752.62	227.05
752.95	226.82
753.28	226.61
753.60	226.45
753.93	226.29
754.26	226.11
754.59	225.85
754.91	225.60
755.24	225.52
755.57	225.38
755.90	225.16
756.22	224.92
756.55	224.81
756.88	224.60
757.20	224.33
757.53	224.15
757.86	223.92
758.19	223.79
758.51	223.60
758.84	223.39
759.17	223.21
759.49	223.09
759.82	223.00
760.15	222.86
760.47	222.69
760.80	222.50
761.13	222.46
761.45	222.33
761.78	222.17
762.11	221.93
762.43	221.75
762.76	221.76
763.08	221.70
763.41	221.56
763.74	221.42
764.06	221.31
764.39	221.22
764.71	221.19
765.04	220.98
765.37	220.85
765.69	220.70
766.02	220.54
766.34	220.39
766.67	220.29
767.00	220.19
767.32	220.13
767.65	220.15
767.97	219.98
768.30	219.87
768.62	219.88
768.95	219.78
769.27	219.72
769.60	219.58
769.92	219.46
770.25	219.39
770.57	219.32
770.90	219.17
771.22	219.07
771.55	218.96
771.87	218.96
772.20	218.85
772.52	218.93
772.85	219.10
773.17	219.09
773.50	218.98
773.82	218.91
774.15	218.81
774.47	218.58
774.80	218.48
775.12	218.37
775.45	218.20
775.77	218.14
776.09	218.02
776.42	217.92
776.74	217.84
777.07	217.78
777.39	217.77
777.72	217.74
778.04	217.74
778.36	217.64
778.69	217.52
779.01	217.52
779.33	217.30
779.66	217.00
779.98	216.88
780.31	216.76
780.63	216.80
780.95	216.74
781.28	216.71
781.60	216.68
781.92	216.64
782.25	216.62
782.57	216.60
782.89	216.59
783.22	216.52
783.54	216.51
783.86	216.44
784.19	216.28
784.51	216.29
784.83	216.12
785.16	216.04
785.48	216.07
785.80	216.00
786.12	215.99
786.45	215.95
786.77	215.90
787.09	215.88
787.42	215.73
787.74	215.65
788.06	215.62
788.38	215.54
788.71	215.53
789.03	215.50
789.35	215.47
789.67	215.38
789.99	215.30
790.32	215.25
790.64	215.29
790.96	215.43
791.28	215.35
791.61	215.32
791.93	215.29
792.25	215.20
792.57	215.33
792.89	215.25
793.21	215.21
793.54	215.20
793.86	215.14
794.18	215.11
794.50	215.11
794.82	215.06
795.14	215.02
795.47	215.07
795.79	215.05
796.11	214.91
796.43	214.87
796.75	214.93
797.07	214.84
797.39	214.70
797.71	214.45
798.04	214.34
798.36	214.29
798.68	214.29
799.00	214.33
799.32	214.19
799.64	214.19
799.96	214.16
800.28	214.13
800.60	214.03
800.92	214.02
801.24	213.94
801.56	213.90
801.89	213.88
802.21	213.73
802.53	213.64
802.85	213.67
803.17	213.75
803.49	213.62
803.81	213.61
804.13	213.60
804.45	213.61
804.77	213.67
805.09	213.70
805.41	213.65
805.73	213.52
806.05	213.41
806.37	213.31
806.69	213.35
807.01	213.32
807.33	213.40
807.65	213.34
807.97	213.41
808.28	213.40
808.60	213.41
808.92	213.42
809.24	213.51
809.56	213.46
809.88	213.33
810.20	213.29
810.52	213.33
810.84	213.23
811.16	213.16
811.48	213.12
811.80	213.22
812.12	213.15
812.43	213.20
812.75	213.18
813.07	213.20
813.39	213.19
813.71	213.18
814.03	213.07
814.35	213.05
814.67	212.97
814.98	212.93
815.30	212.82
815.62	212.75
815.94	212.59
816.26	212.56
816.58	212.54
816.89	212.58
817.21	212.46
817.53	212.49
817.85	212.54
818.17	212.49
818.48	212.33
818.80	212.40
819.12	212.35
819.44	212.33
819.76	212.28
820.07	212.17
820.39	212.05
820.71	212.08
821.03	212.00
821.34	211.97
821.66	211.96
821.98	212.02
822.30	211.98
822.61	212.15
822.93	212.15
823.25	212.20
823.57	212.16
823.88	212.26
824.20	212.27
824.52	212.28
824.83	212.35
825.15	212.33
825.47	212.29
825.79	212.21
826.10	212.21
826.42	212.16
826.74	212.21
827.05	212.26
827.37	212.23
827.69	212.29
828.00	212.29
828.32	212.28
828.64	212.25
828.95	212.34
829.27	212.21
829.58	212.18
829.90	212.10
830.22	212.09
830.53	211.99
830.85	211.92
831.17	211.88
831.48	211.76
831.80	211.72
832.11	211.67
832.43	211.76
832.75	211.71
833.06	211.86
833.38	211.75
833.69	211.69
834.01	211.74
834.32	211.71
834.64	211.70
834.96	211.72
835.27	211.69
835.59	211.64
835.90	211.60
836.22	211.58
836.53	211.63
836.85	211.67
837.16	211.84
837.48	211.92
837.79	211.94
838.11	212.00
838.42	212.03
838.74	212.06
839.05	212.05
839.37	212.12
839.68	212.01
840.00	212.00
840.31	212.08
840.63	212.03
840.94	212.07
841.26	212.04
841.57	211.99
841.88	211.99
842.20	211.93
842.51	211.89
842.83	211.86
843.14	211.99
843.46	211.93
843.77	211.75
844.08	211.58
844.40	211.59
844.71	211.58
845.03	211.50
845.34	211.50
845.65	211.43
845.97	211.40
846.28	211.40
846.60	211.40
846.91	211.37
847.22	211.29
847.54	211.30
847.85	211.28
848.16	211.20
848.48	211.17
848.79	211.22
849.10	211.30
849.42	211.31
849.73	211.09
850.04	211.16
850.36	211.13
850.67	211.32
850.98	211.28
851.30	211.30
851.61	211.28
851.92	211.25
852.23	211.29
852.55	211.23
852.86	211.16
853.17	211.24
853.49	211.30
853.80	211.38
854.11	211.37
854.42	211.38
854.74	211.47
855.05	211.48
855.36	211.40
855.67	211.35
855.99	211.36
856.30	211.60
856.61	211.56
856.92	211.61
857.23	211.54
857.55	211.50
857.86	211.45
858.17	211.47
858.48	211.47
858.79	211.43
859.11	211.53
859.42	211.57
859.73	211.54
860.04	211.49
860.35	211.53
860.66	211.44
860.98	211.55
861.29	211.56
861.60	211.51
861.91	211.61
862.22	211.57
862.53	211.56
862.84	211.33
863.16	211.35
863.47	211.31
863.78	211.25
864.09	211.35
864.40	211.37
864.71	211.37
865.02	211.39
865.33	211.41
865.64	211.33
865.95	211.30
866.27	211.38
866.58	211.47
866.89	211.41
867.20	211.48
867.51	211.40
867.82	211.43
868.13	211.54
868.44	211.53
868.75	211.58
869.06	211.59
869.37	211.57
869.68	211.50
869.99	211.49
870.30	211.50
870.61	211.52
870.92	211.50
871.23	211.50
871.54	211.51
871.85	211.50
872.16	211.60
872.47	211.63
872.78	211.53
873.09	211.45
873.40	211.44
873.71	211.46
874.02	211.49
874.33	211.43
874.64	211.42
874.95	211.40
875.26	211.45
875.56	211.47
875.87	211.47
876.18	211.47
876.49	211.69
876.80	211.73
877.11	211.65
877.42	211.69
877.73	211.69
878.04	211.70
878.35	211.75
878.66	211.69
878.96	211.76
879.27	211.75
879.58	211.82
879.89	211.86
880.20	211.87
880.51	211.84
880.82	211.80
881.12	211.81
881.43	211.85
881.74	211.84
882.05	211.81
882.36	211.88
882.67	211.88
882.97	211.70
883.28	211.67
883.59	211.66
883.90	211.65
884.21	211.76
884.51	211.71
884.82	211.70
885.13	211.69
885.44	211.62
885.74	211.62
886.05	211.53
886.36	211.53
886.67	211.48
886.98	211.56
887.28	211.60
887.59	211.56
887.90	211.50
888.20	211.44
888.51	211.45
888.82	211.43
889.13	211.46
889.43	211.57
889.74	211.57
890.05	211.56
890.35	211.56
890.66	211.59
890.97	211.56
891.28	211.50
891.58	211.55
891.89	211.55
892.20	211.56
892.50	211.52
892.81	211.51
893.12	211.53
893.42	211.40
893.73	211.38
894.04	211.30
894.34	211.30
894.65	211.30
894.95	211.29
895.26	211.30
895.57	211.42
895.87	211.27
896.18	211.26
896.48	211.28
896.79	211.24
897.10	211.15
897.40	211.18
897.71	211.22
898.01	211.16
898.32	211.20
898.63	211.20
898.93	211.28
899.24	211.21
899.54	211.17
899.85	211.17
900.15	211.15
900.46	211.29
900.76	211.30
901.07	211.26
901.38	211.25
901.68	211.27
901.99	211.13
902.29	211.15
902.60	211.12
902.90	211.16
903.21	211.19
903.51	211.16
903.82	211.28
904.12	211.30
904.43	211.35
904.73	211.31
905.03	211.25
905.34	211.35
905.64	211.41
905.95	211.40
906.25	211.35
906.56	211.35
906.86	211.39
907.17	211.33
907.47	211.39
907.77	211.43
908.08	211.35
908.38	211.38
908.69	211.35
908.99	211.40
909.30	211.37
909.60	211.37
909.90	211.36
910.21	211.16
910.51	211.14
910.81	211.07
911.12	211.09
911.42	211.13
911.73	210.93
912.03	210.89
912.33	210.88
912.64	210.95
912.94	210.97
913.24	210.86
913.55	210.84
913.85	210.81
914.15	210.78
914.46	210.85
914.76	210.80
915.06	210.83
915.37	210.82
915.67	210.82
915.97	210.79
916.27	210.76
916.58	210.86
916.88	210.84
917.18	210.82
917.49	210.98
917.79	210.96
918.09	211.06
918.39	211.14
918.70	211.20
919.00	211.23
919.30	211.25
919.60	211.13
919.91	211.12
920.21	211.17
920.51	211.16
920.81	211.07
921.12	211.12
921.42	211.09
921.72	211.14
922.02	211.10
922.32	211.18
922.63	211.23
922.93	211.34
923.23	211.38
923.53	211.39
923.83	211.27
924.13	211.31
924.44	211.25
924.74	211.28
925.04	211.25
925.34	211.26
925.64	211.25
925.94	211.41
926.24	211.59
926.55	211.52
926.85	211.48
927.15	211.55
927.45	211.50
927.75	211.52
928.05	211.47
928.35	211.45
928.65	211.49
928.95	211.46
929.26	211.36
929.56	211.33
929.86	211.36
930.16	211.26
930.46	211.28
930.76	211.35
931.06	211.25
931.36	211.20
931.66	211.20
931.96	211.27
932.26	211.20
932.56	211.04
932.86	211.13
933.16	211.10
933.46	211.09
933.76	211.12
934.06	211.14
934.36	211.20
934.66	211.19
934.96	211.15
935.26	211.16
935.56	211.17
935.86	211.18
936.16	211.19
936.46	211.20
936.76	211.20
937.06	211.12
937.36	211.15
937.66	211.19
937.96	211.12
938.26	211.05
938.56	211.10
938.86	211.20
939.16	211.15
939.46	211.20
939.76	211.18
940.06	211.13
940.35	211.04
940.65	211.00
940.95	211.02
941.25	210.90
941.55	210.86
941.85	210.83
942.15	210.81
942.45	210.84
942.75	210.82
943.04	210.73
943.34	210.73
943.64	210.69
943.94	210.60
944.24	210.61
944.54	210.62
944.84	210.55
945.13	210.51
945.43	210.59
945.73	210.60
946.03	210.64
946.33	210.70
946.62	210.76
946.92	210.70
947.22	210.72
947.52	210.81
947.82	210.87
948.11	210.91
948.41	210.87
948.71	210.76
949.01	210.86
949.31	210.87
949.60	210.83
949.90	210.91
950.20	210.90
950.50	210.91
950.79	210.82
951.09	210.84
951.39	210.73
951.69	210.66
951.98	210.65
952.28	210.60
952.58	210.59
952.87	210.60
953.17	210.66
953.47	210.68
953.76	210.65
954.06	210.58
954.36	210.55
954.66	210.58
954.95	210.67
955.25	210.64
955.55	210.69
955.84	210.66
956.14	210.64
956.44	210.69
956.73	210.66
957.03	210.75
957.32	210.80
957.62	210.88
957.92	210.93
958.21	210.95
958.51	211.21
958.81	211.23
959.10	211.24
959.40	211.21
959.69	211.23
959.99	211.22
960.29	211.30
960.58	211.27
960.88	211.41
961.17	211.36
961.47	211.34
961.76	211.35
962.06	211.49
962.36	211.46
962.65	211.47
962.95	211.51
963.24	211.45
963.54	211.45
963.83	211.39
964.13	211.39
964.42	211.40
964.72	211.25
965.01	211.21
965.31	211.18
965.60	211.16
965.90	211.26
966.19	211.24
966.49	211.17
966.78	211.14
967.08	211.07
967.37	211.11
967.67	211.14
967.96	211.13
968.26	211.03
968.55	211.06
968.85	211.09
969.14	211.11
969.43	211.15
969.73	211.14
970.02	211.24
970.32	211.20
970.61	211.15
970.91	211.06
971.20	211.10
971.49	211.06
971.79	211.12
972.08	210.94
972.38	210.96
972.67	211.01
972.96	211.07
973.26	211.01
973.55	211.08
973.85	211.05
974.14	210.98
974.43	210.99
974.73	210.96
975.02	210.95
975.31	210.97
975.61	210.87
975.90	210.79
976.19	210.73
976.49	210.75
976.78	210.80
977.07	210.81
977.37	210.80
977.66	210.90
977.95	210.83
978.24	210.83
978.54	210.86
978.83	210.83
979.12	210.83
979.42	210.86
979.71	210.83
980.00	210.82
980.29	210.91
980.59	210.94
980.88	210.92
981.17	210.86
981.46	210.85
981.76	210.89
982.05	210.95
982.34	210.96
982.63	210.91
982.93	210.89
983.22	210.91
983.51	210.88
983.80	210.86
984.09	210.92
984.39	210.93
984.68	210.90
984.97	210.93
985.26	210.86
985.55	210.85
985.85	210.72
986.14	210.74
986.43	210.70
986.72	210.70
987.01	210.68
987.30	210.74
987.59	210.75
987.89	210.79
988.18	210.71
988.47	210.73
988.76	210.75
989.05	210.72
989.34	210.74
989.63	210.76
989.92	210.75
990.22	210.76
990.51	210.80
990.80	210.76
991.09	210.73
991.38	210.78
991.67	210.76
991.96	210.80
992.25	210.83
992.54	210.84
992.83	210.87
993.12	210.83
993.41	210.87
993.70	210.93
993.99	211.02
994.28	211.07
994.58	211.02
994.87	210.96
995.16	210.94
995.45	210.92
995.74	210.87
996.03	210.89
996.32	210.88
996.61	210.91
996.90	210.89
997.19	210.94
997.48	210.95
997.77	210.91
998.06	210.93
998.34	210.95
998.63	210.97
998.92	210.90
999.21	210.97
999.50	210.90
999.79	210.80
1000.08	210.73
1000.37	210.76
1000.66	210.80
1000.95	210.85
1001.24	210.87
1001.53	210.85
1001.82	210.85
1002.11	210.78
1002.40	210.80
1002.68	210.85
1002.97	211.00
1003.26	210.95
1003.55	210.86
1003.84	210.89
1004.13	210.88
1004.42	210.82
1004.71	210.83
1004.99	210.94
1005.28	210.94
1005.57	210.94
1005.86	210.90
1006.15	210.91
1006.44	210.88
1006.72	210.95
1007.01	210.98
1007.30	211.04
1007.59	211.04
1007.88	211.04
1008.17	211.05
1008.45	211.07
1008.74	210.99
1009.03	210.97
1009.32	211.00
1009.60	211.03
1009.89	211.02
1010.18	210.98
1010.47	210.98
1010.76	210.94
1011.04	210.83
1011.33	210.90
1011.62	210.92
1011.91	210.93
1012.19	210.90
1012.48	210.96
1012.77	210.83
1013.05	210.88
1013.34	210.77
1013.63	210.77
1013.92	210.82
1014.20	210.83
1014.49	210.81
1014.78	210.79
1015.06	210.66
1015.35	210.63
1015.64	210.70
1015.92	210.75
1016.21	210.72
1016.50	210.75
1016.78	210.77
1017.07	210.81
1017.36	210.74
1017.64	210.80
1017.93	210.90
1018.22	210.86
1018.50	210.87
1018.79	210.96
1019.08	210.87
1019.36	210.97
1019.65	210.95
1019.93	210.92
1020.22	210.91
1020.51	211.00
1020.79	211.00
1021.08	209.60
1021.36	212.05
1021.65	211.40
1021.94	210.20
1022.22	211.55
1022.51	210.05
1022.79	210.65
1023.08	210.60
1023.36	213.50
1023.65	210.25
>>>>>End Processed Spectral Data<<<<<
