SpectraSuite Data File
++++++++++++++++++++++++++++++++++++
Date: Mon Feb 25 17:33:10 EST 2013
User: group
Dark Spectrum Present: No
Reference Spectrum Present: No
Number of Sampled Component Spectra: 1
Spectrometers: USB2E7196
Integration Time (usec): 52000 (USB2E7196)
Spectra Averaged: 20 (USB2E7196)
Boxcar Smoothing: 10 (USB2E7196)
Correct for Electrical Dark: No (USB2E7196)
Strobe/Lamp Enabled: No (USB2E7196)
Correct for Detector Non-linearity: No (USB2E7196)
Correct for Stray Light: No (USB2E7196)
Number of Pixels in Processed Spectrum: 2048
>>>>>Begin Processed Spectral Data<<<<<
339.09	0.00
339.48	199.00
339.86	199.95
340.24	202.05
340.63	203.85
341.01	207.15
341.39	206.60
341.78	207.80
342.16	208.15
342.54	208.15
342.93	198.14
343.31	208.19
343.69	208.74
344.07	209.23
344.46	209.67
344.84	209.99
345.22	210.16
345.60	210.41
345.99	210.55
346.37	210.65
346.75	210.82
347.13	210.88
347.52	210.90
347.90	210.99
348.28	211.07
348.66	211.08
349.05	210.94
349.43	211.03
349.81	211.11
350.19	211.17
350.57	211.22
350.96	211.26
351.34	211.29
351.72	211.38
352.10	211.44
352.48	211.41
352.87	211.45
353.25	211.49
353.63	211.52
354.01	211.61
354.39	211.67
354.77	211.69
355.15	211.76
355.54	211.84
355.92	211.89
356.30	211.93
356.68	212.18
357.06	212.39
357.44	212.42
357.82	212.42
358.20	212.46
358.58	212.46
358.97	212.57
359.35	212.67
359.73	212.78
360.11	212.90
360.49	213.01
360.87	213.05
361.25	213.16
361.63	213.25
362.01	213.25
362.39	213.32
362.77	213.34
363.15	213.40
363.53	213.44
363.91	213.52
364.29	213.51
364.67	213.22
365.05	213.19
365.43	213.18
365.81	213.22
366.19	213.38
366.57	213.53
366.95	213.56
367.33	213.60
367.71	213.53
368.09	213.57
368.47	213.61
368.85	213.62
369.23	213.69
369.61	213.61
369.99	213.67
370.37	213.74
370.75	213.86
371.13	213.79
371.51	213.80
371.89	213.71
372.27	213.75
372.65	213.83
373.03	213.75
373.41	213.79
373.78	213.75
374.16	213.60
374.54	213.54
374.92	213.46
375.30	213.35
375.68	213.32
376.06	213.26
376.44	213.20
376.82	213.25
377.19	213.11
377.57	213.11
377.95	213.00
378.33	212.90
378.71	212.74
379.09	212.78
379.47	212.72
379.84	212.69
380.22	212.53
380.60	212.45
380.98	212.43
381.36	212.40
381.73	212.34
382.11	212.31
382.49	212.27
382.87	212.21
383.25	212.18
383.62	212.29
384.00	212.24
384.38	212.21
384.76	212.21
385.13	212.25
385.51	212.24
385.89	212.21
386.27	212.22
386.64	212.24
387.02	212.14
387.40	212.08
387.78	212.06
388.15	212.17
388.53	212.15
388.91	212.08
389.29	211.98
389.66	212.04
390.04	212.03
390.42	212.00
390.79	212.01
391.17	211.99
391.55	211.79
391.92	211.76
392.30	211.75
392.68	211.65
393.05	211.63
393.43	211.56
393.81	211.60
394.18	211.57
394.56	211.57
394.94	211.66
395.31	211.61
395.69	211.70
396.06	211.72
396.44	211.71
396.82	211.73
397.19	211.88
397.57	211.79
397.95	211.75
398.32	211.65
398.70	211.67
399.07	211.70
399.45	211.83
399.82	211.88
400.20	211.88
400.58	211.94
400.95	211.92
401.33	212.03
401.70	212.17
402.08	212.20
402.45	212.34
402.83	212.39
403.20	212.52
403.58	212.55
403.95	212.60
404.33	212.78
404.71	212.84
405.08	213.00
405.46	213.20
405.83	213.41
406.21	213.65
406.58	213.79
406.96	213.95
407.33	214.10
407.70	214.26
408.08	214.55
408.45	214.75
408.83	215.01
409.20	215.18
409.58	215.26
409.95	215.54
410.33	215.77
410.70	216.02
411.08	216.31
411.45	216.68
411.82	217.10
412.20	217.47
412.57	218.04
412.95	218.35
413.32	218.88
413.69	219.34
414.07	219.90
414.44	220.46
414.82	221.12
415.19	221.84
415.56	222.51
415.94	223.32
416.31	224.19
416.68	225.08
417.06	226.21
417.43	227.31
417.81	228.40
418.18	229.45
418.55	230.64
418.93	231.95
419.30	233.28
419.67	234.60
420.04	236.03
420.42	237.50
420.79	239.39
421.16	241.09
421.54	242.89
421.91	244.79
422.28	246.75
422.66	248.77
423.03	250.85
423.40	252.97
423.77	255.16
424.15	257.35
424.52	259.67
424.89	262.07
425.26	264.39
425.64	266.80
426.01	269.38
426.38	272.10
426.75	274.91
427.13	277.65
427.50	280.62
427.87	283.69
428.24	286.79
428.61	289.55
428.99	292.80
429.36	296.43
429.73	299.82
430.10	303.31
430.47	306.89
430.85	310.48
431.22	314.41
431.59	318.61
431.96	322.58
432.33	326.96
432.70	331.24
433.08	336.24
433.45	340.85
433.82	345.57
434.19	350.68
434.56	355.57
434.93	360.46
435.30	365.16
435.68	370.43
436.05	375.63
436.42	380.88
436.79	385.51
437.16	390.52
437.53	395.80
437.90	401.12
438.27	406.33
438.64	411.72
439.01	416.68
439.38	420.96
439.75	425.21
440.13	430.03
440.50	434.56
440.87	438.28
441.24	442.06
441.61	446.20
441.98	449.26
442.35	452.92
442.72	456.49
443.09	460.13
443.46	462.19
443.83	463.50
444.20	464.50
444.57	466.38
444.94	467.13
445.31	467.88
445.68	468.59
446.05	468.80
446.42	468.02
446.79	467.13
447.16	466.23
447.53	465.67
447.90	463.60
448.27	461.54
448.64	458.63
449.01	456.59
449.37	452.92
449.74	449.46
450.11	445.31
450.48	440.92
450.85	436.25
451.22	432.27
451.59	428.60
451.96	425.10
452.33	420.31
452.70	415.90
453.07	410.92
453.43	405.69
453.80	400.66
454.17	395.95
454.54	391.51
454.91	386.70
455.28	381.99
455.65	377.61
456.02	373.22
456.38	369.48
456.75	364.78
457.12	360.99
457.49	357.16
457.86	353.50
458.23	350.22
458.59	346.70
458.96	343.25
459.33	340.13
459.70	336.95
460.07	334.37
460.43	331.53
460.80	328.81
461.17	326.40
461.54	323.90
461.91	321.58
462.27	319.16
462.64	317.24
463.01	314.97
463.38	312.89
463.74	310.69
464.11	308.82
464.48	307.19
464.85	305.38
465.21	303.96
465.58	302.43
465.95	300.63
466.32	299.23
466.68	297.76
467.05	296.29
467.42	295.00
467.78	293.59
468.15	292.27
468.52	291.25
468.88	290.02
469.25	288.93
469.62	288.14
469.98	287.13
470.35	286.15
470.72	285.36
471.08	284.28
471.45	283.56
471.82	282.75
472.18	281.87
472.55	281.32
472.92	280.66
473.28	280.08
473.65	279.56
474.02	278.93
474.38	278.54
474.75	278.30
475.11	277.88
475.48	277.58
475.85	277.41
476.21	277.24
476.58	277.17
476.94	277.04
477.31	276.84
477.67	276.79
478.04	276.85
478.41	276.84
478.77	277.23
479.14	277.30
479.50	277.50
479.87	277.92
480.23	278.33
480.60	278.69
480.96	279.16
481.33	279.85
481.69	280.50
482.06	281.13
482.42	281.67
482.79	282.41
483.15	283.38
483.52	284.37
483.88	285.28
484.25	286.21
484.61	287.31
484.98	288.38
485.34	289.85
485.71	291.22
486.07	292.67
486.44	293.94
486.80	295.53
487.17	297.18
487.53	298.90
487.90	300.67
488.26	302.66
488.62	304.70
488.99	306.66
489.35	308.86
489.72	311.12
490.08	313.55
490.44	316.05
490.81	318.59
491.17	321.23
491.54	324.18
491.90	327.09
492.26	330.34
492.63	333.85
492.99	337.25
493.36	340.89
493.72	344.79
494.08	348.80
494.45	353.09
494.81	357.49
495.17	362.15
495.54	367.04
495.90	371.98
496.26	377.14
496.63	382.75
496.99	388.48
497.35	394.56
497.72	400.84
498.08	407.36
498.44	414.07
498.80	421.11
499.17	428.49
499.53	436.14
499.89	443.94
500.26	451.91
500.62	460.19
500.98	468.97
501.34	477.95
501.71	487.33
502.07	496.91
502.43	506.93
502.79	517.13
503.16	527.84
503.52	538.80
503.88	550.00
504.24	561.35
504.60	573.19
504.97	585.46
505.33	598.03
505.69	611.27
506.05	624.87
506.41	638.56
506.78	652.23
507.14	666.33
507.50	681.06
507.86	696.02
508.22	711.40
508.59	726.91
508.95	742.99
509.31	759.37
509.67	776.22
510.03	793.27
510.39	810.67
510.75	828.32
511.12	846.30
511.48	864.79
511.84	883.56
512.20	902.24
512.56	921.36
512.92	940.70
513.28	960.15
513.64	979.76
514.00	999.50
514.37	1019.98
514.73	1040.91
515.09	1061.63
515.45	1082.28
515.81	1103.44
516.17	1124.69
516.53	1145.98
516.89	1167.57
517.25	1188.96
517.61	1210.60
517.97	1232.11
518.33	1253.61
518.69	1275.48
519.05	1297.73
519.41	1319.88
519.77	1342.74
520.13	1364.68
520.49	1386.82
520.85	1409.31
521.21	1431.80
521.57	1454.91
521.93	1476.97
522.29	1499.57
522.65	1522.13
523.01	1544.92
523.37	1567.14
523.73	1589.53
524.09	1611.58
524.45	1633.73
524.81	1656.20
525.17	1678.83
525.53	1701.36
525.89	1723.95
526.25	1745.80
526.61	1767.05
526.97	1788.95
527.33	1809.79
527.68	1831.45
528.04	1852.86
528.40	1873.13
528.76	1893.95
529.12	1914.76
529.48	1936.48
529.84	1956.92
530.20	1977.10
530.56	1997.44
530.91	2017.98
531.27	2038.37
531.63	2058.60
531.99	2078.57
532.35	2097.73
532.71	2116.54
533.07	2136.13
533.42	2154.45
533.78	2173.32
534.14	2191.61
534.50	2208.74
534.86	2227.10
535.21	2243.95
535.57	2261.58
535.93	2279.37
536.29	2296.16
536.65	2312.81
537.00	2328.32
537.36	2343.67
537.72	2359.19
538.08	2374.58
538.44	2390.21
538.79	2405.52
539.15	2420.28
539.51	2434.72
539.87	2450.33
540.22	2464.86
540.58	2479.63
540.94	2493.89
541.29	2507.00
541.65	2519.48
542.01	2532.96
542.37	2544.61
542.72	2556.82
543.08	2567.76
543.44	2579.51
543.79	2589.98
544.15	2600.15
544.51	2610.94
544.87	2622.14
545.22	2631.25
545.58	2639.54
545.94	2646.28
546.29	2652.65
546.65	2659.11
547.01	2665.50
547.36	2670.85
547.72	2676.15
548.07	2680.05
548.43	2684.05
548.79	2687.87
549.14	2692.38
549.50	2696.35
549.86	2700.71
550.21	2705.32
550.57	2709.68
550.92	2712.39
551.28	2715.20
551.64	2717.65
551.99	2720.19
552.35	2721.47
552.70	2724.38
553.06	2727.50
553.41	2730.95
553.77	2734.14
554.13	2736.60
554.48	2738.54
554.84	2739.72
555.19	2740.25
555.55	2740.89
555.90	2741.82
556.26	2742.56
556.61	2742.35
556.97	2741.22
557.32	2740.59
557.68	2738.38
558.03	2737.03
558.39	2735.51
558.74	2734.95
559.10	2733.75
559.45	2731.76
559.81	2730.38
560.16	2727.60
560.52	2725.09
560.87	2721.92
561.23	2718.23
561.58	2715.68
561.94	2712.46
562.29	2709.05
562.64	2707.04
563.00	2704.66
563.35	2702.31
563.71	2700.60
564.06	2698.78
564.42	2696.87
564.77	2694.38
565.12	2692.27
565.48	2688.68
565.83	2685.50
566.19	2682.07
566.54	2677.75
566.89	2673.98
567.25	2670.91
567.60	2667.67
567.96	2663.97
568.31	2660.65
568.66	2656.55
569.02	2651.80
569.37	2646.55
569.72	2642.87
570.08	2637.70
570.43	2631.60
570.78	2625.62
571.14	2619.12
571.49	2612.50
571.84	2606.36
572.20	2599.72
572.55	2593.55
572.90	2586.85
573.26	2580.10
573.61	2572.92
573.96	2566.66
574.31	2558.91
574.67	2550.65
575.02	2542.29
575.37	2533.56
575.72	2524.66
576.08	2517.08
576.43	2508.62
576.78	2501.08
577.13	2492.67
577.49	2484.57
577.84	2477.37
578.19	2469.80
578.54	2462.65
578.90	2455.78
579.25	2447.07
579.60	2437.97
579.95	2428.77
580.30	2420.75
580.66	2412.33
581.01	2403.46
581.36	2394.09
581.71	2386.00
582.06	2377.28
582.42	2369.10
582.77	2360.19
583.12	2351.12
583.47	2342.50
583.82	2334.20
584.17	2325.13
584.53	2316.03
584.88	2307.12
585.23	2297.75
585.58	2287.94
585.93	2277.98
586.28	2268.48
586.63	2259.70
586.98	2251.42
587.34	2242.92
587.69	2233.92
588.04	2224.80
588.39	2216.66
588.74	2207.81
589.09	2198.69
589.44	2189.19
589.79	2180.50
590.14	2172.45
590.49	2163.91
590.84	2154.79
591.19	2146.45
591.54	2137.69
591.89	2127.83
592.25	2118.50
592.60	2109.13
592.95	2100.19
593.30	2090.92
593.65	2081.12
594.00	2071.37
594.35	2062.81
594.70	2053.87
595.05	2045.10
595.40	2036.20
595.75	2026.37
596.10	2017.81
596.45	2009.26
596.80	2001.51
597.15	1993.20
597.50	1984.07
597.85	1975.66
598.19	1967.05
598.54	1958.39
598.89	1950.63
599.24	1943.95
599.59	1936.67
599.94	1929.72
600.29	1921.92
600.64	1913.76
600.99	1905.57
601.34	1898.79
601.69	1890.06
602.04	1881.54
602.39	1873.47
602.74	1865.89
603.08	1859.26
603.43	1852.26
603.78	1844.29
604.13	1836.10
604.48	1828.10
604.83	1821.26
605.18	1814.24
605.53	1806.74
605.87	1798.89
606.22	1791.41
606.57	1783.08
606.92	1774.84
607.27	1766.48
607.62	1759.14
607.96	1752.40
608.31	1745.92
608.66	1737.80
609.01	1730.31
609.36	1722.73
609.70	1714.68
610.05	1706.71
610.40	1698.28
610.75	1689.60
611.10	1681.97
611.44	1672.76
611.79	1663.69
612.14	1654.17
612.49	1644.59
612.83	1635.95
613.18	1626.51
613.53	1616.85
613.88	1607.38
614.22	1598.58
614.57	1589.39
614.92	1579.93
615.27	1570.33
615.61	1560.53
615.96	1551.61
616.31	1542.95
616.65	1535.23
617.00	1526.80
617.35	1518.46
617.70	1509.74
618.04	1500.79
618.39	1491.41
618.74	1483.26
619.08	1474.76
619.43	1466.80
619.78	1458.88
620.12	1450.68
620.47	1443.05
620.82	1434.65
621.16	1426.39
621.51	1417.64
621.85	1409.22
622.20	1400.67
622.55	1392.35
622.89	1384.22
623.24	1376.48
623.59	1368.00
623.93	1359.15
624.28	1350.88
624.62	1342.51
624.97	1334.40
625.32	1326.56
625.66	1319.11
626.01	1311.64
626.35	1304.33
626.70	1296.52
627.04	1289.10
627.39	1281.30
627.73	1273.52
628.08	1266.90
628.43	1259.43
628.77	1252.28
629.12	1244.95
629.46	1238.45
629.81	1231.39
630.15	1224.01
630.50	1216.39
630.84	1208.91
631.19	1201.78
631.53	1194.98
631.88	1187.44
632.22	1179.78
632.57	1172.68
632.91	1165.23
633.26	1157.82
633.60	1150.65
633.95	1143.76
634.29	1136.55
634.64	1130.01
634.98	1123.21
635.32	1115.84
635.67	1109.61
636.01	1103.04
636.36	1096.30
636.70	1089.42
637.05	1082.77
637.39	1076.66
637.73	1070.48
638.08	1064.78
638.42	1058.93
638.77	1052.42
639.11	1046.07
639.45	1040.12
639.80	1033.67
640.14	1027.36
640.49	1021.08
640.83	1014.95
641.17	1008.50
641.52	1002.46
641.86	995.82
642.20	989.74
642.55	983.20
642.89	976.45
643.23	970.00
643.58	964.15
643.92	957.87
644.26	951.71
644.61	945.39
644.95	939.14
645.29	932.87
645.64	926.18
645.98	920.15
646.32	914.38
646.66	908.19
647.01	902.26
647.35	896.39
647.69	890.25
648.04	884.08
648.38	878.05
648.72	871.75
649.06	865.69
649.41	859.50
649.75	853.68
650.09	847.92
650.43	841.93
650.78	835.65
651.12	829.56
651.46	823.75
651.80	817.99
652.14	812.03
652.49	806.11
652.83	800.31
653.17	794.22
653.51	788.26
653.85	782.47
654.20	776.55
654.54	770.75
654.88	765.32
655.22	759.51
655.56	753.85
655.90	748.18
656.25	742.57
656.59	737.04
656.93	731.96
657.27	726.71
657.61	721.42
657.95	716.44
658.29	711.36
658.64	706.12
658.98	700.85
659.32	695.50
659.66	690.33
660.00	684.95
660.34	679.71
660.68	674.68
661.02	669.68
661.36	665.04
661.70	660.09
662.05	655.17
662.39	650.86
662.73	646.46
663.07	642.14
663.41	637.88
663.75	633.36
664.09	628.47
664.43	623.89
664.77	619.44
665.11	614.93
665.45	610.50
665.79	606.05
666.13	601.49
666.47	597.23
666.81	593.01
667.15	589.16
667.49	585.27
667.83	581.23
668.17	577.49
668.51	573.70
668.85	569.99
669.19	566.33
669.53	562.44
669.87	558.39
670.21	554.45
670.55	550.41
670.89	546.84
671.23	543.64
671.57	540.03
671.91	536.44
672.25	532.83
672.58	529.29
672.92	525.94
673.26	522.83
673.60	519.63
673.94	516.40
674.28	513.07
674.62	509.85
674.96	506.67
675.30	503.46
675.64	500.23
675.97	497.03
676.31	493.86
676.65	490.81
676.99	488.11
677.33	485.14
677.67	482.35
678.01	479.35
678.34	476.19
678.68	473.44
679.02	470.50
679.36	467.77
679.70	464.98
680.04	462.09
680.37	459.12
680.71	456.30
681.05	453.59
681.39	450.83
681.73	448.17
682.06	445.65
682.40	443.13
682.74	440.51
683.08	438.00
683.42	435.54
683.75	432.97
684.09	430.25
684.43	427.92
684.77	425.25
685.10	422.74
685.44	420.35
685.78	417.81
686.12	415.62
686.45	413.24
686.79	410.96
687.13	408.78
687.46	406.65
687.80	404.52
688.14	402.20
688.48	400.09
688.81	397.81
689.15	395.48
689.49	393.02
689.82	390.82
690.16	388.59
690.50	386.26
690.83	384.02
691.17	381.90
691.51	379.64
691.84	377.58
692.18	375.55
692.52	373.52
692.85	371.71
693.19	369.70
693.52	367.72
693.86	365.72
694.20	363.83
694.53	361.90
694.87	359.83
695.21	357.86
695.54	355.86
695.88	354.02
696.21	352.19
696.55	350.57
696.88	348.86
697.22	347.11
697.56	345.65
697.89	344.00
698.23	342.39
698.56	340.73
698.90	339.24
699.23	337.60
699.57	335.94
699.90	334.20
700.24	332.58
700.58	330.95
700.91	329.38
701.25	327.94
701.58	326.54
701.92	325.19
702.25	323.90
702.59	322.60
702.92	321.21
703.26	319.93
703.59	318.63
703.93	317.43
704.26	316.16
704.60	314.82
704.93	313.57
705.26	312.18
705.60	311.08
705.93	309.87
706.27	308.66
706.60	307.58
706.94	306.59
707.27	305.48
707.61	304.35
707.94	303.24
708.27	302.00
708.61	300.82
708.94	299.65
709.28	298.45
709.61	297.30
709.94	296.22
710.28	295.10
710.61	294.08
710.95	292.85
711.28	291.96
711.61	290.86
711.95	289.92
712.28	288.86
712.61	287.80
712.95	286.83
713.28	285.95
713.61	284.87
713.95	283.89
714.28	282.98
714.61	282.10
714.95	281.21
715.28	280.24
715.61	279.26
715.95	278.39
716.28	277.50
716.61	276.72
716.95	275.83
717.28	274.97
717.61	274.11
717.94	273.33
718.28	272.43
718.61	271.66
718.94	270.83
719.27	270.18
719.61	269.42
719.94	268.65
720.27	267.85
720.60	267.26
720.94	266.56
721.27	265.83
721.60	265.18
721.93	264.60
722.27	264.09
722.60	263.47
722.93	262.86
723.26	262.33
723.59	261.66
723.93	261.19
724.26	260.59
724.59	260.00
724.92	259.47
725.25	259.01
725.59	258.55
725.92	258.14
726.25	257.69
726.58	257.22
726.91	256.70
727.24	256.21
727.57	255.71
727.91	255.07
728.24	254.62
728.57	254.11
728.90	253.58
729.23	253.05
729.56	252.70
729.89	252.23
730.22	251.68
730.55	251.24
730.89	250.73
731.22	250.32
731.55	249.84
731.88	249.36
732.21	248.81
732.54	248.29
732.87	247.73
733.20	247.21
733.53	246.79
733.86	246.40
734.19	245.99
734.52	245.55
734.85	245.35
735.18	244.92
735.51	244.50
735.84	244.15
736.17	243.79
736.50	243.29
736.83	243.11
737.16	242.81
737.49	242.42
737.82	242.01
738.15	241.74
738.48	241.39
738.81	240.97
739.14	240.53
739.47	240.18
739.80	239.81
740.13	239.55
740.46	239.10
740.79	238.65
741.12	238.33
741.45	237.99
741.78	237.54
742.11	237.24
742.44	236.91
742.77	236.65
743.10	236.33
743.43	236.05
743.75	235.54
744.08	235.45
744.41	235.16
744.74	234.87
745.07	234.48
745.40	234.25
745.73	234.08
746.06	233.98
746.39	233.69
746.71	233.39
747.04	233.00
747.37	232.72
747.70	232.46
748.03	232.23
748.36	231.97
748.68	231.78
749.01	231.51
749.34	231.27
749.67	230.93
750.00	230.67
750.33	230.54
750.65	230.35
750.98	229.92
751.31	229.62
751.64	229.45
751.97	229.36
752.29	229.02
752.62	228.75
752.95	228.46
753.28	228.25
753.60	228.00
753.93	227.89
754.26	227.73
754.59	227.57
754.91	227.36
755.24	227.18
755.57	226.94
755.90	226.74
756.22	226.59
756.55	226.42
756.88	226.22
757.20	225.95
757.53	225.74
757.86	225.55
758.19	225.44
758.51	225.24
758.84	224.94
759.17	224.86
759.49	224.69
759.82	224.52
760.15	224.41
760.47	224.29
760.80	224.12
761.13	224.00
761.45	223.85
761.78	223.69
762.11	223.66
762.43	223.53
762.76	223.38
763.08	223.30
763.41	223.29
763.74	223.19
764.06	223.06
764.39	222.88
764.71	222.80
765.04	222.62
765.37	222.51
765.69	222.42
766.02	222.30
766.34	222.18
766.67	222.08
767.00	222.03
767.32	222.03
767.65	222.05
767.97	222.03
768.30	221.90
768.62	221.70
768.95	221.44
769.27	221.31
769.60	221.23
769.92	221.05
770.25	220.77
770.57	220.60
770.90	220.51
771.22	220.44
771.55	220.33
771.87	220.32
772.20	220.16
772.52	220.20
772.85	220.26
773.17	220.18
773.50	220.05
773.82	219.86
774.15	219.70
774.47	219.43
774.80	219.24
775.12	219.19
775.45	219.16
775.77	219.10
776.09	219.00
776.42	218.90
776.74	218.86
777.07	218.86
777.39	218.82
777.72	218.73
778.04	218.63
778.36	218.49
778.69	218.35
779.01	218.28
779.33	218.05
779.66	217.78
779.98	217.67
780.31	217.63
780.63	217.62
780.95	217.54
781.28	217.47
781.60	217.39
781.92	217.35
782.25	217.32
782.57	217.26
782.89	217.15
783.22	217.04
783.54	216.93
783.86	216.83
784.19	216.76
784.51	216.80
784.83	216.72
785.16	216.69
785.48	216.61
785.80	216.59
786.12	216.52
786.45	216.55
786.77	216.60
787.09	216.53
787.42	216.45
787.74	216.40
788.06	216.41
788.38	216.38
788.71	216.26
789.03	216.19
789.35	216.15
789.67	216.11
789.99	216.14
790.32	216.12
790.64	216.11
790.96	216.22
791.28	216.06
791.61	216.11
791.93	216.05
792.25	216.03
792.57	216.11
792.89	216.07
793.21	215.94
793.54	215.81
793.86	215.69
794.18	215.59
794.50	215.53
794.82	215.47
795.14	215.41
795.47	215.40
795.79	215.36
796.11	215.26
796.43	215.21
796.75	215.18
797.07	215.09
797.39	215.05
797.71	214.84
798.04	214.88
798.36	214.84
798.68	214.79
799.00	214.77
799.32	214.65
799.64	214.65
799.96	214.65
800.28	214.67
800.60	214.75
800.92	214.74
801.24	214.69
801.56	214.65
801.89	214.61
802.21	214.56
802.53	214.49
802.85	214.56
803.17	214.65
803.49	214.55
803.81	214.50
804.13	214.44
804.45	214.45
804.77	214.36
805.09	214.26
805.41	214.20
805.73	214.16
806.05	214.06
806.37	214.04
806.69	214.05
807.01	214.00
807.33	213.93
807.65	213.81
807.97	213.90
808.28	213.85
808.60	213.83
808.92	213.82
809.24	213.95
809.56	213.85
809.88	213.79
810.20	213.79
810.52	213.88
810.84	213.80
811.16	213.71
811.48	213.67
811.80	213.77
812.12	213.78
812.43	213.77
812.75	213.79
813.07	213.66
813.39	213.60
813.71	213.52
814.03	213.44
814.35	213.49
814.67	213.38
814.98	213.37
815.30	213.36
815.62	213.31
815.94	213.19
816.26	213.20
816.58	213.11
816.89	213.09
817.21	212.95
817.53	213.02
817.85	213.07
818.17	213.08
818.48	212.91
818.80	212.93
819.12	212.85
819.44	212.80
819.76	212.75
820.07	212.76
820.39	212.79
820.71	212.89
821.03	212.91
821.34	212.95
821.66	212.96
821.98	212.93
822.30	212.92
822.61	213.02
822.93	212.94
823.25	212.96
823.57	212.94
823.88	212.91
824.20	212.85
824.52	212.85
824.83	212.78
825.15	212.75
825.47	212.72
825.79	212.75
826.10	212.81
826.42	212.82
826.74	212.89
827.05	212.80
827.37	212.75
827.69	212.70
828.00	212.60
828.32	212.59
828.64	212.61
828.95	212.66
829.27	212.63
829.58	212.73
829.90	212.77
830.22	212.77
830.53	212.79
830.85	212.73
831.17	212.70
831.48	212.72
831.80	212.74
832.11	212.70
832.43	212.66
832.75	212.59
833.06	212.70
833.38	212.49
833.69	212.53
834.01	212.43
834.32	212.38
834.64	212.42
834.96	212.35
835.27	212.26
835.59	212.13
835.90	212.07
836.22	212.00
836.53	211.96
836.85	211.90
837.16	212.10
837.48	212.14
837.79	212.12
838.11	212.14
838.42	212.18
838.74	212.21
839.05	212.22
839.37	212.18
839.68	212.14
840.00	212.20
840.31	212.26
840.63	212.32
840.94	212.34
841.26	212.25
841.57	212.30
841.88	212.37
842.20	212.40
842.51	212.33
842.83	212.27
843.14	212.41
843.46	212.42
843.77	212.23
844.08	212.22
844.40	212.19
844.71	212.20
845.03	212.10
845.34	212.05
845.65	212.06
845.97	212.06
846.28	212.06
846.60	212.10
846.91	211.98
847.22	211.96
847.54	212.01
847.85	212.01
848.16	211.91
848.48	211.91
848.79	212.00
849.10	212.05
849.42	212.09
849.73	211.83
850.04	211.84
850.36	211.82
850.67	211.77
850.98	211.83
851.30	211.80
851.61	211.85
851.92	211.82
852.23	211.89
852.55	211.88
852.86	211.89
853.17	211.85
853.49	211.96
853.80	212.00
854.11	211.97
854.42	212.06
854.74	212.12
855.05	212.09
855.36	211.97
855.67	211.90
855.99	211.82
856.30	212.06
856.61	212.04
856.92	212.05
857.23	212.10
857.55	211.97
857.86	211.88
858.17	211.90
858.48	211.93
858.79	211.86
859.11	211.90
859.42	211.86
859.73	211.86
860.04	211.80
860.35	211.80
860.66	211.81
860.98	211.72
861.29	211.66
861.60	211.60
861.91	211.61
862.22	211.59
862.53	211.62
862.84	211.42
863.16	211.39
863.47	211.38
863.78	211.35
864.09	211.37
864.40	211.39
864.71	211.39
865.02	211.38
865.33	211.35
865.64	211.28
865.95	211.20
866.27	211.31
866.58	211.29
866.89	211.27
867.20	211.16
867.51	211.15
867.82	211.13
868.13	211.22
868.44	211.16
868.75	211.20
869.06	211.14
869.37	211.15
869.68	211.16
869.99	211.09
870.30	211.06
870.61	211.14
870.92	211.14
871.23	211.11
871.54	211.15
871.85	211.14
872.16	211.20
872.47	211.23
872.78	211.07
873.09	211.10
873.40	211.03
873.71	211.09
874.02	211.08
874.33	211.11
874.64	211.05
874.95	211.09
875.26	211.10
875.56	211.15
875.87	211.21
876.18	211.20
876.49	211.42
876.80	211.41
877.11	211.33
877.42	211.35
877.73	211.34
878.04	211.32
878.35	211.38
878.66	211.30
878.96	211.34
879.27	211.41
879.58	211.39
879.89	211.48
880.20	211.54
880.51	211.58
880.82	211.56
881.12	211.54
881.43	211.51
881.74	211.47
882.05	211.45
882.36	211.39
882.67	211.48
882.97	211.26
883.28	211.25
883.59	211.24
883.90	211.21
884.21	211.25
884.51	211.19
884.82	211.11
885.13	211.18
885.44	211.15
885.74	211.19
886.05	211.22
886.36	211.11
886.67	210.99
886.98	211.10
887.28	211.11
887.59	211.10
887.90	211.09
888.20	211.14
888.51	211.16
888.82	211.14
889.13	211.10
889.43	211.32
889.74	211.38
890.05	211.43
890.35	211.49
890.66	211.42
890.97	211.40
891.28	211.39
891.58	211.43
891.89	211.42
892.20	211.35
892.50	211.32
892.81	211.40
893.12	211.48
893.42	211.33
893.73	211.38
894.04	211.39
894.34	211.45
894.65	211.38
894.95	211.44
895.26	211.46
895.57	211.50
895.87	211.30
896.18	211.29
896.48	211.21
896.79	211.15
897.10	211.19
897.40	211.24
897.71	211.25
898.01	211.18
898.32	211.20
898.63	211.18
898.93	211.14
899.24	211.10
899.54	211.05
899.85	211.12
900.15	211.08
900.46	211.12
900.76	211.10
901.07	211.12
901.38	211.00
901.68	211.03
901.99	210.95
902.29	210.97
902.60	210.94
902.90	210.95
903.21	210.96
903.51	210.91
903.82	210.90
904.12	210.92
904.43	210.86
904.73	210.85
905.03	210.93
905.34	211.15
905.64	211.10
905.95	211.09
906.25	210.98
906.56	211.05
906.86	211.02
907.17	210.99
907.47	211.01
907.77	211.11
908.08	211.14
908.38	211.19
908.69	211.26
908.99	211.38
909.30	211.45
909.60	211.53
909.90	211.57
910.21	211.52
910.51	211.52
910.81	211.64
911.12	211.70
911.42	211.61
911.73	211.43
912.03	211.50
912.33	211.54
912.64	211.63
912.94	211.52
913.24	211.52
913.55	211.57
913.85	211.56
914.15	211.58
914.46	211.54
914.76	211.56
915.06	211.52
915.37	211.40
915.67	211.35
915.97	211.35
916.27	211.30
916.58	211.35
916.88	211.47
917.18	211.40
917.49	211.45
917.79	211.55
918.09	211.55
918.39	211.62
918.70	211.61
919.00	211.53
919.30	211.63
919.60	211.69
919.91	211.65
920.21	211.68
920.51	211.71
920.81	211.66
921.12	211.65
921.42	211.67
921.72	211.73
922.02	211.70
922.32	211.72
922.63	211.72
922.93	211.81
923.23	211.67
923.53	211.67
923.83	211.58
924.13	211.52
924.44	211.53
924.74	211.54
925.04	211.59
925.34	211.66
925.64	211.63
925.94	211.58
926.24	211.61
926.55	211.59
926.85	211.47
927.15	211.50
927.45	211.47
927.75	211.44
928.05	211.36
928.35	211.39
928.65	211.32
928.95	211.42
929.26	211.33
929.56	211.35
929.86	211.33
930.16	211.36
930.46	211.37
930.76	211.44
931.06	211.39
931.36	211.34
931.66	211.34
931.96	211.35
932.26	211.33
932.56	211.35
932.86	211.31
933.16	211.32
933.46	211.23
933.76	211.24
934.06	211.31
934.36	211.37
934.66	211.38
934.96	211.41
935.26	211.31
935.56	211.35
935.86	211.40
936.16	211.39
936.46	211.31
936.76	211.33
937.06	211.25
937.36	211.19
937.66	211.18
937.96	211.15
938.26	211.09
938.56	211.19
938.86	211.15
939.16	211.18
939.46	211.20
939.76	211.30
940.06	211.28
940.35	211.17
940.65	211.12
940.95	211.12
941.25	211.07
941.55	211.10
941.85	211.12
942.15	211.03
942.45	211.01
942.75	210.99
943.04	210.95
943.34	210.98
943.64	210.95
943.94	210.90
944.24	210.90
944.54	210.91
944.84	210.75
945.13	210.72
945.43	210.69
945.73	210.69
946.03	210.65
946.33	210.68
946.62	210.67
946.92	210.69
947.22	210.68
947.52	210.62
947.82	210.63
948.11	210.51
948.41	210.52
948.71	210.60
949.01	210.68
949.31	210.69
949.60	210.65
949.90	210.73
950.20	210.77
950.50	210.74
950.79	210.74
951.09	210.79
951.39	210.80
951.69	210.82
951.98	210.84
952.28	210.85
952.58	210.71
952.87	210.71
953.17	210.70
953.47	210.70
953.76	210.75
954.06	210.76
954.36	210.75
954.66	210.80
954.95	210.71
955.25	210.61
955.55	210.60
955.84	210.58
956.14	210.59
956.44	210.58
956.73	210.64
957.03	210.58
957.32	210.56
957.62	210.56
957.92	210.54
958.21	210.55
958.51	210.71
958.81	210.80
959.10	210.79
959.40	210.85
959.69	210.81
959.99	210.83
960.29	210.85
960.58	210.87
960.88	210.89
961.17	210.89
961.47	210.95
961.76	210.89
962.06	210.93
962.36	210.93
962.65	210.91
962.95	210.84
963.24	210.90
963.54	210.89
963.83	210.90
964.13	210.92
964.42	210.88
964.72	210.88
965.01	210.90
965.31	210.89
965.60	210.85
965.90	211.00
966.19	210.97
966.49	210.89
966.78	210.89
967.08	210.87
967.37	210.82
967.67	210.79
967.96	210.80
968.26	210.79
968.55	210.72
968.85	210.67
969.14	210.68
969.43	210.67
969.73	210.74
970.02	210.75
970.32	210.70
970.61	210.71
970.91	210.56
971.20	210.48
971.49	210.48
971.79	210.44
972.08	210.25
972.38	210.33
972.67	210.35
972.96	210.33
973.26	210.25
973.55	210.39
973.85	210.40
974.14	210.40
974.43	210.43
974.73	210.46
975.02	210.48
975.31	210.50
975.61	210.53
975.90	210.49
976.19	210.52
976.49	210.54
976.78	210.56
977.07	210.55
977.37	210.55
977.66	210.57
977.95	210.60
978.24	210.62
978.54	210.58
978.83	210.60
979.12	210.62
979.42	210.66
979.71	210.59
980.00	210.57
980.29	210.63
980.59	210.60
980.88	210.62
981.17	210.66
981.46	210.60
981.76	210.59
982.05	210.57
982.34	210.58
982.63	210.58
982.93	210.54
983.22	210.56
983.51	210.60
983.80	210.59
984.09	210.61
984.39	210.61
984.68	210.57
984.97	210.51
985.26	210.52
985.55	210.60
985.85	210.61
986.14	210.65
986.43	210.65
986.72	210.58
987.01	210.48
987.30	210.52
987.59	210.54
987.89	210.52
988.18	210.52
988.47	210.48
988.76	210.47
989.05	210.48
989.34	210.49
989.63	210.56
989.92	210.54
990.22	210.47
990.51	210.48
990.80	210.52
991.09	210.65
991.38	210.66
991.67	210.65
991.96	210.71
992.25	210.73
992.54	210.74
992.83	210.81
993.12	210.82
993.41	210.82
993.70	210.87
993.99	210.93
994.28	210.94
994.58	210.98
994.87	210.99
995.16	211.02
995.45	211.01
995.74	210.94
996.03	210.98
996.32	211.04
996.61	211.06
996.90	211.09
997.19	210.95
997.48	211.01
997.77	210.94
998.06	210.85
998.34	210.80
998.63	210.76
998.92	210.78
999.21	210.89
999.50	210.91
999.79	210.89
1000.08	210.82
1000.37	210.86
1000.66	210.86
1000.95	210.93
1001.24	210.87
1001.53	210.88
1001.82	210.94
1002.11	210.95
1002.40	210.97
1002.68	211.08
1002.97	211.12
1003.26	211.19
1003.55	211.11
1003.84	211.21
1004.13	211.32
1004.42	211.28
1004.71	211.33
1004.99	211.25
1005.28	211.21
1005.57	211.21
1005.86	211.16
1006.15	211.20
1006.44	211.18
1006.72	211.18
1007.01	211.11
1007.30	211.14
1007.59	211.17
1007.88	211.12
1008.17	211.10
1008.45	211.10
1008.74	211.05
1009.03	211.00
1009.32	211.03
1009.60	211.01
1009.89	210.93
1010.18	210.82
1010.47	210.85
1010.76	210.88
1011.04	210.86
1011.33	210.83
1011.62	210.80
1011.91	210.83
1012.19	210.81
1012.48	210.76
1012.77	210.76
1013.05	210.84
1013.34	210.87
1013.63	210.87
1013.92	210.93
1014.20	210.97
1014.49	210.98
1014.78	210.97
1015.06	210.94
1015.35	210.90
1015.64	211.00
1015.92	211.02
1016.21	211.00
1016.50	211.00
1016.78	210.99
1017.07	211.02
1017.36	211.03
1017.64	210.95
1017.93	210.93
1018.22	210.91
1018.50	210.91
1018.79	210.92
1019.08	210.88
1019.36	210.90
1019.65	210.84
1019.93	210.83
1020.22	210.82
1020.51	210.87
1020.79	210.86
1021.08	210.10
1021.36	210.30
1021.65	211.05
1021.94	211.60
1022.22	211.75
1022.51	210.05
1022.79	211.75
1023.08	210.95
1023.36	212.75
1023.65	211.30
>>>>>End Processed Spectral Data<<<<<
