SpectraSuite Data File
++++++++++++++++++++++++++++++++++++
Date: Mon Feb 25 17:32:06 EST 2013
User: group
Dark Spectrum Present: No
Reference Spectrum Present: No
Number of Sampled Component Spectra: 1
Spectrometers: USB2E7196
Integration Time (usec): 52000 (USB2E7196)
Spectra Averaged: 20 (USB2E7196)
Boxcar Smoothing: 10 (USB2E7196)
Correct for Electrical Dark: No (USB2E7196)
Strobe/Lamp Enabled: No (USB2E7196)
Correct for Detector Non-linearity: No (USB2E7196)
Correct for Stray Light: No (USB2E7196)
Number of Pixels in Processed Spectrum: 2048
>>>>>Begin Processed Spectral Data<<<<<
339.09	0.00
339.48	199.45
339.86	199.90
340.24	202.00
340.63	202.90
341.01	207.10
341.39	206.30
341.78	206.90
342.16	208.35
342.54	208.85
342.93	197.97
343.31	207.97
343.69	208.52
344.07	208.94
344.46	209.34
344.84	209.73
345.22	209.91
345.60	210.15
345.99	210.40
346.37	210.56
346.75	210.63
347.13	210.76
347.52	210.76
347.90	210.95
348.28	211.05
348.66	211.15
349.05	211.17
349.43	211.24
349.81	211.28
350.19	211.32
350.57	211.41
350.96	211.57
351.34	211.71
351.72	211.74
352.10	211.92
352.48	212.04
352.87	212.13
353.25	212.21
353.63	212.29
354.01	212.33
354.39	212.33
354.77	212.50
355.15	212.54
355.54	212.64
355.92	212.65
356.30	212.66
356.68	212.88
357.06	212.96
357.44	212.98
357.82	213.11
358.20	213.21
358.58	213.25
358.97	213.26
359.35	213.35
359.73	213.45
360.11	213.50
360.49	213.55
360.87	213.64
361.25	213.73
361.63	213.80
362.01	213.83
362.39	214.01
362.77	214.01
363.15	214.08
363.53	214.18
363.91	214.20
364.29	214.27
364.67	214.17
365.05	214.22
365.43	214.27
365.81	214.28
366.19	214.46
366.57	214.59
366.95	214.55
367.33	214.48
367.71	214.49
368.09	214.52
368.47	214.54
368.85	214.52
369.23	214.53
369.61	214.47
369.99	214.49
370.37	214.40
370.75	214.50
371.13	214.49
371.51	214.38
371.89	214.33
372.27	214.28
372.65	214.25
373.03	214.18
373.41	214.15
373.78	214.05
374.16	213.89
374.54	213.66
374.92	213.69
375.30	213.66
375.68	213.59
376.06	213.57
376.44	213.47
376.82	213.41
377.19	213.32
377.57	213.29
377.95	213.24
378.33	213.20
378.71	212.95
379.09	212.90
379.47	212.85
379.84	212.81
380.22	212.80
380.60	212.71
380.98	212.61
381.36	212.54
381.73	212.44
382.11	212.41
382.49	212.43
382.87	212.33
383.25	212.25
383.62	212.45
384.00	212.35
384.38	212.26
384.76	212.24
385.13	212.28
385.51	212.20
385.89	212.10
386.27	212.08
386.64	212.18
387.02	212.13
387.40	212.04
387.78	212.06
388.15	211.99
388.53	211.91
388.91	211.92
389.29	211.87
389.66	211.90
390.04	211.83
390.42	211.80
390.79	211.71
391.17	211.70
391.55	211.43
391.92	211.42
392.30	211.50
392.68	211.46
393.05	211.43
393.43	211.46
393.81	211.47
394.18	211.40
394.56	211.39
394.94	211.43
395.31	211.45
395.69	211.52
396.06	211.50
396.44	211.57
396.82	211.51
397.19	211.62
397.57	211.59
397.95	211.60
398.32	211.59
398.70	211.76
399.07	211.79
399.45	211.86
399.82	211.89
400.20	211.87
400.58	211.93
400.95	211.91
401.33	211.99
401.70	212.14
402.08	212.21
402.45	212.28
402.83	212.33
403.20	212.46
403.58	212.50
403.95	212.64
404.33	212.69
404.71	212.90
405.08	213.10
405.46	213.19
405.83	213.34
406.21	213.50
406.58	213.50
406.96	213.73
407.33	213.85
407.70	214.06
408.08	214.43
408.45	214.63
408.83	214.88
409.20	215.09
409.58	215.21
409.95	215.47
410.33	215.71
410.70	215.95
411.08	216.27
411.45	216.58
411.82	217.00
412.20	217.42
412.57	217.93
412.95	218.24
413.32	218.93
413.69	219.50
414.07	220.07
414.44	220.75
414.82	221.42
415.19	222.11
415.56	222.86
415.94	223.55
416.31	224.35
416.68	225.19
417.06	226.20
417.43	227.26
417.81	228.38
418.18	229.50
418.55	230.68
418.93	231.86
419.30	233.20
419.67	234.49
420.04	235.92
420.42	237.45
420.79	239.21
421.16	240.83
421.54	242.57
421.91	244.36
422.28	246.28
422.66	248.28
423.03	250.33
423.40	252.28
423.77	254.50
424.15	256.75
424.52	259.00
424.89	261.56
425.26	263.95
425.64	266.26
426.01	268.81
426.38	271.55
426.75	274.29
427.13	277.01
427.50	279.99
427.87	283.05
428.24	286.02
428.61	288.92
428.99	292.15
429.36	295.56
429.73	299.02
430.10	302.55
430.47	306.04
430.85	309.66
431.22	313.61
431.59	317.79
431.96	321.65
432.33	326.12
432.70	330.21
433.08	335.03
433.45	339.54
433.82	344.13
434.19	349.12
434.56	354.09
434.93	358.81
435.30	363.63
435.68	368.91
436.05	374.05
436.42	379.14
436.79	383.73
437.16	388.78
437.53	394.06
437.90	399.21
438.27	404.38
438.64	409.67
439.01	414.59
439.38	418.92
439.75	423.19
440.13	427.90
440.50	432.49
440.87	436.20
441.24	440.12
441.61	444.38
441.98	447.51
442.35	451.22
442.72	454.88
443.09	458.27
443.46	460.32
443.83	461.77
444.20	463.04
444.57	464.77
444.94	465.55
445.31	466.27
445.68	467.01
446.05	467.13
446.42	466.60
446.79	465.80
447.16	464.86
447.53	464.35
447.90	462.31
448.27	460.11
448.64	457.33
449.01	455.25
449.37	451.60
449.74	448.09
450.11	443.88
450.48	439.46
450.85	434.87
451.22	430.94
451.59	427.07
451.96	423.36
452.33	418.68
452.70	414.45
453.07	409.37
453.43	404.11
453.80	399.19
454.17	394.41
454.54	389.99
454.91	385.30
455.28	380.50
455.65	376.07
456.02	371.83
456.38	368.09
456.75	363.48
457.12	359.56
457.49	355.87
457.86	352.21
458.23	349.05
458.59	345.64
458.96	342.05
459.33	338.96
459.70	335.89
460.07	333.44
460.43	330.55
460.80	327.99
461.17	325.74
461.54	323.28
461.91	321.02
462.27	318.65
462.64	316.55
463.01	314.30
463.38	312.29
463.74	310.09
464.11	308.19
464.48	306.59
464.85	304.90
465.21	303.45
465.58	302.00
465.95	300.36
466.32	299.01
466.68	297.64
467.05	296.30
467.42	294.99
467.78	293.45
468.15	292.11
468.52	291.08
468.88	289.83
469.25	288.70
469.62	287.65
469.98	286.66
470.35	285.84
470.72	285.08
471.08	284.11
471.45	283.38
471.82	282.67
472.18	281.79
472.55	281.25
472.92	280.56
473.28	279.95
473.65	279.24
474.02	278.56
474.38	278.19
474.75	277.84
475.11	277.41
475.48	277.25
475.85	277.08
476.21	276.89
476.58	276.79
476.94	276.72
477.31	276.68
477.67	276.62
478.04	276.60
478.41	276.71
478.77	277.05
479.14	277.15
479.50	277.39
479.87	277.76
480.23	278.11
480.60	278.48
480.96	278.88
481.33	279.61
481.69	280.30
482.06	280.88
482.42	281.49
482.79	282.29
483.15	283.16
483.52	284.10
483.88	284.98
484.25	285.95
484.61	287.10
484.98	288.25
485.34	289.47
485.71	290.89
486.07	292.20
486.44	293.47
486.80	295.11
487.17	296.73
487.53	298.45
487.90	300.25
488.26	302.32
488.62	304.41
488.99	306.47
489.35	308.62
489.72	310.95
490.08	313.44
490.44	315.84
490.81	318.50
491.17	321.07
491.54	323.97
491.90	326.97
492.26	330.18
492.63	333.50
492.99	336.94
493.36	340.50
493.72	344.46
494.08	348.45
494.45	352.69
494.81	357.25
495.17	361.83
495.54	366.74
495.90	371.54
496.26	376.78
496.63	382.19
496.99	387.76
497.35	393.87
497.72	400.06
498.08	406.55
498.44	413.17
498.80	420.38
499.17	427.75
499.53	435.37
499.89	443.30
500.26	451.39
500.62	459.73
500.98	468.50
501.34	477.48
501.71	486.96
502.07	496.63
502.43	506.44
502.79	516.63
503.16	527.06
503.52	538.08
503.88	549.25
504.24	560.87
504.60	572.87
504.97	584.95
505.33	597.33
505.69	610.69
506.05	624.07
506.41	637.75
506.78	651.45
507.14	665.46
507.50	679.93
507.86	694.76
508.22	710.10
508.59	725.63
508.95	741.60
509.31	757.82
509.67	774.38
510.03	791.23
510.39	808.82
510.75	826.88
511.12	844.89
511.48	863.25
511.84	881.71
512.20	900.41
512.56	919.66
512.92	939.09
513.28	958.45
513.64	978.14
514.00	998.07
514.37	1018.46
514.73	1039.19
515.09	1059.99
515.45	1080.97
515.81	1102.20
516.17	1123.45
516.53	1144.69
516.89	1166.09
517.25	1187.54
517.61	1209.20
517.97	1230.61
518.33	1251.65
518.69	1273.19
519.05	1295.03
519.41	1317.34
519.77	1339.67
520.13	1361.55
520.49	1383.66
520.85	1406.00
521.21	1428.40
521.57	1451.12
521.93	1473.05
522.29	1495.65
522.65	1517.99
523.01	1540.46
523.37	1562.10
523.73	1584.20
524.09	1606.25
524.45	1628.42
524.81	1650.71
525.17	1673.03
525.53	1695.43
525.89	1717.80
526.25	1739.59
526.61	1760.85
526.97	1782.17
527.33	1803.21
527.68	1824.70
528.04	1845.75
528.40	1865.97
528.76	1886.61
529.12	1907.16
529.48	1928.58
529.84	1949.00
530.20	1969.24
530.56	1989.41
530.91	2010.21
531.27	2030.68
531.63	2050.63
531.99	2070.27
532.35	2089.45
532.71	2108.32
533.07	2127.47
533.42	2145.72
533.78	2164.71
534.14	2183.17
534.50	2200.27
534.86	2218.20
535.21	2234.80
535.57	2252.42
535.93	2269.76
536.29	2286.49
536.65	2302.72
537.00	2318.24
537.36	2333.25
537.72	2348.16
538.08	2363.35
538.44	2378.47
538.79	2393.63
539.15	2408.37
539.51	2422.76
539.87	2437.71
540.22	2452.06
540.58	2467.04
540.94	2481.44
541.29	2494.24
541.65	2506.18
542.01	2519.26
542.37	2530.97
542.72	2542.94
543.08	2553.62
543.44	2565.43
543.79	2575.38
544.15	2585.86
544.51	2596.45
544.87	2607.16
545.22	2616.66
545.58	2624.74
545.94	2632.17
546.29	2638.33
546.65	2644.42
547.01	2650.61
547.36	2656.21
547.72	2661.67
548.07	2665.20
548.43	2668.82
548.79	2672.40
549.14	2677.05
549.50	2681.25
549.86	2685.08
550.21	2689.12
550.57	2693.34
550.92	2695.82
551.28	2698.72
551.64	2701.14
551.99	2703.84
552.35	2705.30
552.70	2708.08
553.06	2710.91
553.41	2713.64
553.77	2716.51
554.13	2718.69
554.48	2720.86
554.84	2722.40
555.19	2722.81
555.55	2723.24
555.90	2723.84
556.26	2724.88
556.61	2724.79
556.97	2723.51
557.32	2723.03
557.68	2721.15
558.03	2719.60
558.39	2717.90
558.74	2717.09
559.10	2715.53
559.45	2713.37
559.81	2712.26
560.16	2709.56
560.52	2707.00
560.87	2703.78
561.23	2699.92
561.58	2697.51
561.94	2693.88
562.29	2689.68
562.64	2687.50
563.00	2685.22
563.35	2683.39
563.71	2680.86
564.06	2678.84
564.42	2676.97
564.77	2674.50
565.12	2672.80
565.48	2669.37
565.83	2666.74
566.19	2663.46
566.54	2659.22
566.89	2655.28
567.25	2651.44
567.60	2648.14
567.96	2644.27
568.31	2640.78
568.66	2637.03
569.02	2632.29
569.37	2627.36
569.72	2623.83
570.08	2618.28
570.43	2612.24
570.78	2606.05
571.14	2599.81
571.49	2593.23
571.84	2587.03
572.20	2580.29
572.55	2574.18
572.90	2567.70
573.26	2560.46
573.61	2553.65
573.96	2547.25
574.31	2539.60
574.67	2531.60
575.02	2522.82
575.37	2514.25
575.72	2505.09
576.08	2497.55
576.43	2488.84
576.78	2481.03
577.13	2472.84
577.49	2464.90
577.84	2457.35
578.19	2449.80
578.54	2442.79
578.90	2435.90
579.25	2427.52
579.60	2418.48
579.95	2408.80
580.30	2400.39
580.66	2392.22
581.01	2383.09
581.36	2373.95
581.71	2365.72
582.06	2357.23
582.42	2349.15
582.77	2340.10
583.12	2331.57
583.47	2322.82
583.82	2314.79
584.17	2305.92
584.53	2296.72
584.88	2288.01
585.23	2279.11
585.58	2269.42
585.93	2259.59
586.28	2250.35
586.63	2241.40
586.98	2233.32
587.34	2225.11
587.69	2216.50
588.04	2207.18
588.39	2198.95
588.74	2190.22
589.09	2181.60
589.44	2172.17
589.79	2163.63
590.14	2156.16
590.49	2148.00
590.84	2139.15
591.19	2131.21
591.54	2122.30
591.89	2112.55
592.25	2103.39
592.60	2093.81
592.95	2084.85
593.30	2075.42
593.65	2065.31
594.00	2055.64
594.35	2047.37
594.70	2038.19
595.05	2029.34
595.40	2020.98
595.75	2011.54
596.10	2003.07
596.45	1994.45
596.80	1986.69
597.15	1978.45
597.50	1969.24
597.85	1961.02
598.19	1952.31
598.54	1943.54
598.89	1935.63
599.24	1928.84
599.59	1921.50
599.94	1914.63
600.29	1906.91
600.64	1899.18
600.99	1891.30
601.34	1884.45
601.69	1875.68
602.04	1867.70
602.39	1859.77
602.74	1852.01
603.08	1845.18
603.43	1837.97
603.78	1829.83
604.13	1821.75
604.48	1813.77
604.83	1807.02
605.18	1799.94
605.53	1792.32
605.87	1785.00
606.22	1778.08
606.57	1770.30
606.92	1762.17
607.27	1753.95
607.62	1746.67
607.96	1739.84
608.31	1733.60
608.66	1725.93
609.01	1718.32
609.36	1710.78
609.70	1703.09
610.05	1695.21
610.40	1687.19
610.75	1678.85
611.10	1671.61
611.44	1662.63
611.79	1653.68
612.14	1644.21
612.49	1634.36
612.83	1625.98
613.18	1616.22
613.53	1606.99
613.88	1597.41
614.22	1588.68
614.57	1579.74
614.92	1570.45
615.27	1561.17
615.61	1551.45
615.96	1542.64
616.31	1534.39
616.65	1526.48
617.00	1518.06
617.35	1509.61
617.70	1500.80
618.04	1491.80
618.39	1482.40
618.74	1474.44
619.08	1465.86
619.43	1457.92
619.78	1450.22
620.12	1442.06
620.47	1434.41
620.82	1425.77
621.16	1417.50
621.51	1409.33
621.85	1401.17
622.20	1392.80
622.55	1384.43
622.89	1376.17
623.24	1367.94
623.59	1359.42
623.93	1350.95
624.28	1342.58
624.62	1334.42
624.97	1326.28
625.32	1318.49
625.66	1311.12
626.01	1303.76
626.35	1296.57
626.70	1288.73
627.04	1281.24
627.39	1273.71
627.73	1266.25
628.08	1259.42
628.43	1252.10
628.77	1244.60
629.12	1237.08
629.46	1230.59
629.81	1223.54
630.15	1216.14
630.50	1208.82
630.84	1201.55
631.19	1194.35
631.53	1187.56
631.88	1179.89
632.22	1172.33
632.57	1165.71
632.91	1158.09
633.26	1150.59
633.60	1143.52
633.95	1137.05
634.29	1129.90
634.64	1123.20
634.98	1116.17
635.32	1109.21
635.67	1102.93
636.01	1096.37
636.36	1089.72
636.70	1083.01
637.05	1076.27
637.39	1070.03
637.73	1063.80
638.08	1058.01
638.42	1051.99
638.77	1045.51
639.11	1039.41
639.45	1033.55
639.80	1026.98
640.14	1020.80
640.49	1014.59
640.83	1008.51
641.17	1001.98
641.52	995.80
641.86	989.30
642.20	983.17
642.55	976.41
642.89	969.85
643.23	963.33
643.58	957.34
643.92	950.89
644.26	944.65
644.61	938.70
644.95	932.56
645.29	926.21
645.64	919.69
645.98	913.65
646.32	907.73
646.66	901.64
647.01	895.69
647.35	890.07
647.69	883.94
648.04	877.88
648.38	872.04
648.72	866.27
649.06	860.16
649.41	854.17
649.75	848.62
650.09	842.97
650.43	837.24
650.78	831.17
651.12	825.05
651.46	819.39
651.80	813.44
652.14	807.61
652.49	801.84
652.83	796.08
653.17	790.07
653.51	784.39
653.85	778.62
654.20	772.70
654.54	766.58
654.88	761.04
655.22	755.20
655.56	749.33
655.90	743.64
656.25	738.15
656.59	732.65
656.93	727.44
657.27	722.03
657.61	716.68
657.95	711.60
658.29	706.50
658.64	701.45
658.98	696.28
659.32	690.84
659.66	685.72
660.00	680.52
660.34	675.35
660.68	670.26
661.02	665.34
661.36	660.56
661.70	655.87
662.05	651.17
662.39	646.97
662.73	642.68
663.07	638.31
663.41	633.87
663.75	629.50
664.09	624.88
664.43	620.21
664.77	615.93
665.11	611.50
665.45	607.24
665.79	602.79
666.13	598.50
666.47	594.39
666.81	590.26
667.15	586.35
667.49	582.58
667.83	578.76
668.17	574.80
668.51	571.15
668.85	567.56
669.19	563.99
669.53	560.05
669.87	555.99
670.21	552.17
670.55	548.36
670.89	544.83
671.23	541.44
671.57	538.10
671.91	534.45
672.25	530.83
672.58	527.40
672.92	524.03
673.26	520.81
673.60	517.62
673.94	514.22
674.28	510.86
674.62	507.70
674.96	504.39
675.30	501.34
675.64	498.14
675.97	494.95
676.31	491.82
676.65	488.85
676.99	486.16
677.33	483.12
677.67	480.33
678.01	477.27
678.34	474.20
678.68	471.42
679.02	468.44
679.36	465.74
679.70	462.95
680.04	460.14
680.37	457.16
680.71	454.40
681.05	451.72
681.39	449.06
681.73	446.35
682.06	443.97
682.40	441.56
682.74	439.01
683.08	436.40
683.42	433.83
683.75	431.24
684.09	428.64
684.43	426.32
684.77	423.76
685.10	421.26
685.44	418.74
685.78	416.16
686.12	413.94
686.45	411.65
686.79	409.33
687.13	407.17
687.46	405.03
687.80	402.81
688.14	400.53
688.48	398.41
688.81	396.12
689.15	393.83
689.49	391.50
689.82	389.23
690.16	386.95
690.50	384.68
690.83	382.53
691.17	380.32
691.51	378.00
691.84	375.77
692.18	373.75
692.52	371.87
692.85	370.06
693.19	368.17
693.52	366.21
693.86	364.20
694.20	362.29
694.53	360.40
694.87	358.40
695.21	356.55
695.54	354.57
695.88	352.73
696.21	350.89
696.55	349.24
696.88	347.64
697.22	345.85
697.56	344.18
697.89	342.47
698.23	340.88
698.56	339.41
698.90	338.04
699.23	336.50
699.57	334.95
699.90	333.20
700.24	331.54
700.58	329.97
700.91	328.54
701.25	327.12
701.58	325.80
701.92	324.39
702.25	322.95
702.59	321.63
702.92	320.32
703.26	318.93
703.59	317.59
703.93	316.30
704.26	315.19
704.60	313.98
704.93	312.77
705.26	311.46
705.60	310.16
705.93	308.89
706.27	307.64
706.60	306.49
706.94	305.46
707.27	304.30
707.61	303.16
707.94	301.90
708.27	300.71
708.61	299.47
708.94	298.33
709.28	297.31
709.61	296.19
709.94	295.14
710.28	294.12
710.61	292.97
710.95	291.80
711.28	290.84
711.61	289.77
711.95	288.76
712.28	287.81
712.61	286.85
712.95	285.93
713.28	285.05
713.61	284.08
713.95	283.17
714.28	282.30
714.61	281.40
714.95	280.60
715.28	279.70
715.61	278.71
715.95	277.91
716.28	277.05
716.61	276.17
716.95	275.22
717.28	274.40
717.61	273.63
717.94	272.94
718.28	272.05
718.61	271.43
718.94	270.66
719.27	270.01
719.61	269.28
719.94	268.55
720.27	267.82
720.60	267.09
720.94	266.37
721.27	265.74
721.60	265.07
721.93	264.39
722.27	263.82
722.60	263.30
722.93	262.71
723.26	262.13
723.59	261.60
723.93	261.18
724.26	260.60
724.59	260.05
724.92	259.46
725.25	259.01
725.59	258.36
725.92	257.92
726.25	257.38
726.58	256.95
726.91	256.40
727.24	255.93
727.57	255.43
727.91	254.97
728.24	254.55
728.57	254.11
728.90	253.69
729.23	253.12
729.56	252.74
729.89	252.29
730.22	251.76
730.55	251.22
730.89	250.73
731.22	250.20
731.55	249.79
731.88	249.29
732.21	248.74
732.54	248.30
732.87	247.84
733.20	247.44
733.53	246.96
733.86	246.57
734.19	246.12
734.52	245.72
734.85	245.42
735.18	244.95
735.51	244.65
735.84	244.25
736.17	243.99
736.50	243.53
736.83	243.36
737.16	243.00
737.49	242.69
737.82	242.29
738.15	241.94
738.48	241.55
738.81	241.19
739.14	240.91
739.47	240.60
739.80	240.14
740.13	239.78
740.46	239.42
740.79	239.02
741.12	238.68
741.45	238.44
741.78	237.94
742.11	237.56
742.44	237.17
742.77	236.94
743.10	236.55
743.43	236.23
743.75	235.65
744.08	235.65
744.41	235.24
744.74	234.98
745.07	234.66
745.40	234.41
745.73	234.28
746.06	233.95
746.39	233.65
746.71	233.48
747.04	233.15
747.37	232.85
747.70	232.61
748.03	232.33
748.36	232.01
748.68	231.80
749.01	231.54
749.34	231.28
749.67	231.08
750.00	230.85
750.33	230.80
750.65	230.59
750.98	230.02
751.31	229.89
751.64	229.57
751.97	229.44
752.29	229.13
752.62	228.79
752.95	228.57
753.28	228.36
753.60	228.10
753.93	227.99
754.26	227.79
754.59	227.57
754.91	227.44
755.24	227.23
755.57	227.02
755.90	226.90
756.22	226.70
756.55	226.36
756.88	226.14
757.20	225.68
757.53	225.49
757.86	225.35
758.19	225.17
758.51	225.04
758.84	224.74
759.17	224.60
759.49	224.44
759.82	224.31
760.15	224.13
760.47	223.93
760.80	223.63
761.13	223.51
761.45	223.31
761.78	223.04
762.11	222.91
762.43	222.75
762.76	222.55
763.08	222.37
763.41	222.29
763.74	222.15
764.06	222.08
764.39	221.96
764.71	221.84
765.04	221.69
765.37	221.53
765.69	221.44
766.02	221.32
766.34	221.19
766.67	221.03
767.00	220.95
767.32	220.96
767.65	221.02
767.97	220.88
768.30	220.82
768.62	220.78
768.95	220.67
769.27	220.55
769.60	220.50
769.92	220.49
770.25	220.33
770.57	220.16
770.90	220.01
771.22	219.89
771.55	219.85
771.87	219.77
772.20	219.69
772.52	219.75
772.85	219.84
773.17	219.72
773.50	219.67
773.82	219.57
774.15	219.37
774.47	219.11
774.80	218.99
775.12	218.85
775.45	218.68
775.77	218.62
776.09	218.52
776.42	218.37
776.74	218.26
777.07	218.15
777.39	218.15
777.72	218.17
778.04	218.04
778.36	217.91
778.69	217.90
779.01	217.89
779.33	217.67
779.66	217.36
779.98	217.26
780.31	217.13
780.63	217.09
780.95	217.08
781.28	217.05
781.60	216.97
781.92	216.87
782.25	216.85
782.57	216.71
782.89	216.61
783.22	216.60
783.54	216.47
783.86	216.42
784.19	216.36
784.51	216.30
784.83	216.31
785.16	216.24
785.48	216.12
785.80	216.08
786.12	216.15
786.45	216.20
786.77	216.18
787.09	216.15
787.42	216.07
787.74	216.03
788.06	216.03
788.38	216.01
788.71	216.02
789.03	216.02
789.35	216.05
789.67	216.00
789.99	216.01
790.32	215.96
790.64	215.96
790.96	216.04
791.28	215.92
791.61	215.84
791.93	215.82
792.25	215.75
792.57	215.76
792.89	215.67
793.21	215.61
793.54	215.59
793.86	215.60
794.18	215.55
794.50	215.47
794.82	215.40
795.14	215.37
795.47	215.35
795.79	215.32
796.11	215.30
796.43	215.26
796.75	215.14
797.07	215.10
797.39	215.07
797.71	214.83
798.04	214.87
798.36	214.85
798.68	214.83
799.00	214.77
799.32	214.70
799.64	214.62
799.96	214.60
800.28	214.59
800.60	214.50
800.92	214.56
801.24	214.52
801.56	214.48
801.89	214.36
802.21	214.34
802.53	214.25
802.85	214.22
803.17	214.28
803.49	214.19
803.81	214.17
804.13	214.16
804.45	214.20
804.77	214.11
805.09	214.07
805.41	214.01
805.73	214.05
806.05	213.96
806.37	213.93
806.69	213.86
807.01	213.81
807.33	213.85
807.65	213.70
807.97	213.79
808.28	213.72
808.60	213.76
808.92	213.77
809.24	213.87
809.56	213.83
809.88	213.75
810.20	213.86
810.52	213.90
810.84	213.84
811.16	213.75
811.48	213.76
811.80	213.80
812.12	213.84
812.43	213.79
812.75	213.86
813.07	213.81
813.39	213.78
813.71	213.74
814.03	213.65
814.35	213.65
814.67	213.53
814.98	213.55
815.30	213.54
815.62	213.41
815.94	213.24
816.26	213.16
816.58	213.17
816.89	213.10
817.21	213.07
817.53	213.01
817.85	213.05
818.17	212.98
818.48	212.93
818.80	212.86
819.12	212.80
819.44	212.70
819.76	212.73
820.07	212.76
820.39	212.76
820.71	212.77
821.03	212.82
821.34	212.84
821.66	212.84
821.98	212.83
822.30	212.87
822.61	212.98
822.93	212.97
823.25	212.93
823.57	212.82
823.88	212.81
824.20	212.82
824.52	212.80
824.83	212.80
825.15	212.72
825.47	212.71
825.79	212.71
826.10	212.65
826.42	212.59
826.74	212.56
827.05	212.50
827.37	212.48
827.69	212.40
828.00	212.34
828.32	212.28
828.64	212.25
828.95	212.30
829.27	212.24
829.58	212.25
829.90	212.25
830.22	212.31
830.53	212.26
830.85	212.24
831.17	212.18
831.48	212.21
831.80	212.18
832.11	212.10
832.43	212.10
832.75	212.11
833.06	212.16
833.38	212.08
833.69	212.08
834.01	211.98
834.32	211.95
834.64	211.96
834.96	212.04
835.27	212.00
835.59	211.97
835.90	211.95
836.22	211.89
836.53	211.78
836.85	211.76
837.16	211.87
837.48	211.88
837.79	211.94
838.11	211.92
838.42	211.94
838.74	211.99
839.05	211.96
839.37	211.93
839.68	211.87
840.00	211.91
840.31	211.92
840.63	211.92
840.94	211.97
841.26	211.96
841.57	211.89
841.88	211.92
842.20	211.83
842.51	211.75
842.83	211.75
843.14	212.00
843.46	211.99
843.77	211.88
844.08	211.81
844.40	211.71
844.71	211.69
845.03	211.67
845.34	211.73
845.65	211.71
845.97	211.69
846.28	211.64
846.60	211.60
846.91	211.54
847.22	211.60
847.54	211.52
847.85	211.54
848.16	211.55
848.48	211.54
848.79	211.65
849.10	211.69
849.42	211.71
849.73	211.53
850.04	211.54
850.36	211.52
850.67	211.64
850.98	211.72
851.30	211.74
851.61	211.70
851.92	211.64
852.23	211.68
852.55	211.70
852.86	211.77
853.17	211.79
853.49	211.83
853.80	211.81
854.11	211.80
854.42	211.78
854.74	211.73
855.05	211.73
855.36	211.62
855.67	211.62
855.99	211.55
856.30	211.65
856.61	211.58
856.92	211.55
857.23	211.46
857.55	211.43
857.86	211.40
858.17	211.48
858.48	211.48
858.79	211.44
859.11	211.50
859.42	211.45
859.73	211.48
860.04	211.48
860.35	211.50
860.66	211.51
860.98	211.50
861.29	211.61
861.60	211.56
861.91	211.61
862.22	211.59
862.53	211.63
862.84	211.52
863.16	211.64
863.47	211.62
863.78	211.65
864.09	211.60
864.40	211.69
864.71	211.70
865.02	211.75
865.33	211.73
865.64	211.72
865.95	211.74
866.27	211.78
866.58	211.85
866.89	211.86
867.20	211.89
867.51	211.84
867.82	211.78
868.13	211.83
868.44	211.76
868.75	211.77
869.06	211.83
869.37	211.85
869.68	211.80
869.99	211.85
870.30	211.86
870.61	211.90
870.92	211.80
871.23	211.81
871.54	211.80
871.85	211.90
872.16	211.91
872.47	211.92
872.78	211.84
873.09	211.84
873.40	211.76
873.71	211.74
874.02	211.78
874.33	211.73
874.64	211.75
874.95	211.89
875.26	211.86
875.56	211.80
875.87	211.81
876.18	211.78
876.49	211.90
876.80	211.89
877.11	211.84
877.42	211.81
877.73	211.82
878.04	211.75
878.35	211.72
878.66	211.65
878.96	211.66
879.27	211.69
879.58	211.65
879.89	211.67
880.20	211.67
880.51	211.69
880.82	211.75
881.12	211.72
881.43	211.59
881.74	211.58
882.05	211.61
882.36	211.63
882.67	211.72
882.97	211.58
883.28	211.57
883.59	211.58
883.90	211.57
884.21	211.51
884.51	211.49
884.82	211.44
885.13	211.51
885.44	211.50
885.74	211.47
886.05	211.43
886.36	211.50
886.67	211.50
886.98	211.60
887.28	211.57
887.59	211.61
887.90	211.59
888.20	211.53
888.51	211.54
888.82	211.52
889.13	211.45
889.43	211.60
889.74	211.53
890.05	211.53
890.35	211.57
890.66	211.54
890.97	211.58
891.28	211.59
891.58	211.55
891.89	211.49
892.20	211.48
892.50	211.45
892.81	211.41
893.12	211.35
893.42	211.20
893.73	211.23
894.04	211.17
894.34	211.21
894.65	211.22
894.95	211.20
895.26	211.15
895.57	211.29
895.87	211.15
896.18	211.21
896.48	211.28
896.79	211.25
897.10	211.28
897.40	211.30
897.71	211.23
898.01	211.25
898.32	211.36
898.63	211.38
898.93	211.37
899.24	211.34
899.54	211.38
899.85	211.43
900.15	211.36
900.46	211.40
900.76	211.43
901.07	211.50
901.38	211.45
901.68	211.47
901.99	211.28
902.29	211.28
902.60	211.31
902.90	211.25
903.21	211.28
903.51	211.31
903.82	211.32
904.12	211.44
904.43	211.40
904.73	211.34
905.03	211.38
905.34	211.54
905.64	211.50
905.95	211.46
906.25	211.41
906.56	211.48
906.86	211.47
907.17	211.45
907.47	211.42
907.77	211.38
908.08	211.38
908.38	211.44
908.69	211.49
908.99	211.48
909.30	211.47
909.60	211.46
909.90	211.49
910.21	211.47
910.51	211.40
910.81	211.44
911.12	211.46
911.42	211.41
911.73	211.28
912.03	211.36
912.33	211.44
912.64	211.49
912.94	211.40
913.24	211.31
913.55	211.30
913.85	211.34
914.15	211.40
914.46	211.44
914.76	211.42
915.06	211.39
915.37	211.36
915.67	211.47
915.97	211.48
916.27	211.47
916.58	211.43
916.88	211.44
917.18	211.47
917.49	211.60
917.79	211.64
918.09	211.65
918.39	211.72
918.70	211.67
919.00	211.65
919.30	211.71
919.60	211.80
919.91	211.84
920.21	211.90
920.51	211.91
920.81	211.88
921.12	211.91
921.42	211.84
921.72	211.83
922.02	211.75
922.32	211.83
922.63	211.78
922.93	211.89
923.23	211.90
923.53	211.87
923.83	211.72
924.13	211.70
924.44	211.74
924.74	211.70
925.04	211.75
925.34	211.72
925.64	211.79
925.94	211.81
926.24	211.81
926.55	211.73
926.85	211.78
927.15	211.75
927.45	211.79
927.75	211.85
928.05	211.91
928.35	211.90
928.65	211.91
928.95	211.98
929.26	211.89
929.56	211.93
929.86	211.94
930.16	211.98
930.46	211.98
930.76	212.00
931.06	212.01
931.36	211.95
931.66	212.07
931.96	212.02
932.26	211.97
932.56	211.93
932.86	211.91
933.16	211.90
933.46	211.88
933.76	211.82
934.06	211.85
934.36	211.90
934.66	211.93
934.96	211.90
935.26	211.81
935.56	211.83
935.86	211.74
936.16	211.65
936.46	211.57
936.76	211.50
937.06	211.42
937.36	211.42
937.66	211.43
937.96	211.39
938.26	211.28
938.56	211.28
938.86	211.29
939.16	211.34
939.46	211.33
939.76	211.42
940.06	211.40
940.35	211.32
940.65	211.20
940.95	211.17
941.25	211.10
941.55	211.10
941.85	211.11
942.15	211.13
942.45	211.24
942.75	211.28
943.04	211.29
943.34	211.29
943.64	211.20
943.94	211.21
944.24	211.16
944.54	211.22
944.84	211.25
945.13	211.18
945.43	211.12
945.73	211.10
946.03	211.00
946.33	210.93
946.62	210.93
946.92	210.94
947.22	210.96
947.52	210.94
947.82	210.96
948.11	210.88
948.41	210.87
948.71	210.78
949.01	210.80
949.31	210.73
949.60	210.75
949.90	210.79
950.20	210.76
950.50	210.76
950.79	210.69
951.09	210.70
951.39	210.71
951.69	210.69
951.98	210.72
952.28	210.73
952.58	210.77
952.87	210.78
953.17	210.75
953.47	210.70
953.76	210.75
954.06	210.73
954.36	210.70
954.66	210.63
954.95	210.65
955.25	210.57
955.55	210.65
955.84	210.67
956.14	210.65
956.44	210.57
956.73	210.55
957.03	210.60
957.32	210.52
957.62	210.51
957.92	210.60
958.21	210.55
958.51	210.70
958.81	210.72
959.10	210.78
959.40	210.81
959.69	210.77
959.99	210.73
960.29	210.74
960.58	210.75
960.88	210.95
961.17	210.97
961.47	211.06
961.76	211.11
962.06	211.08
962.36	211.04
962.65	211.14
962.95	211.15
963.24	211.13
963.54	211.14
963.83	211.13
964.13	211.08
964.42	211.10
964.72	211.01
965.01	211.07
965.31	210.95
965.60	210.92
965.90	211.03
966.19	210.99
966.49	210.94
966.78	210.97
967.08	210.89
967.37	210.89
967.67	210.84
967.96	210.74
968.26	210.81
968.55	210.83
968.85	210.82
969.14	210.77
969.43	210.77
969.73	210.78
970.02	210.79
970.32	210.83
970.61	210.76
970.91	210.69
971.20	210.62
971.49	210.69
971.79	210.72
972.08	210.65
972.38	210.72
972.67	210.77
972.96	210.81
973.26	210.81
973.55	210.81
973.85	210.72
974.14	210.79
974.43	210.74
974.73	210.77
975.02	210.73
975.31	210.74
975.61	210.69
975.90	210.72
976.19	210.75
976.49	210.70
976.78	210.70
977.07	210.74
977.37	210.78
977.66	210.81
977.95	210.77
978.24	210.75
978.54	210.76
978.83	210.69
979.12	210.63
979.42	210.56
979.71	210.59
980.00	210.61
980.29	210.64
980.59	210.58
980.88	210.62
981.17	210.63
981.46	210.73
981.76	210.80
982.05	210.78
982.34	210.78
982.63	210.80
982.93	210.82
983.22	210.81
983.51	210.78
983.80	210.75
984.09	210.82
984.39	210.81
984.68	210.78
984.97	210.79
985.26	210.85
985.55	210.90
985.85	210.79
986.14	210.78
986.43	210.71
986.72	210.71
987.01	210.61
987.30	210.58
987.59	210.50
987.89	210.45
988.18	210.47
988.47	210.46
988.76	210.45
989.05	210.44
989.34	210.40
989.63	210.50
989.92	210.51
990.22	210.44
990.51	210.45
990.80	210.47
991.09	210.50
991.38	210.40
991.67	210.40
991.96	210.42
992.25	210.47
992.54	210.50
992.83	210.54
993.12	210.56
993.41	210.65
993.70	210.76
993.99	210.80
994.28	210.74
994.58	210.71
994.87	210.65
995.16	210.68
995.45	210.74
995.74	210.57
996.03	210.58
996.32	210.66
996.61	210.70
996.90	210.66
997.19	210.64
997.48	210.75
997.77	210.75
998.06	210.72
998.34	210.69
998.63	210.72
998.92	210.71
999.21	210.74
999.50	210.69
999.79	210.65
1000.08	210.71
1000.37	210.75
1000.66	210.75
1000.95	210.85
1001.24	210.84
1001.53	210.81
1001.82	210.89
1002.11	210.86
1002.40	210.86
1002.68	210.87
1002.97	211.02
1003.26	210.98
1003.55	210.95
1003.84	210.95
1004.13	211.08
1004.42	211.12
1004.71	211.09
1004.99	211.07
1005.28	211.18
1005.57	211.17
1005.86	211.14
1006.15	211.10
1006.44	211.07
1006.72	211.11
1007.01	211.08
1007.30	211.09
1007.59	211.07
1007.88	211.05
1008.17	210.97
1008.45	210.92
1008.74	210.94
1009.03	210.87
1009.32	210.92
1009.60	210.88
1009.89	210.84
1010.18	210.74
1010.47	210.71
1010.76	210.76
1011.04	210.79
1011.33	210.75
1011.62	210.75
1011.91	210.75
1012.19	210.75
1012.48	210.74
1012.77	210.73
1013.05	210.83
1013.34	210.87
1013.63	210.87
1013.92	210.92
1014.20	210.98
1014.49	210.93
1014.78	210.87
1015.06	210.77
1015.35	210.82
1015.64	210.87
1015.92	210.97
1016.21	210.97
1016.50	210.97
1016.78	210.91
1017.07	210.90
1017.36	210.91
1017.64	210.92
1017.93	210.96
1018.22	210.92
1018.50	210.97
1018.79	210.97
1019.08	210.88
1019.36	210.85
1019.65	210.88
1019.93	210.90
1020.22	210.96
1020.51	211.10
1020.79	211.17
1021.08	209.80
1021.36	211.10
1021.65	211.05
1021.94	211.25
1022.22	210.75
1022.51	211.50
1022.79	211.65
1023.08	211.95
1023.36	212.45
1023.65	211.95
>>>>>End Processed Spectral Data<<<<<
