SpectraSuite Data File
++++++++++++++++++++++++++++++++++++
Date: Mon Feb 25 17:31:23 EST 2013
User: group
Dark Spectrum Present: No
Reference Spectrum Present: No
Number of Sampled Component Spectra: 1
Spectrometers: USB2E7196
Integration Time (usec): 52000 (USB2E7196)
Spectra Averaged: 20 (USB2E7196)
Boxcar Smoothing: 10 (USB2E7196)
Correct for Electrical Dark: No (USB2E7196)
Strobe/Lamp Enabled: No (USB2E7196)
Correct for Detector Non-linearity: No (USB2E7196)
Correct for Stray Light: No (USB2E7196)
Number of Pixels in Processed Spectrum: 2048
>>>>>Begin Processed Spectral Data<<<<<
339.09	0.00
339.48	197.30
339.86	200.65
340.24	202.40
340.63	202.95
341.01	207.85
341.39	206.60
341.78	207.25
342.16	208.35
342.54	209.20
342.93	198.27
343.31	208.29
343.69	208.87
344.07	209.34
344.46	209.81
344.84	210.18
345.22	210.40
345.60	210.68
345.99	210.90
346.37	211.11
346.75	211.30
347.13	211.34
347.52	211.40
347.90	211.55
348.28	211.62
348.66	211.66
349.05	211.63
349.43	211.70
349.81	211.75
350.19	211.84
350.57	212.04
350.96	212.08
351.34	212.16
351.72	212.29
352.10	212.36
352.48	212.40
352.87	212.54
353.25	212.61
353.63	212.63
354.01	212.71
354.39	212.78
354.77	212.84
355.15	213.02
355.54	213.07
355.92	213.04
356.30	213.17
356.68	213.36
357.06	213.42
357.44	213.40
357.82	213.49
358.20	213.53
358.58	213.49
358.97	213.60
359.35	213.73
359.73	213.79
360.11	213.83
360.49	213.87
360.87	213.86
361.25	213.85
361.63	213.92
362.01	213.96
362.39	213.93
362.77	213.88
363.15	213.85
363.53	213.90
363.91	213.91
364.29	213.86
364.67	213.71
365.05	213.68
365.43	213.77
365.81	213.71
366.19	213.77
366.57	213.82
366.95	213.72
367.33	213.58
367.71	213.65
368.09	213.61
368.47	213.54
368.85	213.58
369.23	213.65
369.61	213.53
369.99	213.53
370.37	213.52
370.75	213.55
371.13	213.57
371.51	213.47
371.89	213.46
372.27	213.44
372.65	213.40
373.03	213.32
373.41	213.22
373.78	213.25
374.16	213.16
374.54	213.15
374.92	213.13
375.30	213.17
375.68	213.04
376.06	213.14
376.44	213.11
376.82	213.01
377.19	212.95
377.57	212.92
377.95	212.85
378.33	212.74
378.71	212.63
379.09	212.56
379.47	212.57
379.84	212.50
380.22	212.40
380.60	212.38
380.98	212.40
381.36	212.30
381.73	212.30
382.11	212.23
382.49	212.17
382.87	212.11
383.25	212.08
383.62	212.21
384.00	212.09
384.38	212.03
384.76	212.06
385.13	212.09
385.51	212.04
385.89	211.98
386.27	211.96
386.64	211.96
387.02	211.93
387.40	211.81
387.78	211.77
388.15	211.79
388.53	211.77
388.91	211.71
389.29	211.75
389.66	211.65
390.04	211.66
390.42	211.69
390.79	211.74
391.17	211.65
391.55	211.50
391.92	211.47
392.30	211.49
392.68	211.50
393.05	211.40
393.43	211.44
393.81	211.42
394.18	211.42
394.56	211.44
394.94	211.50
395.31	211.52
395.69	211.60
396.06	211.68
396.44	211.69
396.82	211.76
397.19	211.85
397.57	211.86
397.95	211.86
398.32	211.81
398.70	211.81
399.07	211.89
399.45	211.90
399.82	211.96
400.20	212.02
400.58	211.97
400.95	212.00
401.33	212.06
401.70	212.30
402.08	212.40
402.45	212.44
402.83	212.50
403.20	212.68
403.58	212.75
403.95	212.84
404.33	212.92
404.71	212.98
405.08	213.18
405.46	213.34
405.83	213.48
406.21	213.63
406.58	213.74
406.96	213.96
407.33	214.14
407.70	214.28
408.08	214.63
408.45	214.85
408.83	215.08
409.20	215.27
409.58	215.37
409.95	215.65
410.33	215.95
410.70	216.27
411.08	216.58
411.45	216.87
411.82	217.19
412.20	217.63
412.57	218.24
412.95	218.57
413.32	219.08
413.69	219.57
414.07	220.11
414.44	220.75
414.82	221.27
415.19	221.93
415.56	222.67
415.94	223.23
416.31	224.15
416.68	225.00
417.06	226.03
417.43	227.00
417.81	228.03
418.18	229.09
418.55	230.24
418.93	231.46
419.30	232.76
419.67	234.08
420.04	235.43
420.42	236.77
420.79	238.48
421.16	240.12
421.54	241.96
421.91	243.77
422.28	245.63
422.66	247.73
423.03	249.80
423.40	251.91
423.77	254.20
424.15	256.36
424.52	258.69
424.89	261.17
425.26	263.52
425.64	265.85
426.01	268.40
426.38	271.00
426.75	273.75
427.13	276.70
427.50	279.55
427.87	282.60
428.24	285.61
428.61	288.43
428.99	291.70
429.36	295.14
429.73	298.56
430.10	302.08
430.47	305.55
430.85	309.18
431.22	312.92
431.59	316.96
431.96	320.83
432.33	325.09
432.70	329.26
433.08	334.26
433.45	338.90
433.82	343.46
434.19	348.49
434.56	353.44
434.93	357.95
435.30	362.72
435.68	367.87
436.05	373.02
436.42	378.10
436.79	382.66
437.16	387.56
437.53	392.74
437.90	397.83
438.27	402.81
438.64	408.04
439.01	412.85
439.38	417.25
439.75	421.38
440.13	426.17
440.50	430.60
440.87	434.17
441.24	437.89
441.61	442.11
441.98	445.17
442.35	448.67
442.72	452.35
443.09	455.77
443.46	457.88
443.83	459.27
444.20	460.50
444.57	462.28
444.94	462.95
445.31	463.74
445.68	464.54
446.05	464.74
446.42	464.17
446.79	463.63
447.16	462.80
447.53	462.19
447.90	460.12
448.27	458.06
448.64	455.13
449.01	453.05
449.37	449.30
449.74	445.83
450.11	441.74
450.48	437.39
450.85	432.85
451.22	429.00
451.59	425.32
451.96	421.84
452.33	417.17
452.70	412.94
453.07	407.97
453.43	402.80
453.80	398.06
454.17	393.25
454.54	388.80
454.91	384.05
455.28	379.45
455.65	375.09
456.02	370.77
456.38	367.20
456.75	362.67
457.12	358.97
457.49	355.22
457.86	351.52
458.23	348.21
458.59	344.84
458.96	341.40
459.33	338.28
459.70	335.11
460.07	332.59
460.43	329.79
460.80	327.12
461.17	324.79
461.54	322.25
461.91	319.99
462.27	317.51
462.64	315.45
463.01	313.25
463.38	311.17
463.74	309.11
464.11	307.17
464.48	305.55
464.85	303.85
465.21	302.62
465.58	301.26
465.95	299.58
466.32	298.14
466.68	296.59
467.05	295.13
467.42	293.89
467.78	292.53
468.15	291.29
468.52	290.29
468.88	289.05
469.25	287.92
469.62	287.04
469.98	286.13
470.35	285.19
470.72	284.33
471.08	283.43
471.45	282.64
471.82	281.98
472.18	281.12
472.55	280.48
472.92	279.65
473.28	279.01
473.65	278.51
474.02	277.95
474.38	277.65
474.75	277.36
475.11	276.85
475.48	276.62
475.85	276.43
476.21	276.22
476.58	276.05
476.94	276.07
477.31	276.00
477.67	275.96
478.04	276.07
478.41	276.24
478.77	276.58
479.14	276.79
479.50	277.00
479.87	277.33
480.23	277.72
480.60	278.12
480.96	278.61
481.33	279.24
481.69	279.85
482.06	280.45
482.42	281.11
482.79	281.89
483.15	282.68
483.52	283.72
483.88	284.67
484.25	285.69
484.61	286.73
484.98	287.91
485.34	289.25
485.71	290.53
486.07	291.95
486.44	293.22
486.80	294.63
487.17	296.25
487.53	297.99
487.90	299.78
488.26	301.69
488.62	303.73
488.99	305.76
489.35	307.98
489.72	310.30
490.08	312.68
490.44	315.13
490.81	317.76
491.17	320.27
491.54	323.14
491.90	326.16
492.26	329.33
492.63	332.45
492.99	335.80
493.36	339.43
493.72	343.19
494.08	347.22
494.45	351.60
494.81	356.06
495.17	360.66
495.54	365.57
495.90	370.56
496.26	375.80
496.63	381.22
496.99	386.97
497.35	392.99
497.72	399.17
498.08	405.68
498.44	412.41
498.80	419.69
499.17	427.15
499.53	434.77
499.89	442.75
500.26	450.83
500.62	459.15
500.98	467.99
501.34	477.25
501.71	486.70
502.07	496.14
502.43	506.06
502.79	516.15
503.16	526.64
503.52	537.58
503.88	548.76
504.24	560.32
504.60	572.15
504.97	584.26
505.33	596.85
505.69	610.00
506.05	623.28
506.41	636.72
506.78	650.45
507.14	664.46
507.50	678.90
507.86	693.96
508.22	709.42
508.59	724.95
508.95	740.69
509.31	756.81
509.67	773.46
510.03	790.24
510.39	807.79
510.75	825.44
511.12	843.51
511.48	861.68
511.84	880.18
512.20	898.83
512.56	917.97
512.92	937.21
513.28	956.56
513.64	976.40
514.00	996.17
514.37	1016.23
514.73	1036.84
515.09	1057.50
515.45	1078.10
515.81	1099.11
516.17	1120.07
516.53	1141.25
516.89	1162.35
517.25	1183.83
517.61	1205.43
517.97	1226.63
518.33	1248.18
518.69	1269.56
519.05	1291.39
519.41	1313.11
519.77	1335.35
520.13	1357.11
520.49	1379.15
520.85	1401.38
521.21	1423.65
521.57	1446.30
521.93	1468.04
522.29	1490.56
522.65	1513.08
523.01	1535.46
523.37	1557.39
523.73	1579.58
524.09	1601.43
524.45	1623.38
524.81	1645.35
525.17	1667.32
525.53	1689.70
525.89	1711.88
526.25	1733.69
526.61	1754.78
526.97	1776.27
527.33	1797.29
527.68	1818.51
528.04	1839.25
528.40	1859.45
528.76	1879.84
529.12	1900.03
529.48	1921.64
529.84	1941.74
530.20	1961.39
530.56	1981.65
530.91	2001.94
531.27	2022.10
531.63	2041.64
531.99	2061.44
532.35	2080.45
532.71	2099.31
533.07	2118.13
533.42	2136.33
533.78	2155.13
534.14	2173.33
534.50	2190.16
534.86	2207.91
535.21	2224.51
535.57	2241.93
535.93	2259.25
536.29	2275.76
536.65	2292.28
537.00	2307.26
537.36	2322.25
537.72	2337.43
538.08	2351.75
538.44	2366.92
538.79	2381.78
539.15	2396.66
539.51	2410.90
539.87	2425.82
540.22	2439.52
540.58	2454.11
540.94	2468.23
541.29	2480.64
541.65	2492.59
542.01	2505.90
542.37	2517.25
542.72	2529.38
543.08	2540.27
543.44	2551.90
543.79	2561.81
544.15	2572.07
544.51	2582.65
544.87	2593.53
545.22	2602.45
545.58	2611.34
545.94	2618.04
546.29	2624.05
546.65	2630.13
547.01	2636.18
547.36	2641.19
547.72	2647.08
548.07	2650.86
548.43	2654.46
548.79	2657.87
549.14	2662.50
549.50	2666.60
549.86	2670.59
550.21	2674.24
550.57	2678.19
550.92	2680.53
551.28	2683.24
551.64	2685.07
551.99	2687.71
552.35	2688.80
552.70	2691.22
553.06	2693.47
553.41	2696.49
553.77	2699.36
554.13	2701.09
554.48	2702.83
554.84	2704.22
555.19	2704.35
555.55	2704.90
555.90	2705.13
556.26	2705.50
556.61	2704.90
556.97	2703.49
557.32	2702.97
557.68	2701.27
558.03	2699.55
558.39	2697.77
558.74	2696.94
559.10	2695.78
559.45	2693.47
559.81	2692.30
560.16	2689.69
560.52	2687.40
560.87	2684.35
561.23	2680.68
561.58	2678.78
561.94	2675.67
562.29	2672.10
562.64	2669.64
563.00	2667.13
563.35	2665.04
563.71	2663.51
564.06	2661.58
564.42	2659.58
564.77	2657.01
565.12	2655.17
565.48	2652.07
565.83	2648.98
566.19	2645.67
566.54	2641.33
566.89	2637.38
567.25	2633.54
567.60	2630.16
567.96	2626.14
568.31	2622.39
568.66	2618.44
569.02	2613.51
569.37	2608.21
569.72	2604.40
570.08	2599.42
570.43	2593.81
570.78	2587.80
571.14	2581.24
571.49	2574.37
571.84	2568.30
572.20	2561.36
572.55	2554.85
572.90	2547.84
573.26	2540.82
573.61	2533.74
573.96	2527.47
574.31	2519.71
574.67	2511.55
575.02	2503.06
575.37	2494.72
575.72	2485.81
576.08	2478.48
576.43	2469.82
576.78	2462.23
577.13	2454.32
577.49	2446.25
577.84	2438.56
578.19	2431.05
578.54	2423.61
578.90	2416.79
579.25	2408.44
579.60	2399.22
579.95	2389.71
580.30	2381.97
580.66	2373.82
581.01	2364.96
581.36	2355.67
581.71	2347.57
582.06	2339.44
582.42	2331.65
582.77	2322.81
583.12	2314.07
583.47	2305.32
583.82	2297.14
584.17	2288.07
584.53	2279.04
584.88	2270.11
585.23	2260.95
585.58	2251.68
585.93	2242.40
586.28	2233.60
586.63	2224.73
586.98	2217.01
587.34	2209.14
587.69	2200.16
588.04	2191.31
588.39	2183.23
588.74	2174.56
589.09	2165.70
589.44	2156.00
589.79	2147.67
590.14	2139.82
590.49	2131.64
590.84	2122.79
591.19	2114.79
591.54	2106.27
591.89	2096.35
592.25	2087.51
592.60	2077.98
592.95	2068.80
593.30	2059.32
593.65	2049.48
594.00	2040.18
594.35	2031.97
594.70	2022.76
595.05	2014.12
595.40	2005.44
595.75	1996.05
596.10	1987.96
596.45	1979.83
596.80	1972.31
597.15	1964.09
597.50	1954.93
597.85	1946.66
598.19	1938.28
598.54	1930.00
598.89	1922.37
599.24	1915.92
599.59	1908.70
599.94	1902.12
600.29	1894.67
600.64	1887.13
600.99	1879.14
601.34	1871.85
601.69	1863.23
602.04	1855.24
602.39	1847.32
602.74	1839.85
603.08	1833.30
603.43	1826.24
603.78	1818.39
604.13	1810.59
604.48	1802.70
604.83	1796.09
605.18	1789.30
605.53	1781.65
605.87	1773.94
606.22	1767.03
606.57	1759.09
606.92	1751.14
607.27	1743.20
607.62	1736.03
607.96	1729.36
608.31	1723.44
608.66	1715.74
609.01	1708.59
609.36	1701.09
609.70	1693.12
610.05	1685.28
610.40	1677.12
610.75	1668.69
611.10	1661.25
611.44	1652.23
611.79	1643.23
612.14	1634.20
612.49	1624.42
612.83	1615.80
613.18	1606.40
613.53	1596.67
613.88	1587.15
614.22	1578.19
614.57	1569.10
614.92	1559.64
615.27	1550.45
615.61	1540.63
615.96	1531.95
616.31	1523.30
616.65	1515.74
617.00	1507.61
617.35	1499.30
617.70	1490.68
618.04	1481.95
618.39	1472.66
618.74	1464.43
619.08	1456.09
619.43	1447.85
619.78	1440.47
620.12	1432.62
620.47	1425.01
620.82	1416.85
621.16	1408.65
621.51	1400.62
621.85	1392.52
622.20	1384.08
622.55	1375.89
622.89	1367.78
623.24	1359.93
623.59	1351.27
623.93	1342.51
624.28	1334.53
624.62	1326.56
624.97	1318.23
625.32	1310.47
625.66	1303.49
626.01	1296.53
626.35	1289.22
626.70	1281.62
627.04	1273.90
627.39	1266.43
627.73	1258.93
628.08	1252.30
628.43	1245.22
628.77	1237.81
629.12	1230.29
629.46	1223.86
629.81	1216.63
630.15	1209.39
630.50	1202.00
630.84	1194.98
631.19	1187.95
631.53	1181.07
631.88	1173.43
632.22	1166.19
632.57	1159.25
632.91	1151.77
633.26	1144.16
633.60	1137.20
633.95	1130.56
634.29	1123.66
634.64	1116.90
634.98	1110.15
635.32	1103.07
635.67	1096.74
636.01	1090.22
636.36	1083.65
636.70	1077.08
637.05	1070.54
637.39	1064.37
637.73	1058.26
638.08	1052.56
638.42	1046.74
638.77	1040.45
639.11	1034.30
639.45	1028.55
639.80	1022.14
640.14	1015.73
640.49	1009.69
640.83	1003.63
641.17	997.23
641.52	991.13
641.86	984.86
642.20	978.78
642.55	972.30
642.89	965.72
643.23	959.40
643.58	953.69
643.92	947.26
644.26	941.09
644.61	935.01
644.95	928.96
645.29	922.61
645.64	916.21
645.98	910.01
646.32	904.09
646.66	897.95
647.01	892.04
647.35	886.18
647.69	879.93
648.04	873.87
648.38	868.09
648.72	862.06
649.06	855.96
649.41	849.93
649.75	844.05
650.09	838.31
650.43	832.62
650.78	826.38
651.12	820.52
651.46	814.80
651.80	808.78
652.14	802.90
652.49	796.94
652.83	791.00
653.17	784.87
653.51	779.24
653.85	773.49
654.20	767.63
654.54	761.90
654.88	756.64
655.22	751.07
655.56	745.22
655.90	739.52
656.25	733.98
656.59	728.60
656.93	723.55
657.27	718.47
657.61	712.98
657.95	708.01
658.29	702.93
658.64	697.86
658.98	692.87
659.32	687.51
659.66	682.55
660.00	677.36
660.34	672.45
660.68	667.31
661.02	662.24
661.36	657.67
661.70	652.98
662.05	648.27
662.39	643.59
662.73	639.28
663.07	635.04
663.41	630.80
663.75	626.21
664.09	621.54
664.43	617.01
664.77	612.61
665.11	608.08
665.45	603.77
665.79	599.38
666.13	594.95
666.47	590.80
666.81	586.73
667.15	582.83
667.49	578.96
667.83	575.13
668.17	571.43
668.51	567.73
668.85	564.05
669.19	560.44
669.53	556.78
669.87	552.88
670.21	549.05
670.55	545.09
670.89	541.80
671.23	538.61
671.57	535.08
671.91	531.56
672.25	528.11
672.58	524.59
672.92	521.29
673.26	518.28
673.60	515.14
673.94	511.92
674.28	508.75
674.62	505.55
674.96	502.39
675.30	499.22
675.64	495.86
675.97	492.60
676.31	489.69
676.65	486.72
676.99	483.98
677.33	481.14
677.67	478.22
678.01	475.16
678.34	472.07
678.68	469.24
679.02	466.35
679.36	463.57
679.70	460.80
680.04	457.97
680.37	455.00
680.71	452.16
681.05	449.52
681.39	446.71
681.73	444.15
682.06	441.69
682.40	439.24
682.74	436.83
683.08	434.45
683.42	431.75
683.75	429.21
684.09	426.68
684.43	424.18
684.77	421.77
685.10	419.21
685.44	416.70
685.78	414.26
686.12	412.04
686.45	409.77
686.79	407.46
687.13	405.28
687.46	403.13
687.80	401.10
688.14	398.87
688.48	396.79
688.81	394.45
689.15	392.19
689.49	390.05
689.82	387.76
690.16	385.37
690.50	383.11
690.83	380.91
691.17	378.64
691.51	376.51
691.84	374.43
692.18	372.48
692.52	370.50
692.85	368.66
693.19	366.77
693.52	364.82
693.86	362.90
694.20	361.01
694.53	359.17
694.87	357.19
695.21	355.21
695.54	353.40
695.88	351.70
696.21	349.90
696.55	348.10
696.88	346.49
697.22	344.86
697.56	343.31
697.89	341.69
698.23	340.05
698.56	338.51
698.90	337.07
699.23	335.48
699.57	333.93
699.90	332.25
700.24	330.69
700.58	329.20
700.91	327.75
701.25	326.40
701.58	324.94
701.92	323.52
702.25	322.23
702.59	320.85
702.92	319.57
703.26	318.14
703.59	316.91
703.93	315.72
704.26	314.52
704.60	313.24
704.93	312.01
705.26	310.86
705.60	309.64
705.93	308.34
706.27	307.19
706.60	306.15
706.94	305.15
707.27	303.94
707.61	302.80
707.94	301.63
708.27	300.35
708.61	299.17
708.94	298.12
709.28	296.94
709.61	295.88
709.94	294.71
710.28	293.77
710.61	292.67
710.95	291.46
711.28	290.58
711.61	289.55
711.95	288.70
712.28	287.65
712.61	286.74
712.95	285.91
713.28	285.04
713.61	284.04
713.95	282.98
714.28	282.18
714.61	281.20
714.95	280.35
715.28	279.47
715.61	278.59
715.95	277.71
716.28	276.84
716.61	275.95
716.95	275.18
717.28	274.26
717.61	273.38
717.94	272.62
718.28	271.81
718.61	271.03
718.94	270.19
719.27	269.53
719.61	268.68
719.94	267.86
720.27	266.98
720.60	266.24
720.94	265.53
721.27	264.81
721.60	264.29
721.93	263.68
722.27	263.12
722.60	262.52
722.93	261.81
723.26	261.25
723.59	260.68
723.93	260.08
724.26	259.55
724.59	259.00
724.92	258.42
725.25	257.82
725.59	257.23
725.92	256.80
726.25	256.23
726.58	255.79
726.91	255.35
727.24	254.90
727.57	254.39
727.91	253.90
728.24	253.45
728.57	252.93
728.90	252.50
729.23	252.01
729.56	251.60
729.89	251.24
730.22	250.69
730.55	250.19
730.89	249.71
731.22	249.23
731.55	248.88
731.88	248.47
732.21	247.98
732.54	247.60
732.87	247.08
733.20	246.65
733.53	246.22
733.86	245.79
734.19	245.33
734.52	245.01
734.85	244.69
735.18	244.24
735.51	243.86
735.84	243.43
736.17	243.07
736.50	242.68
736.83	242.45
737.16	242.13
737.49	241.82
737.82	241.45
738.15	241.16
738.48	240.68
738.81	240.40
739.14	240.02
739.47	239.64
739.80	239.31
740.13	239.04
740.46	238.62
740.79	238.29
741.12	237.98
741.45	237.65
741.78	237.24
742.11	237.03
742.44	236.71
742.77	236.42
743.10	236.11
743.43	235.79
743.75	235.37
744.08	235.37
744.41	235.06
744.74	234.82
745.07	234.48
745.40	234.26
745.73	234.08
746.06	233.90
746.39	233.63
746.71	233.32
747.04	233.01
747.37	232.76
747.70	232.50
748.03	232.27
748.36	232.03
748.68	231.91
749.01	231.68
749.34	231.46
749.67	231.21
750.00	231.04
750.33	230.93
750.65	230.66
750.98	230.15
751.31	229.90
751.64	229.64
751.97	229.60
752.29	229.42
752.62	229.10
752.95	228.84
753.28	228.65
753.60	228.47
753.93	228.26
754.26	228.14
754.59	227.89
754.91	227.73
755.24	227.52
755.57	227.29
755.90	227.04
756.22	226.86
756.55	226.68
756.88	226.40
757.20	226.13
757.53	225.92
757.86	225.73
758.19	225.55
758.51	225.34
758.84	224.99
759.17	224.83
759.49	224.67
759.82	224.58
760.15	224.45
760.47	224.30
760.80	224.06
761.13	223.85
761.45	223.71
761.78	223.63
762.11	223.45
762.43	223.24
762.76	223.12
763.08	223.02
763.41	222.86
763.74	222.74
764.06	222.59
764.39	222.50
764.71	222.40
765.04	222.26
765.37	222.19
765.69	222.11
766.02	221.99
766.34	221.85
766.67	221.68
767.00	221.61
767.32	221.58
767.65	221.63
767.97	221.55
768.30	221.40
768.62	221.25
768.95	221.13
769.27	221.11
769.60	221.05
769.92	220.87
770.25	220.76
770.57	220.61
770.90	220.49
771.22	220.36
771.55	220.35
771.87	220.33
772.20	220.20
772.52	220.17
772.85	220.26
773.17	220.14
773.50	220.04
773.82	219.91
774.15	219.74
774.47	219.51
774.80	219.41
775.12	219.35
775.45	219.23
775.77	219.16
776.09	218.97
776.42	218.78
776.74	218.69
777.07	218.64
777.39	218.55
777.72	218.42
778.04	218.40
778.36	218.22
778.69	218.10
779.01	218.04
779.33	217.88
779.66	217.56
779.98	217.49
780.31	217.36
780.63	217.37
780.95	217.31
781.28	217.27
781.60	217.23
781.92	217.16
782.25	216.99
782.57	216.95
782.89	216.98
783.22	216.97
783.54	216.91
783.86	216.77
784.19	216.74
784.51	216.65
784.83	216.53
785.16	216.49
785.48	216.46
785.80	216.36
786.12	216.29
786.45	216.29
786.77	216.26
787.09	216.25
787.42	216.11
787.74	216.04
788.06	215.96
788.38	215.86
788.71	215.77
789.03	215.83
789.35	215.79
789.67	215.69
789.99	215.65
790.32	215.59
790.64	215.63
790.96	215.73
791.28	215.66
791.61	215.63
791.93	215.55
792.25	215.47
792.57	215.53
792.89	215.40
793.21	215.38
793.54	215.32
793.86	215.18
794.18	215.10
794.50	215.04
794.82	214.96
795.14	214.95
795.47	214.92
795.79	214.85
796.11	214.75
796.43	214.71
796.75	214.62
797.07	214.57
797.39	214.48
797.71	214.28
798.04	214.29
798.36	214.30
798.68	214.34
799.00	214.34
799.32	214.30
799.64	214.37
799.96	214.29
800.28	214.33
800.60	214.34
800.92	214.33
801.24	214.30
801.56	214.33
801.89	214.23
802.21	214.19
802.53	214.11
802.85	214.15
803.17	214.15
803.49	214.12
803.81	214.05
804.13	214.00
804.45	213.98
804.77	213.98
805.09	213.91
805.41	213.80
805.73	213.66
806.05	213.56
806.37	213.52
806.69	213.45
807.01	213.39
807.33	213.39
807.65	213.40
807.97	213.49
808.28	213.52
808.60	213.57
808.92	213.68
809.24	213.80
809.56	213.71
809.88	213.69
810.20	213.64
810.52	213.66
810.84	213.66
811.16	213.60
811.48	213.56
811.80	213.59
812.12	213.57
812.43	213.64
812.75	213.64
813.07	213.57
813.39	213.58
813.71	213.47
814.03	213.48
814.35	213.45
814.67	213.31
814.98	213.25
815.30	213.18
815.62	213.04
815.94	212.90
816.26	212.95
816.58	212.84
816.89	212.77
817.21	212.75
817.53	212.75
817.85	212.75
818.17	212.73
818.48	212.68
818.80	212.66
819.12	212.56
819.44	212.49
819.76	212.42
820.07	212.42
820.39	212.49
820.71	212.42
821.03	212.39
821.34	212.41
821.66	212.44
821.98	212.43
822.30	212.39
822.61	212.49
822.93	212.45
823.25	212.47
823.57	212.47
823.88	212.50
824.20	212.43
824.52	212.49
824.83	212.49
825.15	212.39
825.47	212.42
825.79	212.46
826.10	212.44
826.42	212.50
826.74	212.51
827.05	212.46
827.37	212.37
827.69	212.28
828.00	212.25
828.32	212.19
828.64	212.18
828.95	212.25
829.27	212.21
829.58	212.14
829.90	212.20
830.22	212.25
830.53	212.20
830.85	212.25
831.17	212.18
831.48	212.14
831.80	212.25
832.11	212.28
832.43	212.29
832.75	212.30
833.06	212.38
833.38	212.34
833.69	212.30
834.01	212.41
834.32	212.43
834.64	212.37
834.96	212.30
835.27	212.30
835.59	212.22
835.90	212.15
836.22	212.14
836.53	212.08
836.85	212.01
837.16	212.24
837.48	212.19
837.79	212.25
838.11	212.25
838.42	212.19
838.74	212.19
839.05	212.13
839.37	212.08
839.68	212.01
840.00	212.00
840.31	212.06
840.63	212.02
840.94	212.01
841.26	212.04
841.57	212.14
841.88	212.14
842.20	212.15
842.51	212.20
842.83	212.23
843.14	212.40
843.46	212.41
843.77	212.18
844.08	212.16
844.40	212.12
844.71	212.12
845.03	212.05
845.34	212.00
845.65	211.97
845.97	212.04
846.28	211.98
846.60	212.01
846.91	211.93
847.22	211.89
847.54	211.92
847.85	211.88
848.16	211.85
848.48	211.85
848.79	211.88
849.10	211.74
849.42	211.73
849.73	211.51
850.04	211.49
850.36	211.48
850.67	211.56
850.98	211.51
851.30	211.58
851.61	211.58
851.92	211.66
852.23	211.72
852.55	211.70
852.86	211.68
853.17	211.69
853.49	211.76
853.80	211.81
854.11	211.79
854.42	211.83
854.74	211.76
855.05	211.74
855.36	211.71
855.67	211.84
855.99	211.88
856.30	212.10
856.61	212.09
856.92	212.11
857.23	212.07
857.55	212.10
857.86	212.06
858.17	212.03
858.48	211.93
858.79	211.92
859.11	211.95
859.42	211.95
859.73	211.94
860.04	211.92
860.35	211.86
860.66	211.85
860.98	211.89
861.29	211.94
861.60	211.96
861.91	211.97
862.22	211.93
862.53	211.88
862.84	211.62
863.16	211.65
863.47	211.60
863.78	211.59
864.09	211.58
864.40	211.52
864.71	211.56
865.02	211.58
865.33	211.55
865.64	211.49
865.95	211.50
866.27	211.58
866.58	211.57
866.89	211.65
867.20	211.65
867.51	211.55
867.82	211.50
868.13	211.45
868.44	211.38
868.75	211.33
869.06	211.30
869.37	211.36
869.68	211.36
869.99	211.41
870.30	211.40
870.61	211.34
870.92	211.37
871.23	211.37
871.54	211.38
871.85	211.38
872.16	211.48
872.47	211.44
872.78	211.34
873.09	211.34
873.40	211.27
873.71	211.27
874.02	211.30
874.33	211.35
874.64	211.37
874.95	211.43
875.26	211.43
875.56	211.42
875.87	211.42
876.18	211.35
876.49	211.52
876.80	211.44
877.11	211.50
877.42	211.44
877.73	211.45
878.04	211.38
878.35	211.40
878.66	211.35
878.96	211.39
879.27	211.35
879.58	211.36
879.89	211.40
880.20	211.42
880.51	211.43
880.82	211.35
881.12	211.34
881.43	211.32
881.74	211.27
882.05	211.33
882.36	211.37
882.67	211.47
882.97	211.25
883.28	211.26
883.59	211.22
883.90	211.26
884.21	211.28
884.51	211.32
884.82	211.35
885.13	211.31
885.44	211.35
885.74	211.33
886.05	211.26
886.36	211.23
886.67	211.20
886.98	211.26
887.28	211.38
887.59	211.39
887.90	211.38
888.20	211.40
888.51	211.38
888.82	211.28
889.13	211.22
889.43	211.41
889.74	211.45
890.05	211.40
890.35	211.38
890.66	211.42
890.97	211.44
891.28	211.37
891.58	211.32
891.89	211.31
892.20	211.27
892.50	211.26
892.81	211.27
893.12	211.27
893.42	211.17
893.73	211.15
894.04	211.16
894.34	211.11
894.65	211.16
894.95	211.10
895.26	211.20
895.57	211.34
895.87	211.15
896.18	211.20
896.48	211.29
896.79	211.33
897.10	211.28
897.40	211.29
897.71	211.34
898.01	211.35
898.32	211.32
898.63	211.34
898.93	211.35
899.24	211.35
899.54	211.39
899.85	211.37
900.15	211.39
900.46	211.34
900.76	211.38
901.07	211.34
901.38	211.40
901.68	211.38
901.99	211.20
902.29	211.29
902.60	211.33
902.90	211.23
903.21	211.16
903.51	211.10
903.82	211.09
904.12	211.16
904.43	211.24
904.73	211.20
905.03	211.24
905.34	211.48
905.64	211.46
905.95	211.45
906.25	211.47
906.56	211.40
906.86	211.41
907.17	211.41
907.47	211.46
907.77	211.48
908.08	211.47
908.38	211.52
908.69	211.46
908.99	211.40
909.30	211.42
909.60	211.45
909.90	211.47
910.21	211.47
910.51	211.35
910.81	211.36
911.12	211.37
911.42	211.41
911.73	211.16
912.03	211.17
912.33	211.17
912.64	211.20
912.94	211.16
913.24	211.18
913.55	211.13
913.85	211.13
914.15	211.15
914.46	211.21
914.76	211.16
915.06	211.16
915.37	211.20
915.67	211.25
915.97	211.30
916.27	211.32
916.58	211.28
916.88	211.34
917.18	211.35
917.49	211.49
917.79	211.51
918.09	211.58
918.39	211.60
918.70	211.61
919.00	211.57
919.30	211.75
919.60	211.68
919.91	211.77
920.21	211.80
920.51	211.76
920.81	211.71
921.12	211.77
921.42	211.79
921.72	211.80
922.02	211.79
922.32	211.83
922.63	211.81
922.93	211.91
923.23	211.85
923.53	211.73
923.83	211.58
924.13	211.50
924.44	211.45
924.74	211.48
925.04	211.44
925.34	211.48
925.64	211.35
925.94	211.32
926.24	211.36
926.55	211.26
926.85	211.26
927.15	211.25
927.45	211.25
927.75	211.23
928.05	211.18
928.35	211.20
928.65	211.23
928.95	211.30
929.26	211.20
929.56	211.30
929.86	211.35
930.16	211.37
930.46	211.44
930.76	211.50
931.06	211.41
931.36	211.42
931.66	211.46
931.96	211.47
932.26	211.56
932.56	211.46
932.86	211.49
933.16	211.51
933.46	211.51
933.76	211.48
934.06	211.53
934.36	211.59
934.66	211.54
934.96	211.50
935.26	211.42
935.56	211.47
935.86	211.39
936.16	211.34
936.46	211.39
936.76	211.32
937.06	211.33
937.36	211.38
937.66	211.41
937.96	211.36
938.26	211.32
938.56	211.28
938.86	211.35
939.16	211.45
939.46	211.42
939.76	211.40
940.06	211.43
940.35	211.38
940.65	211.26
940.95	211.28
941.25	211.26
941.55	211.28
941.85	211.30
942.15	211.34
942.45	211.45
942.75	211.40
943.04	211.46
943.34	211.41
943.64	211.40
943.94	211.35
944.24	211.37
944.54	211.38
944.84	211.43
945.13	211.40
945.43	211.30
945.73	211.33
946.03	211.32
946.33	211.30
946.62	211.32
946.92	211.34
947.22	211.39
947.52	211.28
947.82	211.38
948.11	211.31
948.41	211.25
948.71	211.14
949.01	211.12
949.31	211.06
949.60	211.06
949.90	211.06
950.20	211.08
950.50	211.07
950.79	211.11
951.09	211.07
951.39	211.06
951.69	211.08
951.98	211.15
952.28	211.19
952.58	211.19
952.87	211.16
953.17	211.15
953.47	211.08
953.76	211.17
954.06	211.06
954.36	211.00
954.66	211.03
954.95	211.10
955.25	211.11
955.55	211.16
955.84	211.16
956.14	211.12
956.44	211.07
956.73	211.05
957.03	211.05
957.32	211.03
957.62	211.03
957.92	211.02
958.21	211.02
958.51	211.27
958.81	211.33
959.10	211.30
959.40	211.38
959.69	211.39
959.99	211.41
960.29	211.44
960.58	211.49
960.88	211.52
961.17	211.51
961.47	211.54
961.76	211.50
962.06	211.51
962.36	211.52
962.65	211.55
962.95	211.53
963.24	211.49
963.54	211.49
963.83	211.49
964.13	211.50
964.42	211.35
964.72	211.15
965.01	211.06
965.31	211.10
965.60	211.04
965.90	211.13
966.19	211.08
966.49	211.08
966.78	211.09
967.08	211.11
967.37	211.15
967.67	211.10
967.96	211.15
968.26	211.15
968.55	211.20
968.85	211.17
969.14	211.14
969.43	211.10
969.73	211.10
970.02	211.10
970.32	210.95
970.61	210.92
970.91	210.85
971.20	210.83
971.49	210.76
971.79	210.78
972.08	210.62
972.38	210.55
972.67	210.54
972.96	210.53
973.26	210.48
973.55	210.55
973.85	210.60
974.14	210.54
974.43	210.49
974.73	210.45
975.02	210.41
975.31	210.43
975.61	210.49
975.90	210.50
976.19	210.45
976.49	210.60
976.78	210.61
977.07	210.55
977.37	210.52
977.66	210.56
977.95	210.54
978.24	210.60
978.54	210.65
978.83	210.63
979.12	210.64
979.42	210.64
979.71	210.54
980.00	210.53
980.29	210.52
980.59	210.52
980.88	210.61
981.17	210.70
981.46	210.80
981.76	210.79
982.05	210.85
982.34	210.91
982.63	210.89
982.93	210.97
983.22	211.06
983.51	211.08
983.80	211.11
984.09	211.13
984.39	211.12
984.68	211.11
984.97	211.07
985.26	211.03
985.55	211.01
985.85	210.95
986.14	210.89
986.43	210.88
986.72	210.81
987.01	210.70
987.30	210.62
987.59	210.52
987.89	210.49
988.18	210.45
988.47	210.37
988.76	210.35
989.05	210.33
989.34	210.25
989.63	210.42
989.92	210.40
990.22	210.39
990.51	210.39
990.80	210.42
991.09	210.48
991.38	210.52
991.67	210.53
991.96	210.56
992.25	210.61
992.54	210.59
992.83	210.63
993.12	210.70
993.41	210.74
993.70	210.84
993.99	210.86
994.28	210.79
994.58	210.87
994.87	210.88
995.16	210.89
995.45	210.96
995.74	210.83
996.03	210.89
996.32	210.94
996.61	211.01
996.90	210.97
997.19	210.98
997.48	210.90
997.77	210.82
998.06	210.88
998.34	210.90
998.63	210.95
998.92	210.99
999.21	210.93
999.50	210.98
999.79	210.85
1000.08	210.83
1000.37	210.91
1000.66	210.85
1000.95	210.87
1001.24	210.85
1001.53	210.75
1001.82	210.75
1002.11	210.67
1002.40	210.70
1002.68	210.67
1002.97	210.81
1003.26	210.81
1003.55	210.87
1003.84	210.94
1004.13	210.93
1004.42	210.93
1004.71	210.95
1004.99	210.95
1005.28	211.03
1005.57	211.05
1005.86	211.07
1006.15	211.10
1006.44	211.01
1006.72	211.02
1007.01	211.01
1007.30	211.09
1007.59	211.20
1007.88	211.19
1008.17	211.18
1008.45	211.13
1008.74	211.11
1009.03	211.06
1009.32	211.07
1009.60	211.05
1009.89	211.04
1010.18	211.00
1010.47	210.95
1010.76	210.92
1011.04	210.95
1011.33	210.91
1011.62	210.92
1011.91	210.92
1012.19	210.97
1012.48	211.07
1012.77	211.05
1013.05	211.11
1013.34	211.06
1013.63	210.99
1013.92	210.99
1014.20	211.01
1014.49	210.96
1014.78	210.98
1015.06	210.85
1015.35	210.81
1015.64	210.83
1015.92	210.96
1016.21	211.01
1016.50	211.02
1016.78	211.04
1017.07	210.98
1017.36	210.98
1017.64	210.95
1017.93	210.98
1018.22	210.97
1018.50	210.93
1018.79	211.02
1019.08	210.91
1019.36	210.92
1019.65	210.93
1019.93	211.02
1020.22	211.07
1020.51	211.18
1020.79	211.17
1021.08	211.25
1021.36	210.45
1021.65	212.15
1021.94	209.85
1022.22	211.30
1022.51	210.85
1022.79	212.10
1023.08	211.90
1023.36	212.55
1023.65	211.00
>>>>>End Processed Spectral Data<<<<<
