SpectraSuite Data File
++++++++++++++++++++++++++++++++++++
Date: Mon Feb 25 17:36:35 EST 2013
User: group
Dark Spectrum Present: No
Reference Spectrum Present: No
Number of Sampled Component Spectra: 1
Spectrometers: USB2E7196
Integration Time (usec): 52000 (USB2E7196)
Spectra Averaged: 20 (USB2E7196)
Boxcar Smoothing: 10 (USB2E7196)
Correct for Electrical Dark: No (USB2E7196)
Strobe/Lamp Enabled: No (USB2E7196)
Correct for Detector Non-linearity: No (USB2E7196)
Correct for Stray Light: No (USB2E7196)
Number of Pixels in Processed Spectrum: 2048
>>>>>Begin Processed Spectral Data<<<<<
339.09	0.00
339.48	199.35
339.86	199.40
340.24	201.30
340.63	201.90
341.01	206.45
341.39	205.00
341.78	206.70
342.16	208.40
342.54	207.90
342.93	197.98
343.31	207.97
343.69	208.48
344.07	208.90
344.46	209.39
344.84	209.88
345.22	210.11
345.60	210.50
345.99	210.76
346.37	210.97
346.75	211.20
347.13	211.24
347.52	211.36
347.90	211.58
348.28	211.68
348.66	211.77
349.05	211.74
349.43	211.86
349.81	212.02
350.19	212.17
350.57	212.30
350.96	212.50
351.34	212.75
351.72	212.95
352.10	213.24
352.48	213.35
352.87	213.50
353.25	213.62
353.63	213.68
354.01	213.79
354.39	213.93
354.77	214.04
355.15	214.16
355.54	214.20
355.92	214.20
356.30	214.25
356.68	214.48
357.06	214.63
357.44	214.69
357.82	214.70
358.20	214.78
358.58	214.92
358.97	215.06
359.35	215.15
359.73	215.23
360.11	215.32
360.49	215.37
360.87	215.40
361.25	215.49
361.63	215.62
362.01	215.72
362.39	215.74
362.77	215.83
363.15	215.89
363.53	215.95
363.91	216.04
364.29	216.10
364.67	216.04
365.05	216.03
365.43	216.11
365.81	216.20
366.19	216.28
366.57	216.41
366.95	216.41
367.33	216.34
367.71	216.29
368.09	216.32
368.47	216.38
368.85	216.41
369.23	216.49
369.61	216.46
369.99	216.48
370.37	216.50
370.75	216.55
371.13	216.54
371.51	216.56
371.89	216.61
372.27	216.63
372.65	216.61
373.03	216.68
373.41	216.67
373.78	216.71
374.16	216.60
374.54	216.53
374.92	216.46
375.30	216.45
375.68	216.45
376.06	216.41
376.44	216.36
376.82	216.35
377.19	216.27
377.57	216.25
377.95	216.13
378.33	216.09
378.71	215.98
379.09	216.01
379.47	215.97
379.84	215.90
380.22	215.80
380.60	215.74
380.98	215.62
381.36	215.57
381.73	215.45
382.11	215.47
382.49	215.43
382.87	215.39
383.25	215.38
383.62	215.56
384.00	215.49
384.38	215.46
384.76	215.46
385.13	215.50
385.51	215.39
385.89	215.39
386.27	215.38
386.64	215.36
387.02	215.26
387.40	215.30
387.78	215.28
388.15	215.28
388.53	215.21
388.91	215.25
389.29	215.25
389.66	215.24
390.04	215.28
390.42	215.31
390.79	215.33
391.17	215.34
391.55	215.12
391.92	215.17
392.30	215.29
392.68	215.22
393.05	215.25
393.43	215.30
393.81	215.36
394.18	215.39
394.56	215.41
394.94	215.54
395.31	215.56
395.69	215.68
396.06	215.87
396.44	215.98
396.82	216.08
397.19	216.25
397.57	216.44
397.95	216.50
398.32	216.53
398.70	216.58
399.07	216.85
399.45	217.05
399.82	217.26
400.20	217.40
400.58	217.73
400.95	217.95
401.33	218.29
401.70	218.69
402.08	219.01
402.45	219.38
402.83	219.79
403.20	220.26
403.58	220.70
403.95	221.21
404.33	221.75
404.71	222.28
405.08	222.97
405.46	223.61
405.83	224.44
406.21	225.20
406.58	226.17
406.96	227.07
407.33	228.14
407.70	229.27
408.08	230.60
408.45	231.89
408.83	233.32
409.20	234.82
409.58	236.34
409.95	238.13
410.33	240.09
410.70	241.93
411.08	244.03
411.45	246.33
411.82	248.70
412.20	251.32
412.57	254.33
412.95	257.10
413.32	260.28
413.69	263.64
414.07	267.32
414.44	271.27
414.82	275.29
415.19	279.92
415.56	284.83
415.94	290.10
416.31	295.76
416.68	301.48
417.06	307.83
417.43	314.02
417.81	321.00
418.18	328.29
418.55	336.29
418.93	344.60
419.30	353.35
419.67	362.57
420.04	372.09
420.42	382.14
420.79	393.28
421.16	405.03
421.54	416.77
421.91	429.23
422.28	442.32
422.66	456.28
423.03	469.58
423.40	483.79
423.77	498.85
424.15	514.33
424.52	530.40
424.89	548.04
425.26	565.20
425.64	581.78
426.01	599.94
426.38	619.07
426.75	638.30
427.13	658.29
427.50	679.58
427.87	702.13
428.24	724.67
428.61	746.70
428.99	769.93
429.36	796.16
429.73	821.54
430.10	846.70
430.47	872.74
430.85	900.42
431.22	928.93
431.59	959.18
431.96	988.77
432.33	1021.63
432.70	1053.31
433.08	1090.75
433.45	1126.05
433.82	1161.40
434.19	1200.27
434.56	1238.50
434.93	1275.66
435.30	1312.70
435.68	1353.45
436.05	1394.37
436.42	1435.25
436.79	1473.12
437.16	1513.59
437.53	1557.05
437.90	1599.83
438.27	1641.68
438.64	1685.52
439.01	1726.64
439.38	1764.25
439.75	1800.12
440.13	1840.73
440.50	1879.15
440.87	1911.37
441.24	1944.63
441.61	1981.12
441.98	2009.80
442.35	2042.44
442.72	2075.05
443.09	2106.36
443.46	2127.72
443.83	2142.83
444.20	2156.76
444.57	2175.41
444.94	2186.15
445.31	2196.88
445.68	2206.12
446.05	2213.40
446.42	2213.46
446.79	2212.36
447.16	2210.75
447.53	2210.37
447.90	2198.72
448.27	2187.46
448.64	2169.39
449.01	2157.41
449.37	2133.19
449.74	2109.25
450.11	2079.45
450.48	2048.53
450.85	2016.92
451.22	1989.28
451.59	1962.85
451.96	1937.65
452.33	1902.42
452.70	1870.92
453.07	1832.59
453.43	1794.75
453.80	1757.32
454.17	1721.17
454.54	1687.06
454.91	1650.00
455.28	1614.30
455.65	1580.95
456.02	1545.51
456.38	1516.76
456.75	1480.71
457.12	1450.86
457.49	1421.20
457.86	1393.83
458.23	1368.06
458.59	1340.26
458.96	1312.24
459.33	1287.86
459.70	1262.59
460.07	1242.97
460.43	1220.28
460.80	1198.75
461.17	1180.21
461.54	1160.31
461.91	1141.64
462.27	1122.88
462.64	1106.85
463.01	1088.79
463.38	1071.10
463.74	1055.22
464.11	1040.30
464.48	1026.88
464.85	1012.21
465.21	1000.75
465.58	988.25
465.95	974.09
466.32	962.26
466.68	950.33
467.05	938.06
467.42	926.51
467.78	914.20
468.15	902.61
468.52	893.88
468.88	882.73
469.25	872.81
469.62	864.45
469.98	855.79
470.35	847.63
470.72	840.05
471.08	832.04
471.45	824.98
471.82	817.36
472.18	809.34
472.55	803.82
472.92	797.40
473.28	791.76
473.65	786.28
474.02	780.70
474.38	776.04
474.75	772.28
475.11	767.80
475.48	764.49
475.85	761.47
476.21	758.60
476.58	756.21
476.94	754.37
477.31	752.29
477.67	750.01
478.04	748.39
478.41	747.45
478.77	746.45
479.14	745.56
479.50	745.20
479.87	745.92
480.23	746.46
480.60	746.29
480.96	746.61
481.33	747.89
481.69	749.25
482.06	750.36
482.42	750.98
482.79	752.65
483.15	755.06
483.52	758.29
483.88	761.00
484.25	764.08
484.61	767.22
484.98	770.45
485.34	774.45
485.71	778.95
486.07	783.64
486.44	788.97
486.80	794.30
487.17	800.29
487.53	806.70
487.90	813.32
488.26	820.81
488.62	828.30
488.99	836.07
489.35	844.03
489.72	853.11
490.08	862.98
490.44	872.68
490.81	882.55
491.17	892.26
491.54	903.23
491.90	913.79
492.26	925.26
492.63	937.11
492.99	949.74
493.36	962.29
493.72	975.46
494.08	988.93
494.45	1003.37
494.81	1018.41
495.17	1033.68
495.54	1049.63
495.90	1066.34
496.26	1083.39
496.63	1100.88
496.99	1118.48
497.35	1136.19
497.72	1154.58
498.08	1173.17
498.44	1192.17
498.80	1212.15
499.17	1232.17
499.53	1252.85
499.89	1273.83
500.26	1295.30
500.62	1316.21
500.98	1338.50
501.34	1360.89
501.71	1383.46
502.07	1406.42
502.43	1429.57
502.79	1452.46
503.16	1475.64
503.52	1498.84
503.88	1521.63
504.24	1544.68
504.60	1568.59
504.97	1592.87
505.33	1616.53
505.69	1641.68
506.05	1666.38
506.41	1690.99
506.78	1715.33
507.14	1739.90
507.50	1764.91
507.86	1789.57
508.22	1815.09
508.59	1839.80
508.95	1864.72
509.31	1890.01
509.67	1915.48
510.03	1940.45
510.39	1966.15
510.75	1991.02
511.12	2015.34
511.48	2039.80
511.84	2064.53
512.20	2088.79
512.56	2113.12
512.92	2137.64
513.28	2161.56
513.64	2185.77
514.00	2208.95
514.37	2232.26
514.73	2255.88
515.09	2278.38
515.45	2301.13
515.81	2323.37
516.17	2345.59
516.53	2367.05
516.89	2388.05
517.25	2407.72
517.61	2427.47
517.97	2446.77
518.33	2465.73
518.69	2485.50
519.05	2505.31
519.41	2524.62
519.77	2544.21
520.13	2563.11
520.49	2581.12
520.85	2598.60
521.21	2615.34
521.57	2633.39
521.93	2649.85
522.29	2666.66
522.65	2683.82
523.01	2700.23
523.37	2715.98
523.73	2731.58
524.09	2746.87
524.45	2761.90
524.81	2777.12
525.17	2792.38
525.53	2807.24
525.89	2822.53
526.25	2836.96
526.61	2849.65
526.97	2863.10
527.33	2875.70
527.68	2888.87
528.04	2902.19
528.40	2914.37
528.76	2927.23
529.12	2938.60
529.48	2951.21
529.84	2961.02
530.20	2972.16
530.56	2983.22
530.91	2995.06
531.27	3005.98
531.63	3016.89
531.99	3027.21
532.35	3037.21
532.71	3047.28
533.07	3058.41
533.42	3067.84
533.78	3078.00
534.14	3088.28
534.50	3096.93
534.86	3106.46
535.21	3113.65
535.57	3122.42
535.93	3131.13
536.29	3138.15
536.65	3146.70
537.00	3153.94
537.36	3162.77
537.72	3169.77
538.08	3177.21
538.44	3183.98
538.79	3190.85
539.15	3197.81
539.51	3205.21
539.87	3212.30
540.22	3218.69
540.58	3224.57
540.94	3230.95
541.29	3236.11
541.65	3239.54
542.01	3244.06
542.37	3248.02
542.72	3253.41
543.08	3256.92
543.44	3260.98
543.79	3264.40
544.15	3267.22
544.51	3271.18
544.87	3274.68
545.22	3277.21
545.58	3278.80
545.94	3280.27
546.29	3281.49
546.65	3282.54
547.01	3283.36
547.36	3284.96
547.72	3286.06
548.07	3285.76
548.43	3285.99
548.79	3285.37
549.14	3287.36
549.50	3288.59
549.86	3289.10
550.21	3288.82
550.57	3288.94
550.92	3287.85
551.28	3287.24
551.64	3286.35
551.99	3285.53
552.35	3284.79
552.70	3284.29
553.06	3283.94
553.41	3283.31
553.77	3283.21
554.13	3282.15
554.48	3282.47
554.84	3281.87
555.19	3280.67
555.55	3280.37
555.90	3279.59
556.26	3279.19
556.61	3278.12
556.97	3275.32
557.32	3272.59
557.68	3269.88
558.03	3267.39
558.39	3265.16
558.74	3265.41
559.10	3264.85
559.45	3263.68
559.81	3262.61
560.16	3261.14
560.52	3260.35
560.87	3258.75
561.23	3255.19
561.58	3252.30
561.94	3247.65
562.29	3243.12
562.64	3239.31
563.00	3235.42
563.35	3231.13
563.71	3227.34
564.06	3224.56
564.42	3222.15
564.77	3219.67
565.12	3217.30
565.48	3214.15
565.83	3211.50
566.19	3208.22
566.54	3204.45
566.89	3199.32
567.25	3193.96
567.60	3189.61
567.96	3184.59
568.31	3179.41
568.66	3175.95
569.02	3172.46
569.37	3169.25
569.72	3166.03
570.08	3162.19
570.43	3156.67
570.78	3152.63
571.14	3148.07
571.49	3142.82
571.84	3138.47
572.20	3132.34
572.55	3127.38
572.90	3121.68
573.26	3115.59
573.61	3107.80
573.96	3100.23
574.31	3093.19
574.67	3086.61
575.02	3079.03
575.37	3070.98
575.72	3064.04
576.08	3056.41
576.43	3048.06
576.78	3039.78
577.13	3031.59
577.49	3024.18
577.84	3017.40
578.19	3008.93
578.54	3000.79
578.90	2992.49
579.25	2983.21
579.60	2974.41
579.95	2965.13
580.30	2956.78
580.66	2948.00
581.01	2938.92
581.36	2929.36
581.71	2921.16
582.06	2912.20
582.42	2904.52
582.77	2895.42
583.12	2885.39
583.47	2876.44
583.82	2867.60
584.17	2857.67
584.53	2848.38
584.88	2837.75
585.23	2827.66
585.58	2818.47
585.93	2808.60
586.28	2799.56
586.63	2790.26
586.98	2781.26
587.34	2772.01
587.69	2761.48
588.04	2752.45
588.39	2743.63
588.74	2733.68
589.09	2723.45
589.44	2712.10
589.79	2700.55
590.14	2691.19
590.49	2680.71
590.84	2670.56
591.19	2660.62
591.54	2650.49
591.89	2639.05
592.25	2629.20
592.60	2617.93
592.95	2606.21
593.30	2595.11
593.65	2583.68
594.00	2572.71
594.35	2562.95
594.70	2551.33
595.05	2540.65
595.40	2528.18
595.75	2516.32
596.10	2506.00
596.45	2494.98
596.80	2485.34
597.15	2474.76
597.50	2463.20
597.85	2453.55
598.19	2441.10
598.54	2429.43
598.89	2418.48
599.24	2408.29
599.59	2397.38
599.94	2387.89
600.29	2378.20
600.64	2367.89
600.99	2355.72
601.34	2345.11
601.69	2333.13
602.04	2322.50
602.39	2312.32
602.74	2303.76
603.08	2295.15
603.43	2286.49
603.78	2276.67
604.13	2266.42
604.48	2255.90
604.83	2246.60
605.18	2236.60
605.53	2227.50
605.87	2217.66
606.22	2208.10
606.57	2198.07
606.92	2187.26
607.27	2176.31
607.62	2165.68
607.96	2155.60
608.31	2147.13
608.66	2136.40
609.01	2126.19
609.36	2115.58
609.70	2104.66
610.05	2092.37
610.40	2079.98
610.75	2067.38
611.10	2056.18
611.44	2044.57
611.79	2033.54
612.14	2021.96
612.49	2009.17
612.83	1997.58
613.18	1985.46
613.53	1974.00
613.88	1961.29
614.22	1949.37
614.57	1937.23
614.92	1924.80
615.27	1912.53
615.61	1899.37
615.96	1887.63
616.31	1876.31
616.65	1865.46
617.00	1854.68
617.35	1844.10
617.70	1832.43
618.04	1820.89
618.39	1809.03
618.74	1797.39
619.08	1785.61
619.43	1773.57
619.78	1762.65
620.12	1751.95
620.47	1741.87
620.82	1730.54
621.16	1720.15
621.51	1709.82
621.85	1698.91
622.20	1688.20
622.55	1677.15
622.89	1666.84
623.24	1656.26
623.59	1645.04
623.93	1634.00
624.28	1622.87
624.62	1611.63
624.97	1601.54
625.32	1591.46
625.66	1581.65
626.01	1571.91
626.35	1562.81
626.70	1553.43
627.04	1544.05
627.39	1533.69
627.73	1523.73
628.08	1514.19
628.43	1504.81
628.77	1495.74
629.12	1486.56
629.46	1477.60
629.81	1467.75
630.15	1458.09
630.50	1448.55
630.84	1439.14
631.19	1429.30
631.53	1419.60
631.88	1410.39
632.22	1401.46
632.57	1392.95
632.91	1383.95
633.26	1375.29
633.60	1366.06
633.95	1357.35
634.29	1348.89
634.64	1340.65
634.98	1331.32
635.32	1322.76
635.67	1314.72
636.01	1306.20
636.36	1298.00
636.70	1289.37
637.05	1281.62
637.39	1273.65
637.73	1265.21
638.08	1257.95
638.42	1250.89
638.77	1243.63
639.11	1235.93
639.45	1227.90
639.80	1219.64
640.14	1211.84
640.49	1203.79
640.83	1195.37
641.17	1187.20
641.52	1179.16
641.86	1171.26
642.20	1163.83
642.55	1155.23
642.89	1146.33
643.23	1137.88
643.58	1129.98
643.92	1122.10
644.26	1114.24
644.61	1106.35
644.95	1098.42
645.29	1090.25
645.64	1081.73
645.98	1073.77
646.32	1066.24
646.66	1058.73
647.01	1051.04
647.35	1043.33
647.69	1035.57
648.04	1028.45
648.38	1020.83
648.72	1013.30
649.06	1005.69
649.41	998.15
649.75	990.70
650.09	983.92
650.43	976.90
650.78	969.59
651.12	962.41
651.46	955.53
651.80	948.84
652.14	942.76
652.49	935.96
652.83	929.55
653.17	922.31
653.51	915.33
653.85	908.78
654.20	902.42
654.54	896.03
654.88	889.67
655.22	882.90
655.56	875.93
655.90	868.99
656.25	861.97
656.59	855.45
656.93	849.39
657.27	842.88
657.61	836.29
657.95	830.09
658.29	824.11
658.64	818.08
658.98	812.05
659.32	805.62
659.66	799.54
660.00	793.39
660.34	787.98
660.68	782.33
661.02	776.01
661.36	770.01
661.70	764.19
662.05	758.78
662.39	753.72
662.73	748.93
663.07	744.08
663.41	739.42
663.75	734.55
664.09	729.54
664.43	724.59
664.77	719.71
665.11	714.75
665.45	710.03
665.79	705.18
666.13	700.30
666.47	695.71
666.81	691.35
667.15	686.92
667.49	682.46
667.83	678.06
668.17	673.92
668.51	669.59
668.85	665.13
669.19	660.88
669.53	656.37
669.87	651.63
670.21	647.25
670.55	642.70
670.89	638.50
671.23	634.43
671.57	630.07
671.91	626.11
672.25	622.02
672.58	617.71
672.92	613.64
673.26	609.88
673.60	606.00
673.94	602.09
674.28	598.49
674.62	594.69
674.96	590.73
675.30	586.86
675.64	583.13
675.97	579.57
676.31	576.10
676.65	572.84
676.99	570.09
677.33	566.84
677.67	563.57
678.01	560.10
678.34	556.69
678.68	553.45
679.02	550.00
679.36	546.72
679.70	543.64
680.04	540.47
680.37	537.25
680.71	533.99
681.05	530.93
681.39	527.74
681.73	524.55
682.06	521.52
682.40	518.60
682.74	515.66
683.08	512.50
683.42	509.23
683.75	506.04
684.09	502.69
684.43	499.49
684.77	496.56
685.10	493.35
685.44	490.22
685.78	487.23
686.12	484.34
686.45	481.55
686.79	478.59
687.13	475.88
687.46	473.13
687.80	470.38
688.14	467.53
688.48	464.70
688.81	461.99
689.15	459.36
689.49	456.59
689.82	453.74
690.16	451.06
690.50	448.26
690.83	445.49
691.17	442.79
691.51	440.32
691.84	437.77
692.18	435.49
692.52	433.20
692.85	430.93
693.19	428.51
693.52	425.99
693.86	423.59
694.20	421.08
694.53	418.49
694.87	415.99
695.21	413.51
695.54	411.11
695.88	408.81
696.21	406.58
696.55	404.42
696.88	402.33
697.22	400.35
697.56	398.52
697.89	396.73
698.23	394.78
698.56	392.72
698.90	390.77
699.23	388.82
699.57	386.82
699.90	384.78
700.24	382.97
700.58	381.08
700.91	379.20
701.25	377.37
701.58	375.64
701.92	374.02
702.25	372.55
702.59	370.84
702.92	369.12
703.26	367.39
703.59	365.76
703.93	364.30
704.26	362.65
704.60	360.98
704.93	359.09
705.26	357.40
705.60	355.83
705.93	354.28
706.27	352.77
706.60	351.35
706.94	349.93
707.27	348.25
707.61	346.75
707.94	345.25
708.27	343.70
708.61	342.17
708.94	340.75
709.28	339.20
709.61	337.88
709.94	336.48
710.28	334.96
710.61	333.55
710.95	331.91
711.28	330.58
711.61	329.05
711.95	327.83
712.28	326.51
712.61	325.11
712.95	323.87
713.28	322.63
713.61	321.30
713.95	320.04
714.28	318.93
714.61	317.68
714.95	316.51
715.28	315.25
715.61	314.05
715.95	312.78
716.28	311.57
716.61	310.28
716.95	309.02
717.28	307.95
717.61	306.82
717.94	305.81
718.28	304.64
718.61	303.65
718.94	302.58
719.27	301.55
719.61	300.57
719.94	299.49
720.27	298.46
720.60	297.46
720.94	296.56
721.27	295.59
721.60	294.81
721.93	294.01
722.27	293.33
722.60	292.48
722.93	291.66
723.26	290.85
723.59	290.15
723.93	289.38
724.26	288.51
724.59	287.77
724.92	287.03
725.25	286.28
725.59	285.46
725.92	284.76
726.25	284.04
726.58	283.34
726.91	282.60
727.24	281.83
727.57	280.96
727.91	280.07
728.24	279.41
728.57	278.62
728.90	277.83
729.23	277.04
729.56	276.46
729.89	275.79
730.22	275.00
730.55	274.20
730.89	273.51
731.22	272.88
731.55	272.22
731.88	271.49
732.21	270.83
732.54	270.22
732.87	269.54
733.20	269.01
733.53	268.38
733.86	267.84
734.19	267.22
734.52	266.82
734.85	266.42
735.18	265.74
735.51	265.20
735.84	264.72
736.17	264.18
736.50	263.44
736.83	263.07
737.16	262.63
737.49	262.16
737.82	261.72
738.15	261.14
738.48	260.54
738.81	260.06
739.14	259.48
739.47	258.96
739.80	258.42
740.13	257.93
740.46	257.33
740.79	256.81
741.12	256.35
741.45	255.82
741.78	255.21
742.11	254.85
742.44	254.40
742.77	254.00
743.10	253.47
743.43	253.09
743.75	252.41
744.08	252.11
744.41	251.60
744.74	251.05
745.07	250.58
745.40	250.23
745.73	249.82
746.06	249.42
746.39	249.02
746.71	248.54
747.04	248.08
747.37	247.70
747.70	247.31
748.03	246.90
748.36	246.56
748.68	246.28
749.01	245.77
749.34	245.36
749.67	244.77
750.00	244.41
750.33	243.99
750.65	243.69
750.98	243.11
751.31	242.77
751.64	242.43
751.97	242.20
752.29	241.78
752.62	241.42
752.95	241.07
753.28	240.69
753.60	240.39
753.93	240.10
754.26	239.79
754.59	239.31
754.91	238.95
755.24	238.55
755.57	238.20
755.90	237.88
756.22	237.53
756.55	237.23
756.88	236.92
757.20	236.71
757.53	236.39
757.86	236.10
758.19	235.78
758.51	235.50
758.84	235.13
759.17	234.88
759.49	234.61
759.82	234.43
760.15	234.16
760.47	233.90
760.80	233.51
761.13	233.31
761.45	233.13
761.78	232.91
762.11	232.59
762.43	232.27
762.76	231.98
763.08	231.71
763.41	231.56
763.74	231.38
764.06	231.00
764.39	230.72
764.71	230.55
765.04	230.31
765.37	230.09
765.69	229.86
766.02	229.58
766.34	229.36
766.67	229.07
767.00	228.91
767.32	228.84
767.65	228.76
767.97	228.60
768.30	228.40
768.62	228.19
768.95	228.10
769.27	227.87
769.60	227.77
769.92	227.58
770.25	227.35
770.57	227.13
770.90	227.05
771.22	226.87
771.55	226.61
771.87	226.43
772.20	226.20
772.52	226.19
772.85	226.28
773.17	226.08
773.50	225.86
773.82	225.60
774.15	225.30
774.47	225.04
774.80	224.80
775.12	224.66
775.45	224.53
775.77	224.42
776.09	224.36
776.42	224.23
776.74	224.20
777.07	224.07
777.39	223.90
777.72	223.72
778.04	223.66
778.36	223.59
778.69	223.42
779.01	223.44
779.33	223.20
779.66	222.90
779.98	222.80
780.31	222.77
780.63	222.76
780.95	222.73
781.28	222.65
781.60	222.55
781.92	222.45
782.25	222.37
782.57	222.25
782.89	222.11
783.22	221.99
783.54	221.83
783.86	221.73
784.19	221.61
784.51	221.55
784.83	221.34
785.16	221.23
785.48	221.20
785.80	221.05
786.12	220.95
786.45	220.82
786.77	220.75
787.09	220.61
787.42	220.50
787.74	220.47
788.06	220.38
788.38	220.28
788.71	220.17
789.03	220.03
789.35	219.90
789.67	219.83
789.99	219.80
790.32	219.63
790.64	219.60
790.96	219.73
791.28	219.60
791.61	219.58
791.93	219.48
792.25	219.48
792.57	219.51
792.89	219.41
793.21	219.37
793.54	219.22
793.86	219.15
794.18	219.04
794.50	218.86
794.82	218.77
795.14	218.73
795.47	218.66
795.79	218.61
796.11	218.44
796.43	218.36
796.75	218.24
797.07	218.28
797.39	218.22
797.71	218.02
798.04	217.93
798.36	217.87
798.68	217.79
799.00	217.66
799.32	217.57
799.64	217.57
799.96	217.47
800.28	217.51
800.60	217.45
800.92	217.41
801.24	217.36
801.56	217.28
801.89	217.19
802.21	217.14
802.53	217.04
802.85	217.13
803.17	217.13
803.49	217.12
803.81	216.97
804.13	216.87
804.45	216.70
804.77	216.64
805.09	216.57
805.41	216.54
805.73	216.45
806.05	216.34
806.37	216.25
806.69	216.14
807.01	216.05
807.33	215.97
807.65	215.86
807.97	215.91
808.28	215.82
808.60	215.81
808.92	215.80
809.24	215.92
809.56	215.76
809.88	215.71
810.20	215.61
810.52	215.62
810.84	215.52
811.16	215.49
811.48	215.50
811.80	215.54
812.12	215.50
812.43	215.46
812.75	215.37
813.07	215.31
813.39	215.36
813.71	215.30
814.03	215.26
814.35	215.31
814.67	215.21
814.98	215.24
815.30	215.17
815.62	215.10
815.94	214.90
816.26	214.93
816.58	214.86
816.89	214.82
817.21	214.76
817.53	214.74
817.85	214.74
818.17	214.69
818.48	214.55
818.80	214.55
819.12	214.48
819.44	214.43
819.76	214.36
820.07	214.25
820.39	214.23
820.71	214.22
821.03	214.15
821.34	214.10
821.66	214.09
821.98	214.05
822.30	213.99
822.61	214.04
822.93	214.01
823.25	213.95
823.57	213.95
823.88	213.92
824.20	213.93
824.52	213.93
824.83	213.87
825.15	213.81
825.47	213.73
825.79	213.76
826.10	213.70
826.42	213.72
826.74	213.78
827.05	213.66
827.37	213.66
827.69	213.69
828.00	213.58
828.32	213.55
828.64	213.54
828.95	213.52
829.27	213.51
829.58	213.45
829.90	213.45
830.22	213.45
830.53	213.43
830.85	213.35
831.17	213.23
831.48	213.21
831.80	213.30
832.11	213.31
832.43	213.26
832.75	213.28
833.06	213.33
833.38	213.19
833.69	213.22
834.01	213.22
834.32	213.11
834.64	213.16
834.96	213.18
835.27	213.12
835.59	213.17
835.90	213.09
836.22	213.10
836.53	213.00
836.85	212.93
837.16	213.04
837.48	213.10
837.79	213.20
838.11	213.19
838.42	213.12
838.74	213.12
839.05	213.08
839.37	213.12
839.68	213.03
840.00	213.06
840.31	213.09
840.63	213.07
840.94	213.02
841.26	212.98
841.57	212.93
841.88	212.92
842.20	212.82
842.51	212.77
842.83	212.77
843.14	213.03
843.46	212.96
843.77	212.83
844.08	212.79
844.40	212.68
844.71	212.67
845.03	212.60
845.34	212.54
845.65	212.53
845.97	212.49
846.28	212.45
846.60	212.42
846.91	212.36
847.22	212.38
847.54	212.44
847.85	212.42
848.16	212.37
848.48	212.35
848.79	212.45
849.10	212.49
849.42	212.49
849.73	212.27
850.04	212.31
850.36	212.21
850.67	212.26
850.98	212.32
851.30	212.36
851.61	212.41
851.92	212.42
852.23	212.53
852.55	212.46
852.86	212.40
853.17	212.37
853.49	212.38
853.80	212.41
854.11	212.42
854.42	212.48
854.74	212.49
855.05	212.50
855.36	212.37
855.67	212.37
855.99	212.30
856.30	212.49
856.61	212.51
856.92	212.52
857.23	212.46
857.55	212.46
857.86	212.40
858.17	212.43
858.48	212.40
858.79	212.26
859.11	212.31
859.42	212.33
859.73	212.33
860.04	212.32
860.35	212.18
860.66	212.12
860.98	212.06
861.29	212.09
861.60	212.05
861.91	212.07
862.22	212.04
862.53	212.00
862.84	211.85
863.16	211.88
863.47	211.91
863.78	211.92
864.09	211.85
864.40	211.94
864.71	211.89
865.02	211.89
865.33	211.93
865.64	211.89
865.95	211.92
866.27	212.09
866.58	212.10
866.89	212.14
867.20	212.15
867.51	212.15
867.82	212.12
868.13	212.25
868.44	212.33
868.75	212.37
869.06	212.46
869.37	212.42
869.68	212.33
869.99	212.30
870.30	212.25
870.61	212.26
870.92	212.28
871.23	212.33
871.54	212.37
871.85	212.44
872.16	212.51
872.47	212.48
872.78	212.36
873.09	212.43
873.40	212.41
873.71	212.45
874.02	212.37
874.33	212.31
874.64	212.22
874.95	212.21
875.26	212.21
875.56	212.15
875.87	212.13
876.18	212.13
876.49	212.38
876.80	212.47
877.11	212.45
877.42	212.42
877.73	212.41
878.04	212.33
878.35	212.26
878.66	212.18
878.96	212.24
879.27	212.23
879.58	212.16
879.89	212.21
880.20	212.27
880.51	212.30
880.82	212.35
881.12	212.39
881.43	212.31
881.74	212.22
882.05	212.15
882.36	212.20
882.67	212.28
882.97	212.10
883.28	212.06
883.59	212.07
883.90	212.02
884.21	212.01
884.51	212.10
884.82	212.04
885.13	212.17
885.44	212.15
885.74	212.16
886.05	212.13
886.36	212.16
886.67	212.04
886.98	212.21
887.28	212.21
887.59	212.18
887.90	212.23
888.20	212.23
888.51	212.36
888.82	212.26
889.13	212.27
889.43	212.33
889.74	212.35
890.05	212.30
890.35	212.33
890.66	212.29
890.97	212.16
891.28	212.21
891.58	212.06
891.89	212.05
892.20	212.00
892.50	211.99
892.81	211.94
893.12	211.93
893.42	211.80
893.73	211.77
894.04	211.75
894.34	211.67
894.65	211.66
894.95	211.63
895.26	211.71
895.57	211.80
895.87	211.56
896.18	211.58
896.48	211.62
896.79	211.55
897.10	211.63
897.40	211.68
897.71	211.65
898.01	211.62
898.32	211.58
898.63	211.63
898.93	211.61
899.24	211.56
899.54	211.53
899.85	211.44
900.15	211.46
900.46	211.45
900.76	211.48
901.07	211.47
901.38	211.44
901.68	211.36
901.99	211.20
902.29	211.27
902.60	211.19
902.90	211.18
903.21	211.14
903.51	211.06
903.82	211.12
904.12	211.16
904.43	211.28
904.73	211.23
905.03	211.21
905.34	211.36
905.64	211.38
905.95	211.44
906.25	211.51
906.56	211.52
906.86	211.55
907.17	211.60
907.47	211.57
907.77	211.50
908.08	211.51
908.38	211.54
908.69	211.52
908.99	211.60
909.30	211.57
909.60	211.64
909.90	211.61
910.21	211.57
910.51	211.50
910.81	211.53
911.12	211.59
911.42	211.60
911.73	211.45
912.03	211.47
912.33	211.44
912.64	211.38
912.94	211.33
913.24	211.29
913.55	211.19
913.85	211.22
914.15	211.26
914.46	211.24
914.76	211.23
915.06	211.25
915.37	211.11
915.67	211.05
915.97	211.07
916.27	211.07
916.58	211.10
916.88	211.12
917.18	211.04
917.49	211.15
917.79	211.11
918.09	211.16
918.39	211.21
918.70	211.26
919.00	211.29
919.30	211.34
919.60	211.31
919.91	211.38
920.21	211.42
920.51	211.42
920.81	211.44
921.12	211.40
921.42	211.37
921.72	211.44
922.02	211.53
922.32	211.49
922.63	211.49
922.93	211.47
923.23	211.45
923.53	211.42
923.83	211.30
924.13	211.29
924.44	211.22
924.74	211.23
925.04	211.21
925.34	211.19
925.64	211.17
925.94	211.20
926.24	211.16
926.55	211.12
926.85	211.22
927.15	211.18
927.45	211.22
927.75	211.23
928.05	211.25
928.35	211.28
928.65	211.31
928.95	211.30
929.26	211.26
929.56	211.33
929.86	211.36
930.16	211.35
930.46	211.35
930.76	211.34
931.06	211.23
931.36	211.20
931.66	211.25
931.96	211.22
932.26	211.25
932.56	211.30
932.86	211.34
933.16	211.26
933.46	211.30
933.76	211.32
934.06	211.38
934.36	211.38
934.66	211.33
934.96	211.32
935.26	211.35
935.56	211.30
935.86	211.29
936.16	211.27
936.46	211.29
936.76	211.26
937.06	211.31
937.36	211.38
937.66	211.39
937.96	211.35
938.26	211.33
938.56	211.30
938.86	211.25
939.16	211.29
939.46	211.24
939.76	211.27
940.06	211.25
940.35	211.26
940.65	211.19
940.95	211.16
941.25	211.11
941.55	211.09
941.85	211.18
942.15	211.23
942.45	211.29
942.75	211.24
943.04	211.29
943.34	211.26
943.64	211.21
943.94	211.15
944.24	211.23
944.54	211.26
944.84	211.20
945.13	211.15
945.43	211.06
945.73	211.07
946.03	211.03
946.33	210.94
946.62	210.84
946.92	210.88
947.22	210.92
947.52	210.97
947.82	211.05
948.11	211.00
948.41	210.88
948.71	210.86
949.01	210.89
949.31	210.89
949.60	210.83
949.90	210.85
950.20	210.85
950.50	210.82
950.79	210.77
951.09	210.87
951.39	210.95
951.69	210.97
951.98	211.05
952.28	211.06
952.58	211.05
952.87	211.09
953.17	211.06
953.47	211.04
953.76	211.00
954.06	210.96
954.36	210.96
954.66	210.90
954.95	210.85
955.25	210.86
955.55	210.82
955.84	210.89
956.14	210.88
956.44	210.83
956.73	210.80
957.03	210.80
957.32	210.75
957.62	210.72
957.92	210.73
958.21	210.73
958.51	210.93
958.81	211.00
959.10	211.03
959.40	211.14
959.69	211.22
959.99	211.22
960.29	211.22
960.58	211.17
960.88	211.27
961.17	211.30
961.47	211.30
961.76	211.36
962.06	211.47
962.36	211.51
962.65	211.55
962.95	211.49
963.24	211.52
963.54	211.55
963.83	211.54
964.13	211.55
964.42	211.58
964.72	211.40
965.01	211.44
965.31	211.36
965.60	211.30
965.90	211.39
966.19	211.36
966.49	211.32
966.78	211.39
967.08	211.45
967.37	211.49
967.67	211.44
967.96	211.40
968.26	211.29
968.55	211.33
968.85	211.44
969.14	211.50
969.43	211.51
969.73	211.42
970.02	211.52
970.32	211.49
970.61	211.38
970.91	211.32
971.20	211.27
971.49	211.31
971.79	211.27
972.08	211.09
972.38	211.17
972.67	211.17
972.96	211.19
973.26	211.12
973.55	211.13
973.85	211.17
974.14	211.14
974.43	211.18
974.73	211.15
975.02	211.01
975.31	211.04
975.61	210.99
975.90	211.05
976.19	210.92
976.49	210.97
976.78	210.96
977.07	210.99
977.37	210.98
977.66	210.94
977.95	210.94
978.24	211.04
978.54	211.09
978.83	211.13
979.12	211.09
979.42	211.05
979.71	211.04
980.00	210.98
980.29	210.98
980.59	210.93
980.88	210.90
981.17	210.97
981.46	210.94
981.76	210.95
982.05	210.98
982.34	211.04
982.63	211.00
982.93	211.00
983.22	210.97
983.51	210.94
983.80	210.99
984.09	211.04
984.39	210.93
984.68	210.88
984.97	210.80
985.26	210.74
985.55	210.80
985.85	210.73
986.14	210.77
986.43	210.82
986.72	210.83
987.01	210.78
987.30	210.72
987.59	210.72
987.89	210.80
988.18	210.74
988.47	210.66
988.76	210.60
989.05	210.60
989.34	210.60
989.63	210.67
989.92	210.72
990.22	210.65
990.51	210.70
990.80	210.67
991.09	210.76
991.38	210.80
991.67	210.72
991.96	210.73
992.25	210.77
992.54	210.71
992.83	210.69
993.12	210.70
993.41	210.73
993.70	210.78
993.99	210.71
994.28	210.80
994.58	210.90
994.87	210.90
995.16	210.99
995.45	211.03
995.74	211.03
996.03	211.03
996.32	211.06
996.61	211.10
996.90	211.11
997.19	210.99
997.48	211.00
997.77	211.05
998.06	211.10
998.34	211.04
998.63	211.06
998.92	211.07
999.21	211.08
999.50	211.09
999.79	211.05
1000.08	211.08
1000.37	211.06
1000.66	211.01
1000.95	211.07
1001.24	211.00
1001.53	211.04
1001.82	211.00
1002.11	210.95
1002.40	210.98
1002.68	210.99
1002.97	211.12
1003.26	211.27
1003.55	211.26
1003.84	211.24
1004.13	211.22
1004.42	211.21
1004.71	211.21
1004.99	211.24
1005.28	211.28
1005.57	211.33
1005.86	211.34
1006.15	211.32
1006.44	211.30
1006.72	211.29
1007.01	211.27
1007.30	211.29
1007.59	211.24
1007.88	211.27
1008.17	211.25
1008.45	211.20
1008.74	211.14
1009.03	211.02
1009.32	210.97
1009.60	210.98
1009.89	210.96
1010.18	210.95
1010.47	210.99
1010.76	210.96
1011.04	210.93
1011.33	210.95
1011.62	210.88
1011.91	210.85
1012.19	210.92
1012.48	210.87
1012.77	210.90
1013.05	210.99
1013.34	210.93
1013.63	210.90
1013.92	210.84
1014.20	210.90
1014.49	210.91
1014.78	210.91
1015.06	210.85
1015.35	210.85
1015.64	210.89
1015.92	210.91
1016.21	210.88
1016.50	210.84
1016.78	210.89
1017.07	210.88
1017.36	210.88
1017.64	210.85
1017.93	210.90
1018.22	210.76
1018.50	210.82
1018.79	210.77
1019.08	210.69
1019.36	210.73
1019.65	210.71
1019.93	210.77
1020.22	210.72
1020.51	210.77
1020.79	210.75
1021.08	209.65
1021.36	211.25
1021.65	210.15
1021.94	210.40
1022.22	210.85
1022.51	209.65
1022.79	211.55
1023.08	210.20
1023.36	212.30
1023.65	210.10
>>>>>End Processed Spectral Data<<<<<
