SpectraSuite Data File
++++++++++++++++++++++++++++++++++++
Date: Mon Feb 25 17:34:29 EST 2013
User: group
Dark Spectrum Present: No
Reference Spectrum Present: No
Number of Sampled Component Spectra: 1
Spectrometers: USB2E7196
Integration Time (usec): 52000 (USB2E7196)
Spectra Averaged: 20 (USB2E7196)
Boxcar Smoothing: 10 (USB2E7196)
Correct for Electrical Dark: No (USB2E7196)
Strobe/Lamp Enabled: No (USB2E7196)
Correct for Detector Non-linearity: No (USB2E7196)
Correct for Stray Light: No (USB2E7196)
Number of Pixels in Processed Spectrum: 2048
>>>>>Begin Processed Spectral Data<<<<<
339.09	0.00
339.48	199.85
339.86	200.50
340.24	201.30
340.63	202.50
341.01	206.00
341.39	204.25
341.78	207.00
342.16	208.40
342.54	208.55
342.93	197.79
343.31	207.79
343.69	208.26
344.07	208.68
344.46	209.13
344.84	209.52
345.22	209.75
345.60	210.10
345.99	210.30
346.37	210.47
346.75	210.54
347.13	210.64
347.52	210.70
347.90	210.75
348.28	210.76
348.66	210.84
349.05	210.89
349.43	210.91
349.81	211.06
350.19	211.11
350.57	211.20
350.96	211.24
351.34	211.37
351.72	211.56
352.10	211.71
352.48	211.76
352.87	211.76
353.25	211.84
353.63	211.83
354.01	211.87
354.39	212.00
354.77	212.10
355.15	212.21
355.54	212.28
355.92	212.38
356.30	212.50
356.68	212.69
357.06	212.75
357.44	212.80
357.82	212.80
358.20	212.96
358.58	213.12
358.97	213.21
359.35	213.29
359.73	213.30
360.11	213.36
360.49	213.48
360.87	213.62
361.25	213.67
361.63	213.85
362.01	213.96
362.39	213.95
362.77	214.05
363.15	214.09
363.53	214.11
363.91	214.09
364.29	214.14
364.67	214.04
365.05	214.08
365.43	214.11
365.81	214.12
366.19	214.19
366.57	214.24
366.95	214.25
367.33	214.18
367.71	214.21
368.09	214.23
368.47	214.23
368.85	214.22
369.23	214.29
369.61	214.20
369.99	214.18
370.37	214.15
370.75	214.16
371.13	214.10
371.51	214.10
371.89	214.05
372.27	214.00
372.65	213.90
373.03	213.84
373.41	213.83
373.78	213.83
374.16	213.72
374.54	213.58
374.92	213.50
375.30	213.48
375.68	213.35
376.06	213.26
376.44	213.14
376.82	213.12
377.19	213.02
377.57	212.96
377.95	212.83
378.33	212.80
378.71	212.69
379.09	212.65
379.47	212.61
379.84	212.57
380.22	212.55
380.60	212.56
380.98	212.55
381.36	212.42
381.73	212.28
382.11	212.18
382.49	212.05
382.87	211.98
383.25	211.94
383.62	212.08
384.00	212.05
384.38	212.01
384.76	211.98
385.13	211.98
385.51	211.91
385.89	211.89
386.27	211.83
386.64	211.82
387.02	211.79
387.40	211.73
387.78	211.72
388.15	211.61
388.53	211.56
388.91	211.49
389.29	211.49
389.66	211.55
390.04	211.54
390.42	211.56
390.79	211.55
391.17	211.44
391.55	211.29
391.92	211.22
392.30	211.20
392.68	211.05
393.05	211.13
393.43	211.12
393.81	211.11
394.18	211.07
394.56	211.06
394.94	211.07
395.31	211.10
395.69	211.13
396.06	211.13
396.44	211.14
396.82	211.15
397.19	211.27
397.57	211.20
397.95	211.27
398.32	211.25
398.70	211.28
399.07	211.51
399.45	211.52
399.82	211.55
400.20	211.58
400.58	211.68
400.95	211.56
401.33	211.71
401.70	211.95
402.08	212.00
402.45	212.09
402.83	212.21
403.20	212.26
403.58	212.33
403.95	212.54
404.33	212.59
404.71	212.71
405.08	212.99
405.46	213.15
405.83	213.30
406.21	213.51
406.58	213.74
406.96	213.82
407.33	214.05
407.70	214.34
408.08	214.77
408.45	215.07
408.83	215.43
409.20	215.59
409.58	215.75
409.95	216.00
410.33	216.27
410.70	216.47
411.08	216.84
411.45	217.24
411.82	217.54
412.20	218.06
412.57	218.62
412.95	218.84
413.32	219.36
413.69	219.91
414.07	220.49
414.44	221.02
414.82	221.65
415.19	222.36
415.56	223.11
415.94	223.73
416.31	224.69
416.68	225.53
417.06	226.57
417.43	227.51
417.81	228.72
418.18	229.86
418.55	231.13
418.93	232.42
419.30	233.69
419.67	235.13
420.04	236.53
420.42	237.96
420.79	239.69
421.16	241.50
421.54	243.20
421.91	245.08
422.28	247.00
422.66	249.09
423.03	251.11
423.40	253.22
423.77	255.50
424.15	257.65
424.52	259.98
424.89	262.52
425.26	264.94
425.64	267.27
426.01	269.85
426.38	272.51
426.75	275.17
427.13	278.03
427.50	280.99
427.87	284.09
428.24	287.21
428.61	290.13
428.99	293.34
429.36	296.94
429.73	300.44
430.10	303.97
430.47	307.54
430.85	311.22
431.22	315.10
431.59	319.28
431.96	323.22
432.33	327.49
432.70	331.67
433.08	336.83
433.45	341.55
433.82	346.22
434.19	351.47
434.56	356.47
434.93	361.31
435.30	366.02
435.68	371.29
436.05	376.51
436.42	381.72
436.79	386.48
437.16	391.53
437.53	396.78
437.90	402.07
438.27	407.16
438.64	412.58
439.01	417.53
439.38	421.97
439.75	426.29
440.13	431.35
440.50	435.95
440.87	439.50
441.24	443.22
441.61	447.38
441.98	450.50
442.35	454.25
442.72	457.90
443.09	461.44
443.46	463.51
443.83	464.97
444.20	466.28
444.57	467.94
444.94	468.74
445.31	469.66
445.68	470.54
446.05	470.69
446.42	469.98
446.79	469.27
447.16	468.42
447.53	467.66
447.90	465.45
448.27	463.38
448.64	460.53
449.01	458.53
449.37	454.98
449.74	451.41
450.11	447.21
450.48	442.69
450.85	438.18
451.22	434.26
451.59	430.47
451.96	426.77
452.33	422.08
452.70	417.67
453.07	412.40
453.43	407.00
453.80	402.14
454.17	397.34
454.54	392.71
454.91	387.80
455.28	383.24
455.65	378.76
456.02	374.44
456.38	370.70
456.75	366.06
457.12	362.19
457.49	358.34
457.86	354.60
458.23	351.41
458.59	347.93
458.96	344.36
459.33	341.14
459.70	337.91
460.07	335.36
460.43	332.55
460.80	329.87
461.17	327.55
461.54	325.07
461.91	322.66
462.27	320.34
462.64	318.24
463.01	315.96
463.38	313.81
463.74	311.62
464.11	309.67
464.48	307.95
464.85	306.12
465.21	304.74
465.58	303.35
465.95	301.61
466.32	300.16
466.68	298.78
467.05	297.36
467.42	296.06
467.78	294.59
468.15	293.24
468.52	292.27
468.88	290.98
469.25	289.95
469.62	289.08
469.98	288.01
470.35	287.12
470.72	286.28
471.08	285.34
471.45	284.50
471.82	283.71
472.18	282.88
472.55	282.24
472.92	281.55
473.28	280.91
473.65	280.27
474.02	279.60
474.38	279.22
474.75	278.82
475.11	278.38
475.48	278.09
475.85	277.83
476.21	277.60
476.58	277.39
476.94	277.14
477.31	277.07
477.67	277.05
478.04	277.05
478.41	277.08
478.77	277.40
479.14	277.46
479.50	277.77
479.87	278.10
480.23	278.46
480.60	278.82
480.96	279.19
481.33	279.85
481.69	280.53
482.06	281.04
482.42	281.70
482.79	282.38
483.15	283.34
483.52	284.30
483.88	285.24
484.25	286.34
484.61	287.45
484.98	288.56
485.34	289.86
485.71	291.20
486.07	292.59
486.44	293.86
486.80	295.49
487.17	296.95
487.53	298.70
487.90	300.46
488.26	302.33
488.62	304.46
488.99	306.39
489.35	308.45
489.72	310.79
490.08	313.16
490.44	315.72
490.81	318.26
491.17	320.90
491.54	323.74
491.90	326.61
492.26	329.84
492.63	333.25
492.99	336.68
493.36	340.36
493.72	344.29
494.08	348.39
494.45	352.68
494.81	357.31
495.17	361.92
495.54	366.86
495.90	371.98
496.26	377.04
496.63	382.68
496.99	388.65
497.35	394.68
497.72	401.09
498.08	407.50
498.44	414.19
498.80	421.49
499.17	428.96
499.53	436.80
499.89	444.79
500.26	452.85
500.62	461.14
500.98	470.00
501.34	479.09
501.71	488.45
502.07	498.04
502.43	507.94
502.79	518.26
503.16	528.97
503.52	539.99
503.88	551.50
504.24	563.11
504.60	575.04
504.97	587.29
505.33	599.79
505.69	613.14
506.05	626.75
506.41	640.27
506.78	653.94
507.14	668.05
507.50	682.69
507.86	697.75
508.22	713.46
508.59	729.02
508.95	744.94
509.31	761.35
509.67	778.15
510.03	795.12
510.39	812.56
510.75	830.40
511.12	848.50
511.48	866.69
511.84	885.26
512.20	903.81
512.56	922.95
512.92	942.53
513.28	962.08
513.64	982.07
514.00	1001.89
514.37	1022.35
514.73	1043.01
515.09	1063.86
515.45	1084.82
515.81	1105.86
516.17	1127.15
516.53	1148.53
516.89	1169.98
517.25	1191.79
517.61	1213.60
517.97	1235.26
518.33	1256.70
518.69	1278.21
519.05	1300.39
519.41	1322.43
519.77	1345.31
520.13	1367.75
520.49	1390.03
520.85	1412.77
521.21	1435.25
521.57	1458.40
521.93	1480.52
522.29	1503.74
522.65	1526.16
523.01	1548.92
523.37	1571.04
523.73	1593.59
524.09	1616.20
524.45	1638.82
524.81	1661.36
525.17	1683.92
525.53	1706.61
525.89	1729.35
526.25	1751.79
526.61	1773.20
526.97	1795.14
527.33	1816.35
527.68	1837.82
528.04	1859.08
528.40	1879.65
528.76	1900.52
529.12	1921.31
529.48	1943.40
529.84	1963.81
530.20	1984.34
530.56	2004.77
530.91	2025.92
531.27	2046.48
531.63	2066.68
531.99	2086.73
532.35	2105.94
532.71	2124.99
533.07	2144.49
533.42	2163.22
533.78	2182.26
534.14	2200.94
534.50	2218.40
534.86	2236.62
535.21	2253.71
535.57	2271.88
535.93	2289.32
536.29	2306.15
536.65	2323.28
537.00	2338.61
537.36	2353.99
537.72	2369.80
538.08	2385.28
538.44	2400.33
538.79	2415.82
539.15	2430.82
539.51	2445.65
539.87	2461.24
540.22	2475.88
540.58	2490.84
540.94	2505.63
541.29	2518.72
541.65	2531.32
542.01	2544.58
542.37	2556.43
542.72	2568.86
543.08	2579.73
543.44	2591.72
543.79	2602.49
544.15	2612.74
544.51	2624.10
544.87	2635.49
545.22	2644.49
545.58	2653.22
545.94	2660.83
546.29	2667.51
546.65	2673.78
547.01	2680.16
547.36	2685.77
547.72	2691.33
548.07	2695.71
548.43	2699.11
548.79	2703.21
549.14	2708.05
549.50	2712.60
549.86	2716.76
550.21	2721.14
550.57	2725.36
550.92	2728.23
551.28	2730.86
551.64	2733.46
551.99	2736.09
552.35	2737.75
552.70	2740.47
553.06	2743.17
553.41	2746.35
553.77	2749.45
554.13	2752.00
554.48	2754.01
554.84	2755.74
555.19	2756.51
555.55	2757.22
555.90	2758.20
556.26	2758.91
556.61	2759.00
556.97	2757.77
557.32	2757.66
557.68	2755.96
558.03	2754.85
558.39	2753.48
558.74	2753.36
559.10	2752.14
559.45	2750.00
559.81	2748.73
560.16	2746.65
560.52	2744.22
560.87	2741.11
561.23	2737.46
561.58	2735.30
561.94	2732.08
562.29	2728.25
562.64	2726.41
563.00	2723.65
563.35	2721.55
563.71	2719.40
564.06	2717.07
564.42	2715.40
564.77	2713.03
565.12	2711.12
565.48	2707.65
565.83	2704.21
566.19	2700.72
566.54	2696.57
566.89	2692.75
567.25	2688.69
567.60	2685.24
567.96	2681.85
568.31	2678.52
568.66	2674.32
569.02	2669.38
569.37	2664.39
569.72	2660.51
570.08	2655.13
570.43	2649.43
570.78	2643.61
571.14	2637.62
571.49	2630.88
571.84	2624.91
572.20	2617.85
572.55	2611.48
572.90	2604.70
573.26	2597.90
573.61	2591.23
573.96	2584.59
574.31	2576.84
574.67	2569.09
575.02	2560.26
575.37	2551.22
575.72	2542.34
576.08	2534.95
576.43	2526.36
576.78	2518.21
577.13	2510.21
577.49	2501.77
577.84	2494.19
578.19	2486.23
578.54	2478.63
578.90	2472.00
579.25	2463.00
579.60	2453.95
579.95	2444.54
580.30	2436.35
580.66	2428.25
581.01	2418.43
581.36	2409.03
581.71	2400.55
582.06	2392.03
582.42	2384.04
582.77	2375.02
583.12	2365.78
583.47	2356.78
583.82	2348.65
584.17	2339.58
584.53	2330.08
584.88	2321.23
585.23	2311.85
585.58	2302.46
585.93	2292.54
586.28	2282.84
586.63	2274.22
586.98	2265.90
587.34	2257.65
587.69	2248.42
588.04	2239.55
588.39	2231.36
588.74	2222.45
589.09	2213.68
589.44	2203.91
589.79	2195.07
590.14	2187.19
590.49	2178.86
590.84	2170.17
591.19	2161.69
591.54	2152.98
591.89	2142.96
592.25	2133.78
592.60	2124.27
592.95	2114.81
593.30	2105.29
593.65	2095.74
594.00	2086.03
594.35	2077.81
594.70	2068.46
595.05	2059.83
595.40	2050.89
595.75	2041.11
596.10	2032.97
596.45	2024.42
596.80	2016.50
597.15	2008.05
597.50	1998.91
597.85	1990.46
598.19	1981.55
598.54	1973.09
598.89	1965.22
599.24	1958.30
599.59	1950.90
599.94	1943.78
600.29	1935.84
600.64	1927.74
600.99	1918.93
601.34	1911.40
601.69	1902.48
602.04	1893.75
602.39	1885.34
602.74	1877.23
603.08	1870.52
603.43	1862.91
603.78	1854.80
604.13	1846.62
604.48	1838.86
604.83	1831.94
605.18	1824.92
605.53	1817.22
605.87	1809.27
606.22	1801.83
606.57	1793.93
606.92	1785.62
607.27	1777.30
607.62	1770.09
607.96	1763.54
608.31	1757.51
608.66	1749.80
609.01	1742.18
609.36	1734.74
609.70	1727.00
610.05	1719.09
610.40	1710.74
610.75	1702.41
611.10	1694.82
611.44	1685.61
611.79	1676.49
612.14	1666.82
612.49	1656.98
612.83	1648.12
613.18	1638.20
613.53	1628.53
613.88	1618.81
614.22	1609.83
614.57	1600.40
614.92	1590.89
615.27	1581.35
615.61	1571.27
615.96	1562.24
616.31	1553.39
616.65	1545.28
617.00	1536.59
617.35	1527.65
617.70	1518.69
618.04	1509.35
618.39	1499.68
618.74	1491.46
619.08	1482.56
619.43	1474.52
619.78	1466.78
620.12	1458.78
620.47	1450.95
620.82	1442.46
621.16	1434.08
621.51	1425.47
621.85	1417.26
622.20	1408.70
622.55	1400.19
622.89	1391.97
623.24	1383.88
623.59	1375.28
623.93	1366.80
624.28	1358.66
624.62	1350.54
624.97	1342.34
625.32	1334.52
625.66	1327.28
626.01	1319.80
626.35	1312.53
626.70	1304.45
627.04	1296.76
627.39	1288.81
627.73	1281.16
628.08	1274.27
628.43	1266.76
628.77	1259.51
629.12	1252.13
629.46	1245.49
629.81	1238.35
630.15	1231.00
630.50	1223.56
630.84	1216.28
631.19	1208.93
631.53	1201.88
631.88	1194.40
632.22	1186.93
632.57	1180.07
632.91	1172.15
633.26	1164.50
633.60	1157.28
633.95	1150.35
634.29	1142.87
634.64	1136.29
634.98	1129.39
635.32	1122.11
635.67	1115.50
636.01	1108.76
636.36	1101.93
636.70	1095.10
637.05	1088.32
637.39	1082.05
637.73	1075.61
638.08	1069.69
638.42	1063.64
638.77	1057.07
639.11	1050.69
639.45	1044.72
639.80	1038.12
640.14	1031.79
640.49	1025.70
640.83	1019.48
641.17	1013.10
641.52	1007.11
641.86	1000.48
642.20	994.22
642.55	987.38
642.89	981.10
643.23	974.59
643.58	968.54
643.92	962.01
644.26	955.79
644.61	949.64
644.95	943.69
645.29	937.29
645.64	930.78
645.98	924.79
646.32	918.98
646.66	912.57
647.01	906.60
647.35	900.89
647.69	894.61
648.04	888.74
648.38	882.77
648.72	876.73
649.06	870.59
649.41	864.54
649.75	859.04
650.09	853.19
650.43	847.35
650.78	841.20
651.12	834.93
651.46	828.95
651.80	823.02
652.14	816.82
652.49	810.77
652.83	804.87
653.17	798.69
653.51	792.64
653.85	787.03
654.20	781.03
654.54	775.27
654.88	769.58
655.22	763.84
655.56	758.01
655.90	751.98
656.25	746.19
656.59	740.57
656.93	735.19
657.27	729.83
657.61	724.28
657.95	719.19
658.29	714.15
658.64	709.02
658.98	703.58
659.32	698.31
659.66	693.12
660.00	687.65
660.34	682.42
660.68	677.30
661.02	672.20
661.36	667.47
661.70	662.48
662.05	657.87
662.39	653.13
662.73	648.77
663.07	644.44
663.41	640.01
663.75	635.32
664.09	630.66
664.43	625.99
664.77	621.75
665.11	617.16
665.45	612.85
665.79	608.31
666.13	603.97
666.47	599.63
666.81	595.57
667.15	591.64
667.49	587.70
667.83	583.67
668.17	579.59
668.51	575.71
668.85	571.99
669.19	568.32
669.53	564.46
669.87	560.39
670.21	556.58
670.55	552.69
670.89	549.38
671.23	545.77
671.57	542.29
671.91	538.54
672.25	535.05
672.58	531.50
672.92	528.06
673.26	524.82
673.60	521.57
673.94	518.21
674.28	514.87
674.62	511.80
674.96	508.57
675.30	505.55
675.64	502.34
675.97	499.14
676.31	495.93
676.65	492.97
676.99	490.28
677.33	487.27
677.67	484.38
678.01	481.22
678.34	478.39
678.68	475.36
679.02	472.34
679.36	469.40
679.70	466.42
680.04	463.56
680.37	460.67
680.71	457.81
681.05	455.14
681.39	452.44
681.73	449.59
682.06	447.10
682.40	444.46
682.74	441.77
683.08	439.23
683.42	436.52
683.75	433.99
684.09	431.27
684.43	428.69
684.77	426.07
685.10	423.51
685.44	420.89
685.78	418.55
686.12	416.35
686.45	414.00
686.79	411.92
687.13	409.88
687.46	407.65
687.80	405.47
688.14	403.14
688.48	400.82
688.81	398.55
689.15	396.25
689.49	394.00
689.82	391.81
690.16	389.46
690.50	387.25
690.83	384.86
691.17	382.63
691.51	380.45
691.84	378.41
692.18	376.44
692.52	374.40
692.85	372.41
693.19	370.44
693.52	368.43
693.86	366.35
694.20	364.31
694.53	362.41
694.87	360.43
695.21	358.43
695.54	356.54
695.88	354.67
696.21	352.88
696.55	351.13
696.88	349.32
697.22	347.63
697.56	346.03
697.89	344.36
698.23	342.73
698.56	341.22
698.90	339.67
699.23	338.00
699.57	336.44
699.90	334.80
700.24	333.15
700.58	331.58
700.91	330.01
701.25	328.59
701.58	327.10
701.92	325.68
702.25	324.23
702.59	322.84
702.92	321.52
703.26	320.14
703.59	318.87
703.93	317.68
704.26	316.39
704.60	315.02
704.93	313.73
705.26	312.39
705.60	311.15
705.93	309.78
706.27	308.67
706.60	307.61
706.94	306.45
707.27	305.23
707.61	304.01
707.94	302.88
708.27	301.57
708.61	300.45
708.94	299.29
709.28	298.19
709.61	297.12
709.94	296.05
710.28	294.92
710.61	293.77
710.95	292.53
711.28	291.57
711.61	290.56
711.95	289.63
712.28	288.68
712.61	287.59
712.95	286.89
713.28	285.93
713.61	284.86
713.95	283.94
714.28	283.15
714.61	282.33
714.95	281.40
715.28	280.53
715.61	279.48
715.95	278.67
716.28	277.82
716.61	277.06
716.95	276.16
717.28	275.33
717.61	274.55
717.94	273.91
718.28	273.08
718.61	272.38
718.94	271.66
719.27	270.93
719.61	270.23
719.94	269.37
720.27	268.60
720.60	267.85
720.94	267.11
721.27	266.36
721.60	265.67
721.93	265.13
722.27	264.57
722.60	264.08
722.93	263.35
723.26	262.78
723.59	262.10
723.93	261.55
724.26	261.04
724.59	260.50
724.92	259.88
725.25	259.23
725.59	258.56
725.92	257.96
726.25	257.45
726.58	256.96
726.91	256.45
727.24	255.92
727.57	255.43
727.91	254.83
728.24	254.43
728.57	254.05
728.90	253.54
729.23	253.01
729.56	252.61
729.89	252.20
730.22	251.80
730.55	251.25
730.89	250.73
731.22	250.25
731.55	249.74
731.88	249.24
732.21	248.78
732.54	248.44
732.87	247.98
733.20	247.53
733.53	247.06
733.86	246.55
734.19	246.14
734.52	245.86
734.85	245.65
735.18	245.08
735.51	244.64
735.84	244.24
736.17	243.90
736.50	243.39
736.83	243.23
737.16	242.76
737.49	242.46
737.82	242.13
738.15	241.76
738.48	241.33
738.81	241.08
739.14	240.66
739.47	240.20
739.80	239.90
740.13	239.59
740.46	239.24
740.79	238.88
741.12	238.51
741.45	238.14
741.78	237.79
742.11	237.62
742.44	237.28
742.77	236.93
743.10	236.65
743.43	236.31
743.75	235.82
744.08	235.78
744.41	235.43
744.74	235.19
745.07	234.85
745.40	234.66
745.73	234.37
746.06	234.16
746.39	233.97
746.71	233.65
747.04	233.32
747.37	233.06
747.70	232.91
748.03	232.72
748.36	232.47
748.68	232.19
749.01	231.89
749.34	231.65
749.67	231.47
750.00	231.20
750.33	231.10
750.65	230.83
750.98	230.32
751.31	230.13
751.64	229.91
751.97	229.74
752.29	229.50
752.62	229.20
752.95	228.98
753.28	228.70
753.60	228.45
753.93	228.24
754.26	228.05
754.59	227.82
754.91	227.55
755.24	227.35
755.57	227.18
755.90	226.97
756.22	226.66
756.55	226.40
756.88	226.16
757.20	225.89
757.53	225.60
757.86	225.39
758.19	225.18
758.51	224.93
758.84	224.67
759.17	224.48
759.49	224.30
759.82	224.23
760.15	224.14
760.47	223.99
760.80	223.84
761.13	223.63
761.45	223.35
761.78	223.19
762.11	223.01
762.43	222.78
762.76	222.60
763.08	222.53
763.41	222.37
763.74	222.27
764.06	222.17
764.39	222.02
764.71	221.94
765.04	221.88
765.37	221.74
765.69	221.60
766.02	221.43
766.34	221.33
766.67	221.13
767.00	220.98
767.32	220.95
767.65	220.91
767.97	220.87
768.30	220.87
768.62	220.74
768.95	220.62
769.27	220.51
769.60	220.45
769.92	220.34
770.25	220.19
770.57	220.05
770.90	219.92
771.22	219.84
771.55	219.76
771.87	219.60
772.20	219.49
772.52	219.57
772.85	219.70
773.17	219.60
773.50	219.55
773.82	219.43
774.15	219.22
774.47	219.06
774.80	218.93
775.12	218.84
775.45	218.80
775.77	218.71
776.09	218.68
776.42	218.63
776.74	218.61
777.07	218.62
777.39	218.50
777.72	218.35
778.04	218.37
778.36	218.25
778.69	218.19
779.01	218.12
779.33	217.87
779.66	217.60
779.98	217.50
780.31	217.41
780.63	217.45
780.95	217.44
781.28	217.33
781.60	217.26
781.92	217.17
782.25	217.10
782.57	217.01
782.89	216.89
783.22	216.73
783.54	216.58
783.86	216.47
784.19	216.49
784.51	216.47
784.83	216.31
785.16	216.27
785.48	216.20
785.80	216.16
786.12	216.19
786.45	216.15
786.77	216.06
787.09	215.94
787.42	215.77
787.74	215.68
788.06	215.62
788.38	215.57
788.71	215.47
789.03	215.41
789.35	215.36
789.67	215.28
789.99	215.26
790.32	215.19
790.64	215.20
790.96	215.27
791.28	215.15
791.61	215.13
791.93	215.07
792.25	215.02
792.57	215.13
792.89	215.07
793.21	215.05
793.54	215.12
793.86	215.13
794.18	215.14
794.50	215.13
794.82	215.06
795.14	215.10
795.47	215.10
795.79	215.10
796.11	215.07
796.43	215.14
796.75	215.17
797.07	215.19
797.39	215.11
797.71	214.88
798.04	214.83
798.36	214.78
798.68	214.67
799.00	214.75
799.32	214.59
799.64	214.56
799.96	214.49
800.28	214.43
800.60	214.34
800.92	214.38
801.24	214.31
801.56	214.31
801.89	214.19
802.21	214.14
802.53	214.00
802.85	214.02
803.17	214.00
803.49	213.88
803.81	213.87
804.13	213.88
804.45	213.84
804.77	213.95
805.09	213.92
805.41	213.99
805.73	213.84
806.05	213.79
806.37	213.74
806.69	213.69
807.01	213.69
807.33	213.74
807.65	213.55
807.97	213.64
808.28	213.63
808.60	213.68
808.92	213.66
809.24	213.75
809.56	213.68
809.88	213.59
810.20	213.58
810.52	213.62
810.84	213.57
811.16	213.57
811.48	213.48
811.80	213.53
812.12	213.50
812.43	213.55
812.75	213.50
813.07	213.42
813.39	213.40
813.71	213.26
814.03	213.20
814.35	213.24
814.67	213.10
814.98	213.09
815.30	213.05
815.62	213.03
815.94	212.90
816.26	212.97
816.58	212.87
816.89	212.92
817.21	212.79
817.53	212.81
817.85	212.83
818.17	212.84
818.48	212.80
818.80	212.84
819.12	212.77
819.44	212.81
819.76	212.75
820.07	212.77
820.39	212.84
820.71	212.85
821.03	212.79
821.34	212.77
821.66	212.74
821.98	212.73
822.30	212.69
822.61	212.77
822.93	212.65
823.25	212.68
823.57	212.63
823.88	212.67
824.20	212.59
824.52	212.61
824.83	212.60
825.15	212.53
825.47	212.46
825.79	212.52
826.10	212.44
826.42	212.46
826.74	212.47
827.05	212.45
827.37	212.37
827.69	212.44
828.00	212.49
828.32	212.39
828.64	212.38
828.95	212.39
829.27	212.29
829.58	212.29
829.90	212.28
830.22	212.34
830.53	212.28
830.85	212.32
831.17	212.28
831.48	212.24
831.80	212.27
832.11	212.24
832.43	212.15
832.75	212.21
833.06	212.28
833.38	212.24
833.69	212.16
834.01	212.18
834.32	212.17
834.64	212.07
834.96	212.21
835.27	212.21
835.59	212.21
835.90	212.28
836.22	212.28
836.53	212.27
836.85	212.18
837.16	212.37
837.48	212.35
837.79	212.40
838.11	212.34
838.42	212.28
838.74	212.33
839.05	212.32
839.37	212.23
839.68	212.23
840.00	212.29
840.31	212.28
840.63	212.30
840.94	212.24
841.26	212.25
841.57	212.19
841.88	212.18
842.20	212.16
842.51	212.05
842.83	212.03
843.14	212.18
843.46	212.18
843.77	212.05
844.08	212.01
844.40	211.89
844.71	211.97
845.03	211.97
845.34	211.93
845.65	211.93
845.97	211.96
846.28	211.91
846.60	211.87
846.91	211.90
847.22	211.76
847.54	211.82
847.85	211.80
848.16	211.80
848.48	211.76
848.79	211.82
849.10	211.94
849.42	212.00
849.73	211.85
850.04	211.84
850.36	211.78
850.67	211.80
850.98	211.93
851.30	211.94
851.61	211.93
851.92	211.91
852.23	211.98
852.55	212.02
852.86	212.06
853.17	212.14
853.49	212.22
853.80	212.39
854.11	212.41
854.42	212.49
854.74	212.45
855.05	212.50
855.36	212.40
855.67	212.33
855.99	212.21
856.30	212.42
856.61	212.47
856.92	212.48
857.23	212.54
857.55	212.46
857.86	212.48
858.17	212.50
858.48	212.54
858.79	212.50
859.11	212.46
859.42	212.41
859.73	212.33
860.04	212.25
860.35	212.19
860.66	212.10
860.98	212.09
861.29	212.10
861.60	212.01
861.91	212.03
862.22	212.06
862.53	212.13
862.84	212.00
863.16	212.00
863.47	211.95
863.78	211.87
864.09	211.85
864.40	211.82
864.71	211.80
865.02	211.77
865.33	211.75
865.64	211.75
865.95	211.78
866.27	211.81
866.58	211.77
866.89	211.74
867.20	211.74
867.51	211.70
867.82	211.70
868.13	211.81
868.44	211.79
868.75	211.82
869.06	211.76
869.37	211.71
869.68	211.64
869.99	211.64
870.30	211.63
870.61	211.62
870.92	211.54
871.23	211.50
871.54	211.52
871.85	211.56
872.16	211.54
872.47	211.53
872.78	211.47
873.09	211.53
873.40	211.53
873.71	211.52
874.02	211.50
874.33	211.55
874.64	211.45
874.95	211.47
875.26	211.40
875.56	211.44
875.87	211.39
876.18	211.39
876.49	211.65
876.80	211.65
877.11	211.66
877.42	211.67
877.73	211.67
878.04	211.65
878.35	211.60
878.66	211.51
878.96	211.50
879.27	211.49
879.58	211.44
879.89	211.47
880.20	211.49
880.51	211.46
880.82	211.40
881.12	211.42
881.43	211.32
881.74	211.22
882.05	211.21
882.36	211.29
882.67	211.30
882.97	211.05
883.28	211.04
883.59	211.03
883.90	211.01
884.21	211.10
884.51	211.06
884.82	210.98
885.13	211.13
885.44	211.07
885.74	211.01
886.05	211.03
886.36	210.99
886.67	210.95
886.98	211.07
887.28	211.15
887.59	211.16
887.90	211.20
888.20	211.28
888.51	211.28
888.82	211.20
889.13	211.20
889.43	211.36
889.74	211.31
890.05	211.25
890.35	211.27
890.66	211.19
890.97	211.20
891.28	211.21
891.58	211.20
891.89	211.23
892.20	211.26
892.50	211.25
892.81	211.30
893.12	211.24
893.42	211.15
893.73	211.09
894.04	211.08
894.34	211.19
894.65	211.23
894.95	211.18
895.26	211.17
895.57	211.31
895.87	211.17
896.18	211.28
896.48	211.31
896.79	211.33
897.10	211.46
897.40	211.51
897.71	211.57
898.01	211.46
898.32	211.49
898.63	211.46
898.93	211.46
899.24	211.45
899.54	211.50
899.85	211.54
900.15	211.49
900.46	211.49
900.76	211.46
901.07	211.44
901.38	211.56
901.68	211.59
901.99	211.48
902.29	211.46
902.60	211.39
902.90	211.41
903.21	211.38
903.51	211.32
903.82	211.33
904.12	211.25
904.43	211.31
904.73	211.32
905.03	211.40
905.34	211.60
905.64	211.60
905.95	211.57
906.25	211.46
906.56	211.48
906.86	211.51
907.17	211.51
907.47	211.56
907.77	211.49
908.08	211.45
908.38	211.47
908.69	211.51
908.99	211.55
909.30	211.50
909.60	211.50
909.90	211.50
910.21	211.42
910.51	211.51
910.81	211.57
911.12	211.64
911.42	211.61
911.73	211.45
912.03	211.41
912.33	211.50
912.64	211.50
912.94	211.54
913.24	211.48
913.55	211.45
913.85	211.43
914.15	211.45
914.46	211.50
914.76	211.42
915.06	211.41
915.37	211.37
915.67	211.47
915.97	211.51
916.27	211.44
916.58	211.48
916.88	211.46
917.18	211.45
917.49	211.50
917.79	211.51
918.09	211.45
918.39	211.51
918.70	211.48
919.00	211.53
919.30	211.63
919.60	211.60
919.91	211.59
920.21	211.52
920.51	211.51
920.81	211.46
921.12	211.44
921.42	211.40
921.72	211.43
922.02	211.38
922.32	211.39
922.63	211.42
922.93	211.46
923.23	211.44
923.53	211.38
923.83	211.23
924.13	211.25
924.44	211.26
924.74	211.26
925.04	211.25
925.34	211.21
925.64	211.08
925.94	211.13
926.24	211.21
926.55	211.21
926.85	211.22
927.15	211.23
927.45	211.28
927.75	211.26
928.05	211.18
928.35	211.13
928.65	211.15
928.95	211.18
929.26	211.06
929.56	211.11
929.86	211.18
930.16	211.17
930.46	211.15
930.76	211.17
931.06	211.08
931.36	211.12
931.66	211.20
931.96	211.24
932.26	211.16
932.56	211.05
932.86	211.03
933.16	210.97
933.46	210.93
933.76	210.83
934.06	210.93
934.36	211.07
934.66	211.06
934.96	210.98
935.26	210.97
935.56	211.01
935.86	210.91
936.16	210.89
936.46	210.89
936.76	210.82
937.06	210.78
937.36	210.76
937.66	210.75
937.96	210.65
938.26	210.58
938.56	210.57
938.86	210.55
939.16	210.59
939.46	210.62
939.76	210.68
940.06	210.76
940.35	210.67
940.65	210.57
940.95	210.63
941.25	210.64
941.55	210.60
941.85	210.69
942.15	210.77
942.45	210.78
942.75	210.76
943.04	210.83
943.34	210.85
943.64	210.85
943.94	210.80
944.24	210.85
944.54	210.89
944.84	210.93
945.13	210.92
945.43	210.86
945.73	210.90
946.03	210.95
946.33	210.92
946.62	211.00
946.92	210.91
947.22	210.97
947.52	210.95
947.82	210.91
948.11	210.88
948.41	210.76
948.71	210.67
949.01	210.65
949.31	210.59
949.60	210.59
949.90	210.61
950.20	210.60
950.50	210.61
950.79	210.61
951.09	210.68
951.39	210.73
951.69	210.66
951.98	210.68
952.28	210.60
952.58	210.57
952.87	210.53
953.17	210.64
953.47	210.61
953.76	210.69
954.06	210.73
954.36	210.72
954.66	210.76
954.95	210.85
955.25	210.89
955.55	210.91
955.84	210.90
956.14	210.95
956.44	210.95
956.73	210.91
957.03	210.91
957.32	210.91
957.62	210.91
957.92	211.04
958.21	210.98
958.51	211.15
958.81	211.21
959.10	211.20
959.40	211.15
959.69	211.15
959.99	211.14
960.29	211.15
960.58	211.08
960.88	211.16
961.17	211.18
961.47	211.24
961.76	211.18
962.06	211.25
962.36	211.24
962.65	211.33
962.95	211.31
963.24	211.32
963.54	211.23
963.83	211.26
964.13	211.21
964.42	211.25
964.72	211.12
965.01	211.16
965.31	211.09
965.60	211.11
965.90	211.17
966.19	211.12
966.49	211.16
966.78	211.22
967.08	211.20
967.37	211.19
967.67	211.13
967.96	211.20
968.26	211.15
968.55	211.14
968.85	211.07
969.14	211.10
969.43	211.04
969.73	211.00
970.02	211.01
970.32	211.00
970.61	210.98
970.91	210.88
971.20	210.83
971.49	210.83
971.79	210.81
972.08	210.65
972.38	210.64
972.67	210.59
972.96	210.55
973.26	210.50
973.55	210.47
973.85	210.46
974.14	210.47
974.43	210.49
974.73	210.49
975.02	210.53
975.31	210.52
975.61	210.52
975.90	210.56
976.19	210.47
976.49	210.44
976.78	210.47
977.07	210.55
977.37	210.53
977.66	210.61
977.95	210.58
978.24	210.61
978.54	210.68
978.83	210.71
979.12	210.73
979.42	210.76
979.71	210.71
980.00	210.68
980.29	210.64
980.59	210.58
980.88	210.55
981.17	210.51
981.46	210.49
981.76	210.50
982.05	210.61
982.34	210.63
982.63	210.73
982.93	210.72
983.22	210.75
983.51	210.74
983.80	210.71
984.09	210.75
984.39	210.79
984.68	210.80
984.97	210.77
985.26	210.74
985.55	210.76
985.85	210.83
986.14	210.94
986.43	210.94
986.72	211.01
987.01	211.04
987.30	210.98
987.59	210.96
987.89	211.02
988.18	210.98
988.47	210.98
988.76	210.94
989.05	210.88
989.34	210.88
989.63	210.92
989.92	210.95
990.22	210.94
990.51	210.86
990.80	210.82
991.09	210.75
991.38	210.77
991.67	210.72
991.96	210.65
992.25	210.61
992.54	210.62
992.83	210.55
993.12	210.54
993.41	210.58
993.70	210.70
993.99	210.72
994.28	210.66
994.58	210.70
994.87	210.66
995.16	210.71
995.45	210.68
995.74	210.62
996.03	210.61
996.32	210.53
996.61	210.61
996.90	210.62
997.19	210.75
997.48	210.76
997.77	210.81
998.06	210.85
998.34	210.83
998.63	210.79
998.92	210.76
999.21	210.73
999.50	210.72
999.79	210.65
1000.08	210.63
1000.37	210.61
1000.66	210.55
1000.95	210.64
1001.24	210.57
1001.53	210.59
1001.82	210.65
1002.11	210.63
1002.40	210.67
1002.68	210.69
1002.97	210.77
1003.26	210.71
1003.55	210.66
1003.84	210.63
1004.13	210.70
1004.42	210.65
1004.71	210.73
1004.99	210.75
1005.28	210.81
1005.57	210.87
1005.86	210.85
1006.15	210.84
1006.44	210.86
1006.72	210.94
1007.01	210.87
1007.30	210.91
1007.59	210.87
1007.88	210.83
1008.17	210.80
1008.45	210.88
1008.74	210.88
1009.03	210.79
1009.32	210.71
1009.60	210.75
1009.89	210.72
1010.18	210.62
1010.47	210.68
1010.76	210.66
1011.04	210.73
1011.33	210.74
1011.62	210.73
1011.91	210.68
1012.19	210.67
1012.48	210.66
1012.77	210.58
1013.05	210.67
1013.34	210.66
1013.63	210.70
1013.92	210.72
1014.20	210.73
1014.49	210.65
1014.78	210.63
1015.06	210.62
1015.35	210.63
1015.64	210.66
1015.92	210.74
1016.21	210.76
1016.50	210.74
1016.78	210.71
1017.07	210.68
1017.36	210.61
1017.64	210.50
1017.93	210.58
1018.22	210.60
1018.50	210.58
1018.79	210.67
1019.08	210.60
1019.36	210.64
1019.65	210.54
1019.93	210.58
1020.22	210.58
1020.51	210.63
1020.79	210.61
1021.08	211.15
1021.36	209.90
1021.65	211.55
1021.94	211.10
1022.22	210.80
1022.51	208.95
1022.79	211.60
1023.08	210.25
1023.36	211.20
1023.65	210.25
>>>>>End Processed Spectral Data<<<<<
