SpectraSuite Data File
++++++++++++++++++++++++++++++++++++
Date: Mon Feb 25 17:34:15 EST 2013
User: group
Dark Spectrum Present: No
Reference Spectrum Present: No
Number of Sampled Component Spectra: 1
Spectrometers: USB2E7196
Integration Time (usec): 52000 (USB2E7196)
Spectra Averaged: 20 (USB2E7196)
Boxcar Smoothing: 10 (USB2E7196)
Correct for Electrical Dark: No (USB2E7196)
Strobe/Lamp Enabled: No (USB2E7196)
Correct for Detector Non-linearity: No (USB2E7196)
Correct for Stray Light: No (USB2E7196)
Number of Pixels in Processed Spectrum: 2048
>>>>>Begin Processed Spectral Data<<<<<
339.09	0.00
339.48	198.20
339.86	199.65
340.24	201.40
340.63	201.80
341.01	207.45
341.39	205.10
341.78	207.35
342.16	208.60
342.54	207.75
342.93	197.93
343.31	207.94
343.69	208.50
344.07	208.97
344.46	209.42
344.84	209.88
345.22	210.05
345.60	210.41
345.99	210.59
346.37	210.69
346.75	210.87
347.13	210.98
347.52	211.05
347.90	211.20
348.28	211.21
348.66	211.31
349.05	211.31
349.43	211.35
349.81	211.46
350.19	211.50
350.57	211.55
350.96	211.65
351.34	211.76
351.72	211.83
352.10	211.99
352.48	212.10
352.87	212.11
353.25	212.16
353.63	212.19
354.01	212.26
354.39	212.36
354.77	212.41
355.15	212.50
355.54	212.54
355.92	212.53
356.30	212.64
356.68	212.81
357.06	212.87
357.44	212.92
357.82	212.96
358.20	213.06
358.58	213.13
358.97	213.14
359.35	213.21
359.73	213.28
360.11	213.25
360.49	213.29
360.87	213.35
361.25	213.43
361.63	213.51
362.01	213.54
362.39	213.62
362.77	213.63
363.15	213.63
363.53	213.70
363.91	213.76
364.29	213.78
364.67	213.64
365.05	213.65
365.43	213.63
365.81	213.66
366.19	213.75
366.57	213.86
366.95	213.98
367.33	213.95
367.71	213.99
368.09	214.10
368.47	214.08
368.85	214.09
369.23	214.09
369.61	214.04
369.99	214.09
370.37	214.06
370.75	214.16
371.13	214.07
371.51	214.01
371.89	214.03
372.27	213.97
372.65	213.87
373.03	213.82
373.41	213.73
373.78	213.76
374.16	213.62
374.54	213.50
374.92	213.41
375.30	213.37
375.68	213.28
376.06	213.25
376.44	213.21
376.82	213.23
377.19	213.21
377.57	213.03
377.95	212.94
378.33	212.86
378.71	212.69
379.09	212.74
379.47	212.71
379.84	212.58
380.22	212.59
380.60	212.50
380.98	212.51
381.36	212.54
381.73	212.36
382.11	212.35
382.49	212.32
382.87	212.21
383.25	212.23
383.62	212.43
384.00	212.27
384.38	212.24
384.76	212.18
385.13	212.23
385.51	212.24
385.89	212.18
386.27	212.13
386.64	212.11
387.02	212.02
387.40	211.92
387.78	211.92
388.15	211.81
388.53	211.91
388.91	211.88
389.29	211.81
389.66	211.84
390.04	211.79
390.42	211.75
390.79	211.74
391.17	211.66
391.55	211.39
391.92	211.48
392.30	211.45
392.68	211.43
393.05	211.40
393.43	211.44
393.81	211.56
394.18	211.59
394.56	211.60
394.94	211.67
395.31	211.70
395.69	211.70
396.06	211.77
396.44	211.75
396.82	211.77
397.19	211.85
397.57	211.91
397.95	211.92
398.32	211.89
398.70	211.97
399.07	212.05
399.45	212.13
399.82	212.16
400.20	212.22
400.58	212.22
400.95	212.16
401.33	212.28
401.70	212.34
402.08	212.39
402.45	212.52
402.83	212.61
403.20	212.72
403.58	212.82
403.95	212.94
404.33	213.09
404.71	213.14
405.08	213.37
405.46	213.49
405.83	213.58
406.21	213.75
406.58	213.90
406.96	214.04
407.33	214.16
407.70	214.33
408.08	214.67
408.45	214.93
408.83	215.23
409.20	215.38
409.58	215.50
409.95	215.79
410.33	216.12
410.70	216.38
411.08	216.67
411.45	217.09
411.82	217.47
412.20	217.93
412.57	218.47
412.95	218.80
413.32	219.32
413.69	219.94
414.07	220.49
414.44	221.15
414.82	221.82
415.19	222.66
415.56	223.46
415.94	224.23
416.31	225.07
416.68	225.95
417.06	227.07
417.43	228.04
417.81	229.16
418.18	230.25
418.55	231.42
418.93	232.78
419.30	234.02
419.67	235.47
420.04	236.84
420.42	238.36
420.79	240.18
421.16	241.90
421.54	243.70
421.91	245.56
422.28	247.45
422.66	249.47
423.03	251.49
423.40	253.60
423.77	255.75
424.15	258.10
424.52	260.47
424.89	262.98
425.26	265.58
425.64	267.89
426.01	270.47
426.38	273.18
426.75	275.88
427.13	278.77
427.50	281.66
427.87	284.71
428.24	287.75
428.61	290.72
428.99	293.97
429.36	297.46
429.73	300.99
430.10	304.44
430.47	308.06
430.85	311.68
431.22	315.48
431.59	319.64
431.96	323.59
432.33	327.89
432.70	332.11
433.08	337.02
433.45	341.70
433.82	346.25
434.19	351.47
434.56	356.45
434.93	361.14
435.30	365.90
435.68	371.21
436.05	376.50
436.42	381.50
436.79	386.20
437.16	391.27
437.53	396.59
437.90	401.85
438.27	406.89
438.64	412.31
439.01	417.20
439.38	421.66
439.75	425.94
440.13	430.80
440.50	435.35
440.87	439.00
441.24	443.01
441.61	447.24
441.98	450.14
442.35	453.77
442.72	457.36
443.09	460.85
443.46	462.85
443.83	464.13
444.20	465.38
444.57	467.21
444.94	468.00
445.31	468.85
445.68	469.69
446.05	470.10
446.42	469.41
446.79	468.71
447.16	467.83
447.53	467.12
447.90	464.92
448.27	462.72
448.64	459.77
449.01	457.54
449.37	453.94
449.74	450.44
450.11	446.40
450.48	442.04
450.85	437.50
451.22	433.59
451.59	429.88
451.96	426.34
452.33	421.55
452.70	417.15
453.07	411.89
453.43	406.51
453.80	401.39
454.17	396.56
454.54	392.04
454.91	387.11
455.28	382.47
455.65	378.14
456.02	373.89
456.38	370.16
456.75	365.51
457.12	361.60
457.49	357.86
457.86	354.04
458.23	350.81
458.59	347.28
458.96	343.77
459.33	340.58
459.70	337.32
460.07	334.75
460.43	331.83
460.80	329.18
461.17	326.86
461.54	324.46
461.91	322.18
462.27	319.80
462.64	317.80
463.01	315.56
463.38	313.49
463.74	311.21
464.11	309.38
464.48	307.72
464.85	305.99
465.21	304.60
465.58	303.14
465.95	301.40
466.32	299.92
466.68	298.52
467.05	297.09
467.42	295.71
467.78	294.28
468.15	292.99
468.52	291.96
468.88	290.61
469.25	289.43
469.62	288.38
469.98	287.31
470.35	286.43
470.72	285.50
471.08	284.49
471.45	283.75
471.82	282.93
472.18	282.03
472.55	281.45
472.92	280.75
473.28	280.15
473.65	279.58
474.02	278.96
474.38	278.49
474.75	278.16
475.11	277.71
475.48	277.47
475.85	277.22
476.21	277.02
476.58	276.95
476.94	276.86
477.31	276.86
477.67	276.99
478.04	277.02
478.41	277.06
478.77	277.36
479.14	277.51
479.50	277.80
479.87	278.23
480.23	278.61
480.60	279.02
480.96	279.45
481.33	280.14
481.69	280.85
482.06	281.44
482.42	282.10
482.79	282.85
483.15	283.68
483.52	284.74
483.88	285.68
484.25	286.60
484.61	287.69
484.98	288.84
485.34	290.10
485.71	291.40
486.07	292.84
486.44	294.13
486.80	295.61
487.17	297.19
487.53	298.96
487.90	300.69
488.26	302.62
488.62	304.66
488.99	306.66
489.35	308.84
489.72	311.15
490.08	313.52
490.44	316.02
490.81	318.62
491.17	321.27
491.54	324.16
491.90	327.25
492.26	330.44
492.63	333.75
492.99	337.11
493.36	340.81
493.72	344.68
494.08	348.68
494.45	353.05
494.81	357.48
495.17	361.92
495.54	366.80
495.90	371.79
496.26	376.94
496.63	382.37
496.99	388.10
497.35	394.17
497.72	400.37
498.08	406.87
498.44	413.66
498.80	420.82
499.17	428.35
499.53	435.92
499.89	443.95
500.26	451.98
500.62	460.34
500.98	469.18
501.34	478.28
501.71	487.78
502.07	497.30
502.43	507.37
502.79	517.67
503.16	528.31
503.52	539.26
503.88	550.60
504.24	562.21
504.60	574.12
504.97	586.35
505.33	599.07
505.69	612.53
506.05	625.98
506.41	639.62
506.78	653.44
507.14	667.79
507.50	682.39
507.86	697.25
508.22	712.69
508.59	728.04
508.95	744.17
509.31	760.38
509.67	777.15
510.03	794.16
510.39	811.75
510.75	829.71
511.12	847.74
511.48	866.11
511.84	884.78
512.20	903.52
512.56	922.78
512.92	942.36
513.28	961.79
513.64	981.74
514.00	1001.57
514.37	1021.94
514.73	1042.73
515.09	1063.37
515.45	1084.64
515.81	1105.86
516.17	1127.27
516.53	1148.45
516.89	1170.19
517.25	1191.72
517.61	1213.55
517.97	1235.17
518.33	1256.86
518.69	1278.93
519.05	1301.39
519.41	1323.62
519.77	1346.41
520.13	1368.43
520.49	1390.40
520.85	1413.21
521.21	1435.73
521.57	1458.73
521.93	1480.86
522.29	1503.67
522.65	1526.58
523.01	1549.16
523.37	1571.54
523.73	1593.97
524.09	1616.33
524.45	1638.69
524.81	1661.50
525.17	1683.92
525.53	1706.43
525.89	1728.78
526.25	1750.80
526.61	1771.94
526.97	1793.51
527.33	1814.82
527.68	1836.60
528.04	1858.08
528.40	1878.49
528.76	1899.39
529.12	1920.03
529.48	1942.15
529.84	1962.59
530.20	1982.74
530.56	2003.35
530.91	2024.04
531.27	2044.73
531.63	2064.86
531.99	2084.73
532.35	2103.92
532.71	2123.06
533.07	2142.84
533.42	2161.55
533.78	2180.70
534.14	2199.32
534.50	2216.95
534.86	2235.49
535.21	2252.37
535.57	2270.58
535.93	2288.19
536.29	2305.19
536.65	2322.19
537.00	2337.33
537.36	2352.91
537.72	2368.33
538.08	2383.49
538.44	2398.90
538.79	2414.30
539.15	2429.49
539.51	2444.13
539.87	2459.63
540.22	2474.36
540.58	2489.01
540.94	2503.33
541.29	2516.07
541.65	2528.49
542.01	2542.03
542.37	2553.54
542.72	2566.17
543.08	2576.84
543.44	2588.61
543.79	2598.76
544.15	2609.41
544.51	2620.82
544.87	2632.10
545.22	2641.69
545.58	2650.41
545.94	2657.66
546.29	2664.17
546.65	2670.53
547.01	2676.93
547.36	2682.38
547.72	2687.76
548.07	2691.99
548.43	2695.91
548.79	2700.20
549.14	2705.26
549.50	2709.30
549.86	2713.60
550.21	2717.68
550.57	2722.02
550.92	2724.79
551.28	2727.83
551.64	2730.11
551.99	2732.69
552.35	2733.93
552.70	2736.86
553.06	2739.62
553.41	2743.10
553.77	2746.19
554.13	2748.27
554.48	2750.27
554.84	2751.90
555.19	2752.66
555.55	2753.47
555.90	2754.49
556.26	2755.04
556.61	2754.80
556.97	2754.13
557.32	2753.80
557.68	2752.18
558.03	2750.99
558.39	2749.43
558.74	2748.78
559.10	2747.64
559.45	2745.77
559.81	2745.13
560.16	2742.50
560.52	2739.95
560.87	2737.02
561.23	2733.12
561.58	2731.34
561.94	2728.12
562.29	2724.55
562.64	2722.56
563.00	2720.02
563.35	2717.76
563.71	2716.19
564.06	2714.28
564.42	2712.27
564.77	2709.79
565.12	2708.23
565.48	2704.82
565.83	2702.35
566.19	2699.10
566.54	2694.87
566.89	2690.81
567.25	2686.94
567.60	2683.24
567.96	2679.75
568.31	2675.95
568.66	2672.13
569.02	2667.10
569.37	2662.31
569.72	2658.57
570.08	2653.36
570.43	2647.73
570.78	2641.98
571.14	2635.32
571.49	2628.57
571.84	2622.47
572.20	2615.18
572.55	2608.37
572.90	2601.72
573.26	2594.18
573.61	2587.35
573.96	2580.98
574.31	2573.19
574.67	2564.66
575.02	2556.60
575.37	2547.86
575.72	2538.78
576.08	2531.43
576.43	2522.72
576.78	2514.86
577.13	2506.78
577.49	2498.67
577.84	2490.75
578.19	2483.10
578.54	2475.89
578.90	2469.00
579.25	2460.30
579.60	2451.32
579.95	2441.81
580.30	2433.63
580.66	2425.37
581.01	2416.11
581.36	2406.77
581.71	2398.37
582.06	2390.12
582.42	2381.82
582.77	2372.96
583.12	2364.27
583.47	2355.60
583.82	2347.54
584.17	2338.11
584.53	2328.75
584.88	2319.46
585.23	2310.05
585.58	2300.14
585.93	2290.31
586.28	2280.78
586.63	2271.65
586.98	2263.59
587.34	2255.53
587.69	2246.35
588.04	2237.35
588.39	2229.24
588.74	2220.20
589.09	2211.17
589.44	2201.58
589.79	2192.86
590.14	2184.93
590.49	2176.67
590.84	2167.52
591.19	2159.27
591.54	2150.62
591.89	2140.54
592.25	2131.45
592.60	2122.24
592.95	2112.84
593.30	2103.45
593.65	2093.62
594.00	2083.94
594.35	2075.48
594.70	2066.11
595.05	2057.31
595.40	2048.33
595.75	2038.28
596.10	2029.91
596.45	2021.44
596.80	2013.20
597.15	2004.73
597.50	1995.32
597.85	1986.36
598.19	1977.60
598.54	1968.72
598.89	1960.73
599.24	1954.10
599.59	1946.52
599.94	1939.16
600.29	1931.35
600.64	1923.25
600.99	1914.62
601.34	1907.50
601.69	1898.59
602.04	1890.05
602.39	1881.84
602.74	1874.14
603.08	1867.58
603.43	1860.26
603.78	1852.23
604.13	1844.15
604.48	1836.11
604.83	1829.37
605.18	1822.55
605.53	1814.65
605.87	1806.95
606.22	1799.83
606.57	1791.60
606.92	1783.49
607.27	1775.51
607.62	1768.10
607.96	1760.95
608.31	1754.99
608.66	1747.16
609.01	1739.69
609.36	1732.29
609.70	1724.34
610.05	1716.46
610.40	1708.00
610.75	1699.25
611.10	1691.53
611.44	1682.46
611.79	1673.30
612.14	1663.62
612.49	1653.78
612.83	1645.15
613.18	1635.47
613.53	1625.98
613.88	1616.21
614.22	1607.28
614.57	1597.82
614.92	1588.40
615.27	1579.13
615.61	1569.11
615.96	1559.89
616.31	1551.43
616.65	1543.25
617.00	1534.89
617.35	1526.05
617.70	1517.35
618.04	1508.40
618.39	1499.00
618.74	1490.73
619.08	1482.19
619.43	1474.14
619.78	1466.40
620.12	1457.93
620.47	1450.06
620.82	1441.25
621.16	1433.00
621.51	1424.28
621.85	1416.00
622.20	1407.39
622.55	1398.80
622.89	1390.52
623.24	1382.80
623.59	1373.93
623.93	1365.21
624.28	1356.97
624.62	1348.83
624.97	1340.36
625.32	1332.60
625.66	1325.23
626.01	1317.66
626.35	1310.37
626.70	1302.60
627.04	1294.98
627.39	1287.64
627.73	1280.22
628.08	1273.26
628.43	1265.84
628.77	1258.52
629.12	1251.09
629.46	1244.53
629.81	1237.12
630.15	1229.65
630.50	1222.01
630.84	1214.76
631.19	1207.69
631.53	1200.56
631.88	1192.91
632.22	1185.42
632.57	1178.35
632.91	1170.77
633.26	1163.39
633.60	1156.25
633.95	1149.45
634.29	1141.96
634.64	1135.06
634.98	1127.83
635.32	1120.79
635.67	1114.31
636.01	1107.75
636.36	1101.10
636.70	1094.48
637.05	1088.05
637.39	1081.90
637.73	1075.43
638.08	1069.45
638.42	1063.52
638.77	1057.00
639.11	1050.70
639.45	1044.72
639.80	1038.01
640.14	1031.64
640.49	1025.37
640.83	1019.08
641.17	1012.47
641.52	1006.56
641.86	1000.09
642.20	993.84
642.55	987.12
642.89	980.51
643.23	973.89
643.58	967.80
643.92	961.18
644.26	954.93
644.61	948.76
644.95	942.62
645.29	936.31
645.64	929.62
645.98	923.28
646.32	917.43
646.66	911.06
647.01	905.25
647.35	899.34
647.69	893.14
648.04	887.02
648.38	880.93
648.72	874.88
649.06	868.63
649.41	862.56
649.75	857.01
650.09	851.22
650.43	845.48
650.78	839.35
651.12	833.37
651.46	827.54
651.80	821.41
652.14	815.54
652.49	809.49
652.83	803.62
653.17	797.42
653.51	791.40
653.85	785.90
654.20	779.99
654.54	774.05
654.88	768.48
655.22	762.63
655.56	756.83
655.90	750.88
656.25	745.46
656.59	740.13
656.93	734.70
657.27	729.38
657.61	723.82
657.95	718.55
658.29	713.38
658.64	708.35
658.98	703.20
659.32	697.68
659.66	692.63
660.00	687.21
660.34	682.25
660.68	677.17
661.02	672.04
661.36	667.41
661.70	662.57
662.05	657.69
662.39	653.27
662.73	648.83
663.07	644.42
663.41	639.91
663.75	635.20
664.09	630.51
664.43	625.98
664.77	621.53
665.11	616.97
665.45	612.63
665.79	608.06
666.13	603.75
666.47	599.56
666.81	595.34
667.15	591.28
667.49	587.44
667.83	583.53
668.17	579.53
668.51	575.54
668.85	571.74
669.19	568.21
669.53	564.21
669.87	560.16
670.21	556.37
670.55	552.39
670.89	548.89
671.23	545.50
671.57	541.98
671.91	538.45
672.25	534.95
672.58	531.35
672.92	527.76
673.26	524.34
673.60	521.15
673.94	517.69
674.28	514.55
674.62	511.21
674.96	507.95
675.30	505.03
675.64	501.77
675.97	498.57
676.31	495.39
676.65	492.48
676.99	489.78
677.33	486.76
677.67	483.90
678.01	480.89
678.34	477.81
678.68	474.80
679.02	471.74
679.36	468.97
679.70	466.16
680.04	463.32
680.37	460.44
680.71	457.65
681.05	455.08
681.39	452.19
681.73	449.44
682.06	446.89
682.40	444.26
682.74	441.67
683.08	439.08
683.42	436.45
683.75	433.96
684.09	431.26
684.43	428.72
684.77	426.15
685.10	423.46
685.44	420.97
685.78	418.39
686.12	416.12
686.45	413.67
686.79	411.40
687.13	409.36
687.46	407.17
687.80	404.89
688.14	402.50
688.48	400.55
688.81	398.37
689.15	396.14
689.49	393.80
689.82	391.59
690.16	389.20
690.50	386.98
690.83	384.50
691.17	382.31
691.51	380.10
691.84	378.02
692.18	376.09
692.52	374.10
692.85	372.33
693.19	370.49
693.52	368.63
693.86	366.53
694.20	364.57
694.53	362.65
694.87	360.82
695.21	358.91
695.54	356.93
695.88	355.08
696.21	353.19
696.55	351.48
696.88	349.73
697.22	348.04
697.56	346.47
697.89	344.96
698.23	343.35
698.56	341.83
698.90	340.35
699.23	338.62
699.57	337.00
699.90	335.31
700.24	333.54
700.58	331.90
700.91	330.49
701.25	328.99
701.58	327.58
701.92	326.02
702.25	324.67
702.59	323.21
702.92	321.75
703.26	320.44
703.59	319.07
703.93	317.84
704.26	316.62
704.60	315.30
704.93	314.00
705.26	312.69
705.60	311.36
705.93	310.00
706.27	308.92
706.60	307.87
706.94	306.80
707.27	305.71
707.61	304.52
707.94	303.25
708.27	302.04
708.61	300.85
708.94	299.69
709.28	298.46
709.61	297.34
709.94	296.34
710.28	295.23
710.61	294.12
710.95	293.01
711.28	292.03
711.61	290.88
711.95	289.93
712.28	288.93
712.61	287.96
712.95	286.97
713.28	286.05
713.61	284.96
713.95	283.99
714.28	283.14
714.61	282.18
714.95	281.29
715.28	280.24
715.61	279.28
715.95	278.27
716.28	277.42
716.61	276.65
716.95	275.76
717.28	274.99
717.61	274.25
717.94	273.35
718.28	272.47
718.61	271.75
718.94	271.00
719.27	270.30
719.61	269.53
719.94	268.88
720.27	268.06
720.60	267.34
720.94	266.51
721.27	265.74
721.60	265.17
721.93	264.60
722.27	264.17
722.60	263.62
722.93	263.12
723.26	262.60
723.59	261.95
723.93	261.41
724.26	260.77
724.59	260.10
724.92	259.58
725.25	259.12
725.59	258.56
725.92	258.05
726.25	257.45
726.58	257.06
726.91	256.50
727.24	255.98
727.57	255.41
727.91	254.96
728.24	254.52
728.57	254.04
728.90	253.56
729.23	253.04
729.56	252.61
729.89	252.16
730.22	251.66
730.55	251.20
730.89	250.64
731.22	250.14
731.55	249.72
731.88	249.28
732.21	248.81
732.54	248.39
732.87	247.97
733.20	247.61
733.53	247.13
733.86	246.70
734.19	246.27
734.52	245.94
734.85	245.74
735.18	245.33
735.51	244.98
735.84	244.60
736.17	244.29
736.50	243.87
736.83	243.73
737.16	243.43
737.49	243.05
737.82	242.77
738.15	242.41
738.48	242.06
738.81	241.73
739.14	241.35
739.47	241.03
739.80	240.68
740.13	240.36
740.46	239.94
740.79	239.55
741.12	239.21
741.45	238.88
741.78	238.45
742.11	238.19
742.44	237.87
742.77	237.60
743.10	237.26
743.43	236.93
743.75	236.45
744.08	236.29
744.41	235.95
744.74	235.61
745.07	235.32
745.40	235.14
745.73	234.98
746.06	234.72
746.39	234.40
746.71	234.01
747.04	233.72
747.37	233.54
747.70	233.40
748.03	233.20
748.36	232.96
748.68	232.68
749.01	232.35
749.34	232.12
749.67	231.83
750.00	231.61
750.33	231.47
750.65	231.24
750.98	230.82
751.31	230.65
751.64	230.42
751.97	230.33
752.29	230.06
752.62	229.70
752.95	229.46
753.28	229.22
753.60	229.04
753.93	228.86
754.26	228.58
754.59	228.25
754.91	227.97
755.24	227.75
755.57	227.49
755.90	227.23
756.22	226.96
756.55	226.71
756.88	226.47
757.20	226.14
757.53	225.81
757.86	225.58
758.19	225.40
758.51	225.22
758.84	224.91
759.17	224.63
759.49	224.47
759.82	224.42
760.15	224.25
760.47	224.04
760.80	223.80
761.13	223.62
761.45	223.44
761.78	223.23
762.11	223.08
762.43	222.95
762.76	222.84
763.08	222.71
763.41	222.60
763.74	222.36
764.06	222.21
764.39	222.15
764.71	222.00
765.04	221.83
765.37	221.63
765.69	221.46
766.02	221.37
766.34	221.22
766.67	220.93
767.00	220.97
767.32	220.95
767.65	220.87
767.97	220.82
768.30	220.77
768.62	220.69
768.95	220.62
769.27	220.49
769.60	220.42
769.92	220.23
770.25	220.12
770.57	220.02
770.90	219.94
771.22	219.84
771.55	219.76
771.87	219.65
772.20	219.60
772.52	219.72
772.85	219.87
773.17	219.69
773.50	219.62
773.82	219.35
774.15	219.19
774.47	219.05
774.80	218.98
775.12	218.84
775.45	218.68
775.77	218.60
776.09	218.59
776.42	218.44
776.74	218.42
777.07	218.30
777.39	218.29
777.72	218.18
778.04	218.09
778.36	218.03
778.69	218.02
779.01	217.98
779.33	217.75
779.66	217.50
779.98	217.48
780.31	217.45
780.63	217.49
780.95	217.44
781.28	217.40
781.60	217.25
781.92	217.22
782.25	217.28
782.57	217.25
782.89	217.11
783.22	217.07
783.54	216.97
783.86	216.91
784.19	216.78
784.51	216.86
784.83	216.84
785.16	216.69
785.48	216.62
785.80	216.50
786.12	216.39
786.45	216.34
786.77	216.24
787.09	216.18
787.42	216.05
787.74	216.07
788.06	216.01
788.38	215.99
788.71	215.92
789.03	215.84
789.35	215.81
789.67	215.77
789.99	215.74
790.32	215.76
790.64	215.73
790.96	215.85
791.28	215.62
791.61	215.54
791.93	215.55
792.25	215.50
792.57	215.61
792.89	215.60
793.21	215.54
793.54	215.53
793.86	215.43
794.18	215.36
794.50	215.27
794.82	215.23
795.14	215.19
795.47	215.21
795.79	215.13
796.11	214.99
796.43	214.98
796.75	214.96
797.07	214.89
797.39	214.90
797.71	214.76
798.04	214.77
798.36	214.71
798.68	214.70
799.00	214.66
799.32	214.52
799.64	214.52
799.96	214.51
800.28	214.52
800.60	214.51
800.92	214.58
801.24	214.50
801.56	214.48
801.89	214.43
802.21	214.39
802.53	214.34
802.85	214.37
803.17	214.41
803.49	214.34
803.81	214.27
804.13	214.22
804.45	214.18
804.77	214.19
805.09	214.18
805.41	214.14
805.73	214.02
806.05	213.97
806.37	213.95
806.69	213.83
807.01	213.86
807.33	213.88
807.65	213.75
807.97	213.81
808.28	213.75
808.60	213.69
808.92	213.67
809.24	213.84
809.56	213.81
809.88	213.73
810.20	213.74
810.52	213.77
810.84	213.71
811.16	213.68
811.48	213.67
811.80	213.67
812.12	213.63
812.43	213.70
812.75	213.66
813.07	213.61
813.39	213.61
813.71	213.54
814.03	213.47
814.35	213.42
814.67	213.30
814.98	213.36
815.30	213.43
815.62	213.35
815.94	213.22
816.26	213.22
816.58	213.19
816.89	213.20
817.21	213.16
817.53	213.23
817.85	213.18
818.17	213.13
818.48	213.04
818.80	213.06
819.12	213.08
819.44	213.07
819.76	213.03
820.07	213.03
820.39	213.00
820.71	213.00
821.03	213.03
821.34	213.09
821.66	213.05
821.98	212.95
822.30	212.96
822.61	213.00
822.93	212.88
823.25	212.84
823.57	212.76
823.88	212.81
824.20	212.71
824.52	212.70
824.83	212.64
825.15	212.60
825.47	212.60
825.79	212.61
826.10	212.55
826.42	212.55
826.74	212.55
827.05	212.47
827.37	212.48
827.69	212.42
828.00	212.33
828.32	212.32
828.64	212.38
828.95	212.45
829.27	212.40
829.58	212.48
829.90	212.53
830.22	212.55
830.53	212.44
830.85	212.44
831.17	212.43
831.48	212.46
831.80	212.52
832.11	212.50
832.43	212.39
832.75	212.41
833.06	212.46
833.38	212.45
833.69	212.51
834.01	212.51
834.32	212.56
834.64	212.51
834.96	212.50
835.27	212.47
835.59	212.33
835.90	212.29
836.22	212.30
836.53	212.20
836.85	212.13
837.16	212.26
837.48	212.31
837.79	212.42
838.11	212.47
838.42	212.45
838.74	212.49
839.05	212.47
839.37	212.44
839.68	212.36
840.00	212.31
840.31	212.26
840.63	212.20
840.94	212.13
841.26	212.11
841.57	212.06
841.88	212.04
842.20	212.01
842.51	212.05
842.83	211.97
843.14	212.16
843.46	212.15
843.77	212.08
844.08	212.01
844.40	211.88
844.71	211.81
845.03	211.81
845.34	211.79
845.65	211.89
845.97	211.96
846.28	211.96
846.60	211.93
846.91	211.98
847.22	211.99
847.54	212.12
847.85	212.14
848.16	212.17
848.48	212.18
848.79	212.39
849.10	212.39
849.42	212.45
849.73	212.32
850.04	212.38
850.36	212.35
850.67	212.45
850.98	212.50
851.30	212.54
851.61	212.51
851.92	212.47
852.23	212.49
852.55	212.41
852.86	212.42
853.17	212.45
853.49	212.45
853.80	212.51
854.11	212.45
854.42	212.50
854.74	212.53
855.05	212.58
855.36	212.38
855.67	212.32
855.99	212.32
856.30	212.43
856.61	212.41
856.92	212.35
857.23	212.24
857.55	212.20
857.86	212.15
858.17	212.12
858.48	212.08
858.79	211.96
859.11	212.00
859.42	211.95
859.73	211.87
860.04	211.77
860.35	211.74
860.66	211.68
860.98	211.69
861.29	211.60
861.60	211.54
861.91	211.55
862.22	211.48
862.53	211.39
862.84	211.25
863.16	211.35
863.47	211.34
863.78	211.35
864.09	211.36
864.40	211.37
864.71	211.41
865.02	211.41
865.33	211.40
865.64	211.39
865.95	211.37
866.27	211.55
866.58	211.63
866.89	211.59
867.20	211.61
867.51	211.55
867.82	211.61
868.13	211.67
868.44	211.58
868.75	211.74
869.06	211.73
869.37	211.74
869.68	211.57
869.99	211.58
870.30	211.59
870.61	211.58
870.92	211.60
871.23	211.57
871.54	211.60
871.85	211.66
872.16	211.68
872.47	211.63
872.78	211.55
873.09	211.57
873.40	211.51
873.71	211.54
874.02	211.56
874.33	211.51
874.64	211.41
874.95	211.56
875.26	211.49
875.56	211.43
875.87	211.38
876.18	211.41
876.49	211.61
876.80	211.62
877.11	211.57
877.42	211.56
877.73	211.54
878.04	211.45
878.35	211.36
878.66	211.35
878.96	211.45
879.27	211.47
879.58	211.44
879.89	211.43
880.20	211.43
880.51	211.39
880.82	211.35
881.12	211.43
881.43	211.33
881.74	211.25
882.05	211.36
882.36	211.42
882.67	211.40
882.97	211.17
883.28	211.09
883.59	211.13
883.90	211.17
884.21	211.20
884.51	211.25
884.82	211.25
885.13	211.25
885.44	211.20
885.74	211.15
886.05	211.11
886.36	211.15
886.67	211.10
886.98	211.20
887.28	211.23
887.59	211.24
887.90	211.22
888.20	211.16
888.51	211.13
888.82	211.04
889.13	211.04
889.43	211.20
889.74	211.30
890.05	211.26
890.35	211.20
890.66	211.18
890.97	211.15
891.28	211.21
891.58	211.21
891.89	211.22
892.20	211.12
892.50	211.04
892.81	210.99
893.12	211.05
893.42	210.88
893.73	210.83
894.04	210.76
894.34	210.82
894.65	210.86
894.95	210.86
895.26	210.90
895.57	210.98
895.87	210.81
896.18	210.73
896.48	210.78
896.79	210.71
897.10	210.72
897.40	210.78
897.71	210.79
898.01	210.79
898.32	210.77
898.63	210.82
898.93	210.86
899.24	210.89
899.54	210.82
899.85	210.96
900.15	210.98
900.46	210.97
900.76	210.99
901.07	211.05
901.38	211.11
901.68	211.16
901.99	211.10
902.29	211.14
902.60	211.18
902.90	211.15
903.21	211.24
903.51	211.28
903.82	211.25
904.12	211.24
904.43	211.25
904.73	211.24
905.03	211.24
905.34	211.36
905.64	211.42
905.95	211.41
906.25	211.39
906.56	211.42
906.86	211.43
907.17	211.39
907.47	211.36
907.77	211.30
908.08	211.26
908.38	211.25
908.69	211.30
908.99	211.33
909.30	211.35
909.60	211.32
909.90	211.32
910.21	211.35
910.51	211.28
910.81	211.28
911.12	211.30
911.42	211.32
911.73	211.25
912.03	211.27
912.33	211.30
912.64	211.26
912.94	211.23
913.24	211.20
913.55	211.17
913.85	211.15
914.15	211.15
914.46	211.18
914.76	211.19
915.06	211.11
915.37	211.00
915.67	211.00
915.97	210.94
916.27	210.84
916.58	210.74
916.88	210.76
917.18	210.75
917.49	210.88
917.79	210.91
918.09	210.89
918.39	210.82
918.70	210.86
919.00	210.86
919.30	210.98
919.60	210.98
919.91	211.02
920.21	211.06
920.51	211.04
920.81	210.95
921.12	211.02
921.42	211.01
921.72	211.03
922.02	211.02
922.32	211.05
922.63	211.11
922.93	211.25
923.23	211.29
923.53	211.26
923.83	211.09
924.13	211.14
924.44	211.11
924.74	211.17
925.04	211.10
925.34	211.11
925.64	210.98
925.94	211.03
926.24	211.08
926.55	211.04
926.85	211.05
927.15	211.03
927.45	210.95
927.75	210.95
928.05	210.97
928.35	210.94
928.65	210.96
928.95	210.98
929.26	210.93
929.56	210.96
929.86	210.95
930.16	210.95
930.46	210.93
930.76	210.95
931.06	210.82
931.36	210.86
931.66	210.82
931.96	210.82
932.26	210.77
932.56	210.67
932.86	210.73
933.16	210.76
933.46	210.73
933.76	210.67
934.06	210.71
934.36	210.76
934.66	210.72
934.96	210.74
935.26	210.72
935.56	210.73
935.86	210.66
936.16	210.65
936.46	210.72
936.76	210.64
937.06	210.64
937.36	210.71
937.66	210.73
937.96	210.79
938.26	210.79
938.56	210.80
938.86	210.79
939.16	210.81
939.46	210.82
939.76	210.89
940.06	210.95
940.35	210.95
940.65	210.86
940.95	210.93
941.25	210.89
941.55	210.91
941.85	210.81
942.15	210.87
942.45	210.94
942.75	210.92
943.04	210.97
943.34	211.00
943.64	210.99
943.94	210.95
944.24	210.95
944.54	211.05
944.84	211.08
945.13	211.16
945.43	211.10
945.73	211.15
946.03	211.16
946.33	211.13
946.62	211.10
946.92	211.12
947.22	211.17
947.52	211.16
947.82	211.20
948.11	211.26
948.41	211.23
948.71	211.14
949.01	211.19
949.31	211.11
949.60	211.14
949.90	211.15
950.20	211.17
950.50	211.13
950.79	211.06
951.09	211.07
951.39	210.97
951.69	210.95
951.98	210.91
952.28	210.86
952.58	210.90
952.87	210.95
953.17	210.95
953.47	210.84
953.76	210.87
954.06	210.81
954.36	210.72
954.66	210.68
954.95	210.76
955.25	210.76
955.55	210.81
955.84	210.73
956.14	210.74
956.44	210.73
956.73	210.74
957.03	210.71
957.32	210.64
957.62	210.74
957.92	210.79
958.21	210.77
958.51	211.00
958.81	210.98
959.10	210.98
959.40	210.97
959.69	211.05
959.99	211.07
960.29	211.01
960.58	211.08
960.88	211.15
961.17	211.02
961.47	211.02
961.76	211.02
962.06	211.05
962.36	211.07
962.65	210.99
962.95	211.00
963.24	211.01
963.54	211.07
963.83	211.02
964.13	211.00
964.42	210.92
964.72	210.75
965.01	210.84
965.31	210.77
965.60	210.86
965.90	210.95
966.19	210.92
966.49	210.95
966.78	210.92
967.08	210.89
967.37	211.00
967.67	210.90
967.96	210.94
968.26	211.00
968.55	210.97
968.85	211.02
969.14	211.05
969.43	211.07
969.73	211.02
970.02	211.06
970.32	211.09
970.61	211.16
970.91	211.12
971.20	211.03
971.49	211.04
971.79	210.89
972.08	210.82
972.38	210.93
972.67	210.94
972.96	210.99
973.26	210.96
973.55	211.06
973.85	211.09
974.14	211.09
974.43	211.11
974.73	211.09
975.02	211.12
975.31	211.08
975.61	211.08
975.90	211.12
976.19	211.12
976.49	211.09
976.78	211.13
977.07	211.16
977.37	211.21
977.66	211.25
977.95	211.28
978.24	211.31
978.54	211.22
978.83	211.21
979.12	211.22
979.42	211.24
979.71	211.13
980.00	211.15
980.29	211.13
980.59	211.05
980.88	211.16
981.17	211.13
981.46	211.16
981.76	211.22
982.05	211.20
982.34	211.20
982.63	211.22
982.93	211.18
983.22	211.22
983.51	211.17
983.80	211.16
984.09	211.22
984.39	211.14
984.68	211.11
984.97	211.09
985.26	211.02
985.55	211.02
985.85	211.00
986.14	211.03
986.43	211.11
986.72	211.07
987.01	210.97
987.30	210.96
987.59	210.97
987.89	210.93
988.18	211.02
988.47	210.95
988.76	210.99
989.05	211.00
989.34	210.94
989.63	210.99
989.92	210.96
990.22	211.01
990.51	211.03
990.80	211.04
991.09	211.12
991.38	211.23
991.67	211.21
991.96	211.22
992.25	211.23
992.54	211.14
992.83	211.16
993.12	211.10
993.41	211.15
993.70	211.17
993.99	211.19
994.28	211.11
994.58	211.16
994.87	211.10
995.16	211.05
995.45	211.04
995.74	211.06
996.03	211.09
996.32	211.04
996.61	211.10
996.90	211.09
997.19	211.03
997.48	210.99
997.77	210.97
998.06	210.98
998.34	210.98
998.63	210.95
998.92	210.98
999.21	211.04
999.50	211.02
999.79	210.93
1000.08	210.88
1000.37	210.87
1000.66	210.87
1000.95	210.85
1001.24	210.86
1001.53	210.92
1001.82	210.83
1002.11	210.83
1002.40	210.89
1002.68	210.96
1002.97	211.13
1003.26	211.18
1003.55	211.17
1003.84	211.21
1004.13	211.27
1004.42	211.19
1004.71	211.24
1004.99	211.23
1005.28	211.30
1005.57	211.32
1005.86	211.33
1006.15	211.43
1006.44	211.38
1006.72	211.42
1007.01	211.40
1007.30	211.41
1007.59	211.34
1007.88	211.33
1008.17	211.29
1008.45	211.24
1008.74	211.10
1009.03	211.02
1009.32	210.92
1009.60	210.97
1009.89	210.95
1010.18	210.91
1010.47	210.96
1010.76	210.94
1011.04	210.92
1011.33	210.87
1011.62	210.88
1011.91	210.92
1012.19	210.79
1012.48	210.82
1012.77	210.79
1013.05	210.95
1013.34	210.95
1013.63	210.99
1013.92	211.07
1014.20	211.06
1014.49	211.01
1014.78	211.02
1015.06	210.92
1015.35	210.90
1015.64	210.87
1015.92	210.91
1016.21	210.90
1016.50	210.88
1016.78	210.90
1017.07	210.94
1017.36	210.97
1017.64	210.92
1017.93	210.91
1018.22	210.93
1018.50	210.94
1018.79	210.93
1019.08	210.83
1019.36	210.84
1019.65	210.73
1019.93	210.75
1020.22	210.82
1020.51	210.95
1020.79	210.97
1021.08	210.40
1021.36	210.85
1021.65	210.80
1021.94	211.35
1022.22	210.85
1022.51	209.25
1022.79	211.90
1023.08	211.00
1023.36	212.95
1023.65	211.00
>>>>>End Processed Spectral Data<<<<<
