SpectraSuite Data File
++++++++++++++++++++++++++++++++++++
Date: Mon Feb 25 17:32:19 EST 2013
User: group
Dark Spectrum Present: No
Reference Spectrum Present: No
Number of Sampled Component Spectra: 1
Spectrometers: USB2E7196
Integration Time (usec): 52000 (USB2E7196)
Spectra Averaged: 20 (USB2E7196)
Boxcar Smoothing: 10 (USB2E7196)
Correct for Electrical Dark: No (USB2E7196)
Strobe/Lamp Enabled: No (USB2E7196)
Correct for Detector Non-linearity: No (USB2E7196)
Correct for Stray Light: No (USB2E7196)
Number of Pixels in Processed Spectrum: 2048
>>>>>Begin Processed Spectral Data<<<<<
339.09	0.00
339.48	200.05
339.86	202.00
340.24	201.25
340.63	202.65
341.01	208.00
341.39	205.25
341.78	207.45
342.16	208.15
342.54	208.95
342.93	198.15
343.31	208.15
343.69	208.70
344.07	209.10
344.46	209.60
344.84	209.99
345.22	210.16
345.60	210.49
345.99	210.67
346.37	210.80
346.75	210.87
347.13	210.89
347.52	210.87
347.90	210.91
348.28	210.90
348.66	210.90
349.05	210.90
349.43	210.91
349.81	210.98
350.19	211.07
350.57	211.11
350.96	211.26
351.34	211.30
351.72	211.26
352.10	211.27
352.48	211.26
352.87	211.31
353.25	211.31
353.63	211.28
354.01	211.37
354.39	211.49
354.77	211.59
355.15	211.74
355.54	211.85
355.92	211.95
356.30	211.99
356.68	212.25
357.06	212.38
357.44	212.48
357.82	212.57
358.20	212.74
358.58	212.80
358.97	212.85
359.35	212.99
359.73	213.16
360.11	213.24
360.49	213.39
360.87	213.43
361.25	213.54
361.63	213.63
362.01	213.70
362.39	213.68
362.77	213.80
363.15	213.83
363.53	213.84
363.91	213.90
364.29	214.01
364.67	213.85
365.05	213.82
365.43	213.87
365.81	213.88
366.19	213.93
366.57	214.09
366.95	214.08
367.33	214.08
367.71	213.98
368.09	214.07
368.47	214.01
368.85	213.99
369.23	213.98
369.61	214.00
369.99	214.01
370.37	214.02
370.75	214.04
371.13	213.98
371.51	213.91
371.89	213.86
372.27	213.78
372.65	213.80
373.03	213.83
373.41	213.75
373.78	213.77
374.16	213.59
374.54	213.45
374.92	213.45
375.30	213.41
375.68	213.42
376.06	213.33
376.44	213.32
376.82	213.28
377.19	213.26
377.57	213.21
377.95	213.06
378.33	213.08
378.71	212.93
379.09	212.89
379.47	212.86
379.84	212.82
380.22	212.80
380.60	212.68
380.98	212.58
381.36	212.51
381.73	212.38
382.11	212.47
382.49	212.40
382.87	212.32
383.25	212.29
383.62	212.43
384.00	212.43
384.38	212.43
384.76	212.46
385.13	212.49
385.51	212.41
385.89	212.41
386.27	212.34
386.64	212.35
387.02	212.33
387.40	212.30
387.78	212.30
388.15	212.27
388.53	212.23
388.91	212.23
389.29	212.15
389.66	212.14
390.04	212.03
390.42	212.04
390.79	211.97
391.17	211.94
391.55	211.77
391.92	211.70
392.30	211.67
392.68	211.56
393.05	211.57
393.43	211.64
393.81	211.69
394.18	211.63
394.56	211.67
394.94	211.70
395.31	211.75
395.69	211.78
396.06	211.78
396.44	211.84
396.82	211.79
397.19	211.91
397.57	211.96
397.95	211.97
398.32	211.96
398.70	211.93
399.07	211.99
399.45	211.95
399.82	211.95
400.20	211.95
400.58	212.00
400.95	211.93
401.33	211.87
401.70	211.96
402.08	212.10
402.45	212.11
402.83	212.18
403.20	212.21
403.58	212.30
403.95	212.46
404.33	212.60
404.71	212.70
405.08	212.93
405.46	213.01
405.83	213.16
406.21	213.29
406.58	213.51
406.96	213.62
407.33	213.90
407.70	214.19
408.08	214.52
408.45	214.72
408.83	215.00
409.20	215.34
409.58	215.48
409.95	215.72
410.33	216.06
410.70	216.37
411.08	216.66
411.45	216.95
411.82	217.27
412.20	217.69
412.57	218.25
412.95	218.55
413.32	219.14
413.69	219.68
414.07	220.28
414.44	220.88
414.82	221.60
415.19	222.22
415.56	222.90
415.94	223.60
416.31	224.49
416.68	225.35
417.06	226.30
417.43	227.28
417.81	228.30
418.18	229.35
418.55	230.48
418.93	231.79
419.30	233.02
419.67	234.36
420.04	235.66
420.42	237.15
420.79	238.93
421.16	240.57
421.54	242.37
421.91	244.21
422.28	246.14
422.66	248.11
423.03	250.20
423.40	252.30
423.77	254.51
424.15	256.73
424.52	259.03
424.89	261.58
425.26	264.05
425.64	266.50
426.01	269.03
426.38	271.77
426.75	274.50
427.13	277.43
427.50	280.39
427.87	283.45
428.24	286.41
428.61	289.36
428.99	292.58
429.36	295.96
429.73	299.40
430.10	302.84
430.47	306.36
430.85	310.12
431.22	313.98
431.59	318.16
431.96	322.13
432.33	326.49
432.70	330.65
433.08	335.49
433.45	340.11
433.82	344.81
434.19	349.78
434.56	354.76
434.93	359.47
435.30	364.25
435.68	369.58
436.05	374.80
436.42	379.87
436.79	384.48
437.16	389.51
437.53	394.88
437.90	400.19
438.27	405.23
438.64	410.38
439.01	415.27
439.38	419.53
439.75	423.71
440.13	428.50
440.50	432.96
440.87	436.64
441.24	440.46
441.61	444.51
441.98	447.57
442.35	451.09
442.72	454.73
443.09	458.24
443.46	460.32
443.83	461.71
444.20	462.87
444.57	464.76
444.94	465.70
445.31	466.37
445.68	467.08
446.05	467.35
446.42	466.77
446.79	465.92
447.16	465.12
447.53	464.51
447.90	462.29
448.27	460.24
448.64	457.36
449.01	455.20
449.37	451.60
449.74	448.11
450.11	444.00
450.48	439.49
450.85	434.80
451.22	430.90
451.59	427.21
451.96	423.70
452.33	418.90
452.70	414.53
453.07	409.47
453.43	404.13
453.80	399.27
454.17	394.47
454.54	390.04
454.91	385.28
455.28	380.64
455.65	376.37
456.02	372.11
456.38	368.46
456.75	363.81
457.12	360.04
457.49	356.22
457.86	352.55
458.23	349.37
458.59	345.94
458.96	342.30
459.33	339.11
459.70	335.94
460.07	333.41
460.43	330.50
460.80	327.70
461.17	325.44
461.54	322.91
461.91	320.62
462.27	318.27
462.64	316.24
463.01	313.95
463.38	311.88
463.74	309.60
464.11	307.68
464.48	305.97
464.85	304.25
465.21	303.01
465.58	301.58
465.95	299.91
466.32	298.48
466.68	297.10
467.05	295.67
467.42	294.29
467.78	292.75
468.15	291.40
468.52	290.44
468.88	289.18
469.25	288.07
469.62	287.17
469.98	286.19
470.35	285.27
470.72	284.45
471.08	283.52
471.45	282.77
471.82	282.04
472.18	281.21
472.55	280.60
472.92	279.90
473.28	279.31
473.65	278.71
474.02	278.23
474.38	277.89
474.75	277.59
475.11	277.21
475.48	277.10
475.85	276.91
476.21	276.73
476.58	276.52
476.94	276.40
477.31	276.25
477.67	276.22
478.04	276.20
478.41	276.31
478.77	276.59
479.14	276.77
479.50	277.02
479.87	277.51
480.23	277.92
480.60	278.34
480.96	278.83
481.33	279.42
481.69	279.98
482.06	280.62
482.42	281.23
482.79	281.99
483.15	282.85
483.52	283.82
483.88	284.70
484.25	285.78
484.61	286.90
484.98	288.04
485.34	289.30
485.71	290.66
486.07	292.08
486.44	293.43
486.80	294.97
487.17	296.59
487.53	298.33
487.90	300.08
488.26	301.97
488.62	303.97
488.99	306.04
489.35	308.24
489.72	310.43
490.08	312.80
490.44	315.20
490.81	317.77
491.17	320.47
491.54	323.49
491.90	326.49
492.26	329.70
492.63	333.13
492.99	336.57
493.36	340.13
493.72	343.96
494.08	347.86
494.45	352.13
494.81	356.53
495.17	361.01
495.54	365.93
495.90	370.93
496.26	376.06
496.63	381.60
496.99	387.32
497.35	393.26
497.72	399.61
498.08	406.12
498.44	412.78
498.80	420.02
499.17	427.46
499.53	435.12
499.89	443.05
500.26	451.11
500.62	459.45
500.98	468.42
501.34	477.48
501.71	487.03
502.07	496.63
502.43	506.71
502.79	516.95
503.16	527.54
503.52	538.45
503.88	549.57
504.24	560.90
504.60	572.72
504.97	585.19
505.33	597.63
505.69	610.96
506.05	624.38
506.41	637.84
506.78	651.42
507.14	665.45
507.50	680.06
507.86	695.05
508.22	710.46
508.59	725.79
508.95	741.80
509.31	757.79
509.67	774.54
510.03	791.46
510.39	808.92
510.75	826.67
511.12	844.63
511.48	863.09
511.84	881.78
512.20	900.44
512.56	919.51
512.92	939.05
513.28	958.46
513.64	978.32
514.00	998.32
514.37	1018.76
514.73	1039.63
515.09	1060.40
515.45	1081.02
515.81	1102.04
516.17	1123.30
516.53	1144.56
516.89	1166.14
517.25	1187.62
517.61	1209.02
517.97	1230.34
518.33	1251.91
518.69	1273.28
519.05	1295.34
519.41	1317.66
519.77	1339.94
520.13	1361.97
520.49	1383.78
520.85	1406.38
521.21	1428.52
521.57	1451.32
521.93	1473.13
522.29	1495.74
522.65	1517.98
523.01	1540.51
523.37	1562.50
523.73	1584.80
524.09	1607.06
524.45	1629.35
524.81	1651.54
525.17	1673.95
525.53	1696.37
525.89	1718.53
526.25	1740.68
526.61	1762.00
526.97	1783.44
527.33	1805.13
527.68	1826.60
528.04	1847.95
528.40	1867.98
528.76	1888.90
529.12	1909.27
529.48	1930.85
529.84	1951.25
530.20	1971.67
530.56	1991.90
530.91	2012.84
531.27	2033.19
531.63	2052.97
531.99	2072.51
532.35	2091.36
532.71	2110.38
533.07	2129.77
533.42	2148.26
533.78	2167.19
534.14	2185.42
534.50	2202.47
534.86	2220.18
535.21	2236.59
535.57	2254.10
535.93	2271.40
536.29	2288.18
536.65	2304.98
537.00	2320.38
537.36	2335.40
537.72	2350.39
538.08	2365.63
538.44	2380.48
538.79	2395.68
539.15	2410.50
539.51	2425.08
539.87	2440.65
540.22	2454.78
540.58	2469.57
540.94	2483.77
541.29	2496.72
541.65	2508.90
542.01	2522.15
542.37	2533.75
542.72	2546.33
543.08	2557.44
543.44	2569.28
543.79	2579.28
544.15	2589.55
544.51	2600.53
544.87	2611.45
545.22	2620.59
545.58	2628.81
545.94	2635.95
546.29	2642.16
546.65	2648.05
547.01	2654.47
547.36	2659.89
547.72	2665.35
548.07	2669.16
548.43	2672.80
548.79	2676.62
549.14	2681.23
549.50	2685.17
549.86	2689.14
550.21	2692.87
550.57	2696.59
550.92	2699.01
551.28	2701.85
551.64	2704.30
551.99	2706.46
552.35	2707.85
552.70	2710.60
553.06	2713.59
553.41	2716.74
553.77	2719.70
554.13	2721.95
554.48	2723.41
554.84	2724.59
555.19	2725.11
555.55	2725.65
555.90	2726.19
556.26	2726.40
556.61	2726.08
556.97	2725.03
557.32	2724.57
557.68	2722.78
558.03	2721.25
558.39	2719.89
558.74	2719.08
559.10	2717.54
559.45	2715.70
559.81	2714.47
560.16	2711.60
560.52	2709.00
560.87	2705.57
561.23	2701.62
561.58	2699.68
561.94	2696.91
562.29	2693.23
562.64	2691.26
563.00	2688.98
563.35	2686.78
563.71	2684.79
564.06	2682.96
564.42	2681.28
564.77	2679.00
565.12	2677.30
565.48	2674.10
565.83	2671.09
566.19	2667.77
566.54	2663.52
566.89	2659.73
567.25	2655.98
567.60	2652.95
567.96	2649.50
568.31	2646.54
568.66	2642.75
569.02	2637.60
569.37	2632.37
569.72	2628.71
570.08	2623.27
570.43	2617.26
570.78	2611.39
571.14	2605.22
571.49	2598.49
571.84	2592.48
572.20	2585.21
572.55	2578.43
572.90	2571.84
573.26	2564.64
573.61	2557.77
573.96	2551.30
574.31	2543.18
574.67	2535.30
575.02	2526.66
575.37	2517.52
575.72	2508.30
576.08	2501.04
576.43	2492.63
576.78	2484.96
577.13	2476.81
577.49	2468.76
577.84	2461.15
578.19	2453.84
578.54	2446.65
578.90	2439.86
579.25	2430.70
579.60	2421.78
579.95	2412.48
580.30	2404.53
580.66	2396.82
581.01	2387.68
581.36	2378.55
581.71	2370.66
582.06	2361.97
582.42	2354.01
582.77	2345.35
583.12	2336.39
583.47	2327.62
583.82	2319.34
584.17	2310.11
584.53	2301.05
584.88	2292.14
585.23	2283.10
585.58	2273.47
585.93	2263.89
586.28	2254.73
586.63	2246.40
586.98	2238.56
587.34	2230.55
587.69	2221.35
588.04	2211.98
588.39	2204.07
588.74	2194.98
589.09	2186.14
589.44	2176.69
589.79	2168.06
590.14	2160.21
590.49	2152.16
590.84	2142.91
591.19	2134.92
591.54	2126.33
591.89	2116.53
592.25	2107.44
592.60	2097.92
592.95	2088.59
593.30	2079.19
593.65	2069.31
594.00	2059.22
594.35	2050.64
594.70	2041.43
595.05	2032.75
595.40	2024.11
595.75	2014.27
596.10	2006.51
596.45	1998.07
596.80	1990.48
597.15	1982.17
597.50	1972.87
597.85	1964.52
598.19	1956.15
598.54	1947.42
598.89	1939.45
599.24	1932.92
599.59	1925.61
599.94	1918.59
600.29	1911.16
600.64	1903.35
600.99	1894.86
601.34	1888.22
601.69	1879.62
602.04	1871.44
602.39	1863.54
602.74	1855.64
603.08	1849.20
603.43	1841.78
603.78	1833.88
604.13	1825.73
604.48	1817.71
604.83	1811.20
605.18	1804.13
605.53	1796.71
605.87	1789.14
606.22	1782.17
606.57	1773.90
606.92	1765.75
607.27	1757.75
607.62	1750.18
607.96	1743.28
608.31	1737.38
608.66	1729.28
609.01	1721.79
609.36	1714.23
609.70	1706.29
610.05	1698.68
610.40	1690.29
610.75	1681.64
611.10	1674.05
611.44	1665.27
611.79	1656.31
612.14	1646.72
612.49	1637.41
612.83	1628.45
613.18	1619.15
613.53	1609.87
613.88	1600.33
614.22	1591.50
614.57	1582.46
614.92	1573.00
615.27	1563.68
615.61	1553.74
615.96	1544.95
616.31	1536.46
616.65	1528.53
617.00	1520.28
617.35	1511.63
617.70	1502.84
618.04	1494.06
618.39	1484.63
618.74	1476.26
619.08	1467.80
619.43	1459.83
619.78	1451.71
620.12	1443.88
620.47	1436.10
620.82	1427.37
621.16	1419.19
621.51	1410.87
621.85	1402.49
622.20	1394.20
622.55	1385.86
622.89	1377.79
623.24	1369.84
623.59	1361.20
623.93	1352.55
624.28	1344.24
624.62	1335.99
624.97	1327.90
625.32	1320.14
625.66	1312.80
626.01	1305.52
626.35	1298.42
626.70	1290.70
627.04	1283.29
627.39	1275.54
627.73	1267.96
628.08	1261.07
628.43	1253.84
628.77	1246.46
629.12	1239.21
629.46	1232.59
629.81	1225.38
630.15	1217.99
630.50	1210.73
630.84	1203.70
631.19	1196.74
631.53	1190.02
631.88	1182.55
632.22	1175.16
632.57	1168.13
632.91	1160.72
633.26	1153.20
633.60	1145.96
633.95	1139.08
634.29	1131.95
634.64	1125.36
634.98	1118.40
635.32	1111.33
635.67	1104.76
636.01	1097.98
636.36	1091.11
636.70	1084.63
637.05	1078.10
637.39	1071.85
637.73	1065.45
638.08	1059.45
638.42	1053.62
638.77	1047.00
639.11	1040.54
639.45	1034.54
639.80	1027.98
640.14	1021.59
640.49	1015.56
640.83	1009.50
641.17	1003.23
641.52	997.09
641.86	990.61
642.20	984.30
642.55	977.64
642.89	971.27
643.23	965.01
643.58	959.26
643.92	952.70
644.26	946.54
644.61	940.45
644.95	934.42
645.29	928.02
645.64	921.21
645.98	915.11
646.32	909.58
646.66	903.33
647.01	897.40
647.35	891.42
647.69	885.15
648.04	879.13
648.38	873.22
648.72	867.20
649.06	861.14
649.41	855.11
649.75	849.48
650.09	843.58
650.43	837.66
650.78	831.46
651.12	825.58
651.46	819.88
651.80	814.09
652.14	808.00
652.49	802.33
652.83	796.61
653.17	790.61
653.51	784.72
653.85	779.10
654.20	773.27
654.54	767.51
654.88	762.10
655.22	756.30
655.56	750.40
655.90	744.59
656.25	738.91
656.59	733.45
656.93	728.25
657.27	723.16
657.61	717.87
657.95	712.82
658.29	707.75
658.64	702.56
658.98	697.32
659.32	692.24
659.66	686.93
660.00	681.82
660.34	676.60
660.68	671.37
661.02	666.26
661.36	661.58
661.70	657.01
662.05	652.02
662.39	647.51
662.73	643.32
663.07	639.04
663.41	634.85
663.75	630.36
664.09	625.61
664.43	620.89
664.77	616.59
665.11	611.96
665.45	607.46
665.79	603.12
666.13	598.75
666.47	594.43
666.81	590.40
667.15	586.27
667.49	582.47
667.83	578.70
668.17	574.86
668.51	571.14
668.85	567.35
669.19	563.76
669.53	559.84
669.87	555.76
670.21	551.90
670.55	547.94
670.89	544.64
671.23	541.40
671.57	537.95
671.91	534.37
672.25	531.04
672.58	527.55
672.92	523.96
673.26	520.76
673.60	517.59
673.94	514.22
674.28	511.01
674.62	507.84
674.96	504.79
675.30	501.62
675.64	498.28
675.97	495.09
676.31	491.95
676.65	489.05
676.99	486.44
677.33	483.43
677.67	480.49
678.01	477.28
678.34	474.15
678.68	471.31
679.02	468.26
679.36	465.43
679.70	462.52
680.04	459.72
680.37	456.89
680.71	454.08
681.05	451.56
681.39	448.86
681.73	446.27
682.06	443.60
682.40	441.17
682.74	438.57
683.08	435.98
683.42	433.46
683.75	430.91
684.09	428.26
684.43	425.88
684.77	423.35
685.10	420.85
685.44	418.40
685.78	415.87
686.12	413.71
686.45	411.29
686.79	409.12
687.13	406.96
687.46	404.70
687.80	402.50
688.14	400.11
688.48	398.01
688.81	395.62
689.15	393.41
689.49	391.18
689.82	389.11
690.16	386.80
690.50	384.56
690.83	382.27
691.17	379.97
691.51	377.65
691.84	375.47
692.18	373.41
692.52	371.49
692.85	369.64
693.19	367.67
693.52	365.84
693.86	363.91
694.20	362.05
694.53	360.06
694.87	358.10
695.21	356.20
695.54	354.30
695.88	352.42
696.21	350.57
696.55	348.85
696.88	347.13
697.22	345.46
697.56	344.00
697.89	342.56
698.23	341.04
698.56	339.48
698.90	337.99
699.23	336.47
699.57	334.84
699.90	333.18
700.24	331.46
700.58	329.82
700.91	328.34
701.25	326.87
701.58	325.50
701.92	324.11
702.25	322.73
702.59	321.32
702.92	319.98
703.26	318.63
703.59	317.32
703.93	316.10
704.26	314.90
704.60	313.51
704.93	312.22
705.26	310.94
705.60	309.78
705.93	308.64
706.27	307.55
706.60	306.47
706.94	305.46
707.27	304.49
707.61	303.37
707.94	302.23
708.27	300.97
708.61	299.86
708.94	298.76
709.28	297.54
709.61	296.44
709.94	295.42
710.28	294.36
710.61	293.24
710.95	292.06
711.28	291.14
711.61	290.05
711.95	288.98
712.28	287.98
712.61	286.93
712.95	285.93
713.28	285.02
713.61	284.09
713.95	283.11
714.28	282.25
714.61	281.34
714.95	280.42
715.28	279.54
715.61	278.55
715.95	277.67
716.28	276.92
716.61	276.17
716.95	275.33
717.28	274.51
717.61	273.75
717.94	273.05
718.28	272.11
718.61	271.46
718.94	270.76
719.27	270.04
719.61	269.41
719.94	268.75
720.27	267.94
720.60	267.15
720.94	266.43
721.27	265.74
721.60	265.08
721.93	264.43
722.27	263.89
722.60	263.32
722.93	262.73
723.26	262.19
723.59	261.47
723.93	260.97
724.26	260.49
724.59	259.93
724.92	259.30
725.25	258.79
725.59	258.16
725.92	257.64
726.25	257.10
726.58	256.60
726.91	256.07
727.24	255.52
727.57	255.03
727.91	254.48
728.24	253.95
728.57	253.45
728.90	253.02
729.23	252.50
729.56	252.10
729.89	251.63
730.22	251.06
730.55	250.56
730.89	250.11
731.22	249.55
731.55	249.10
731.88	248.63
732.21	248.18
732.54	247.75
732.87	247.29
733.20	246.92
733.53	246.41
733.86	245.97
734.19	245.53
734.52	245.21
734.85	244.98
735.18	244.51
735.51	244.21
735.84	243.81
736.17	243.46
736.50	243.01
736.83	242.88
737.16	242.55
737.49	242.26
737.82	241.86
738.15	241.50
738.48	241.13
738.81	240.81
739.14	240.44
739.47	240.10
739.80	239.80
740.13	239.42
740.46	239.11
740.79	238.82
741.12	238.48
741.45	238.03
741.78	237.62
742.11	237.40
742.44	237.08
742.77	236.81
743.10	236.44
743.43	236.13
743.75	235.59
744.08	235.49
744.41	235.19
744.74	234.90
745.07	234.64
745.40	234.47
745.73	234.30
746.06	234.12
746.39	233.87
746.71	233.54
747.04	233.22
747.37	232.97
747.70	232.72
748.03	232.50
748.36	232.37
748.68	232.09
749.01	231.82
749.34	231.60
749.67	231.31
750.00	231.13
750.33	230.97
750.65	230.78
750.98	230.29
751.31	230.04
751.64	229.74
751.97	229.67
752.29	229.39
752.62	229.05
752.95	228.76
753.28	228.47
753.60	228.31
753.93	228.20
754.26	227.98
754.59	227.69
754.91	227.48
755.24	227.23
755.57	227.17
755.90	226.99
756.22	226.77
756.55	226.57
756.88	226.30
757.20	226.02
757.53	225.84
757.86	225.74
758.19	225.60
758.51	225.49
758.84	225.21
759.17	224.94
759.49	224.86
759.82	224.75
760.15	224.62
760.47	224.33
760.80	224.08
761.13	223.97
761.45	223.82
761.78	223.69
762.11	223.55
762.43	223.29
762.76	223.14
763.08	223.04
763.41	223.01
763.74	222.97
764.06	222.92
764.39	222.76
764.71	222.66
765.04	222.51
765.37	222.35
765.69	222.20
766.02	222.11
766.34	221.88
766.67	221.75
767.00	221.68
767.32	221.73
767.65	221.67
767.97	221.48
768.30	221.40
768.62	221.22
768.95	221.07
769.27	220.96
769.60	220.79
769.92	220.57
770.25	220.39
770.57	220.19
770.90	220.06
771.22	219.92
771.55	219.71
771.87	219.62
772.20	219.50
772.52	219.53
772.85	219.71
773.17	219.66
773.50	219.55
773.82	219.41
774.15	219.20
774.47	219.01
774.80	218.99
775.12	218.90
775.45	218.85
775.77	218.79
776.09	218.71
776.42	218.65
776.74	218.62
777.07	218.46
777.39	218.40
777.72	218.24
778.04	218.18
778.36	218.15
778.69	218.01
779.01	217.97
779.33	217.70
779.66	217.37
779.98	217.23
780.31	217.12
780.63	217.14
780.95	217.16
781.28	217.18
781.60	217.01
781.92	216.90
782.25	216.85
782.57	216.82
782.89	216.71
783.22	216.62
783.54	216.53
783.86	216.57
784.19	216.50
784.51	216.50
784.83	216.37
785.16	216.30
785.48	216.31
785.80	216.28
786.12	216.23
786.45	216.14
786.77	216.20
787.09	216.14
787.42	216.06
787.74	215.98
788.06	215.83
788.38	215.80
788.71	215.75
789.03	215.70
789.35	215.62
789.67	215.53
789.99	215.55
790.32	215.59
790.64	215.59
790.96	215.70
791.28	215.60
791.61	215.63
791.93	215.64
792.25	215.61
792.57	215.64
792.89	215.63
793.21	215.60
793.54	215.45
793.86	215.40
794.18	215.35
794.50	215.27
794.82	215.30
795.14	215.26
795.47	215.21
795.79	215.15
796.11	215.05
796.43	215.04
796.75	215.00
797.07	214.88
797.39	214.79
797.71	214.63
798.04	214.66
798.36	214.59
798.68	214.54
799.00	214.50
799.32	214.42
799.64	214.45
799.96	214.50
800.28	214.48
800.60	214.42
800.92	214.42
801.24	214.41
801.56	214.37
801.89	214.40
802.21	214.38
802.53	214.32
802.85	214.30
803.17	214.32
803.49	214.18
803.81	214.11
804.13	214.09
804.45	214.01
804.77	214.00
805.09	213.95
805.41	213.91
805.73	213.84
806.05	213.75
806.37	213.65
806.69	213.58
807.01	213.60
807.33	213.66
807.65	213.54
807.97	213.60
808.28	213.55
808.60	213.46
808.92	213.39
809.24	213.53
809.56	213.55
809.88	213.46
810.20	213.50
810.52	213.50
810.84	213.41
811.16	213.35
811.48	213.24
811.80	213.32
812.12	213.32
812.43	213.41
812.75	213.44
813.07	213.38
813.39	213.32
813.71	213.25
814.03	213.21
814.35	213.21
814.67	213.10
814.98	213.08
815.30	213.08
815.62	213.12
815.94	212.96
816.26	212.97
816.58	212.95
816.89	212.95
817.21	212.92
817.53	212.94
817.85	213.03
818.17	213.10
818.48	212.97
818.80	212.90
819.12	212.79
819.44	212.74
819.76	212.75
820.07	212.77
820.39	212.80
820.71	212.83
821.03	212.74
821.34	212.76
821.66	212.73
821.98	212.78
822.30	212.78
822.61	212.89
822.93	212.87
823.25	212.87
823.57	212.86
823.88	212.95
824.20	212.90
824.52	212.88
824.83	212.88
825.15	212.85
825.47	212.89
825.79	212.92
826.10	212.90
826.42	212.84
826.74	212.89
827.05	212.80
827.37	212.79
827.69	212.88
828.00	212.84
828.32	212.89
828.64	212.84
828.95	212.93
829.27	212.80
829.58	212.79
829.90	212.85
830.22	212.85
830.53	212.72
830.85	212.72
831.17	212.60
831.48	212.61
831.80	212.57
832.11	212.50
832.43	212.37
832.75	212.31
833.06	212.51
833.38	212.40
833.69	212.45
834.01	212.35
834.32	212.35
834.64	212.30
834.96	212.25
835.27	212.18
835.59	212.05
835.90	212.04
836.22	211.98
836.53	211.88
836.85	211.78
837.16	211.96
837.48	211.89
837.79	211.97
838.11	211.94
838.42	212.03
838.74	212.10
839.05	212.14
839.37	212.12
839.68	211.92
840.00	211.92
840.31	211.92
840.63	212.03
840.94	211.99
841.26	212.01
841.57	211.90
841.88	211.97
842.20	211.94
842.51	211.92
842.83	211.92
843.14	212.10
843.46	212.13
843.77	212.06
844.08	212.14
844.40	212.08
844.71	212.10
845.03	212.04
845.34	211.92
845.65	211.91
845.97	211.95
846.28	211.98
846.60	212.00
846.91	212.03
847.22	211.92
847.54	211.92
847.85	211.86
848.16	211.96
848.48	211.95
848.79	212.10
849.10	212.14
849.42	212.10
849.73	211.91
850.04	211.90
850.36	211.86
850.67	211.87
850.98	211.89
851.30	211.92
851.61	211.94
851.92	212.03
852.23	212.14
852.55	212.23
852.86	212.24
853.17	212.22
853.49	212.18
853.80	212.27
854.11	212.23
854.42	212.31
854.74	212.25
855.05	212.27
855.36	212.14
855.67	212.18
855.99	212.24
856.30	212.48
856.61	212.50
856.92	212.46
857.23	212.45
857.55	212.48
857.86	212.37
858.17	212.34
858.48	212.25
858.79	212.22
859.11	212.15
859.42	212.13
859.73	212.09
860.04	212.10
860.35	212.04
860.66	211.96
860.98	211.90
861.29	211.98
861.60	211.93
861.91	211.95
862.22	211.87
862.53	211.81
862.84	211.55
863.16	211.56
863.47	211.52
863.78	211.52
864.09	211.45
864.40	211.50
864.71	211.51
865.02	211.54
865.33	211.45
865.64	211.38
865.95	211.42
866.27	211.52
866.58	211.38
866.89	211.37
867.20	211.42
867.51	211.42
867.82	211.41
868.13	211.45
868.44	211.45
868.75	211.55
869.06	211.57
869.37	211.59
869.68	211.53
869.99	211.57
870.30	211.50
870.61	211.59
870.92	211.52
871.23	211.51
871.54	211.54
871.85	211.55
872.16	211.65
872.47	211.55
872.78	211.46
873.09	211.58
873.40	211.54
873.71	211.58
874.02	211.56
874.33	211.54
874.64	211.48
874.95	211.43
875.26	211.30
875.56	211.27
875.87	211.32
876.18	211.26
876.49	211.34
876.80	211.35
877.11	211.26
877.42	211.26
877.73	211.25
878.04	211.25
878.35	211.25
878.66	211.16
878.96	211.23
879.27	211.30
879.58	211.24
879.89	211.23
880.20	211.26
880.51	211.30
880.82	211.22
881.12	211.17
881.43	211.15
881.74	211.18
882.05	211.10
882.36	211.04
882.67	211.17
882.97	211.09
883.28	211.08
883.59	211.05
883.90	211.08
884.21	211.09
884.51	211.05
884.82	210.98
885.13	210.99
885.44	210.96
885.74	210.91
886.05	210.96
886.36	210.94
886.67	210.88
886.98	210.91
887.28	210.99
887.59	211.06
887.90	211.06
888.20	211.05
888.51	211.10
888.82	211.08
889.13	211.05
889.43	211.12
889.74	211.09
890.05	211.14
890.35	211.09
890.66	211.10
890.97	211.08
891.28	211.07
891.58	211.07
891.89	211.09
892.20	211.07
892.50	211.02
892.81	211.05
893.12	211.06
893.42	210.99
893.73	210.92
894.04	210.98
894.34	210.97
894.65	210.94
894.95	210.95
895.26	211.00
895.57	211.09
895.87	210.97
896.18	211.02
896.48	210.95
896.79	210.95
897.10	210.91
897.40	210.98
897.71	211.08
898.01	211.08
898.32	211.08
898.63	211.06
898.93	211.02
899.24	211.03
899.54	211.00
899.85	211.02
900.15	211.07
900.46	211.05
900.76	211.14
901.07	211.15
901.38	211.16
901.68	211.14
901.99	210.99
902.29	211.03
902.60	211.07
902.90	211.14
903.21	211.21
903.51	211.23
903.82	211.25
904.12	211.19
904.43	211.23
904.73	211.20
905.03	211.19
905.34	211.43
905.64	211.41
905.95	211.39
906.25	211.39
906.56	211.38
906.86	211.36
907.17	211.34
907.47	211.34
907.77	211.39
908.08	211.37
908.38	211.39
908.69	211.42
908.99	211.51
909.30	211.52
909.60	211.52
909.90	211.63
910.21	211.58
910.51	211.64
910.81	211.55
911.12	211.52
911.42	211.57
911.73	211.41
912.03	211.39
912.33	211.46
912.64	211.48
912.94	211.44
913.24	211.44
913.55	211.39
913.85	211.39
914.15	211.39
914.46	211.39
914.76	211.41
915.06	211.38
915.37	211.24
915.67	211.25
915.97	211.22
916.27	211.08
916.58	211.04
916.88	211.00
917.18	211.05
917.49	211.20
917.79	211.20
918.09	211.18
918.39	211.22
918.70	211.16
919.00	211.11
919.30	211.21
919.60	211.17
919.91	211.14
920.21	211.13
920.51	211.11
920.81	211.05
921.12	211.02
921.42	211.02
921.72	211.08
922.02	211.06
922.32	211.06
922.63	211.09
922.93	211.22
923.23	211.20
923.53	211.17
923.83	211.01
924.13	210.99
924.44	210.93
924.74	210.91
925.04	210.99
925.34	211.00
925.64	210.94
925.94	210.91
926.24	211.05
926.55	211.11
926.85	211.14
927.15	211.18
927.45	211.21
927.75	211.16
928.05	211.11
928.35	211.10
928.65	211.08
928.95	211.06
929.26	211.01
929.56	211.06
929.86	211.10
930.16	211.20
930.46	211.14
930.76	211.22
931.06	211.20
931.36	211.21
931.66	211.17
931.96	211.20
932.26	211.23
932.56	211.13
932.86	211.05
933.16	211.06
933.46	211.02
933.76	210.98
934.06	211.05
934.36	211.15
934.66	211.16
934.96	211.17
935.26	211.17
935.56	211.12
935.86	211.08
936.16	211.01
936.46	210.97
936.76	211.00
937.06	210.97
937.36	210.95
937.66	210.95
937.96	210.97
938.26	210.95
938.56	210.92
938.86	210.93
939.16	210.99
939.46	211.00
939.76	211.08
940.06	211.14
940.35	211.07
940.65	210.92
940.95	210.89
941.25	210.88
941.55	210.84
941.85	210.82
942.15	210.90
942.45	211.02
942.75	211.02
943.04	211.03
943.34	211.09
943.64	211.09
943.94	211.06
944.24	211.09
944.54	211.09
944.84	211.15
945.13	211.13
945.43	211.05
945.73	210.99
946.03	210.98
946.33	210.98
946.62	211.02
946.92	211.10
947.22	211.14
947.52	211.12
947.82	211.25
948.11	211.27
948.41	211.19
948.71	211.16
949.01	211.15
949.31	211.19
949.60	211.16
949.90	211.26
950.20	211.27
950.50	211.25
950.79	211.27
951.09	211.33
951.39	211.36
951.69	211.41
951.98	211.46
952.28	211.49
952.58	211.51
952.87	211.42
953.17	211.41
953.47	211.41
953.76	211.46
954.06	211.44
954.36	211.47
954.66	211.51
954.95	211.52
955.25	211.54
955.55	211.53
955.84	211.55
956.14	211.49
956.44	211.48
956.73	211.47
957.03	211.50
957.32	211.44
957.62	211.45
957.92	211.51
958.21	211.51
958.51	211.62
958.81	211.64
959.10	211.73
959.40	211.76
959.69	211.74
959.99	211.71
960.29	211.69
960.58	211.62
960.88	211.65
961.17	211.66
961.47	211.68
961.76	211.60
962.06	211.62
962.36	211.68
962.65	211.67
962.95	211.65
963.24	211.61
963.54	211.65
963.83	211.67
964.13	211.66
964.42	211.60
964.72	211.51
965.01	211.50
965.31	211.49
965.60	211.46
965.90	211.61
966.19	211.52
966.49	211.53
966.78	211.60
967.08	211.58
967.37	211.51
967.67	211.45
967.96	211.53
968.26	211.45
968.55	211.41
968.85	211.43
969.14	211.45
969.43	211.38
969.73	211.34
970.02	211.28
970.32	211.23
970.61	211.17
970.91	211.10
971.20	211.06
971.49	210.98
971.79	210.99
972.08	210.81
972.38	210.93
972.67	210.94
972.96	210.91
973.26	210.79
973.55	210.85
973.85	210.84
974.14	210.81
974.43	210.81
974.73	210.74
975.02	210.69
975.31	210.65
975.61	210.68
975.90	210.66
976.19	210.65
976.49	210.62
976.78	210.67
977.07	210.67
977.37	210.70
977.66	210.78
977.95	210.68
978.24	210.70
978.54	210.69
978.83	210.60
979.12	210.53
979.42	210.64
979.71	210.61
980.00	210.64
980.29	210.69
980.59	210.75
980.88	210.85
981.17	210.81
981.46	210.83
981.76	210.84
982.05	210.94
982.34	210.93
982.63	210.89
982.93	210.88
983.22	210.94
983.51	210.90
983.80	210.91
984.09	210.95
984.39	210.92
984.68	210.85
984.97	210.95
985.26	210.98
985.55	210.95
985.85	210.99
986.14	211.00
986.43	210.99
986.72	210.92
987.01	210.85
987.30	210.91
987.59	210.91
987.89	210.91
988.18	210.75
988.47	210.78
988.76	210.94
989.05	210.98
989.34	210.92
989.63	211.02
989.92	211.07
990.22	211.09
990.51	211.15
990.80	211.15
991.09	211.06
991.38	211.12
991.67	211.11
991.96	211.05
992.25	211.10
992.54	211.05
992.83	211.05
993.12	210.99
993.41	211.01
993.70	211.09
993.99	211.12
994.28	211.26
994.58	211.19
994.87	211.06
995.16	210.90
995.45	210.88
995.74	210.76
996.03	210.68
996.32	210.68
996.61	210.73
996.90	210.70
997.19	210.77
997.48	210.73
997.77	210.70
998.06	210.69
998.34	210.59
998.63	210.60
998.92	210.60
999.21	210.67
999.50	210.65
999.79	210.62
1000.08	210.61
1000.37	210.57
1000.66	210.65
1000.95	210.73
1001.24	210.85
1001.53	210.92
1001.82	210.92
1002.11	210.88
1002.40	210.96
1002.68	210.96
1002.97	211.13
1003.26	211.07
1003.55	211.00
1003.84	211.03
1004.13	211.08
1004.42	211.14
1004.71	211.15
1004.99	211.22
1005.28	211.19
1005.57	211.22
1005.86	211.19
1006.15	211.14
1006.44	211.10
1006.72	211.06
1007.01	210.98
1007.30	210.96
1007.59	210.94
1007.88	211.01
1008.17	211.04
1008.45	210.87
1008.74	210.80
1009.03	210.70
1009.32	210.70
1009.60	210.75
1009.89	210.72
1010.18	210.59
1010.47	210.50
1010.76	210.46
1011.04	210.45
1011.33	210.49
1011.62	210.46
1011.91	210.44
1012.19	210.52
1012.48	210.49
1012.77	210.49
1013.05	210.57
1013.34	210.60
1013.63	210.58
1013.92	210.49
1014.20	210.50
1014.49	210.57
1014.78	210.56
1015.06	210.47
1015.35	210.48
1015.64	210.48
1015.92	210.49
1016.21	210.56
1016.50	210.57
1016.78	210.61
1017.07	210.63
1017.36	210.52
1017.64	210.50
1017.93	210.50
1018.22	210.47
1018.50	210.54
1018.79	210.55
1019.08	210.53
1019.36	210.48
1019.65	210.46
1019.93	210.52
1020.22	210.49
1020.51	210.57
1020.79	210.57
1021.08	210.75
1021.36	211.35
1021.65	210.70
1021.94	211.55
1022.22	210.00
1022.51	210.00
1022.79	211.05
1023.08	209.90
1023.36	212.40
1023.65	210.35
>>>>>End Processed Spectral Data<<<<<
