SpectraSuite Data File
++++++++++++++++++++++++++++++++++++
Date: Mon Feb 25 17:34:08 EST 2013
User: group
Dark Spectrum Present: No
Reference Spectrum Present: No
Number of Sampled Component Spectra: 1
Spectrometers: USB2E7196
Integration Time (usec): 52000 (USB2E7196)
Spectra Averaged: 20 (USB2E7196)
Boxcar Smoothing: 10 (USB2E7196)
Correct for Electrical Dark: No (USB2E7196)
Strobe/Lamp Enabled: No (USB2E7196)
Correct for Detector Non-linearity: No (USB2E7196)
Correct for Stray Light: No (USB2E7196)
Number of Pixels in Processed Spectrum: 2048
>>>>>Begin Processed Spectral Data<<<<<
339.09	0.00
339.48	199.50
339.86	199.60
340.24	203.80
340.63	203.25
341.01	207.90
341.39	206.20
341.78	207.55
342.16	209.90
342.54	209.35
342.93	198.33
343.31	208.35
343.69	208.88
344.07	209.40
344.46	209.74
344.84	210.11
345.22	210.29
345.60	210.49
345.99	210.70
346.37	210.78
346.75	210.88
347.13	210.87
347.52	210.89
347.90	211.10
348.28	211.19
348.66	211.24
349.05	211.33
349.43	211.36
349.81	211.36
350.19	211.40
350.57	211.54
350.96	211.59
351.34	211.64
351.72	211.70
352.10	211.85
352.48	211.91
352.87	211.95
353.25	211.99
353.63	212.14
354.01	212.18
354.39	212.21
354.77	212.21
355.15	212.37
355.54	212.44
355.92	212.38
356.30	212.43
356.68	212.56
357.06	212.61
357.44	212.71
357.82	212.81
358.20	212.99
358.58	213.04
358.97	213.10
359.35	213.29
359.73	213.44
360.11	213.42
360.49	213.45
360.87	213.54
361.25	213.63
361.63	213.69
362.01	213.80
362.39	213.85
362.77	213.98
363.15	214.06
363.53	214.11
363.91	214.16
364.29	214.20
364.67	214.11
365.05	214.04
365.43	214.05
365.81	214.06
366.19	214.06
366.57	214.15
366.95	214.16
367.33	213.98
367.71	213.93
368.09	213.98
368.47	213.98
368.85	213.91
369.23	213.90
369.61	213.84
369.99	213.84
370.37	213.87
370.75	213.89
371.13	213.76
371.51	213.75
371.89	213.76
372.27	213.74
372.65	213.86
373.03	213.89
373.41	213.83
373.78	213.73
374.16	213.66
374.54	213.54
374.92	213.49
375.30	213.55
375.68	213.46
376.06	213.46
376.44	213.50
376.82	213.49
377.19	213.41
377.57	213.37
377.95	213.21
378.33	213.15
378.71	213.05
379.09	213.06
379.47	213.06
379.84	212.95
380.22	212.85
380.60	212.71
380.98	212.61
381.36	212.50
381.73	212.51
382.11	212.45
382.49	212.42
382.87	212.36
383.25	212.31
383.62	212.50
384.00	212.34
384.38	212.21
384.76	212.21
385.13	212.28
385.51	212.22
385.89	212.23
386.27	212.18
386.64	212.12
387.02	212.04
387.40	211.97
387.78	211.94
388.15	211.94
388.53	211.84
388.91	211.80
389.29	211.86
389.66	211.89
390.04	211.80
390.42	211.81
390.79	211.74
391.17	211.71
391.55	211.46
391.92	211.49
392.30	211.57
392.68	211.55
393.05	211.51
393.43	211.48
393.81	211.41
394.18	211.38
394.56	211.45
394.94	211.51
395.31	211.48
395.69	211.50
396.06	211.52
396.44	211.55
396.82	211.56
397.19	211.64
397.57	211.61
397.95	211.71
398.32	211.63
398.70	211.67
399.07	211.72
399.45	211.74
399.82	211.75
400.20	211.72
400.58	211.75
400.95	211.71
401.33	211.83
401.70	212.02
402.08	212.09
402.45	212.07
402.83	212.12
403.20	212.23
403.58	212.35
403.95	212.44
404.33	212.55
404.71	212.65
405.08	212.80
405.46	212.93
405.83	213.02
406.21	213.19
406.58	213.36
406.96	213.47
407.33	213.71
407.70	213.89
408.08	214.17
408.45	214.39
408.83	214.63
409.20	214.83
409.58	214.96
409.95	215.33
410.33	215.66
410.70	215.90
411.08	216.24
411.45	216.66
411.82	216.93
412.20	217.42
412.57	217.97
412.95	218.25
413.32	218.78
413.69	219.27
414.07	219.83
414.44	220.44
414.82	221.12
415.19	221.81
415.56	222.59
415.94	223.37
416.31	224.28
416.68	225.19
417.06	226.19
417.43	227.13
417.81	228.20
418.18	229.39
418.55	230.71
418.93	231.99
419.30	233.27
419.67	234.69
420.04	236.13
420.42	237.58
420.79	239.46
421.16	241.13
421.54	243.03
421.91	244.89
422.28	246.81
422.66	248.92
423.03	250.96
423.40	253.01
423.77	255.17
424.15	257.36
424.52	259.70
424.89	262.31
425.26	264.79
425.64	267.09
426.01	269.65
426.38	272.29
426.75	275.03
427.13	277.84
427.50	280.88
427.87	283.93
428.24	287.01
428.61	289.88
428.99	293.25
429.36	296.74
429.73	300.25
430.10	303.75
430.47	307.22
430.85	310.95
431.22	314.93
431.59	319.17
431.96	323.21
432.33	327.55
432.70	331.64
433.08	336.64
433.45	341.40
433.82	346.10
434.19	351.19
434.56	356.26
434.93	361.09
435.30	365.93
435.68	371.30
436.05	376.54
436.42	381.80
436.79	386.57
437.16	391.71
437.53	397.00
437.90	402.21
438.27	407.47
438.64	412.84
439.01	417.80
439.38	422.25
439.75	426.46
440.13	431.38
440.50	436.00
440.87	439.72
441.24	443.60
441.61	447.75
441.98	450.94
442.35	454.46
442.72	458.11
443.09	461.61
443.46	463.59
443.83	464.96
444.20	466.13
444.57	467.93
444.94	468.71
445.31	469.58
445.68	470.49
446.05	470.68
446.42	469.97
446.79	469.16
447.16	468.16
447.53	467.60
447.90	465.49
448.27	463.37
448.64	460.46
449.01	458.30
449.37	454.70
449.74	451.09
450.11	447.06
450.48	442.50
450.85	437.82
451.22	433.89
451.59	430.21
451.96	426.47
452.33	421.54
452.70	417.23
453.07	412.01
453.43	406.66
453.80	401.70
454.17	396.96
454.54	392.51
454.91	387.78
455.28	382.95
455.65	378.52
456.02	374.20
456.38	370.54
456.75	365.80
457.12	361.93
457.49	358.12
457.86	354.32
458.23	351.15
458.59	347.65
458.96	344.10
459.33	340.84
459.70	337.71
460.07	335.20
460.43	332.29
460.80	329.69
461.17	327.31
461.54	324.79
461.91	322.38
462.27	319.99
462.64	317.98
463.01	315.83
463.38	313.65
463.74	311.43
464.11	309.43
464.48	307.80
464.85	305.95
465.21	304.60
465.58	303.22
465.95	301.43
466.32	300.05
466.68	298.70
467.05	297.36
467.42	296.04
467.78	294.55
468.15	293.24
468.52	292.06
468.88	290.80
469.25	289.64
469.62	288.76
469.98	287.68
470.35	286.75
470.72	285.90
471.08	284.97
471.45	284.25
471.82	283.48
472.18	282.57
472.55	282.08
472.92	281.33
473.28	280.65
473.65	280.14
474.02	279.55
474.38	279.06
474.75	278.63
475.11	278.24
475.48	278.02
475.85	277.79
476.21	277.75
476.58	277.58
476.94	277.53
477.31	277.40
477.67	277.41
478.04	277.35
478.41	277.37
478.77	277.69
479.14	277.73
479.50	278.02
479.87	278.43
480.23	278.74
480.60	279.18
480.96	279.66
481.33	280.31
481.69	280.89
482.06	281.49
482.42	282.20
482.79	282.91
483.15	283.73
483.52	284.68
483.88	285.60
484.25	286.62
484.61	287.73
484.98	288.86
485.34	290.17
485.71	291.53
486.07	292.98
486.44	294.40
486.80	296.02
487.17	297.55
487.53	299.24
487.90	301.04
488.26	302.92
488.62	304.85
488.99	306.83
489.35	309.04
489.72	311.38
490.08	313.69
490.44	316.20
490.81	318.87
491.17	321.52
491.54	324.39
491.90	327.42
492.26	330.51
492.63	333.82
492.99	337.27
493.36	340.99
493.72	344.91
494.08	348.90
494.45	353.10
494.81	357.68
495.17	362.32
495.54	367.24
495.90	372.40
496.26	377.73
496.63	383.15
496.99	388.99
497.35	394.97
497.72	401.24
498.08	407.80
498.44	414.47
498.80	421.60
499.17	428.98
499.53	436.72
499.89	444.67
500.26	452.81
500.62	461.13
500.98	469.92
501.34	478.93
501.71	488.42
502.07	498.05
502.43	508.12
502.79	518.27
503.16	528.85
503.52	539.63
503.88	550.94
504.24	562.67
504.60	574.46
504.97	586.70
505.33	599.26
505.69	612.54
506.05	626.04
506.41	639.67
506.78	653.40
507.14	667.51
507.50	682.25
507.86	697.31
508.22	712.76
508.59	728.25
508.95	744.23
509.31	760.33
509.67	777.16
510.03	794.03
510.39	811.71
510.75	829.57
511.12	847.65
511.48	865.84
511.84	884.54
512.20	903.36
512.56	922.85
512.92	942.38
513.28	961.85
513.64	981.65
514.00	1001.66
514.37	1022.24
514.73	1042.94
515.09	1063.68
515.45	1084.65
515.81	1105.80
516.17	1127.23
516.53	1148.64
516.89	1170.13
517.25	1191.74
517.61	1213.30
517.97	1234.66
518.33	1256.24
518.69	1278.04
519.05	1300.18
519.41	1322.27
519.77	1345.27
520.13	1367.39
520.49	1389.79
520.85	1412.45
521.21	1435.06
521.57	1457.89
521.93	1479.95
522.29	1502.79
522.65	1525.38
523.01	1547.86
523.37	1570.08
523.73	1592.46
524.09	1614.99
524.45	1637.59
524.81	1659.70
525.17	1682.24
525.53	1704.92
525.89	1727.27
526.25	1749.22
526.61	1770.75
526.97	1792.82
527.33	1813.66
527.68	1835.21
528.04	1856.13
528.40	1876.65
528.76	1897.64
529.12	1918.47
529.48	1940.27
529.84	1960.79
530.20	1981.27
530.56	2001.70
530.91	2022.64
531.27	2043.40
531.63	2063.55
531.99	2083.43
532.35	2103.18
532.71	2122.64
533.07	2142.29
533.42	2160.84
533.78	2180.06
534.14	2198.54
534.50	2215.63
534.86	2233.98
535.21	2250.92
535.57	2269.12
535.93	2286.78
536.29	2303.72
536.65	2320.59
537.00	2336.18
537.36	2351.56
537.72	2366.96
538.08	2382.20
538.44	2397.54
538.79	2412.81
539.15	2427.86
539.51	2442.75
539.87	2457.87
540.22	2472.33
540.58	2487.12
540.94	2501.99
541.29	2515.15
541.65	2527.80
542.01	2541.33
542.37	2553.22
542.72	2565.62
543.08	2576.61
543.44	2588.56
543.79	2599.04
544.15	2609.60
544.51	2620.69
544.87	2631.85
545.22	2640.81
545.58	2649.97
545.94	2657.24
546.29	2663.52
546.65	2669.42
547.01	2675.54
547.36	2681.35
547.72	2686.89
548.07	2690.95
548.43	2694.70
548.79	2698.39
549.14	2703.12
549.50	2707.35
549.86	2711.42
550.21	2715.49
550.57	2719.87
550.92	2722.55
551.28	2725.18
551.64	2727.36
551.99	2730.14
552.35	2731.95
552.70	2735.14
553.06	2738.10
553.41	2741.60
553.77	2744.89
554.13	2747.74
554.48	2750.01
554.84	2751.80
555.19	2752.51
555.55	2753.26
555.90	2753.64
556.26	2754.45
556.61	2754.43
556.97	2753.04
557.32	2752.86
557.68	2751.11
558.03	2749.72
558.39	2748.14
558.74	2747.92
559.10	2747.15
559.45	2745.05
559.81	2743.93
560.16	2741.27
560.52	2738.60
560.87	2735.51
561.23	2731.87
561.58	2729.53
561.94	2726.03
562.29	2722.28
562.64	2720.15
563.00	2717.59
563.35	2715.94
563.71	2714.26
564.06	2712.06
564.42	2710.44
564.77	2708.04
565.12	2706.55
565.48	2703.15
565.83	2700.34
566.19	2696.80
566.54	2692.75
566.89	2689.00
567.25	2685.10
567.60	2681.95
567.96	2678.62
568.31	2674.74
568.66	2670.97
569.02	2666.09
569.37	2661.19
569.72	2657.49
570.08	2652.34
570.43	2646.62
570.78	2640.50
571.14	2633.77
571.49	2627.08
571.84	2621.03
572.20	2613.90
572.55	2607.23
572.90	2600.58
573.26	2593.38
573.61	2586.44
573.96	2579.73
574.31	2571.84
574.67	2563.91
575.02	2555.39
575.37	2546.20
575.72	2537.45
576.08	2529.82
576.43	2521.12
576.78	2513.55
577.13	2505.38
577.49	2497.00
577.84	2489.47
578.19	2482.08
578.54	2474.97
578.90	2467.81
579.25	2459.17
579.60	2449.99
579.95	2440.48
580.30	2432.50
580.66	2424.29
581.01	2415.10
581.36	2405.71
581.71	2397.27
582.06	2388.48
582.42	2380.21
582.77	2371.28
583.12	2362.17
583.47	2353.31
583.82	2345.35
584.17	2335.75
584.53	2326.38
584.88	2317.70
585.23	2308.29
585.58	2298.66
585.93	2289.01
586.28	2279.82
586.63	2271.10
586.98	2262.78
587.34	2254.59
587.69	2245.00
588.04	2235.92
588.39	2227.76
588.74	2218.73
589.09	2209.65
589.44	2199.90
589.79	2191.32
590.14	2183.31
590.49	2175.15
590.84	2166.04
591.19	2157.58
591.54	2148.98
591.89	2138.66
592.25	2129.15
592.60	2119.81
592.95	2110.42
593.30	2100.85
593.65	2091.16
594.00	2081.17
594.35	2073.08
594.70	2063.81
595.05	2054.99
595.40	2045.90
595.75	2035.96
596.10	2027.52
596.45	2019.08
596.80	2011.47
597.15	2003.03
597.50	1993.95
597.85	1985.43
598.19	1976.80
598.54	1968.22
598.89	1960.19
599.24	1953.39
599.59	1946.00
599.94	1938.82
600.29	1930.98
600.64	1922.90
600.99	1914.45
601.34	1907.38
601.69	1898.38
602.04	1890.04
602.39	1881.98
602.74	1874.27
603.08	1867.75
603.43	1860.60
603.78	1852.81
604.13	1844.42
604.48	1836.25
604.83	1829.28
605.18	1822.15
605.53	1814.37
605.87	1806.37
606.22	1799.15
606.57	1791.38
606.92	1783.02
607.27	1774.94
607.62	1767.68
607.96	1760.76
608.31	1754.78
608.66	1746.65
609.01	1739.21
609.36	1731.34
609.70	1723.49
610.05	1715.67
610.40	1707.06
610.75	1698.35
611.10	1690.46
611.44	1681.52
611.79	1672.55
612.14	1662.93
612.49	1653.22
612.83	1644.40
613.18	1634.79
613.53	1625.32
613.88	1615.49
614.22	1606.68
614.57	1597.10
614.92	1587.51
615.27	1578.03
615.61	1568.00
615.96	1559.09
616.31	1550.53
616.65	1542.68
617.00	1534.31
617.35	1525.59
617.70	1516.98
618.04	1507.81
618.39	1498.41
618.74	1490.14
619.08	1481.62
619.43	1473.60
619.78	1465.53
620.12	1457.52
620.47	1449.75
620.82	1441.29
621.16	1432.99
621.51	1424.41
621.85	1416.33
622.20	1407.84
622.55	1399.39
622.89	1391.02
623.24	1383.08
623.59	1374.33
623.93	1365.66
624.28	1357.35
624.62	1348.64
624.97	1339.99
625.32	1332.34
625.66	1324.82
626.01	1317.33
626.35	1309.93
626.70	1302.11
627.04	1294.78
627.39	1286.95
627.73	1279.24
628.08	1272.33
628.43	1264.88
628.77	1257.66
629.12	1250.15
629.46	1243.62
629.81	1236.14
630.15	1228.64
630.50	1221.13
630.84	1213.93
631.19	1206.79
631.53	1199.89
631.88	1192.70
632.22	1185.40
632.57	1178.26
632.91	1170.70
633.26	1163.23
633.60	1156.00
633.95	1148.76
634.29	1141.38
634.64	1134.62
634.98	1127.69
635.32	1120.40
635.67	1114.03
636.01	1107.11
636.36	1100.36
636.70	1093.52
637.05	1087.15
637.39	1080.88
637.73	1074.67
638.08	1068.58
638.42	1062.71
638.77	1056.15
639.11	1049.99
639.45	1043.89
639.80	1037.37
640.14	1031.08
640.49	1024.65
640.83	1018.42
641.17	1012.45
641.52	1006.30
641.86	999.88
642.20	993.53
642.55	986.76
642.89	980.21
643.23	974.09
643.58	968.12
643.92	961.54
644.26	955.41
644.61	949.28
644.95	942.90
645.29	936.64
645.64	929.98
645.98	923.75
646.32	917.85
646.66	911.51
647.01	905.57
647.35	899.70
647.69	893.45
648.04	887.40
648.38	881.20
648.72	875.14
649.06	869.09
649.41	863.06
649.75	857.40
650.09	851.69
650.43	845.61
650.78	839.31
651.12	833.13
651.46	827.21
651.80	821.36
652.14	815.36
652.49	809.34
652.83	803.38
653.17	797.29
653.51	791.33
653.85	785.84
654.20	779.93
654.54	774.01
654.88	768.65
655.22	762.72
655.56	756.93
655.90	750.99
656.25	745.08
656.59	739.63
656.93	734.40
657.27	729.12
657.61	723.55
657.95	718.43
658.29	713.35
658.64	708.20
658.98	702.99
659.32	697.76
659.66	692.54
660.00	687.14
660.34	681.78
660.68	676.53
661.02	671.51
661.36	666.74
661.70	661.84
662.05	657.08
662.39	652.74
662.73	648.26
663.07	643.90
663.41	639.56
663.75	634.94
664.09	630.28
664.43	625.42
664.77	621.17
665.11	616.65
665.45	612.21
665.79	607.75
666.13	603.21
666.47	599.04
666.81	594.87
667.15	590.92
667.49	587.20
667.83	583.26
668.17	579.22
668.51	575.40
668.85	571.75
669.19	568.01
669.53	563.98
669.87	559.84
670.21	556.10
670.55	552.25
670.89	548.64
671.23	545.18
671.57	541.65
671.91	538.11
672.25	534.68
672.58	531.20
672.92	527.71
673.26	524.58
673.60	521.27
673.94	517.87
674.28	514.57
674.62	511.37
674.96	508.18
675.30	505.06
675.64	501.68
675.97	498.41
676.31	495.38
676.65	492.37
676.99	489.78
677.33	486.68
677.67	483.73
678.01	480.70
678.34	477.68
678.68	474.78
679.02	471.67
679.36	468.79
679.70	466.05
680.04	463.17
680.37	460.18
680.71	457.35
681.05	454.57
681.39	451.87
681.73	449.05
682.06	446.44
682.40	443.89
682.74	441.39
683.08	438.85
683.42	436.23
683.75	433.75
684.09	431.09
684.43	428.68
684.77	426.19
685.10	423.72
685.44	421.14
685.78	418.68
686.12	416.45
686.45	414.09
686.79	411.65
687.13	409.50
687.46	407.24
687.80	404.96
688.14	402.80
688.48	400.65
688.81	398.50
689.15	396.39
689.49	394.10
689.82	391.88
690.16	389.64
690.50	387.17
690.83	384.80
691.17	382.57
691.51	380.28
691.84	378.18
692.18	376.23
692.52	374.27
692.85	372.47
693.19	370.62
693.52	368.71
693.86	366.79
694.20	364.85
694.53	362.95
694.87	361.09
695.21	359.23
695.54	357.24
695.88	355.34
696.21	353.41
696.55	351.70
696.88	349.83
697.22	348.00
697.56	346.59
697.89	345.12
698.23	343.45
698.56	341.86
698.90	340.30
699.23	338.55
699.57	337.03
699.90	335.28
700.24	333.56
700.58	331.91
700.91	330.44
701.25	328.97
701.58	327.44
701.92	325.98
702.25	324.48
702.59	323.07
702.92	321.68
703.26	320.33
703.59	318.98
703.93	317.98
704.26	316.77
704.60	315.44
704.93	314.11
705.26	312.95
705.60	311.82
705.93	310.45
706.27	309.30
706.60	308.15
706.94	307.09
707.27	305.86
707.61	304.75
707.94	303.57
708.27	302.30
708.61	301.24
708.94	300.08
709.28	298.96
709.61	297.87
709.94	296.82
710.28	295.77
710.61	294.71
710.95	293.43
711.28	292.44
711.61	291.36
711.95	290.26
712.28	289.12
712.61	288.05
712.95	287.15
713.28	286.23
713.61	285.18
713.95	284.10
714.28	283.19
714.61	282.23
714.95	281.37
715.28	280.53
715.61	279.59
715.95	278.74
716.28	277.85
716.61	277.06
716.95	276.20
717.28	275.29
717.61	274.39
717.94	273.61
718.28	272.73
718.61	271.93
718.94	271.32
719.27	270.71
719.61	269.98
719.94	269.25
720.27	268.43
720.60	267.61
720.94	267.02
721.27	266.40
721.60	265.77
721.93	265.05
722.27	264.49
722.60	264.00
722.93	263.43
723.26	262.93
723.59	262.24
723.93	261.74
724.26	261.20
724.59	260.69
724.92	260.21
725.25	259.68
725.59	259.20
725.92	258.58
726.25	257.95
726.58	257.40
726.91	256.88
727.24	256.37
727.57	255.94
727.91	255.40
728.24	254.93
728.57	254.41
728.90	253.95
729.23	253.40
729.56	252.99
729.89	252.55
730.22	252.02
730.55	251.62
730.89	251.11
731.22	250.58
731.55	250.11
731.88	249.58
732.21	249.15
732.54	248.65
732.87	248.23
733.20	247.78
733.53	247.41
733.86	247.02
734.19	246.67
734.52	246.32
734.85	246.06
735.18	245.64
735.51	245.30
735.84	244.88
736.17	244.55
736.50	244.08
736.83	243.81
737.16	243.39
737.49	243.00
737.82	242.62
738.15	242.31
738.48	241.94
738.81	241.57
739.14	241.19
739.47	240.85
739.80	240.58
740.13	240.32
740.46	239.94
740.79	239.56
741.12	239.25
741.45	238.87
741.78	238.48
742.11	238.20
742.44	237.84
742.77	237.58
743.10	237.20
743.43	236.80
743.75	236.36
744.08	236.29
744.41	235.99
744.74	235.64
745.07	235.31
745.40	235.09
745.73	234.87
746.06	234.62
746.39	234.33
746.71	233.95
747.04	233.61
747.37	233.37
747.70	233.16
748.03	232.82
748.36	232.59
748.68	232.34
749.01	232.00
749.34	231.78
749.67	231.52
750.00	231.38
750.33	231.27
750.65	230.91
750.98	230.46
751.31	230.25
751.64	230.07
751.97	229.90
752.29	229.61
752.62	229.32
752.95	229.06
753.28	228.88
753.60	228.66
753.93	228.52
754.26	228.27
754.59	227.93
754.91	227.72
755.24	227.53
755.57	227.24
755.90	227.06
756.22	226.79
756.55	226.50
756.88	226.23
757.20	225.89
757.53	225.69
757.86	225.50
758.19	225.32
758.51	225.03
758.84	224.83
759.17	224.62
759.49	224.46
759.82	224.36
760.15	224.25
760.47	224.07
760.80	223.85
761.13	223.75
761.45	223.56
761.78	223.45
762.11	223.25
762.43	223.13
762.76	222.95
763.08	222.89
763.41	222.75
763.74	222.66
764.06	222.57
764.39	222.47
764.71	222.36
765.04	222.23
765.37	222.17
765.69	221.98
766.02	221.88
766.34	221.80
766.67	221.64
767.00	221.53
767.32	221.52
767.65	221.55
767.97	221.38
768.30	221.35
768.62	221.12
768.95	220.97
769.27	220.83
769.60	220.74
769.92	220.56
770.25	220.47
770.57	220.29
770.90	220.12
771.22	220.02
771.55	219.87
771.87	219.82
772.20	219.73
772.52	219.84
772.85	219.97
773.17	219.78
773.50	219.64
773.82	219.46
774.15	219.25
774.47	219.01
774.80	218.89
775.12	218.78
775.45	218.80
775.77	218.82
776.09	218.78
776.42	218.77
776.74	218.73
777.07	218.70
777.39	218.60
777.72	218.55
778.04	218.44
778.36	218.34
778.69	218.23
779.01	218.14
779.33	217.85
779.66	217.58
779.98	217.51
780.31	217.49
780.63	217.50
780.95	217.55
781.28	217.51
781.60	217.46
781.92	217.41
782.25	217.32
782.57	217.12
782.89	217.06
783.22	216.90
783.54	216.86
783.86	216.82
784.19	216.80
784.51	216.79
784.83	216.77
785.16	216.73
785.48	216.67
785.80	216.68
786.12	216.71
786.45	216.64
786.77	216.65
787.09	216.55
787.42	216.47
787.74	216.43
788.06	216.32
788.38	216.31
788.71	216.22
789.03	216.09
789.35	216.10
789.67	216.06
789.99	216.02
790.32	215.96
790.64	215.90
790.96	216.00
791.28	215.97
791.61	215.90
791.93	215.88
792.25	215.83
792.57	215.85
792.89	215.75
793.21	215.74
793.54	215.67
793.86	215.62
794.18	215.54
794.50	215.46
794.82	215.46
795.14	215.40
795.47	215.35
795.79	215.38
796.11	215.33
796.43	215.19
796.75	215.12
797.07	215.00
797.39	214.96
797.71	214.76
798.04	214.72
798.36	214.66
798.68	214.64
799.00	214.60
799.32	214.48
799.64	214.52
799.96	214.49
800.28	214.48
800.60	214.40
800.92	214.35
801.24	214.30
801.56	214.27
801.89	214.24
802.21	214.30
802.53	214.29
802.85	214.30
803.17	214.36
803.49	214.33
803.81	214.31
804.13	214.26
804.45	214.18
804.77	214.14
805.09	214.12
805.41	214.13
805.73	214.07
806.05	213.97
806.37	213.96
806.69	213.86
807.01	213.83
807.33	213.87
807.65	213.83
807.97	213.83
808.28	213.80
808.60	213.69
808.92	213.63
809.24	213.70
809.56	213.66
809.88	213.60
810.20	213.59
810.52	213.64
810.84	213.56
811.16	213.50
811.48	213.43
811.80	213.41
812.12	213.39
812.43	213.37
812.75	213.44
813.07	213.30
813.39	213.35
813.71	213.28
814.03	213.25
814.35	213.25
814.67	213.18
814.98	213.13
815.30	213.19
815.62	213.16
815.94	213.03
816.26	213.03
816.58	212.99
816.89	213.01
817.21	212.90
817.53	212.87
817.85	212.94
818.17	212.91
818.48	212.81
818.80	212.77
819.12	212.76
819.44	212.67
819.76	212.72
820.07	212.65
820.39	212.70
820.71	212.71
821.03	212.69
821.34	212.64
821.66	212.66
821.98	212.64
822.30	212.57
822.61	212.65
822.93	212.60
823.25	212.59
823.57	212.59
823.88	212.73
824.20	212.73
824.52	212.71
824.83	212.73
825.15	212.84
825.47	212.82
825.79	212.83
826.10	212.74
826.42	212.67
826.74	212.71
827.05	212.62
827.37	212.56
827.69	212.51
828.00	212.52
828.32	212.54
828.64	212.49
828.95	212.55
829.27	212.50
829.58	212.50
829.90	212.51
830.22	212.51
830.53	212.40
830.85	212.38
831.17	212.38
831.48	212.39
831.80	212.33
832.11	212.35
832.43	212.31
832.75	212.37
833.06	212.49
833.38	212.35
833.69	212.34
834.01	212.35
834.32	212.29
834.64	212.25
834.96	212.20
835.27	212.20
835.59	212.14
835.90	212.06
836.22	211.96
836.53	211.90
836.85	211.79
837.16	212.00
837.48	211.99
837.79	212.00
838.11	211.93
838.42	211.93
838.74	211.90
839.05	211.84
839.37	211.79
839.68	211.64
840.00	211.69
840.31	211.70
840.63	211.64
840.94	211.65
841.26	211.64
841.57	211.70
841.88	211.76
842.20	211.71
842.51	211.75
842.83	211.87
843.14	212.03
843.46	212.07
843.77	211.90
844.08	211.90
844.40	211.83
844.71	211.82
845.03	211.71
845.34	211.66
845.65	211.60
845.97	211.63
846.28	211.61
846.60	211.56
846.91	211.49
847.22	211.51
847.54	211.55
847.85	211.58
848.16	211.50
848.48	211.45
848.79	211.61
849.10	211.57
849.42	211.55
849.73	211.42
850.04	211.37
850.36	211.35
850.67	211.37
850.98	211.37
851.30	211.39
851.61	211.47
851.92	211.52
852.23	211.61
852.55	211.64
852.86	211.63
853.17	211.65
853.49	211.70
853.80	211.70
854.11	211.68
854.42	211.71
854.74	211.74
855.05	211.71
855.36	211.55
855.67	211.59
855.99	211.61
856.30	211.84
856.61	211.88
856.92	211.85
857.23	211.86
857.55	211.84
857.86	211.84
858.17	211.80
858.48	211.73
858.79	211.74
859.11	211.71
859.42	211.72
859.73	211.76
860.04	211.79
860.35	211.84
860.66	211.86
860.98	211.81
861.29	211.83
861.60	211.84
861.91	211.87
862.22	211.86
862.53	211.80
862.84	211.57
863.16	211.53
863.47	211.51
863.78	211.50
864.09	211.50
864.40	211.55
864.71	211.65
865.02	211.72
865.33	211.69
865.64	211.65
865.95	211.74
866.27	211.85
866.58	211.87
866.89	211.84
867.20	211.75
867.51	211.69
867.82	211.70
868.13	211.76
868.44	211.75
868.75	211.75
869.06	211.80
869.37	211.80
869.68	211.78
869.99	211.78
870.30	211.80
870.61	211.90
870.92	211.79
871.23	211.74
871.54	211.73
871.85	211.78
872.16	211.86
872.47	211.83
872.78	211.74
873.09	211.78
873.40	211.81
873.71	211.77
874.02	211.85
874.33	211.79
874.64	211.72
874.95	211.70
875.26	211.65
875.56	211.65
875.87	211.62
876.18	211.61
876.49	211.74
876.80	211.67
877.11	211.57
877.42	211.67
877.73	211.60
878.04	211.57
878.35	211.51
878.66	211.45
878.96	211.38
879.27	211.32
879.58	211.20
879.89	211.15
880.20	211.36
880.51	211.30
880.82	211.26
881.12	211.24
881.43	211.30
881.74	211.30
882.05	211.25
882.36	211.28
882.67	211.29
882.97	211.13
883.28	211.09
883.59	211.08
883.90	211.10
884.21	211.15
884.51	211.09
884.82	211.11
885.13	211.12
885.44	211.06
885.74	211.03
886.05	211.05
886.36	211.10
886.67	210.95
886.98	211.07
887.28	211.11
887.59	211.13
887.90	211.09
888.20	211.03
888.51	211.04
888.82	211.05
889.13	211.10
889.43	211.29
889.74	211.37
890.05	211.35
890.35	211.23
890.66	211.17
890.97	211.17
891.28	211.08
891.58	211.13
891.89	211.19
892.20	211.18
892.50	211.15
892.81	211.14
893.12	211.12
893.42	210.99
893.73	210.96
894.04	210.99
894.34	211.00
894.65	210.99
894.95	210.94
895.26	210.87
895.57	210.91
895.87	210.71
896.18	210.66
896.48	210.72
896.79	210.76
897.10	210.79
897.40	210.82
897.71	210.95
898.01	210.90
898.32	210.91
898.63	210.95
898.93	211.03
899.24	210.99
899.54	211.03
899.85	211.09
900.15	211.08
900.46	210.99
900.76	211.05
901.07	211.05
901.38	211.09
901.68	211.14
901.99	211.08
902.29	211.03
902.60	211.08
902.90	211.07
903.21	211.05
903.51	211.05
903.82	211.15
904.12	211.10
904.43	211.10
904.73	211.15
905.03	211.11
905.34	211.20
905.64	211.20
905.95	211.16
906.25	211.16
906.56	211.10
906.86	211.23
907.17	211.22
907.47	211.25
907.77	211.20
908.08	211.18
908.38	211.18
908.69	211.29
908.99	211.26
909.30	211.21
909.60	211.22
909.90	211.30
910.21	211.16
910.51	211.13
910.81	211.19
911.12	211.16
911.42	211.20
911.73	211.10
912.03	211.12
912.33	211.23
912.64	211.25
912.94	211.35
913.24	211.27
913.55	211.19
913.85	211.18
914.15	211.22
914.46	211.28
914.76	211.24
915.06	211.22
915.37	211.24
915.67	211.25
915.97	211.23
916.27	211.10
916.58	211.03
916.88	211.07
917.18	210.98
917.49	211.11
917.79	211.15
918.09	211.20
918.39	211.18
918.70	211.11
919.00	211.02
919.30	211.10
919.60	211.05
919.91	211.01
920.21	210.98
920.51	210.93
920.81	210.88
921.12	210.96
921.42	211.03
921.72	211.05
922.02	211.10
922.32	211.19
922.63	211.22
922.93	211.41
923.23	211.43
923.53	211.45
923.83	211.30
924.13	211.24
924.44	211.18
924.74	211.23
925.04	211.33
925.34	211.34
925.64	211.29
925.94	211.31
926.24	211.48
926.55	211.49
926.85	211.55
927.15	211.58
927.45	211.52
927.75	211.52
928.05	211.50
928.35	211.47
928.65	211.53
928.95	211.57
929.26	211.54
929.56	211.61
929.86	211.65
930.16	211.65
930.46	211.62
930.76	211.64
931.06	211.56
931.36	211.41
931.66	211.53
931.96	211.46
932.26	211.49
932.56	211.38
932.86	211.41
933.16	211.39
933.46	211.37
933.76	211.35
934.06	211.33
934.36	211.40
934.66	211.39
934.96	211.30
935.26	211.34
935.56	211.34
935.86	211.27
936.16	211.22
936.46	211.30
936.76	211.31
937.06	211.21
937.36	211.30
937.66	211.36
937.96	211.37
938.26	211.37
938.56	211.39
938.86	211.46
939.16	211.55
939.46	211.57
939.76	211.59
940.06	211.59
940.35	211.57
940.65	211.43
940.95	211.47
941.25	211.42
941.55	211.34
941.85	211.33
942.15	211.28
942.45	211.29
942.75	211.23
943.04	211.30
943.34	211.42
943.64	211.35
943.94	211.33
944.24	211.23
944.54	211.25
944.84	211.24
945.13	211.20
945.43	211.11
945.73	211.09
946.03	211.05
946.33	211.04
946.62	211.06
946.92	211.12
947.22	211.08
947.52	211.16
947.82	211.23
948.11	211.20
948.41	211.20
948.71	211.14
949.01	211.15
949.31	211.15
949.60	211.07
949.90	211.02
950.20	211.00
950.50	211.00
950.79	210.99
951.09	210.98
951.39	210.94
951.69	210.93
951.98	210.98
952.28	210.95
952.58	210.92
952.87	210.85
953.17	210.89
953.47	210.85
953.76	210.81
954.06	210.76
954.36	210.75
954.66	210.70
954.95	210.80
955.25	210.81
955.55	210.83
955.84	210.84
956.14	210.94
956.44	210.96
956.73	210.91
957.03	210.91
957.32	210.94
957.62	210.97
957.92	210.99
958.21	210.94
958.51	211.17
958.81	211.25
959.10	211.30
959.40	211.35
959.69	211.48
959.99	211.43
960.29	211.36
960.58	211.32
960.88	211.40
961.17	211.37
961.47	211.32
961.76	211.27
962.06	211.34
962.36	211.28
962.65	211.27
962.95	211.31
963.24	211.27
963.54	211.24
963.83	211.19
964.13	211.10
964.42	211.08
964.72	210.91
965.01	210.87
965.31	210.87
965.60	210.85
965.90	210.89
966.19	210.93
966.49	210.97
966.78	210.95
967.08	211.02
967.37	210.98
967.67	210.99
967.96	211.06
968.26	210.96
968.55	211.06
968.85	210.98
969.14	210.98
969.43	211.00
969.73	211.01
970.02	211.12
970.32	211.20
970.61	211.18
970.91	211.10
971.20	211.13
971.49	211.10
971.79	211.10
972.08	210.95
972.38	210.94
972.67	210.95
972.96	210.98
973.26	210.93
973.55	211.01
973.85	210.94
974.14	210.92
974.43	210.98
974.73	210.85
975.02	210.89
975.31	210.89
975.61	210.92
975.90	210.88
976.19	210.69
976.49	210.66
976.78	210.70
977.07	210.80
977.37	210.76
977.66	210.74
977.95	210.68
978.24	210.69
978.54	210.74
978.83	210.70
979.12	210.65
979.42	210.64
979.71	210.52
980.00	210.58
980.29	210.53
980.59	210.47
980.88	210.55
981.17	210.53
981.46	210.58
981.76	210.56
982.05	210.63
982.34	210.68
982.63	210.70
982.93	210.71
983.22	210.67
983.51	210.64
983.80	210.68
984.09	210.65
984.39	210.58
984.68	210.57
984.97	210.58
985.26	210.61
985.55	210.53
985.85	210.51
986.14	210.47
986.43	210.45
986.72	210.45
987.01	210.39
987.30	210.37
987.59	210.30
987.89	210.31
988.18	210.22
988.47	210.26
988.76	210.24
989.05	210.26
989.34	210.24
989.63	210.34
989.92	210.30
990.22	210.35
990.51	210.42
990.80	210.38
991.09	210.38
991.38	210.37
991.67	210.44
991.96	210.48
992.25	210.56
992.54	210.60
992.83	210.61
993.12	210.54
993.41	210.60
993.70	210.65
993.99	210.67
994.28	210.71
994.58	210.70
994.87	210.76
995.16	210.69
995.45	210.73
995.74	210.61
996.03	210.65
996.32	210.65
996.61	210.70
996.90	210.70
997.19	210.69
997.48	210.69
997.77	210.75
998.06	210.79
998.34	210.72
998.63	210.67
998.92	210.65
999.21	210.73
999.50	210.74
999.79	210.78
1000.08	210.71
1000.37	210.72
1000.66	210.76
1000.95	210.71
1001.24	210.75
1001.53	210.72
1001.82	210.77
1002.11	210.77
1002.40	210.77
1002.68	210.77
1002.97	210.88
1003.26	210.90
1003.55	210.88
1003.84	210.79
1004.13	210.81
1004.42	210.82
1004.71	210.77
1004.99	210.83
1005.28	210.96
1005.57	210.95
1005.86	210.89
1006.15	210.89
1006.44	210.89
1006.72	210.88
1007.01	210.89
1007.30	210.90
1007.59	210.90
1007.88	210.92
1008.17	210.89
1008.45	210.83
1008.74	210.81
1009.03	210.72
1009.32	210.74
1009.60	210.76
1009.89	210.76
1010.18	210.69
1010.47	210.67
1010.76	210.73
1011.04	210.63
1011.33	210.57
1011.62	210.56
1011.91	210.55
1012.19	210.52
1012.48	210.49
1012.77	210.50
1013.05	210.55
1013.34	210.50
1013.63	210.54
1013.92	210.49
1014.20	210.46
1014.49	210.44
1014.78	210.44
1015.06	210.37
1015.35	210.39
1015.64	210.40
1015.92	210.43
1016.21	210.44
1016.50	210.44
1016.78	210.47
1017.07	210.52
1017.36	210.48
1017.64	210.46
1017.93	210.53
1018.22	210.58
1018.50	210.50
1018.79	210.49
1019.08	210.40
1019.36	210.40
1019.65	210.41
1019.93	210.40
1020.22	210.45
1020.51	210.52
1020.79	210.51
1021.08	210.70
1021.36	208.50
1021.65	210.90
1021.94	210.10
1022.22	210.10
1022.51	211.65
1022.79	210.00
1023.08	210.65
1023.36	211.50
1023.65	210.70
>>>>>End Processed Spectral Data<<<<<
