SpectraSuite Data File
++++++++++++++++++++++++++++++++++++
Date: Mon Feb 25 17:35:21 EST 2013
User: group
Dark Spectrum Present: No
Reference Spectrum Present: No
Number of Sampled Component Spectra: 1
Spectrometers: USB2E7196
Integration Time (usec): 52000 (USB2E7196)
Spectra Averaged: 20 (USB2E7196)
Boxcar Smoothing: 10 (USB2E7196)
Correct for Electrical Dark: No (USB2E7196)
Strobe/Lamp Enabled: No (USB2E7196)
Correct for Detector Non-linearity: No (USB2E7196)
Correct for Stray Light: No (USB2E7196)
Number of Pixels in Processed Spectrum: 2048
>>>>>Begin Processed Spectral Data<<<<<
339.09	0.00
339.48	198.30
339.86	199.60
340.24	201.20
340.63	202.30
341.01	207.05
341.39	205.40
341.78	206.75
342.16	209.55
342.54	209.35
342.93	197.87
343.31	207.84
343.69	208.41
344.07	208.89
344.46	209.39
344.84	209.81
345.22	209.96
345.60	210.25
345.99	210.47
346.37	210.60
346.75	210.68
347.13	210.80
347.52	210.95
347.90	211.08
348.28	211.15
348.66	211.19
349.05	211.26
349.43	211.36
349.81	211.41
350.19	211.57
350.57	211.61
350.96	211.77
351.34	211.96
351.72	212.05
352.10	212.26
352.48	212.40
352.87	212.43
353.25	212.57
353.63	212.64
354.01	212.70
354.39	212.74
354.77	212.84
355.15	212.92
355.54	212.95
355.92	212.94
356.30	213.10
356.68	213.22
357.06	213.20
357.44	213.27
357.82	213.28
358.20	213.26
358.58	213.27
358.97	213.32
359.35	213.39
359.73	213.50
360.11	213.48
360.49	213.51
360.87	213.61
361.25	213.65
361.63	213.71
362.01	213.74
362.39	213.75
362.77	213.79
363.15	213.77
363.53	213.83
363.91	213.85
364.29	213.71
364.67	213.61
365.05	213.61
365.43	213.62
365.81	213.71
366.19	213.80
366.57	213.93
366.95	213.82
367.33	213.75
367.71	213.70
368.09	213.68
368.47	213.53
368.85	213.50
369.23	213.49
369.61	213.40
369.99	213.49
370.37	213.53
370.75	213.53
371.13	213.47
371.51	213.39
371.89	213.40
372.27	213.43
372.65	213.43
373.03	213.44
373.41	213.32
373.78	213.25
374.16	213.10
374.54	213.03
374.92	213.03
375.30	212.98
375.68	212.89
376.06	212.86
376.44	212.89
376.82	212.83
377.19	212.77
377.57	212.77
377.95	212.59
378.33	212.52
378.71	212.31
379.09	212.29
379.47	212.20
379.84	212.12
380.22	212.09
380.60	212.03
380.98	212.03
381.36	212.03
381.73	211.95
382.11	212.00
382.49	211.92
382.87	211.81
383.25	211.78
383.62	211.93
384.00	211.84
384.38	211.76
384.76	211.77
385.13	211.85
385.51	211.75
385.89	211.70
386.27	211.70
386.64	211.75
387.02	211.80
387.40	211.76
387.78	211.74
388.15	211.65
388.53	211.52
388.91	211.48
389.29	211.50
389.66	211.46
390.04	211.32
390.42	211.30
390.79	211.40
391.17	211.37
391.55	211.24
391.92	211.34
392.30	211.37
392.68	211.35
393.05	211.25
393.43	211.28
393.81	211.33
394.18	211.29
394.56	211.31
394.94	211.26
395.31	211.25
395.69	211.23
396.06	211.26
396.44	211.32
396.82	211.26
397.19	211.37
397.57	211.43
397.95	211.50
398.32	211.54
398.70	211.53
399.07	211.63
399.45	211.57
399.82	211.55
400.20	211.51
400.58	211.58
400.95	211.62
401.33	211.73
401.70	211.92
402.08	211.99
402.45	212.07
402.83	212.23
403.20	212.39
403.58	212.49
403.95	212.60
404.33	212.67
404.71	212.77
405.08	212.86
405.46	212.98
405.83	213.14
406.21	213.28
406.58	213.47
406.96	213.59
407.33	213.81
407.70	214.01
408.08	214.44
408.45	214.64
408.83	214.90
409.20	215.02
409.58	215.13
409.95	215.36
410.33	215.67
410.70	215.91
411.08	216.20
411.45	216.56
411.82	216.88
412.20	217.42
412.57	217.98
412.95	218.36
413.32	218.94
413.69	219.49
414.07	220.10
414.44	220.62
414.82	221.30
415.19	222.04
415.56	222.80
415.94	223.45
416.31	224.34
416.68	225.16
417.06	226.27
417.43	227.29
417.81	228.48
418.18	229.65
418.55	230.80
418.93	232.13
419.30	233.47
419.67	234.90
420.04	236.32
420.42	237.83
420.79	239.60
421.16	241.33
421.54	243.08
421.91	244.87
422.28	246.86
422.66	248.89
423.03	250.91
423.40	252.94
423.77	255.15
424.15	257.35
424.52	259.69
424.89	262.19
425.26	264.63
425.64	266.99
426.01	269.50
426.38	272.20
426.75	274.92
427.13	277.78
427.50	280.77
427.87	283.87
428.24	287.06
428.61	290.00
428.99	293.29
429.36	296.90
429.73	300.54
430.10	304.05
430.47	307.57
430.85	311.21
431.22	315.20
431.59	319.43
431.96	323.50
432.33	328.00
432.70	332.22
433.08	337.26
433.45	341.93
433.82	346.60
434.19	351.86
434.56	356.94
434.93	361.72
435.30	366.54
435.68	371.85
436.05	376.99
436.42	382.28
436.79	387.05
437.16	392.15
437.53	397.54
437.90	402.82
438.27	408.17
438.64	413.69
439.01	418.69
439.38	423.09
439.75	427.30
440.13	432.12
440.50	436.71
440.87	440.41
441.24	444.19
441.61	448.45
441.98	451.62
442.35	455.26
442.72	458.94
443.09	462.36
443.46	464.44
443.83	465.81
444.20	466.92
444.57	468.58
444.94	469.18
445.31	469.79
445.68	470.53
446.05	470.75
446.42	470.06
446.79	469.24
447.16	468.36
447.53	467.80
447.90	465.67
448.27	463.51
448.64	460.59
449.01	458.49
449.37	454.75
449.74	451.13
450.11	447.02
450.48	442.42
450.85	437.88
451.22	433.90
451.59	430.05
451.96	426.38
452.33	421.62
452.70	417.43
453.07	412.25
453.43	407.01
453.80	401.97
454.17	397.05
454.54	392.53
454.91	387.57
455.28	382.82
455.65	378.37
456.02	374.11
456.38	370.35
456.75	365.73
457.12	361.91
457.49	357.99
457.86	354.22
458.23	351.17
458.59	347.71
458.96	344.22
459.33	341.13
459.70	337.98
460.07	335.38
460.43	332.36
460.80	329.72
461.17	327.35
461.54	324.81
461.91	322.47
462.27	320.11
462.64	318.14
463.01	315.85
463.38	313.79
463.74	311.43
464.11	309.61
464.48	307.96
464.85	306.17
465.21	304.89
465.58	303.31
465.95	301.49
466.32	300.06
466.68	298.59
467.05	297.13
467.42	295.84
467.78	294.41
468.15	293.14
468.52	292.07
468.88	290.75
469.25	289.58
469.62	288.67
469.98	287.65
470.35	286.76
470.72	285.88
471.08	284.90
471.45	284.20
471.82	283.38
472.18	282.49
472.55	281.89
472.92	281.11
473.28	280.54
473.65	279.98
474.02	279.38
474.38	278.91
474.75	278.59
475.11	278.10
475.48	277.91
475.85	277.68
476.21	277.51
476.58	277.27
476.94	277.17
477.31	277.04
477.67	276.92
478.04	276.87
478.41	276.97
478.77	277.22
479.14	277.36
479.50	277.55
479.87	277.89
480.23	278.22
480.60	278.61
480.96	279.10
481.33	279.65
481.69	280.25
482.06	280.78
482.42	281.47
482.79	282.14
483.15	282.98
483.52	283.98
483.88	284.90
484.25	285.94
484.61	287.04
484.98	288.21
485.34	289.54
485.71	290.92
486.07	292.35
486.44	293.61
486.80	295.24
487.17	296.87
487.53	298.56
487.90	300.50
488.26	302.48
488.62	304.45
488.99	306.50
489.35	308.59
489.72	310.94
490.08	313.30
490.44	315.93
490.81	318.50
491.17	321.09
491.54	324.02
491.90	327.06
492.26	330.33
492.63	333.73
492.99	337.16
493.36	340.85
493.72	344.65
494.08	348.73
494.45	352.97
494.81	357.45
495.17	362.15
495.54	366.97
495.90	371.96
496.26	377.26
496.63	382.90
496.99	388.64
497.35	394.78
497.72	401.10
498.08	407.56
498.44	414.26
498.80	421.40
499.17	428.76
499.53	436.40
499.89	444.45
500.26	452.62
500.62	461.10
500.98	470.09
501.34	479.31
501.71	488.87
502.07	498.59
502.43	508.71
502.79	518.81
503.16	529.47
503.52	540.53
503.88	551.76
504.24	563.25
504.60	575.38
504.97	587.61
505.33	600.25
505.69	613.66
506.05	627.40
506.41	641.06
506.78	655.05
507.14	669.41
507.50	683.86
507.86	698.89
508.22	714.31
508.59	729.74
508.95	745.68
509.31	761.82
509.67	778.60
510.03	795.44
510.39	813.00
510.75	830.80
511.12	849.02
511.48	867.52
511.84	886.21
512.20	904.77
512.56	924.07
512.92	943.46
513.28	963.03
513.64	982.78
514.00	1002.96
514.37	1023.20
514.73	1044.27
515.09	1065.14
515.45	1086.10
515.81	1107.30
516.17	1128.41
516.53	1149.95
516.89	1171.63
517.25	1193.12
517.61	1214.86
517.97	1236.71
518.33	1258.30
518.69	1280.10
519.05	1302.34
519.41	1324.45
519.77	1347.29
520.13	1369.52
520.49	1391.78
520.85	1414.52
521.21	1437.09
521.57	1460.11
521.93	1482.50
522.29	1505.41
522.65	1528.01
523.01	1550.66
523.37	1573.00
523.73	1595.58
524.09	1618.16
524.45	1640.91
524.81	1663.75
525.17	1686.44
525.53	1708.98
525.89	1731.62
526.25	1753.93
526.61	1775.35
526.97	1797.56
527.33	1818.91
527.68	1840.60
528.04	1862.29
528.40	1882.83
528.76	1904.04
529.12	1924.85
529.48	1946.93
529.84	1967.17
530.20	1987.97
530.56	2008.74
530.91	2029.80
531.27	2050.63
531.63	2070.78
531.99	2090.51
532.35	2109.68
532.71	2128.79
533.07	2148.74
533.42	2167.40
533.78	2186.27
534.14	2204.54
534.50	2221.72
534.86	2240.33
535.21	2257.52
535.57	2275.29
535.93	2292.92
536.29	2309.85
536.65	2326.78
537.00	2342.09
537.36	2357.82
537.72	2373.33
538.08	2388.71
538.44	2403.69
538.79	2419.22
539.15	2434.11
539.51	2448.97
539.87	2464.74
540.22	2479.70
540.58	2494.66
540.94	2509.40
541.29	2522.68
541.65	2535.74
542.01	2549.30
542.37	2561.01
542.72	2573.14
543.08	2584.55
543.44	2596.63
543.79	2607.11
544.15	2617.24
544.51	2628.62
544.87	2639.89
545.22	2649.03
545.58	2657.62
545.94	2665.30
546.29	2671.81
546.65	2678.52
547.01	2685.21
547.36	2690.77
547.72	2696.25
548.07	2700.27
548.43	2704.11
548.79	2708.23
549.14	2713.07
549.50	2717.62
549.86	2722.02
550.21	2726.39
550.57	2730.48
550.92	2733.20
551.28	2735.86
551.64	2739.00
551.99	2741.84
552.35	2743.42
552.70	2746.56
553.06	2749.70
553.41	2753.07
553.77	2756.22
554.13	2758.22
554.48	2760.20
554.84	2761.57
555.19	2762.36
555.55	2762.76
555.90	2763.71
556.26	2764.32
556.61	2764.49
556.97	2763.37
557.32	2762.92
557.68	2761.70
558.03	2760.40
558.39	2759.10
558.74	2758.78
559.10	2757.83
559.45	2756.09
559.81	2754.83
560.16	2752.35
560.52	2749.84
560.87	2747.00
561.23	2743.64
561.58	2741.72
561.94	2738.39
562.29	2734.98
562.64	2733.05
563.00	2730.82
563.35	2728.79
563.71	2727.19
564.06	2725.18
564.42	2723.35
564.77	2721.31
565.12	2719.45
565.48	2716.40
565.83	2713.13
566.19	2709.80
566.54	2705.05
566.89	2701.07
567.25	2697.56
567.60	2694.55
567.96	2690.76
568.31	2687.21
568.66	2683.23
569.02	2678.50
569.37	2673.85
569.72	2670.19
570.08	2664.42
570.43	2658.91
570.78	2652.82
571.14	2646.30
571.49	2639.22
571.84	2633.34
572.20	2626.10
572.55	2619.56
572.90	2612.48
573.26	2605.72
573.61	2598.92
573.96	2592.63
574.31	2584.46
574.67	2576.11
575.02	2567.01
575.37	2558.50
575.72	2549.37
576.08	2541.91
576.43	2533.31
576.78	2525.30
577.13	2517.11
577.49	2509.28
577.84	2501.61
578.19	2494.12
578.54	2486.88
578.90	2480.00
579.25	2471.10
579.60	2462.06
579.95	2452.50
580.30	2444.58
580.66	2436.20
581.01	2427.05
581.36	2417.41
581.71	2408.96
582.06	2400.24
582.42	2392.16
582.77	2383.05
583.12	2374.14
583.47	2365.15
583.82	2356.52
584.17	2346.95
584.53	2337.43
584.88	2328.55
585.23	2319.10
585.58	2309.50
585.93	2299.15
586.28	2289.99
586.63	2281.19
586.98	2272.83
587.34	2264.54
587.69	2254.95
588.04	2245.66
588.39	2236.95
588.74	2228.29
589.09	2219.58
589.44	2210.17
589.79	2201.60
590.14	2193.68
590.49	2185.30
590.84	2175.94
591.19	2167.80
591.54	2159.36
591.89	2149.48
592.25	2139.98
592.60	2130.45
592.95	2120.89
593.30	2111.79
593.65	2101.52
594.00	2091.92
594.35	2083.36
594.70	2074.03
595.05	2065.42
595.40	2056.58
595.75	2046.92
596.10	2038.24
596.45	2029.53
596.80	2021.78
597.15	2013.32
597.50	2003.83
597.85	1995.18
598.19	1986.39
598.54	1977.78
598.89	1969.48
599.24	1962.44
599.59	1954.80
599.94	1947.57
600.29	1939.51
600.64	1931.30
600.99	1922.93
601.34	1915.34
601.69	1906.43
602.04	1897.89
602.39	1889.63
602.74	1881.76
603.08	1874.95
603.43	1867.56
603.78	1859.38
604.13	1850.81
604.48	1842.68
604.83	1835.86
605.18	1828.73
605.53	1821.42
605.87	1813.50
606.22	1806.45
606.57	1798.66
606.92	1790.74
607.27	1782.46
607.62	1775.30
607.96	1768.43
608.31	1762.24
608.66	1754.25
609.01	1746.76
609.36	1739.10
609.70	1731.09
610.05	1723.12
610.40	1714.85
610.75	1706.27
611.10	1698.49
611.44	1689.56
611.79	1680.41
612.14	1670.95
612.49	1661.09
612.83	1652.33
613.18	1642.48
613.53	1632.74
613.88	1622.83
614.22	1613.79
614.57	1604.31
614.92	1594.83
615.27	1585.35
615.61	1575.32
615.96	1566.25
616.31	1557.71
616.65	1549.60
617.00	1541.20
617.35	1532.49
617.70	1523.45
618.04	1514.63
618.39	1505.28
618.74	1496.72
619.08	1487.87
619.43	1479.35
619.78	1471.66
620.12	1463.17
620.47	1455.76
620.82	1447.09
621.16	1438.79
621.51	1430.25
621.85	1422.09
622.20	1413.36
622.55	1404.72
622.89	1396.63
623.24	1388.57
623.59	1379.65
623.93	1371.08
624.28	1362.72
624.62	1354.39
624.97	1346.31
625.32	1338.34
625.66	1330.75
626.01	1323.55
626.35	1316.29
626.70	1308.59
627.04	1300.80
627.39	1292.99
627.73	1285.21
628.08	1278.48
628.43	1271.05
628.77	1263.46
629.12	1255.95
629.46	1249.53
629.81	1242.08
630.15	1234.50
630.50	1226.92
630.84	1219.72
631.19	1212.28
631.53	1205.26
631.88	1197.76
632.22	1190.16
632.57	1183.05
632.91	1175.34
633.26	1167.50
633.60	1160.19
633.95	1153.39
634.29	1145.95
634.64	1139.21
634.98	1131.94
635.32	1124.57
635.67	1118.03
636.01	1111.30
636.36	1104.64
636.70	1097.80
637.05	1091.35
637.39	1085.10
637.73	1078.91
638.08	1073.03
638.42	1067.35
638.77	1060.74
639.11	1054.32
639.45	1048.25
639.80	1041.65
640.14	1035.46
640.49	1029.15
640.83	1022.81
641.17	1016.18
641.52	1010.03
641.86	1003.38
642.20	997.13
642.55	990.40
642.89	983.85
643.23	977.35
643.58	971.16
643.92	964.28
644.26	958.05
644.61	951.73
644.95	945.40
645.29	938.83
645.64	932.01
645.98	925.93
646.32	920.11
646.66	913.96
647.01	907.91
647.35	901.86
647.69	895.69
648.04	889.76
648.38	883.84
648.72	877.88
649.06	871.83
649.41	865.53
649.75	859.63
650.09	853.70
650.43	847.98
650.78	841.70
651.12	835.62
651.46	829.59
651.80	823.70
652.14	817.76
652.49	811.82
652.83	805.82
653.17	799.58
653.51	793.52
653.85	787.63
654.20	781.60
654.54	775.98
654.88	770.50
655.22	764.63
655.56	758.75
655.90	752.82
656.25	747.05
656.59	741.82
656.93	736.70
657.27	731.29
657.61	725.59
657.95	720.43
658.29	715.42
658.64	710.30
658.98	705.03
659.32	699.57
659.66	694.20
660.00	688.78
660.34	683.44
660.68	678.26
661.02	673.16
661.36	668.42
661.70	663.46
662.05	658.69
662.39	654.23
662.73	649.70
663.07	645.38
663.41	641.00
663.75	636.30
664.09	631.54
664.43	626.95
664.77	622.70
665.11	618.19
665.45	613.72
665.79	609.44
666.13	604.97
666.47	600.77
666.81	596.78
667.15	592.86
667.49	589.26
667.83	585.31
668.17	581.31
668.51	577.59
668.85	573.65
669.19	569.76
669.53	565.70
669.87	561.67
670.21	557.69
670.55	553.82
670.89	550.40
671.23	547.03
671.57	543.42
671.91	539.61
672.25	536.16
672.58	532.67
672.92	529.06
673.26	525.81
673.60	522.39
673.94	518.93
674.28	515.61
674.62	512.24
674.96	509.05
675.30	506.03
675.64	502.79
675.97	499.64
676.31	496.69
676.65	493.80
676.99	491.17
677.33	488.22
677.67	485.27
678.01	481.95
678.34	478.86
678.68	476.00
679.02	473.12
679.36	470.31
679.70	467.45
680.04	464.58
680.37	461.63
680.71	458.90
681.05	456.24
681.39	453.37
681.73	450.72
682.06	448.10
682.40	445.44
682.74	442.76
683.08	440.15
683.42	437.38
683.75	434.69
684.09	431.93
684.43	429.46
684.77	426.88
685.10	424.48
685.44	421.87
685.78	419.28
686.12	417.03
686.45	414.49
686.79	412.29
687.13	410.03
687.46	407.88
687.80	405.80
688.14	403.37
688.48	401.31
688.81	399.04
689.15	396.82
689.49	394.49
689.82	392.22
690.16	389.95
690.50	387.69
690.83	385.45
691.17	383.19
691.51	380.97
691.84	378.88
692.18	376.85
692.52	374.94
692.85	373.07
693.19	371.14
693.52	369.09
693.86	366.97
694.20	365.15
694.53	363.19
694.87	361.08
695.21	359.16
695.54	357.12
695.88	355.23
696.21	353.25
696.55	351.54
696.88	349.76
697.22	348.01
697.56	346.41
697.89	344.74
698.23	343.15
698.56	341.45
698.90	339.94
699.23	338.27
699.57	336.57
699.90	334.90
700.24	333.20
700.58	331.72
700.91	330.16
701.25	328.74
701.58	327.24
701.92	325.83
702.25	324.45
702.59	323.16
702.92	321.81
703.26	320.53
703.59	319.15
703.93	318.00
704.26	316.72
704.60	315.48
704.93	314.21
705.26	312.82
705.60	311.67
705.93	310.29
706.27	309.04
706.60	308.00
706.94	306.97
707.27	305.79
707.61	304.59
707.94	303.46
708.27	302.07
708.61	300.90
708.94	299.82
709.28	298.70
709.61	297.63
709.94	296.54
710.28	295.45
710.61	294.39
710.95	293.14
711.28	292.20
711.61	291.19
711.95	290.22
712.28	289.30
712.61	288.29
712.95	287.44
713.28	286.50
713.61	285.48
713.95	284.42
714.28	283.55
714.61	282.62
714.95	281.70
715.28	280.74
715.61	279.82
715.95	278.89
716.28	278.00
716.61	277.11
716.95	276.23
717.28	275.38
717.61	274.55
717.94	273.81
718.28	272.91
718.61	272.06
718.94	271.34
719.27	270.54
719.61	269.82
719.94	269.06
720.27	268.37
720.60	267.61
720.94	266.97
721.27	266.21
721.60	265.60
721.93	265.01
722.27	264.50
722.60	263.90
722.93	263.32
723.26	262.76
723.59	262.15
723.93	261.56
724.26	260.97
724.59	260.41
724.92	259.87
725.25	259.37
725.59	258.86
725.92	258.29
726.25	257.73
726.58	257.18
726.91	256.67
727.24	256.09
727.57	255.66
727.91	255.08
728.24	254.65
728.57	254.10
728.90	253.58
729.23	253.01
729.56	252.63
729.89	252.10
730.22	251.64
730.55	251.05
730.89	250.60
731.22	250.08
731.55	249.58
731.88	249.10
732.21	248.62
732.54	248.14
732.87	247.73
733.20	247.44
733.53	246.97
733.86	246.56
734.19	246.14
734.52	245.69
734.85	245.37
735.18	244.97
735.51	244.64
735.84	244.26
736.17	243.98
736.50	243.46
736.83	243.26
737.16	242.90
737.49	242.70
737.82	242.24
738.15	241.90
738.48	241.54
738.81	241.23
739.14	240.83
739.47	240.48
739.80	240.02
740.13	239.61
740.46	239.24
740.79	238.85
741.12	238.47
741.45	238.15
741.78	237.82
742.11	237.51
742.44	237.15
742.77	236.88
743.10	236.54
743.43	236.26
743.75	235.75
744.08	235.64
744.41	235.24
744.74	234.97
745.07	234.73
745.40	234.50
745.73	234.28
746.06	234.03
746.39	233.67
746.71	233.52
747.04	233.24
747.37	233.00
747.70	232.81
748.03	232.60
748.36	232.32
748.68	232.05
749.01	231.72
749.34	231.45
749.67	231.17
750.00	230.89
750.33	230.74
750.65	230.52
750.98	230.01
751.31	229.81
751.64	229.65
751.97	229.53
752.29	229.27
752.62	228.92
752.95	228.66
753.28	228.45
753.60	228.21
753.93	228.04
754.26	227.84
754.59	227.54
754.91	227.32
755.24	227.03
755.57	226.81
755.90	226.61
756.22	226.47
756.55	226.31
756.88	226.14
757.20	225.84
757.53	225.59
757.86	225.46
758.19	225.25
758.51	224.97
758.84	224.72
759.17	224.54
759.49	224.39
759.82	224.25
760.15	224.10
760.47	223.88
760.80	223.68
761.13	223.56
761.45	223.45
761.78	223.28
762.11	223.19
762.43	222.97
762.76	222.89
763.08	222.74
763.41	222.57
763.74	222.38
764.06	222.30
764.39	222.20
764.71	222.05
765.04	221.89
765.37	221.80
765.69	221.62
766.02	221.41
766.34	221.24
766.67	221.07
767.00	221.03
767.32	221.01
767.65	220.95
767.97	220.85
768.30	220.69
768.62	220.57
768.95	220.42
769.27	220.33
769.60	220.22
769.92	220.09
770.25	219.95
770.57	219.80
770.90	219.68
771.22	219.56
771.55	219.39
771.87	219.36
772.20	219.26
772.52	219.29
772.85	219.49
773.17	219.45
773.50	219.35
773.82	219.15
774.15	218.96
774.47	218.74
774.80	218.55
775.12	218.49
775.45	218.34
775.77	218.30
776.09	218.23
776.42	218.13
776.74	218.07
777.07	217.99
777.39	217.98
777.72	217.86
778.04	217.85
778.36	217.82
778.69	217.72
779.01	217.71
779.33	217.52
779.66	217.33
779.98	217.28
780.31	217.25
780.63	217.28
780.95	217.21
781.28	217.20
781.60	217.22
781.92	217.18
782.25	217.21
782.57	217.17
782.89	217.15
783.22	217.05
783.54	216.99
783.86	216.95
784.19	216.88
784.51	216.81
784.83	216.75
785.16	216.68
785.48	216.60
785.80	216.47
786.12	216.42
786.45	216.31
786.77	216.29
787.09	216.22
787.42	216.11
787.74	216.10
788.06	216.07
788.38	215.99
788.71	215.86
789.03	215.81
789.35	215.82
789.67	215.68
789.99	215.64
790.32	215.58
790.64	215.63
790.96	215.73
791.28	215.72
791.61	215.65
791.93	215.63
792.25	215.55
792.57	215.67
792.89	215.63
793.21	215.57
793.54	215.45
793.86	215.43
794.18	215.43
794.50	215.38
794.82	215.28
795.14	215.24
795.47	215.33
795.79	215.31
796.11	215.23
796.43	215.21
796.75	215.24
797.07	215.29
797.39	215.17
797.71	215.07
798.04	214.98
798.36	214.95
798.68	215.01
799.00	215.05
799.32	214.90
799.64	214.83
799.96	214.82
800.28	214.81
800.60	214.81
800.92	214.81
801.24	214.72
801.56	214.73
801.89	214.66
802.21	214.57
802.53	214.50
802.85	214.49
803.17	214.62
803.49	214.61
803.81	214.49
804.13	214.45
804.45	214.41
804.77	214.47
805.09	214.41
805.41	214.29
805.73	214.22
806.05	214.17
806.37	214.13
806.69	214.07
807.01	214.05
807.33	213.92
807.65	213.77
807.97	213.89
808.28	213.89
808.60	213.88
808.92	213.82
809.24	213.85
809.56	213.78
809.88	213.65
810.20	213.56
810.52	213.52
810.84	213.46
811.16	213.36
811.48	213.27
811.80	213.33
812.12	213.26
812.43	213.31
812.75	213.31
813.07	213.29
813.39	213.28
813.71	213.23
814.03	213.22
814.35	213.23
814.67	213.14
814.98	213.03
815.30	212.96
815.62	212.90
815.94	212.84
816.26	212.84
816.58	212.78
816.89	212.71
817.21	212.69
817.53	212.70
817.85	212.69
818.17	212.67
818.48	212.59
818.80	212.64
819.12	212.57
819.44	212.50
819.76	212.53
820.07	212.46
820.39	212.46
820.71	212.44
821.03	212.46
821.34	212.39
821.66	212.36
821.98	212.49
822.30	212.48
822.61	212.61
822.93	212.55
823.25	212.56
823.57	212.59
823.88	212.67
824.20	212.66
824.52	212.72
824.83	212.72
825.15	212.66
825.47	212.63
825.79	212.64
826.10	212.64
826.42	212.66
826.74	212.81
827.05	212.75
827.37	212.80
827.69	212.81
828.00	212.87
828.32	212.89
828.64	212.84
828.95	212.91
829.27	212.86
829.58	212.86
829.90	212.86
830.22	212.93
830.53	212.84
830.85	212.79
831.17	212.72
831.48	212.72
831.80	212.75
832.11	212.72
832.43	212.67
832.75	212.68
833.06	212.73
833.38	212.63
833.69	212.68
834.01	212.68
834.32	212.63
834.64	212.56
834.96	212.55
835.27	212.55
835.59	212.53
835.90	212.42
836.22	212.46
836.53	212.49
836.85	212.39
837.16	212.56
837.48	212.64
837.79	212.67
838.11	212.70
838.42	212.67
838.74	212.75
839.05	212.73
839.37	212.70
839.68	212.55
840.00	212.48
840.31	212.52
840.63	212.51
840.94	212.54
841.26	212.50
841.57	212.50
841.88	212.47
842.20	212.44
842.51	212.50
842.83	212.46
843.14	212.56
843.46	212.53
843.77	212.46
844.08	212.43
844.40	212.36
844.71	212.31
845.03	212.31
845.34	212.21
845.65	212.22
845.97	212.23
846.28	212.31
846.60	212.32
846.91	212.25
847.22	212.20
847.54	212.23
847.85	212.23
848.16	212.26
848.48	212.24
848.79	212.24
849.10	212.18
849.42	212.16
849.73	211.97
850.04	212.01
850.36	211.92
850.67	211.87
850.98	211.84
851.30	211.82
851.61	211.78
851.92	211.81
852.23	211.84
852.55	211.86
852.86	211.78
853.17	211.79
853.49	211.79
853.80	211.78
854.11	211.72
854.42	211.74
854.74	211.59
855.05	211.54
855.36	211.45
855.67	211.42
855.99	211.36
856.30	211.54
856.61	211.52
856.92	211.47
857.23	211.45
857.55	211.45
857.86	211.47
858.17	211.47
858.48	211.41
858.79	211.30
859.11	211.26
859.42	211.20
859.73	211.12
860.04	211.17
860.35	211.17
860.66	211.11
860.98	211.07
861.29	211.20
861.60	211.21
861.91	211.27
862.22	211.31
862.53	211.31
862.84	211.07
863.16	211.17
863.47	211.17
863.78	211.19
864.09	211.22
864.40	211.18
864.71	211.18
865.02	211.26
865.33	211.26
865.64	211.24
865.95	211.27
866.27	211.44
866.58	211.37
866.89	211.38
867.20	211.41
867.51	211.39
867.82	211.33
868.13	211.32
868.44	211.29
868.75	211.28
869.06	211.29
869.37	211.40
869.68	211.23
869.99	211.19
870.30	211.23
870.61	211.25
870.92	211.27
871.23	211.32
871.54	211.34
871.85	211.38
872.16	211.44
872.47	211.42
872.78	211.31
873.09	211.32
873.40	211.32
873.71	211.33
874.02	211.39
874.33	211.38
874.64	211.41
874.95	211.47
875.26	211.47
875.56	211.48
875.87	211.48
876.18	211.50
876.49	211.75
876.80	211.69
877.11	211.65
877.42	211.66
877.73	211.63
878.04	211.58
878.35	211.60
878.66	211.59
878.96	211.66
879.27	211.63
879.58	211.60
879.89	211.57
880.20	211.61
880.51	211.60
880.82	211.61
881.12	211.61
881.43	211.55
881.74	211.55
882.05	211.53
882.36	211.51
882.67	211.57
882.97	211.37
883.28	211.36
883.59	211.34
883.90	211.29
884.21	211.35
884.51	211.33
884.82	211.26
885.13	211.24
885.44	211.23
885.74	211.23
886.05	211.16
886.36	211.28
886.67	211.20
886.98	211.25
887.28	211.30
887.59	211.30
887.90	211.32
888.20	211.28
888.51	211.34
888.82	211.32
889.13	211.30
889.43	211.42
889.74	211.38
890.05	211.40
890.35	211.46
890.66	211.47
890.97	211.49
891.28	211.56
891.58	211.58
891.89	211.52
892.20	211.50
892.50	211.58
892.81	211.44
893.12	211.45
893.42	211.39
893.73	211.38
894.04	211.35
894.34	211.28
894.65	211.29
894.95	211.24
895.26	211.25
895.57	211.29
895.87	211.06
896.18	211.15
896.48	211.18
896.79	211.09
897.10	211.05
897.40	211.06
897.71	211.05
898.01	210.95
898.32	210.96
898.63	210.94
898.93	210.88
899.24	210.97
899.54	210.96
899.85	210.98
900.15	211.02
900.46	211.07
900.76	211.13
901.07	211.11
901.38	211.17
901.68	211.10
901.99	211.01
902.29	211.10
902.60	211.02
902.90	210.99
903.21	211.03
903.51	210.95
903.82	210.97
904.12	210.94
904.43	211.02
904.73	211.06
905.03	211.07
905.34	211.22
905.64	211.15
905.95	211.03
906.25	210.98
906.56	210.93
906.86	210.97
907.17	210.92
907.47	210.87
907.77	210.76
908.08	210.74
908.38	210.83
908.69	210.92
908.99	210.93
909.30	210.95
909.60	210.89
909.90	210.93
910.21	210.89
910.51	210.81
910.81	210.79
911.12	210.76
911.42	210.76
911.73	210.66
912.03	210.69
912.33	210.78
912.64	210.75
912.94	210.74
913.24	210.54
913.55	210.55
913.85	210.62
914.15	210.70
914.46	210.75
914.76	210.70
915.06	210.60
915.37	210.65
915.67	210.59
915.97	210.65
916.27	210.65
916.58	210.68
916.88	210.71
917.18	210.68
917.49	210.86
917.79	210.83
918.09	210.84
918.39	210.86
918.70	210.89
919.00	210.98
919.30	211.04
919.60	211.18
919.91	211.18
920.21	211.15
920.51	211.09
920.81	211.08
921.12	211.07
921.42	211.13
921.72	211.07
922.02	211.11
922.32	211.07
922.63	211.10
922.93	211.12
923.23	211.16
923.53	211.19
923.83	210.99
924.13	211.08
924.44	211.08
924.74	211.10
925.04	211.07
925.34	210.99
925.64	210.97
925.94	210.93
926.24	211.09
926.55	211.10
926.85	211.18
927.15	211.19
927.45	211.23
927.75	211.16
928.05	211.18
928.35	211.20
928.65	211.28
928.95	211.25
929.26	211.23
929.56	211.24
929.86	211.24
930.16	211.25
930.46	211.20
930.76	211.20
931.06	211.11
931.36	211.17
931.66	211.18
931.96	211.20
932.26	211.20
932.56	211.09
932.86	211.10
933.16	211.08
933.46	211.07
933.76	211.01
934.06	211.13
934.36	211.19
934.66	211.21
934.96	211.14
935.26	211.17
935.56	211.11
935.86	211.07
936.16	211.11
936.46	211.10
936.76	211.14
937.06	211.13
937.36	211.15
937.66	211.07
937.96	211.11
938.26	211.07
938.56	211.05
938.86	211.12
939.16	211.11
939.46	211.16
939.76	211.19
940.06	211.24
940.35	211.16
940.65	211.08
940.95	211.08
941.25	211.00
941.55	211.04
941.85	211.11
942.15	211.19
942.45	211.19
942.75	211.19
943.04	211.15
943.34	211.26
943.64	211.27
943.94	211.31
944.24	211.29
944.54	211.31
944.84	211.31
945.13	211.25
945.43	211.28
945.73	211.24
946.03	211.21
946.33	211.16
946.62	211.18
946.92	211.21
947.22	211.24
947.52	211.32
947.82	211.29
948.11	211.16
948.41	211.08
948.71	211.06
949.01	211.09
949.31	211.06
949.60	210.97
949.90	210.96
950.20	210.99
950.50	211.01
950.79	210.95
951.09	210.98
951.39	210.96
951.69	210.90
951.98	210.90
952.28	210.92
952.58	210.98
952.87	210.95
953.17	210.95
953.47	210.89
953.76	210.88
954.06	210.81
954.36	210.85
954.66	210.79
954.95	210.85
955.25	210.83
955.55	210.91
955.84	210.84
956.14	210.79
956.44	210.71
956.73	210.64
957.03	210.64
957.32	210.65
957.62	210.65
957.92	210.72
958.21	210.67
958.51	210.83
958.81	210.77
959.10	210.72
959.40	210.75
959.69	210.73
959.99	210.77
960.29	210.83
960.58	210.80
960.88	210.87
961.17	210.78
961.47	210.79
961.76	210.69
962.06	210.78
962.36	210.82
962.65	210.85
962.95	210.85
963.24	210.88
963.54	210.90
963.83	210.87
964.13	210.82
964.42	210.77
964.72	210.63
965.01	210.65
965.31	210.73
965.60	210.67
965.90	210.84
966.19	210.80
966.49	210.84
966.78	210.85
967.08	210.87
967.37	210.88
967.67	210.87
967.96	210.94
968.26	210.85
968.55	210.91
968.85	210.90
969.14	210.94
969.43	210.90
969.73	210.83
970.02	210.79
970.32	210.78
970.61	210.80
970.91	210.78
971.20	210.74
971.49	210.67
971.79	210.66
972.08	210.55
972.38	210.59
972.67	210.52
972.96	210.60
973.26	210.52
973.55	210.63
973.85	210.64
974.14	210.64
974.43	210.60
974.73	210.56
975.02	210.60
975.31	210.65
975.61	210.67
975.90	210.63
976.19	210.65
976.49	210.70
976.78	210.67
977.07	210.62
977.37	210.66
977.66	210.66
977.95	210.64
978.24	210.59
978.54	210.57
978.83	210.50
979.12	210.47
979.42	210.56
979.71	210.47
980.00	210.45
980.29	210.40
980.59	210.46
980.88	210.50
981.17	210.44
981.46	210.39
981.76	210.40
982.05	210.52
982.34	210.51
982.63	210.50
982.93	210.61
983.22	210.67
983.51	210.70
983.80	210.78
984.09	210.86
984.39	210.82
984.68	210.75
984.97	210.86
985.26	210.78
985.55	210.81
985.85	210.76
986.14	210.81
986.43	210.86
986.72	210.82
987.01	210.73
987.30	210.73
987.59	210.75
987.89	210.72
988.18	210.66
988.47	210.71
988.76	210.72
989.05	210.72
989.34	210.72
989.63	210.69
989.92	210.66
990.22	210.56
990.51	210.60
990.80	210.59
991.09	210.56
991.38	210.67
991.67	210.60
991.96	210.63
992.25	210.57
992.54	210.54
992.83	210.55
993.12	210.63
993.41	210.67
993.70	210.68
993.99	210.61
994.28	210.68
994.58	210.62
994.87	210.59
995.16	210.55
995.45	210.51
995.74	210.52
996.03	210.52
996.32	210.57
996.61	210.62
996.90	210.68
997.19	210.70
997.48	210.73
997.77	210.65
998.06	210.63
998.34	210.73
998.63	210.66
998.92	210.66
999.21	210.58
999.50	210.56
999.79	210.57
1000.08	210.65
1000.37	210.64
1000.66	210.63
1000.95	210.69
1001.24	210.62
1001.53	210.65
1001.82	210.63
1002.11	210.51
1002.40	210.57
1002.68	210.59
1002.97	210.75
1003.26	210.74
1003.55	210.63
1003.84	210.73
1004.13	210.79
1004.42	210.70
1004.71	210.77
1004.99	210.79
1005.28	210.91
1005.57	210.99
1005.86	210.99
1006.15	211.01
1006.44	211.00
1006.72	211.15
1007.01	211.08
1007.30	211.10
1007.59	211.10
1007.88	211.06
1008.17	211.23
1008.45	211.19
1008.74	211.14
1009.03	211.08
1009.32	211.05
1009.60	211.12
1009.89	211.07
1010.18	211.03
1010.47	211.05
1010.76	211.05
1011.04	211.10
1011.33	211.06
1011.62	210.99
1011.91	211.02
1012.19	211.00
1012.48	211.01
1012.77	210.88
1013.05	211.02
1013.34	211.02
1013.63	211.00
1013.92	211.05
1014.20	210.95
1014.49	210.95
1014.78	211.00
1015.06	210.91
1015.35	210.97
1015.64	210.98
1015.92	210.99
1016.21	211.02
1016.50	211.00
1016.78	211.08
1017.07	211.04
1017.36	211.02
1017.64	210.99
1017.93	210.96
1018.22	210.95
1018.50	210.90
1018.79	210.94
1019.08	210.82
1019.36	210.88
1019.65	210.85
1019.93	210.87
1020.22	210.93
1020.51	210.93
1020.79	210.81
1021.08	210.60
1021.36	210.25
1021.65	211.05
1021.94	210.70
1022.22	211.20
1022.51	210.20
1022.79	211.25
1023.08	211.15
1023.36	211.00
1023.65	209.60
>>>>>End Processed Spectral Data<<<<<
