SpectraSuite Data File
++++++++++++++++++++++++++++++++++++
Date: Mon Feb 25 17:29:46 EST 2013
User: group
Dark Spectrum Present: No
Reference Spectrum Present: No
Number of Sampled Component Spectra: 1
Spectrometers: USB2E7196
Integration Time (usec): 52000 (USB2E7196)
Spectra Averaged: 20 (USB2E7196)
Boxcar Smoothing: 10 (USB2E7196)
Correct for Electrical Dark: No (USB2E7196)
Strobe/Lamp Enabled: No (USB2E7196)
Correct for Detector Non-linearity: No (USB2E7196)
Correct for Stray Light: No (USB2E7196)
Number of Pixels in Processed Spectrum: 2048
>>>>>Begin Processed Spectral Data<<<<<
339.09	0.00
339.48	199.05
339.86	199.75
340.24	201.85
340.63	202.75
341.01	208.25
341.39	205.65
341.78	207.00
342.16	209.75
342.54	208.80
342.93	198.29
343.31	208.29
343.69	208.83
344.07	209.36
344.46	209.80
344.84	210.22
345.22	210.31
345.60	210.62
345.99	210.77
346.37	210.83
346.75	210.96
347.13	211.03
347.52	211.04
347.90	211.03
348.28	211.05
348.66	211.04
349.05	211.02
349.43	211.00
349.81	210.95
350.19	210.97
350.57	211.05
350.96	211.06
351.34	211.10
351.72	211.16
352.10	211.12
352.48	211.14
352.87	211.19
353.25	211.26
353.63	211.22
354.01	211.29
354.39	211.32
354.77	211.34
355.15	211.45
355.54	211.50
355.92	211.57
356.30	211.57
356.68	211.71
357.06	211.71
357.44	211.71
357.82	211.74
358.20	211.87
358.58	211.96
358.97	212.08
359.35	212.21
359.73	212.31
360.11	212.41
360.49	212.49
360.87	212.50
361.25	212.59
361.63	212.70
362.01	212.75
362.39	212.76
362.77	212.78
363.15	212.80
363.53	212.82
363.91	212.90
364.29	212.97
364.67	212.84
365.05	212.94
365.43	213.03
365.81	213.08
366.19	213.09
366.57	213.10
366.95	213.15
367.33	213.10
367.71	213.10
368.09	213.15
368.47	213.09
368.85	213.08
369.23	213.15
369.61	213.08
369.99	213.17
370.37	213.24
370.75	213.31
371.13	213.28
371.51	213.32
371.89	213.33
372.27	213.39
372.65	213.45
373.03	213.40
373.41	213.48
373.78	213.40
374.16	213.36
374.54	213.31
374.92	213.21
375.30	213.26
375.68	213.21
376.06	213.16
376.44	213.15
376.82	213.18
377.19	213.05
377.57	213.02
377.95	212.95
378.33	212.85
378.71	212.78
379.09	212.79
379.47	212.70
379.84	212.63
380.22	212.62
380.60	212.57
380.98	212.57
381.36	212.43
381.73	212.45
382.11	212.38
382.49	212.41
382.87	212.27
383.25	212.16
383.62	212.27
384.00	212.20
384.38	212.15
384.76	212.18
385.13	212.25
385.51	212.23
385.89	212.16
386.27	212.18
386.64	212.17
387.02	212.04
387.40	211.96
387.78	211.91
388.15	211.86
388.53	211.75
388.91	211.71
389.29	211.69
389.66	211.71
390.04	211.70
390.42	211.70
390.79	211.69
391.17	211.68
391.55	211.51
391.92	211.47
392.30	211.50
392.68	211.32
393.05	211.26
393.43	211.19
393.81	211.18
394.18	211.14
394.56	211.08
394.94	211.20
395.31	211.23
395.69	211.35
396.06	211.26
396.44	211.34
396.82	211.28
397.19	211.37
397.57	211.38
397.95	211.43
398.32	211.38
398.70	211.48
399.07	211.52
399.45	211.55
399.82	211.61
400.20	211.65
400.58	211.80
400.95	211.77
401.33	211.98
401.70	212.17
402.08	212.28
402.45	212.37
402.83	212.46
403.20	212.55
403.58	212.52
403.95	212.67
404.33	212.71
404.71	212.80
405.08	212.92
405.46	212.98
405.83	213.03
406.21	213.14
406.58	213.30
406.96	213.43
407.33	213.52
407.70	213.71
408.08	214.01
408.45	214.20
408.83	214.42
409.20	214.51
409.58	214.61
409.95	214.77
410.33	215.07
410.70	215.28
411.08	215.56
411.45	215.89
411.82	216.15
412.20	216.51
412.57	217.01
412.95	217.25
413.32	217.76
413.69	218.26
414.07	218.73
414.44	219.24
414.82	219.80
415.19	220.55
415.56	221.19
415.94	221.79
416.31	222.43
416.68	223.18
417.06	224.11
417.43	224.98
417.81	225.91
418.18	226.90
418.55	227.83
418.93	228.96
419.30	230.08
419.67	231.32
420.04	232.57
420.42	233.92
420.79	235.56
421.16	236.97
421.54	238.61
421.91	240.30
422.28	241.93
422.66	243.73
423.03	245.52
423.40	247.40
423.77	249.35
424.15	251.29
424.52	253.41
424.89	255.55
425.26	257.71
425.64	259.87
426.01	262.01
426.38	264.42
426.75	266.69
427.13	269.13
427.50	271.66
427.87	274.31
428.24	277.01
428.61	279.55
428.99	282.46
429.36	285.43
429.73	288.36
430.10	291.35
430.47	294.38
430.85	297.49
431.22	300.79
431.59	304.38
431.96	307.91
432.33	311.67
432.70	315.36
433.08	319.63
433.45	323.54
433.82	327.66
434.19	332.05
434.56	336.47
434.93	340.60
435.30	344.75
435.68	349.38
436.05	353.80
436.42	358.19
436.79	362.11
437.16	366.56
437.53	371.17
437.90	375.82
438.27	380.30
438.64	384.83
439.01	389.10
439.38	392.92
439.75	396.73
440.13	400.92
440.50	404.91
440.87	408.19
441.24	411.60
441.61	415.26
441.98	418.07
442.35	421.34
442.72	424.54
443.09	427.73
443.46	429.53
443.83	430.84
444.20	431.89
444.57	433.47
444.94	434.14
445.31	435.00
445.68	435.70
446.05	435.95
446.42	435.55
446.79	435.04
447.16	434.30
447.53	433.72
447.90	431.93
448.27	430.13
448.64	427.68
449.01	425.98
449.37	422.81
449.74	419.92
450.11	416.32
450.48	412.42
450.85	408.35
451.22	405.02
451.59	401.72
451.96	398.78
452.33	394.80
452.70	391.09
453.07	386.70
453.43	382.20
453.80	377.96
454.17	373.85
454.54	369.96
454.91	365.82
455.28	361.64
455.65	357.88
456.02	354.07
456.38	350.78
456.75	346.68
457.12	343.45
457.49	340.02
457.86	336.67
458.23	334.02
458.59	331.12
458.96	328.09
459.33	325.43
459.70	322.67
460.07	320.41
460.43	317.88
460.80	315.45
461.17	313.47
461.54	311.33
461.91	309.27
462.27	307.16
462.64	305.46
463.01	303.57
463.38	301.73
463.74	299.83
464.11	298.20
464.48	296.83
464.85	295.16
465.21	294.05
465.58	292.96
465.95	291.38
466.32	290.13
466.68	288.81
467.05	287.61
467.42	286.41
467.78	285.20
468.15	284.09
468.52	283.32
468.88	282.07
469.25	281.05
469.62	280.35
469.98	279.55
470.35	278.84
470.72	278.15
471.08	277.35
471.45	276.78
471.82	276.14
472.18	275.44
472.55	275.06
472.92	274.48
473.28	273.99
473.65	273.61
474.02	273.15
474.38	272.91
474.75	272.67
475.11	272.41
475.48	272.30
475.85	272.06
476.21	271.90
476.58	271.96
476.94	271.95
477.31	271.93
477.67	271.97
478.04	272.05
478.41	272.25
478.77	272.72
479.14	272.93
479.50	273.27
479.87	273.75
480.23	274.12
480.60	274.57
480.96	275.08
481.33	275.84
481.69	276.55
482.06	277.24
482.42	277.89
482.79	278.69
483.15	279.63
483.52	280.78
483.88	281.80
484.25	282.84
484.61	284.04
484.98	285.23
485.34	286.57
485.71	287.97
486.07	289.33
486.44	290.56
486.80	292.08
487.17	293.73
487.53	295.43
487.90	297.34
488.26	299.31
488.62	301.35
488.99	303.32
489.35	305.41
489.72	307.67
490.08	310.14
490.44	312.64
490.81	315.26
491.17	317.88
491.54	320.68
491.90	323.62
492.26	326.83
492.63	330.15
492.99	333.51
493.36	337.12
493.72	341.11
494.08	345.21
494.45	349.47
494.81	353.95
495.17	358.49
495.54	363.22
495.90	368.17
496.26	373.30
496.63	378.81
496.99	384.52
497.35	390.38
497.72	396.52
498.08	402.81
498.44	409.35
498.80	416.31
499.17	423.53
499.53	431.13
499.89	438.93
500.26	446.75
500.62	454.95
500.98	463.39
501.34	472.14
501.71	481.27
502.07	490.69
502.43	500.29
502.79	510.15
503.16	520.49
503.52	530.91
503.88	541.61
504.24	552.73
504.60	564.19
504.97	575.95
505.33	587.97
505.69	600.72
506.05	613.64
506.41	626.51
506.78	639.56
507.14	652.83
507.50	666.67
507.86	680.89
508.22	695.39
508.59	710.11
508.95	724.95
509.31	740.21
509.67	755.92
510.03	771.74
510.39	788.06
510.75	804.62
511.12	821.67
511.48	839.03
511.84	856.09
512.20	873.35
512.56	891.24
512.92	909.30
513.28	927.43
513.64	945.71
514.00	964.34
514.37	983.30
514.73	1002.55
515.09	1021.67
515.45	1040.95
515.81	1060.26
516.17	1079.78
516.53	1099.55
516.89	1119.29
517.25	1138.83
517.61	1158.72
517.97	1178.41
518.33	1197.97
518.69	1217.29
519.05	1237.33
519.41	1257.30
519.77	1277.89
520.13	1297.87
520.49	1317.81
520.85	1337.84
521.21	1358.32
521.57	1378.68
521.93	1398.15
522.29	1418.47
522.65	1438.52
523.01	1458.44
523.37	1477.84
523.73	1497.92
524.09	1517.45
524.45	1537.08
524.81	1556.97
525.17	1576.70
525.53	1596.33
525.89	1616.36
526.25	1636.00
526.61	1654.30
526.97	1673.45
527.33	1691.65
527.68	1710.36
528.04	1728.87
528.40	1746.61
528.76	1764.12
529.12	1782.20
529.48	1801.05
529.84	1818.46
530.20	1835.83
530.56	1853.47
530.91	1871.57
531.27	1888.54
531.63	1905.57
531.99	1922.42
532.35	1938.61
532.71	1954.53
533.07	1971.14
533.42	1986.27
533.78	2002.12
534.14	2017.93
534.50	2032.36
534.86	2047.57
535.21	2061.36
535.57	2075.85
535.93	2090.36
536.29	2104.12
536.65	2117.83
537.00	2130.48
537.36	2143.09
537.72	2155.73
538.08	2167.93
538.44	2180.30
538.79	2192.80
539.15	2204.89
539.51	2216.53
539.87	2228.72
540.22	2240.28
540.58	2252.13
540.94	2263.54
541.29	2273.48
541.65	2283.05
542.01	2293.54
542.37	2302.81
542.72	2312.44
543.08	2320.57
543.44	2329.48
543.79	2337.29
544.15	2344.72
544.51	2353.05
544.87	2361.40
545.22	2367.98
545.58	2374.07
545.94	2379.01
546.29	2383.33
546.65	2387.64
547.01	2391.74
547.36	2395.25
547.72	2398.95
548.07	2400.76
548.43	2403.08
548.79	2405.20
549.14	2407.52
549.50	2409.55
549.86	2411.37
550.21	2413.57
550.57	2416.17
550.92	2417.13
551.28	2418.26
551.64	2419.05
551.99	2419.93
552.35	2419.95
552.70	2420.85
553.06	2421.71
553.41	2423.20
553.77	2424.45
554.13	2425.04
554.48	2425.31
554.84	2425.54
555.19	2424.33
555.55	2423.72
555.90	2422.78
556.26	2422.39
556.61	2421.31
556.97	2418.94
557.32	2417.58
557.68	2414.87
558.03	2412.50
558.39	2410.15
558.74	2408.58
559.10	2406.53
559.45	2403.79
559.81	2401.48
560.16	2398.32
560.52	2395.88
560.87	2391.93
561.23	2387.55
561.58	2384.47
561.94	2380.68
562.29	2376.42
562.64	2373.80
563.00	2370.73
563.35	2367.87
563.71	2365.18
564.06	2362.56
564.42	2360.34
564.77	2357.24
565.12	2355.10
565.48	2351.54
565.83	2348.12
566.19	2344.82
566.54	2340.24
566.89	2336.10
567.25	2332.24
567.60	2328.70
567.96	2324.23
568.31	2320.65
568.66	2316.73
569.02	2312.18
569.37	2307.39
569.72	2303.44
570.08	2298.24
570.43	2292.87
570.78	2287.37
571.14	2281.40
571.49	2275.17
571.84	2269.78
572.20	2263.64
572.55	2257.29
572.90	2250.88
573.26	2244.36
573.61	2237.40
573.96	2231.61
574.31	2224.47
574.67	2216.91
575.02	2209.11
575.37	2201.36
575.72	2193.41
576.08	2186.81
576.43	2179.27
576.78	2172.15
577.13	2165.11
577.49	2158.16
577.84	2151.42
578.19	2144.67
578.54	2137.88
578.90	2131.66
579.25	2123.91
579.60	2115.90
579.95	2107.86
580.30	2101.00
580.66	2094.27
581.01	2086.51
581.36	2078.18
581.71	2070.93
582.06	2063.59
582.42	2056.55
582.77	2048.85
583.12	2041.33
583.47	2033.86
583.82	2026.25
584.17	2018.54
584.53	2010.51
584.88	2002.55
585.23	1994.40
585.58	1986.23
585.93	1978.02
586.28	1970.02
586.63	1962.60
586.98	1955.55
587.34	1948.21
587.69	1940.08
588.04	1931.81
588.39	1924.71
588.74	1917.25
589.09	1909.82
589.44	1901.73
589.79	1894.31
590.14	1887.79
590.49	1880.65
590.84	1872.65
591.19	1865.99
591.54	1858.55
591.89	1849.75
592.25	1842.25
592.60	1834.22
592.95	1826.30
593.30	1818.32
593.65	1809.78
594.00	1801.28
594.35	1794.09
594.70	1786.57
595.05	1779.15
595.40	1771.75
595.75	1763.58
596.10	1756.52
596.45	1749.39
596.80	1742.80
597.15	1735.73
597.50	1727.66
597.85	1720.35
598.19	1713.26
598.54	1705.83
598.89	1699.16
599.24	1693.97
599.59	1687.40
599.94	1681.64
600.29	1675.11
600.64	1668.48
600.99	1661.82
601.34	1655.93
601.69	1648.44
602.04	1641.19
602.39	1634.43
602.74	1627.75
603.08	1622.28
603.43	1616.55
603.78	1609.70
604.13	1602.97
604.48	1596.40
604.83	1590.82
605.18	1584.80
605.53	1578.40
605.87	1571.80
606.22	1565.90
606.57	1559.02
606.92	1552.48
607.27	1545.60
607.62	1539.32
607.96	1533.37
608.31	1528.16
608.66	1521.42
609.01	1515.07
609.36	1509.11
609.70	1502.55
610.05	1496.08
610.40	1489.07
610.75	1481.27
611.10	1474.71
611.44	1466.96
611.79	1459.12
612.14	1451.08
612.49	1443.14
612.83	1435.58
613.18	1427.57
613.53	1419.36
613.88	1411.05
614.22	1403.48
614.57	1395.65
614.92	1387.68
615.27	1379.85
615.61	1371.18
615.96	1363.30
616.31	1356.16
616.65	1349.07
617.00	1341.83
617.35	1334.67
617.70	1327.06
618.04	1319.78
618.39	1311.90
618.74	1304.61
619.08	1297.34
619.43	1290.23
619.78	1283.46
620.12	1276.43
620.47	1269.77
620.82	1262.57
621.16	1255.55
621.51	1248.24
621.85	1241.10
622.20	1233.70
622.55	1226.61
622.89	1219.66
623.24	1213.16
623.59	1205.79
623.93	1198.32
624.28	1191.11
624.62	1183.97
624.97	1176.96
625.32	1170.30
625.66	1164.08
626.01	1158.16
626.35	1152.17
626.70	1145.65
627.04	1139.37
627.39	1132.84
627.73	1126.38
628.08	1120.45
628.43	1114.11
628.77	1107.63
629.12	1101.20
629.46	1095.68
629.81	1089.75
630.15	1083.49
630.50	1077.18
630.84	1070.91
631.19	1064.81
631.53	1058.92
631.88	1052.44
632.22	1045.87
632.57	1039.91
632.91	1033.46
633.26	1026.83
633.60	1020.53
633.95	1014.67
634.29	1008.05
634.64	1002.40
634.98	996.30
635.32	990.11
635.67	984.63
636.01	979.08
636.36	973.31
636.70	967.58
637.05	961.60
637.39	956.26
637.73	950.58
638.08	945.43
638.42	940.58
638.77	935.23
639.11	929.83
639.45	924.78
639.80	919.04
640.14	913.38
640.49	908.28
640.83	903.05
641.17	897.64
641.52	892.60
641.86	886.98
642.20	881.72
642.55	876.22
642.89	870.62
643.23	865.19
643.58	860.08
643.92	854.41
644.26	848.92
644.61	843.63
644.95	838.36
645.29	833.01
645.64	827.13
645.98	821.74
646.32	816.76
646.66	811.45
647.01	806.28
647.35	801.24
647.69	795.66
648.04	790.36
648.38	785.06
648.72	779.85
649.06	774.50
649.41	769.31
649.75	764.30
650.09	759.31
650.43	754.16
650.78	748.74
651.12	743.57
651.46	738.57
651.80	733.41
652.14	728.29
652.49	723.15
652.83	718.26
653.17	712.98
653.51	707.89
653.85	702.96
654.20	697.90
654.54	692.76
654.88	688.20
655.22	683.14
655.56	678.21
655.90	673.03
656.25	668.41
656.59	663.73
656.93	659.15
657.27	654.63
657.61	649.83
657.95	645.45
658.29	641.04
658.64	636.88
658.98	632.50
659.32	627.95
659.66	623.52
660.00	618.88
660.34	614.34
660.68	609.92
661.02	605.55
661.36	601.54
661.70	597.47
662.05	593.25
662.39	589.41
662.73	585.50
663.07	581.90
663.41	578.06
663.75	574.07
664.09	570.00
664.43	565.89
664.77	562.23
665.11	558.46
665.45	554.61
665.79	550.66
666.13	546.84
666.47	543.32
666.81	539.79
667.15	536.23
667.49	533.05
667.83	529.60
668.17	526.31
668.51	523.02
668.85	519.93
669.19	516.92
669.53	513.60
669.87	510.28
670.21	506.90
670.55	503.41
670.89	500.39
671.23	497.45
671.57	494.50
671.91	491.41
672.25	488.32
672.58	485.40
672.92	482.34
673.26	479.60
673.60	476.67
673.94	473.74
674.28	471.01
674.62	468.15
674.96	465.38
675.30	462.65
675.64	459.79
675.97	456.91
676.31	453.97
676.65	451.46
676.99	449.19
677.33	446.67
677.67	444.24
678.01	441.58
678.34	439.01
678.68	436.50
679.02	433.82
679.36	431.38
679.70	428.99
680.04	426.54
680.37	423.95
680.71	421.52
681.05	419.33
681.39	416.87
681.73	414.67
682.06	412.51
682.40	410.29
682.74	408.07
683.08	405.92
683.42	403.82
683.75	401.65
684.09	399.36
684.43	397.24
684.77	394.95
685.10	392.78
685.44	390.59
685.78	388.41
686.12	386.54
686.45	384.54
686.79	382.55
687.13	380.70
687.46	378.88
687.80	377.08
688.14	375.00
688.48	373.25
688.81	371.15
689.15	369.26
689.49	367.38
689.82	365.42
690.16	363.40
690.50	361.47
690.83	359.43
691.17	357.43
691.51	355.59
691.84	354.01
692.18	352.37
692.52	350.71
692.85	349.09
693.19	347.47
693.52	345.84
693.86	344.11
694.20	342.54
694.53	340.89
694.87	339.16
695.21	337.55
695.54	335.83
695.88	334.34
696.21	332.60
696.55	331.02
696.88	329.58
697.22	328.04
697.56	326.66
697.89	325.31
698.23	324.00
698.56	322.54
698.90	321.11
699.23	319.59
699.57	318.28
699.90	316.81
700.24	315.44
700.58	314.00
700.91	312.66
701.25	311.40
701.58	310.11
701.92	308.96
702.25	307.75
702.59	306.73
702.92	305.48
703.26	304.41
703.59	303.40
703.93	302.38
704.26	301.37
704.60	300.21
704.93	299.08
705.26	297.99
705.60	296.96
705.93	295.89
706.27	294.96
706.60	294.02
706.94	293.13
707.27	292.00
707.61	291.08
707.94	290.13
708.27	289.02
708.61	288.03
708.94	287.07
709.28	286.05
709.61	285.06
709.94	284.17
710.28	283.27
710.61	282.29
710.95	281.32
711.28	280.57
711.61	279.69
711.95	278.90
712.28	278.02
712.61	277.13
712.95	276.38
713.28	275.63
713.61	274.68
713.95	273.77
714.28	273.12
714.61	272.27
714.95	271.49
715.28	270.70
715.61	269.88
715.95	269.11
716.28	268.43
716.61	267.68
716.95	266.92
717.28	266.17
717.61	265.43
717.94	264.70
718.28	263.99
718.61	263.37
718.94	262.65
719.27	261.99
719.61	261.39
719.94	260.77
720.27	260.08
720.60	259.54
720.94	259.04
721.27	258.35
721.60	257.88
721.93	257.36
722.27	256.89
722.60	256.49
722.93	255.88
723.26	255.41
723.59	254.83
723.93	254.40
724.26	253.94
724.59	253.46
724.92	253.08
725.25	252.54
725.59	252.05
725.92	251.66
726.25	251.24
726.58	250.85
726.91	250.40
727.24	249.95
727.57	249.45
727.91	248.96
728.24	248.59
728.57	248.15
728.90	247.70
729.23	247.22
729.56	246.83
729.89	246.45
730.22	245.96
730.55	245.63
730.89	245.30
731.22	244.94
731.55	244.53
731.88	244.05
732.21	243.70
732.54	243.30
732.87	242.93
733.20	242.55
733.53	242.18
733.86	241.82
734.19	241.35
734.52	241.03
734.85	240.83
735.18	240.43
735.51	240.16
735.84	239.90
736.17	239.70
736.50	239.26
736.83	239.27
737.16	238.99
737.49	238.61
737.82	238.21
738.15	237.83
738.48	237.51
738.81	237.29
739.14	236.98
739.47	236.75
739.80	236.43
740.13	236.22
740.46	235.95
740.79	235.53
741.12	235.34
741.45	235.02
741.78	234.66
742.11	234.49
742.44	234.11
742.77	233.86
743.10	233.56
743.43	233.30
743.75	232.70
744.08	232.69
744.41	232.41
744.74	232.24
745.07	232.01
745.40	231.80
745.73	231.62
746.06	231.37
746.39	231.14
746.71	230.88
747.04	230.55
747.37	230.27
747.70	230.16
748.03	229.96
748.36	229.84
748.68	229.56
749.01	229.26
749.34	229.07
749.67	228.80
750.00	228.66
750.33	228.51
750.65	228.40
750.98	227.97
751.31	227.76
751.64	227.55
751.97	227.45
752.29	227.25
752.62	226.99
752.95	226.72
753.28	226.44
753.60	226.22
753.93	226.10
754.26	225.90
754.59	225.65
754.91	225.47
755.24	225.20
755.57	225.06
755.90	225.00
756.22	224.82
756.55	224.69
756.88	224.48
757.20	224.23
757.53	223.97
757.86	223.78
758.19	223.69
758.51	223.50
758.84	223.16
759.17	223.08
759.49	222.90
759.82	222.89
760.15	222.71
760.47	222.61
760.80	222.36
761.13	222.31
761.45	222.19
761.78	222.07
762.11	222.00
762.43	221.88
762.76	221.71
763.08	221.60
763.41	221.44
763.74	221.25
764.06	221.19
764.39	221.13
764.71	221.05
765.04	220.85
765.37	220.70
765.69	220.69
766.02	220.52
766.34	220.40
766.67	220.22
767.00	220.19
767.32	220.19
767.65	220.24
767.97	220.07
768.30	219.97
768.62	219.81
768.95	219.61
769.27	219.41
769.60	219.29
769.92	219.19
770.25	219.03
770.57	218.91
770.90	218.80
771.22	218.68
771.55	218.56
771.87	218.46
772.20	218.41
772.52	218.47
772.85	218.57
773.17	218.48
773.50	218.43
773.82	218.34
774.15	218.15
774.47	217.98
774.80	217.91
775.12	217.83
775.45	217.67
775.77	217.65
776.09	217.67
776.42	217.61
776.74	217.59
777.07	217.52
777.39	217.50
777.72	217.45
778.04	217.39
778.36	217.25
778.69	217.25
779.01	217.16
779.33	216.90
779.66	216.66
779.98	216.61
780.31	216.53
780.63	216.54
780.95	216.50
781.28	216.41
781.60	216.32
781.92	216.26
782.25	216.32
782.57	216.26
782.89	216.22
783.22	216.17
783.54	216.03
783.86	216.01
784.19	215.84
784.51	215.87
784.83	215.81
785.16	215.79
785.48	215.77
785.80	215.79
786.12	215.80
786.45	215.67
786.77	215.59
787.09	215.53
787.42	215.40
787.74	215.36
788.06	215.30
788.38	215.22
788.71	215.15
789.03	215.13
789.35	215.21
789.67	215.08
789.99	215.06
790.32	215.04
790.64	215.08
790.96	215.26
791.28	215.18
791.61	215.14
791.93	215.17
792.25	215.11
792.57	215.07
792.89	214.99
793.21	215.02
793.54	215.03
793.86	214.95
794.18	214.95
794.50	214.80
794.82	214.83
795.14	214.88
795.47	214.95
795.79	214.83
796.11	214.64
796.43	214.61
796.75	214.47
797.07	214.45
797.39	214.39
797.71	214.21
798.04	214.10
798.36	214.04
798.68	213.94
799.00	213.91
799.32	213.85
799.64	213.89
799.96	213.90
800.28	213.91
800.60	213.94
800.92	213.95
801.24	213.97
801.56	213.97
801.89	213.91
802.21	213.81
802.53	213.81
802.85	213.90
803.17	213.94
803.49	214.00
803.81	213.97
804.13	213.89
804.45	213.88
804.77	213.89
805.09	213.85
805.41	213.84
805.73	213.81
806.05	213.73
806.37	213.69
806.69	213.68
807.01	213.64
807.33	213.63
807.65	213.50
807.97	213.62
808.28	213.54
808.60	213.49
808.92	213.46
809.24	213.56
809.56	213.47
809.88	213.45
810.20	213.44
810.52	213.41
810.84	213.44
811.16	213.45
811.48	213.31
811.80	213.40
812.12	213.42
812.43	213.39
812.75	213.40
813.07	213.34
813.39	213.29
813.71	213.23
814.03	213.17
814.35	213.27
814.67	213.12
814.98	213.10
815.30	213.09
815.62	213.05
815.94	212.94
816.26	212.93
816.58	212.84
816.89	212.82
817.21	212.78
817.53	212.72
817.85	212.64
818.17	212.66
818.48	212.60
818.80	212.56
819.12	212.58
819.44	212.53
819.76	212.52
820.07	212.46
820.39	212.39
820.71	212.44
821.03	212.33
821.34	212.31
821.66	212.29
821.98	212.36
822.30	212.32
822.61	212.40
822.93	212.34
823.25	212.39
823.57	212.40
823.88	212.44
824.20	212.50
824.52	212.54
824.83	212.60
825.15	212.52
825.47	212.51
825.79	212.54
826.10	212.53
826.42	212.48
826.74	212.51
827.05	212.55
827.37	212.52
827.69	212.50
828.00	212.46
828.32	212.46
828.64	212.37
828.95	212.45
829.27	212.33
829.58	212.45
829.90	212.41
830.22	212.35
830.53	212.28
830.85	212.19
831.17	212.12
831.48	212.13
831.80	212.22
832.11	212.21
832.43	212.17
832.75	212.17
833.06	212.33
833.38	212.33
833.69	212.33
834.01	212.27
834.32	212.26
834.64	212.27
834.96	212.25
835.27	212.25
835.59	212.14
835.90	212.14
836.22	212.05
836.53	212.01
836.85	212.01
837.16	212.18
837.48	212.17
837.79	212.17
838.11	212.19
838.42	212.12
838.74	212.06
839.05	212.02
839.37	212.01
839.68	211.85
840.00	211.75
840.31	211.75
840.63	211.78
840.94	211.76
841.26	211.71
841.57	211.72
841.88	211.71
842.20	211.73
842.51	211.64
842.83	211.64
843.14	211.82
843.46	211.77
843.77	211.69
844.08	211.72
844.40	211.76
844.71	211.66
845.03	211.66
845.34	211.66
845.65	211.60
845.97	211.62
846.28	211.65
846.60	211.64
846.91	211.61
847.22	211.64
847.54	211.63
847.85	211.67
848.16	211.65
848.48	211.64
848.79	211.70
849.10	211.75
849.42	211.77
849.73	211.54
850.04	211.52
850.36	211.47
850.67	211.53
850.98	211.53
851.30	211.54
851.61	211.54
851.92	211.60
852.23	211.68
852.55	211.64
852.86	211.66
853.17	211.72
853.49	211.74
853.80	211.74
854.11	211.83
854.42	211.88
854.74	211.86
855.05	211.85
855.36	211.76
855.67	211.74
855.99	211.78
856.30	212.03
856.61	212.01
856.92	211.99
857.23	211.93
857.55	211.87
857.86	211.89
858.17	211.87
858.48	211.81
858.79	211.74
859.11	211.76
859.42	211.71
859.73	211.64
860.04	211.62
860.35	211.49
860.66	211.43
860.98	211.37
861.29	211.41
861.60	211.37
861.91	211.49
862.22	211.46
862.53	211.42
862.84	211.22
863.16	211.32
863.47	211.27
863.78	211.20
864.09	211.22
864.40	211.20
864.71	211.20
865.02	211.23
865.33	211.23
865.64	211.16
865.95	211.22
866.27	211.34
866.58	211.37
866.89	211.46
867.20	211.43
867.51	211.40
867.82	211.37
868.13	211.41
868.44	211.31
868.75	211.35
869.06	211.31
869.37	211.26
869.68	211.24
869.99	211.25
870.30	211.27
870.61	211.27
870.92	211.30
871.23	211.27
871.54	211.32
871.85	211.36
872.16	211.45
872.47	211.44
872.78	211.34
873.09	211.21
873.40	211.20
873.71	211.25
874.02	211.33
874.33	211.34
874.64	211.34
874.95	211.36
875.26	211.35
875.56	211.31
875.87	211.28
876.18	211.22
876.49	211.42
876.80	211.44
877.11	211.45
877.42	211.43
877.73	211.45
878.04	211.39
878.35	211.33
878.66	211.28
878.96	211.24
879.27	211.18
879.58	211.29
879.89	211.26
880.20	211.25
880.51	211.17
880.82	211.20
881.12	211.20
881.43	211.18
881.74	211.18
882.05	211.29
882.36	211.30
882.67	211.37
882.97	211.15
883.28	211.13
883.59	211.08
883.90	211.11
884.21	211.15
884.51	211.09
884.82	211.12
885.13	211.16
885.44	211.15
885.74	211.24
886.05	211.24
886.36	211.23
886.67	211.13
886.98	211.23
887.28	211.17
887.59	211.13
887.90	211.13
888.20	211.18
888.51	211.17
888.82	211.21
889.13	211.21
889.43	211.40
889.74	211.39
890.05	211.45
890.35	211.42
890.66	211.35
890.97	211.39
891.28	211.34
891.58	211.28
891.89	211.23
892.20	211.20
892.50	211.10
892.81	211.09
893.12	211.16
893.42	211.07
893.73	211.12
894.04	211.14
894.34	211.16
894.65	211.09
894.95	211.03
895.26	211.05
895.57	211.13
895.87	211.03
896.18	211.13
896.48	211.15
896.79	211.20
897.10	211.22
897.40	211.27
897.71	211.29
898.01	211.30
898.32	211.35
898.63	211.33
898.93	211.41
899.24	211.50
899.54	211.49
899.85	211.51
900.15	211.44
900.46	211.40
900.76	211.48
901.07	211.44
901.38	211.48
901.68	211.46
901.99	211.37
902.29	211.37
902.60	211.28
902.90	211.25
903.21	211.16
903.51	211.17
903.82	211.22
904.12	211.28
904.43	211.31
904.73	211.37
905.03	211.38
905.34	211.54
905.64	211.49
905.95	211.46
906.25	211.46
906.56	211.50
906.86	211.56
907.17	211.55
907.47	211.59
907.77	211.53
908.08	211.54
908.38	211.50
908.69	211.45
908.99	211.48
909.30	211.52
909.60	211.53
909.90	211.56
910.21	211.48
910.51	211.40
910.81	211.42
911.12	211.32
911.42	211.34
911.73	211.11
912.03	211.14
912.33	211.19
912.64	211.17
912.94	211.10
913.24	211.11
913.55	211.10
913.85	211.13
914.15	211.19
914.46	211.16
914.76	211.19
915.06	211.14
915.37	211.15
915.67	211.07
915.97	210.98
916.27	210.94
916.58	210.93
916.88	210.95
917.18	210.93
917.49	211.08
917.79	211.10
918.09	211.13
918.39	211.17
918.70	211.20
919.00	211.15
919.30	211.21
919.60	211.19
919.91	211.07
920.21	211.04
920.51	211.01
920.81	211.03
921.12	211.05
921.42	211.08
921.72	211.12
922.02	211.10
922.32	211.29
922.63	211.23
922.93	211.30
923.23	211.29
923.53	211.19
923.83	211.13
924.13	211.09
924.44	211.17
924.74	211.15
925.04	211.11
925.34	211.17
925.64	211.13
925.94	211.10
926.24	211.19
926.55	211.14
926.85	211.12
927.15	211.12
927.45	211.06
927.75	211.09
928.05	211.10
928.35	211.10
928.65	211.06
928.95	211.08
929.26	211.04
929.56	211.05
929.86	211.11
930.16	211.01
930.46	211.03
930.76	210.99
931.06	210.87
931.36	210.80
931.66	210.81
931.96	210.88
932.26	210.89
932.56	210.85
932.86	210.96
933.16	210.98
933.46	210.91
933.76	210.90
934.06	210.96
934.36	210.92
934.66	211.00
934.96	211.03
935.26	211.05
935.56	211.06
935.86	211.05
936.16	211.10
936.46	211.13
936.76	211.13
937.06	211.10
937.36	211.12
937.66	211.13
937.96	211.15
938.26	211.10
938.56	211.08
938.86	211.03
939.16	211.02
939.46	211.07
939.76	211.06
940.06	211.08
940.35	211.04
940.65	211.04
940.95	210.98
941.25	210.87
941.55	210.90
941.85	210.89
942.15	211.01
942.45	211.04
942.75	211.02
943.04	211.06
943.34	211.09
943.64	211.17
943.94	211.16
944.24	211.19
944.54	211.19
944.84	211.14
945.13	211.16
945.43	211.10
945.73	211.10
946.03	211.08
946.33	211.04
946.62	211.05
946.92	211.04
947.22	211.05
947.52	211.11
947.82	211.06
948.11	211.02
948.41	210.95
948.71	210.89
949.01	210.93
949.31	210.93
949.60	210.88
949.90	210.84
950.20	210.81
950.50	210.73
950.79	210.68
951.09	210.75
951.39	210.71
951.69	210.73
951.98	210.72
952.28	210.79
952.58	210.80
952.87	210.75
953.17	210.76
953.47	210.79
953.76	210.73
954.06	210.73
954.36	210.69
954.66	210.66
954.95	210.68
955.25	210.64
955.55	210.57
955.84	210.61
956.14	210.64
956.44	210.63
956.73	210.67
957.03	210.70
957.32	210.70
957.62	210.70
957.92	210.70
958.21	210.73
958.51	210.93
958.81	210.97
959.10	211.00
959.40	211.09
959.69	211.03
959.99	211.15
960.29	211.19
960.58	211.15
960.88	211.19
961.17	211.21
961.47	211.25
961.76	211.24
962.06	211.26
962.36	211.29
962.65	211.38
962.95	211.29
963.24	211.29
963.54	211.27
963.83	211.24
964.13	211.25
964.42	211.17
964.72	211.02
965.01	211.00
965.31	210.97
965.60	210.83
965.90	210.98
966.19	210.88
966.49	210.89
966.78	210.97
967.08	211.05
967.37	211.08
967.67	211.02
967.96	211.02
968.26	211.01
968.55	210.98
968.85	210.86
969.14	210.92
969.43	210.95
969.73	211.05
970.02	211.05
970.32	211.05
970.61	211.01
970.91	210.92
971.20	210.91
971.49	210.90
971.79	210.92
972.08	210.78
972.38	210.84
972.67	210.80
972.96	210.83
973.26	210.76
973.55	210.80
973.85	210.78
974.14	210.80
974.43	210.79
974.73	210.75
975.02	210.85
975.31	210.84
975.61	210.78
975.90	210.69
976.19	210.71
976.49	210.71
976.78	210.84
977.07	210.85
977.37	210.81
977.66	210.80
977.95	210.80
978.24	210.79
978.54	210.76
978.83	210.82
979.12	210.78
979.42	210.83
979.71	210.73
980.00	210.78
980.29	210.85
980.59	210.83
980.88	210.94
981.17	210.92
981.46	210.96
981.76	211.00
982.05	211.08
982.34	211.15
982.63	211.18
982.93	211.08
983.22	211.22
983.51	211.33
983.80	211.39
984.09	211.49
984.39	211.54
984.68	211.56
984.97	211.51
985.26	211.54
985.55	211.51
985.85	211.51
986.14	211.55
986.43	211.57
986.72	211.62
987.01	211.57
987.30	211.63
987.59	211.66
987.89	211.74
988.18	211.69
988.47	211.68
988.76	211.67
989.05	211.70
989.34	211.63
989.63	211.59
989.92	211.58
990.22	211.46
990.51	211.40
990.80	211.38
991.09	211.43
991.38	211.41
991.67	211.37
991.96	211.37
992.25	211.32
992.54	211.22
992.83	211.22
993.12	211.16
993.41	211.17
993.70	211.22
993.99	211.23
994.28	211.29
994.58	211.30
994.87	211.29
995.16	211.26
995.45	211.26
995.74	211.25
996.03	211.27
996.32	211.37
996.61	211.37
996.90	211.37
997.19	211.37
997.48	211.39
997.77	211.28
998.06	211.30
998.34	211.31
998.63	211.37
998.92	211.33
999.21	211.42
999.50	211.42
999.79	211.37
1000.08	211.33
1000.37	211.32
1000.66	211.27
1000.95	211.27
1001.24	211.31
1001.53	211.28
1001.82	211.33
1002.11	211.25
1002.40	211.23
1002.68	211.38
1002.97	211.52
1003.26	211.49
1003.55	211.44
1003.84	211.53
1004.13	211.57
1004.42	211.57
1004.71	211.53
1004.99	211.51
1005.28	211.48
1005.57	211.37
1005.86	211.28
1006.15	211.23
1006.44	211.13
1006.72	211.18
1007.01	211.19
1007.30	211.13
1007.59	211.13
1007.88	210.99
1008.17	211.01
1008.45	210.94
1008.74	210.78
1009.03	210.64
1009.32	210.69
1009.60	210.72
1009.89	210.72
1010.18	210.66
1010.47	210.66
1010.76	210.69
1011.04	210.68
1011.33	210.72
1011.62	210.78
1011.91	210.83
1012.19	210.87
1012.48	210.86
1012.77	210.84
1013.05	210.91
1013.34	211.01
1013.63	211.05
1013.92	211.10
1014.20	211.03
1014.49	211.05
1014.78	211.04
1015.06	211.05
1015.35	211.00
1015.64	210.96
1015.92	210.98
1016.21	210.93
1016.50	210.96
1016.78	210.97
1017.07	211.02
1017.36	210.97
1017.64	210.92
1017.93	210.95
1018.22	210.88
1018.50	210.93
1018.79	210.95
1019.08	210.90
1019.36	210.88
1019.65	210.83
1019.93	210.93
1020.22	210.99
1020.51	211.07
1020.79	211.15
1021.08	210.10
1021.36	210.70
1021.65	211.85
1021.94	211.30
1022.22	211.50
1022.51	210.75
1022.79	212.30
1023.08	210.50
1023.36	212.55
1023.65	211.80
>>>>>End Processed Spectral Data<<<<<
