SpectraSuite Data File
++++++++++++++++++++++++++++++++++++
Date: Mon Feb 25 17:31:11 EST 2013
User: group
Dark Spectrum Present: No
Reference Spectrum Present: No
Number of Sampled Component Spectra: 1
Spectrometers: USB2E7196
Integration Time (usec): 52000 (USB2E7196)
Spectra Averaged: 20 (USB2E7196)
Boxcar Smoothing: 10 (USB2E7196)
Correct for Electrical Dark: No (USB2E7196)
Strobe/Lamp Enabled: No (USB2E7196)
Correct for Detector Non-linearity: No (USB2E7196)
Correct for Stray Light: No (USB2E7196)
Number of Pixels in Processed Spectrum: 2048
>>>>>Begin Processed Spectral Data<<<<<
339.09	0.00
339.48	200.05
339.86	199.95
340.24	202.15
340.63	203.35
341.01	207.00
341.39	206.25
341.78	207.65
342.16	209.55
342.54	209.15
342.93	198.41
343.31	208.45
343.69	208.92
344.07	209.36
344.46	209.75
344.84	210.19
345.22	210.39
345.60	210.62
345.99	210.87
346.37	210.98
346.75	211.08
347.13	211.17
347.52	211.19
347.90	211.28
348.28	211.34
348.66	211.39
349.05	211.32
349.43	211.38
349.81	211.42
350.19	211.45
350.57	211.55
350.96	211.58
351.34	211.68
351.72	211.76
352.10	211.93
352.48	212.01
352.87	212.02
353.25	212.15
353.63	212.24
354.01	212.23
354.39	212.25
354.77	212.35
355.15	212.53
355.54	212.58
355.92	212.57
356.30	212.63
356.68	212.77
357.06	212.84
357.44	212.86
357.82	212.90
358.20	212.99
358.58	213.04
358.97	213.07
359.35	213.10
359.73	213.22
360.11	213.19
360.49	213.20
360.87	213.23
361.25	213.20
361.63	213.30
362.01	213.33
362.39	213.42
362.77	213.42
363.15	213.40
363.53	213.48
363.91	213.56
364.29	213.52
364.67	213.45
365.05	213.52
365.43	213.58
365.81	213.63
366.19	213.75
366.57	213.82
366.95	213.82
367.33	213.84
367.71	213.78
368.09	213.86
368.47	213.88
368.85	213.84
369.23	213.86
369.61	213.81
369.99	213.85
370.37	213.80
370.75	213.87
371.13	213.85
371.51	213.75
371.89	213.73
372.27	213.75
372.65	213.70
373.03	213.69
373.41	213.69
373.78	213.63
374.16	213.45
374.54	213.37
374.92	213.37
375.30	213.34
375.68	213.32
376.06	213.25
376.44	213.19
376.82	213.21
377.19	213.18
377.57	213.14
377.95	213.04
378.33	213.00
378.71	212.94
379.09	212.88
379.47	212.90
379.84	212.81
380.22	212.78
380.60	212.74
380.98	212.62
381.36	212.51
381.73	212.44
382.11	212.50
382.49	212.43
382.87	212.39
383.25	212.34
383.62	212.53
384.00	212.55
384.38	212.55
384.76	212.47
385.13	212.50
385.51	212.44
385.89	212.41
386.27	212.40
386.64	212.31
387.02	212.29
387.40	212.20
387.78	212.23
388.15	212.20
388.53	212.12
388.91	212.13
389.29	212.13
389.66	212.13
390.04	212.06
390.42	212.17
390.79	212.05
391.17	212.02
391.55	211.82
391.92	211.76
392.30	211.74
392.68	211.74
393.05	211.70
393.43	211.68
393.81	211.71
394.18	211.65
394.56	211.65
394.94	211.71
395.31	211.74
395.69	211.82
396.06	211.87
396.44	211.88
396.82	211.92
397.19	211.94
397.57	211.90
397.95	211.92
398.32	211.83
398.70	211.88
399.07	211.91
399.45	211.92
399.82	211.96
400.20	211.95
400.58	211.95
400.95	211.94
401.33	212.03
401.70	212.17
402.08	212.24
402.45	212.30
402.83	212.37
403.20	212.41
403.58	212.44
403.95	212.50
404.33	212.62
404.71	212.71
405.08	212.97
405.46	213.06
405.83	213.18
406.21	213.32
406.58	213.50
406.96	213.66
407.33	213.86
407.70	214.04
408.08	214.36
408.45	214.62
408.83	214.83
409.20	215.02
409.58	215.15
409.95	215.41
410.33	215.69
410.70	215.94
411.08	216.30
411.45	216.65
411.82	217.02
412.20	217.45
412.57	218.04
412.95	218.30
413.32	218.86
413.69	219.36
414.07	219.91
414.44	220.48
414.82	221.07
415.19	221.73
415.56	222.54
415.94	223.24
416.31	224.17
416.68	225.08
417.06	226.10
417.43	227.10
417.81	228.24
418.18	229.39
418.55	230.57
418.93	231.84
419.30	233.10
419.67	234.45
420.04	235.81
420.42	237.16
420.79	238.97
421.16	240.62
421.54	242.44
421.91	244.33
422.28	246.20
422.66	248.26
423.03	250.27
423.40	252.26
423.77	254.54
424.15	256.64
424.52	258.85
424.89	261.22
425.26	263.59
425.64	265.91
426.01	268.42
426.38	271.07
426.75	273.74
427.13	276.47
427.50	279.35
427.87	282.36
428.24	285.39
428.61	288.26
428.99	291.56
429.36	295.00
429.73	298.44
430.10	301.95
430.47	305.38
430.85	308.99
431.22	312.75
431.59	316.82
431.96	320.77
432.33	325.10
432.70	329.37
433.08	334.30
433.45	338.81
433.82	343.36
434.19	348.34
434.56	353.27
434.93	357.95
435.30	362.68
435.68	367.88
436.05	373.00
436.42	377.94
436.79	382.60
437.16	387.64
437.53	392.82
437.90	397.98
438.27	403.05
438.64	408.30
439.01	413.20
439.38	417.45
439.75	421.61
440.13	426.37
440.50	430.72
440.87	434.34
441.24	438.12
441.61	442.18
441.98	445.22
442.35	448.71
442.72	452.33
443.09	455.65
443.46	457.77
443.83	458.98
444.20	460.26
444.57	461.78
444.94	462.37
445.31	463.17
445.68	463.92
446.05	464.11
446.42	463.49
446.79	462.73
447.16	461.92
447.53	461.35
447.90	459.19
448.27	457.10
448.64	454.23
449.01	452.18
449.37	448.75
449.74	445.30
450.11	441.27
450.48	436.86
450.85	432.40
451.22	428.45
451.59	424.91
451.96	421.40
452.33	416.87
452.70	412.67
453.07	407.60
453.43	402.45
453.80	397.65
454.17	392.95
454.54	388.59
454.91	383.78
455.28	379.04
455.65	374.76
456.02	370.60
456.38	366.90
456.75	362.29
457.12	358.35
457.49	354.64
457.86	350.96
458.23	347.77
458.59	344.43
458.96	341.00
459.33	337.86
459.70	334.70
460.07	332.12
460.43	329.30
460.80	326.62
461.17	324.28
461.54	321.79
461.91	319.42
462.27	317.01
462.64	315.09
463.01	312.89
463.38	310.84
463.74	308.73
464.11	306.83
464.48	305.21
464.85	303.48
465.21	302.19
465.58	300.85
465.95	299.20
466.32	297.76
466.68	296.32
467.05	295.03
467.42	293.74
467.78	292.37
468.15	291.12
468.52	290.12
468.88	288.77
469.25	287.66
469.62	286.74
469.98	285.76
470.35	284.80
470.72	283.99
471.08	283.02
471.45	282.24
471.82	281.66
472.18	280.81
472.55	280.28
472.92	279.48
473.28	278.86
473.65	278.28
474.02	277.71
474.38	277.30
474.75	276.91
475.11	276.44
475.48	276.23
475.85	275.99
476.21	275.80
476.58	275.72
476.94	275.73
477.31	275.69
477.67	275.69
478.04	275.82
478.41	275.97
478.77	276.35
479.14	276.49
479.50	276.63
479.87	277.05
480.23	277.49
480.60	277.88
480.96	278.21
481.33	278.96
481.69	279.59
482.06	280.23
482.42	280.89
482.79	281.70
483.15	282.55
483.52	283.53
483.88	284.47
484.25	285.47
484.61	286.47
484.98	287.61
485.34	288.96
485.71	290.31
486.07	291.65
486.44	292.97
486.80	294.47
487.17	296.15
487.53	297.90
487.90	299.69
488.26	301.75
488.62	303.86
488.99	305.77
489.35	307.93
489.72	310.27
490.08	312.64
490.44	315.09
490.81	317.78
491.17	320.39
491.54	323.35
491.90	326.35
492.26	329.58
492.63	332.86
492.99	336.22
493.36	339.81
493.72	343.80
494.08	347.80
494.45	351.97
494.81	356.34
495.17	360.82
495.54	365.68
495.90	370.64
496.26	375.96
496.63	381.52
496.99	387.30
497.35	393.18
497.72	399.36
498.08	405.93
498.44	412.56
498.80	419.82
499.17	427.14
499.53	434.78
499.89	442.67
500.26	450.79
500.62	459.16
500.98	467.91
501.34	476.77
501.71	485.97
502.07	495.63
502.43	505.60
502.79	515.85
503.16	526.46
503.52	537.25
503.88	548.42
504.24	559.85
504.60	571.52
504.97	583.67
505.33	596.17
505.69	609.39
506.05	622.59
506.41	635.96
506.78	649.57
507.14	663.61
507.50	677.94
507.86	692.85
508.22	708.06
508.59	723.45
508.95	739.36
509.31	755.76
509.67	772.38
510.03	789.31
510.39	806.73
510.75	824.23
511.12	842.39
511.48	860.75
511.84	879.22
512.20	897.94
512.56	916.98
512.92	936.44
513.28	955.45
513.64	975.11
514.00	994.98
514.37	1015.21
514.73	1035.97
515.09	1056.82
515.45	1077.34
515.81	1098.34
516.17	1119.38
516.53	1140.70
516.89	1161.87
517.25	1183.22
517.61	1204.47
517.97	1225.77
518.33	1247.18
518.69	1268.51
519.05	1290.10
519.41	1311.87
519.77	1334.21
520.13	1356.25
520.49	1377.87
520.85	1400.63
521.21	1422.85
521.57	1445.57
521.93	1467.17
522.29	1489.30
522.65	1511.56
523.01	1534.00
523.37	1555.66
523.73	1577.74
524.09	1599.44
524.45	1621.58
524.81	1643.50
525.17	1665.81
525.53	1687.82
525.89	1709.94
526.25	1731.75
526.61	1752.76
526.97	1774.49
527.33	1795.25
527.68	1816.30
528.04	1837.47
528.40	1857.23
528.76	1877.76
529.12	1897.79
529.48	1919.18
529.84	1939.59
530.20	1959.67
530.56	1979.37
530.91	1999.74
531.27	2019.87
531.63	2039.40
531.99	2058.93
532.35	2077.99
532.71	2096.40
533.07	2115.60
533.42	2133.50
533.78	2151.79
534.14	2169.92
534.50	2186.84
534.86	2204.68
535.21	2221.13
535.57	2238.31
535.93	2255.45
536.29	2271.75
536.65	2288.16
537.00	2303.47
537.36	2318.15
537.72	2332.55
538.08	2347.59
538.44	2362.62
538.79	2377.54
539.15	2392.10
539.51	2406.24
539.87	2421.22
540.22	2435.31
540.58	2449.62
540.94	2463.73
541.29	2476.45
541.65	2488.41
542.01	2501.13
542.37	2512.77
542.72	2524.75
543.08	2535.70
543.44	2547.11
543.79	2556.91
544.15	2566.78
544.51	2577.16
544.87	2587.86
545.22	2597.19
545.58	2605.57
545.94	2612.30
546.29	2618.18
546.65	2624.25
547.01	2629.95
547.36	2635.26
547.72	2640.43
548.07	2644.12
548.43	2647.92
548.79	2651.57
549.14	2655.79
549.50	2659.45
549.86	2662.94
550.21	2666.63
550.57	2670.18
550.92	2672.59
551.28	2675.30
551.64	2677.53
551.99	2679.81
552.35	2680.99
552.70	2683.27
553.06	2685.89
553.41	2688.96
553.77	2692.09
554.13	2694.40
554.48	2696.30
554.84	2697.35
555.19	2697.96
555.55	2698.35
555.90	2698.78
556.26	2699.15
556.61	2698.97
556.97	2697.82
557.32	2697.40
557.68	2695.35
558.03	2693.78
558.39	2691.92
558.74	2691.39
559.10	2690.19
559.45	2688.14
559.81	2687.20
560.16	2684.48
560.52	2681.55
560.87	2678.59
561.23	2674.58
561.58	2672.15
561.94	2669.15
562.29	2665.53
562.64	2663.01
563.00	2660.36
563.35	2657.95
563.71	2656.16
564.06	2654.22
564.42	2652.52
564.77	2650.24
565.12	2648.47
565.48	2645.28
565.83	2642.45
566.19	2638.77
566.54	2634.60
566.89	2630.54
567.25	2626.43
567.60	2623.32
567.96	2619.88
568.31	2615.97
568.66	2612.32
569.02	2607.27
569.37	2601.94
569.72	2597.94
570.08	2592.69
570.43	2587.31
570.78	2581.52
571.14	2574.93
571.49	2568.12
571.84	2561.94
572.20	2554.54
572.55	2548.27
572.90	2541.62
573.26	2534.70
573.61	2527.81
573.96	2521.49
574.31	2513.89
574.67	2505.88
575.02	2497.38
575.37	2488.73
575.72	2479.85
576.08	2472.27
576.43	2464.05
576.78	2456.49
577.13	2448.50
577.49	2440.65
577.84	2433.08
578.19	2425.62
578.54	2418.44
578.90	2411.55
579.25	2403.17
579.60	2394.51
579.95	2385.32
580.30	2377.58
580.66	2369.41
581.01	2360.76
581.36	2351.31
581.71	2343.30
582.06	2334.85
582.42	2327.14
582.77	2318.35
583.12	2309.88
583.47	2301.09
583.82	2292.95
584.17	2284.00
584.53	2275.03
584.88	2266.22
585.23	2257.15
585.58	2247.79
585.93	2238.32
586.28	2229.57
586.63	2220.85
586.98	2212.68
587.34	2204.86
587.69	2195.71
588.04	2186.89
588.39	2178.52
588.74	2169.92
589.09	2161.29
589.44	2151.99
589.79	2143.05
590.14	2135.34
590.49	2127.08
590.84	2118.29
591.19	2110.19
591.54	2101.57
591.89	2091.67
592.25	2082.58
592.60	2073.32
592.95	2063.92
593.30	2054.38
593.65	2044.47
594.00	2034.84
594.35	2026.79
594.70	2017.48
595.05	2008.75
595.40	1999.77
595.75	1990.49
596.10	1982.31
596.45	1973.89
596.80	1966.50
597.15	1958.63
597.50	1949.67
597.85	1941.40
598.19	1932.88
598.54	1924.15
598.89	1916.27
599.24	1909.98
599.59	1903.05
599.94	1896.09
600.29	1889.00
600.64	1881.44
600.99	1873.39
601.34	1866.40
601.69	1857.64
602.04	1849.80
602.39	1842.06
602.74	1834.48
603.08	1828.14
603.43	1821.04
603.78	1813.23
604.13	1805.14
604.48	1797.24
604.83	1790.73
605.18	1784.01
605.53	1776.73
605.87	1769.44
606.22	1762.63
606.57	1754.68
606.92	1746.47
607.27	1738.52
607.62	1731.04
607.96	1724.26
608.31	1718.15
608.66	1710.38
609.01	1703.09
609.36	1695.46
609.70	1687.48
610.05	1680.16
610.40	1671.80
610.75	1663.40
611.10	1655.97
611.44	1647.13
611.79	1638.32
612.14	1628.91
612.49	1619.45
612.83	1610.98
613.18	1601.59
613.53	1592.13
613.88	1582.51
614.22	1573.83
614.57	1564.52
614.92	1555.38
615.27	1546.16
615.61	1536.61
615.96	1527.82
616.31	1519.49
616.65	1511.59
617.00	1503.70
617.35	1495.48
617.70	1486.84
618.04	1478.15
618.39	1468.87
618.74	1460.72
619.08	1452.41
619.43	1444.24
619.78	1436.51
620.12	1428.42
620.47	1420.90
620.82	1412.54
621.16	1404.45
621.51	1396.31
621.85	1388.33
622.20	1380.15
622.55	1372.01
622.89	1363.76
623.24	1356.24
623.59	1347.60
623.93	1339.08
624.28	1330.73
624.62	1322.41
624.97	1314.22
625.32	1306.53
625.66	1299.55
626.01	1292.40
626.35	1285.56
626.70	1278.03
627.04	1270.56
627.39	1263.25
627.73	1255.67
628.08	1248.87
628.43	1241.63
628.77	1234.37
629.12	1227.05
629.46	1220.47
629.81	1213.43
630.15	1206.27
630.50	1199.03
630.84	1192.06
631.19	1185.05
631.53	1178.38
631.88	1170.88
632.22	1163.81
632.57	1156.83
632.91	1149.19
633.26	1142.02
633.60	1134.60
633.95	1127.95
634.29	1120.84
634.64	1114.15
634.98	1107.41
635.32	1100.63
635.67	1094.59
636.01	1088.13
636.36	1081.73
636.70	1075.11
637.05	1068.65
637.39	1062.46
637.73	1056.10
638.08	1050.47
638.42	1044.61
638.77	1038.00
639.11	1031.99
639.45	1026.08
639.80	1019.82
640.14	1013.54
640.49	1007.32
640.83	1001.07
641.17	994.76
641.52	988.70
641.86	982.27
642.20	976.11
642.55	969.42
642.89	962.61
643.23	956.17
643.58	950.45
643.92	943.94
644.26	937.78
644.61	931.72
644.95	925.86
645.29	919.49
645.64	913.09
645.98	907.08
646.32	901.25
646.66	895.16
647.01	889.18
647.35	883.65
647.69	877.28
648.04	871.43
648.38	865.51
648.72	859.58
649.06	853.59
649.41	847.58
649.75	841.96
650.09	836.45
650.43	830.64
650.78	824.47
651.12	818.47
651.46	812.82
651.80	807.10
652.14	801.05
652.49	795.12
652.83	789.33
653.17	783.48
653.51	777.64
653.85	772.06
654.20	766.25
654.54	760.35
654.88	755.14
655.22	749.39
655.56	743.74
655.90	737.97
656.25	732.37
656.59	727.10
656.93	721.99
657.27	716.81
657.61	711.47
657.95	706.30
658.29	701.33
658.64	696.35
658.98	691.29
659.32	685.95
659.66	680.90
660.00	675.73
660.34	670.57
660.68	665.45
661.02	660.35
661.36	655.78
661.70	650.91
662.05	646.19
662.39	641.90
662.73	637.62
663.07	633.46
663.41	629.19
663.75	624.60
664.09	619.92
664.43	615.21
664.77	610.98
665.11	606.61
665.45	602.37
665.79	597.95
666.13	593.40
666.47	589.44
666.81	585.30
667.15	581.35
667.49	577.71
667.83	573.94
668.17	570.13
668.51	566.36
668.85	562.83
669.19	559.13
669.53	555.31
669.87	551.22
670.21	547.60
670.55	543.70
670.89	540.39
671.23	537.07
671.57	533.86
671.91	530.37
672.25	526.88
672.58	523.48
672.92	520.03
673.26	516.92
673.60	513.63
673.94	510.55
674.28	507.29
674.62	504.04
674.96	500.81
675.30	497.72
675.64	494.56
675.97	491.34
676.31	488.45
676.65	485.62
676.99	483.02
677.33	479.83
677.67	477.06
678.01	473.86
678.34	470.96
678.68	467.95
679.02	465.05
679.36	462.42
679.70	459.58
680.04	456.68
680.37	453.80
680.71	451.13
681.05	448.43
681.39	445.75
681.73	443.09
682.06	440.60
682.40	438.11
682.74	435.59
683.08	433.11
683.42	430.57
683.75	427.90
684.09	425.34
684.43	422.97
684.77	420.47
685.10	418.13
685.44	415.59
685.78	413.25
686.12	410.95
686.45	408.64
686.79	406.35
687.13	404.38
687.46	402.33
687.80	400.12
688.14	397.83
688.48	395.81
688.81	393.68
689.15	391.49
689.49	389.33
689.82	387.09
690.16	384.97
690.50	382.63
690.83	380.38
691.17	378.12
691.51	375.94
691.84	373.92
692.18	371.91
692.52	370.02
692.85	368.29
693.19	366.45
693.52	364.48
693.86	362.66
694.20	360.80
694.53	358.89
694.87	357.03
695.21	355.23
695.54	353.24
695.88	351.43
696.21	349.70
696.55	347.85
696.88	346.23
697.22	344.42
697.56	342.95
697.89	341.52
698.23	339.94
698.56	338.42
698.90	336.90
699.23	335.31
699.57	333.73
699.90	331.99
700.24	330.39
700.58	328.77
700.91	327.18
701.25	325.73
701.58	324.39
701.92	322.96
702.25	321.57
702.59	320.29
702.92	318.94
703.26	317.60
703.59	316.47
703.93	315.29
704.26	314.12
704.60	312.86
704.93	311.66
705.26	310.52
705.60	309.42
705.93	308.18
706.27	307.06
706.60	306.02
706.94	304.98
707.27	303.76
707.61	302.81
707.94	301.73
708.27	300.45
708.61	299.25
708.94	298.09
709.28	296.93
709.61	295.86
709.94	294.79
710.28	293.70
710.61	292.60
710.95	291.45
711.28	290.54
711.61	289.49
711.95	288.39
712.28	287.40
712.61	286.40
712.95	285.54
713.28	284.66
713.61	283.69
713.95	282.74
714.28	282.02
714.61	280.93
714.95	280.05
715.28	279.20
715.61	278.28
715.95	277.45
716.28	276.58
716.61	275.72
716.95	274.89
717.28	274.14
717.61	273.30
717.94	272.50
718.28	271.59
718.61	270.79
718.94	270.00
719.27	269.35
719.61	268.64
719.94	267.87
720.27	267.07
720.60	266.30
720.94	265.62
721.27	264.92
721.60	264.33
721.93	263.72
722.27	263.27
722.60	262.73
722.93	262.15
723.26	261.61
723.59	261.05
723.93	260.48
724.26	259.90
724.59	259.36
724.92	258.88
725.25	258.33
725.59	257.85
725.92	257.42
726.25	256.75
726.58	256.24
726.91	255.72
727.24	255.27
727.57	254.77
727.91	254.29
728.24	253.76
728.57	253.34
728.90	252.86
729.23	252.24
729.56	251.86
729.89	251.28
730.22	250.78
730.55	250.29
730.89	249.82
731.22	249.38
731.55	249.01
731.88	248.46
732.21	248.15
732.54	247.71
732.87	247.22
733.20	246.81
733.53	246.30
733.86	245.90
734.19	245.39
734.52	245.02
734.85	244.71
735.18	244.29
735.51	243.83
735.84	243.47
736.17	243.17
736.50	242.67
736.83	242.65
737.16	242.35
737.49	242.04
737.82	241.68
738.15	241.28
738.48	240.87
738.81	240.54
739.14	240.15
739.47	239.76
739.80	239.41
740.13	239.10
740.46	238.80
740.79	238.38
741.12	238.13
741.45	237.80
741.78	237.39
742.11	237.15
742.44	236.89
742.77	236.61
743.10	236.26
743.43	235.92
743.75	235.38
744.08	235.24
744.41	234.85
744.74	234.59
745.07	234.27
745.40	234.08
745.73	233.90
746.06	233.49
746.39	233.25
746.71	233.02
747.04	232.73
747.37	232.48
747.70	232.27
748.03	231.95
748.36	231.74
748.68	231.43
749.01	231.12
749.34	230.87
749.67	230.61
750.00	230.44
750.33	230.31
750.65	230.05
750.98	229.65
751.31	229.51
751.64	229.31
751.97	229.18
752.29	228.90
752.62	228.65
752.95	228.44
753.28	228.15
753.60	227.93
753.93	227.80
754.26	227.61
754.59	227.39
754.91	227.24
755.24	227.06
755.57	226.92
755.90	226.68
756.22	226.39
756.55	226.22
756.88	226.00
757.20	225.69
757.53	225.49
757.86	225.28
758.19	225.12
758.51	224.89
758.84	224.62
759.17	224.40
759.49	224.17
759.82	224.10
760.15	224.03
760.47	223.80
760.80	223.59
761.13	223.37
761.45	223.16
761.78	222.96
762.11	222.81
762.43	222.68
762.76	222.63
763.08	222.60
763.41	222.40
763.74	222.25
764.06	222.09
764.39	222.00
764.71	221.91
765.04	221.72
765.37	221.61
765.69	221.47
766.02	221.35
766.34	221.29
766.67	221.12
767.00	221.00
767.32	221.00
767.65	221.04
767.97	220.95
768.30	220.92
768.62	220.81
768.95	220.66
769.27	220.51
769.60	220.39
769.92	220.26
770.25	220.13
770.57	219.95
770.90	219.87
771.22	219.73
771.55	219.68
771.87	219.64
772.20	219.50
772.52	219.60
772.85	219.74
773.17	219.58
773.50	219.48
773.82	219.38
774.15	219.19
774.47	218.91
774.80	218.84
775.12	218.72
775.45	218.65
775.77	218.61
776.09	218.58
776.42	218.47
776.74	218.36
777.07	218.29
777.39	218.31
777.72	218.25
778.04	218.22
778.36	218.06
778.69	217.97
779.01	217.92
779.33	217.74
779.66	217.45
779.98	217.41
780.31	217.38
780.63	217.41
780.95	217.42
781.28	217.43
781.60	217.34
781.92	217.28
782.25	217.24
782.57	217.19
782.89	217.13
783.22	217.05
783.54	217.03
783.86	217.02
784.19	216.91
784.51	216.93
784.83	216.88
785.16	216.87
785.48	216.84
785.80	216.77
786.12	216.74
786.45	216.65
786.77	216.69
787.09	216.65
787.42	216.45
787.74	216.38
788.06	216.27
788.38	216.18
788.71	216.10
789.03	216.06
789.35	216.00
789.67	215.88
789.99	215.90
790.32	215.85
790.64	215.76
790.96	215.88
791.28	215.71
791.61	215.64
791.93	215.59
792.25	215.51
792.57	215.67
792.89	215.55
793.21	215.56
793.54	215.36
793.86	215.29
794.18	215.35
794.50	215.33
794.82	215.23
795.14	215.29
795.47	215.29
795.79	215.25
796.11	215.16
796.43	215.16
796.75	215.13
797.07	215.05
797.39	215.04
797.71	214.90
798.04	214.92
798.36	214.90
798.68	214.85
799.00	214.86
799.32	214.69
799.64	214.66
799.96	214.63
800.28	214.75
800.60	214.68
800.92	214.72
801.24	214.70
801.56	214.72
801.89	214.68
802.21	214.71
802.53	214.75
802.85	214.76
803.17	214.79
803.49	214.74
803.81	214.74
804.13	214.70
804.45	214.64
804.77	214.63
805.09	214.55
805.41	214.53
805.73	214.42
806.05	214.40
806.37	214.37
806.69	214.36
807.01	214.32
807.33	214.36
807.65	214.20
807.97	214.23
808.28	214.20
808.60	214.12
808.92	214.01
809.24	214.01
809.56	213.95
809.88	213.90
810.20	213.86
810.52	213.85
810.84	213.83
811.16	213.85
811.48	213.89
811.80	213.95
812.12	213.90
812.43	213.87
812.75	213.85
813.07	213.82
813.39	213.87
813.71	213.80
814.03	213.71
814.35	213.71
814.67	213.55
814.98	213.52
815.30	213.53
815.62	213.46
815.94	213.29
816.26	213.30
816.58	213.26
816.89	213.27
817.21	213.24
817.53	213.23
817.85	213.17
818.17	213.05
818.48	212.99
818.80	212.99
819.12	212.96
819.44	212.92
819.76	212.82
820.07	212.71
820.39	212.61
820.71	212.68
821.03	212.63
821.34	212.69
821.66	212.77
821.98	212.76
822.30	212.83
822.61	212.94
822.93	212.88
823.25	212.87
823.57	212.85
823.88	212.89
824.20	212.80
824.52	212.76
824.83	212.77
825.15	212.73
825.47	212.77
825.79	212.75
826.10	212.70
826.42	212.72
826.74	212.72
827.05	212.79
827.37	212.76
827.69	212.72
828.00	212.66
828.32	212.58
828.64	212.65
828.95	212.73
829.27	212.67
829.58	212.76
829.90	212.78
830.22	212.75
830.53	212.65
830.85	212.68
831.17	212.67
831.48	212.66
831.80	212.71
832.11	212.66
832.43	212.68
832.75	212.71
833.06	212.82
833.38	212.80
833.69	212.83
834.01	212.77
834.32	212.81
834.64	212.83
834.96	212.79
835.27	212.69
835.59	212.54
835.90	212.53
836.22	212.43
836.53	212.35
836.85	212.31
837.16	212.52
837.48	212.58
837.79	212.61
838.11	212.60
838.42	212.60
838.74	212.63
839.05	212.59
839.37	212.54
839.68	212.48
840.00	212.46
840.31	212.47
840.63	212.47
840.94	212.35
841.26	212.27
841.57	212.30
841.88	212.29
842.20	212.23
842.51	212.17
842.83	212.14
843.14	212.30
843.46	212.33
843.77	212.22
844.08	212.14
844.40	212.07
844.71	212.03
845.03	212.00
845.34	211.94
845.65	211.94
845.97	211.92
846.28	211.85
846.60	211.88
846.91	211.80
847.22	211.76
847.54	211.90
847.85	211.94
848.16	211.92
848.48	211.92
848.79	212.05
849.10	212.00
849.42	212.01
849.73	211.78
850.04	211.78
850.36	211.69
850.67	211.69
850.98	211.69
851.30	211.71
851.61	211.62
851.92	211.68
852.23	211.82
852.55	211.83
852.86	211.86
853.17	211.85
853.49	211.86
853.80	211.96
854.11	211.93
854.42	211.90
854.74	211.92
855.05	211.95
855.36	211.76
855.67	211.79
855.99	211.84
856.30	212.15
856.61	212.17
856.92	212.07
857.23	212.06
857.55	212.15
857.86	212.09
858.17	212.11
858.48	212.02
858.79	211.94
859.11	211.98
859.42	211.95
859.73	211.90
860.04	211.88
860.35	211.74
860.66	211.66
860.98	211.75
861.29	211.72
861.60	211.64
861.91	211.81
862.22	211.83
862.53	211.79
862.84	211.53
863.16	211.61
863.47	211.65
863.78	211.63
864.09	211.56
864.40	211.64
864.71	211.64
865.02	211.64
865.33	211.53
865.64	211.51
865.95	211.54
866.27	211.68
866.58	211.73
866.89	211.84
867.20	211.88
867.51	211.80
867.82	211.81
868.13	211.93
868.44	211.89
868.75	211.99
869.06	211.95
869.37	212.00
869.68	211.88
869.99	211.91
870.30	211.95
870.61	211.98
870.92	211.96
871.23	212.00
871.54	212.02
871.85	212.10
872.16	212.09
872.47	212.02
872.78	211.89
873.09	211.87
873.40	211.79
873.71	211.80
874.02	211.85
874.33	211.80
874.64	211.76
874.95	211.71
875.26	211.70
875.56	211.69
875.87	211.63
876.18	211.58
876.49	211.77
876.80	211.75
877.11	211.72
877.42	211.71
877.73	211.67
878.04	211.64
878.35	211.65
878.66	211.64
878.96	211.68
879.27	211.64
879.58	211.63
879.89	211.64
880.20	211.66
880.51	211.57
880.82	211.62
881.12	211.61
881.43	211.61
881.74	211.51
882.05	211.50
882.36	211.57
882.67	211.63
882.97	211.43
883.28	211.36
883.59	211.35
883.90	211.33
884.21	211.34
884.51	211.32
884.82	211.31
885.13	211.32
885.44	211.35
885.74	211.38
886.05	211.36
886.36	211.36
886.67	211.27
886.98	211.42
887.28	211.40
887.59	211.41
887.90	211.42
888.20	211.40
888.51	211.45
888.82	211.39
889.13	211.41
889.43	211.47
889.74	211.54
890.05	211.57
890.35	211.55
890.66	211.48
890.97	211.48
891.28	211.49
891.58	211.49
891.89	211.46
892.20	211.41
892.50	211.42
892.81	211.40
893.12	211.41
893.42	211.32
893.73	211.25
894.04	211.23
894.34	211.25
894.65	211.19
894.95	211.19
895.26	211.21
895.57	211.21
895.87	211.10
896.18	211.07
896.48	211.02
896.79	211.05
897.10	211.14
897.40	211.17
897.71	211.08
898.01	211.09
898.32	211.12
898.63	211.15
898.93	211.08
899.24	211.08
899.54	211.03
899.85	211.01
900.15	211.07
900.46	211.02
900.76	211.02
901.07	211.00
901.38	210.94
901.68	210.92
901.99	210.87
902.29	210.86
902.60	210.93
902.90	210.97
903.21	210.93
903.51	210.93
903.82	210.94
904.12	210.92
904.43	210.93
904.73	210.91
905.03	210.91
905.34	211.10
905.64	211.11
905.95	211.08
906.25	211.13
906.56	211.09
906.86	211.10
907.17	211.06
907.47	211.14
907.77	211.16
908.08	211.15
908.38	211.14
908.69	211.19
908.99	211.10
909.30	211.07
909.60	211.05
909.90	210.99
910.21	210.91
910.51	210.92
910.81	210.93
911.12	210.98
911.42	211.00
911.73	210.84
912.03	210.85
912.33	210.96
912.64	210.87
912.94	210.91
913.24	210.94
913.55	210.93
913.85	210.90
914.15	210.93
914.46	210.99
914.76	211.02
915.06	210.99
915.37	211.01
915.67	211.00
915.97	211.10
916.27	211.13
916.58	211.13
916.88	211.22
917.18	211.20
917.49	211.26
917.79	211.21
918.09	211.25
918.39	211.34
918.70	211.32
919.00	211.34
919.30	211.44
919.60	211.41
919.91	211.37
920.21	211.43
920.51	211.38
920.81	211.38
921.12	211.30
921.42	211.33
921.72	211.39
922.02	211.43
922.32	211.41
922.63	211.41
922.93	211.58
923.23	211.54
923.53	211.46
923.83	211.31
924.13	211.39
924.44	211.40
924.74	211.34
925.04	211.36
925.34	211.36
925.64	211.27
925.94	211.29
926.24	211.40
926.55	211.37
926.85	211.45
927.15	211.42
927.45	211.49
927.75	211.46
928.05	211.39
928.35	211.39
928.65	211.38
928.95	211.39
929.26	211.28
929.56	211.32
929.86	211.39
930.16	211.43
930.46	211.41
930.76	211.39
931.06	211.36
931.36	211.30
931.66	211.32
931.96	211.32
932.26	211.28
932.56	211.24
932.86	211.25
933.16	211.19
933.46	211.15
933.76	211.12
934.06	211.18
934.36	211.27
934.66	211.32
934.96	211.27
935.26	211.26
935.56	211.26
935.86	211.17
936.16	211.08
936.46	210.99
936.76	210.95
937.06	210.99
937.36	210.94
937.66	210.97
937.96	210.95
938.26	210.90
938.56	210.88
938.86	210.85
939.16	210.84
939.46	210.83
939.76	210.87
940.06	210.84
940.35	210.71
940.65	210.62
940.95	210.49
941.25	210.41
941.55	210.38
941.85	210.44
942.15	210.49
942.45	210.59
942.75	210.66
943.04	210.68
943.34	210.68
943.64	210.70
943.94	210.62
944.24	210.59
944.54	210.61
944.84	210.68
945.13	210.67
945.43	210.70
945.73	210.68
946.03	210.62
946.33	210.62
946.62	210.67
946.92	210.62
947.22	210.68
947.52	210.74
947.82	210.76
948.11	210.73
948.41	210.75
948.71	210.68
949.01	210.70
949.31	210.70
949.60	210.70
949.90	210.72
950.20	210.83
950.50	210.77
950.79	210.75
951.09	210.77
951.39	210.72
951.69	210.69
951.98	210.79
952.28	210.87
952.58	210.88
952.87	210.87
953.17	210.97
953.47	210.99
953.76	211.00
954.06	210.98
954.36	210.96
954.66	210.90
954.95	210.97
955.25	210.96
955.55	210.97
955.84	210.85
956.14	210.95
956.44	210.96
956.73	210.99
957.03	211.02
957.32	211.01
957.62	211.05
957.92	211.09
958.21	211.06
958.51	211.20
958.81	211.30
959.10	211.31
959.40	211.34
959.69	211.33
959.99	211.44
960.29	211.42
960.58	211.38
960.88	211.49
961.17	211.46
961.47	211.45
961.76	211.45
962.06	211.48
962.36	211.37
962.65	211.33
962.95	211.40
963.24	211.44
963.54	211.42
963.83	211.43
964.13	211.47
964.42	211.38
964.72	211.30
965.01	211.27
965.31	211.31
965.60	211.21
965.90	211.32
966.19	211.24
966.49	211.29
966.78	211.31
967.08	211.24
967.37	211.26
967.67	211.20
967.96	211.23
968.26	211.25
968.55	211.30
968.85	211.36
969.14	211.31
969.43	211.22
969.73	211.22
970.02	211.23
970.32	211.20
970.61	211.13
970.91	211.00
971.20	210.95
971.49	210.86
971.79	210.97
972.08	210.85
972.38	210.85
972.67	210.82
972.96	210.87
973.26	210.87
973.55	210.83
973.85	210.87
974.14	210.85
974.43	210.88
974.73	210.87
975.02	210.81
975.31	210.77
975.61	210.78
975.90	210.70
976.19	210.70
976.49	210.66
976.78	210.73
977.07	210.73
977.37	210.69
977.66	210.78
977.95	210.73
978.24	210.72
978.54	210.83
978.83	210.81
979.12	210.77
979.42	210.75
979.71	210.76
980.00	210.75
980.29	210.72
980.59	210.67
980.88	210.65
981.17	210.61
981.46	210.71
981.76	210.77
982.05	210.90
982.34	210.87
982.63	210.94
982.93	210.97
983.22	211.00
983.51	211.05
983.80	211.05
984.09	211.06
984.39	211.00
984.68	210.89
984.97	210.94
985.26	210.94
985.55	211.03
985.85	211.03
986.14	211.09
986.43	211.09
986.72	211.11
987.01	211.15
987.30	211.15
987.59	211.05
987.89	210.98
988.18	210.85
988.47	210.88
988.76	210.79
989.05	210.76
989.34	210.78
989.63	210.81
989.92	210.79
990.22	210.79
990.51	210.87
990.80	210.85
991.09	210.80
991.38	210.85
991.67	210.80
991.96	210.81
992.25	210.80
992.54	210.82
992.83	210.84
993.12	210.80
993.41	210.89
993.70	211.03
993.99	211.08
994.28	211.19
994.58	211.21
994.87	211.25
995.16	211.25
995.45	211.28
995.74	211.20
996.03	211.25
996.32	211.32
996.61	211.23
996.90	211.24
997.19	211.21
997.48	211.22
997.77	211.17
998.06	211.17
998.34	211.17
998.63	211.20
998.92	211.18
999.21	211.18
999.50	211.15
999.79	211.05
1000.08	211.00
1000.37	210.95
1000.66	210.91
1000.95	210.94
1001.24	210.94
1001.53	210.91
1001.82	210.98
1002.11	210.93
1002.40	210.85
1002.68	210.98
1002.97	211.13
1003.26	211.13
1003.55	211.05
1003.84	211.04
1004.13	211.06
1004.42	211.07
1004.71	211.02
1004.99	211.01
1005.28	211.10
1005.57	211.10
1005.86	211.09
1006.15	211.14
1006.44	211.15
1006.72	211.15
1007.01	211.11
1007.30	211.15
1007.59	211.14
1007.88	211.06
1008.17	211.12
1008.45	211.10
1008.74	211.03
1009.03	210.91
1009.32	210.89
1009.60	210.88
1009.89	210.87
1010.18	210.85
1010.47	210.85
1010.76	210.81
1011.04	210.82
1011.33	210.79
1011.62	210.77
1011.91	210.75
1012.19	210.78
1012.48	210.78
1012.77	210.79
1013.05	210.83
1013.34	210.82
1013.63	210.85
1013.92	210.87
1014.20	210.78
1014.49	210.79
1014.78	210.77
1015.06	210.79
1015.35	210.85
1015.64	210.85
1015.92	210.94
1016.21	210.92
1016.50	210.88
1016.78	210.96
1017.07	210.92
1017.36	210.88
1017.64	210.82
1017.93	210.88
1018.22	210.79
1018.50	210.82
1018.79	210.81
1019.08	210.71
1019.36	210.66
1019.65	210.58
1019.93	210.68
1020.22	210.67
1020.51	210.83
1020.79	210.81
1021.08	209.75
1021.36	211.75
1021.65	210.40
1021.94	209.80
1022.22	210.20
1022.51	209.75
1022.79	212.40
1023.08	209.85
1023.36	214.10
1023.65	210.00
>>>>>End Processed Spectral Data<<<<<
