SpectraSuite Data File
++++++++++++++++++++++++++++++++++++
Date: Mon Feb 25 17:32:26 EST 2013
User: group
Dark Spectrum Present: No
Reference Spectrum Present: No
Number of Sampled Component Spectra: 1
Spectrometers: USB2E7196
Integration Time (usec): 52000 (USB2E7196)
Spectra Averaged: 20 (USB2E7196)
Boxcar Smoothing: 10 (USB2E7196)
Correct for Electrical Dark: No (USB2E7196)
Strobe/Lamp Enabled: No (USB2E7196)
Correct for Detector Non-linearity: No (USB2E7196)
Correct for Stray Light: No (USB2E7196)
Number of Pixels in Processed Spectrum: 2048
>>>>>Begin Processed Spectral Data<<<<<
339.09	0.00
339.48	199.20
339.86	200.40
340.24	200.80
340.63	203.50
341.01	207.60
341.39	206.45
341.78	206.25
342.16	209.15
342.54	209.65
342.93	198.04
343.31	207.97
343.69	208.43
344.07	208.84
344.46	209.28
344.84	209.66
345.22	209.82
345.60	210.03
345.99	210.25
346.37	210.36
346.75	210.44
347.13	210.53
347.52	210.51
347.90	210.66
348.28	210.65
348.66	210.74
349.05	210.69
349.43	210.66
349.81	210.68
350.19	210.76
350.57	210.84
350.96	210.89
351.34	211.03
351.72	211.13
352.10	211.24
352.48	211.34
352.87	211.34
353.25	211.35
353.63	211.43
354.01	211.52
354.39	211.61
354.77	211.70
355.15	211.85
355.54	211.95
355.92	211.95
356.30	212.03
356.68	212.24
357.06	212.34
357.44	212.47
357.82	212.57
358.20	212.70
358.58	212.74
358.97	212.83
359.35	212.99
359.73	213.15
360.11	213.24
360.49	213.36
360.87	213.45
361.25	213.65
361.63	213.77
362.01	213.84
362.39	213.86
362.77	213.84
363.15	213.94
363.53	214.05
363.91	214.12
364.29	214.21
364.67	214.08
365.05	214.12
365.43	214.23
365.81	214.30
366.19	214.36
366.57	214.45
366.95	214.43
367.33	214.39
367.71	214.40
368.09	214.45
368.47	214.44
368.85	214.43
369.23	214.36
369.61	214.31
369.99	214.33
370.37	214.34
370.75	214.41
371.13	214.34
371.51	214.24
371.89	214.20
372.27	214.16
372.65	214.18
373.03	214.12
373.41	214.00
373.78	213.94
374.16	213.84
374.54	213.72
374.92	213.74
375.30	213.68
375.68	213.58
376.06	213.56
376.44	213.53
376.82	213.50
377.19	213.47
377.57	213.42
377.95	213.31
378.33	213.25
378.71	213.21
379.09	213.20
379.47	213.17
379.84	213.16
380.22	213.15
380.60	212.98
380.98	212.92
381.36	212.91
381.73	212.86
382.11	212.82
382.49	212.84
382.87	212.76
383.25	212.73
383.62	212.93
384.00	212.89
384.38	212.82
384.76	212.82
385.13	212.87
385.51	212.77
385.89	212.72
386.27	212.68
386.64	212.61
387.02	212.53
387.40	212.43
387.78	212.30
388.15	212.28
388.53	212.29
388.91	212.29
389.29	212.17
389.66	212.22
390.04	212.21
390.42	212.22
390.79	212.15
391.17	212.10
391.55	211.91
391.92	211.84
392.30	211.84
392.68	211.78
393.05	211.75
393.43	211.81
393.81	211.85
394.18	211.80
394.56	211.77
394.94	211.79
395.31	211.87
395.69	212.02
396.06	211.96
396.44	212.00
396.82	211.98
397.19	212.13
397.57	212.01
397.95	211.99
398.32	211.95
398.70	212.12
399.07	212.20
399.45	212.19
399.82	212.17
400.20	212.13
400.58	212.13
400.95	212.08
401.33	212.12
401.70	212.27
402.08	212.33
402.45	212.44
402.83	212.55
403.20	212.59
403.58	212.64
403.95	212.77
404.33	212.86
404.71	212.96
405.08	213.20
405.46	213.39
405.83	213.53
406.21	213.64
406.58	213.71
406.96	213.83
407.33	213.99
407.70	214.23
408.08	214.57
408.45	214.79
408.83	215.04
409.20	215.27
409.58	215.44
409.95	215.77
410.33	216.06
410.70	216.29
411.08	216.70
411.45	217.05
411.82	217.39
412.20	217.81
412.57	218.37
412.95	218.67
413.32	219.15
413.69	219.65
414.07	220.28
414.44	220.91
414.82	221.46
415.19	222.21
415.56	223.00
415.94	223.78
416.31	224.69
416.68	225.57
417.06	226.52
417.43	227.53
417.81	228.56
418.18	229.65
418.55	230.95
418.93	232.14
419.30	233.48
419.67	234.84
420.04	236.19
420.42	237.66
420.79	239.47
421.16	241.19
421.54	243.04
421.91	244.81
422.28	246.73
422.66	248.82
423.03	250.80
423.40	252.79
423.77	254.89
424.15	257.20
424.52	259.54
424.89	262.03
425.26	264.45
425.64	266.91
426.01	269.53
426.38	272.13
426.75	274.85
427.13	277.60
427.50	280.58
427.87	283.78
428.24	286.82
428.61	289.67
428.99	292.95
429.36	296.38
429.73	299.84
430.10	303.25
430.47	306.81
430.85	310.44
431.22	314.35
431.59	318.62
431.96	322.43
432.33	326.69
432.70	330.89
433.08	335.65
433.45	340.14
433.82	344.71
434.19	349.80
434.56	354.79
434.93	359.53
435.30	364.25
435.68	369.29
436.05	374.42
436.42	379.42
436.79	384.00
437.16	388.99
437.53	394.39
437.90	399.63
438.27	404.78
438.64	410.17
439.01	415.11
439.38	419.41
439.75	423.66
440.13	428.37
440.50	432.91
440.87	436.70
441.24	440.56
441.61	444.70
441.98	447.80
442.35	451.42
442.72	455.01
443.09	458.58
443.46	460.82
443.83	462.27
444.20	463.55
444.57	465.37
444.94	466.11
445.31	466.78
445.68	467.41
446.05	467.53
446.42	466.82
446.79	466.06
447.16	465.17
447.53	464.61
447.90	462.62
448.27	460.44
448.64	457.55
449.01	455.37
449.37	451.85
449.74	448.40
450.11	444.26
450.48	439.78
450.85	435.14
451.22	431.19
451.59	427.47
451.96	423.83
452.33	418.99
452.70	414.75
453.07	409.65
453.43	404.56
453.80	399.71
454.17	394.93
454.54	390.39
454.91	385.59
455.28	380.88
455.65	376.51
456.02	372.28
456.38	368.57
456.75	364.06
457.12	360.11
457.49	356.20
457.86	352.43
458.23	349.30
458.59	345.81
458.96	342.26
459.33	339.07
459.70	335.87
460.07	333.46
460.43	330.54
460.80	327.92
461.17	325.56
461.54	323.06
461.91	320.74
462.27	318.38
462.64	316.36
463.01	314.13
463.38	312.03
463.74	309.86
464.11	307.98
464.48	306.32
464.85	304.56
465.21	303.28
465.58	301.94
465.95	300.21
466.32	298.87
466.68	297.52
467.05	296.17
467.42	294.92
467.78	293.48
468.15	292.16
468.52	291.18
468.88	289.95
469.25	288.86
469.62	287.94
469.98	287.01
470.35	286.20
470.72	285.34
471.08	284.33
471.45	283.52
471.82	282.89
472.18	282.00
472.55	281.33
472.92	280.50
473.28	279.85
473.65	279.30
474.02	278.68
474.38	278.20
474.75	277.78
475.11	277.33
475.48	276.97
475.85	276.83
476.21	276.50
476.58	276.33
476.94	276.23
477.31	276.12
477.67	276.03
478.04	275.93
478.41	276.02
478.77	276.43
479.14	276.64
479.50	276.74
479.87	277.07
480.23	277.54
480.60	277.87
480.96	278.26
481.33	278.88
481.69	279.51
482.06	280.19
482.42	280.85
482.79	281.55
483.15	282.52
483.52	283.45
483.88	284.40
484.25	285.43
484.61	286.53
484.98	287.64
485.34	288.90
485.71	290.24
486.07	291.65
486.44	293.05
486.80	294.55
487.17	296.13
487.53	297.93
487.90	299.88
488.26	301.87
488.62	303.94
488.99	306.03
489.35	308.12
489.72	310.43
490.08	312.78
490.44	315.21
490.81	317.79
491.17	320.47
491.54	323.38
491.90	326.27
492.26	329.40
492.63	332.80
492.99	336.19
493.36	339.85
493.72	343.63
494.08	347.58
494.45	351.82
494.81	356.43
495.17	361.02
495.54	365.87
495.90	370.93
496.26	376.19
496.63	381.67
496.99	387.44
497.35	393.41
497.72	399.75
498.08	406.34
498.44	413.07
498.80	420.31
499.17	427.68
499.53	435.36
499.89	443.44
500.26	451.55
500.62	460.01
500.98	468.94
501.34	478.13
501.71	487.52
502.07	497.15
502.43	506.93
502.79	517.16
503.16	527.76
503.52	538.62
503.88	549.71
504.24	561.25
504.60	573.12
504.97	585.42
505.33	597.84
505.69	611.18
506.05	624.67
506.41	638.30
506.78	652.07
507.14	666.34
507.50	680.70
507.86	695.69
508.22	711.04
508.59	726.23
508.95	742.23
509.31	758.36
509.67	775.05
510.03	792.17
510.39	809.73
510.75	827.53
511.12	845.78
511.48	864.13
511.84	882.75
512.20	901.57
512.56	920.59
512.92	940.17
513.28	959.65
513.64	979.17
514.00	998.80
514.37	1019.09
514.73	1039.72
515.09	1060.62
515.45	1081.36
515.81	1102.47
516.17	1123.91
516.53	1145.15
516.89	1166.79
517.25	1188.26
517.61	1209.52
517.97	1230.87
518.33	1252.19
518.69	1273.70
519.05	1295.89
519.41	1317.90
519.77	1340.14
520.13	1362.26
520.49	1384.17
520.85	1406.60
521.21	1428.85
521.57	1451.70
521.93	1473.90
522.29	1496.57
522.65	1518.88
523.01	1541.50
523.37	1563.19
523.73	1585.42
524.09	1607.45
524.45	1629.66
524.81	1652.15
525.17	1674.67
525.53	1696.93
525.89	1719.32
526.25	1741.28
526.61	1762.45
526.97	1783.94
527.33	1805.13
527.68	1826.60
528.04	1847.77
528.40	1868.26
528.76	1889.40
529.12	1910.05
529.48	1931.66
529.84	1951.79
530.20	1972.29
530.56	1992.49
530.91	2013.52
531.27	2033.85
531.63	2053.55
531.99	2073.20
532.35	2092.41
532.71	2111.45
533.07	2131.11
533.42	2149.37
533.78	2168.16
534.14	2186.44
534.50	2203.67
534.86	2221.65
535.21	2238.11
535.57	2255.95
535.93	2273.22
536.29	2289.68
536.65	2306.04
537.00	2321.27
537.36	2336.53
537.72	2351.64
538.08	2366.97
538.44	2382.23
538.79	2397.36
539.15	2412.50
539.51	2426.98
539.87	2441.90
540.22	2456.30
540.58	2470.87
540.94	2485.32
541.29	2498.09
541.65	2510.38
542.01	2523.65
542.37	2535.74
542.72	2548.46
543.08	2559.08
543.44	2570.82
543.79	2581.10
544.15	2591.55
544.51	2602.56
544.87	2613.74
545.22	2622.86
545.58	2631.17
545.94	2637.89
546.29	2644.00
546.65	2650.48
547.01	2656.91
547.36	2662.57
547.72	2667.94
548.07	2672.17
548.43	2676.18
548.79	2680.10
549.14	2684.55
549.50	2688.79
549.86	2692.71
550.21	2696.28
550.57	2700.60
550.92	2703.10
551.28	2705.90
551.64	2708.36
551.99	2710.79
552.35	2712.12
552.70	2714.57
553.06	2717.32
553.41	2720.37
553.77	2723.66
554.13	2725.54
554.48	2727.10
554.84	2728.31
555.19	2728.86
555.55	2729.14
555.90	2729.37
556.26	2729.83
556.61	2729.64
556.97	2728.19
557.32	2727.59
557.68	2725.97
558.03	2724.38
558.39	2722.85
558.74	2722.37
559.10	2721.12
559.45	2719.10
559.81	2718.14
560.16	2715.62
560.52	2713.11
560.87	2710.40
561.23	2706.52
561.58	2704.07
561.94	2701.31
562.29	2697.58
562.64	2695.55
563.00	2693.04
563.35	2690.71
563.71	2689.06
564.06	2686.90
564.42	2685.20
564.77	2682.75
565.12	2680.93
565.48	2677.71
565.83	2674.25
566.19	2671.06
566.54	2666.70
566.89	2662.77
567.25	2658.78
567.60	2655.47
567.96	2651.82
568.31	2648.23
568.66	2644.37
569.02	2639.85
569.37	2634.51
569.72	2631.00
570.08	2625.47
570.43	2619.82
570.78	2614.03
571.14	2607.31
571.49	2600.63
571.84	2594.46
572.20	2587.31
572.55	2580.62
572.90	2573.70
573.26	2567.17
573.61	2559.69
573.96	2553.38
574.31	2545.39
574.67	2537.27
575.02	2528.99
575.37	2520.49
575.72	2511.42
576.08	2504.00
576.43	2495.34
576.78	2487.38
577.13	2479.13
577.49	2471.09
577.84	2463.28
578.19	2455.83
578.54	2448.74
578.90	2442.21
579.25	2433.61
579.60	2424.70
579.95	2415.43
580.30	2407.66
580.66	2399.37
581.01	2390.44
581.36	2380.98
581.71	2372.70
582.06	2364.35
582.42	2355.95
582.77	2346.41
583.12	2337.93
583.47	2329.32
583.82	2321.01
584.17	2312.02
584.53	2302.67
584.88	2293.49
585.23	2284.30
585.58	2274.85
585.93	2264.72
586.28	2255.21
586.63	2246.65
586.98	2238.55
587.34	2230.36
587.69	2220.95
588.04	2211.74
588.39	2203.61
588.74	2194.69
589.09	2185.68
589.44	2176.09
589.79	2167.52
590.14	2159.98
590.49	2151.42
590.84	2142.25
591.19	2134.32
591.54	2125.65
591.89	2115.76
592.25	2107.02
592.60	2097.67
592.95	2088.20
593.30	2079.27
593.65	2069.52
594.00	2059.77
594.35	2051.55
594.70	2042.26
595.05	2033.58
595.40	2024.76
595.75	2015.21
596.10	2007.11
596.45	1998.76
596.80	1991.02
597.15	1983.07
597.50	1973.85
597.85	1965.37
598.19	1957.00
598.54	1948.37
598.89	1940.71
599.24	1934.09
599.59	1926.63
599.94	1919.78
600.29	1912.21
600.64	1904.46
600.99	1896.33
601.34	1889.09
601.69	1880.25
602.04	1872.50
602.39	1864.58
602.74	1857.10
603.08	1850.53
603.43	1843.30
603.78	1835.55
604.13	1827.79
604.48	1819.68
604.83	1812.81
605.18	1805.75
605.53	1798.36
605.87	1790.83
606.22	1783.29
606.57	1775.36
606.92	1767.44
607.27	1759.19
607.62	1752.01
607.96	1744.96
608.31	1738.74
608.66	1730.93
609.01	1723.61
609.36	1715.76
609.70	1707.85
610.05	1700.11
610.40	1691.90
610.75	1683.36
611.10	1675.84
611.44	1666.31
611.79	1657.24
612.14	1647.88
612.49	1638.43
612.83	1629.33
613.18	1619.46
613.53	1610.15
613.88	1600.70
614.22	1591.80
614.57	1582.52
614.92	1572.85
615.27	1563.69
615.61	1553.96
615.96	1545.09
616.31	1536.69
616.65	1528.77
617.00	1520.60
617.35	1511.83
617.70	1503.07
618.04	1494.03
618.39	1484.39
618.74	1476.28
619.08	1467.78
619.43	1459.78
619.78	1452.01
620.12	1443.92
620.47	1436.70
620.82	1428.19
621.16	1419.72
621.51	1411.11
621.85	1403.04
622.20	1394.78
622.55	1386.18
622.89	1377.95
623.24	1370.21
623.59	1361.49
623.93	1352.95
624.28	1344.64
624.62	1336.64
624.97	1328.19
625.32	1320.53
625.66	1313.48
626.01	1306.23
626.35	1299.11
626.70	1291.50
627.04	1283.88
627.39	1276.28
627.73	1268.33
628.08	1261.59
628.43	1254.17
628.77	1246.81
629.12	1239.22
629.46	1232.64
629.81	1225.76
630.15	1218.52
630.50	1210.97
630.84	1203.47
631.19	1196.29
631.53	1189.43
631.88	1181.86
632.22	1174.51
632.57	1167.73
632.91	1160.30
633.26	1152.83
633.60	1145.52
633.95	1138.88
634.29	1131.80
634.64	1125.17
634.98	1118.23
635.32	1111.16
635.67	1105.10
636.01	1098.65
636.36	1092.05
636.70	1085.48
637.05	1078.75
637.39	1072.47
637.73	1066.10
638.08	1060.53
638.42	1054.81
638.77	1048.26
639.11	1042.03
639.45	1035.86
639.80	1029.17
640.14	1022.78
640.49	1016.59
640.83	1010.52
641.17	1004.01
641.52	997.86
641.86	991.35
642.20	985.14
642.55	978.68
642.89	972.05
643.23	965.67
643.58	960.00
643.92	953.55
644.26	947.47
644.61	941.29
644.95	935.21
645.29	928.73
645.64	922.00
645.98	915.95
646.32	910.14
646.66	904.20
647.01	898.23
647.35	892.30
647.69	886.20
648.04	880.16
648.38	874.07
648.72	868.17
649.06	862.21
649.41	856.26
649.75	850.38
650.09	844.66
650.43	838.81
650.78	832.53
651.12	826.39
651.46	820.46
651.80	814.58
652.14	808.72
652.49	802.89
652.83	797.05
653.17	790.99
653.51	785.09
653.85	779.44
654.20	773.82
654.54	768.03
654.88	762.59
655.22	756.86
655.56	750.97
655.90	744.96
656.25	739.36
656.59	733.83
656.93	728.54
657.27	723.28
657.61	717.88
657.95	712.77
658.29	707.79
658.64	702.68
658.98	697.45
659.32	692.06
659.66	686.89
660.00	681.58
660.34	676.46
660.68	671.34
661.02	666.28
661.36	661.43
661.70	656.65
662.05	651.86
662.39	647.42
662.73	643.17
663.07	639.01
663.41	634.63
663.75	630.25
664.09	625.66
664.43	621.06
664.77	616.67
665.11	612.14
665.45	607.68
665.79	603.26
666.13	599.07
666.47	594.98
666.81	590.85
667.15	586.84
667.49	582.94
667.83	579.03
668.17	574.93
668.51	571.20
668.85	567.57
669.19	563.83
669.53	559.89
669.87	555.89
670.21	552.03
670.55	548.14
670.89	544.55
671.23	541.26
671.57	537.70
671.91	534.08
672.25	530.60
672.58	527.18
672.92	523.70
673.26	520.39
673.60	517.09
673.94	513.78
674.28	510.55
674.62	507.38
674.96	504.27
675.30	501.37
675.64	498.22
675.97	495.02
676.31	492.05
676.65	489.14
676.99	486.49
677.33	483.48
677.67	480.65
678.01	477.51
678.34	474.36
678.68	471.48
679.02	468.62
679.36	465.83
679.70	462.98
680.04	460.15
680.37	457.34
680.71	454.56
681.05	451.97
681.39	449.32
681.73	446.64
682.06	444.01
682.40	441.41
682.74	438.73
683.08	436.23
683.42	433.51
683.75	430.93
684.09	428.32
684.43	425.96
684.77	423.39
685.10	421.09
685.44	418.60
685.78	416.27
686.12	414.03
686.45	411.68
686.79	409.42
687.13	407.32
687.46	405.08
687.80	402.91
688.14	400.57
688.48	398.51
688.81	396.33
689.15	394.14
689.49	391.98
689.82	389.85
690.16	387.55
690.50	385.28
690.83	383.05
691.17	380.79
691.51	378.58
691.84	376.50
692.18	374.48
692.52	372.63
692.85	370.69
693.19	368.79
693.52	366.89
693.86	364.91
694.20	363.00
694.53	361.13
694.87	359.19
695.21	357.29
695.54	355.26
695.88	353.39
696.21	351.54
696.55	349.74
696.88	347.94
697.22	346.20
697.56	344.67
697.89	342.99
698.23	341.41
698.56	339.77
698.90	338.20
699.23	336.47
699.57	334.93
699.90	333.21
700.24	331.50
700.58	329.89
700.91	328.41
701.25	326.98
701.58	325.50
701.92	324.09
702.25	322.80
702.59	321.46
702.92	320.10
703.26	318.69
703.59	317.48
703.93	316.41
704.26	315.15
704.60	313.87
704.93	312.67
705.26	311.41
705.60	310.24
705.93	309.06
706.27	307.96
706.60	306.71
706.94	305.75
707.27	304.54
707.61	303.44
707.94	302.32
708.27	301.11
708.61	299.99
708.94	298.79
709.28	297.45
709.61	296.31
709.94	295.25
710.28	294.19
710.61	293.12
710.95	291.84
711.28	290.95
711.61	289.91
711.95	288.92
712.28	287.98
712.61	287.02
712.95	286.10
713.28	285.12
713.61	284.16
713.95	283.14
714.28	282.35
714.61	281.42
714.95	280.51
715.28	279.56
715.61	278.62
715.95	277.80
716.28	277.01
716.61	276.23
716.95	275.38
717.28	274.56
717.61	273.65
717.94	272.94
718.28	272.05
718.61	271.36
718.94	270.61
719.27	269.85
719.61	269.10
719.94	268.33
720.27	267.59
720.60	266.84
720.94	266.08
721.27	265.35
721.60	264.66
721.93	264.09
722.27	263.52
722.60	262.98
722.93	262.35
723.26	261.74
723.59	261.12
723.93	260.56
724.26	260.03
724.59	259.48
724.92	258.87
725.25	258.33
725.59	257.67
725.92	257.15
726.25	256.70
726.58	256.19
726.91	255.63
727.24	255.17
727.57	254.75
727.91	254.25
728.24	253.75
728.57	253.32
728.90	252.84
729.23	252.31
729.56	251.90
729.89	251.51
730.22	251.08
730.55	250.60
730.89	250.23
731.22	249.74
731.55	249.33
731.88	248.88
732.21	248.48
732.54	248.05
732.87	247.69
733.20	247.22
733.53	246.76
733.86	246.42
734.19	245.91
734.52	245.52
734.85	245.27
735.18	244.89
735.51	244.53
735.84	244.04
736.17	243.69
736.50	243.24
736.83	243.05
737.16	242.74
737.49	242.45
737.82	242.09
738.15	241.80
738.48	241.48
738.81	241.19
739.14	240.79
739.47	240.51
739.80	240.07
740.13	239.67
740.46	239.40
740.79	239.06
741.12	238.79
741.45	238.46
741.78	238.10
742.11	237.91
742.44	237.61
742.77	237.49
743.10	237.21
743.43	236.99
743.75	236.48
744.08	236.40
744.41	236.03
744.74	235.69
745.07	235.35
745.40	235.11
745.73	234.95
746.06	234.75
746.39	234.43
746.71	234.18
747.04	233.96
747.37	233.71
747.70	233.55
748.03	233.34
748.36	233.16
748.68	232.87
749.01	232.51
749.34	232.19
749.67	231.86
750.00	231.73
750.33	231.48
750.65	231.24
750.98	230.77
751.31	230.62
751.64	230.45
751.97	230.44
752.29	230.18
752.62	229.87
752.95	229.58
753.28	229.47
753.60	229.32
753.93	229.12
754.26	228.88
754.59	228.59
754.91	228.30
755.24	228.06
755.57	227.89
755.90	227.71
756.22	227.50
756.55	227.29
756.88	226.95
757.20	226.76
757.53	226.53
757.86	226.41
758.19	226.19
758.51	225.94
758.84	225.56
759.17	225.37
759.49	225.14
759.82	225.08
760.15	224.81
760.47	224.60
760.80	224.38
761.13	224.29
761.45	224.05
761.78	223.94
762.11	223.78
762.43	223.64
762.76	223.55
763.08	223.48
763.41	223.30
763.74	223.25
764.06	222.99
764.39	222.93
764.71	222.75
765.04	222.60
765.37	222.53
765.69	222.40
766.02	222.24
766.34	222.11
766.67	221.89
767.00	221.84
767.32	221.77
767.65	221.76
767.97	221.53
768.30	221.45
768.62	221.32
768.95	221.18
769.27	220.95
769.60	220.74
769.92	220.56
770.25	220.43
770.57	220.25
770.90	220.19
771.22	220.04
771.55	219.86
771.87	219.77
772.20	219.58
772.52	219.60
772.85	219.70
773.17	219.60
773.50	219.51
773.82	219.32
774.15	219.20
774.47	219.00
774.80	218.87
775.12	218.84
775.45	218.75
775.77	218.68
776.09	218.58
776.42	218.52
776.74	218.45
777.07	218.35
777.39	218.26
777.72	218.19
778.04	218.16
778.36	218.08
778.69	218.04
779.01	218.00
779.33	217.81
779.66	217.48
779.98	217.46
780.31	217.37
780.63	217.42
780.95	217.31
781.28	217.25
781.60	217.27
781.92	217.23
782.25	217.14
782.57	217.07
782.89	217.12
783.22	217.03
783.54	216.96
783.86	216.94
784.19	216.87
784.51	216.83
784.83	216.70
785.16	216.66
785.48	216.59
785.80	216.55
786.12	216.48
786.45	216.46
786.77	216.38
787.09	216.34
787.42	216.26
787.74	216.23
788.06	216.14
788.38	216.07
788.71	215.95
789.03	215.95
789.35	215.93
789.67	215.86
789.99	215.85
790.32	215.84
790.64	215.86
790.96	215.95
791.28	215.85
791.61	215.75
791.93	215.76
792.25	215.67
792.57	215.75
792.89	215.75
793.21	215.73
793.54	215.69
793.86	215.56
794.18	215.53
794.50	215.52
794.82	215.52
795.14	215.50
795.47	215.46
795.79	215.44
796.11	215.38
796.43	215.30
796.75	215.23
797.07	215.15
797.39	215.07
797.71	214.99
798.04	215.03
798.36	215.01
798.68	214.93
799.00	214.94
799.32	214.76
799.64	214.70
799.96	214.73
800.28	214.72
800.60	214.72
800.92	214.68
801.24	214.61
801.56	214.57
801.89	214.47
802.21	214.48
802.53	214.38
802.85	214.35
803.17	214.42
803.49	214.40
803.81	214.38
804.13	214.28
804.45	214.12
804.77	214.11
805.09	214.17
805.41	214.19
805.73	214.13
806.05	214.08
806.37	214.06
806.69	213.99
807.01	213.96
807.33	213.90
807.65	213.78
807.97	213.80
808.28	213.71
808.60	213.68
808.92	213.62
809.24	213.73
809.56	213.66
809.88	213.52
810.20	213.48
810.52	213.47
810.84	213.45
811.16	213.39
811.48	213.33
811.80	213.36
812.12	213.24
812.43	213.26
812.75	213.25
813.07	213.21
813.39	213.24
813.71	213.18
814.03	213.19
814.35	213.20
814.67	213.14
814.98	213.16
815.30	213.17
815.62	213.16
815.94	212.98
816.26	212.97
816.58	212.92
816.89	212.92
817.21	212.88
817.53	212.92
817.85	213.02
818.17	212.96
818.48	212.85
818.80	212.90
819.12	212.89
819.44	212.92
819.76	212.84
820.07	212.77
820.39	212.74
820.71	212.71
821.03	212.70
821.34	212.66
821.66	212.72
821.98	212.73
822.30	212.73
822.61	212.83
822.93	212.77
823.25	212.77
823.57	212.72
823.88	212.72
824.20	212.71
824.52	212.70
824.83	212.77
825.15	212.71
825.47	212.66
825.79	212.64
826.10	212.59
826.42	212.62
826.74	212.57
827.05	212.60
827.37	212.62
827.69	212.56
828.00	212.61
828.32	212.55
828.64	212.49
828.95	212.55
829.27	212.48
829.58	212.51
829.90	212.59
830.22	212.59
830.53	212.55
830.85	212.53
831.17	212.48
831.48	212.45
831.80	212.47
832.11	212.43
832.43	212.38
832.75	212.34
833.06	212.37
833.38	212.38
833.69	212.31
834.01	212.29
834.32	212.30
834.64	212.26
834.96	212.23
835.27	212.19
835.59	212.11
835.90	212.13
836.22	212.08
836.53	212.00
836.85	212.05
837.16	212.25
837.48	212.23
837.79	212.24
838.11	212.23
838.42	212.24
838.74	212.30
839.05	212.28
839.37	212.35
839.68	212.29
840.00	212.26
840.31	212.33
840.63	212.36
840.94	212.32
841.26	212.21
841.57	212.21
841.88	212.26
842.20	212.19
842.51	212.07
842.83	212.16
843.14	212.34
843.46	212.21
843.77	212.08
844.08	212.09
844.40	212.10
844.71	212.04
845.03	212.01
845.34	211.96
845.65	211.94
845.97	211.84
846.28	211.81
846.60	211.86
846.91	211.83
847.22	211.82
847.54	211.90
847.85	211.99
848.16	212.01
848.48	211.97
848.79	212.10
849.10	212.19
849.42	212.12
849.73	211.98
850.04	212.05
850.36	212.01
850.67	211.92
850.98	211.83
851.30	211.85
851.61	211.86
851.92	211.83
852.23	211.92
852.55	211.90
852.86	211.97
853.17	211.94
853.49	211.94
853.80	211.90
854.11	211.90
854.42	211.88
854.74	211.80
855.05	211.82
855.36	211.63
855.67	211.63
855.99	211.66
856.30	211.82
856.61	211.77
856.92	211.68
857.23	211.72
857.55	211.77
857.86	211.76
858.17	211.77
858.48	211.76
858.79	211.65
859.11	211.70
859.42	211.64
859.73	211.63
860.04	211.61
860.35	211.59
860.66	211.56
860.98	211.58
861.29	211.66
861.60	211.61
861.91	211.68
862.22	211.67
862.53	211.66
862.84	211.47
863.16	211.52
863.47	211.54
863.78	211.49
864.09	211.50
864.40	211.44
864.71	211.40
865.02	211.39
865.33	211.32
865.64	211.31
865.95	211.33
866.27	211.40
866.58	211.36
866.89	211.37
867.20	211.34
867.51	211.26
867.82	211.18
868.13	211.22
868.44	211.19
868.75	211.22
869.06	211.22
869.37	211.21
869.68	211.11
869.99	211.19
870.30	211.22
870.61	211.20
870.92	211.23
871.23	211.25
871.54	211.39
871.85	211.50
872.16	211.50
872.47	211.50
872.78	211.45
873.09	211.48
873.40	211.43
873.71	211.40
874.02	211.40
874.33	211.47
874.64	211.45
874.95	211.50
875.26	211.46
875.56	211.40
875.87	211.45
876.18	211.52
876.49	211.69
876.80	211.71
877.11	211.69
877.42	211.69
877.73	211.65
878.04	211.58
878.35	211.61
878.66	211.61
878.96	211.67
879.27	211.71
879.58	211.73
879.89	211.74
880.20	211.83
880.51	211.87
880.82	211.88
881.12	211.83
881.43	211.78
881.74	211.70
882.05	211.71
882.36	211.71
882.67	211.64
882.97	211.37
883.28	211.38
883.59	211.35
883.90	211.37
884.21	211.35
884.51	211.38
884.82	211.39
885.13	211.45
885.44	211.36
885.74	211.32
886.05	211.25
886.36	211.28
886.67	211.21
886.98	211.31
887.28	211.31
887.59	211.37
887.90	211.40
888.20	211.47
888.51	211.52
888.82	211.47
889.13	211.52
889.43	211.71
889.74	211.66
890.05	211.73
890.35	211.73
890.66	211.76
890.97	211.75
891.28	211.61
891.58	211.57
891.89	211.64
892.20	211.62
892.50	211.64
892.81	211.63
893.12	211.66
893.42	211.55
893.73	211.61
894.04	211.67
894.34	211.72
894.65	211.64
894.95	211.69
895.26	211.66
895.57	211.79
895.87	211.65
896.18	211.70
896.48	211.62
896.79	211.60
897.10	211.68
897.40	211.67
897.71	211.74
898.01	211.74
898.32	211.65
898.63	211.65
898.93	211.65
899.24	211.64
899.54	211.57
899.85	211.55
900.15	211.47
900.46	211.44
900.76	211.42
901.07	211.40
901.38	211.32
901.68	211.35
901.99	211.22
902.29	211.21
902.60	211.10
902.90	211.13
903.21	211.06
903.51	210.97
903.82	211.00
904.12	210.98
904.43	210.97
904.73	211.01
905.03	211.01
905.34	211.19
905.64	211.21
905.95	211.20
906.25	211.21
906.56	211.19
906.86	211.13
907.17	211.12
907.47	211.12
907.77	211.12
908.08	211.07
908.38	211.07
908.69	211.09
908.99	211.22
909.30	211.22
909.60	211.25
909.90	211.25
910.21	211.17
910.51	211.17
910.81	211.13
911.12	211.16
911.42	211.11
911.73	210.95
912.03	210.93
912.33	211.03
912.64	211.00
912.94	210.97
913.24	210.90
913.55	210.88
913.85	210.92
914.15	210.93
914.46	210.99
914.76	210.98
915.06	210.97
915.37	210.93
915.67	210.88
915.97	210.94
916.27	210.87
916.58	210.88
916.88	210.95
917.18	210.97
917.49	211.08
917.79	211.16
918.09	211.17
918.39	211.23
918.70	211.25
919.00	211.32
919.30	211.39
919.60	211.41
919.91	211.32
920.21	211.34
920.51	211.34
920.81	211.30
921.12	211.35
921.42	211.34
921.72	211.34
922.02	211.33
922.32	211.34
922.63	211.43
922.93	211.52
923.23	211.48
923.53	211.47
923.83	211.33
924.13	211.31
924.44	211.30
924.74	211.31
925.04	211.34
925.34	211.33
925.64	211.33
925.94	211.37
926.24	211.51
926.55	211.57
926.85	211.58
927.15	211.64
927.45	211.62
927.75	211.65
928.05	211.65
928.35	211.68
928.65	211.70
928.95	211.66
929.26	211.60
929.56	211.60
929.86	211.57
930.16	211.54
930.46	211.55
930.76	211.52
931.06	211.39
931.36	211.29
931.66	211.30
931.96	211.30
932.26	211.28
932.56	211.22
932.86	211.16
933.16	211.11
933.46	211.04
933.76	211.00
934.06	210.98
934.36	211.06
934.66	211.09
934.96	211.08
935.26	211.14
935.56	211.16
935.86	211.13
936.16	211.10
936.46	211.13
936.76	211.07
937.06	211.10
937.36	211.18
937.66	211.22
937.96	211.16
938.26	211.11
938.56	211.15
938.86	211.20
939.16	211.18
939.46	211.27
939.76	211.33
940.06	211.31
940.35	211.34
940.65	211.24
940.95	211.22
941.25	211.19
941.55	211.11
941.85	211.08
942.15	211.16
942.45	211.26
942.75	211.26
943.04	211.29
943.34	211.23
943.64	211.21
943.94	211.16
944.24	211.16
944.54	211.15
944.84	211.10
945.13	211.10
945.43	211.08
945.73	211.00
946.03	210.96
946.33	211.00
946.62	210.92
946.92	210.94
947.22	210.97
947.52	211.00
947.82	211.07
948.11	211.07
948.41	211.00
948.71	210.96
949.01	210.96
949.31	210.94
949.60	210.98
949.90	211.01
950.20	210.98
950.50	211.05
950.79	211.04
951.09	211.08
951.39	211.03
951.69	211.03
951.98	211.12
952.28	211.11
952.58	211.04
952.87	211.01
953.17	210.99
953.47	210.94
953.76	210.94
954.06	210.92
954.36	210.84
954.66	210.77
954.95	210.84
955.25	210.86
955.55	210.88
955.84	210.87
956.14	210.80
956.44	210.79
956.73	210.71
957.03	210.72
957.32	210.73
957.62	210.71
957.92	210.69
958.21	210.63
958.51	210.78
958.81	210.89
959.10	210.89
959.40	210.91
959.69	210.91
959.99	210.86
960.29	210.83
960.58	210.87
960.88	211.04
961.17	210.93
961.47	210.96
961.76	210.95
962.06	210.97
962.36	210.96
962.65	211.05
962.95	211.05
963.24	211.02
963.54	210.98
963.83	210.98
964.13	211.05
964.42	211.00
964.72	210.93
965.01	210.83
965.31	210.90
965.60	210.86
965.90	210.97
966.19	211.00
966.49	210.97
966.78	210.97
967.08	210.92
967.37	210.94
967.67	210.81
967.96	210.82
968.26	210.85
968.55	210.90
968.85	210.81
969.14	210.87
969.43	210.95
969.73	210.94
970.02	210.95
970.32	210.89
970.61	210.98
970.91	210.94
971.20	211.02
971.49	211.00
971.79	211.08
972.08	210.96
972.38	210.90
972.67	210.95
972.96	210.95
973.26	210.90
973.55	211.02
973.85	211.10
974.14	211.10
974.43	211.04
974.73	211.05
975.02	211.09
975.31	211.09
975.61	211.04
975.90	211.07
976.19	211.08
976.49	211.09
976.78	211.04
977.07	210.98
977.37	210.94
977.66	210.97
977.95	210.91
978.24	210.95
978.54	211.04
978.83	211.04
979.12	211.06
979.42	211.01
979.71	210.92
980.00	210.95
980.29	210.96
980.59	210.93
980.88	211.00
981.17	211.05
981.46	210.98
981.76	210.96
982.05	210.97
982.34	210.97
982.63	210.97
982.93	211.02
983.22	211.05
983.51	211.02
983.80	211.05
984.09	211.11
984.39	211.06
984.68	211.02
984.97	211.10
985.26	211.00
985.55	211.05
985.85	211.02
986.14	211.02
986.43	211.04
986.72	211.05
987.01	210.98
987.30	210.89
987.59	210.95
987.89	210.95
988.18	210.95
988.47	210.94
988.76	210.91
989.05	210.87
989.34	210.92
989.63	211.02
989.92	210.97
990.22	210.91
990.51	210.87
990.80	210.83
991.09	210.76
991.38	210.91
991.67	210.93
991.96	210.85
992.25	210.86
992.54	210.85
992.83	210.91
993.12	210.90
993.41	211.02
993.70	211.08
993.99	211.12
994.28	211.16
994.58	211.22
994.87	211.32
995.16	211.32
995.45	211.23
995.74	211.13
996.03	211.23
996.32	211.23
996.61	211.33
996.90	211.34
997.19	211.36
997.48	211.33
997.77	211.30
998.06	211.41
998.34	211.40
998.63	211.32
998.92	211.31
999.21	211.31
999.50	211.21
999.79	211.16
1000.08	211.11
1000.37	211.06
1000.66	211.10
1000.95	211.12
1001.24	211.16
1001.53	211.23
1001.82	211.28
1002.11	211.29
1002.40	211.36
1002.68	211.40
1002.97	211.50
1003.26	211.48
1003.55	211.43
1003.84	211.41
1004.13	211.41
1004.42	211.37
1004.71	211.43
1004.99	211.39
1005.28	211.43
1005.57	211.48
1005.86	211.44
1006.15	211.45
1006.44	211.42
1006.72	211.43
1007.01	211.36
1007.30	211.38
1007.59	211.33
1007.88	211.31
1008.17	211.23
1008.45	211.16
1008.74	211.15
1009.03	211.16
1009.32	211.10
1009.60	211.09
1009.89	211.12
1010.18	211.11
1010.47	211.16
1010.76	211.16
1011.04	211.17
1011.33	211.12
1011.62	211.20
1011.91	211.22
1012.19	211.24
1012.48	211.26
1012.77	211.15
1013.05	211.25
1013.34	211.22
1013.63	211.20
1013.92	211.26
1014.20	211.25
1014.49	211.29
1014.78	211.25
1015.06	211.17
1015.35	211.25
1015.64	211.32
1015.92	211.36
1016.21	211.25
1016.50	211.22
1016.78	211.20
1017.07	211.20
1017.36	211.16
1017.64	211.08
1017.93	211.14
1018.22	211.07
1018.50	211.08
1018.79	211.13
1019.08	210.96
1019.36	210.92
1019.65	210.92
1019.93	210.93
1020.22	210.93
1020.51	211.00
1020.79	210.97
1021.08	209.70
1021.36	210.90
1021.65	211.30
1021.94	209.60
1022.22	210.40
1022.51	210.25
1022.79	212.35
1023.08	210.75
1023.36	213.00
1023.65	210.50
>>>>>End Processed Spectral Data<<<<<
