SpectraSuite Data File
++++++++++++++++++++++++++++++++++++
Date: Mon Feb 25 17:32:43 EST 2013
User: group
Dark Spectrum Present: No
Reference Spectrum Present: No
Number of Sampled Component Spectra: 1
Spectrometers: USB2E7196
Integration Time (usec): 52000 (USB2E7196)
Spectra Averaged: 20 (USB2E7196)
Boxcar Smoothing: 10 (USB2E7196)
Correct for Electrical Dark: No (USB2E7196)
Strobe/Lamp Enabled: No (USB2E7196)
Correct for Detector Non-linearity: No (USB2E7196)
Correct for Stray Light: No (USB2E7196)
Number of Pixels in Processed Spectrum: 2048
>>>>>Begin Processed Spectral Data<<<<<
339.09	0.00
339.48	198.75
339.86	199.60
340.24	202.50
340.63	204.05
341.01	206.80
341.39	205.90
341.78	207.20
342.16	208.05
342.54	209.25
342.93	198.27
343.31	208.29
343.69	208.87
344.07	209.35
344.46	209.81
344.84	210.18
345.22	210.43
345.60	210.72
345.99	210.96
346.37	211.13
346.75	211.28
347.13	211.41
347.52	211.48
347.90	211.57
348.28	211.60
348.66	211.75
349.05	211.73
349.43	211.81
349.81	211.87
350.19	211.91
350.57	211.98
350.96	212.07
351.34	212.20
351.72	212.29
352.10	212.42
352.48	212.51
352.87	212.49
353.25	212.50
353.63	212.55
354.01	212.62
354.39	212.70
354.77	212.73
355.15	212.86
355.54	212.94
355.92	212.91
356.30	213.00
356.68	213.16
357.06	213.32
357.44	213.31
357.82	213.38
358.20	213.48
358.58	213.52
358.97	213.55
359.35	213.64
359.73	213.69
360.11	213.79
360.49	213.80
360.87	213.95
361.25	214.09
361.63	214.16
362.01	214.20
362.39	214.23
362.77	214.28
363.15	214.35
363.53	214.34
363.91	214.45
364.29	214.47
364.67	214.35
365.05	214.23
365.43	214.30
365.81	214.37
366.19	214.48
366.57	214.60
366.95	214.65
367.33	214.61
367.71	214.64
368.09	214.70
368.47	214.67
368.85	214.61
369.23	214.61
369.61	214.59
369.99	214.59
370.37	214.62
370.75	214.65
371.13	214.54
371.51	214.46
371.89	214.39
372.27	214.38
372.65	214.30
373.03	214.33
373.41	214.25
373.78	214.15
374.16	213.97
374.54	213.88
374.92	213.83
375.30	213.83
375.68	213.74
376.06	213.65
376.44	213.54
376.82	213.49
377.19	213.41
377.57	213.35
377.95	213.20
378.33	213.16
378.71	213.01
379.09	212.96
379.47	212.90
379.84	212.89
380.22	212.76
380.60	212.66
380.98	212.64
381.36	212.58
381.73	212.56
382.11	212.49
382.49	212.52
382.87	212.48
383.25	212.33
383.62	212.44
384.00	212.38
384.38	212.43
384.76	212.45
385.13	212.52
385.51	212.43
385.89	212.42
386.27	212.36
386.64	212.41
387.02	212.34
387.40	212.32
387.78	212.26
388.15	212.27
388.53	212.30
388.91	212.22
389.29	212.18
389.66	212.20
390.04	212.25
390.42	212.16
390.79	212.06
391.17	212.14
391.55	211.92
391.92	211.89
392.30	211.84
392.68	211.79
393.05	211.67
393.43	211.74
393.81	211.71
394.18	211.72
394.56	211.65
394.94	211.68
395.31	211.71
395.69	211.77
396.06	211.84
396.44	211.83
396.82	211.80
397.19	211.91
397.57	211.81
397.95	211.85
398.32	211.76
398.70	211.77
399.07	211.76
399.45	211.86
399.82	211.89
400.20	211.89
400.58	211.91
400.95	211.92
401.33	211.91
401.70	212.11
402.08	212.14
402.45	212.20
402.83	212.33
403.20	212.38
403.58	212.42
403.95	212.48
404.33	212.63
404.71	212.77
405.08	212.91
405.46	213.09
405.83	213.19
406.21	213.41
406.58	213.57
406.96	213.76
407.33	213.88
407.70	214.04
408.08	214.44
408.45	214.75
408.83	214.97
409.20	215.21
409.58	215.37
409.95	215.68
410.33	216.04
410.70	216.32
411.08	216.72
411.45	217.09
411.82	217.42
412.20	217.86
412.57	218.41
412.95	218.77
413.32	219.26
413.69	219.80
414.07	220.31
414.44	220.98
414.82	221.65
415.19	222.41
415.56	223.15
415.94	223.87
416.31	224.72
416.68	225.60
417.06	226.61
417.43	227.61
417.81	228.66
418.18	229.73
418.55	230.94
418.93	232.19
419.30	233.59
419.67	234.95
420.04	236.30
420.42	237.73
420.79	239.52
421.16	241.32
421.54	243.10
421.91	245.05
422.28	246.90
422.66	248.85
423.03	250.92
423.40	252.96
423.77	255.16
424.15	257.37
424.52	259.72
424.89	262.24
425.26	264.58
425.64	266.90
426.01	269.51
426.38	272.14
426.75	274.80
427.13	277.50
427.50	280.40
427.87	283.53
428.24	286.60
428.61	289.42
428.99	292.64
429.36	296.12
429.73	299.45
430.10	303.04
430.47	306.59
430.85	310.18
431.22	314.10
431.59	318.20
431.96	322.12
432.33	326.48
432.70	330.63
433.08	335.63
433.45	340.32
433.82	344.89
434.19	350.16
434.56	355.28
434.93	360.05
435.30	364.92
435.68	370.24
436.05	375.34
436.42	380.48
436.79	385.15
437.16	390.12
437.53	395.48
437.90	400.54
438.27	405.67
438.64	411.03
439.01	415.93
439.38	420.26
439.75	424.46
440.13	429.21
440.50	433.79
440.87	437.50
441.24	441.36
441.61	445.61
441.98	448.51
442.35	451.99
442.72	455.67
443.09	459.13
443.46	460.98
443.83	462.38
444.20	463.52
444.57	465.28
444.94	466.11
445.31	466.81
445.68	467.65
446.05	467.95
446.42	467.16
446.79	466.34
447.16	465.54
447.53	464.80
447.90	462.71
448.27	460.58
448.64	457.58
449.01	455.30
449.37	451.65
449.74	448.21
450.11	444.09
450.48	439.55
450.85	434.92
451.22	431.13
451.59	427.45
451.96	423.99
452.33	419.24
452.70	414.81
453.07	409.65
453.43	404.40
453.80	399.46
454.17	394.81
454.54	390.40
454.91	385.56
455.28	380.97
455.65	376.58
456.02	372.28
456.38	368.69
456.75	364.17
457.12	360.27
457.49	356.37
457.86	352.70
458.23	349.46
458.59	346.02
458.96	342.49
459.33	339.30
459.70	336.07
460.07	333.59
460.43	330.89
460.80	328.31
461.17	326.03
461.54	323.45
461.91	321.10
462.27	318.75
462.64	316.75
463.01	314.51
463.38	312.42
463.74	310.23
464.11	308.27
464.48	306.64
464.85	304.85
465.21	303.49
465.58	302.05
465.95	300.39
466.32	298.98
466.68	297.56
467.05	296.26
467.42	294.90
467.78	293.41
468.15	291.99
468.52	291.14
468.88	289.87
469.25	288.76
469.62	287.80
469.98	286.83
470.35	285.89
470.72	285.10
471.08	284.08
471.45	283.24
471.82	282.51
472.18	281.62
472.55	281.12
472.92	280.47
473.28	279.85
473.65	279.24
474.02	278.69
474.38	278.30
474.75	277.88
475.11	277.48
475.48	277.14
475.85	276.86
476.21	276.43
476.58	276.26
476.94	276.17
477.31	276.12
477.67	275.99
478.04	276.03
478.41	276.14
478.77	276.51
479.14	276.69
479.50	276.91
479.87	277.20
480.23	277.58
480.60	277.95
480.96	278.25
481.33	278.92
481.69	279.55
482.06	280.10
482.42	280.80
482.79	281.57
483.15	282.57
483.52	283.68
483.88	284.69
484.25	285.69
484.61	286.81
484.98	287.95
485.34	289.29
485.71	290.61
486.07	291.92
486.44	293.15
486.80	294.67
487.17	296.33
487.53	298.24
487.90	299.98
488.26	301.92
488.62	304.09
488.99	306.10
489.35	308.30
489.72	310.62
490.08	313.03
490.44	315.60
490.81	318.25
491.17	320.99
491.54	323.83
491.90	326.84
492.26	330.12
492.63	333.43
492.99	336.92
493.36	340.61
493.72	344.49
494.08	348.65
494.45	353.00
494.81	357.45
495.17	361.95
495.54	366.92
495.90	371.97
496.26	377.12
496.63	382.64
496.99	388.32
497.35	394.44
497.72	400.52
498.08	406.98
498.44	413.68
498.80	420.85
499.17	428.25
499.53	435.85
499.89	443.74
500.26	451.90
500.62	460.23
500.98	469.09
501.34	478.26
501.71	487.64
502.07	497.20
502.43	507.11
502.79	517.30
503.16	527.89
503.52	538.85
503.88	550.22
504.24	561.76
504.60	573.62
504.97	585.72
505.33	598.30
505.69	611.41
506.05	624.78
506.41	638.15
506.78	651.90
507.14	666.08
507.50	680.74
507.86	695.72
508.22	710.97
508.59	726.59
508.95	742.58
509.31	758.95
509.67	775.66
510.03	792.86
510.39	810.37
510.75	828.21
511.12	846.24
511.48	864.57
511.84	883.06
512.20	901.56
512.56	921.01
512.92	940.58
513.28	959.84
513.64	979.65
514.00	999.70
514.37	1020.07
514.73	1040.80
515.09	1061.28
515.45	1082.13
515.81	1103.28
516.17	1124.57
516.53	1145.87
516.89	1167.39
517.25	1188.84
517.61	1210.13
517.97	1231.57
518.33	1252.90
518.69	1274.72
519.05	1296.68
519.41	1319.01
519.77	1341.79
520.13	1363.60
520.49	1385.57
520.85	1408.57
521.21	1431.10
521.57	1453.89
521.93	1476.05
522.29	1498.68
522.65	1521.20
523.01	1543.69
523.37	1566.03
523.73	1588.21
524.09	1610.40
524.45	1632.61
524.81	1654.81
525.17	1677.14
525.53	1699.77
525.89	1722.12
526.25	1743.77
526.61	1765.01
526.97	1786.36
527.33	1807.58
527.68	1829.23
528.04	1850.63
528.40	1870.96
528.76	1891.37
529.12	1911.79
529.48	1933.40
529.84	1953.79
530.20	1974.31
530.56	1994.56
530.91	2014.79
531.27	2034.89
531.63	2054.66
531.99	2074.23
532.35	2093.66
532.71	2112.78
533.07	2132.33
533.42	2150.76
533.78	2169.93
534.14	2188.39
534.50	2205.77
534.86	2223.64
535.21	2240.18
535.57	2257.95
535.93	2274.97
536.29	2291.76
536.65	2308.64
537.00	2323.84
537.36	2339.12
537.72	2354.43
538.08	2369.78
538.44	2385.28
538.79	2400.67
539.15	2415.85
539.51	2430.48
539.87	2445.54
540.22	2460.18
540.58	2474.66
540.94	2489.41
541.29	2502.12
541.65	2514.26
542.01	2527.29
542.37	2539.37
542.72	2551.83
543.08	2562.38
543.44	2574.05
543.79	2584.43
544.15	2594.47
544.51	2605.51
544.87	2616.85
545.22	2626.08
545.58	2634.42
545.94	2641.63
546.29	2648.21
546.65	2654.39
547.01	2660.41
547.36	2666.32
547.72	2671.77
548.07	2675.73
548.43	2679.46
548.79	2683.52
549.14	2688.45
549.50	2692.94
549.86	2696.64
550.21	2700.63
550.57	2705.05
550.92	2707.98
551.28	2710.88
551.64	2713.58
551.99	2715.81
552.35	2716.80
552.70	2719.42
553.06	2722.41
553.41	2725.35
553.77	2728.11
554.13	2730.28
554.48	2732.45
554.84	2733.57
555.19	2734.25
555.55	2734.89
555.90	2735.18
556.26	2735.52
556.61	2734.99
556.97	2733.59
557.32	2733.29
557.68	2731.30
558.03	2729.74
558.39	2728.38
558.74	2727.74
559.10	2726.32
559.45	2724.66
559.81	2723.96
560.16	2721.10
560.52	2718.24
560.87	2715.43
561.23	2711.71
561.58	2709.55
561.94	2706.48
562.29	2703.01
562.64	2700.29
563.00	2697.77
563.35	2695.58
563.71	2693.82
564.06	2691.84
564.42	2690.00
564.77	2687.70
565.12	2686.26
565.48	2682.85
565.83	2679.57
566.19	2676.27
566.54	2671.97
566.89	2667.91
567.25	2664.02
567.60	2660.85
567.96	2657.24
568.31	2653.66
568.66	2649.75
569.02	2644.77
569.37	2639.62
569.72	2635.69
570.08	2630.32
570.43	2624.48
570.78	2618.83
571.14	2612.44
571.49	2605.95
571.84	2600.08
572.20	2592.93
572.55	2586.35
572.90	2579.58
573.26	2572.73
573.61	2565.68
573.96	2559.31
574.31	2551.42
574.67	2543.20
575.02	2534.68
575.37	2526.04
575.72	2517.24
576.08	2509.79
576.43	2501.20
576.78	2493.43
577.13	2485.17
577.49	2477.33
577.84	2469.70
578.19	2461.95
578.54	2454.48
578.90	2447.47
579.25	2438.91
579.60	2430.16
579.95	2420.73
580.30	2412.58
580.66	2404.62
581.01	2395.37
581.36	2386.09
581.71	2377.94
582.06	2369.34
582.42	2360.94
582.77	2352.15
583.12	2343.18
583.47	2334.36
583.82	2326.10
584.17	2317.09
584.53	2308.19
584.88	2299.38
585.23	2290.20
585.58	2280.81
585.93	2271.30
586.28	2262.10
586.63	2253.05
586.98	2244.69
587.34	2236.49
587.69	2227.63
588.04	2218.50
588.39	2210.34
588.74	2201.65
589.09	2192.96
589.44	2183.24
589.79	2175.11
590.14	2167.16
590.49	2158.42
590.84	2149.40
591.19	2141.41
591.54	2132.60
591.89	2122.50
592.25	2113.40
592.60	2104.38
592.95	2095.17
593.30	2085.69
593.65	2075.79
594.00	2066.20
594.35	2057.88
594.70	2048.39
595.05	2039.61
595.40	2030.48
595.75	2020.86
596.10	2012.48
596.45	2003.74
596.80	1996.42
597.15	1987.83
597.50	1978.74
597.85	1970.58
598.19	1962.22
598.54	1953.18
598.89	1945.43
599.24	1938.68
599.59	1931.29
599.94	1924.00
600.29	1916.08
600.64	1908.19
600.99	1900.09
601.34	1892.84
601.69	1883.97
602.04	1875.99
602.39	1867.89
602.74	1860.03
603.08	1853.43
603.43	1846.10
603.78	1838.26
604.13	1829.88
604.48	1821.80
604.83	1814.67
605.18	1807.62
605.53	1799.80
605.87	1792.45
606.22	1784.91
606.57	1776.97
606.92	1768.80
607.27	1760.69
607.62	1753.66
607.96	1746.89
608.31	1740.56
608.66	1732.74
609.01	1725.32
609.36	1717.71
609.70	1709.85
610.05	1702.51
610.40	1694.37
610.75	1685.69
611.10	1678.21
611.44	1669.39
611.79	1660.54
612.14	1651.25
612.49	1641.70
612.83	1633.13
613.18	1623.43
613.53	1614.09
613.88	1604.35
614.22	1595.72
614.57	1586.44
614.92	1576.93
615.27	1567.36
615.61	1557.74
615.96	1548.95
616.31	1540.42
616.65	1532.50
617.00	1524.18
617.35	1515.20
617.70	1506.46
618.04	1497.80
618.39	1488.50
618.74	1480.17
619.08	1471.70
619.43	1463.59
619.78	1455.94
620.12	1447.77
620.47	1440.23
620.82	1431.92
621.16	1424.05
621.51	1415.28
621.85	1406.98
622.20	1398.59
622.55	1390.30
622.89	1381.88
623.24	1373.89
623.59	1365.19
623.93	1356.45
624.28	1347.98
624.62	1339.98
624.97	1331.57
625.32	1323.71
625.66	1316.16
626.01	1308.82
626.35	1301.62
626.70	1293.98
627.04	1286.37
627.39	1278.83
627.73	1271.30
628.08	1264.17
628.43	1256.66
628.77	1249.40
629.12	1242.03
629.46	1235.31
629.81	1228.20
630.15	1221.00
630.50	1213.65
630.84	1206.50
631.19	1199.53
631.53	1193.04
631.88	1185.50
632.22	1177.90
632.57	1170.98
632.91	1163.60
633.26	1156.08
633.60	1149.01
633.95	1142.31
634.29	1134.71
634.64	1127.83
634.98	1120.83
635.32	1113.99
635.67	1107.65
636.01	1100.86
636.36	1094.05
636.70	1087.35
637.05	1080.89
637.39	1074.54
637.73	1068.18
638.08	1062.55
638.42	1056.64
638.77	1049.86
639.11	1043.68
639.45	1037.76
639.80	1031.08
640.14	1024.78
640.49	1018.56
640.83	1012.22
641.17	1005.78
641.52	999.97
641.86	993.55
642.20	987.29
642.55	980.54
642.89	973.83
643.23	967.57
643.58	961.71
643.92	955.27
644.26	948.91
644.61	942.82
644.95	936.57
645.29	930.14
645.64	923.53
645.98	917.48
646.32	911.62
646.66	905.64
647.01	899.60
647.35	893.90
647.69	887.64
648.04	881.60
648.38	875.55
648.72	869.55
649.06	863.47
649.41	857.40
649.75	851.65
650.09	845.98
650.43	840.31
650.78	834.15
651.12	827.79
651.46	821.93
651.80	816.12
652.14	810.35
652.49	804.44
652.83	798.61
653.17	792.65
653.51	786.68
653.85	780.89
654.20	775.17
654.54	769.29
654.88	763.90
655.22	758.12
655.56	752.19
655.90	746.45
656.25	740.86
656.59	735.47
656.93	730.30
657.27	724.94
657.61	719.38
657.95	714.26
658.29	709.41
658.64	704.36
658.98	699.11
659.32	693.71
659.66	688.46
660.00	683.10
660.34	677.85
660.68	672.60
661.02	667.60
661.36	662.93
661.70	657.91
662.05	653.17
662.39	648.69
662.73	644.50
663.07	640.23
663.41	636.02
663.75	631.41
664.09	626.74
664.43	622.05
664.77	617.75
665.11	613.31
665.45	608.85
665.79	604.35
666.13	599.99
666.47	595.94
666.81	591.80
667.15	587.83
667.49	583.98
667.83	580.18
668.17	576.34
668.51	572.53
668.85	569.06
669.19	565.34
669.53	561.46
669.87	557.36
670.21	553.43
670.55	549.33
670.89	545.85
671.23	542.40
671.57	539.02
671.91	535.33
672.25	531.86
672.58	528.36
672.92	525.05
673.26	521.84
673.60	518.52
673.94	515.19
674.28	511.96
674.62	508.75
674.96	505.44
675.30	502.28
675.64	499.08
675.97	495.73
676.31	492.62
676.65	489.71
676.99	487.10
677.33	484.08
677.67	481.28
678.01	478.21
678.34	475.24
678.68	472.37
679.02	469.42
679.36	466.59
679.70	463.78
680.04	460.78
680.37	457.83
680.71	454.99
681.05	452.24
681.39	449.49
681.73	446.90
682.06	444.50
682.40	441.89
682.74	439.24
683.08	436.67
683.42	434.11
683.75	431.51
684.09	428.75
684.43	426.33
684.77	423.67
685.10	421.19
685.44	418.64
685.78	416.16
686.12	413.96
686.45	411.49
686.79	409.27
687.13	407.21
687.46	405.13
687.80	403.03
688.14	400.86
688.48	398.72
688.81	396.36
689.15	394.18
689.49	392.05
689.82	390.00
690.16	387.74
690.50	385.56
690.83	383.31
691.17	381.26
691.51	379.18
691.84	377.16
692.18	375.22
692.52	373.33
692.85	371.42
693.19	369.60
693.52	367.80
693.86	365.90
694.20	363.90
694.53	361.93
694.87	359.87
695.21	357.91
695.54	356.00
695.88	354.17
696.21	352.24
696.55	350.46
696.88	348.58
697.22	346.82
697.56	345.14
697.89	343.50
698.23	341.86
698.56	340.29
698.90	338.91
699.23	337.14
699.57	335.56
699.90	333.94
700.24	332.21
700.58	330.52
700.91	329.01
701.25	327.61
701.58	326.15
701.92	324.77
702.25	323.42
702.59	322.05
702.92	320.84
703.26	319.47
703.59	318.16
703.93	317.09
704.26	315.89
704.60	314.59
704.93	313.32
705.26	312.05
705.60	310.71
705.93	309.36
706.27	308.26
706.60	307.13
706.94	306.13
707.27	304.79
707.61	303.71
707.94	302.44
708.27	301.16
708.61	300.00
708.94	298.95
709.28	297.82
709.61	296.79
709.94	295.63
710.28	294.51
710.61	293.50
710.95	292.28
711.28	291.34
711.61	290.25
711.95	289.30
712.28	288.32
712.61	287.37
712.95	286.43
713.28	285.50
713.61	284.54
713.95	283.53
714.28	282.81
714.61	281.90
714.95	281.06
715.28	280.19
715.61	279.30
715.95	278.29
716.28	277.31
716.61	276.38
716.95	275.53
717.28	274.80
717.61	273.89
717.94	273.19
718.28	272.33
718.61	271.69
718.94	270.96
719.27	270.18
719.61	269.44
719.94	268.65
720.27	267.77
720.60	266.95
720.94	266.23
721.27	265.52
721.60	264.94
721.93	264.25
722.27	263.71
722.60	263.09
722.93	262.60
723.26	262.13
723.59	261.56
723.93	261.01
724.26	260.50
724.59	260.01
724.92	259.44
725.25	258.88
725.59	258.35
725.92	257.85
726.25	257.34
726.58	256.85
726.91	256.41
727.24	256.06
727.57	255.68
727.91	255.17
728.24	254.74
728.57	254.17
728.90	253.75
729.23	253.11
729.56	252.68
729.89	252.19
730.22	251.64
730.55	251.18
730.89	250.74
731.22	250.24
731.55	249.78
731.88	249.30
732.21	248.81
732.54	248.32
732.87	247.90
733.20	247.44
733.53	246.98
733.86	246.58
734.19	246.13
734.52	245.71
734.85	245.44
735.18	244.95
735.51	244.67
735.84	244.40
736.17	244.17
736.50	243.82
736.83	243.67
737.16	243.37
737.49	243.01
737.82	242.59
738.15	242.28
738.48	241.84
738.81	241.49
739.14	241.17
739.47	240.79
739.80	240.34
740.13	240.02
740.46	239.58
740.79	239.20
741.12	238.83
741.45	238.53
741.78	238.18
742.11	237.92
742.44	237.57
742.77	237.21
743.10	236.86
743.43	236.51
743.75	235.99
744.08	235.90
744.41	235.57
744.74	235.31
745.07	234.96
745.40	234.75
745.73	234.57
746.06	234.32
746.39	234.02
746.71	233.78
747.04	233.58
747.37	233.43
747.70	233.21
748.03	233.04
748.36	232.72
748.68	232.42
749.01	232.18
749.34	231.93
749.67	231.67
750.00	231.43
750.33	231.25
750.65	231.00
750.98	230.56
751.31	230.39
751.64	230.15
751.97	229.99
752.29	229.75
752.62	229.38
752.95	229.15
753.28	228.99
753.60	228.74
753.93	228.53
754.26	228.25
754.59	227.94
754.91	227.67
755.24	227.43
755.57	227.19
755.90	226.97
756.22	226.73
756.55	226.49
756.88	226.24
757.20	225.96
757.53	225.76
757.86	225.51
758.19	225.30
758.51	225.15
758.84	224.88
759.17	224.69
759.49	224.59
759.82	224.43
760.15	224.23
760.47	224.11
760.80	223.83
761.13	223.71
761.45	223.61
761.78	223.45
762.11	223.40
762.43	223.19
762.76	223.03
763.08	222.95
763.41	222.84
763.74	222.73
764.06	222.62
764.39	222.46
764.71	222.34
765.04	222.20
765.37	222.04
765.69	221.90
766.02	221.70
766.34	221.55
766.67	221.36
767.00	221.30
767.32	221.22
767.65	221.29
767.97	221.11
768.30	220.95
768.62	220.82
768.95	220.59
769.27	220.57
769.60	220.42
769.92	220.27
770.25	220.17
770.57	220.02
770.90	219.86
771.22	219.81
771.55	219.80
771.87	219.75
772.20	219.61
772.52	219.68
772.85	219.81
773.17	219.68
773.50	219.70
773.82	219.55
774.15	219.41
774.47	219.15
774.80	219.05
775.12	219.02
775.45	218.96
775.77	218.91
776.09	218.87
776.42	218.88
776.74	218.77
777.07	218.63
777.39	218.55
777.72	218.48
778.04	218.36
778.36	218.24
778.69	218.14
779.01	218.08
779.33	217.88
779.66	217.70
779.98	217.68
780.31	217.49
780.63	217.49
780.95	217.44
781.28	217.38
781.60	217.41
781.92	217.33
782.25	217.31
782.57	217.27
782.89	217.13
783.22	217.04
783.54	216.94
783.86	216.90
784.19	216.85
784.51	216.85
784.83	216.75
785.16	216.69
785.48	216.64
785.80	216.58
786.12	216.50
786.45	216.40
786.77	216.25
787.09	216.31
787.42	216.26
787.74	216.17
788.06	216.18
788.38	216.07
788.71	215.97
789.03	215.90
789.35	215.88
789.67	215.83
789.99	215.75
790.32	215.75
790.64	215.75
790.96	215.90
791.28	215.86
791.61	215.83
791.93	215.76
792.25	215.65
792.57	215.72
792.89	215.73
793.21	215.70
793.54	215.64
793.86	215.50
794.18	215.36
794.50	215.29
794.82	215.21
795.14	215.15
795.47	215.11
795.79	215.03
796.11	214.95
796.43	214.85
796.75	214.80
797.07	214.78
797.39	214.68
797.71	214.48
798.04	214.42
798.36	214.42
798.68	214.45
799.00	214.48
799.32	214.34
799.64	214.32
799.96	214.30
800.28	214.43
800.60	214.41
800.92	214.40
801.24	214.35
801.56	214.39
801.89	214.37
802.21	214.41
802.53	214.37
802.85	214.36
803.17	214.47
803.49	214.43
803.81	214.37
804.13	214.38
804.45	214.33
804.77	214.36
805.09	214.29
805.41	214.15
805.73	214.11
806.05	214.14
806.37	214.03
806.69	213.99
807.01	213.94
807.33	213.90
807.65	213.87
807.97	213.96
808.28	213.90
808.60	213.88
808.92	213.85
809.24	213.94
809.56	213.91
809.88	213.74
810.20	213.74
810.52	213.70
810.84	213.60
811.16	213.60
811.48	213.50
811.80	213.51
812.12	213.53
812.43	213.49
812.75	213.43
813.07	213.40
813.39	213.32
813.71	213.28
814.03	213.26
814.35	213.21
814.67	213.14
814.98	213.12
815.30	213.11
815.62	213.08
815.94	212.92
816.26	212.81
816.58	212.78
816.89	212.85
817.21	212.82
817.53	212.83
817.85	212.80
818.17	212.78
818.48	212.71
818.80	212.73
819.12	212.72
819.44	212.67
819.76	212.68
820.07	212.66
820.39	212.55
820.71	212.58
821.03	212.62
821.34	212.55
821.66	212.55
821.98	212.51
822.30	212.48
822.61	212.60
822.93	212.67
823.25	212.69
823.57	212.59
823.88	212.65
824.20	212.64
824.52	212.65
824.83	212.60
825.15	212.61
825.47	212.59
825.79	212.62
826.10	212.60
826.42	212.60
826.74	212.68
827.05	212.78
827.37	212.69
827.69	212.66
828.00	212.67
828.32	212.64
828.64	212.65
828.95	212.75
829.27	212.70
829.58	212.69
829.90	212.74
830.22	212.75
830.53	212.65
830.85	212.60
831.17	212.60
831.48	212.60
831.80	212.60
832.11	212.64
832.43	212.55
832.75	212.55
833.06	212.67
833.38	212.60
833.69	212.54
834.01	212.57
834.32	212.59
834.64	212.61
834.96	212.53
835.27	212.46
835.59	212.37
835.90	212.31
836.22	212.28
836.53	212.26
836.85	212.24
837.16	212.38
837.48	212.37
837.79	212.43
838.11	212.46
838.42	212.48
838.74	212.44
839.05	212.48
839.37	212.46
839.68	212.31
840.00	212.32
840.31	212.32
840.63	212.27
840.94	212.25
841.26	212.17
841.57	212.23
841.88	212.29
842.20	212.30
842.51	212.31
842.83	212.34
843.14	212.46
843.46	212.51
843.77	212.45
844.08	212.45
844.40	212.35
844.71	212.25
845.03	212.18
845.34	212.19
845.65	212.12
845.97	212.14
846.28	212.20
846.60	212.15
846.91	212.19
847.22	212.19
847.54	212.18
847.85	212.24
848.16	212.27
848.48	212.18
848.79	212.25
849.10	212.23
849.42	212.21
849.73	212.03
850.04	212.01
850.36	211.92
850.67	211.98
850.98	211.97
851.30	212.03
851.61	212.04
851.92	212.05
852.23	212.09
852.55	212.10
852.86	212.06
853.17	212.16
853.49	212.11
853.80	212.17
854.11	212.15
854.42	212.09
854.74	211.95
855.05	211.97
855.36	211.86
855.67	211.85
855.99	211.79
856.30	211.97
856.61	211.91
856.92	211.94
857.23	211.89
857.55	211.95
857.86	211.97
858.17	211.99
858.48	211.94
858.79	211.96
859.11	211.89
859.42	211.81
859.73	211.70
860.04	211.72
860.35	211.60
860.66	211.62
860.98	211.65
861.29	211.76
861.60	211.74
861.91	211.76
862.22	211.72
862.53	211.71
862.84	211.51
863.16	211.62
863.47	211.62
863.78	211.65
864.09	211.57
864.40	211.50
864.71	211.54
865.02	211.56
865.33	211.49
865.64	211.47
865.95	211.52
866.27	211.67
866.58	211.60
866.89	211.69
867.20	211.64
867.51	211.57
867.82	211.53
868.13	211.59
868.44	211.51
868.75	211.52
869.06	211.53
869.37	211.59
869.68	211.47
869.99	211.47
870.30	211.42
870.61	211.45
870.92	211.41
871.23	211.36
871.54	211.37
871.85	211.48
872.16	211.53
872.47	211.53
872.78	211.42
873.09	211.55
873.40	211.48
873.71	211.46
874.02	211.55
874.33	211.55
874.64	211.50
874.95	211.58
875.26	211.51
875.56	211.58
875.87	211.59
876.18	211.55
876.49	211.74
876.80	211.75
877.11	211.70
877.42	211.81
877.73	211.80
878.04	211.71
878.35	211.68
878.66	211.65
878.96	211.64
879.27	211.62
879.58	211.58
879.89	211.58
880.20	211.61
880.51	211.57
880.82	211.60
881.12	211.64
881.43	211.60
881.74	211.66
882.05	211.59
882.36	211.52
882.67	211.62
882.97	211.40
883.28	211.40
883.59	211.43
883.90	211.41
884.21	211.40
884.51	211.51
884.82	211.43
885.13	211.42
885.44	211.37
885.74	211.36
886.05	211.34
886.36	211.39
886.67	211.41
886.98	211.49
887.28	211.46
887.59	211.43
887.90	211.40
888.20	211.40
888.51	211.52
888.82	211.50
889.13	211.48
889.43	211.54
889.74	211.53
890.05	211.49
890.35	211.45
890.66	211.48
890.97	211.39
891.28	211.36
891.58	211.43
891.89	211.42
892.20	211.39
892.50	211.33
892.81	211.28
893.12	211.21
893.42	211.14
893.73	211.11
894.04	211.13
894.34	211.13
894.65	211.06
894.95	210.94
895.26	210.90
895.57	210.98
895.87	210.91
896.18	210.93
896.48	210.98
896.79	210.97
897.10	211.01
897.40	211.01
897.71	211.13
898.01	211.03
898.32	211.09
898.63	211.10
898.93	211.06
899.24	211.08
899.54	211.09
899.85	211.07
900.15	211.09
900.46	211.09
900.76	211.10
901.07	211.10
901.38	211.10
901.68	211.16
901.99	210.98
902.29	210.94
902.60	210.89
902.90	210.93
903.21	210.91
903.51	210.93
903.82	210.94
904.12	210.91
904.43	210.95
904.73	210.89
905.03	210.88
905.34	211.05
905.64	211.04
905.95	211.02
906.25	211.06
906.56	210.99
906.86	210.92
907.17	210.92
907.47	210.99
907.77	211.02
908.08	210.93
908.38	210.96
908.69	210.95
908.99	211.03
909.30	210.98
909.60	211.01
909.90	210.95
910.21	210.86
910.51	210.80
910.81	210.81
911.12	210.87
911.42	210.87
911.73	210.73
912.03	210.75
912.33	210.79
912.64	210.76
912.94	210.84
913.24	210.84
913.55	210.85
913.85	210.80
914.15	210.85
914.46	210.97
914.76	211.06
915.06	211.09
915.37	211.05
915.67	211.03
915.97	210.98
916.27	210.91
916.58	210.95
916.88	210.95
917.18	210.91
917.49	211.02
917.79	211.06
918.09	211.03
918.39	211.10
918.70	211.12
919.00	211.08
919.30	211.11
919.60	211.13
919.91	211.08
920.21	211.10
920.51	211.01
920.81	210.93
921.12	210.93
921.42	210.95
921.72	210.90
922.02	210.89
922.32	210.94
922.63	210.99
922.93	211.07
923.23	211.08
923.53	211.08
923.83	210.93
924.13	210.89
924.44	211.03
924.74	210.99
925.04	211.02
925.34	211.02
925.64	211.02
925.94	211.05
926.24	211.14
926.55	211.08
926.85	211.09
927.15	211.12
927.45	211.12
927.75	211.12
928.05	211.18
928.35	211.17
928.65	211.30
928.95	211.28
929.26	211.26
929.56	211.30
929.86	211.30
930.16	211.29
930.46	211.28
930.76	211.21
931.06	211.11
931.36	211.03
931.66	211.07
931.96	211.05
932.26	211.04
932.56	211.00
932.86	211.08
933.16	211.16
933.46	211.10
933.76	211.03
934.06	211.06
934.36	211.18
934.66	211.25
934.96	211.15
935.26	211.18
935.56	211.23
935.86	211.20
936.16	211.19
936.46	211.25
936.76	211.27
937.06	211.25
937.36	211.28
937.66	211.27
937.96	211.32
938.26	211.31
938.56	211.31
938.86	211.33
939.16	211.41
939.46	211.42
939.76	211.55
940.06	211.56
940.35	211.51
940.65	211.34
940.95	211.31
941.25	211.30
941.55	211.25
941.85	211.23
942.15	211.27
942.45	211.37
942.75	211.30
943.04	211.37
943.34	211.40
943.64	211.40
943.94	211.42
944.24	211.39
944.54	211.41
944.84	211.40
945.13	211.35
945.43	211.22
945.73	211.23
946.03	211.07
946.33	211.12
946.62	211.15
946.92	211.16
947.22	211.21
947.52	211.21
947.82	211.26
948.11	211.25
948.41	211.22
948.71	211.12
949.01	211.14
949.31	211.04
949.60	211.04
949.90	211.00
950.20	211.01
950.50	211.03
950.79	211.03
951.09	211.03
951.39	211.07
951.69	211.11
951.98	211.09
952.28	211.17
952.58	211.14
952.87	211.13
953.17	211.19
953.47	211.08
953.76	211.08
954.06	211.05
954.36	210.99
954.66	210.93
954.95	210.94
955.25	210.95
955.55	211.00
955.84	210.90
956.14	210.97
956.44	210.92
956.73	210.86
957.03	210.86
957.32	210.86
957.62	210.78
957.92	210.80
958.21	210.79
958.51	210.96
958.81	210.91
959.10	210.87
959.40	210.92
959.69	210.96
959.99	210.97
960.29	211.02
960.58	211.01
960.88	211.16
961.17	211.17
961.47	211.18
961.76	211.15
962.06	211.22
962.36	211.16
962.65	211.20
962.95	211.12
963.24	211.09
963.54	211.10
963.83	211.12
964.13	211.07
964.42	211.00
964.72	210.90
965.01	210.95
965.31	210.95
965.60	210.86
965.90	210.95
966.19	210.84
966.49	210.76
966.78	210.75
967.08	210.68
967.37	210.73
967.67	210.75
967.96	210.77
968.26	210.74
968.55	210.77
968.85	210.80
969.14	210.86
969.43	210.86
969.73	210.85
970.02	210.92
970.32	210.93
970.61	210.94
970.91	210.89
971.20	210.93
971.49	210.97
971.79	210.98
972.08	210.85
972.38	210.86
972.67	210.83
972.96	210.87
973.26	210.84
973.55	210.87
973.85	210.83
974.14	210.91
974.43	211.05
974.73	211.05
975.02	211.00
975.31	211.04
975.61	210.99
975.90	211.03
976.19	211.00
976.49	211.08
976.78	211.10
977.07	211.06
977.37	210.97
977.66	210.97
977.95	210.91
978.24	210.93
978.54	211.03
978.83	211.07
979.12	211.08
979.42	211.08
979.71	211.08
980.00	211.07
980.29	211.08
980.59	210.93
980.88	210.95
981.17	210.93
981.46	211.01
981.76	211.09
982.05	211.16
982.34	211.22
982.63	211.17
982.93	211.12
983.22	211.17
983.51	211.20
983.80	211.25
984.09	211.32
984.39	211.41
984.68	211.44
984.97	211.49
985.26	211.47
985.55	211.42
985.85	211.34
986.14	211.45
986.43	211.41
986.72	211.46
987.01	211.42
987.30	211.48
987.59	211.35
987.89	211.36
988.18	211.28
988.47	211.17
988.76	211.10
989.05	211.10
989.34	211.04
989.63	211.11
989.92	211.07
990.22	211.01
990.51	210.97
990.80	210.84
991.09	210.86
991.38	210.88
991.67	210.90
991.96	210.83
992.25	210.76
992.54	210.66
992.83	210.68
993.12	210.67
993.41	210.70
993.70	210.79
993.99	210.76
994.28	210.75
994.58	210.77
994.87	210.87
995.16	210.89
995.45	210.92
995.74	210.84
996.03	210.82
996.32	210.88
996.61	210.92
996.90	210.97
997.19	210.94
997.48	210.95
997.77	210.94
998.06	211.00
998.34	211.00
998.63	211.03
998.92	211.00
999.21	211.03
999.50	210.97
999.79	210.87
1000.08	210.81
1000.37	210.77
1000.66	210.79
1000.95	210.81
1001.24	210.81
1001.53	210.83
1001.82	210.89
1002.11	210.85
1002.40	210.90
1002.68	210.91
1002.97	210.99
1003.26	210.91
1003.55	210.93
1003.84	210.97
1004.13	211.07
1004.42	211.09
1004.71	211.10
1004.99	211.07
1005.28	211.13
1005.57	211.13
1005.86	211.14
1006.15	211.20
1006.44	211.25
1006.72	211.25
1007.01	211.12
1007.30	211.13
1007.59	211.07
1007.88	211.08
1008.17	211.11
1008.45	211.07
1008.74	211.00
1009.03	210.96
1009.32	211.03
1009.60	210.99
1009.89	210.93
1010.18	210.82
1010.47	210.81
1010.76	210.81
1011.04	210.90
1011.33	210.93
1011.62	210.98
1011.91	211.02
1012.19	211.02
1012.48	211.02
1012.77	211.06
1013.05	211.17
1013.34	211.24
1013.63	211.27
1013.92	211.21
1014.20	211.24
1014.49	211.26
1014.78	211.28
1015.06	211.21
1015.35	211.20
1015.64	211.22
1015.92	211.32
1016.21	211.33
1016.50	211.28
1016.78	211.28
1017.07	211.26
1017.36	211.14
1017.64	211.07
1017.93	211.07
1018.22	211.10
1018.50	211.07
1018.79	211.01
1019.08	210.92
1019.36	210.90
1019.65	210.88
1019.93	210.98
1020.22	211.01
1020.51	211.09
1020.79	211.05
1021.08	212.10
1021.36	210.40
1021.65	210.50
1021.94	210.20
1022.22	211.35
1022.51	210.60
1022.79	212.65
1023.08	212.00
1023.36	213.25
1023.65	210.50
>>>>>End Processed Spectral Data<<<<<
