SpectraSuite Data File
++++++++++++++++++++++++++++++++++++
Date: Mon Feb 25 17:31:45 EST 2013
User: group
Dark Spectrum Present: No
Reference Spectrum Present: No
Number of Sampled Component Spectra: 1
Spectrometers: USB2E7196
Integration Time (usec): 52000 (USB2E7196)
Spectra Averaged: 20 (USB2E7196)
Boxcar Smoothing: 10 (USB2E7196)
Correct for Electrical Dark: No (USB2E7196)
Strobe/Lamp Enabled: No (USB2E7196)
Correct for Detector Non-linearity: No (USB2E7196)
Correct for Stray Light: No (USB2E7196)
Number of Pixels in Processed Spectrum: 2048
>>>>>Begin Processed Spectral Data<<<<<
339.09	0.00
339.48	197.50
339.86	198.70
340.24	200.05
340.63	202.55
341.01	205.75
341.39	204.80
341.78	205.75
342.16	209.50
342.54	208.80
342.93	197.51
343.31	207.52
343.69	208.08
344.07	208.66
344.46	209.19
344.84	209.57
345.22	209.86
345.60	210.13
345.99	210.39
346.37	210.48
346.75	210.56
347.13	210.58
347.52	210.67
347.90	210.75
348.28	210.76
348.66	210.88
349.05	210.87
349.43	210.89
349.81	210.93
350.19	211.10
350.57	211.21
350.96	211.30
351.34	211.39
351.72	211.51
352.10	211.60
352.48	211.64
352.87	211.73
353.25	211.74
353.63	211.84
354.01	211.87
354.39	211.96
354.77	212.10
355.15	212.26
355.54	212.31
355.92	212.38
356.30	212.46
356.68	212.61
357.06	212.65
357.44	212.75
357.82	212.87
358.20	212.89
358.58	213.00
358.97	213.08
359.35	213.23
359.73	213.32
360.11	213.41
360.49	213.55
360.87	213.63
361.25	213.71
361.63	213.86
362.01	213.94
362.39	213.91
362.77	213.91
363.15	213.94
363.53	213.99
363.91	214.01
364.29	214.05
364.67	213.91
365.05	213.95
365.43	214.00
365.81	214.09
366.19	214.24
366.57	214.29
366.95	214.28
367.33	214.25
367.71	214.31
368.09	214.32
368.47	214.28
368.85	214.33
369.23	214.38
369.61	214.23
369.99	214.29
370.37	214.39
370.75	214.50
371.13	214.43
371.51	214.38
371.89	214.34
372.27	214.33
372.65	214.29
373.03	214.35
373.41	214.32
373.78	214.22
374.16	214.03
374.54	213.91
374.92	213.93
375.30	213.83
375.68	213.73
376.06	213.68
376.44	213.64
376.82	213.51
377.19	213.38
377.57	213.40
377.95	213.28
378.33	213.22
378.71	213.05
379.09	213.07
379.47	213.03
379.84	212.98
380.22	212.90
380.60	212.83
380.98	212.68
381.36	212.62
381.73	212.55
382.11	212.57
382.49	212.60
382.87	212.41
383.25	212.40
383.62	212.52
384.00	212.43
384.38	212.35
384.76	212.36
385.13	212.45
385.51	212.35
385.89	212.34
386.27	212.28
386.64	212.30
387.02	212.22
387.40	212.21
387.78	212.22
388.15	212.17
388.53	212.16
388.91	212.15
389.29	212.04
389.66	211.98
390.04	211.91
390.42	211.87
390.79	211.86
391.17	211.75
391.55	211.53
391.92	211.46
392.30	211.51
392.68	211.48
393.05	211.44
393.43	211.40
393.81	211.37
394.18	211.30
394.56	211.27
394.94	211.29
395.31	211.21
395.69	211.26
396.06	211.35
396.44	211.33
396.82	211.30
397.19	211.45
397.57	211.41
397.95	211.42
398.32	211.38
398.70	211.49
399.07	211.56
399.45	211.62
399.82	211.66
400.20	211.64
400.58	211.63
400.95	211.58
401.33	211.67
401.70	211.81
402.08	211.89
402.45	211.91
402.83	212.00
403.20	212.03
403.58	212.06
403.95	212.12
404.33	212.24
404.71	212.40
405.08	212.54
405.46	212.70
405.83	212.86
406.21	212.95
406.58	213.03
406.96	213.17
407.33	213.32
407.70	213.51
408.08	213.88
408.45	214.17
408.83	214.48
409.20	214.67
409.58	214.74
409.95	215.10
410.33	215.39
410.70	215.65
411.08	216.06
411.45	216.39
411.82	216.72
412.20	217.14
412.57	217.63
412.95	217.96
413.32	218.47
413.69	219.04
414.07	219.67
414.44	220.35
414.82	221.03
415.19	221.72
415.56	222.49
415.94	223.12
416.31	223.97
416.68	224.78
417.06	225.82
417.43	226.88
417.81	227.86
418.18	228.97
418.55	230.14
418.93	231.43
419.30	232.72
419.67	234.10
420.04	235.58
420.42	237.03
420.79	238.82
421.16	240.57
421.54	242.32
421.91	244.10
422.28	246.01
422.66	247.90
423.03	249.97
423.40	251.99
423.77	254.24
424.15	256.36
424.52	258.78
424.89	261.22
425.26	263.67
425.64	266.06
426.01	268.60
426.38	271.31
426.75	273.98
427.13	276.80
427.50	279.75
427.87	282.78
428.24	285.74
428.61	288.65
428.99	291.80
429.36	295.20
429.73	298.66
430.10	302.08
430.47	305.80
430.85	309.31
431.22	313.19
431.59	317.27
431.96	321.25
432.33	325.50
432.70	329.74
433.08	334.75
433.45	339.33
433.82	343.92
434.19	348.95
434.56	353.84
434.93	358.59
435.30	363.25
435.68	368.47
436.05	373.70
436.42	378.72
436.79	383.32
437.16	388.36
437.53	393.68
437.90	398.85
438.27	403.82
438.64	409.12
439.01	414.06
439.38	418.37
439.75	422.51
440.13	427.25
440.50	431.68
440.87	435.13
441.24	438.95
441.61	443.12
441.98	446.23
442.35	449.85
442.72	453.35
443.09	456.86
443.46	458.85
443.83	460.27
444.20	461.55
444.57	463.40
444.94	464.23
445.31	464.92
445.68	465.72
446.05	466.05
446.42	465.45
446.79	464.70
447.16	463.89
447.53	463.26
447.90	461.09
448.27	458.92
448.64	456.20
449.01	454.04
449.37	450.36
449.74	446.87
450.11	442.77
450.48	438.31
450.85	433.70
451.22	429.86
451.59	426.05
451.96	422.39
452.33	417.72
452.70	413.35
453.07	408.29
453.43	403.14
453.80	398.21
454.17	393.55
454.54	389.04
454.91	384.24
455.28	379.63
455.65	375.36
456.02	371.21
456.38	367.49
456.75	362.82
457.12	359.04
457.49	355.19
457.86	351.55
458.23	348.49
458.59	345.11
458.96	341.59
459.33	338.50
459.70	335.50
460.07	332.91
460.43	330.13
460.80	327.49
461.17	325.11
461.54	322.63
461.91	320.29
462.27	317.97
462.64	316.00
463.01	313.79
463.38	311.71
463.74	309.52
464.11	307.59
464.48	306.01
464.85	304.32
465.21	302.98
465.58	301.53
465.95	299.83
466.32	298.42
466.68	297.01
467.05	295.60
467.42	294.16
467.78	292.71
468.15	291.28
468.52	290.30
468.88	289.04
469.25	287.84
469.62	286.87
469.98	285.77
470.35	284.90
470.72	284.03
471.08	283.03
471.45	282.28
471.82	281.60
472.18	280.74
472.55	280.14
472.92	279.45
473.28	278.81
473.65	278.22
474.02	277.69
474.38	277.30
474.75	276.99
475.11	276.70
475.48	276.48
475.85	276.35
476.21	276.14
476.58	275.98
476.94	276.00
477.31	275.97
477.67	276.02
478.04	276.04
478.41	276.19
478.77	276.52
479.14	276.70
479.50	276.97
479.87	277.38
480.23	277.91
480.60	278.27
480.96	278.72
481.33	279.35
481.69	279.97
482.06	280.53
482.42	281.15
482.79	281.73
483.15	282.61
483.52	283.67
483.88	284.64
484.25	285.68
484.61	286.76
484.98	287.84
485.34	289.13
485.71	290.45
486.07	291.90
486.44	293.29
486.80	294.78
487.17	296.25
487.53	298.07
487.90	299.78
488.26	301.74
488.62	303.87
488.99	305.94
489.35	308.12
489.72	310.45
490.08	312.85
490.44	315.40
490.81	317.99
491.17	320.62
491.54	323.48
491.90	326.37
492.26	329.56
492.63	332.95
492.99	336.45
493.36	340.04
493.72	343.91
494.08	347.88
494.45	352.20
494.81	356.72
495.17	361.24
495.54	366.11
495.90	371.17
496.26	376.19
496.63	381.70
496.99	387.45
497.35	393.51
497.72	399.74
498.08	406.42
498.44	413.15
498.80	420.28
499.17	427.66
499.53	435.36
499.89	443.32
500.26	451.35
500.62	459.60
500.98	468.40
501.34	477.44
501.71	486.86
502.07	496.45
502.43	506.48
502.79	516.62
503.16	527.08
503.52	537.90
503.88	549.25
504.24	560.60
504.60	572.44
504.97	584.58
505.33	597.15
505.69	610.23
506.05	623.82
506.41	637.29
506.78	650.92
507.14	664.92
507.50	679.27
507.86	694.35
508.22	709.80
508.59	725.26
508.95	741.16
509.31	757.25
509.67	773.84
510.03	790.74
510.39	808.26
510.75	825.99
511.12	844.07
511.48	862.24
511.84	880.90
512.20	899.36
512.56	918.68
512.92	938.03
513.28	957.39
513.64	976.81
514.00	996.57
514.37	1017.05
514.73	1037.73
515.09	1058.58
515.45	1079.13
515.81	1100.08
516.17	1121.33
516.53	1142.30
516.89	1163.88
517.25	1185.30
517.61	1206.82
517.97	1228.11
518.33	1249.47
518.69	1270.99
519.05	1293.13
519.41	1315.13
519.77	1337.53
520.13	1359.22
520.49	1380.95
520.85	1403.44
521.21	1425.69
521.57	1448.44
521.93	1470.25
522.29	1493.10
522.65	1515.46
523.01	1538.04
523.37	1559.81
523.73	1581.71
524.09	1603.93
524.45	1625.91
524.81	1648.23
525.17	1670.40
525.53	1692.58
525.89	1714.77
526.25	1736.73
526.61	1757.71
526.97	1779.00
527.33	1800.21
527.68	1821.32
528.04	1842.43
528.40	1862.41
528.76	1883.19
529.12	1903.73
529.48	1925.44
529.84	1945.55
530.20	1965.37
530.56	1985.30
530.91	2005.74
531.27	2026.17
531.63	2046.05
531.99	2065.52
532.35	2084.44
532.71	2103.24
533.07	2122.42
533.42	2140.60
533.78	2159.14
534.14	2177.29
534.50	2194.47
534.86	2212.21
535.21	2229.07
535.57	2246.76
535.93	2264.18
536.29	2280.58
536.65	2297.01
537.00	2311.72
537.36	2326.81
537.72	2342.13
538.08	2357.45
538.44	2372.47
538.79	2387.28
539.15	2401.79
539.51	2416.81
539.87	2431.79
540.22	2446.07
540.58	2460.98
540.94	2475.45
541.29	2488.21
541.65	2500.31
542.01	2513.18
542.37	2525.03
542.72	2537.03
543.08	2547.97
543.44	2559.50
543.79	2569.63
544.15	2579.82
544.51	2590.92
544.87	2601.64
545.22	2610.64
545.58	2618.88
545.94	2626.22
546.29	2632.63
546.65	2638.77
547.01	2644.30
547.36	2650.00
547.72	2655.28
548.07	2659.05
548.43	2662.51
548.79	2666.04
549.14	2670.61
549.50	2674.91
549.86	2678.75
550.21	2682.67
550.57	2686.44
550.92	2688.78
551.28	2691.45
551.64	2693.64
551.99	2695.96
552.35	2697.13
552.70	2699.69
553.06	2702.41
553.41	2705.41
553.77	2708.27
554.13	2710.39
554.48	2712.25
554.84	2713.45
555.19	2713.70
555.55	2713.94
555.90	2714.76
556.26	2715.28
556.61	2715.19
556.97	2713.74
557.32	2713.19
557.68	2711.48
558.03	2709.99
558.39	2708.32
558.74	2707.94
559.10	2706.90
559.45	2704.92
559.81	2703.89
560.16	2701.35
560.52	2698.92
560.87	2695.45
561.23	2691.85
561.58	2689.60
561.94	2686.54
562.29	2682.73
562.64	2680.72
563.00	2678.29
563.35	2675.48
563.71	2673.61
564.06	2671.34
564.42	2669.76
564.77	2667.10
565.12	2665.27
565.48	2661.91
565.83	2659.19
566.19	2655.55
566.54	2650.79
566.89	2646.62
567.25	2642.89
567.60	2639.71
567.96	2635.80
568.31	2632.64
568.66	2628.50
569.02	2623.88
569.37	2618.58
569.72	2614.82
570.08	2609.52
570.43	2603.92
570.78	2598.64
571.14	2592.57
571.49	2585.67
571.84	2579.27
572.20	2572.48
572.55	2565.83
572.90	2559.16
573.26	2552.18
573.61	2545.24
573.96	2538.85
574.31	2531.27
574.67	2523.06
575.02	2514.57
575.37	2505.78
575.72	2496.76
576.08	2489.48
576.43	2480.72
576.78	2473.26
577.13	2465.07
577.49	2457.10
577.84	2449.51
578.19	2441.57
578.54	2433.98
578.90	2427.47
579.25	2418.92
579.60	2409.62
579.95	2400.46
580.30	2392.62
580.66	2384.36
581.01	2375.23
581.36	2366.16
581.71	2357.87
582.06	2349.60
582.42	2341.40
582.77	2332.66
583.12	2323.83
583.47	2314.87
583.82	2306.81
584.17	2297.63
584.53	2288.43
584.88	2279.70
585.23	2270.53
585.58	2261.29
585.93	2251.60
586.28	2242.32
586.63	2233.69
586.98	2225.99
587.34	2217.71
587.69	2208.94
588.04	2199.99
588.39	2191.73
588.74	2183.20
589.09	2174.48
589.44	2164.59
589.79	2155.97
590.14	2148.23
590.49	2140.26
590.84	2131.62
591.19	2123.55
591.54	2115.08
591.89	2105.49
592.25	2096.22
592.60	2087.03
592.95	2077.78
593.30	2068.61
593.65	2058.87
594.00	2049.43
594.35	2041.10
594.70	2031.97
595.05	2022.87
595.40	2013.91
595.75	2004.72
596.10	1996.38
596.45	1988.11
596.80	1980.76
597.15	1972.48
597.50	1963.45
597.85	1954.83
598.19	1945.92
598.54	1937.33
598.89	1929.36
599.24	1922.73
599.59	1915.58
599.94	1908.40
600.29	1900.89
600.64	1892.99
600.99	1884.85
601.34	1877.81
601.69	1869.14
602.04	1861.19
602.39	1853.07
602.74	1845.67
603.08	1838.99
603.43	1831.93
603.78	1824.07
604.13	1815.82
604.48	1807.97
604.83	1801.23
605.18	1794.16
605.53	1786.81
605.87	1779.15
606.22	1772.15
606.57	1764.21
606.92	1756.27
607.27	1748.31
607.62	1740.86
607.96	1734.25
608.31	1728.25
608.66	1720.61
609.01	1713.30
609.36	1705.93
609.70	1698.37
610.05	1690.61
610.40	1682.68
610.75	1674.16
611.10	1666.45
611.44	1657.63
611.79	1648.77
612.14	1639.30
612.49	1629.79
612.83	1621.26
613.18	1611.82
613.53	1602.31
613.88	1592.87
614.22	1583.86
614.57	1574.86
614.92	1565.65
615.27	1556.46
615.61	1546.52
615.96	1537.52
616.31	1529.13
616.65	1521.09
617.00	1512.86
617.35	1504.19
617.70	1495.40
618.04	1486.41
618.39	1477.27
618.74	1469.28
619.08	1460.81
619.43	1452.67
619.78	1445.10
620.12	1436.88
620.47	1429.24
620.82	1420.87
621.16	1412.58
621.51	1404.26
621.85	1396.15
622.20	1387.78
622.55	1379.44
622.89	1371.24
623.24	1363.30
623.59	1354.58
623.93	1345.94
624.28	1337.74
624.62	1329.68
624.97	1321.39
625.32	1313.88
625.66	1306.49
626.01	1299.23
626.35	1292.00
626.70	1284.37
627.04	1276.97
627.39	1269.59
627.73	1262.17
628.08	1255.36
628.43	1248.19
628.77	1240.98
629.12	1233.45
629.46	1226.89
629.81	1219.64
630.15	1212.64
630.50	1205.42
630.84	1198.27
631.19	1191.32
631.53	1184.41
631.88	1177.13
632.22	1169.74
632.57	1162.68
632.91	1155.31
633.26	1148.05
633.60	1140.94
633.95	1134.24
634.29	1127.11
634.64	1120.45
634.98	1113.48
635.32	1106.68
635.67	1100.19
636.01	1093.62
636.36	1087.03
636.70	1080.43
637.05	1074.04
637.39	1067.66
637.73	1061.22
638.08	1055.45
638.42	1049.40
638.77	1043.07
639.11	1036.74
639.45	1030.84
639.80	1024.41
640.14	1018.10
640.49	1011.75
640.83	1005.66
641.17	999.29
641.52	993.22
641.86	986.91
642.20	980.75
642.55	973.78
642.89	967.24
643.23	960.77
643.58	954.88
643.92	948.62
644.26	942.35
644.61	936.49
644.95	930.46
645.29	924.08
645.64	917.83
645.98	911.58
646.32	905.89
646.66	899.85
647.01	893.90
647.35	888.09
647.69	881.88
648.04	875.95
648.38	870.08
648.72	864.13
649.06	858.10
649.41	852.20
649.75	846.74
650.09	841.17
650.43	835.45
650.78	829.42
651.12	823.22
651.46	817.61
651.80	811.74
652.14	805.97
652.49	800.11
652.83	794.37
653.17	788.33
653.51	782.47
653.85	776.83
654.20	771.15
654.54	765.27
654.88	759.90
655.22	754.15
655.56	748.27
655.90	742.43
656.25	736.82
656.59	731.39
656.93	726.12
657.27	720.85
657.61	715.42
657.95	710.32
658.29	705.38
658.64	700.17
658.98	694.92
659.32	689.48
659.66	684.46
660.00	679.07
660.34	674.01
660.68	668.88
661.02	663.75
661.36	658.89
661.70	654.23
662.05	649.40
662.39	645.03
662.73	640.86
663.07	636.56
663.41	632.28
663.75	627.77
664.09	623.15
664.43	618.38
664.77	614.05
665.11	609.50
665.45	605.14
665.79	600.71
666.13	596.44
666.47	592.44
666.81	588.22
667.15	584.24
667.49	580.39
667.83	576.45
668.17	572.60
668.51	568.89
668.85	565.17
669.19	561.71
669.53	557.73
669.87	553.73
670.21	549.91
670.55	545.87
670.89	542.40
671.23	539.16
671.57	535.84
671.91	532.25
672.25	528.85
672.58	525.45
672.92	522.02
673.26	518.85
673.60	515.69
673.94	512.42
674.28	509.07
674.62	506.00
674.96	502.86
675.30	499.82
675.64	496.75
675.97	493.64
676.31	490.43
676.65	487.51
676.99	484.84
677.33	481.92
677.67	479.18
678.01	476.00
678.34	472.89
678.68	469.93
679.02	467.06
679.36	464.32
679.70	461.45
680.04	458.61
680.37	455.65
680.71	452.70
681.05	450.07
681.39	447.50
681.73	444.81
682.06	442.34
682.40	439.83
682.74	437.13
683.08	434.60
683.42	432.01
683.75	429.56
684.09	426.99
684.43	424.59
684.77	422.07
685.10	419.67
685.44	417.18
685.78	414.79
686.12	412.57
686.45	410.18
686.79	407.99
687.13	405.93
687.46	403.70
687.80	401.55
688.14	399.26
688.48	397.26
688.81	395.08
689.15	392.88
689.49	390.62
689.82	388.49
690.16	386.10
690.50	384.06
690.83	381.77
691.17	379.60
691.51	377.40
691.84	375.28
692.18	373.35
692.52	371.52
692.85	369.65
693.19	367.74
693.52	365.73
693.86	363.74
694.20	361.87
694.53	360.06
694.87	358.20
695.21	356.29
695.54	354.30
695.88	352.35
696.21	350.51
696.55	348.75
696.88	347.03
697.22	345.44
697.56	343.71
697.89	342.15
698.23	340.59
698.56	338.99
698.90	337.61
699.23	335.90
699.57	334.18
699.90	332.52
700.24	330.82
700.58	329.32
700.91	327.80
701.25	326.28
701.58	324.90
701.92	323.47
702.25	322.11
702.59	320.71
702.92	319.49
703.26	318.11
703.59	316.90
703.93	315.82
704.26	314.52
704.60	313.26
704.93	312.02
705.26	310.67
705.60	309.47
705.93	308.20
706.27	307.04
706.60	306.03
706.94	305.00
707.27	303.95
707.61	302.75
707.94	301.72
708.27	300.53
708.61	299.29
708.94	298.14
709.28	297.00
709.61	295.91
709.94	294.79
710.28	293.77
710.61	292.67
710.95	291.43
711.28	290.52
711.61	289.53
711.95	288.55
712.28	287.63
712.61	286.65
712.95	285.66
713.28	284.84
713.61	283.77
713.95	282.80
714.28	281.91
714.61	281.04
714.95	280.09
715.28	279.16
715.61	278.27
715.95	277.46
716.28	276.56
716.61	275.72
716.95	274.86
717.28	274.03
717.61	273.14
717.94	272.34
718.28	271.50
718.61	270.79
718.94	269.98
719.27	269.17
719.61	268.45
719.94	267.72
720.27	266.87
720.60	266.25
720.94	265.61
721.27	264.95
721.60	264.36
721.93	263.74
722.27	263.19
722.60	262.64
722.93	262.01
723.26	261.53
723.59	260.98
723.93	260.41
724.26	259.84
724.59	259.25
724.92	258.74
725.25	258.14
725.59	257.53
725.92	257.04
726.25	256.48
726.58	256.02
726.91	255.54
727.24	255.08
727.57	254.50
727.91	253.93
728.24	253.43
728.57	252.93
728.90	252.43
729.23	251.91
729.56	251.54
729.89	251.09
730.22	250.57
730.55	250.05
730.89	249.58
731.22	249.15
731.55	248.82
731.88	248.36
732.21	247.88
732.54	247.45
732.87	246.98
733.20	246.63
733.53	246.14
733.86	245.77
734.19	245.30
734.52	245.01
734.85	244.82
735.18	244.39
735.51	244.07
735.84	243.73
736.17	243.40
736.50	242.90
736.83	242.77
737.16	242.43
737.49	242.12
737.82	241.78
738.15	241.44
738.48	241.03
738.81	240.67
739.14	240.34
739.47	240.03
739.80	239.68
740.13	239.23
740.46	238.96
740.79	238.58
741.12	238.33
741.45	237.95
741.78	237.46
742.11	237.21
742.44	236.83
742.77	236.55
743.10	236.26
743.43	236.05
743.75	235.44
744.08	235.34
744.41	234.98
744.74	234.69
745.07	234.39
745.40	234.14
745.73	233.99
746.06	233.78
746.39	233.48
746.71	233.18
747.04	233.05
747.37	232.73
747.70	232.47
748.03	232.21
748.36	231.99
748.68	231.77
749.01	231.48
749.34	231.26
749.67	231.03
750.00	230.77
750.33	230.52
750.65	230.41
750.98	230.01
751.31	229.82
751.64	229.65
751.97	229.55
752.29	229.33
752.62	228.94
752.95	228.70
753.28	228.47
753.60	228.34
753.93	228.07
754.26	227.94
754.59	227.67
754.91	227.44
755.24	227.19
755.57	226.91
755.90	226.78
756.22	226.61
756.55	226.37
756.88	226.15
757.20	225.97
757.53	225.71
757.86	225.51
758.19	225.41
758.51	225.22
758.84	224.95
759.17	224.77
759.49	224.64
759.82	224.56
760.15	224.42
760.47	224.17
760.80	224.02
761.13	223.86
761.45	223.71
761.78	223.57
762.11	223.43
762.43	223.34
762.76	223.17
763.08	222.99
763.41	222.87
763.74	222.76
764.06	222.55
764.39	222.52
764.71	222.36
765.04	222.14
765.37	222.01
765.69	221.83
766.02	221.78
766.34	221.62
766.67	221.39
767.00	221.35
767.32	221.40
767.65	221.34
767.97	221.29
768.30	221.19
768.62	221.02
768.95	220.90
769.27	220.80
769.60	220.70
769.92	220.58
770.25	220.41
770.57	220.24
770.90	220.15
771.22	219.93
771.55	219.84
771.87	219.85
772.20	219.70
772.52	219.76
772.85	219.80
773.17	219.75
773.50	219.65
773.82	219.53
774.15	219.31
774.47	219.15
774.80	218.91
775.12	218.83
775.45	218.78
775.77	218.69
776.09	218.60
776.42	218.46
776.74	218.48
777.07	218.41
777.39	218.35
777.72	218.32
778.04	218.28
778.36	218.19
778.69	218.10
779.01	218.14
779.33	217.93
779.66	217.66
779.98	217.61
780.31	217.60
780.63	217.56
780.95	217.49
781.28	217.45
781.60	217.43
781.92	217.40
782.25	217.36
782.57	217.33
782.89	217.27
783.22	217.25
783.54	217.10
783.86	217.12
784.19	217.12
784.51	217.02
784.83	216.92
785.16	216.87
785.48	216.80
785.80	216.70
786.12	216.67
786.45	216.65
786.77	216.60
787.09	216.41
787.42	216.31
787.74	216.29
788.06	216.18
788.38	216.09
788.71	216.01
789.03	215.97
789.35	215.94
789.67	215.92
789.99	215.88
790.32	215.80
790.64	215.70
790.96	215.75
791.28	215.66
791.61	215.68
791.93	215.70
792.25	215.66
792.57	215.75
792.89	215.67
793.21	215.61
793.54	215.60
793.86	215.63
794.18	215.65
794.50	215.58
794.82	215.59
795.14	215.64
795.47	215.60
795.79	215.57
796.11	215.52
796.43	215.46
796.75	215.46
797.07	215.44
797.39	215.42
797.71	215.21
798.04	215.21
798.36	215.21
798.68	215.13
799.00	215.04
799.32	214.88
799.64	214.87
799.96	214.85
800.28	214.80
800.60	214.74
800.92	214.63
801.24	214.66
801.56	214.60
801.89	214.50
802.21	214.55
802.53	214.55
802.85	214.60
803.17	214.62
803.49	214.54
803.81	214.52
804.13	214.45
804.45	214.45
804.77	214.43
805.09	214.36
805.41	214.24
805.73	214.22
806.05	214.14
806.37	214.06
806.69	214.02
807.01	213.94
807.33	213.96
807.65	213.94
807.97	213.96
808.28	213.93
808.60	213.89
808.92	213.81
809.24	213.79
809.56	213.67
809.88	213.54
810.20	213.43
810.52	213.46
810.84	213.41
811.16	213.36
811.48	213.32
811.80	213.39
812.12	213.46
812.43	213.49
812.75	213.47
813.07	213.48
813.39	213.51
813.71	213.60
814.03	213.55
814.35	213.45
814.67	213.31
814.98	213.27
815.30	213.27
815.62	213.17
815.94	213.10
816.26	213.13
816.58	213.11
816.89	213.17
817.21	213.18
817.53	213.20
817.85	213.15
818.17	213.12
818.48	212.99
818.80	213.05
819.12	212.96
819.44	212.87
819.76	212.84
820.07	212.75
820.39	212.63
820.71	212.62
821.03	212.70
821.34	212.72
821.66	212.77
821.98	212.77
822.30	212.73
822.61	212.77
822.93	212.66
823.25	212.69
823.57	212.65
823.88	212.62
824.20	212.60
824.52	212.73
824.83	212.73
825.15	212.70
825.47	212.65
825.79	212.66
826.10	212.71
826.42	212.73
826.74	212.74
827.05	212.75
827.37	212.74
827.69	212.68
828.00	212.65
828.32	212.63
828.64	212.59
828.95	212.72
829.27	212.63
829.58	212.65
829.90	212.60
830.22	212.57
830.53	212.51
830.85	212.48
831.17	212.40
831.48	212.33
831.80	212.30
832.11	212.26
832.43	212.22
832.75	212.25
833.06	212.27
833.38	212.19
833.69	212.18
834.01	212.23
834.32	212.23
834.64	212.21
834.96	212.16
835.27	212.19
835.59	212.13
835.90	212.10
836.22	212.09
836.53	212.07
836.85	212.06
837.16	212.20
837.48	212.17
837.79	212.16
838.11	212.25
838.42	212.24
838.74	212.23
839.05	212.21
839.37	212.17
839.68	212.10
840.00	212.16
840.31	212.15
840.63	212.10
840.94	212.07
841.26	212.09
841.57	212.11
841.88	212.08
842.20	212.06
842.51	212.09
842.83	212.02
843.14	212.18
843.46	212.25
843.77	212.10
844.08	212.10
844.40	212.04
844.71	211.98
845.03	211.96
845.34	211.92
845.65	211.97
845.97	211.95
846.28	211.96
846.60	211.93
846.91	211.93
847.22	211.92
847.54	211.96
847.85	211.96
848.16	211.90
848.48	211.89
848.79	211.95
849.10	211.94
849.42	212.00
849.73	211.82
850.04	211.68
850.36	211.68
850.67	211.70
850.98	211.74
851.30	211.74
851.61	211.74
851.92	211.77
852.23	211.78
852.55	211.76
852.86	211.76
853.17	211.77
853.49	211.77
853.80	211.81
854.11	211.88
854.42	211.88
854.74	211.89
855.05	211.90
855.36	211.75
855.67	211.77
855.99	211.74
856.30	212.00
856.61	212.10
856.92	212.05
857.23	211.99
857.55	211.97
857.86	211.94
858.17	212.06
858.48	212.03
858.79	212.02
859.11	212.06
859.42	212.06
859.73	212.01
860.04	212.00
860.35	211.90
860.66	211.80
860.98	211.70
861.29	211.71
861.60	211.70
861.91	211.79
862.22	211.76
862.53	211.74
862.84	211.48
863.16	211.54
863.47	211.50
863.78	211.52
864.09	211.52
864.40	211.53
864.71	211.49
865.02	211.48
865.33	211.43
865.64	211.41
865.95	211.40
866.27	211.48
866.58	211.53
866.89	211.56
867.20	211.53
867.51	211.57
867.82	211.57
868.13	211.58
868.44	211.49
868.75	211.45
869.06	211.50
869.37	211.47
869.68	211.32
869.99	211.33
870.30	211.39
870.61	211.45
870.92	211.39
871.23	211.31
871.54	211.31
871.85	211.32
872.16	211.29
872.47	211.25
872.78	211.12
873.09	211.05
873.40	210.96
873.71	210.92
874.02	210.93
874.33	210.89
874.64	210.90
874.95	211.00
875.26	211.00
875.56	210.90
875.87	210.88
876.18	210.90
876.49	211.12
876.80	210.98
877.11	210.85
877.42	210.84
877.73	210.86
878.04	210.79
878.35	210.83
878.66	210.91
878.96	210.90
879.27	210.96
879.58	210.93
879.89	210.97
880.20	211.11
880.51	211.14
880.82	211.18
881.12	211.23
881.43	211.15
881.74	211.12
882.05	211.17
882.36	211.25
882.67	211.21
882.97	211.02
883.28	211.12
883.59	211.17
883.90	211.25
884.21	211.30
884.51	211.31
884.82	211.23
885.13	211.16
885.44	211.13
885.74	211.09
886.05	211.09
886.36	211.10
886.67	211.07
886.98	211.08
887.28	211.07
887.59	210.91
887.90	210.95
888.20	211.04
888.51	211.05
888.82	211.01
889.13	211.05
889.43	211.18
889.74	211.22
890.05	211.21
890.35	211.13
890.66	211.11
890.97	211.05
891.28	211.04
891.58	211.05
891.89	211.10
892.20	211.14
892.50	211.13
892.81	211.13
893.12	211.03
893.42	210.97
893.73	210.87
894.04	210.97
894.34	210.97
894.65	210.95
894.95	211.03
895.26	211.03
895.57	211.20
895.87	211.04
896.18	211.05
896.48	211.09
896.79	211.17
897.10	211.16
897.40	211.21
897.71	211.30
898.01	211.27
898.32	211.22
898.63	211.12
898.93	211.14
899.24	211.09
899.54	211.09
899.85	211.09
900.15	211.19
900.46	211.21
900.76	211.25
901.07	211.27
901.38	211.13
901.68	211.14
901.99	210.94
902.29	211.05
902.60	210.98
902.90	210.95
903.21	210.90
903.51	210.91
903.82	211.00
904.12	211.01
904.43	211.04
904.73	211.11
905.03	211.23
905.34	211.34
905.64	211.39
905.95	211.46
906.25	211.46
906.56	211.44
906.86	211.41
907.17	211.37
907.47	211.32
907.77	211.41
908.08	211.42
908.38	211.49
908.69	211.34
908.99	211.42
909.30	211.44
909.60	211.54
909.90	211.57
910.21	211.50
910.51	211.42
910.81	211.45
911.12	211.47
911.42	211.49
911.73	211.41
912.03	211.44
912.33	211.50
912.64	211.51
912.94	211.48
913.24	211.39
913.55	211.36
913.85	211.40
914.15	211.36
914.46	211.29
914.76	211.34
915.06	211.42
915.37	211.37
915.67	211.30
915.97	211.23
916.27	211.15
916.58	211.16
916.88	211.20
917.18	211.16
917.49	211.18
917.79	211.07
918.09	211.09
918.39	211.06
918.70	211.01
919.00	210.95
919.30	211.07
919.60	211.20
919.91	211.15
920.21	211.16
920.51	211.18
920.81	211.27
921.12	211.26
921.42	211.25
921.72	211.25
922.02	211.33
922.32	211.40
922.63	211.43
922.93	211.55
923.23	211.55
923.53	211.57
923.83	211.48
924.13	211.56
924.44	211.60
924.74	211.64
925.04	211.70
925.34	211.75
925.64	211.63
925.94	211.56
926.24	211.72
926.55	211.67
926.85	211.66
927.15	211.61
927.45	211.58
927.75	211.58
928.05	211.62
928.35	211.55
928.65	211.50
928.95	211.49
929.26	211.28
929.56	211.34
929.86	211.40
930.16	211.42
930.46	211.35
930.76	211.28
931.06	211.18
931.36	211.09
931.66	211.16
931.96	211.21
932.26	211.16
932.56	211.03
932.86	211.07
933.16	211.09
933.46	211.12
933.76	211.06
934.06	211.14
934.36	211.22
934.66	211.29
934.96	211.26
935.26	211.34
935.56	211.44
935.86	211.35
936.16	211.26
936.46	211.22
936.76	211.29
937.06	211.30
937.36	211.43
937.66	211.47
937.96	211.42
938.26	211.35
938.56	211.40
938.86	211.40
939.16	211.40
939.46	211.39
939.76	211.39
940.06	211.38
940.35	211.25
940.65	211.07
940.95	211.03
941.25	210.99
941.55	210.93
941.85	210.92
942.15	211.02
942.45	211.11
942.75	211.16
943.04	211.10
943.34	211.12
943.64	211.06
943.94	211.01
944.24	211.04
944.54	211.02
944.84	211.05
945.13	211.04
945.43	210.97
945.73	210.97
946.03	210.84
946.33	210.83
946.62	210.85
946.92	210.87
947.22	210.86
947.52	210.83
947.82	210.82
948.11	210.76
948.41	210.62
948.71	210.54
949.01	210.49
949.31	210.49
949.60	210.50
949.90	210.48
950.20	210.49
950.50	210.49
950.79	210.50
951.09	210.43
951.39	210.48
951.69	210.55
951.98	210.54
952.28	210.64
952.58	210.68
952.87	210.70
953.17	210.77
953.47	210.78
953.76	210.79
954.06	210.77
954.36	210.80
954.66	210.83
954.95	210.79
955.25	210.82
955.55	210.88
955.84	210.81
956.14	210.86
956.44	210.87
956.73	210.82
957.03	210.82
957.32	210.85
957.62	210.81
957.92	210.82
958.21	210.85
958.51	211.01
958.81	211.03
959.10	211.03
959.40	211.02
959.69	211.08
959.99	211.08
960.29	211.05
960.58	211.04
960.88	211.10
961.17	211.18
961.47	211.19
961.76	211.11
962.06	211.20
962.36	211.12
962.65	211.15
962.95	211.12
963.24	211.13
963.54	211.16
963.83	211.25
964.13	211.27
964.42	211.25
964.72	211.13
965.01	211.09
965.31	211.10
965.60	211.03
965.90	211.11
966.19	211.12
966.49	211.17
966.78	211.21
967.08	211.21
967.37	211.24
967.67	211.26
967.96	211.32
968.26	211.32
968.55	211.43
968.85	211.32
969.14	211.36
969.43	211.36
969.73	211.34
970.02	211.29
970.32	211.22
970.61	211.11
970.91	211.04
971.20	211.07
971.49	211.04
971.79	211.05
972.08	210.91
972.38	210.92
972.67	210.91
972.96	210.90
973.26	210.85
973.55	210.90
973.85	210.88
974.14	210.85
974.43	210.82
974.73	210.76
975.02	210.79
975.31	210.75
975.61	210.74
975.90	210.72
976.19	210.67
976.49	210.69
976.78	210.81
977.07	210.85
977.37	210.80
977.66	210.79
977.95	210.81
978.24	210.86
978.54	210.86
978.83	210.87
979.12	210.89
979.42	210.86
979.71	210.77
980.00	210.79
980.29	210.83
980.59	210.76
980.88	210.84
981.17	210.81
981.46	210.86
981.76	210.90
982.05	211.02
982.34	211.05
982.63	211.08
982.93	211.05
983.22	211.08
983.51	211.14
983.80	211.22
984.09	211.25
984.39	211.23
984.68	211.29
984.97	211.33
985.26	211.28
985.55	211.32
985.85	211.31
986.14	211.29
986.43	211.29
986.72	211.33
987.01	211.24
987.30	211.28
987.59	211.30
987.89	211.25
988.18	211.15
988.47	211.14
988.76	211.04
989.05	211.06
989.34	210.99
989.63	210.98
989.92	210.96
990.22	210.99
990.51	210.87
990.80	210.76
991.09	210.74
991.38	210.72
991.67	210.65
991.96	210.64
992.25	210.63
992.54	210.53
992.83	210.50
993.12	210.49
993.41	210.51
993.70	210.51
993.99	210.56
994.28	210.56
994.58	210.59
994.87	210.64
995.16	210.58
995.45	210.62
995.74	210.56
996.03	210.60
996.32	210.58
996.61	210.69
996.90	210.72
997.19	210.68
997.48	210.70
997.77	210.72
998.06	210.64
998.34	210.62
998.63	210.61
998.92	210.64
999.21	210.63
999.50	210.59
999.79	210.50
1000.08	210.49
1000.37	210.50
1000.66	210.47
1000.95	210.46
1001.24	210.46
1001.53	210.52
1001.82	210.54
1002.11	210.44
1002.40	210.44
1002.68	210.50
1002.97	210.67
1003.26	210.71
1003.55	210.69
1003.84	210.71
1004.13	210.85
1004.42	210.86
1004.71	210.90
1004.99	210.92
1005.28	210.99
1005.57	211.04
1005.86	211.04
1006.15	211.04
1006.44	211.05
1006.72	211.08
1007.01	211.07
1007.30	211.05
1007.59	210.95
1007.88	210.93
1008.17	210.93
1008.45	210.84
1008.74	210.71
1009.03	210.59
1009.32	210.56
1009.60	210.56
1009.89	210.50
1010.18	210.45
1010.47	210.48
1010.76	210.49
1011.04	210.47
1011.33	210.49
1011.62	210.53
1011.91	210.58
1012.19	210.60
1012.48	210.63
1012.77	210.67
1013.05	210.80
1013.34	210.87
1013.63	210.87
1013.92	210.88
1014.20	210.82
1014.49	210.81
1014.78	210.91
1015.06	210.95
1015.35	210.88
1015.64	210.87
1015.92	210.98
1016.21	210.94
1016.50	210.86
1016.78	210.84
1017.07	210.84
1017.36	210.76
1017.64	210.67
1017.93	210.62
1018.22	210.55
1018.50	210.51
1018.79	210.46
1019.08	210.39
1019.36	210.42
1019.65	210.41
1019.93	210.49
1020.22	210.54
1020.51	210.67
1020.79	210.60
1021.08	210.05
1021.36	211.05
1021.65	211.00
1021.94	211.35
1022.22	211.65
1022.51	210.15
1022.79	211.75
1023.08	209.95
1023.36	212.40
1023.65	209.95
>>>>>End Processed Spectral Data<<<<<
