SpectraSuite Data File
++++++++++++++++++++++++++++++++++++
Date: Mon Feb 25 17:30:58 EST 2013
User: group
Dark Spectrum Present: No
Reference Spectrum Present: No
Number of Sampled Component Spectra: 1
Spectrometers: USB2E7196
Integration Time (usec): 52000 (USB2E7196)
Spectra Averaged: 20 (USB2E7196)
Boxcar Smoothing: 10 (USB2E7196)
Correct for Electrical Dark: No (USB2E7196)
Strobe/Lamp Enabled: No (USB2E7196)
Correct for Detector Non-linearity: No (USB2E7196)
Correct for Stray Light: No (USB2E7196)
Number of Pixels in Processed Spectrum: 2048
>>>>>Begin Processed Spectral Data<<<<<
339.09	0.00
339.48	198.80
339.86	200.10
340.24	201.00
340.63	202.00
341.01	208.20
341.39	205.25
341.78	207.45
342.16	208.45
342.54	208.85
342.93	198.05
343.31	208.06
343.69	208.55
344.07	209.01
344.46	209.48
344.84	209.92
345.22	210.06
345.60	210.35
345.99	210.56
346.37	210.71
346.75	210.82
347.13	210.89
347.52	210.95
347.90	211.08
348.28	211.10
348.66	211.11
349.05	211.16
349.43	211.17
349.81	211.17
350.19	211.19
350.57	211.28
350.96	211.35
351.34	211.45
351.72	211.59
352.10	211.68
352.48	211.76
352.87	211.79
353.25	211.86
353.63	211.87
354.01	211.88
354.39	211.90
354.77	211.95
355.15	212.11
355.54	212.20
355.92	212.16
356.30	212.27
356.68	212.51
357.06	212.57
357.44	212.67
357.82	212.78
358.20	212.85
358.58	212.86
358.97	212.96
359.35	213.07
359.73	213.20
360.11	213.29
360.49	213.38
360.87	213.50
361.25	213.58
361.63	213.78
362.01	213.95
362.39	214.02
362.77	214.09
363.15	214.15
363.53	214.17
363.91	214.24
364.29	214.25
364.67	214.08
365.05	214.08
365.43	214.12
365.81	214.15
366.19	214.29
366.57	214.39
366.95	214.36
367.33	214.32
367.71	214.29
368.09	214.34
368.47	214.28
368.85	214.24
369.23	214.30
369.61	214.20
369.99	214.14
370.37	214.13
370.75	214.16
371.13	214.11
371.51	214.08
371.89	214.10
372.27	214.09
372.65	214.11
373.03	214.12
373.41	214.09
373.78	213.99
374.16	213.87
374.54	213.79
374.92	213.85
375.30	213.76
375.68	213.69
376.06	213.64
376.44	213.61
376.82	213.56
377.19	213.41
377.57	213.36
377.95	213.25
378.33	213.18
378.71	213.11
379.09	213.05
379.47	212.99
379.84	212.88
380.22	212.83
380.60	212.79
380.98	212.68
381.36	212.61
381.73	212.61
382.11	212.60
382.49	212.57
382.87	212.39
383.25	212.32
383.62	212.43
384.00	212.32
384.38	212.30
384.76	212.35
385.13	212.44
385.51	212.34
385.89	212.34
386.27	212.39
386.64	212.29
387.02	212.21
387.40	212.13
387.78	212.03
388.15	212.00
388.53	211.96
388.91	211.95
389.29	211.89
389.66	211.83
390.04	211.83
390.42	211.80
390.79	211.76
391.17	211.79
391.55	211.60
391.92	211.68
392.30	211.65
392.68	211.59
393.05	211.56
393.43	211.59
393.81	211.51
394.18	211.43
394.56	211.50
394.94	211.50
395.31	211.55
395.69	211.62
396.06	211.64
396.44	211.57
396.82	211.58
397.19	211.67
397.57	211.65
397.95	211.65
398.32	211.64
398.70	211.74
399.07	211.75
399.45	211.75
399.82	211.70
400.20	211.79
400.58	211.81
400.95	211.80
401.33	211.84
401.70	212.08
402.08	212.14
402.45	212.23
402.83	212.34
403.20	212.41
403.58	212.53
403.95	212.65
404.33	212.78
404.71	212.87
405.08	213.05
405.46	213.21
405.83	213.35
406.21	213.44
406.58	213.52
406.96	213.73
407.33	213.95
407.70	214.06
408.08	214.35
408.45	214.53
408.83	214.66
409.20	214.91
409.58	215.06
409.95	215.35
410.33	215.64
410.70	215.90
411.08	216.21
411.45	216.58
411.82	216.88
412.20	217.42
412.57	217.85
412.95	218.17
413.32	218.67
413.69	219.17
414.07	219.81
414.44	220.43
414.82	221.05
415.19	221.80
415.56	222.58
415.94	223.18
416.31	224.03
416.68	224.97
417.06	225.99
417.43	226.96
417.81	227.98
418.18	229.01
418.55	230.19
418.93	231.47
419.30	232.75
419.67	234.17
420.04	235.47
420.42	236.97
420.79	238.76
421.16	240.44
421.54	242.21
421.91	243.99
422.28	245.90
422.66	247.85
423.03	249.85
423.40	251.88
423.77	254.08
424.15	256.37
424.52	258.60
424.89	261.06
425.26	263.47
425.64	265.85
426.01	268.44
426.38	271.07
426.75	273.65
427.13	276.40
427.50	279.20
427.87	282.14
428.24	285.11
428.61	287.89
428.99	291.12
429.36	294.54
429.73	297.92
430.10	301.24
430.47	304.87
430.85	308.51
431.22	312.41
431.59	316.59
431.96	320.35
432.33	324.69
432.70	328.73
433.08	333.52
433.45	338.05
433.82	342.49
434.19	347.52
434.56	352.53
434.93	357.26
435.30	361.91
435.68	367.08
436.05	372.22
436.42	377.22
436.79	381.72
437.16	386.68
437.53	391.85
437.90	397.04
438.27	401.95
438.64	407.07
439.01	411.83
439.38	416.14
439.75	420.39
440.13	424.99
440.50	429.52
440.87	433.12
441.24	436.85
441.61	441.02
441.98	443.99
442.35	447.38
442.72	450.86
443.09	454.39
443.46	456.51
443.83	457.89
444.20	459.18
444.57	461.06
444.94	461.80
445.31	462.50
445.68	463.30
446.05	463.51
446.42	462.82
446.79	462.14
447.16	461.14
447.53	460.58
447.90	458.61
448.27	456.48
448.64	453.68
449.01	451.59
449.37	448.10
449.74	444.62
450.11	440.66
450.48	436.30
450.85	431.83
451.22	427.87
451.59	424.17
451.96	420.56
452.33	415.84
452.70	411.52
453.07	406.52
453.43	401.39
453.80	396.57
454.17	391.97
454.54	387.51
454.91	382.88
455.28	378.18
455.65	373.85
456.02	369.71
456.38	366.06
456.75	361.48
457.12	357.59
457.49	353.95
457.86	350.27
458.23	347.26
458.59	343.83
458.96	340.49
459.33	337.46
459.70	334.42
460.07	331.96
460.43	329.26
460.80	326.73
461.17	324.44
461.54	321.99
461.91	319.67
462.27	317.33
462.64	315.32
463.01	313.13
463.38	311.10
463.74	308.94
464.11	307.10
464.48	305.59
464.85	303.97
465.21	302.65
465.58	301.24
465.95	299.44
466.32	298.05
466.68	296.61
467.05	295.23
467.42	293.95
467.78	292.55
468.15	291.25
468.52	290.26
468.88	289.00
469.25	287.92
469.62	287.11
469.98	286.21
470.35	285.30
470.72	284.54
471.08	283.60
471.45	282.87
471.82	282.11
472.18	281.33
472.55	280.74
472.92	280.12
473.28	279.64
473.65	279.13
474.02	278.60
474.38	278.26
474.75	277.89
475.11	277.38
475.48	277.07
475.85	276.85
476.21	276.72
476.58	276.53
476.94	276.52
477.31	276.46
477.67	276.43
478.04	276.56
478.41	276.64
478.77	277.00
479.14	277.17
479.50	277.44
479.87	277.74
480.23	278.09
480.60	278.46
480.96	278.92
481.33	279.58
481.69	280.16
482.06	280.70
482.42	281.35
482.79	282.21
483.15	283.06
483.52	284.06
483.88	284.93
484.25	285.94
484.61	286.96
484.98	288.04
485.34	289.31
485.71	290.54
486.07	291.86
486.44	293.13
486.80	294.59
487.17	296.15
487.53	297.96
487.90	299.75
488.26	301.60
488.62	303.52
488.99	305.48
489.35	307.67
489.72	310.03
490.08	312.51
490.44	314.88
490.81	317.51
491.17	320.05
491.54	322.85
491.90	325.83
492.26	328.98
492.63	332.27
492.99	335.60
493.36	339.29
493.72	343.11
494.08	347.14
494.45	351.39
494.81	355.93
495.17	360.37
495.54	365.26
495.90	370.26
496.26	375.50
496.63	381.05
496.99	386.77
497.35	392.71
497.72	398.71
498.08	405.25
498.44	412.00
498.80	419.35
499.17	426.90
499.53	434.58
499.89	442.54
500.26	450.54
500.62	458.93
500.98	467.70
501.34	476.86
501.71	486.24
502.07	495.86
502.43	505.67
502.79	515.90
503.16	526.56
503.52	537.57
503.88	548.83
504.24	560.29
504.60	571.91
504.97	584.09
505.33	596.53
505.69	609.74
506.05	623.20
506.41	636.65
506.78	650.11
507.14	664.23
507.50	678.64
507.86	693.56
508.22	708.76
508.59	724.02
508.95	739.73
509.31	755.90
509.67	772.36
510.03	789.05
510.39	806.32
510.75	823.83
511.12	841.61
511.48	859.69
511.84	877.94
512.20	896.55
512.56	915.43
512.92	935.02
513.28	954.20
513.64	973.59
514.00	993.21
514.37	1013.59
514.73	1034.17
515.09	1054.86
515.45	1075.65
515.81	1096.84
516.17	1118.04
516.53	1139.26
516.89	1160.72
517.25	1182.03
517.61	1203.39
517.97	1224.87
518.33	1246.16
518.69	1267.63
519.05	1289.48
519.41	1311.53
519.77	1333.83
520.13	1355.77
520.49	1377.40
520.85	1399.82
521.21	1422.18
521.57	1444.75
521.93	1466.49
522.29	1488.80
522.65	1510.90
523.01	1533.09
523.37	1554.50
523.73	1576.51
524.09	1598.37
524.45	1619.91
524.81	1641.97
525.17	1664.00
525.53	1685.99
525.89	1708.00
526.25	1729.60
526.61	1750.56
526.97	1771.87
527.33	1792.77
527.68	1813.89
528.04	1834.62
528.40	1854.37
528.76	1874.51
529.12	1894.70
529.48	1915.94
529.84	1935.91
530.20	1955.84
530.56	1975.60
530.91	1996.06
531.27	2015.82
531.63	2035.42
531.99	2054.86
532.35	2073.65
532.71	2092.74
533.07	2111.77
533.42	2129.89
533.78	2148.43
534.14	2166.72
534.50	2183.77
534.86	2201.31
535.21	2217.71
535.57	2235.22
535.93	2252.40
536.29	2268.58
536.65	2284.65
537.00	2299.28
537.36	2314.08
537.72	2329.03
538.08	2343.81
538.44	2358.48
538.79	2373.51
539.15	2388.15
539.51	2402.41
539.87	2417.16
540.22	2430.87
540.58	2445.08
540.94	2459.00
541.29	2471.83
541.65	2483.47
542.01	2495.79
542.37	2507.10
542.72	2518.97
543.08	2529.48
543.44	2540.90
543.79	2551.11
544.15	2561.34
544.51	2572.26
544.87	2582.78
545.22	2591.31
545.58	2599.58
545.94	2606.67
546.29	2612.81
546.65	2618.58
547.01	2624.44
547.36	2629.90
547.72	2635.15
548.07	2638.91
548.43	2642.25
548.79	2645.37
549.14	2649.51
549.50	2653.80
549.86	2657.93
550.21	2661.64
550.57	2665.32
550.92	2667.61
551.28	2670.13
551.64	2672.14
551.99	2674.02
552.35	2675.27
552.70	2677.79
553.06	2680.45
553.41	2682.96
553.77	2685.40
554.13	2687.39
554.48	2689.12
554.84	2690.28
555.19	2690.82
555.55	2691.07
555.90	2691.65
556.26	2692.01
556.61	2691.80
556.97	2690.24
557.32	2689.32
557.68	2687.49
558.03	2685.93
558.39	2684.04
558.74	2683.49
559.10	2682.45
559.45	2680.53
559.81	2679.45
560.16	2676.60
560.52	2673.95
560.87	2670.92
561.23	2667.19
561.58	2664.68
561.94	2661.35
562.29	2657.11
562.64	2654.42
563.00	2652.05
563.35	2649.66
563.71	2647.78
564.06	2645.84
564.42	2644.14
564.77	2641.63
565.12	2639.54
565.48	2636.56
565.83	2633.50
566.19	2629.89
566.54	2625.32
566.89	2621.37
567.25	2617.40
567.60	2614.22
567.96	2610.24
568.31	2606.65
568.66	2602.65
569.02	2598.13
569.37	2593.13
569.72	2589.87
570.08	2584.73
570.43	2578.76
570.78	2572.96
571.14	2566.44
571.49	2559.77
571.84	2553.61
572.20	2546.87
572.55	2540.50
572.90	2533.57
573.26	2526.78
573.61	2519.70
573.96	2513.23
574.31	2505.63
574.67	2497.61
575.02	2489.32
575.37	2480.89
575.72	2472.13
576.08	2464.79
576.43	2456.16
576.78	2448.27
577.13	2440.36
577.49	2432.38
577.84	2425.14
578.19	2417.70
578.54	2410.56
578.90	2403.47
579.25	2394.84
579.60	2385.99
579.95	2376.69
580.30	2368.77
580.66	2360.79
581.01	2352.16
581.36	2343.14
581.71	2335.21
582.06	2326.78
582.42	2318.86
582.77	2310.20
583.12	2301.63
583.47	2293.18
583.82	2284.97
584.17	2276.16
584.53	2267.00
584.88	2258.24
585.23	2249.06
585.58	2239.58
585.93	2230.17
586.28	2221.40
586.63	2212.93
586.98	2204.68
587.34	2196.99
587.69	2187.95
588.04	2179.12
588.39	2170.47
588.74	2161.71
589.09	2152.97
589.44	2143.90
589.79	2135.54
590.14	2127.85
590.49	2119.65
590.84	2110.86
591.19	2103.19
591.54	2094.63
591.89	2084.80
592.25	2076.05
592.60	2066.86
592.95	2057.98
593.30	2048.82
593.65	2039.24
594.00	2029.54
594.35	2021.47
594.70	2012.28
595.05	2003.95
595.40	1995.12
595.75	1986.03
596.10	1978.14
596.45	1969.94
596.80	1962.15
597.15	1954.06
597.50	1944.95
597.85	1936.69
598.19	1928.42
598.54	1919.89
598.89	1912.63
599.24	1906.03
599.59	1898.58
599.94	1891.83
600.29	1884.02
600.64	1876.33
600.99	1867.97
601.34	1861.22
601.69	1852.62
602.04	1844.76
602.39	1836.63
602.74	1829.26
603.08	1822.94
603.43	1815.84
603.78	1807.95
604.13	1800.15
604.48	1792.23
604.83	1785.84
605.18	1778.82
605.53	1771.23
605.87	1763.62
606.22	1756.43
606.57	1748.82
606.92	1741.13
607.27	1733.26
607.62	1726.19
607.96	1719.34
608.31	1713.43
608.66	1705.80
609.01	1698.38
609.36	1690.74
609.70	1683.08
610.05	1675.63
610.40	1667.55
610.75	1659.29
611.10	1651.78
611.44	1642.85
611.79	1634.00
612.14	1624.80
612.49	1615.59
612.83	1606.84
613.18	1597.40
613.53	1588.06
613.88	1578.65
614.22	1569.67
614.57	1560.67
614.92	1551.49
615.27	1542.17
615.61	1532.48
615.96	1523.68
616.31	1515.50
616.65	1507.86
617.00	1499.79
617.35	1491.38
617.70	1482.57
618.04	1473.75
618.39	1464.53
618.74	1456.48
619.08	1447.97
619.43	1439.99
619.78	1432.29
620.12	1424.50
620.47	1417.01
620.82	1408.63
621.16	1400.45
621.51	1392.35
621.85	1384.06
622.20	1375.84
622.55	1367.97
622.89	1360.00
623.24	1352.30
623.59	1343.72
623.93	1335.02
624.28	1327.03
624.62	1318.87
624.97	1310.97
625.32	1303.07
625.66	1296.06
626.01	1289.01
626.35	1282.09
626.70	1274.39
627.04	1267.00
627.39	1259.76
627.73	1252.37
628.08	1245.71
628.43	1238.38
628.77	1231.35
629.12	1224.09
629.46	1217.79
629.81	1210.53
630.15	1203.28
630.50	1195.92
630.84	1188.99
631.19	1181.97
631.53	1175.15
631.88	1167.69
632.22	1160.17
632.57	1153.48
632.91	1146.16
633.26	1138.72
633.60	1131.66
633.95	1125.17
634.29	1117.95
634.64	1111.23
634.98	1104.09
635.32	1097.16
635.67	1091.01
636.01	1084.37
636.36	1077.76
636.70	1070.90
637.05	1064.59
637.39	1058.46
637.73	1052.24
638.08	1046.57
638.42	1040.98
638.77	1034.74
639.11	1028.65
639.45	1022.91
639.80	1016.45
640.14	1009.99
640.49	1004.07
640.83	998.06
641.17	991.64
641.52	985.74
641.86	979.35
642.20	973.56
642.55	966.91
642.89	960.57
643.23	954.40
643.58	948.91
643.92	942.62
644.26	936.60
644.61	930.78
644.95	924.85
645.29	918.47
645.64	911.95
645.98	905.62
646.32	899.85
646.66	893.84
647.01	887.98
647.35	882.29
647.69	875.99
648.04	870.01
648.38	864.19
648.72	858.47
649.06	852.57
649.41	846.79
649.75	841.09
650.09	835.40
650.43	829.57
650.78	823.08
651.12	817.34
651.46	811.55
651.80	805.63
652.14	799.76
652.49	794.14
652.83	788.42
653.17	782.55
653.51	776.76
653.85	771.14
654.20	765.42
654.54	759.86
654.88	754.71
655.22	749.06
655.56	743.18
655.90	737.41
656.25	731.88
656.59	726.33
656.93	721.18
657.27	716.06
657.61	710.64
657.95	705.78
658.29	700.66
658.64	695.67
658.98	690.51
659.32	685.20
659.66	679.97
660.00	674.81
660.34	669.71
660.68	664.58
661.02	659.48
661.36	654.95
661.70	650.14
662.05	645.37
662.39	641.01
662.73	636.76
663.07	632.49
663.41	628.03
663.75	623.47
664.09	618.89
664.43	614.25
664.77	609.98
665.11	605.55
665.45	601.24
665.79	596.86
666.13	592.51
666.47	588.41
666.81	584.38
667.15	580.35
667.49	576.68
667.83	572.80
668.17	569.07
668.51	565.20
668.85	561.50
669.19	557.83
669.53	553.83
669.87	549.85
670.21	546.00
670.55	542.35
670.89	539.04
671.23	535.96
671.57	532.50
671.91	529.00
672.25	525.46
672.58	522.07
672.92	518.64
673.26	515.54
673.60	512.29
673.94	509.13
674.28	505.87
674.62	502.68
674.96	499.58
675.30	496.60
675.64	493.51
675.97	490.38
676.31	487.24
676.65	484.38
676.99	481.71
677.33	478.83
677.67	475.97
678.01	472.95
678.34	469.94
678.68	467.11
679.02	464.11
679.36	461.40
679.70	458.76
680.04	455.91
680.37	453.02
680.71	450.22
681.05	447.51
681.39	444.88
681.73	442.32
682.06	439.89
682.40	437.28
682.74	434.73
683.08	432.30
683.42	429.75
683.75	427.33
684.09	424.76
684.43	422.17
684.77	419.64
685.10	417.06
685.44	414.49
685.78	411.97
686.12	409.88
686.45	407.70
686.79	405.30
687.13	403.19
687.46	401.07
687.80	399.00
688.14	396.84
688.48	394.90
688.81	392.63
689.15	390.36
689.49	388.24
689.82	386.02
690.16	383.64
690.50	381.49
690.83	379.34
691.17	377.15
691.51	375.21
691.84	373.10
692.18	371.19
692.52	369.32
692.85	367.56
693.19	365.66
693.52	363.66
693.86	361.73
694.20	360.00
694.53	358.10
694.87	356.23
695.21	354.23
695.54	352.26
695.88	350.48
696.21	348.78
696.55	347.06
696.88	345.40
697.22	343.73
697.56	342.27
697.89	340.50
698.23	338.98
698.56	337.29
698.90	335.94
699.23	334.32
699.57	332.72
699.90	331.14
700.24	329.53
700.58	328.00
700.91	326.58
701.25	325.16
701.58	323.78
701.92	322.40
702.25	321.16
702.59	319.90
702.92	318.63
703.26	317.29
703.59	316.00
703.93	314.92
704.26	313.77
704.60	312.51
704.93	311.39
705.26	310.19
705.60	309.14
705.93	307.87
706.27	306.70
706.60	305.57
706.94	304.46
707.27	303.31
707.61	302.17
707.94	301.00
708.27	299.67
708.61	298.57
708.94	297.51
709.28	296.44
709.61	295.27
709.94	294.20
710.28	293.10
710.61	292.07
710.95	290.83
711.28	289.89
711.61	288.77
711.95	287.79
712.28	286.77
712.61	285.79
712.95	284.85
713.28	283.99
713.61	283.10
713.95	282.19
714.28	281.36
714.61	280.41
714.95	279.56
715.28	278.72
715.61	277.72
715.95	276.80
716.28	275.77
716.61	274.95
716.95	274.08
717.28	273.34
717.61	272.49
717.94	271.80
718.28	270.91
718.61	270.13
718.94	269.38
719.27	268.73
719.61	267.96
719.94	267.24
720.27	266.54
720.60	265.86
720.94	265.15
721.27	264.48
721.60	263.95
721.93	263.32
722.27	262.80
722.60	262.30
722.93	261.76
723.26	261.28
723.59	260.73
723.93	260.20
724.26	259.65
724.59	259.06
724.92	258.45
725.25	257.95
725.59	257.51
725.92	257.03
726.25	256.48
726.58	255.93
726.91	255.42
727.24	254.89
727.57	254.34
727.91	253.78
728.24	253.28
728.57	252.80
728.90	252.38
729.23	251.81
729.56	251.44
729.89	250.91
730.22	250.46
730.55	249.96
730.89	249.44
731.22	248.93
731.55	248.55
731.88	248.08
732.21	247.68
732.54	247.17
732.87	246.73
733.20	246.29
733.53	245.91
733.86	245.41
734.19	244.98
734.52	244.62
734.85	244.33
735.18	243.94
735.51	243.55
735.84	243.14
736.17	242.77
736.50	242.32
736.83	242.22
737.16	241.85
737.49	241.47
737.82	241.15
738.15	240.91
738.48	240.50
738.81	240.21
739.14	239.82
739.47	239.54
739.80	239.20
740.13	238.81
740.46	238.41
740.79	238.10
741.12	237.77
741.45	237.46
741.78	237.16
742.11	236.99
742.44	236.65
742.77	236.35
743.10	236.04
743.43	235.76
743.75	235.18
744.08	235.06
744.41	234.84
744.74	234.59
745.07	234.25
745.40	234.07
745.73	233.86
746.06	233.56
746.39	233.29
746.71	233.00
747.04	232.81
747.37	232.65
747.70	232.50
748.03	232.38
748.36	232.17
748.68	231.93
749.01	231.59
749.34	231.35
749.67	231.19
750.00	230.97
750.33	230.81
750.65	230.62
750.98	230.17
751.31	229.85
751.64	229.65
751.97	229.55
752.29	229.23
752.62	228.95
752.95	228.79
753.28	228.56
753.60	228.35
753.93	228.14
754.26	227.92
754.59	227.65
754.91	227.38
755.24	227.14
755.57	226.81
755.90	226.62
756.22	226.47
756.55	226.20
756.88	226.01
757.20	225.71
757.53	225.55
757.86	225.39
758.19	225.29
758.51	225.07
758.84	224.72
759.17	224.63
759.49	224.44
759.82	224.34
760.15	224.16
760.47	224.00
760.80	223.78
761.13	223.63
761.45	223.46
761.78	223.33
762.11	223.14
762.43	223.03
762.76	222.84
763.08	222.67
763.41	222.55
763.74	222.43
764.06	222.29
764.39	222.16
764.71	222.05
765.04	221.89
765.37	221.70
765.69	221.58
766.02	221.40
766.34	221.29
766.67	221.06
767.00	221.02
767.32	221.01
767.65	220.96
767.97	220.84
768.30	220.74
768.62	220.61
768.95	220.50
769.27	220.36
769.60	220.32
769.92	220.18
770.25	220.05
770.57	219.91
770.90	219.77
771.22	219.65
771.55	219.53
771.87	219.45
772.20	219.42
772.52	219.49
772.85	219.65
773.17	219.55
773.50	219.49
773.82	219.35
774.15	219.09
774.47	218.87
774.80	218.78
775.12	218.71
775.45	218.58
775.77	218.55
776.09	218.47
776.42	218.31
776.74	218.21
777.07	218.12
777.39	218.08
777.72	217.99
778.04	217.91
778.36	217.83
778.69	217.78
779.01	217.71
779.33	217.48
779.66	217.16
779.98	217.13
780.31	217.07
780.63	217.04
780.95	217.08
781.28	217.11
781.60	217.01
781.92	216.88
782.25	216.85
782.57	216.79
782.89	216.75
783.22	216.75
783.54	216.63
783.86	216.60
784.19	216.46
784.51	216.55
784.83	216.46
785.16	216.50
785.48	216.41
785.80	216.30
786.12	216.28
786.45	216.20
786.77	216.11
787.09	215.96
787.42	215.87
787.74	215.80
788.06	215.77
788.38	215.76
788.71	215.74
789.03	215.67
789.35	215.59
789.67	215.58
789.99	215.50
790.32	215.53
790.64	215.48
790.96	215.62
791.28	215.52
791.61	215.50
791.93	215.43
792.25	215.34
792.57	215.47
792.89	215.38
793.21	215.38
793.54	215.40
793.86	215.41
794.18	215.36
794.50	215.19
794.82	215.15
795.14	215.14
795.47	215.19
795.79	215.22
796.11	215.13
796.43	215.07
796.75	215.00
797.07	214.97
797.39	214.94
797.71	214.76
798.04	214.66
798.36	214.71
798.68	214.60
799.00	214.59
799.32	214.42
799.64	214.46
799.96	214.41
800.28	214.40
800.60	214.35
800.92	214.36
801.24	214.41
801.56	214.39
801.89	214.25
802.21	214.15
802.53	214.05
802.85	214.10
803.17	214.16
803.49	214.18
803.81	214.10
804.13	214.12
804.45	214.07
804.77	214.06
805.09	213.94
805.41	213.94
805.73	213.89
806.05	213.87
806.37	213.84
806.69	213.86
807.01	213.74
807.33	213.76
807.65	213.71
807.97	213.73
808.28	213.68
808.60	213.70
808.92	213.72
809.24	213.82
809.56	213.74
809.88	213.61
810.20	213.64
810.52	213.65
810.84	213.61
811.16	213.60
811.48	213.56
811.80	213.66
812.12	213.63
812.43	213.66
812.75	213.58
813.07	213.50
813.39	213.49
813.71	213.50
814.03	213.42
814.35	213.43
814.67	213.39
814.98	213.41
815.30	213.41
815.62	213.34
815.94	213.19
816.26	213.23
816.58	213.20
816.89	213.07
817.21	213.02
817.53	213.00
817.85	212.99
818.17	212.98
818.48	212.84
818.80	212.87
819.12	212.87
819.44	212.92
819.76	212.91
820.07	212.81
820.39	212.83
820.71	212.84
821.03	212.80
821.34	212.74
821.66	212.67
821.98	212.61
822.30	212.58
822.61	212.71
822.93	212.62
823.25	212.65
823.57	212.69
823.88	212.72
824.20	212.68
824.52	212.72
824.83	212.71
825.15	212.70
825.47	212.73
825.79	212.65
826.10	212.53
826.42	212.52
826.74	212.57
827.05	212.53
827.37	212.50
827.69	212.49
828.00	212.50
828.32	212.51
828.64	212.51
828.95	212.60
829.27	212.50
829.58	212.45
829.90	212.45
830.22	212.45
830.53	212.50
830.85	212.47
831.17	212.38
831.48	212.40
831.80	212.38
832.11	212.30
832.43	212.30
832.75	212.29
833.06	212.36
833.38	212.34
833.69	212.31
834.01	212.34
834.32	212.27
834.64	212.31
834.96	212.31
835.27	212.31
835.59	212.28
835.90	212.27
836.22	212.36
836.53	212.30
836.85	212.30
837.16	212.37
837.48	212.37
837.79	212.45
838.11	212.37
838.42	212.34
838.74	212.37
839.05	212.38
839.37	212.50
839.68	212.44
840.00	212.31
840.31	212.33
840.63	212.31
840.94	212.32
841.26	212.31
841.57	212.27
841.88	212.27
842.20	212.21
842.51	212.12
842.83	212.07
843.14	212.22
843.46	212.19
843.77	212.15
844.08	212.07
844.40	212.05
844.71	212.10
845.03	212.14
845.34	212.10
845.65	212.10
845.97	212.05
846.28	212.01
846.60	212.06
846.91	212.03
847.22	211.99
847.54	212.04
847.85	212.02
848.16	212.07
848.48	212.01
848.79	212.05
849.10	212.13
849.42	212.16
849.73	211.99
850.04	211.96
850.36	211.83
850.67	211.85
850.98	211.80
851.30	211.78
851.61	211.73
851.92	211.72
852.23	211.70
852.55	211.71
852.86	211.75
853.17	211.73
853.49	211.78
853.80	211.80
854.11	211.77
854.42	211.70
854.74	211.63
855.05	211.64
855.36	211.59
855.67	211.58
855.99	211.53
856.30	211.77
856.61	211.77
856.92	211.75
857.23	211.79
857.55	211.81
857.86	211.82
858.17	211.86
858.48	211.87
858.79	211.90
859.11	211.92
859.42	211.82
859.73	211.83
860.04	211.75
860.35	211.75
860.66	211.70
860.98	211.76
861.29	211.78
861.60	211.79
861.91	211.81
862.22	211.77
862.53	211.78
862.84	211.58
863.16	211.66
863.47	211.68
863.78	211.62
864.09	211.59
864.40	211.60
864.71	211.62
865.02	211.50
865.33	211.44
865.64	211.39
865.95	211.47
866.27	211.56
866.58	211.67
866.89	211.67
867.20	211.66
867.51	211.58
867.82	211.53
868.13	211.56
868.44	211.48
868.75	211.56
869.06	211.60
869.37	211.60
869.68	211.45
869.99	211.49
870.30	211.53
870.61	211.60
870.92	211.54
871.23	211.50
871.54	211.62
871.85	211.68
872.16	211.73
872.47	211.73
872.78	211.70
873.09	211.63
873.40	211.57
873.71	211.58
874.02	211.61
874.33	211.65
874.64	211.63
874.95	211.70
875.26	211.62
875.56	211.58
875.87	211.53
876.18	211.63
876.49	211.80
876.80	211.78
877.11	211.70
877.42	211.78
877.73	211.84
878.04	211.80
878.35	211.75
878.66	211.73
878.96	211.72
879.27	211.65
879.58	211.63
879.89	211.68
880.20	211.75
880.51	211.75
880.82	211.73
881.12	211.74
881.43	211.68
881.74	211.67
882.05	211.66
882.36	211.68
882.67	211.68
882.97	211.44
883.28	211.45
883.59	211.42
883.90	211.41
884.21	211.41
884.51	211.39
884.82	211.41
885.13	211.38
885.44	211.37
885.74	211.41
886.05	211.47
886.36	211.49
886.67	211.41
886.98	211.52
887.28	211.49
887.59	211.52
887.90	211.54
888.20	211.53
888.51	211.52
888.82	211.55
889.13	211.52
889.43	211.66
889.74	211.66
890.05	211.68
890.35	211.60
890.66	211.51
890.97	211.50
891.28	211.47
891.58	211.49
891.89	211.49
892.20	211.47
892.50	211.38
892.81	211.41
893.12	211.43
893.42	211.34
893.73	211.34
894.04	211.35
894.34	211.39
894.65	211.36
894.95	211.34
895.26	211.30
895.57	211.43
895.87	211.23
896.18	211.19
896.48	211.20
896.79	211.26
897.10	211.30
897.40	211.27
897.71	211.26
898.01	211.23
898.32	211.22
898.63	211.16
898.93	211.17
899.24	211.15
899.54	211.20
899.85	211.16
900.15	211.27
900.46	211.23
900.76	211.26
901.07	211.25
901.38	211.26
901.68	211.28
901.99	211.14
902.29	211.26
902.60	211.30
902.90	211.26
903.21	211.22
903.51	211.23
903.82	211.30
904.12	211.33
904.43	211.32
904.73	211.29
905.03	211.38
905.34	211.49
905.64	211.45
905.95	211.30
906.25	211.29
906.56	211.20
906.86	211.18
907.17	211.06
907.47	211.08
907.77	211.12
908.08	211.10
908.38	211.17
908.69	211.16
908.99	211.20
909.30	211.17
909.60	211.19
909.90	211.22
910.21	211.21
910.51	211.13
910.81	211.14
911.12	211.19
911.42	211.18
911.73	211.02
912.03	211.03
912.33	211.10
912.64	211.09
912.94	211.06
913.24	211.04
913.55	211.07
913.85	211.01
914.15	210.99
914.46	210.96
914.76	210.87
915.06	210.87
915.37	210.83
915.67	210.90
915.97	210.85
916.27	210.79
916.58	210.76
916.88	210.81
917.18	210.84
917.49	210.96
917.79	211.00
918.09	210.99
918.39	211.05
918.70	211.02
919.00	211.03
919.30	211.06
919.60	211.01
919.91	210.97
920.21	211.04
920.51	211.00
920.81	211.05
921.12	211.04
921.42	210.96
921.72	210.96
922.02	210.92
922.32	210.92
922.63	210.97
922.93	211.07
923.23	211.03
923.53	211.02
923.83	210.96
924.13	210.94
924.44	211.02
924.74	211.10
925.04	211.15
925.34	211.11
925.64	211.15
925.94	211.17
926.24	211.27
926.55	211.25
926.85	211.30
927.15	211.30
927.45	211.39
927.75	211.41
928.05	211.41
928.35	211.40
928.65	211.41
928.95	211.40
929.26	211.31
929.56	211.33
929.86	211.33
930.16	211.22
930.46	211.18
930.76	211.13
931.06	210.98
931.36	210.95
931.66	210.98
931.96	210.97
932.26	211.03
932.56	210.96
932.86	210.98
933.16	210.89
933.46	210.83
933.76	210.75
934.06	210.82
934.36	210.89
934.66	210.88
934.96	210.88
935.26	210.82
935.56	210.89
935.86	210.81
936.16	210.70
936.46	210.72
936.76	210.70
937.06	210.72
937.36	210.69
937.66	210.70
937.96	210.70
938.26	210.69
938.56	210.61
938.86	210.59
939.16	210.65
939.46	210.78
939.76	210.81
940.06	210.85
940.35	210.85
940.65	210.76
940.95	210.82
941.25	210.80
941.55	210.78
941.85	210.72
942.15	210.80
942.45	210.92
942.75	210.94
943.04	210.97
943.34	211.02
943.64	211.01
943.94	210.96
944.24	210.96
944.54	210.95
944.84	210.95
945.13	210.99
945.43	210.91
945.73	210.87
946.03	210.89
946.33	210.88
946.62	210.81
946.92	210.84
947.22	210.84
947.52	210.89
947.82	210.98
948.11	211.02
948.41	211.04
948.71	211.04
949.01	211.02
949.31	210.96
949.60	210.95
949.90	211.01
950.20	211.05
950.50	211.03
950.79	211.03
951.09	211.11
951.39	211.04
951.69	211.04
951.98	211.09
952.28	211.07
952.58	211.09
952.87	211.07
953.17	211.02
953.47	211.02
953.76	210.99
954.06	210.99
954.36	211.00
954.66	210.97
954.95	210.96
955.25	211.02
955.55	211.05
955.84	211.09
956.14	211.06
956.44	211.12
956.73	211.11
957.03	211.13
957.32	211.11
957.62	211.16
957.92	211.18
958.21	211.11
958.51	211.27
958.81	211.25
959.10	211.35
959.40	211.38
959.69	211.44
959.99	211.43
960.29	211.39
960.58	211.36
960.88	211.38
961.17	211.35
961.47	211.28
961.76	211.31
962.06	211.28
962.36	211.28
962.65	211.26
962.95	211.28
963.24	211.28
963.54	211.19
963.83	211.17
964.13	211.19
964.42	211.22
964.72	211.06
965.01	211.08
965.31	211.02
965.60	211.00
965.90	211.02
966.19	210.96
966.49	210.98
966.78	210.94
967.08	210.97
967.37	210.98
967.67	211.02
967.96	210.97
968.26	210.90
968.55	210.96
968.85	210.93
969.14	210.85
969.43	210.82
969.73	210.91
970.02	210.93
970.32	210.90
970.61	210.87
970.91	210.84
971.20	210.78
971.49	210.76
971.79	210.79
972.08	210.66
972.38	210.71
972.67	210.70
972.96	210.71
973.26	210.66
973.55	210.66
973.85	210.60
974.14	210.63
974.43	210.69
974.73	210.62
975.02	210.62
975.31	210.64
975.61	210.67
975.90	210.55
976.19	210.46
976.49	210.44
976.78	210.43
977.07	210.41
977.37	210.48
977.66	210.51
977.95	210.49
978.24	210.53
978.54	210.54
978.83	210.50
979.12	210.49
979.42	210.50
979.71	210.54
980.00	210.54
980.29	210.55
980.59	210.50
980.88	210.52
981.17	210.54
981.46	210.54
981.76	210.48
982.05	210.57
982.34	210.63
982.63	210.66
982.93	210.63
983.22	210.70
983.51	210.65
983.80	210.67
984.09	210.67
984.39	210.67
984.68	210.64
984.97	210.68
985.26	210.66
985.55	210.70
985.85	210.56
986.14	210.68
986.43	210.68
986.72	210.65
987.01	210.65
987.30	210.68
987.59	210.70
987.89	210.75
988.18	210.79
988.47	210.84
988.76	210.85
989.05	210.94
989.34	210.95
989.63	211.00
989.92	210.91
990.22	210.89
990.51	210.88
990.80	210.90
991.09	210.94
991.38	211.02
991.67	210.99
991.96	211.02
992.25	210.98
992.54	210.98
992.83	210.99
993.12	210.96
993.41	210.90
993.70	210.94
993.99	210.93
994.28	210.89
994.58	210.92
994.87	210.86
995.16	210.83
995.45	210.77
995.74	210.76
996.03	210.85
996.32	210.90
996.61	210.96
996.90	211.01
997.19	210.95
997.48	210.87
997.77	210.86
998.06	210.90
998.34	210.81
998.63	210.78
998.92	210.85
999.21	210.94
999.50	210.99
999.79	211.01
1000.08	211.06
1000.37	211.02
1000.66	211.00
1000.95	211.08
1001.24	211.03
1001.53	211.11
1001.82	211.07
1002.11	211.00
1002.40	211.03
1002.68	211.02
1002.97	211.10
1003.26	211.05
1003.55	211.04
1003.84	211.06
1004.13	211.15
1004.42	211.20
1004.71	211.13
1004.99	211.14
1005.28	211.10
1005.57	211.03
1005.86	211.00
1006.15	211.03
1006.44	211.03
1006.72	211.02
1007.01	211.01
1007.30	211.03
1007.59	210.96
1007.88	210.98
1008.17	211.01
1008.45	210.96
1008.74	210.93
1009.03	210.87
1009.32	210.92
1009.60	210.91
1009.89	210.89
1010.18	210.84
1010.47	210.85
1010.76	210.86
1011.04	210.85
1011.33	211.00
1011.62	211.00
1011.91	210.93
1012.19	210.93
1012.48	210.97
1012.77	210.95
1013.05	211.06
1013.34	211.08
1013.63	211.05
1013.92	211.00
1014.20	211.04
1014.49	211.04
1014.78	211.02
1015.06	210.99
1015.35	210.95
1015.64	210.96
1015.92	210.96
1016.21	210.89
1016.50	210.82
1016.78	210.82
1017.07	210.78
1017.36	210.60
1017.64	210.61
1017.93	210.60
1018.22	210.54
1018.50	210.49
1018.79	210.45
1019.08	210.32
1019.36	210.29
1019.65	210.30
1019.93	210.30
1020.22	210.20
1020.51	210.25
1020.79	210.27
1021.08	210.70
1021.36	209.70
1021.65	209.90
1021.94	210.65
1022.22	210.40
1022.51	210.20
1022.79	209.70
1023.08	209.75
1023.36	211.85
1023.65	211.10
>>>>>End Processed Spectral Data<<<<<
