SpectraSuite Data File
++++++++++++++++++++++++++++++++++++
Date: Mon Feb 25 17:32:56 EST 2013
User: group
Dark Spectrum Present: No
Reference Spectrum Present: No
Number of Sampled Component Spectra: 1
Spectrometers: USB2E7196
Integration Time (usec): 52000 (USB2E7196)
Spectra Averaged: 20 (USB2E7196)
Boxcar Smoothing: 10 (USB2E7196)
Correct for Electrical Dark: No (USB2E7196)
Strobe/Lamp Enabled: No (USB2E7196)
Correct for Detector Non-linearity: No (USB2E7196)
Correct for Stray Light: No (USB2E7196)
Number of Pixels in Processed Spectrum: 2048
>>>>>Begin Processed Spectral Data<<<<<
339.09	0.00
339.48	199.30
339.86	200.90
340.24	202.00
340.63	203.50
341.01	207.25
341.39	205.05
341.78	208.15
342.16	209.10
342.54	208.65
342.93	198.52
343.31	208.61
343.69	209.16
344.07	209.65
344.46	210.10
344.84	210.51
345.22	210.70
345.60	211.03
345.99	211.19
346.37	211.29
346.75	211.45
347.13	211.53
347.52	211.55
347.90	211.67
348.28	211.62
348.66	211.65
349.05	211.66
349.43	211.67
349.81	211.67
350.19	211.78
350.57	211.81
350.96	212.02
351.34	212.00
351.72	212.08
352.10	212.15
352.48	212.22
352.87	212.29
353.25	212.32
353.63	212.38
354.01	212.42
354.39	212.50
354.77	212.59
355.15	212.64
355.54	212.67
355.92	212.67
356.30	212.76
356.68	212.95
357.06	213.04
357.44	213.01
357.82	213.09
358.20	213.16
358.58	213.30
358.97	213.27
359.35	213.40
359.73	213.47
360.11	213.49
360.49	213.55
360.87	213.55
361.25	213.70
361.63	213.73
362.01	213.78
362.39	213.85
362.77	213.80
363.15	213.84
363.53	213.84
363.91	213.94
364.29	213.98
364.67	213.87
365.05	213.82
365.43	213.93
365.81	213.87
366.19	213.99
366.57	214.04
366.95	214.00
367.33	213.96
367.71	213.97
368.09	213.99
368.47	213.99
368.85	213.97
369.23	213.94
369.61	213.89
369.99	213.92
370.37	213.87
370.75	214.01
371.13	214.00
371.51	213.99
371.89	213.93
372.27	213.92
372.65	213.84
373.03	213.81
373.41	213.69
373.78	213.77
374.16	213.54
374.54	213.41
374.92	213.38
375.30	213.28
375.68	213.17
376.06	213.15
376.44	213.07
376.82	213.03
377.19	212.94
377.57	212.91
377.95	212.81
378.33	212.83
378.71	212.70
379.09	212.63
379.47	212.65
379.84	212.58
380.22	212.46
380.60	212.39
380.98	212.33
381.36	212.33
381.73	212.24
382.11	212.32
382.49	212.28
382.87	212.24
383.25	212.24
383.62	212.37
384.00	212.28
384.38	212.31
384.76	212.27
385.13	212.31
385.51	212.25
385.89	212.21
386.27	212.11
386.64	212.05
387.02	212.02
387.40	211.94
387.78	211.99
388.15	211.99
388.53	212.01
388.91	211.91
389.29	211.91
389.66	211.88
390.04	211.78
390.42	211.81
390.79	211.78
391.17	211.72
391.55	211.60
391.92	211.59
392.30	211.56
392.68	211.61
393.05	211.64
393.43	211.60
393.81	211.60
394.18	211.55
394.56	211.54
394.94	211.59
395.31	211.64
395.69	211.64
396.06	211.75
396.44	211.78
396.82	211.90
397.19	211.98
397.57	211.99
397.95	212.06
398.32	212.02
398.70	212.08
399.07	212.29
399.45	212.20
399.82	212.27
400.20	212.27
400.58	212.25
400.95	212.17
401.33	212.36
401.70	212.55
402.08	212.69
402.45	212.78
402.83	212.83
403.20	212.86
403.58	212.89
403.95	212.95
404.33	213.06
404.71	213.11
405.08	213.31
405.46	213.36
405.83	213.45
406.21	213.50
406.58	213.60
406.96	213.71
407.33	213.91
407.70	214.12
408.08	214.44
408.45	214.67
408.83	214.96
409.20	215.15
409.58	215.32
409.95	215.56
410.33	215.89
410.70	216.16
411.08	216.53
411.45	216.93
411.82	217.24
412.20	217.64
412.57	218.19
412.95	218.50
413.32	219.09
413.69	219.63
414.07	220.33
414.44	220.96
414.82	221.55
415.19	222.39
415.56	223.10
415.94	223.76
416.31	224.61
416.68	225.46
417.06	226.47
417.43	227.40
417.81	228.54
418.18	229.59
418.55	230.83
418.93	232.06
419.30	233.38
419.67	234.88
420.04	236.41
420.42	237.87
420.79	239.59
421.16	241.31
421.54	243.11
421.91	244.96
422.28	246.84
422.66	248.84
423.03	250.85
423.40	252.88
423.77	255.14
424.15	257.43
424.52	259.77
424.89	262.25
425.26	264.74
425.64	267.09
426.01	269.69
426.38	272.35
426.75	275.13
427.13	277.99
427.50	280.86
427.87	283.90
428.24	286.98
428.61	289.91
428.99	293.18
429.36	296.70
429.73	300.14
430.10	303.63
430.47	307.14
430.85	310.74
431.22	314.73
431.59	318.94
431.96	322.81
432.33	327.17
432.70	331.50
433.08	336.49
433.45	341.08
433.82	345.70
434.19	350.72
434.56	355.65
434.93	360.32
435.30	365.05
435.68	370.21
436.05	375.23
436.42	380.44
436.79	385.07
437.16	390.09
437.53	395.30
437.90	400.59
438.27	405.90
438.64	411.20
439.01	416.10
439.38	420.33
439.75	424.55
440.13	429.28
440.50	433.68
440.87	437.28
441.24	441.09
441.61	445.28
441.98	448.48
442.35	452.07
442.72	455.68
443.09	459.21
443.46	461.25
443.83	462.71
444.20	463.80
444.57	465.61
444.94	466.43
445.31	467.25
445.68	468.06
446.05	468.27
446.42	467.64
446.79	466.94
447.16	466.18
447.53	465.63
447.90	463.56
448.27	461.47
448.64	458.53
449.01	456.39
449.37	452.85
449.74	449.15
450.11	445.13
450.48	440.65
450.85	435.98
451.22	432.11
451.59	428.38
451.96	424.80
452.33	420.02
452.70	415.62
453.07	410.48
453.43	405.21
453.80	400.15
454.17	395.40
454.54	390.74
454.91	385.84
455.28	381.12
455.65	376.76
456.02	372.44
456.38	368.72
456.75	364.18
457.12	360.34
457.49	356.69
457.86	352.88
458.23	349.69
458.59	346.23
458.96	342.72
459.33	339.55
459.70	336.48
460.07	333.97
460.43	331.11
460.80	328.52
461.17	326.14
461.54	323.66
461.91	321.30
462.27	319.03
462.64	317.01
463.01	314.77
463.38	312.73
463.74	310.46
464.11	308.60
464.48	306.89
464.85	305.04
465.21	303.70
465.58	302.35
465.95	300.70
466.32	299.39
466.68	297.93
467.05	296.59
467.42	295.12
467.78	293.68
468.15	292.44
468.52	291.43
468.88	290.12
469.25	289.00
469.62	288.07
469.98	287.05
470.35	286.23
470.72	285.34
471.08	284.36
471.45	283.68
471.82	282.93
472.18	282.14
472.55	281.61
472.92	280.88
473.28	280.14
473.65	279.53
474.02	278.97
474.38	278.55
474.75	278.26
475.11	277.86
475.48	277.58
475.85	277.27
476.21	277.06
476.58	276.90
476.94	276.90
477.31	276.88
477.67	276.88
478.04	276.87
478.41	276.97
478.77	277.30
479.14	277.44
479.50	277.71
479.87	278.08
480.23	278.41
480.60	278.72
480.96	279.21
481.33	279.87
481.69	280.50
482.06	281.17
482.42	281.78
482.79	282.54
483.15	283.31
483.52	284.27
483.88	285.25
484.25	286.33
484.61	287.34
484.98	288.44
485.34	289.69
485.71	291.04
486.07	292.46
486.44	293.76
486.80	295.28
487.17	296.83
487.53	298.61
487.90	300.45
488.26	302.53
488.62	304.54
488.99	306.53
489.35	308.57
489.72	310.79
490.08	313.23
490.44	315.73
490.81	318.47
491.17	321.27
491.54	324.16
491.90	327.12
492.26	330.31
492.63	333.63
492.99	337.05
493.36	340.63
493.72	344.52
494.08	348.49
494.45	352.92
494.81	357.48
495.17	361.94
495.54	366.90
495.90	371.86
496.26	377.21
496.63	382.73
496.99	388.54
497.35	394.55
497.72	400.79
498.08	407.33
498.44	414.15
498.80	421.24
499.17	428.69
499.53	436.42
499.89	444.51
500.26	452.56
500.62	460.96
500.98	469.87
501.34	479.04
501.71	488.46
502.07	497.90
502.43	507.90
502.79	518.23
503.16	528.89
503.52	539.73
503.88	550.89
504.24	562.48
504.60	574.40
504.97	586.75
505.33	599.25
505.69	612.52
506.05	625.83
506.41	639.56
506.78	653.19
507.14	667.37
507.50	681.80
507.86	696.76
508.22	712.10
508.59	727.67
508.95	743.59
509.31	759.80
509.67	776.68
510.03	793.54
510.39	811.05
510.75	828.63
511.12	846.65
511.48	864.97
511.84	883.65
512.20	902.27
512.56	921.47
512.92	940.90
513.28	960.35
513.64	980.25
514.00	999.95
514.37	1020.35
514.73	1041.12
515.09	1061.89
515.45	1082.88
515.81	1104.09
516.17	1125.19
516.53	1146.36
516.89	1168.18
517.25	1189.51
517.61	1211.25
517.97	1232.59
518.33	1254.20
518.69	1275.80
519.05	1297.70
519.41	1319.78
519.77	1342.27
520.13	1363.90
520.49	1385.97
520.85	1408.44
521.21	1430.90
521.57	1453.75
521.93	1475.56
522.29	1498.51
522.65	1521.14
523.01	1543.57
523.37	1565.87
523.73	1588.15
524.09	1610.24
524.45	1632.26
524.81	1654.57
525.17	1676.85
525.53	1699.78
525.89	1722.01
526.25	1744.23
526.61	1765.95
526.97	1787.57
527.33	1808.86
527.68	1830.78
528.04	1852.01
528.40	1872.65
528.76	1893.28
529.12	1914.09
529.48	1936.10
529.84	1956.19
530.20	1976.52
530.56	1996.92
530.91	2017.49
531.27	2037.69
531.63	2057.98
531.99	2077.89
532.35	2097.34
532.71	2116.41
533.07	2135.49
533.42	2154.18
533.78	2173.02
534.14	2191.30
534.50	2208.57
534.86	2226.43
535.21	2243.11
535.57	2261.01
535.93	2278.43
536.29	2295.45
536.65	2311.86
537.00	2327.05
537.36	2342.49
537.72	2357.41
538.08	2372.55
538.44	2387.63
538.79	2403.43
539.15	2418.12
539.51	2432.75
539.87	2447.91
540.22	2462.30
540.58	2476.86
540.94	2491.25
541.29	2504.14
541.65	2516.30
542.01	2529.79
542.37	2541.73
542.72	2554.12
543.08	2565.03
543.44	2576.65
543.79	2586.61
544.15	2597.06
544.51	2608.13
544.87	2618.69
545.22	2628.11
545.58	2637.00
545.94	2644.07
546.29	2650.29
546.65	2656.60
547.01	2662.77
547.36	2668.54
547.72	2674.00
548.07	2678.22
548.43	2681.59
548.79	2685.66
549.14	2690.42
549.50	2694.49
549.86	2698.72
550.21	2702.69
550.57	2706.63
550.92	2709.25
551.28	2712.13
551.64	2714.71
551.99	2716.97
552.35	2718.72
552.70	2721.52
553.06	2723.96
553.41	2727.17
553.77	2730.15
554.13	2732.55
554.48	2734.70
554.84	2735.70
555.19	2736.37
555.55	2736.84
555.90	2737.80
556.26	2738.22
556.61	2738.19
556.97	2736.90
557.32	2736.50
557.68	2734.87
558.03	2733.53
558.39	2732.10
558.74	2731.44
559.10	2730.15
559.45	2728.33
559.81	2727.09
560.16	2724.36
560.52	2721.93
560.87	2718.93
561.23	2715.10
561.58	2712.98
561.94	2709.49
562.29	2706.04
562.64	2703.88
563.00	2701.10
563.35	2698.86
563.71	2697.07
564.06	2694.85
564.42	2692.89
564.77	2690.27
565.12	2688.28
565.48	2685.02
565.83	2681.78
566.19	2678.68
566.54	2674.56
566.89	2670.68
567.25	2666.98
567.60	2663.78
567.96	2660.12
568.31	2656.97
568.66	2653.16
569.02	2648.34
569.37	2642.98
569.72	2638.71
570.08	2633.28
570.43	2628.04
570.78	2622.32
571.14	2616.01
571.49	2609.55
571.84	2603.90
572.20	2597.12
572.55	2590.70
572.90	2583.74
573.26	2577.02
573.61	2569.76
573.96	2563.01
574.31	2555.36
574.67	2547.27
575.02	2538.58
575.37	2529.84
575.72	2520.95
576.08	2513.54
576.43	2504.93
576.78	2497.36
577.13	2489.76
577.49	2481.65
577.84	2473.85
578.19	2466.47
578.54	2459.11
578.90	2452.12
579.25	2443.26
579.60	2434.04
579.95	2424.42
580.30	2416.64
580.66	2408.45
581.01	2399.48
581.36	2390.12
581.71	2381.67
582.06	2373.05
582.42	2365.10
582.77	2356.05
583.12	2346.75
583.47	2337.94
583.82	2329.50
584.17	2320.49
584.53	2311.33
584.88	2302.46
585.23	2293.27
585.58	2283.20
585.93	2273.02
586.28	2263.43
586.63	2254.50
586.98	2246.37
587.34	2238.47
587.69	2229.27
588.04	2219.99
588.39	2211.84
588.74	2203.07
589.09	2194.15
589.44	2184.88
589.79	2176.30
590.14	2168.62
590.49	2160.10
590.84	2150.71
591.19	2142.65
591.54	2134.03
591.89	2123.88
592.25	2114.81
592.60	2105.40
592.95	2096.39
593.30	2087.06
593.65	2077.46
594.00	2067.76
594.35	2059.42
594.70	2049.95
595.05	2041.20
595.40	2032.17
595.75	2022.33
596.10	2014.00
596.45	2005.72
596.80	1997.71
597.15	1989.17
597.50	1979.90
597.85	1971.62
598.19	1963.20
598.54	1954.32
598.89	1946.30
599.24	1939.84
599.59	1932.24
599.94	1925.23
600.29	1917.25
600.64	1909.61
600.99	1901.37
601.34	1894.21
601.69	1885.14
602.04	1877.13
602.39	1868.85
602.74	1861.32
603.08	1854.73
603.43	1847.46
603.78	1838.99
604.13	1831.20
604.48	1823.35
604.83	1816.53
605.18	1809.53
605.53	1802.11
605.87	1794.67
606.22	1787.42
606.57	1779.46
606.92	1771.42
607.27	1763.17
607.62	1756.04
607.96	1749.05
608.31	1742.77
608.66	1734.96
609.01	1727.74
609.36	1720.03
609.70	1712.34
610.05	1704.83
610.40	1696.69
610.75	1688.20
611.10	1680.81
611.44	1671.63
611.79	1662.68
612.14	1653.07
612.49	1643.42
612.83	1634.50
613.18	1624.78
613.53	1615.10
613.88	1605.34
614.22	1596.66
614.57	1587.52
614.92	1578.02
615.27	1568.95
615.61	1559.10
615.96	1549.97
616.31	1541.45
616.65	1533.65
617.00	1525.28
617.35	1516.41
617.70	1507.41
618.04	1498.44
618.39	1489.26
618.74	1480.78
619.08	1472.34
619.43	1464.36
619.78	1456.72
620.12	1448.68
620.47	1441.11
620.82	1432.93
621.16	1424.69
621.51	1416.05
621.85	1407.85
622.20	1399.34
622.55	1390.57
622.89	1382.33
623.24	1374.54
623.59	1365.60
623.93	1357.06
624.28	1348.71
624.62	1340.46
624.97	1332.27
625.32	1324.53
625.66	1317.07
626.01	1309.97
626.35	1302.49
626.70	1294.85
627.04	1287.13
627.39	1279.35
627.73	1271.55
628.08	1264.78
628.43	1257.33
628.77	1250.06
629.12	1242.58
629.46	1235.98
629.81	1229.08
630.15	1221.70
630.50	1214.27
630.84	1207.20
631.19	1199.77
631.53	1192.95
631.88	1185.40
632.22	1177.81
632.57	1170.94
632.91	1163.39
633.26	1155.71
633.60	1148.61
633.95	1141.72
634.29	1134.46
634.64	1127.87
634.98	1121.08
635.32	1113.90
635.67	1107.46
636.01	1100.73
636.36	1094.02
636.70	1087.34
637.05	1080.81
637.39	1074.65
637.73	1068.15
638.08	1062.43
638.42	1056.77
638.77	1050.06
639.11	1043.81
639.45	1038.04
639.80	1031.31
640.14	1025.18
640.49	1018.89
640.83	1012.77
641.17	1006.35
641.52	1000.27
641.86	993.80
642.20	987.61
642.55	980.94
642.89	974.41
643.23	968.26
643.58	962.35
643.92	955.95
644.26	949.64
644.61	943.55
644.95	937.59
645.29	931.28
645.64	924.65
645.98	918.60
646.32	912.90
646.66	906.70
647.01	900.96
647.35	895.10
647.69	889.02
648.04	882.93
648.38	877.15
648.72	871.23
649.06	865.08
649.41	858.98
649.75	853.20
650.09	847.56
650.43	841.60
650.78	835.35
651.12	829.09
651.46	823.23
651.80	817.35
652.14	811.38
652.49	805.30
652.83	799.38
653.17	793.40
653.51	787.42
653.85	781.85
654.20	775.95
654.54	770.09
654.88	764.84
655.22	759.05
655.56	753.15
655.90	747.29
656.25	741.64
656.59	736.20
656.93	730.93
657.27	725.60
657.61	720.09
657.95	715.07
658.29	710.13
658.64	704.95
658.98	699.68
659.32	694.39
659.66	689.15
660.00	683.94
660.34	678.80
660.68	673.58
661.02	668.35
661.36	663.60
661.70	658.63
662.05	653.65
662.39	649.10
662.73	644.53
663.07	640.11
663.41	635.76
663.75	631.08
664.09	626.48
664.43	621.68
664.77	617.35
665.11	612.80
665.45	608.49
665.79	604.11
666.13	599.67
666.47	595.46
666.81	591.50
667.15	587.50
667.49	583.75
667.83	579.81
668.17	575.95
668.51	572.05
668.85	568.38
669.19	564.83
669.53	560.90
669.87	557.19
670.21	553.59
670.55	549.83
670.89	546.42
671.23	542.96
671.57	539.60
671.91	536.02
672.25	532.46
672.58	528.90
672.92	525.42
673.26	522.38
673.60	519.02
673.94	515.61
674.28	512.24
674.62	509.15
674.96	505.93
675.30	502.83
675.64	499.67
675.97	496.50
676.31	493.32
676.65	490.48
676.99	487.63
677.33	484.50
677.67	481.65
678.01	478.53
678.34	475.53
678.68	472.55
679.02	469.64
679.36	466.81
679.70	464.05
680.04	461.22
680.37	458.13
680.71	455.45
681.05	452.82
681.39	450.10
681.73	447.26
682.06	444.86
682.40	442.27
682.74	439.68
683.08	437.21
683.42	434.58
683.75	431.89
684.09	429.29
684.43	426.78
684.77	424.09
685.10	421.55
685.44	419.09
685.78	416.66
686.12	414.36
686.45	412.04
686.79	409.70
687.13	407.56
687.46	405.54
687.80	403.41
688.14	401.14
688.48	399.09
688.81	396.80
689.15	394.52
689.49	392.36
689.82	390.19
690.16	387.70
690.50	385.46
690.83	383.34
691.17	381.13
691.51	378.93
691.84	376.86
692.18	375.05
692.52	373.01
692.85	371.18
693.19	369.20
693.52	367.22
693.86	365.34
694.20	363.29
694.53	361.21
694.87	359.19
695.21	357.21
695.54	355.21
695.88	353.39
696.21	351.53
696.55	349.72
696.88	347.95
697.22	346.39
697.56	344.79
697.89	343.24
698.23	341.62
698.56	340.07
698.90	338.75
699.23	336.95
699.57	335.38
699.90	333.72
700.24	332.10
700.58	330.57
700.91	328.92
701.25	327.60
701.58	326.27
701.92	324.93
702.25	323.70
702.59	322.34
702.92	320.99
703.26	319.69
703.59	318.36
703.93	317.20
704.26	315.94
704.60	314.56
704.93	313.17
705.26	311.91
705.60	310.80
705.93	309.31
706.27	308.26
706.60	307.18
706.94	306.12
707.27	304.95
707.61	303.87
707.94	302.80
708.27	301.54
708.61	300.33
708.94	299.16
709.28	297.96
709.61	296.88
709.94	295.78
710.28	294.65
710.61	293.62
710.95	292.48
711.28	291.55
711.61	290.59
711.95	289.65
712.28	288.59
712.61	287.55
712.95	286.69
713.28	285.78
713.61	284.76
713.95	283.80
714.28	282.92
714.61	281.98
714.95	281.10
715.28	280.25
715.61	279.42
715.95	278.58
716.28	277.71
716.61	276.88
716.95	276.05
717.28	275.33
717.61	274.48
717.94	273.71
718.28	272.80
718.61	271.99
718.94	271.22
719.27	270.51
719.61	269.81
719.94	269.09
720.27	268.25
720.60	267.47
720.94	266.78
721.27	266.13
721.60	265.48
721.93	264.86
722.27	264.25
722.60	263.61
722.93	262.98
723.26	262.35
723.59	261.82
723.93	261.29
724.26	260.65
724.59	260.10
724.92	259.41
725.25	258.93
725.59	258.45
725.92	257.89
726.25	257.37
726.58	256.83
726.91	256.38
727.24	255.99
727.57	255.58
727.91	255.05
728.24	254.56
728.57	254.05
728.90	253.59
729.23	253.10
729.56	252.70
729.89	252.20
730.22	251.78
730.55	251.25
730.89	250.87
731.22	250.44
731.55	249.95
731.88	249.56
732.21	249.04
732.54	248.56
732.87	248.14
733.20	247.73
733.53	247.30
733.86	246.76
734.19	246.17
734.52	245.79
734.85	245.43
735.18	245.04
735.51	244.77
735.84	244.34
736.17	244.03
736.50	243.62
736.83	243.49
737.16	243.16
737.49	242.79
737.82	242.32
738.15	241.94
738.48	241.60
738.81	241.26
739.14	240.91
739.47	240.58
739.80	240.21
740.13	239.87
740.46	239.55
740.79	239.25
741.12	239.00
741.45	238.65
741.78	238.28
742.11	238.06
742.44	237.66
742.77	237.41
743.10	237.02
743.43	236.62
743.75	236.11
744.08	236.00
744.41	235.65
744.74	235.36
745.07	235.04
745.40	234.82
745.73	234.62
746.06	234.34
746.39	234.05
746.71	233.80
747.04	233.55
747.37	233.23
747.70	232.91
748.03	232.67
748.36	232.44
748.68	232.19
749.01	231.88
749.34	231.60
749.67	231.33
750.00	231.13
750.33	231.10
750.65	230.81
750.98	230.36
751.31	230.11
751.64	229.88
751.97	229.80
752.29	229.48
752.62	229.11
752.95	228.88
753.28	228.60
753.60	228.43
753.93	228.28
754.26	228.05
754.59	227.89
754.91	227.64
755.24	227.41
755.57	227.24
755.90	227.00
756.22	226.81
756.55	226.60
756.88	226.34
757.20	226.06
757.53	225.93
757.86	225.71
758.19	225.59
758.51	225.37
758.84	225.10
759.17	224.92
759.49	224.79
759.82	224.79
760.15	224.68
760.47	224.50
760.80	224.25
761.13	224.11
761.45	223.92
761.78	223.72
762.11	223.57
762.43	223.35
762.76	223.17
763.08	223.08
763.41	222.96
763.74	222.89
764.06	222.68
764.39	222.49
764.71	222.38
765.04	222.24
765.37	222.12
765.69	221.92
766.02	221.85
766.34	221.72
766.67	221.44
767.00	221.36
767.32	221.33
767.65	221.26
767.97	221.15
768.30	221.05
768.62	220.88
768.95	220.78
769.27	220.70
769.60	220.67
769.92	220.52
770.25	220.38
770.57	220.17
770.90	220.04
771.22	219.97
771.55	219.92
771.87	219.83
772.20	219.73
772.52	219.81
772.85	219.95
773.17	219.88
773.50	219.81
773.82	219.66
774.15	219.45
774.47	219.31
774.80	219.16
775.12	219.09
775.45	219.07
775.77	218.97
776.09	218.87
776.42	218.79
776.74	218.82
777.07	218.74
777.39	218.67
777.72	218.65
778.04	218.50
778.36	218.33
778.69	218.24
779.01	218.26
779.33	218.10
779.66	217.80
779.98	217.78
780.31	217.73
780.63	217.77
780.95	217.73
781.28	217.66
781.60	217.59
781.92	217.53
782.25	217.53
782.57	217.45
782.89	217.40
783.22	217.26
783.54	217.11
783.86	217.07
784.19	217.01
784.51	216.96
784.83	216.95
785.16	216.95
785.48	216.90
785.80	216.77
786.12	216.72
786.45	216.63
786.77	216.58
787.09	216.49
787.42	216.35
787.74	216.34
788.06	216.36
788.38	216.29
788.71	216.21
789.03	216.11
789.35	216.07
789.67	216.02
789.99	215.98
790.32	215.86
790.64	215.85
790.96	215.95
791.28	215.85
791.61	215.84
791.93	215.77
792.25	215.72
792.57	215.83
792.89	215.71
793.21	215.75
793.54	215.62
793.86	215.61
794.18	215.61
794.50	215.51
794.82	215.41
795.14	215.44
795.47	215.46
795.79	215.45
796.11	215.45
796.43	215.46
796.75	215.40
797.07	215.37
797.39	215.24
797.71	215.11
798.04	215.13
798.36	215.07
798.68	215.06
799.00	214.99
799.32	214.88
799.64	214.84
799.96	214.75
800.28	214.71
800.60	214.68
800.92	214.65
801.24	214.61
801.56	214.61
801.89	214.60
802.21	214.56
802.53	214.45
802.85	214.39
803.17	214.44
803.49	214.40
803.81	214.41
804.13	214.37
804.45	214.29
804.77	214.24
805.09	214.25
805.41	214.14
805.73	214.17
806.05	214.12
806.37	214.12
806.69	214.11
807.01	214.15
807.33	214.10
807.65	214.04
807.97	214.13
808.28	214.09
808.60	213.98
808.92	213.95
809.24	214.05
809.56	214.06
809.88	213.91
810.20	213.91
810.52	213.87
810.84	213.93
811.16	213.90
811.48	213.84
811.80	213.85
812.12	213.81
812.43	213.79
812.75	213.77
813.07	213.74
813.39	213.69
813.71	213.55
814.03	213.50
814.35	213.48
814.67	213.36
814.98	213.29
815.30	213.30
815.62	213.18
815.94	213.04
816.26	213.01
816.58	212.97
816.89	212.87
817.21	212.84
817.53	212.84
817.85	212.80
818.17	212.79
818.48	212.65
818.80	212.66
819.12	212.58
819.44	212.50
819.76	212.42
820.07	212.39
820.39	212.41
820.71	212.42
821.03	212.33
821.34	212.28
821.66	212.28
821.98	212.27
822.30	212.29
822.61	212.29
822.93	212.11
823.25	212.11
823.57	212.09
823.88	212.12
824.20	212.04
824.52	211.99
824.83	211.99
825.15	211.96
825.47	211.95
825.79	212.00
826.10	211.93
826.42	211.92
826.74	211.97
827.05	211.98
827.37	211.95
827.69	212.00
828.00	211.93
828.32	211.89
828.64	211.85
828.95	211.90
829.27	211.93
829.58	212.03
829.90	212.00
830.22	212.07
830.53	212.00
830.85	212.01
831.17	212.03
831.48	212.05
831.80	212.14
832.11	212.08
832.43	212.01
832.75	212.04
833.06	212.14
833.38	212.08
833.69	212.05
834.01	212.08
834.32	212.09
834.64	212.14
834.96	212.15
835.27	212.18
835.59	212.12
835.90	212.11
836.22	212.10
836.53	212.10
836.85	212.08
837.16	212.28
837.48	212.24
837.79	212.34
838.11	212.29
838.42	212.23
838.74	212.27
839.05	212.28
839.37	212.28
839.68	212.15
840.00	212.18
840.31	212.19
840.63	212.15
840.94	212.10
841.26	212.07
841.57	212.11
841.88	212.08
842.20	212.12
842.51	212.02
842.83	212.01
843.14	212.23
843.46	212.26
843.77	212.15
844.08	212.17
844.40	212.11
844.71	212.13
845.03	212.12
845.34	212.14
845.65	212.16
845.97	212.20
846.28	212.27
846.60	212.28
846.91	212.30
847.22	212.32
847.54	212.34
847.85	212.35
848.16	212.32
848.48	212.31
848.79	212.40
849.10	212.49
849.42	212.49
849.73	212.30
850.04	212.28
850.36	212.23
850.67	212.28
850.98	212.31
851.30	212.26
851.61	212.24
851.92	212.23
852.23	212.26
852.55	212.31
852.86	212.29
853.17	212.24
853.49	212.25
853.80	212.25
854.11	212.35
854.42	212.39
854.74	212.44
855.05	212.40
855.36	212.30
855.67	212.32
855.99	212.27
856.30	212.49
856.61	212.49
856.92	212.48
857.23	212.46
857.55	212.47
857.86	212.52
858.17	212.54
858.48	212.47
858.79	212.43
859.11	212.36
859.42	212.43
859.73	212.45
860.04	212.46
860.35	212.45
860.66	212.36
860.98	212.31
861.29	212.29
861.60	212.23
861.91	212.29
862.22	212.21
862.53	212.25
862.84	212.00
863.16	212.02
863.47	211.97
863.78	211.93
864.09	211.86
864.40	211.89
864.71	211.83
865.02	211.87
865.33	211.87
865.64	211.84
865.95	211.72
866.27	211.81
866.58	211.80
866.89	211.77
867.20	211.73
867.51	211.76
867.82	211.72
868.13	211.77
868.44	211.67
868.75	211.72
869.06	211.68
869.37	211.70
869.68	211.57
869.99	211.60
870.30	211.60
870.61	211.61
870.92	211.47
871.23	211.44
871.54	211.45
871.85	211.39
872.16	211.42
872.47	211.42
872.78	211.31
873.09	211.25
873.40	211.27
873.71	211.25
874.02	211.23
874.33	211.14
874.64	211.13
874.95	211.17
875.26	211.15
875.56	211.16
875.87	211.13
876.18	211.16
876.49	211.30
876.80	211.31
877.11	211.30
877.42	211.36
877.73	211.41
878.04	211.38
878.35	211.39
878.66	211.36
878.96	211.35
879.27	211.35
879.58	211.35
879.89	211.28
880.20	211.27
880.51	211.24
880.82	211.27
881.12	211.26
881.43	211.19
881.74	211.17
882.05	211.14
882.36	211.13
882.67	211.18
882.97	211.02
883.28	210.99
883.59	210.96
883.90	210.96
884.21	210.99
884.51	210.96
884.82	210.94
885.13	210.99
885.44	211.01
885.74	210.97
886.05	210.94
886.36	211.01
886.67	211.00
886.98	211.07
887.28	211.10
887.59	211.10
887.90	211.12
888.20	211.07
888.51	211.13
888.82	211.11
889.13	211.04
889.43	211.18
889.74	211.09
890.05	211.08
890.35	211.09
890.66	211.03
890.97	211.11
891.28	211.11
891.58	211.06
891.89	211.01
892.20	210.97
892.50	210.95
892.81	210.92
893.12	210.92
893.42	210.91
893.73	210.97
894.04	210.95
894.34	210.98
894.65	211.00
894.95	211.00
895.26	211.11
895.57	211.18
895.87	210.99
896.18	211.07
896.48	211.06
896.79	211.05
897.10	211.13
897.40	211.04
897.71	211.12
898.01	211.16
898.32	211.26
898.63	211.29
898.93	211.32
899.24	211.30
899.54	211.31
899.85	211.23
900.15	211.21
900.46	211.23
900.76	211.26
901.07	211.27
901.38	211.24
901.68	211.18
901.99	211.13
902.29	211.16
902.60	211.15
902.90	211.16
903.21	211.09
903.51	211.05
903.82	211.15
904.12	211.08
904.43	211.06
904.73	211.05
905.03	211.06
905.34	211.21
905.64	211.24
905.95	211.22
906.25	211.30
906.56	211.27
906.86	211.33
907.17	211.28
907.47	211.30
907.77	211.23
908.08	211.22
908.38	211.22
908.69	211.29
908.99	211.35
909.30	211.40
909.60	211.50
909.90	211.50
910.21	211.47
910.51	211.42
910.81	211.42
911.12	211.45
911.42	211.44
911.73	211.27
912.03	211.24
912.33	211.28
912.64	211.18
912.94	211.08
913.24	210.95
913.55	210.94
913.85	210.89
914.15	210.95
914.46	210.91
914.76	210.91
915.06	210.91
915.37	210.86
915.67	210.87
915.97	210.85
916.27	210.86
916.58	210.78
916.88	210.83
917.18	210.76
917.49	210.85
917.79	210.90
918.09	210.98
918.39	211.04
918.70	211.00
919.00	210.99
919.30	211.12
919.60	211.18
919.91	211.13
920.21	211.13
920.51	211.02
920.81	211.10
921.12	211.12
921.42	211.09
921.72	211.09
922.02	211.05
922.32	211.04
922.63	210.99
922.93	211.08
923.23	211.14
923.53	211.22
923.83	211.07
924.13	211.09
924.44	211.07
924.74	211.04
925.04	211.15
925.34	211.24
925.64	211.23
925.94	211.20
926.24	211.31
926.55	211.28
926.85	211.50
927.15	211.43
927.45	211.38
927.75	211.36
928.05	211.39
928.35	211.39
928.65	211.43
928.95	211.48
929.26	211.49
929.56	211.48
929.86	211.43
930.16	211.50
930.46	211.46
930.76	211.45
931.06	211.38
931.36	211.28
931.66	211.34
931.96	211.32
932.26	211.37
932.56	211.41
932.86	211.47
933.16	211.39
933.46	211.40
933.76	211.41
934.06	211.45
934.36	211.49
934.66	211.49
934.96	211.42
935.26	211.42
935.56	211.31
935.86	211.23
936.16	211.20
936.46	211.12
936.76	211.16
937.06	211.15
937.36	211.17
937.66	211.16
937.96	211.13
938.26	211.14
938.56	211.11
938.86	211.04
939.16	211.09
939.46	211.03
939.76	211.05
940.06	211.07
940.35	211.06
940.65	210.99
940.95	211.05
941.25	211.10
941.55	211.08
941.85	211.15
942.15	211.24
942.45	211.32
942.75	211.27
943.04	211.24
943.34	211.25
943.64	211.28
943.94	211.30
944.24	211.32
944.54	211.26
944.84	211.22
945.13	211.22
945.43	211.18
945.73	211.23
946.03	211.20
946.33	211.21
946.62	211.17
946.92	211.10
947.22	211.03
947.52	210.96
947.82	211.00
948.11	210.97
948.41	210.99
948.71	210.92
949.01	211.00
949.31	210.96
949.60	210.94
949.90	211.03
950.20	210.98
950.50	210.88
950.79	210.90
951.09	210.97
951.39	210.91
951.69	210.89
951.98	210.85
952.28	210.89
952.58	210.87
952.87	210.89
953.17	210.99
953.47	211.06
953.76	211.13
954.06	211.09
954.36	211.06
954.66	211.00
954.95	211.10
955.25	211.08
955.55	211.14
955.84	211.19
956.14	211.09
956.44	211.06
956.73	211.08
957.03	211.13
957.32	211.08
957.62	211.15
957.92	211.25
958.21	211.26
958.51	211.47
958.81	211.48
959.10	211.46
959.40	211.48
959.69	211.42
959.99	211.48
960.29	211.56
960.58	211.63
960.88	211.70
961.17	211.68
961.47	211.70
961.76	211.64
962.06	211.60
962.36	211.70
962.65	211.78
962.95	211.85
963.24	211.85
963.54	211.88
963.83	211.93
964.13	211.79
964.42	211.77
964.72	211.60
965.01	211.56
965.31	211.56
965.60	211.45
965.90	211.51
966.19	211.45
966.49	211.36
966.78	211.36
967.08	211.40
967.37	211.38
967.67	211.37
967.96	211.43
968.26	211.39
968.55	211.34
968.85	211.40
969.14	211.30
969.43	211.29
969.73	211.28
970.02	211.21
970.32	211.25
970.61	211.29
970.91	211.18
971.20	211.20
971.49	211.18
971.79	211.27
972.08	211.20
972.38	211.19
972.67	211.12
972.96	211.15
973.26	211.03
973.55	211.04
973.85	211.02
974.14	210.99
974.43	211.04
974.73	211.01
975.02	210.95
975.31	210.96
975.61	210.98
975.90	210.97
976.19	210.95
976.49	210.94
976.78	210.94
977.07	210.97
977.37	210.93
977.66	210.95
977.95	210.91
978.24	210.97
978.54	210.93
978.83	210.99
979.12	210.96
979.42	210.91
979.71	210.86
980.00	210.86
980.29	210.94
980.59	210.86
980.88	210.86
981.17	210.82
981.46	210.79
981.76	210.78
982.05	210.80
982.34	210.89
982.63	210.96
982.93	210.90
983.22	211.00
983.51	211.05
983.80	211.06
984.09	211.09
984.39	211.00
984.68	211.06
984.97	211.02
985.26	211.03
985.55	211.11
985.85	211.15
986.14	211.12
986.43	211.02
986.72	210.99
987.01	210.98
987.30	211.00
987.59	211.04
987.89	211.04
988.18	211.00
988.47	210.88
988.76	210.86
989.05	210.88
989.34	210.77
989.63	210.80
989.92	210.78
990.22	210.75
990.51	210.78
990.80	210.73
991.09	210.84
991.38	210.85
991.67	210.82
991.96	210.75
992.25	210.83
992.54	210.84
992.83	210.93
993.12	210.86
993.41	210.90
993.70	210.96
993.99	210.99
994.28	211.00
994.58	211.03
994.87	210.94
995.16	210.89
995.45	210.95
995.74	210.84
996.03	210.92
996.32	210.99
996.61	211.00
996.90	211.01
997.19	210.95
997.48	210.96
997.77	210.96
998.06	211.05
998.34	211.03
998.63	211.02
998.92	211.00
999.21	211.10
999.50	211.04
999.79	210.94
1000.08	210.88
1000.37	210.92
1000.66	210.93
1000.95	211.01
1001.24	211.10
1001.53	211.09
1001.82	211.14
1002.11	211.08
1002.40	211.05
1002.68	211.10
1002.97	211.18
1003.26	211.21
1003.55	211.20
1003.84	211.23
1004.13	211.25
1004.42	211.17
1004.71	211.15
1004.99	211.21
1005.28	211.19
1005.57	211.22
1005.86	211.28
1006.15	211.32
1006.44	211.32
1006.72	211.32
1007.01	211.26
1007.30	211.22
1007.59	211.24
1007.88	211.30
1008.17	211.25
1008.45	211.16
1008.74	211.03
1009.03	211.04
1009.32	210.98
1009.60	210.87
1009.89	210.84
1010.18	210.75
1010.47	210.77
1010.76	210.81
1011.04	210.71
1011.33	210.76
1011.62	210.74
1011.91	210.72
1012.19	210.67
1012.48	210.64
1012.77	210.62
1013.05	210.79
1013.34	210.77
1013.63	210.73
1013.92	210.71
1014.20	210.72
1014.49	210.80
1014.78	210.95
1015.06	210.85
1015.35	210.88
1015.64	210.96
1015.92	210.96
1016.21	210.92
1016.50	210.91
1016.78	210.91
1017.07	210.98
1017.36	211.00
1017.64	210.97
1017.93	210.98
1018.22	211.01
1018.50	210.94
1018.79	210.98
1019.08	210.87
1019.36	210.92
1019.65	210.90
1019.93	210.99
1020.22	211.03
1020.51	211.06
1020.79	210.97
1021.08	210.80
1021.36	209.60
1021.65	211.40
1021.94	211.20
1022.22	211.10
1022.51	210.65
1022.79	212.75
1023.08	211.60
1023.36	211.80
1023.65	210.65
>>>>>End Processed Spectral Data<<<<<
