SpectraSuite Data File
++++++++++++++++++++++++++++++++++++
Date: Mon Feb 25 17:32:04 EST 2013
User: group
Dark Spectrum Present: No
Reference Spectrum Present: No
Number of Sampled Component Spectra: 1
Spectrometers: USB2E7196
Integration Time (usec): 52000 (USB2E7196)
Spectra Averaged: 20 (USB2E7196)
Boxcar Smoothing: 10 (USB2E7196)
Correct for Electrical Dark: No (USB2E7196)
Strobe/Lamp Enabled: No (USB2E7196)
Correct for Detector Non-linearity: No (USB2E7196)
Correct for Stray Light: No (USB2E7196)
Number of Pixels in Processed Spectrum: 2048
>>>>>Begin Processed Spectral Data<<<<<
339.09	0.00
339.48	200.20
339.86	200.45
340.24	202.40
340.63	203.25
341.01	207.40
341.39	205.80
341.78	207.80
342.16	209.15
342.54	209.40
342.93	198.60
343.31	208.59
343.69	209.04
344.07	209.49
344.46	209.93
344.84	210.34
345.22	210.50
345.60	210.78
345.99	211.01
346.37	211.10
346.75	211.13
347.13	211.18
347.52	211.22
347.90	211.30
348.28	211.29
348.66	211.45
349.05	211.24
349.43	211.29
349.81	211.39
350.19	211.41
350.57	211.33
350.96	211.47
351.34	211.63
351.72	211.75
352.10	211.87
352.48	211.88
352.87	211.90
353.25	211.96
353.63	211.96
354.01	211.98
354.39	212.08
354.77	212.20
355.15	212.34
355.54	212.34
355.92	212.30
356.30	212.35
356.68	212.46
357.06	212.65
357.44	212.65
357.82	212.62
358.20	212.72
358.58	212.76
358.97	212.86
359.35	212.89
359.73	212.95
360.11	213.00
360.49	213.08
360.87	213.13
361.25	213.29
361.63	213.38
362.01	213.40
362.39	213.44
362.77	213.48
363.15	213.44
363.53	213.50
363.91	213.66
364.29	213.66
364.67	213.52
365.05	213.53
365.43	213.59
365.81	213.67
366.19	213.71
366.57	213.88
366.95	213.84
367.33	213.83
367.71	213.85
368.09	213.93
368.47	213.87
368.85	213.88
369.23	213.81
369.61	213.79
369.99	213.87
370.37	213.87
370.75	213.95
371.13	213.99
371.51	214.03
371.89	213.98
372.27	213.99
372.65	213.96
373.03	213.95
373.41	213.94
373.78	213.89
374.16	213.81
374.54	213.73
374.92	213.67
375.30	213.59
375.68	213.51
376.06	213.45
376.44	213.47
376.82	213.42
377.19	213.35
377.57	213.28
377.95	213.10
378.33	212.98
378.71	212.83
379.09	212.73
379.47	212.67
379.84	212.53
380.22	212.50
380.60	212.48
380.98	212.42
381.36	212.34
381.73	212.24
382.11	212.26
382.49	212.23
382.87	212.19
383.25	212.20
383.62	212.38
384.00	212.31
384.38	212.25
384.76	212.24
385.13	212.27
385.51	212.29
385.89	212.26
386.27	212.27
386.64	212.24
387.02	212.24
387.40	212.20
387.78	212.22
388.15	212.22
388.53	212.13
388.91	212.06
389.29	212.07
389.66	212.08
390.04	211.97
390.42	211.97
390.79	211.88
391.17	211.87
391.55	211.66
391.92	211.60
392.30	211.60
392.68	211.59
393.05	211.53
393.43	211.44
393.81	211.49
394.18	211.43
394.56	211.43
394.94	211.42
395.31	211.39
395.69	211.44
396.06	211.45
396.44	211.54
396.82	211.55
397.19	211.60
397.57	211.55
397.95	211.57
398.32	211.46
398.70	211.51
399.07	211.52
399.45	211.47
399.82	211.55
400.20	211.56
400.58	211.57
400.95	211.61
401.33	211.74
401.70	211.92
402.08	212.00
402.45	212.12
402.83	212.23
403.20	212.32
403.58	212.36
403.95	212.42
404.33	212.45
404.71	212.54
405.08	212.71
405.46	212.84
405.83	212.98
406.21	213.15
406.58	213.32
406.96	213.54
407.33	213.76
407.70	213.93
408.08	214.25
408.45	214.52
408.83	214.79
409.20	214.93
409.58	215.05
409.95	215.28
410.33	215.55
410.70	215.76
411.08	216.13
411.45	216.51
411.82	216.80
412.20	217.25
412.57	217.84
412.95	218.14
413.32	218.66
413.69	219.20
414.07	219.84
414.44	220.51
414.82	221.05
415.19	221.81
415.56	222.55
415.94	223.28
416.31	224.09
416.68	224.95
417.06	226.07
417.43	227.03
417.81	228.13
418.18	229.19
418.55	230.38
418.93	231.51
419.30	232.85
419.67	234.32
420.04	235.68
420.42	237.06
420.79	238.83
421.16	240.59
421.54	242.34
421.91	244.13
422.28	246.07
422.66	248.17
423.03	250.15
423.40	252.18
423.77	254.41
424.15	256.62
424.52	258.89
424.89	261.39
425.26	263.86
425.64	266.19
426.01	268.74
426.38	271.39
426.75	274.27
427.13	276.98
427.50	279.88
427.87	282.97
428.24	285.99
428.61	288.93
428.99	292.14
429.36	295.61
429.73	299.06
430.10	302.34
430.47	305.75
430.85	309.32
431.22	313.23
431.59	317.30
431.96	321.23
432.33	325.58
432.70	329.75
433.08	334.59
433.45	339.20
433.82	343.80
434.19	348.90
434.56	353.65
434.93	358.32
435.30	362.99
435.68	368.29
436.05	373.51
436.42	378.59
436.79	383.21
437.16	388.31
437.53	393.59
437.90	398.76
438.27	403.99
438.64	409.37
439.01	414.23
439.38	418.56
439.75	422.85
440.13	427.64
440.50	432.09
440.87	435.89
441.24	439.78
441.61	443.99
441.98	447.10
442.35	450.69
442.72	454.41
443.09	458.05
443.46	460.15
443.83	461.42
444.20	462.52
444.57	464.36
444.94	465.19
445.31	465.87
445.68	466.70
446.05	466.99
446.42	466.38
446.79	465.64
447.16	464.77
447.53	463.94
447.90	461.90
448.27	459.91
448.64	457.02
449.01	454.77
449.37	451.11
449.74	447.53
450.11	443.49
450.48	439.07
450.85	434.39
451.22	430.35
451.59	426.81
451.96	423.43
452.33	418.62
452.70	414.27
453.07	409.24
453.43	404.04
453.80	398.95
454.17	394.21
454.54	389.73
454.91	384.97
455.28	380.44
455.65	375.97
456.02	371.63
456.38	367.87
456.75	363.36
457.12	359.52
457.49	355.74
457.86	352.05
458.23	348.81
458.59	345.45
458.96	341.98
459.33	338.77
459.70	335.54
460.07	333.11
460.43	330.22
460.80	327.63
461.17	325.45
461.54	323.05
461.91	320.64
462.27	318.25
462.64	316.28
463.01	314.05
463.38	312.00
463.74	309.73
464.11	307.85
464.48	306.27
464.85	304.60
465.21	303.38
465.58	301.91
465.95	300.22
466.32	298.76
466.68	297.40
467.05	296.01
467.42	294.62
467.78	293.15
468.15	291.83
468.52	290.80
468.88	289.40
469.25	288.29
469.62	287.52
469.98	286.58
470.35	285.72
470.72	284.81
471.08	283.89
471.45	283.11
471.82	282.35
472.18	281.45
472.55	280.87
472.92	280.08
473.28	279.60
473.65	279.04
474.02	278.48
474.38	278.07
474.75	277.81
475.11	277.46
475.48	277.22
475.85	277.06
476.21	276.86
476.58	276.78
476.94	276.75
477.31	276.63
477.67	276.60
478.04	276.59
478.41	276.73
478.77	277.06
479.14	277.25
479.50	277.50
479.87	277.93
480.23	278.40
480.60	278.81
480.96	279.17
481.33	279.93
481.69	280.55
482.06	281.15
482.42	281.70
482.79	282.43
483.15	283.29
483.52	284.19
483.88	285.11
484.25	286.08
484.61	287.12
484.98	288.15
485.34	289.40
485.71	290.71
486.07	292.19
486.44	293.48
486.80	294.99
487.17	296.61
487.53	298.37
487.90	300.13
488.26	302.03
488.62	304.18
488.99	306.10
489.35	308.21
489.72	310.60
490.08	313.09
490.44	315.59
490.81	318.27
491.17	321.08
491.54	323.95
491.90	326.95
492.26	330.12
492.63	333.48
492.99	337.08
493.36	340.76
493.72	344.65
494.08	348.67
494.45	353.00
494.81	357.43
495.17	362.05
495.54	366.89
495.90	372.03
496.26	377.32
496.63	382.83
496.99	388.69
497.35	394.60
497.72	400.81
498.08	407.30
498.44	413.99
498.80	421.12
499.17	428.52
499.53	436.15
499.89	444.13
500.26	452.29
500.62	460.51
500.98	469.38
501.34	478.49
501.71	487.87
502.07	497.41
502.43	507.32
502.79	517.50
503.16	528.01
503.52	538.90
503.88	549.84
504.24	561.28
504.60	572.95
504.97	585.25
505.33	597.68
505.69	611.05
506.05	624.53
506.41	638.00
506.78	651.79
507.14	666.07
507.50	680.48
507.86	695.31
508.22	710.70
508.59	726.04
508.95	742.01
509.31	758.27
509.67	774.93
510.03	791.83
510.39	809.43
510.75	827.15
511.12	845.20
511.48	863.67
511.84	882.47
512.20	901.05
512.56	920.09
512.92	939.53
513.28	958.90
513.64	978.45
514.00	998.27
514.37	1018.60
514.73	1039.30
515.09	1060.05
515.45	1080.74
515.81	1101.64
516.17	1122.73
516.53	1143.82
516.89	1165.30
517.25	1186.75
517.61	1208.39
517.97	1229.57
518.33	1250.82
518.69	1272.30
519.05	1294.25
519.41	1316.21
519.77	1338.62
520.13	1360.43
520.49	1382.35
520.85	1404.85
521.21	1427.22
521.57	1449.92
521.93	1471.75
522.29	1494.56
522.65	1516.94
523.01	1539.55
523.37	1561.55
523.73	1583.74
524.09	1605.81
524.45	1627.69
524.81	1649.98
525.17	1672.20
525.53	1694.61
525.89	1717.12
526.25	1739.40
526.61	1760.60
526.97	1782.15
527.33	1803.62
527.68	1825.51
528.04	1846.79
528.40	1867.18
528.76	1888.03
529.12	1908.72
529.48	1930.50
529.84	1950.30
530.20	1970.40
530.56	1990.56
530.91	2011.22
531.27	2031.90
531.63	2051.90
531.99	2071.92
532.35	2090.87
532.71	2110.02
533.07	2129.25
533.42	2147.60
533.78	2165.95
534.14	2184.01
534.50	2200.73
534.86	2218.68
535.21	2235.15
535.57	2252.74
535.93	2269.68
536.29	2286.28
536.65	2302.39
537.00	2317.53
537.36	2332.76
537.72	2348.12
538.08	2363.33
538.44	2378.41
538.79	2392.94
539.15	2407.33
539.51	2421.58
539.87	2436.80
540.22	2451.16
540.58	2466.09
540.94	2480.40
541.29	2493.26
541.65	2505.65
542.01	2519.07
542.37	2530.64
542.72	2542.73
543.08	2553.19
543.44	2564.83
543.79	2574.85
544.15	2585.22
544.51	2595.84
544.87	2606.88
545.22	2616.11
545.58	2624.40
545.94	2631.49
546.29	2638.27
546.65	2644.70
547.01	2650.92
547.36	2656.52
547.72	2661.73
548.07	2665.36
548.43	2669.00
548.79	2672.85
549.14	2677.42
549.50	2681.61
549.86	2685.20
550.21	2689.07
550.57	2693.34
550.92	2695.88
551.28	2698.72
551.64	2701.19
551.99	2703.65
552.35	2705.17
552.70	2707.59
553.06	2710.22
553.41	2713.36
553.77	2716.10
554.13	2717.95
554.48	2719.85
554.84	2720.84
555.19	2721.24
555.55	2721.86
555.90	2722.67
556.26	2722.93
556.61	2722.67
556.97	2721.44
557.32	2721.40
557.68	2719.80
558.03	2718.13
558.39	2716.71
558.74	2715.79
559.10	2714.45
559.45	2712.55
559.81	2711.32
560.16	2708.21
560.52	2705.91
560.87	2702.58
561.23	2698.80
561.58	2696.53
561.94	2693.24
562.29	2689.88
562.64	2687.60
563.00	2684.92
563.35	2682.44
563.71	2680.69
564.06	2678.62
564.42	2676.86
564.77	2674.20
565.12	2672.45
565.48	2669.01
565.83	2665.89
566.19	2662.54
566.54	2658.35
566.89	2654.25
567.25	2650.32
567.60	2647.47
567.96	2643.55
568.31	2640.17
568.66	2636.23
569.02	2631.69
569.37	2626.39
569.72	2622.63
570.08	2617.71
570.43	2612.00
570.78	2606.06
571.14	2599.92
571.49	2593.00
571.84	2586.74
572.20	2579.70
572.55	2572.78
572.90	2566.70
573.26	2559.70
573.61	2552.50
573.96	2546.11
574.31	2538.55
574.67	2530.26
575.02	2521.92
575.37	2513.43
575.72	2504.29
576.08	2496.98
576.43	2488.48
576.78	2480.77
577.13	2472.40
577.49	2463.87
577.84	2456.17
578.19	2449.11
578.54	2441.52
578.90	2434.96
579.25	2426.44
579.60	2417.48
579.95	2408.39
580.30	2400.00
580.66	2391.98
581.01	2383.28
581.36	2373.90
581.71	2365.46
582.06	2357.36
582.42	2349.35
582.77	2340.44
583.12	2331.65
583.47	2323.03
583.82	2314.64
584.17	2305.61
584.53	2296.69
584.88	2288.07
585.23	2279.22
585.58	2269.26
585.93	2259.89
586.28	2250.42
586.63	2241.51
586.98	2233.34
587.34	2225.27
587.69	2216.53
588.04	2207.39
588.39	2199.09
588.74	2190.35
589.09	2181.87
589.44	2172.31
589.79	2163.49
590.14	2155.83
590.49	2147.88
590.84	2138.60
591.19	2130.98
591.54	2122.48
591.89	2112.64
592.25	2103.35
592.60	2093.92
592.95	2084.65
593.30	2074.98
593.65	2065.38
594.00	2055.70
594.35	2047.52
594.70	2038.47
595.05	2029.63
595.40	2021.03
595.75	2011.47
596.10	2003.44
596.45	1995.05
596.80	1987.35
597.15	1979.19
597.50	1969.71
597.85	1961.29
598.19	1952.76
598.54	1943.85
598.89	1936.07
599.24	1929.30
599.59	1922.00
599.94	1914.75
600.29	1907.06
600.64	1899.23
600.99	1890.99
601.34	1884.10
601.69	1875.48
602.04	1867.02
602.39	1858.86
602.74	1850.78
603.08	1844.41
603.43	1837.10
603.78	1829.02
604.13	1820.82
604.48	1812.63
604.83	1806.02
605.18	1798.90
605.53	1791.38
605.87	1783.86
606.22	1776.63
606.57	1768.72
606.92	1760.80
607.27	1752.82
607.62	1745.50
607.96	1738.93
608.31	1732.60
608.66	1724.74
609.01	1717.44
609.36	1709.95
609.70	1702.41
610.05	1695.06
610.40	1686.86
610.75	1678.35
611.10	1670.91
611.44	1662.03
611.79	1653.06
612.14	1643.61
612.49	1634.08
612.83	1625.45
613.18	1615.75
613.53	1606.48
613.88	1596.84
614.22	1588.00
614.57	1578.80
614.92	1569.73
615.27	1560.31
615.61	1550.93
615.96	1542.09
616.31	1533.22
616.65	1525.47
617.00	1516.95
617.35	1508.18
617.70	1499.08
618.04	1490.11
618.39	1480.63
618.74	1472.23
619.08	1463.97
619.43	1456.04
619.78	1448.51
620.12	1440.35
620.47	1433.10
620.82	1424.60
621.16	1416.53
621.51	1408.11
621.85	1400.08
622.20	1391.77
622.55	1383.26
622.89	1375.07
623.24	1367.42
623.59	1359.08
623.93	1350.42
624.28	1342.25
624.62	1334.37
624.97	1326.62
625.32	1318.94
625.66	1311.60
626.01	1304.46
626.35	1297.44
626.70	1289.60
627.04	1281.99
627.39	1274.67
627.73	1266.97
628.08	1260.08
628.43	1252.85
628.77	1245.43
629.12	1237.89
629.46	1231.20
629.81	1224.13
630.15	1216.74
630.50	1208.96
630.84	1201.62
631.19	1194.30
631.53	1187.43
631.88	1179.64
632.22	1172.14
632.57	1165.31
632.91	1157.94
633.26	1150.41
633.60	1143.11
633.95	1136.42
634.29	1129.20
634.64	1122.50
634.98	1115.41
635.32	1108.36
635.67	1101.92
636.01	1095.40
636.36	1088.91
636.70	1082.38
637.05	1075.90
637.39	1069.79
637.73	1063.55
638.08	1057.93
638.42	1052.20
638.77	1045.95
639.11	1039.88
639.45	1033.84
639.80	1027.20
640.14	1020.88
640.49	1014.91
640.83	1008.73
641.17	1002.37
641.52	996.17
641.86	989.62
642.20	983.32
642.55	976.61
642.89	970.05
643.23	963.78
643.58	957.82
643.92	951.24
644.26	944.96
644.61	938.72
644.95	932.68
645.29	926.37
645.64	919.69
645.98	913.21
646.32	907.30
646.66	901.19
647.01	895.19
647.35	889.45
647.69	882.95
648.04	877.08
648.38	871.07
648.72	865.20
649.06	859.14
649.41	853.24
649.75	847.49
650.09	841.79
650.43	835.85
650.78	829.64
651.12	823.71
651.46	818.14
651.80	812.35
652.14	806.55
652.49	800.65
652.83	795.06
653.17	789.14
653.51	783.30
653.85	777.54
654.20	771.86
654.54	766.02
654.88	760.74
655.22	754.92
655.56	749.27
655.90	743.55
656.25	737.97
656.59	732.40
656.93	727.43
657.27	722.21
657.61	716.78
657.95	711.72
658.29	706.49
658.64	701.18
658.98	695.88
659.32	690.45
659.66	685.41
660.00	680.05
660.34	674.87
660.68	669.63
661.02	664.64
661.36	660.12
661.70	655.28
662.05	650.56
662.39	646.15
662.73	641.90
663.07	637.58
663.41	633.36
663.75	628.91
664.09	624.19
664.43	619.40
664.77	615.19
665.11	610.66
665.45	606.39
665.79	602.25
666.13	597.93
666.47	593.91
666.81	589.69
667.15	585.84
667.49	582.15
667.83	578.51
668.17	574.69
668.51	570.80
668.85	567.02
669.19	563.35
669.53	559.44
669.87	555.23
670.21	551.43
670.55	547.38
670.89	543.95
671.23	540.56
671.57	537.21
671.91	533.53
672.25	530.17
672.58	526.57
672.92	522.97
673.26	519.99
673.60	516.65
673.94	513.30
674.28	509.88
674.62	506.66
674.96	503.43
675.30	500.41
675.64	497.21
675.97	494.05
676.31	491.05
676.65	488.07
676.99	485.61
677.33	482.62
677.67	479.90
678.01	476.90
678.34	474.00
678.68	471.10
679.02	468.21
679.36	465.35
679.70	462.58
680.04	459.73
680.37	456.71
680.71	453.95
681.05	451.22
681.39	448.59
681.73	445.97
682.06	443.50
682.40	440.91
682.74	438.27
683.08	435.97
683.42	433.32
683.75	430.88
684.09	428.14
684.43	425.68
684.77	423.13
685.10	420.70
685.44	418.15
685.78	415.63
686.12	413.41
686.45	411.15
686.79	408.96
687.13	406.89
687.46	404.67
687.80	402.45
688.14	400.25
688.48	398.11
688.81	395.84
689.15	393.50
689.49	391.16
689.82	388.98
690.16	386.63
690.50	384.35
690.83	382.09
691.17	379.97
691.51	377.80
691.84	375.67
692.18	373.59
692.52	371.72
692.85	369.88
693.19	368.10
693.52	366.15
693.86	364.27
694.20	362.45
694.53	360.59
694.87	358.77
695.21	356.89
695.54	355.02
695.88	353.15
696.21	351.42
696.55	349.76
696.88	347.93
697.22	346.14
697.56	344.63
697.89	342.97
698.23	341.27
698.56	339.58
698.90	338.10
699.23	336.45
699.57	334.86
699.90	333.29
700.24	331.49
700.58	329.88
700.91	328.26
701.25	326.71
701.58	325.31
701.92	323.87
702.25	322.50
702.59	321.11
702.92	319.71
703.26	318.33
703.59	317.15
703.93	316.09
704.26	314.88
704.60	313.52
704.93	312.31
705.26	311.05
705.60	309.94
705.93	308.70
706.27	307.59
706.60	306.40
706.94	305.29
707.27	304.19
707.61	303.05
707.94	301.92
708.27	300.70
708.61	299.55
708.94	298.37
709.28	297.20
709.61	296.15
709.94	295.10
710.28	294.00
710.61	292.85
710.95	291.69
711.28	290.81
711.61	289.80
711.95	288.86
712.28	287.86
712.61	286.85
712.95	285.99
713.28	285.11
713.61	284.13
713.95	283.17
714.28	282.30
714.61	281.43
714.95	280.65
715.28	279.74
715.61	278.81
715.95	277.91
716.28	277.10
716.61	276.16
716.95	275.39
717.28	274.57
717.61	273.70
717.94	272.91
718.28	272.01
718.61	271.34
718.94	270.58
719.27	269.91
719.61	269.20
719.94	268.40
720.27	267.63
720.60	266.85
720.94	266.15
721.27	265.45
721.60	264.81
721.93	264.11
722.27	263.54
722.60	262.89
722.93	262.31
723.26	261.69
723.59	261.16
723.93	260.55
724.26	260.04
724.59	259.53
724.92	258.98
725.25	258.44
725.59	257.83
725.92	257.25
726.25	256.66
726.58	256.23
726.91	255.78
727.24	255.27
727.57	254.87
727.91	254.37
728.24	253.95
728.57	253.50
728.90	253.04
729.23	252.52
729.56	252.24
729.89	251.80
730.22	251.34
730.55	250.84
730.89	250.38
731.22	249.86
731.55	249.42
731.88	248.87
732.21	248.44
732.54	247.94
732.87	247.55
733.20	247.10
733.53	246.59
733.86	246.19
734.19	245.72
734.52	245.34
734.85	245.09
735.18	244.64
735.51	244.28
735.84	243.90
736.17	243.61
736.50	243.11
736.83	242.96
737.16	242.60
737.49	242.26
737.82	241.98
738.15	241.71
738.48	241.26
738.81	240.96
739.14	240.56
739.47	240.29
739.80	239.95
740.13	239.67
740.46	239.34
740.79	238.89
741.12	238.58
741.45	238.21
741.78	237.82
742.11	237.56
742.44	237.18
742.77	236.97
743.10	236.57
743.43	236.29
743.75	235.75
744.08	235.72
744.41	235.40
744.74	235.04
745.07	234.69
745.40	234.60
745.73	234.46
746.06	234.15
746.39	233.75
746.71	233.36
747.04	233.05
747.37	232.75
747.70	232.54
748.03	232.30
748.36	232.09
748.68	231.74
749.01	231.47
749.34	231.25
749.67	230.94
750.00	230.78
750.33	230.61
750.65	230.45
750.98	229.91
751.31	229.66
751.64	229.45
751.97	229.26
752.29	228.93
752.62	228.55
752.95	228.31
753.28	228.19
753.60	228.01
753.93	227.85
754.26	227.63
754.59	227.35
754.91	227.10
755.24	226.89
755.57	226.70
755.90	226.46
756.22	226.20
756.55	225.93
756.88	225.70
757.20	225.41
757.53	225.14
757.86	225.01
758.19	224.84
758.51	224.75
758.84	224.53
759.17	224.32
759.49	224.19
759.82	224.14
760.15	223.93
760.47	223.75
760.80	223.61
761.13	223.52
761.45	223.41
761.78	223.28
762.11	223.18
762.43	223.04
762.76	222.89
763.08	222.78
763.41	222.78
763.74	222.67
764.06	222.52
764.39	222.43
764.71	222.30
765.04	222.18
765.37	221.96
765.69	221.85
766.02	221.75
766.34	221.62
766.67	221.46
767.00	221.45
767.32	221.50
767.65	221.48
767.97	221.35
768.30	221.21
768.62	221.16
768.95	221.00
769.27	220.94
769.60	220.91
769.92	220.81
770.25	220.62
770.57	220.50
770.90	220.43
771.22	220.26
771.55	220.22
771.87	220.14
772.20	220.07
772.52	220.13
772.85	220.24
773.17	220.14
773.50	220.02
773.82	219.86
774.15	219.66
774.47	219.47
774.80	219.41
775.12	219.32
775.45	219.20
775.77	219.17
776.09	219.05
776.42	218.91
776.74	218.85
777.07	218.80
777.39	218.72
777.72	218.65
778.04	218.69
778.36	218.59
778.69	218.55
779.01	218.50
779.33	218.30
779.66	218.12
779.98	218.04
780.31	218.03
780.63	218.03
780.95	217.99
781.28	217.89
781.60	217.83
781.92	217.84
782.25	217.77
782.57	217.64
782.89	217.57
783.22	217.52
783.54	217.44
783.86	217.32
784.19	217.19
784.51	217.14
784.83	217.00
785.16	216.86
785.48	216.82
785.80	216.77
786.12	216.73
786.45	216.59
786.77	216.55
787.09	216.42
787.42	216.32
787.74	216.24
788.06	216.17
788.38	216.02
788.71	215.91
789.03	215.88
789.35	215.87
789.67	215.84
789.99	215.79
790.32	215.68
790.64	215.69
790.96	215.78
791.28	215.68
791.61	215.62
791.93	215.64
792.25	215.54
792.57	215.60
792.89	215.53
793.21	215.55
793.54	215.49
793.86	215.45
794.18	215.40
794.50	215.38
794.82	215.30
795.14	215.27
795.47	215.25
795.79	215.20
796.11	215.13
796.43	215.01
796.75	215.00
797.07	215.00
797.39	214.91
797.71	214.79
798.04	214.83
798.36	214.85
798.68	214.81
799.00	214.78
799.32	214.60
799.64	214.59
799.96	214.50
800.28	214.50
800.60	214.50
800.92	214.46
801.24	214.40
801.56	214.40
801.89	214.42
802.21	214.32
802.53	214.28
802.85	214.25
803.17	214.38
803.49	214.30
803.81	214.25
804.13	214.23
804.45	214.22
804.77	214.17
805.09	214.14
805.41	214.05
805.73	213.97
806.05	213.97
806.37	213.90
806.69	213.95
807.01	213.92
807.33	213.88
807.65	213.89
807.97	213.96
808.28	213.94
808.60	213.90
808.92	213.97
809.24	214.02
809.56	214.06
809.88	213.93
810.20	213.97
810.52	213.96
810.84	213.95
811.16	213.85
811.48	213.80
811.80	213.89
812.12	213.83
812.43	213.95
812.75	213.85
813.07	213.80
813.39	213.75
813.71	213.72
814.03	213.73
814.35	213.72
814.67	213.60
814.98	213.55
815.30	213.53
815.62	213.45
815.94	213.34
816.26	213.27
816.58	213.26
816.89	213.24
817.21	213.14
817.53	213.13
817.85	213.20
818.17	213.14
818.48	212.97
818.80	213.01
819.12	212.90
819.44	212.91
819.76	212.93
820.07	212.89
820.39	212.81
820.71	212.79
821.03	212.71
821.34	212.69
821.66	212.74
821.98	212.69
822.30	212.71
822.61	212.80
822.93	212.75
823.25	212.70
823.57	212.59
823.88	212.73
824.20	212.67
824.52	212.58
824.83	212.60
825.15	212.56
825.47	212.51
825.79	212.53
826.10	212.49
826.42	212.39
826.74	212.35
827.05	212.36
827.37	212.29
827.69	212.23
828.00	212.24
828.32	212.16
828.64	212.18
828.95	212.20
829.27	212.08
829.58	212.05
829.90	212.07
830.22	212.08
830.53	211.94
830.85	211.96
831.17	211.94
831.48	211.92
831.80	211.93
832.11	211.92
832.43	211.85
832.75	211.88
833.06	212.06
833.38	211.99
833.69	212.04
834.01	212.06
834.32	212.10
834.64	212.07
834.96	212.05
835.27	211.98
835.59	211.95
835.90	211.94
836.22	211.96
836.53	211.91
836.85	211.95
837.16	212.15
837.48	212.12
837.79	212.20
838.11	212.20
838.42	212.15
838.74	212.11
839.05	212.09
839.37	212.06
839.68	211.94
840.00	211.93
840.31	211.83
840.63	211.74
840.94	211.73
841.26	211.69
841.57	211.67
841.88	211.62
842.20	211.59
842.51	211.58
842.83	211.58
843.14	211.72
843.46	211.74
843.77	211.59
844.08	211.54
844.40	211.48
844.71	211.41
845.03	211.39
845.34	211.45
845.65	211.46
845.97	211.40
846.28	211.38
846.60	211.43
846.91	211.49
847.22	211.55
847.54	211.56
847.85	211.55
848.16	211.55
848.48	211.50
848.79	211.58
849.10	211.55
849.42	211.47
849.73	211.30
850.04	211.31
850.36	211.26
850.67	211.34
850.98	211.30
851.30	211.37
851.61	211.44
851.92	211.39
852.23	211.44
852.55	211.50
852.86	211.50
853.17	211.53
853.49	211.54
853.80	211.55
854.11	211.54
854.42	211.55
854.74	211.54
855.05	211.60
855.36	211.49
855.67	211.46
855.99	211.53
856.30	211.63
856.61	211.58
856.92	211.59
857.23	211.59
857.55	211.53
857.86	211.52
858.17	211.52
858.48	211.47
858.79	211.44
859.11	211.43
859.42	211.39
859.73	211.27
860.04	211.28
860.35	211.22
860.66	211.17
860.98	211.19
861.29	211.30
861.60	211.28
861.91	211.31
862.22	211.32
862.53	211.30
862.84	211.16
863.16	211.22
863.47	211.18
863.78	211.12
864.09	211.17
864.40	211.17
864.71	211.06
865.02	211.15
865.33	211.16
865.64	211.16
865.95	211.22
866.27	211.35
866.58	211.34
866.89	211.40
867.20	211.42
867.51	211.40
867.82	211.29
868.13	211.38
868.44	211.31
868.75	211.38
869.06	211.36
869.37	211.38
869.68	211.31
869.99	211.42
870.30	211.45
870.61	211.48
870.92	211.37
871.23	211.37
871.54	211.45
871.85	211.45
872.16	211.43
872.47	211.37
872.78	211.30
873.09	211.31
873.40	211.30
873.71	211.32
874.02	211.29
874.33	211.23
874.64	211.15
874.95	211.25
875.26	211.19
875.56	211.23
875.87	211.25
876.18	211.24
876.49	211.43
876.80	211.38
877.11	211.28
877.42	211.34
877.73	211.43
878.04	211.34
878.35	211.38
878.66	211.43
878.96	211.46
879.27	211.40
879.58	211.39
879.89	211.37
880.20	211.38
880.51	211.34
880.82	211.44
881.12	211.49
881.43	211.38
881.74	211.37
882.05	211.33
882.36	211.38
882.67	211.35
882.97	211.05
883.28	211.05
883.59	211.15
883.90	211.12
884.21	211.07
884.51	211.08
884.82	211.04
885.13	211.02
885.44	210.93
885.74	210.97
886.05	210.96
886.36	210.96
886.67	210.89
886.98	211.05
887.28	211.00
887.59	210.98
887.90	211.02
888.20	211.07
888.51	211.18
888.82	211.10
889.13	211.17
889.43	211.33
889.74	211.37
890.05	211.32
890.35	211.40
890.66	211.49
890.97	211.45
891.28	211.38
891.58	211.40
891.89	211.48
892.20	211.51
892.50	211.49
892.81	211.46
893.12	211.43
893.42	211.29
893.73	211.34
894.04	211.34
894.34	211.34
894.65	211.35
894.95	211.30
895.26	211.33
895.57	211.42
895.87	211.36
896.18	211.30
896.48	211.41
896.79	211.36
897.10	211.31
897.40	211.28
897.71	211.34
898.01	211.31
898.32	211.33
898.63	211.30
898.93	211.31
899.24	211.33
899.54	211.40
899.85	211.45
900.15	211.50
900.46	211.47
900.76	211.62
901.07	211.62
901.38	211.60
901.68	211.67
901.99	211.54
902.29	211.45
902.60	211.47
902.90	211.36
903.21	211.32
903.51	211.25
903.82	211.28
904.12	211.29
904.43	211.28
904.73	211.21
905.03	211.27
905.34	211.40
905.64	211.41
905.95	211.42
906.25	211.34
906.56	211.29
906.86	211.30
907.17	211.20
907.47	211.15
907.77	211.14
908.08	211.03
908.38	211.08
908.69	211.12
908.99	211.18
909.30	211.14
909.60	211.13
909.90	211.15
910.21	211.14
910.51	211.04
910.81	211.10
911.12	211.10
911.42	211.00
911.73	210.90
912.03	210.86
912.33	210.83
912.64	210.86
912.94	210.84
913.24	210.84
913.55	210.78
913.85	210.76
914.15	210.81
914.46	210.84
914.76	210.78
915.06	210.76
915.37	210.66
915.67	210.73
915.97	210.73
916.27	210.72
916.58	210.70
916.88	210.75
917.18	210.67
917.49	210.84
917.79	210.89
918.09	210.88
918.39	210.95
918.70	210.94
919.00	210.96
919.30	211.03
919.60	210.96
919.91	211.01
920.21	211.01
920.51	210.94
920.81	210.92
921.12	210.93
921.42	210.91
921.72	210.95
922.02	210.97
922.32	210.99
922.63	211.01
922.93	211.18
923.23	211.14
923.53	211.12
923.83	211.01
924.13	211.03
924.44	210.99
924.74	211.01
925.04	211.05
925.34	211.04
925.64	210.95
925.94	210.95
926.24	211.06
926.55	211.07
926.85	211.05
927.15	211.02
927.45	210.98
927.75	211.01
928.05	211.01
928.35	210.98
928.65	211.06
928.95	211.13
929.26	210.99
929.56	211.07
929.86	211.05
930.16	211.01
930.46	210.97
930.76	211.00
931.06	210.95
931.36	210.90
931.66	210.95
931.96	210.97
932.26	210.98
932.56	210.92
932.86	210.89
933.16	210.91
933.46	210.93
933.76	211.01
934.06	211.02
934.36	211.08
934.66	211.05
934.96	211.01
935.26	210.93
935.56	210.91
935.86	210.90
936.16	210.93
936.46	210.98
936.76	210.99
937.06	210.93
937.36	210.92
937.66	210.95
937.96	210.95
938.26	210.98
938.56	211.02
938.86	210.98
939.16	211.06
939.46	211.10
939.76	211.10
940.06	211.07
940.35	211.07
940.65	211.03
940.95	211.11
941.25	211.09
941.55	211.08
941.85	211.09
942.15	211.13
942.45	211.11
942.75	211.05
943.04	211.10
943.34	211.15
943.64	211.12
943.94	211.08
944.24	211.09
944.54	211.01
944.84	210.98
945.13	210.95
945.43	210.93
945.73	210.89
946.03	210.91
946.33	210.85
946.62	210.84
946.92	210.80
947.22	210.79
947.52	210.82
947.82	210.94
948.11	210.95
948.41	210.92
948.71	210.95
949.01	211.00
949.31	210.92
949.60	210.88
949.90	210.89
950.20	210.93
950.50	210.95
950.79	210.93
951.09	210.97
951.39	210.99
951.69	210.91
951.98	210.98
952.28	211.03
952.58	211.11
952.87	211.15
953.17	211.15
953.47	211.14
953.76	211.10
954.06	211.01
954.36	211.01
954.66	210.98
954.95	211.07
955.25	211.06
955.55	211.11
955.84	211.09
956.14	211.10
956.44	211.14
956.73	211.07
957.03	211.06
957.32	211.05
957.62	211.01
957.92	211.04
958.21	211.01
958.51	211.17
958.81	211.18
959.10	211.14
959.40	211.20
959.69	211.16
959.99	211.17
960.29	211.19
960.58	211.15
960.88	211.27
961.17	211.16
961.47	211.25
961.76	211.26
962.06	211.39
962.36	211.35
962.65	211.34
962.95	211.39
963.24	211.46
963.54	211.45
963.83	211.48
964.13	211.52
964.42	211.47
964.72	211.35
965.01	211.26
965.31	211.24
965.60	211.18
965.90	211.29
966.19	211.25
966.49	211.25
966.78	211.25
967.08	211.19
967.37	211.22
967.67	211.15
967.96	211.14
968.26	211.04
968.55	211.13
968.85	211.13
969.14	211.09
969.43	211.10
969.73	211.12
970.02	211.11
970.32	211.13
970.61	211.22
970.91	211.19
971.20	211.17
971.49	211.15
971.79	211.12
972.08	211.02
972.38	211.02
972.67	211.02
972.96	211.03
973.26	210.96
973.55	211.00
973.85	210.94
974.14	210.87
974.43	210.94
974.73	210.87
975.02	210.78
975.31	210.76
975.61	210.76
975.90	210.76
976.19	210.69
976.49	210.66
976.78	210.57
977.07	210.59
977.37	210.63
977.66	210.76
977.95	210.90
978.24	210.95
978.54	211.05
978.83	211.01
979.12	211.07
979.42	211.12
979.71	211.05
980.00	211.07
980.29	211.16
980.59	211.10
980.88	211.12
981.17	211.18
981.46	211.20
981.76	211.14
982.05	211.15
982.34	211.17
982.63	211.25
982.93	211.34
983.22	211.31
983.51	211.28
983.80	211.28
984.09	211.26
984.39	211.18
984.68	211.10
984.97	211.15
985.26	211.09
985.55	211.06
985.85	211.10
986.14	211.15
986.43	211.13
986.72	211.15
987.01	211.11
987.30	211.07
987.59	211.06
987.89	211.11
988.18	211.08
988.47	211.05
988.76	210.95
989.05	210.85
989.34	210.85
989.63	210.90
989.92	210.86
990.22	210.74
990.51	210.79
990.80	210.82
991.09	210.81
991.38	210.87
991.67	210.83
991.96	210.82
992.25	210.78
992.54	210.77
992.83	210.77
993.12	210.75
993.41	210.82
993.70	210.86
993.99	210.89
994.28	210.90
994.58	211.00
994.87	210.98
995.16	211.00
995.45	210.97
995.74	210.87
996.03	210.86
996.32	210.85
996.61	210.85
996.90	210.80
997.19	210.80
997.48	210.77
997.77	210.81
998.06	210.83
998.34	210.80
998.63	210.77
998.92	210.73
999.21	210.79
999.50	210.75
999.79	210.67
1000.08	210.61
1000.37	210.60
1000.66	210.59
1000.95	210.64
1001.24	210.67
1001.53	210.66
1001.82	210.70
1002.11	210.67
1002.40	210.79
1002.68	210.87
1002.97	211.04
1003.26	210.97
1003.55	210.90
1003.84	210.86
1004.13	210.89
1004.42	210.93
1004.71	210.95
1004.99	210.98
1005.28	211.01
1005.57	210.98
1005.86	211.02
1006.15	211.06
1006.44	211.05
1006.72	211.10
1007.01	211.10
1007.30	211.10
1007.59	211.18
1007.88	211.20
1008.17	211.15
1008.45	211.08
1008.74	210.95
1009.03	210.79
1009.32	210.85
1009.60	210.88
1009.89	210.95
1010.18	210.89
1010.47	210.86
1010.76	210.84
1011.04	210.85
1011.33	210.88
1011.62	210.90
1011.91	210.89
1012.19	210.88
1012.48	210.90
1012.77	210.88
1013.05	210.92
1013.34	210.93
1013.63	210.93
1013.92	210.97
1014.20	211.00
1014.49	211.07
1014.78	211.15
1015.06	211.12
1015.35	211.09
1015.64	211.13
1015.92	211.15
1016.21	211.15
1016.50	211.12
1016.78	211.17
1017.07	211.21
1017.36	211.15
1017.64	211.12
1017.93	211.16
1018.22	211.13
1018.50	211.11
1018.79	211.06
1019.08	211.01
1019.36	211.03
1019.65	211.00
1019.93	211.01
1020.22	211.05
1020.51	211.11
1020.79	211.05
1021.08	210.40
1021.36	210.70
1021.65	210.75
1021.94	210.65
1022.22	211.90
1022.51	211.35
1022.79	211.45
1023.08	211.35
1023.36	213.25
1023.65	210.30
>>>>>End Processed Spectral Data<<<<<
