SpectraSuite Data File
++++++++++++++++++++++++++++++++++++
Date: Mon Feb 25 17:36:07 EST 2013
User: group
Dark Spectrum Present: No
Reference Spectrum Present: No
Number of Sampled Component Spectra: 1
Spectrometers: USB2E7196
Integration Time (usec): 52000 (USB2E7196)
Spectra Averaged: 20 (USB2E7196)
Boxcar Smoothing: 10 (USB2E7196)
Correct for Electrical Dark: No (USB2E7196)
Strobe/Lamp Enabled: No (USB2E7196)
Correct for Detector Non-linearity: No (USB2E7196)
Correct for Stray Light: No (USB2E7196)
Number of Pixels in Processed Spectrum: 2048
>>>>>Begin Processed Spectral Data<<<<<
339.09	0.00
339.48	199.60
339.86	200.45
340.24	202.35
340.63	203.80
341.01	207.70
341.39	205.85
341.78	208.50
342.16	208.65
342.54	208.90
342.93	198.36
343.31	208.37
343.69	208.90
344.07	209.35
344.46	209.84
344.84	210.32
345.22	210.62
345.60	211.09
345.99	211.30
346.37	211.59
346.75	211.90
347.13	212.05
347.52	212.31
347.90	212.54
348.28	212.67
348.66	212.86
349.05	213.00
349.43	213.12
349.81	213.27
350.19	213.46
350.57	213.62
350.96	213.87
351.34	214.06
351.72	214.27
352.10	214.53
352.48	214.52
352.87	214.52
353.25	214.59
353.63	214.56
354.01	214.64
354.39	214.65
354.77	214.65
355.15	214.70
355.54	214.72
355.92	214.70
356.30	214.80
356.68	214.96
357.06	215.04
357.44	215.09
357.82	215.13
358.20	215.23
358.58	215.25
358.97	215.28
359.35	215.32
359.73	215.36
360.11	215.37
360.49	215.51
360.87	215.57
361.25	215.58
361.63	215.68
362.01	215.70
362.39	215.70
362.77	215.71
363.15	215.82
363.53	215.80
363.91	215.87
364.29	215.90
364.67	215.80
365.05	215.82
365.43	215.83
365.81	215.85
366.19	215.91
366.57	215.97
366.95	215.95
367.33	215.93
367.71	215.89
368.09	215.88
368.47	215.90
368.85	215.93
369.23	215.98
369.61	215.88
369.99	215.96
370.37	215.98
370.75	216.06
371.13	215.94
371.51	215.91
371.89	215.87
372.27	215.82
372.65	215.76
373.03	215.67
373.41	215.62
373.78	215.64
374.16	215.52
374.54	215.49
374.92	215.41
375.30	215.44
375.68	215.44
376.06	215.46
376.44	215.44
376.82	215.42
377.19	215.35
377.57	215.35
377.95	215.24
378.33	215.16
378.71	214.97
379.09	215.03
379.47	215.02
379.84	214.99
380.22	214.93
380.60	214.79
380.98	214.82
381.36	214.84
381.73	214.72
382.11	214.73
382.49	214.64
382.87	214.63
383.25	214.58
383.62	214.75
384.00	214.72
384.38	214.67
384.76	214.70
385.13	214.79
385.51	214.81
385.89	214.76
386.27	214.80
386.64	214.88
387.02	214.83
387.40	214.86
387.78	214.86
388.15	214.89
388.53	215.04
388.91	215.04
389.29	215.05
389.66	215.13
390.04	215.13
390.42	215.28
390.79	215.31
391.17	215.28
391.55	215.12
391.92	215.15
392.30	215.20
392.68	215.23
393.05	215.19
393.43	215.18
393.81	215.31
394.18	215.31
394.56	215.43
394.94	215.54
395.31	215.62
395.69	215.71
396.06	215.81
396.44	215.90
396.82	216.05
397.19	216.27
397.57	216.38
397.95	216.53
398.32	216.58
398.70	216.82
399.07	217.11
399.45	217.35
399.82	217.58
400.20	217.77
400.58	218.00
400.95	218.29
401.33	218.63
401.70	219.07
402.08	219.48
402.45	219.74
402.83	220.18
403.20	220.65
403.58	221.16
403.95	221.75
404.33	222.32
404.71	222.88
405.08	223.57
405.46	224.34
405.83	225.09
406.21	225.94
406.58	226.86
406.96	227.87
407.33	228.94
407.70	230.10
408.08	231.56
408.45	233.00
408.83	234.50
409.20	235.98
409.58	237.52
409.95	239.38
410.33	241.54
410.70	243.57
411.08	245.76
411.45	248.14
411.82	250.65
412.20	253.46
412.57	256.62
412.95	259.67
413.32	262.96
413.69	266.62
414.07	270.47
414.44	274.58
414.82	278.78
415.19	283.70
415.56	288.79
415.94	294.26
416.31	300.18
416.68	306.15
417.06	312.94
417.43	319.46
417.81	326.94
418.18	334.47
418.55	342.90
418.93	351.65
419.30	360.80
419.67	370.43
420.04	380.46
420.42	391.05
420.79	402.76
421.16	415.10
421.54	427.55
421.91	440.72
422.28	454.50
422.66	469.20
423.03	483.09
423.40	498.10
423.77	514.31
424.15	530.71
424.52	547.82
424.89	566.41
425.26	584.81
425.64	602.19
426.01	621.52
426.38	641.57
426.75	662.26
427.13	683.78
427.50	706.46
427.87	730.31
428.24	754.26
428.61	777.15
428.99	801.63
429.36	828.96
429.73	855.62
430.10	882.05
430.47	909.40
430.85	938.70
431.22	968.93
431.59	1000.37
431.96	1031.40
432.33	1065.73
432.70	1099.33
433.08	1138.47
433.45	1175.35
433.82	1212.41
434.19	1253.06
434.56	1292.91
434.93	1331.52
435.30	1370.09
435.68	1412.76
436.05	1455.15
436.42	1497.80
436.79	1537.10
437.16	1579.29
437.53	1623.90
437.90	1668.47
438.27	1712.20
438.64	1757.77
439.01	1800.23
439.38	1839.24
439.75	1876.18
440.13	1918.40
440.50	1957.89
440.87	1990.97
441.24	2026.01
441.61	2064.15
441.98	2093.63
442.35	2127.28
442.72	2160.97
443.09	2193.48
443.46	2215.12
443.83	2230.88
444.20	2245.36
444.57	2264.54
444.94	2275.40
445.31	2286.70
445.68	2296.41
446.05	2303.65
446.42	2303.50
446.79	2301.73
447.16	2299.83
447.53	2299.42
447.90	2287.16
448.27	2275.32
448.64	2256.55
449.01	2243.33
449.37	2217.40
449.74	2192.42
450.11	2161.30
450.48	2128.73
450.85	2095.76
451.22	2066.98
451.59	2038.92
451.96	2012.39
452.33	1975.87
452.70	1943.38
453.07	1903.80
453.43	1864.32
453.80	1825.09
454.17	1787.39
454.54	1752.77
454.91	1714.58
455.28	1677.75
455.65	1643.31
456.02	1606.26
456.38	1576.27
456.75	1538.72
457.12	1507.79
457.49	1477.22
457.86	1448.59
458.23	1422.00
458.59	1393.21
458.96	1364.26
459.33	1339.03
459.70	1313.16
460.07	1292.80
460.43	1269.14
460.80	1246.55
461.17	1227.04
461.54	1206.57
461.91	1187.12
462.27	1167.14
462.64	1150.27
463.01	1131.27
463.38	1112.43
463.74	1096.30
464.11	1080.59
464.48	1066.88
464.85	1051.66
465.21	1039.75
465.58	1026.98
465.95	1012.31
466.32	999.69
466.68	987.12
467.05	974.72
467.42	962.57
467.78	949.75
468.15	937.61
468.52	928.51
468.88	917.01
469.25	906.70
469.62	898.07
469.98	888.94
470.35	880.48
470.72	872.56
471.08	864.35
471.45	856.77
471.82	849.09
472.18	840.79
472.55	834.69
472.92	827.97
473.28	822.06
473.65	816.34
474.02	810.46
474.38	805.62
474.75	801.50
475.11	797.07
475.48	793.75
475.85	790.75
476.21	788.00
476.58	785.59
476.94	783.80
477.31	781.76
477.67	779.78
478.04	778.12
478.41	777.02
478.77	776.19
479.14	775.33
479.50	775.21
479.87	775.95
480.23	776.87
480.60	777.26
480.96	777.65
481.33	779.25
481.69	781.19
482.06	782.52
482.42	783.48
482.79	785.28
483.15	788.06
483.52	791.80
483.88	795.03
484.25	798.26
484.61	801.80
484.98	805.42
485.34	809.89
485.71	814.78
486.07	819.96
486.44	825.47
486.80	831.50
487.17	838.01
487.53	845.04
487.90	852.39
488.26	859.81
488.62	868.05
488.99	876.31
489.35	884.80
489.72	894.59
490.08	905.37
490.44	915.73
490.81	926.25
491.17	936.33
491.54	947.90
491.90	959.43
492.26	972.01
492.63	985.11
492.99	998.48
493.36	1012.09
493.72	1026.47
494.08	1041.01
494.45	1056.30
494.81	1072.24
495.17	1088.45
495.54	1105.40
495.90	1123.50
496.26	1141.24
496.63	1159.66
496.99	1178.34
497.35	1197.10
497.72	1216.28
498.08	1236.01
498.44	1255.91
498.80	1277.35
499.17	1298.15
499.53	1319.79
499.89	1341.85
500.26	1363.80
500.62	1385.81
500.98	1409.09
501.34	1432.23
501.71	1455.90
502.07	1479.81
502.43	1504.06
502.79	1528.28
503.16	1552.56
503.52	1576.68
503.88	1600.78
504.24	1625.06
504.60	1650.18
504.97	1675.85
505.33	1701.26
505.69	1727.77
506.05	1754.08
506.41	1779.57
506.78	1805.43
507.14	1831.17
507.50	1856.92
507.86	1883.04
508.22	1910.08
508.59	1935.97
508.95	1962.59
509.31	1988.77
509.67	2015.30
510.03	2041.42
510.39	2068.14
510.75	2094.37
511.12	2119.61
511.48	2145.50
511.84	2171.39
512.20	2196.13
512.56	2221.47
512.92	2246.82
513.28	2271.39
513.64	2295.80
514.00	2320.11
514.37	2344.13
514.73	2368.52
515.09	2391.85
515.45	2415.16
515.81	2437.88
516.17	2461.00
516.53	2483.28
516.89	2505.50
517.25	2526.09
517.61	2546.60
517.97	2567.02
518.33	2586.36
518.69	2606.89
519.05	2627.44
519.41	2647.15
519.77	2667.69
520.13	2686.60
520.49	2704.77
520.85	2722.94
521.21	2740.87
521.57	2759.09
521.93	2776.03
522.29	2793.72
522.65	2811.03
523.01	2827.85
523.37	2843.29
523.73	2859.03
524.09	2874.21
524.45	2889.07
524.81	2903.95
525.17	2919.23
525.53	2934.13
525.89	2949.76
526.25	2963.96
526.61	2976.31
526.97	2989.52
527.33	3001.97
527.68	3015.09
528.04	3027.99
528.40	3039.99
528.76	3052.26
529.12	3063.46
529.48	3075.75
529.84	3085.12
530.20	3095.94
530.56	3106.91
530.91	3118.65
531.27	3129.65
531.63	3140.58
531.99	3151.16
532.35	3161.41
532.71	3170.53
533.07	3180.83
533.42	3190.40
533.78	3200.91
534.14	3210.91
534.50	3219.81
534.86	3229.58
535.21	3236.54
535.57	3244.63
535.93	3252.33
536.29	3259.27
536.65	3267.85
537.00	3274.95
537.36	3282.80
537.72	3289.13
538.08	3295.97
538.44	3302.23
538.79	3308.32
539.15	3314.09
539.51	3320.84
539.87	3328.08
540.22	3334.88
540.58	3340.64
540.94	3346.05
541.29	3349.84
541.65	3352.09
542.01	3355.57
542.37	3358.82
542.72	3363.67
543.08	3366.67
543.44	3370.52
543.79	3373.57
544.15	3375.58
544.51	3379.40
544.87	3382.65
545.22	3385.19
545.58	3386.45
545.94	3387.47
546.29	3387.80
546.65	3387.81
547.01	3387.48
547.36	3387.74
547.72	3388.02
548.07	3387.23
548.43	3386.29
548.79	3385.03
549.14	3386.81
549.50	3388.11
549.86	3387.99
550.21	3386.66
550.57	3387.13
550.92	3386.10
551.28	3384.76
551.64	3383.31
551.99	3381.74
552.35	3381.02
552.70	3380.44
553.06	3380.09
553.41	3379.84
553.77	3379.44
554.13	3379.24
554.48	3380.12
554.84	3379.06
555.19	3377.27
555.55	3376.68
555.90	3376.43
556.26	3376.28
556.61	3374.94
556.97	3371.59
557.32	3369.17
557.68	3367.57
558.03	3364.69
558.39	3362.47
558.74	3362.20
559.10	3361.91
559.45	3360.23
559.81	3358.63
560.16	3356.55
560.52	3354.68
560.87	3352.67
561.23	3349.14
561.58	3346.38
561.94	3341.71
562.29	3337.39
562.64	3334.16
563.00	3330.03
563.35	3325.25
563.71	3322.03
564.06	3319.31
564.42	3317.07
564.77	3314.24
565.12	3310.96
565.48	3308.00
565.83	3304.75
566.19	3301.66
566.54	3297.55
566.89	3292.76
567.25	3287.99
567.60	3283.89
567.96	3278.45
568.31	3273.45
568.66	3270.01
569.02	3266.40
569.37	3263.04
569.72	3259.77
570.08	3256.01
570.43	3250.58
570.78	3246.99
571.14	3242.61
571.49	3237.79
571.84	3233.64
572.20	3227.89
572.55	3223.54
572.90	3217.63
573.26	3211.75
573.61	3204.43
573.96	3196.94
574.31	3191.09
574.67	3184.62
575.02	3177.52
575.37	3171.21
575.72	3164.64
576.08	3157.57
576.43	3149.36
576.78	3141.48
577.13	3134.48
577.49	3127.43
577.84	3120.96
578.19	3113.06
578.54	3104.48
578.90	3096.39
579.25	3086.83
579.60	3077.88
579.95	3068.08
580.30	3060.59
580.66	3051.85
581.01	3043.41
581.36	3034.30
581.71	3025.07
582.06	3016.28
582.42	3008.85
582.77	2999.18
583.12	2989.74
583.47	2980.40
583.82	2971.50
584.17	2961.98
584.53	2952.89
584.88	2943.33
585.23	2933.56
585.58	2923.93
585.93	2914.74
586.28	2905.47
586.63	2896.63
586.98	2888.18
587.34	2879.53
587.69	2868.77
588.04	2859.77
588.39	2850.58
588.74	2840.76
589.09	2831.24
589.44	2820.53
589.79	2809.50
590.14	2800.35
590.49	2789.53
590.84	2780.07
591.19	2771.00
591.54	2760.29
591.89	2748.34
592.25	2737.56
592.60	2726.14
592.95	2714.73
593.30	2703.38
593.65	2692.25
594.00	2681.89
594.35	2671.97
594.70	2661.66
595.05	2651.95
595.40	2641.20
595.75	2629.75
596.10	2619.93
596.45	2609.09
596.80	2599.60
597.15	2589.35
597.50	2578.79
597.85	2569.49
598.19	2558.18
598.54	2546.51
598.89	2536.15
599.24	2526.29
599.59	2515.38
599.94	2505.68
600.29	2495.87
600.64	2485.82
600.99	2474.25
601.34	2464.06
601.69	2452.35
602.04	2441.08
602.39	2430.63
602.74	2421.34
603.08	2412.78
603.43	2404.29
603.78	2394.84
604.13	2384.77
604.48	2374.20
604.83	2364.93
605.18	2355.01
605.53	2345.96
605.87	2336.81
606.22	2327.86
606.57	2318.26
606.92	2307.76
607.27	2297.47
607.62	2287.31
607.96	2277.75
608.31	2269.53
608.66	2258.77
609.01	2249.02
609.36	2238.99
609.70	2228.37
610.05	2216.33
610.40	2204.78
610.75	2192.51
611.10	2181.61
611.44	2169.41
611.79	2158.51
612.14	2146.47
612.49	2133.75
612.83	2121.52
613.18	2108.86
613.53	2096.70
613.88	2083.89
614.22	2072.29
614.57	2060.34
614.92	2048.73
615.27	2037.10
615.61	2024.03
615.96	2012.30
616.31	2000.99
616.65	1990.49
617.00	1979.44
617.35	1969.01
617.70	1957.08
618.04	1945.34
618.39	1933.41
618.74	1922.40
619.08	1910.46
619.43	1898.84
619.78	1888.39
620.12	1878.06
620.47	1867.96
620.82	1857.15
621.16	1846.83
621.51	1836.03
621.85	1825.12
622.20	1813.98
622.55	1802.10
622.89	1791.63
623.24	1780.70
623.59	1768.98
623.93	1757.44
624.28	1746.42
624.62	1735.48
624.97	1725.10
625.32	1715.50
625.66	1705.60
626.01	1695.96
626.35	1687.26
626.70	1678.02
627.04	1668.45
627.39	1658.05
627.73	1648.19
628.08	1638.42
628.43	1628.45
628.77	1619.43
629.12	1609.69
629.46	1599.90
629.81	1589.88
630.15	1579.51
630.50	1569.54
630.84	1559.94
631.19	1549.81
631.53	1539.79
631.88	1529.70
632.22	1520.11
632.57	1510.50
632.91	1500.77
633.26	1491.11
633.60	1480.80
633.95	1471.16
634.29	1461.82
634.64	1452.88
634.98	1443.18
635.32	1434.07
635.67	1425.50
636.01	1416.44
636.36	1407.72
636.70	1398.96
637.05	1390.82
637.39	1382.72
637.73	1374.58
638.08	1366.73
638.42	1358.85
638.77	1350.90
639.11	1342.83
639.45	1334.39
639.80	1325.59
640.14	1317.21
640.49	1308.58
640.83	1299.75
641.17	1291.23
641.52	1282.75
641.86	1274.16
642.20	1266.10
642.55	1257.22
642.89	1248.25
643.23	1239.28
643.58	1230.93
643.92	1222.55
644.26	1214.06
644.61	1205.56
644.95	1196.97
645.29	1188.48
645.64	1179.76
645.98	1171.39
646.32	1163.24
646.66	1155.22
647.01	1147.18
647.35	1139.18
647.69	1130.84
648.04	1123.31
648.38	1115.09
648.72	1107.06
649.06	1099.11
649.41	1090.82
649.75	1082.58
650.09	1074.90
650.43	1067.59
650.78	1060.26
651.12	1052.70
651.46	1045.39
651.80	1038.28
652.14	1031.16
652.49	1023.77
652.83	1016.43
653.17	1008.33
653.51	1000.57
653.85	993.24
654.20	986.20
654.54	978.83
654.88	971.82
655.22	964.20
655.56	956.58
655.90	948.62
656.25	941.12
656.59	934.21
656.93	927.76
657.27	921.01
657.61	913.78
657.95	906.85
658.29	900.02
658.64	893.37
658.98	886.77
659.32	879.68
659.66	873.01
660.00	866.61
660.34	860.94
660.68	854.83
661.02	848.18
661.36	841.72
661.70	835.58
662.05	829.71
662.39	824.03
662.73	818.68
663.07	813.70
663.41	808.26
663.75	802.75
664.09	797.13
664.43	791.21
664.77	785.76
665.11	780.03
665.45	774.77
665.79	769.50
666.13	764.35
666.47	759.60
666.81	754.64
667.15	749.40
667.49	744.11
667.83	739.08
668.17	734.53
668.51	729.74
668.85	724.68
669.19	719.81
669.53	714.70
669.87	709.56
670.21	704.56
670.55	699.51
670.89	694.71
671.23	689.97
671.57	685.43
671.91	680.84
672.25	676.46
672.58	671.99
672.92	667.20
673.26	662.60
673.60	658.06
673.94	653.68
674.28	649.78
674.62	645.82
674.96	641.70
675.30	637.67
675.64	633.69
675.97	630.02
676.31	626.50
676.65	622.98
676.99	619.74
677.33	616.20
677.67	612.71
678.01	608.72
678.34	604.98
678.68	601.40
679.02	597.63
679.36	593.84
679.70	589.85
680.04	586.42
680.37	582.62
680.71	579.11
681.05	575.79
681.39	572.05
681.73	568.45
682.06	565.03
682.40	561.51
682.74	557.84
683.08	554.08
683.42	550.27
683.75	546.76
684.09	542.96
684.43	539.35
684.77	535.81
685.10	532.47
685.44	529.00
685.78	525.61
686.12	522.38
686.45	519.32
686.79	516.41
687.13	513.43
687.46	510.43
687.80	507.35
688.14	503.98
688.48	501.09
688.81	498.00
689.15	494.96
689.49	491.88
689.82	488.76
690.16	485.81
690.50	482.69
690.83	479.74
691.17	476.86
691.51	474.05
691.84	471.29
692.18	468.51
692.52	465.89
692.85	463.14
693.19	460.56
693.52	457.66
693.86	454.85
694.20	451.97
694.53	449.25
694.87	446.40
695.21	443.68
695.54	440.79
695.88	438.23
696.21	435.59
696.55	433.08
696.88	430.73
697.22	428.43
697.56	426.33
697.89	424.00
698.23	421.66
698.56	419.29
698.90	417.02
699.23	414.71
699.57	412.32
699.90	409.93
700.24	407.53
700.58	405.41
700.91	403.30
701.25	401.28
701.58	399.24
701.92	397.32
702.25	395.59
702.59	393.73
702.92	391.67
703.26	389.69
703.59	387.74
703.93	386.10
704.26	384.17
704.60	382.27
704.93	380.26
705.26	378.41
705.60	376.57
705.93	374.65
706.27	372.92
706.60	371.34
706.94	369.77
707.27	368.01
707.61	366.14
707.94	364.41
708.27	362.65
708.61	361.00
708.94	359.33
709.28	357.59
709.61	355.84
709.94	354.20
710.28	352.55
710.61	350.92
710.95	349.04
711.28	347.42
711.61	345.65
711.95	344.20
712.28	342.75
712.61	341.24
712.95	339.96
713.28	338.64
713.61	337.06
713.95	335.51
714.28	334.12
714.61	332.91
714.95	331.56
715.28	330.13
715.61	328.58
715.95	327.13
716.28	325.56
716.61	324.24
716.95	322.85
717.28	321.48
717.61	320.23
717.94	319.07
718.28	317.78
718.61	316.62
718.94	315.50
719.27	314.24
719.61	313.17
719.94	311.90
720.27	310.61
720.60	309.54
720.94	308.55
721.27	307.54
721.60	306.57
721.93	305.60
722.27	304.65
722.60	303.78
722.93	302.93
723.26	302.11
723.59	301.25
723.93	300.37
724.26	299.61
724.59	298.59
724.92	297.71
725.25	296.90
725.59	296.01
725.92	295.16
726.25	294.39
726.58	293.53
726.91	292.72
727.24	292.00
727.57	291.10
727.91	290.21
728.24	289.43
728.57	288.60
728.90	287.78
729.23	286.90
729.56	286.18
729.89	285.34
730.22	284.56
730.55	283.67
730.89	282.92
731.22	282.12
731.55	281.40
731.88	280.51
732.21	279.70
732.54	278.99
732.87	278.24
733.20	277.43
733.53	276.63
733.86	275.96
734.19	275.15
734.52	274.56
734.85	274.10
735.18	273.39
735.51	272.69
735.84	271.94
736.17	271.36
736.50	270.60
736.83	270.19
737.16	269.57
737.49	268.99
737.82	268.30
738.15	267.68
738.48	267.07
738.81	266.49
739.14	265.89
739.47	265.26
739.80	264.63
740.13	264.14
740.46	263.61
740.79	263.01
741.12	262.49
741.45	261.95
741.78	261.17
742.11	260.61
742.44	260.02
742.77	259.55
743.10	258.96
743.43	258.39
743.75	257.64
744.08	257.29
744.41	256.75
744.74	256.28
745.07	255.66
745.40	255.21
745.73	254.77
746.06	254.19
746.39	253.64
746.71	253.15
747.04	252.58
747.37	252.08
747.70	251.66
748.03	251.15
748.36	250.71
748.68	250.40
749.01	249.94
749.34	249.47
749.67	249.04
750.00	248.65
750.33	248.39
750.65	247.91
750.98	247.30
751.31	246.89
751.64	246.51
751.97	246.23
752.29	245.86
752.62	245.43
752.95	245.16
753.28	244.81
753.60	244.37
753.93	244.13
754.26	243.76
754.59	243.25
754.91	242.95
755.24	242.45
755.57	242.03
755.90	241.64
756.22	241.31
756.55	240.91
756.88	240.55
757.20	240.12
757.53	239.76
757.86	239.47
758.19	239.20
758.51	238.95
758.84	238.57
759.17	238.25
759.49	237.94
759.82	237.76
760.15	237.53
760.47	237.25
760.80	236.82
761.13	236.56
761.45	236.24
761.78	235.84
762.11	235.62
762.43	235.39
762.76	235.16
763.08	234.89
763.41	234.69
763.74	234.42
764.06	234.19
764.39	233.97
764.71	233.68
765.04	233.39
765.37	233.05
765.69	232.85
766.02	232.50
766.34	232.31
766.67	231.90
767.00	231.67
767.32	231.55
767.65	231.45
767.97	231.24
768.30	231.18
768.62	231.04
768.95	230.82
769.27	230.52
769.60	230.35
769.92	230.08
770.25	229.80
770.57	229.58
770.90	229.36
771.22	229.10
771.55	228.84
771.87	228.64
772.20	228.41
772.52	228.29
772.85	228.36
773.17	228.14
773.50	227.98
773.82	227.76
774.15	227.53
774.47	227.26
774.80	227.00
775.12	226.77
775.45	226.69
775.77	226.55
776.09	226.44
776.42	226.27
776.74	226.20
777.07	226.04
777.39	225.81
777.72	225.64
778.04	225.56
778.36	225.44
778.69	225.28
779.01	225.20
779.33	224.88
779.66	224.54
779.98	224.35
780.31	224.23
780.63	224.21
780.95	224.09
781.28	224.04
781.60	223.86
781.92	223.75
782.25	223.56
782.57	223.38
782.89	223.19
783.22	223.13
783.54	223.03
783.86	222.90
784.19	222.80
784.51	222.72
784.83	222.54
785.16	222.49
785.48	222.34
785.80	222.16
786.12	222.15
786.45	222.01
786.77	222.01
787.09	221.89
787.42	221.63
787.74	221.49
788.06	221.32
788.38	221.27
788.71	221.17
789.03	220.99
789.35	220.98
789.67	220.88
789.99	220.73
790.32	220.63
790.64	220.57
790.96	220.59
791.28	220.40
791.61	220.35
791.93	220.28
792.25	220.25
792.57	220.32
792.89	220.17
793.21	220.12
793.54	219.90
793.86	219.79
794.18	219.73
794.50	219.64
794.82	219.45
795.14	219.38
795.47	219.24
795.79	219.17
796.11	219.03
796.43	218.94
796.75	218.78
797.07	218.62
797.39	218.62
797.71	218.48
798.04	218.49
798.36	218.37
798.68	218.26
799.00	218.20
799.32	218.04
799.64	218.00
799.96	217.97
800.28	217.97
800.60	217.92
800.92	217.96
801.24	217.92
801.56	217.96
801.89	217.90
802.21	217.93
802.53	217.85
802.85	217.73
803.17	217.76
803.49	217.73
803.81	217.72
804.13	217.55
804.45	217.43
804.77	217.38
805.09	217.36
805.41	217.30
805.73	217.27
806.05	217.15
806.37	217.11
806.69	217.05
807.01	216.99
807.33	217.00
807.65	216.84
807.97	216.88
808.28	216.81
808.60	216.74
808.92	216.65
809.24	216.75
809.56	216.80
809.88	216.72
810.20	216.67
810.52	216.65
810.84	216.53
811.16	216.45
811.48	216.42
811.80	216.43
812.12	216.35
812.43	216.33
812.75	216.18
813.07	216.13
813.39	216.11
813.71	216.08
814.03	216.00
814.35	215.96
814.67	215.80
814.98	215.79
815.30	215.78
815.62	215.63
815.94	215.47
816.26	215.37
816.58	215.25
816.89	215.26
817.21	215.20
817.53	215.26
817.85	215.19
818.17	215.11
818.48	214.99
818.80	215.00
819.12	214.88
819.44	214.92
819.76	214.78
820.07	214.72
820.39	214.60
820.71	214.55
821.03	214.48
821.34	214.40
821.66	214.38
821.98	214.44
822.30	214.47
822.61	214.52
822.93	214.50
823.25	214.50
823.57	214.50
823.88	214.47
824.20	214.39
824.52	214.46
824.83	214.40
825.15	214.39
825.47	214.35
825.79	214.33
826.10	214.30
826.42	214.34
826.74	214.32
827.05	214.33
827.37	214.30
827.69	214.26
828.00	214.31
828.32	214.22
828.64	214.09
828.95	214.08
829.27	214.02
829.58	213.97
829.90	213.95
830.22	213.93
830.53	213.85
830.85	213.78
831.17	213.66
831.48	213.62
831.80	213.55
832.11	213.45
832.43	213.33
832.75	213.33
833.06	213.38
833.38	213.27
833.69	213.25
834.01	213.16
834.32	213.07
834.64	213.02
834.96	213.05
835.27	212.94
835.59	212.88
835.90	212.81
836.22	212.81
836.53	212.77
836.85	212.65
837.16	212.83
837.48	212.89
837.79	212.97
838.11	213.01
838.42	213.00
838.74	213.12
839.05	213.23
839.37	213.21
839.68	213.08
840.00	213.09
840.31	213.10
840.63	213.18
840.94	213.24
841.26	213.20
841.57	213.13
841.88	213.23
842.20	213.24
842.51	213.20
842.83	213.21
843.14	213.44
843.46	213.42
843.77	213.28
844.08	213.24
844.40	213.14
844.71	213.08
845.03	213.02
845.34	212.92
845.65	212.80
845.97	212.71
846.28	212.71
846.60	212.66
846.91	212.65
847.22	212.56
847.54	212.58
847.85	212.60
848.16	212.58
848.48	212.51
848.79	212.62
849.10	212.63
849.42	212.60
849.73	212.35
850.04	212.32
850.36	212.25
850.67	212.22
850.98	212.24
851.30	212.24
851.61	212.36
851.92	212.34
852.23	212.45
852.55	212.46
852.86	212.49
853.17	212.52
853.49	212.51
853.80	212.59
854.11	212.55
854.42	212.51
854.74	212.49
855.05	212.52
855.36	212.36
855.67	212.38
855.99	212.38
856.30	212.53
856.61	212.55
856.92	212.57
857.23	212.61
857.55	212.66
857.86	212.64
858.17	212.55
858.48	212.48
858.79	212.44
859.11	212.46
859.42	212.40
859.73	212.35
860.04	212.29
860.35	212.20
860.66	212.14
860.98	212.15
861.29	212.20
861.60	212.13
861.91	212.15
862.22	212.09
862.53	212.05
862.84	211.90
863.16	212.00
863.47	211.96
863.78	211.97
864.09	211.96
864.40	211.99
864.71	212.03
865.02	212.07
865.33	212.07
865.64	212.03
865.95	212.07
866.27	212.17
866.58	212.15
866.89	212.25
867.20	212.21
867.51	212.19
867.82	212.13
868.13	212.20
868.44	212.17
868.75	212.26
869.06	212.30
869.37	212.29
869.68	212.14
869.99	212.18
870.30	212.13
870.61	212.11
870.92	212.05
871.23	211.98
871.54	211.99
871.85	212.05
872.16	212.04
872.47	211.97
872.78	211.90
873.09	211.95
873.40	211.89
873.71	211.93
874.02	211.90
874.33	211.85
874.64	211.79
874.95	211.78
875.26	211.72
875.56	211.60
875.87	211.56
876.18	211.56
876.49	211.69
876.80	211.67
877.11	211.62
877.42	211.60
877.73	211.63
878.04	211.62
878.35	211.48
878.66	211.52
878.96	211.51
879.27	211.50
879.58	211.50
879.89	211.45
880.20	211.50
880.51	211.55
880.82	211.56
881.12	211.62
881.43	211.55
881.74	211.54
882.05	211.63
882.36	211.67
882.67	211.75
882.97	211.53
883.28	211.54
883.59	211.59
883.90	211.63
884.21	211.60
884.51	211.59
884.82	211.63
885.13	211.64
885.44	211.66
885.74	211.68
886.05	211.66
886.36	211.68
886.67	211.65
886.98	211.76
887.28	211.80
887.59	211.77
887.90	211.83
888.20	211.84
888.51	211.85
888.82	211.85
889.13	211.78
889.43	211.99
889.74	211.97
890.05	211.89
890.35	211.87
890.66	211.88
890.97	211.89
891.28	211.91
891.58	211.93
891.89	211.99
892.20	211.94
892.50	211.86
892.81	211.87
893.12	211.80
893.42	211.66
893.73	211.65
894.04	211.64
894.34	211.65
894.65	211.60
894.95	211.58
895.26	211.54
895.57	211.65
895.87	211.50
896.18	211.57
896.48	211.56
896.79	211.64
897.10	211.65
897.40	211.68
897.71	211.67
898.01	211.65
898.32	211.63
898.63	211.66
898.93	211.74
899.24	211.74
899.54	211.76
899.85	211.73
900.15	211.69
900.46	211.76
900.76	211.79
901.07	211.84
901.38	211.77
901.68	211.82
901.99	211.68
902.29	211.67
902.60	211.65
902.90	211.65
903.21	211.62
903.51	211.60
903.82	211.57
904.12	211.54
904.43	211.48
904.73	211.51
905.03	211.49
905.34	211.65
905.64	211.61
905.95	211.69
906.25	211.69
906.56	211.75
906.86	211.67
907.17	211.66
907.47	211.59
907.77	211.65
908.08	211.61
908.38	211.64
908.69	211.62
908.99	211.65
909.30	211.63
909.60	211.57
909.90	211.56
910.21	211.50
910.51	211.47
910.81	211.45
911.12	211.42
911.42	211.36
911.73	211.16
912.03	211.16
912.33	211.11
912.64	211.12
912.94	211.06
913.24	211.01
913.55	210.96
913.85	210.95
914.15	210.92
914.46	210.87
914.76	210.85
915.06	210.82
915.37	210.69
915.67	210.73
915.97	210.68
916.27	210.68
916.58	210.72
916.88	210.69
917.18	210.73
917.49	210.82
917.79	210.86
918.09	210.80
918.39	210.83
918.70	210.85
919.00	210.83
919.30	210.92
919.60	210.93
919.91	210.90
920.21	210.90
920.51	210.87
920.81	210.94
921.12	210.98
921.42	211.07
921.72	211.14
922.02	211.14
922.32	211.24
922.63	211.20
922.93	211.24
923.23	211.32
923.53	211.32
923.83	211.26
924.13	211.31
924.44	211.45
924.74	211.54
925.04	211.54
925.34	211.53
925.64	211.45
925.94	211.43
926.24	211.50
926.55	211.55
926.85	211.60
927.15	211.54
927.45	211.52
927.75	211.43
928.05	211.36
928.35	211.37
928.65	211.42
928.95	211.40
929.26	211.40
929.56	211.42
929.86	211.47
930.16	211.40
930.46	211.37
930.76	211.28
931.06	211.16
931.36	211.12
931.66	211.18
931.96	211.19
932.26	211.19
932.56	211.13
932.86	211.18
933.16	211.18
933.46	211.19
933.76	211.16
934.06	211.23
934.36	211.31
934.66	211.28
934.96	211.19
935.26	211.27
935.56	211.30
935.86	211.23
936.16	211.13
936.46	211.15
936.76	211.10
937.06	211.13
937.36	211.14
937.66	211.15
937.96	211.13
938.26	211.05
938.56	211.10
938.86	211.14
939.16	211.14
939.46	211.11
939.76	211.15
940.06	211.10
940.35	211.05
940.65	210.91
940.95	210.93
941.25	210.94
941.55	210.90
941.85	210.87
942.15	210.88
942.45	210.92
942.75	210.91
943.04	210.95
943.34	210.96
943.64	210.96
943.94	210.91
944.24	210.89
944.54	210.98
944.84	211.00
945.13	210.91
945.43	210.84
945.73	210.91
946.03	210.84
946.33	210.92
946.62	210.94
946.92	211.05
947.22	211.09
947.52	211.07
947.82	211.03
948.11	210.97
948.41	211.03
948.71	210.99
949.01	210.94
949.31	210.91
949.60	210.90
949.90	210.96
950.20	211.00
950.50	211.02
950.79	211.03
951.09	210.98
951.39	211.01
951.69	210.99
951.98	210.94
952.28	210.98
952.58	210.96
952.87	210.96
953.17	210.92
953.47	210.85
953.76	210.85
954.06	210.87
954.36	210.86
954.66	210.79
954.95	210.84
955.25	210.90
955.55	210.91
955.84	210.89
956.14	210.87
956.44	210.87
956.73	210.88
957.03	210.84
957.32	210.87
957.62	210.84
957.92	210.92
958.21	210.94
958.51	211.13
958.81	211.14
959.10	211.10
959.40	211.13
959.69	211.12
959.99	211.19
960.29	211.17
960.58	211.10
960.88	211.14
961.17	211.17
961.47	211.13
961.76	211.10
962.06	211.14
962.36	211.08
962.65	211.12
962.95	211.15
963.24	211.17
963.54	211.16
963.83	211.15
964.13	211.07
964.42	210.98
964.72	210.88
965.01	210.87
965.31	210.91
965.60	210.88
965.90	211.01
966.19	210.94
966.49	210.93
966.78	210.98
967.08	211.00
967.37	211.00
967.67	210.96
967.96	210.98
968.26	210.93
968.55	211.00
968.85	210.98
969.14	210.86
969.43	210.80
969.73	210.83
970.02	210.90
970.32	210.92
970.61	211.00
970.91	210.94
971.20	210.94
971.49	210.90
971.79	210.98
972.08	210.85
972.38	210.88
972.67	210.90
972.96	210.93
973.26	210.87
973.55	210.93
973.85	210.95
974.14	210.96
974.43	210.97
974.73	210.90
975.02	210.78
975.31	210.90
975.61	210.89
975.90	210.83
976.19	210.76
976.49	210.78
976.78	210.73
977.07	210.69
977.37	210.67
977.66	210.73
977.95	210.62
978.24	210.69
978.54	210.73
978.83	210.72
979.12	210.75
979.42	210.73
979.71	210.68
980.00	210.64
980.29	210.63
980.59	210.60
980.88	210.62
981.17	210.65
981.46	210.59
981.76	210.58
982.05	210.63
982.34	210.70
982.63	210.76
982.93	210.76
983.22	210.75
983.51	210.77
983.80	210.79
984.09	210.83
984.39	210.77
984.68	210.78
984.97	210.80
985.26	210.81
985.55	210.80
985.85	210.75
986.14	210.80
986.43	210.84
986.72	210.89
987.01	210.83
987.30	210.87
987.59	210.89
987.89	210.98
988.18	210.87
988.47	210.77
988.76	210.70
989.05	210.70
989.34	210.74
989.63	210.79
989.92	210.76
990.22	210.75
990.51	210.75
990.80	210.68
991.09	210.66
991.38	210.62
991.67	210.63
991.96	210.66
992.25	210.64
992.54	210.57
992.83	210.63
993.12	210.66
993.41	210.73
993.70	210.77
993.99	210.83
994.28	210.92
994.58	211.02
994.87	211.05
995.16	211.05
995.45	211.05
995.74	211.02
996.03	211.00
996.32	211.02
996.61	211.03
996.90	211.01
997.19	211.04
997.48	211.08
997.77	211.12
998.06	211.09
998.34	211.10
998.63	211.11
998.92	211.10
999.21	211.12
999.50	211.12
999.79	211.04
1000.08	210.96
1000.37	210.93
1000.66	210.87
1000.95	210.89
1001.24	210.86
1001.53	210.91
1001.82	210.93
1002.11	210.93
1002.40	210.99
1002.68	211.08
1002.97	211.26
1003.26	211.22
1003.55	211.14
1003.84	211.13
1004.13	211.20
1004.42	211.26
1004.71	211.25
1004.99	211.21
1005.28	211.25
1005.57	211.23
1005.86	211.26
1006.15	211.19
1006.44	211.17
1006.72	211.17
1007.01	211.18
1007.30	211.20
1007.59	211.14
1007.88	211.07
1008.17	211.06
1008.45	211.00
1008.74	210.94
1009.03	210.86
1009.32	210.95
1009.60	211.04
1009.89	211.02
1010.18	210.91
1010.47	210.84
1010.76	210.85
1011.04	210.86
1011.33	210.91
1011.62	211.02
1011.91	211.05
1012.19	211.15
1012.48	211.21
1012.77	211.23
1013.05	211.26
1013.34	211.21
1013.63	211.20
1013.92	211.19
1014.20	211.16
1014.49	211.20
1014.78	211.15
1015.06	211.13
1015.35	211.07
1015.64	211.03
1015.92	211.05
1016.21	211.14
1016.50	211.23
1016.78	211.27
1017.07	211.26
1017.36	211.20
1017.64	211.05
1017.93	211.02
1018.22	210.89
1018.50	210.91
1018.79	210.95
1019.08	210.83
1019.36	210.95
1019.65	210.92
1019.93	210.95
1020.22	211.02
1020.51	211.09
1020.79	211.07
1021.08	208.85
1021.36	211.40
1021.65	211.45
1021.94	210.05
1022.22	211.75
1022.51	210.10
1022.79	211.05
1023.08	211.60
1023.36	213.20
1023.65	209.90
>>>>>End Processed Spectral Data<<<<<
