SpectraSuite Data File
++++++++++++++++++++++++++++++++++++
Date: Mon Feb 25 17:36:20 EST 2013
User: group
Dark Spectrum Present: No
Reference Spectrum Present: No
Number of Sampled Component Spectra: 1
Spectrometers: USB2E7196
Integration Time (usec): 52000 (USB2E7196)
Spectra Averaged: 20 (USB2E7196)
Boxcar Smoothing: 10 (USB2E7196)
Correct for Electrical Dark: No (USB2E7196)
Strobe/Lamp Enabled: No (USB2E7196)
Correct for Detector Non-linearity: No (USB2E7196)
Correct for Stray Light: No (USB2E7196)
Number of Pixels in Processed Spectrum: 2048
>>>>>Begin Processed Spectral Data<<<<<
339.09	0.00
339.48	199.00
339.86	200.70
340.24	201.20
340.63	204.55
341.01	207.75
341.39	205.95
341.78	206.55
342.16	209.80
342.54	209.50
342.93	198.40
343.31	208.48
343.69	209.04
344.07	209.48
344.46	210.00
344.84	210.38
345.22	210.58
345.60	210.94
345.99	211.29
346.37	211.50
346.75	211.58
347.13	211.74
347.52	211.88
347.90	211.96
348.28	212.08
348.66	212.24
349.05	212.30
349.43	212.44
349.81	212.56
350.19	212.72
350.57	212.85
350.96	213.06
351.34	213.18
351.72	213.33
352.10	213.50
352.48	213.59
352.87	213.66
353.25	213.75
353.63	213.74
354.01	213.76
354.39	213.75
354.77	213.93
355.15	214.00
355.54	214.02
355.92	214.10
356.30	214.16
356.68	214.35
357.06	214.39
357.44	214.40
357.82	214.49
358.20	214.56
358.58	214.65
358.97	214.74
359.35	214.76
359.73	214.90
360.11	214.99
360.49	215.00
360.87	215.01
361.25	215.06
361.63	215.19
362.01	215.28
362.39	215.29
362.77	215.32
363.15	215.40
363.53	215.47
363.91	215.47
364.29	215.45
364.67	215.36
365.05	215.30
365.43	215.42
365.81	215.47
366.19	215.59
366.57	215.66
366.95	215.65
367.33	215.71
367.71	215.70
368.09	215.75
368.47	215.81
368.85	215.83
369.23	215.90
369.61	215.89
369.99	215.87
370.37	215.95
370.75	216.04
371.13	215.93
371.51	215.90
371.89	215.91
372.27	215.96
372.65	215.88
373.03	215.92
373.41	215.86
373.78	215.82
374.16	215.60
374.54	215.54
374.92	215.49
375.30	215.49
375.68	215.42
376.06	215.37
376.44	215.34
376.82	215.38
377.19	215.35
377.57	215.25
377.95	215.20
378.33	215.11
378.71	214.99
379.09	214.99
379.47	215.02
379.84	215.00
380.22	214.95
380.60	214.88
380.98	214.93
381.36	214.93
381.73	214.85
382.11	214.89
382.49	214.78
382.87	214.76
383.25	214.69
383.62	214.88
384.00	214.85
384.38	214.86
384.76	214.87
385.13	214.87
385.51	214.90
385.89	214.92
386.27	214.97
386.64	215.00
387.02	214.99
387.40	214.97
387.78	215.01
388.15	215.02
388.53	215.07
388.91	215.01
389.29	214.98
389.66	215.07
390.04	215.14
390.42	215.29
390.79	215.34
391.17	215.38
391.55	215.24
391.92	215.25
392.30	215.24
392.68	215.25
393.05	215.32
393.43	215.42
393.81	215.48
394.18	215.50
394.56	215.53
394.94	215.66
395.31	215.76
395.69	215.88
396.06	216.01
396.44	216.10
396.82	216.18
397.19	216.42
397.57	216.50
397.95	216.58
398.32	216.64
398.70	216.83
399.07	217.07
399.45	217.18
399.82	217.44
400.20	217.69
400.58	217.93
400.95	218.07
401.33	218.33
401.70	218.64
402.08	219.00
402.45	219.35
402.83	219.72
403.20	220.11
403.58	220.56
403.95	221.12
404.33	221.72
404.71	222.30
405.08	223.02
405.46	223.65
405.83	224.41
406.21	225.21
406.58	226.09
406.96	227.02
407.33	227.99
407.70	229.02
408.08	230.31
408.45	231.66
408.83	233.16
409.20	234.51
409.58	235.93
409.95	237.54
410.33	239.45
410.70	241.38
411.08	243.48
411.45	245.66
411.82	248.03
412.20	250.60
412.57	253.55
412.95	256.29
413.32	259.52
413.69	262.93
414.07	266.46
414.44	270.35
414.82	274.43
415.19	279.14
415.56	284.02
415.94	289.23
416.31	294.78
416.68	300.46
417.06	307.00
417.43	313.14
417.81	320.33
418.18	327.53
418.55	335.52
418.93	343.81
419.30	352.51
419.67	361.65
420.04	371.18
420.42	381.32
420.79	392.46
421.16	404.07
421.54	415.74
421.91	428.17
422.28	441.23
422.66	455.04
423.03	468.21
423.40	482.39
423.77	497.53
424.15	513.08
424.52	529.27
424.89	546.87
425.26	564.30
425.64	580.87
426.01	599.38
426.38	618.46
426.75	637.70
427.13	657.82
427.50	679.20
427.87	701.66
428.24	724.27
428.61	746.24
428.99	769.50
429.36	795.66
429.73	821.10
430.10	846.36
430.47	872.25
430.85	899.90
431.22	928.71
431.59	958.81
431.96	988.45
432.33	1021.06
432.70	1052.85
433.08	1090.10
433.45	1125.10
433.82	1160.18
434.19	1198.84
434.56	1236.98
434.93	1274.29
435.30	1311.08
435.68	1351.80
436.05	1392.10
436.42	1432.71
436.79	1470.43
437.16	1510.61
437.53	1553.58
437.90	1595.91
438.27	1637.45
438.64	1681.52
439.01	1721.89
439.38	1759.24
439.75	1794.63
440.13	1834.92
440.50	1872.96
440.87	1904.69
441.24	1938.22
441.61	1974.35
441.98	2002.54
442.35	2034.79
442.72	2066.83
443.09	2098.03
443.46	2118.91
443.83	2134.22
444.20	2147.87
444.57	2166.17
444.94	2176.65
445.31	2187.07
445.68	2196.19
446.05	2203.65
446.42	2202.85
446.79	2201.45
447.16	2199.46
447.53	2199.09
447.90	2187.58
448.27	2176.10
448.64	2158.27
449.01	2145.82
449.37	2121.30
449.74	2097.89
450.11	2068.35
450.48	2037.36
450.85	2005.45
451.22	1977.93
451.59	1951.30
451.96	1926.16
452.33	1890.96
452.70	1859.67
453.07	1821.80
453.43	1784.07
453.80	1746.24
454.17	1710.67
454.54	1677.28
454.91	1640.55
455.28	1604.81
455.65	1571.43
456.02	1535.85
456.38	1507.07
456.75	1470.70
457.12	1441.27
457.49	1411.48
457.86	1383.78
458.23	1358.08
458.59	1330.50
458.96	1302.57
459.33	1278.05
459.70	1253.00
460.07	1233.43
460.43	1210.76
460.80	1189.10
461.17	1170.70
461.54	1151.10
461.91	1132.36
462.27	1113.33
462.64	1097.35
463.01	1079.46
463.38	1061.58
463.74	1046.24
464.11	1031.28
464.48	1018.40
464.85	1003.95
465.21	992.50
465.58	980.36
465.95	966.31
466.32	954.55
466.68	942.65
467.05	930.66
467.42	919.21
467.78	907.23
468.15	895.80
468.52	887.15
468.88	876.06
469.25	866.32
469.62	857.92
469.98	849.18
470.35	841.09
470.72	833.38
471.08	825.60
471.45	818.37
471.82	810.88
472.18	803.06
472.55	797.32
472.92	790.95
473.28	785.39
473.65	780.01
474.02	774.52
474.38	769.97
474.75	766.18
475.11	761.76
475.48	758.33
475.85	755.53
476.21	752.80
476.58	750.24
476.94	748.45
477.31	746.36
477.67	744.27
478.04	742.65
478.41	741.67
478.77	740.84
479.14	740.06
479.50	739.94
479.87	740.40
480.23	740.90
480.60	741.08
480.96	741.20
481.33	742.56
481.69	744.14
482.06	745.22
482.42	746.24
482.79	747.87
483.15	750.54
483.52	753.80
483.88	756.80
484.25	760.03
484.61	763.35
484.98	766.60
485.34	770.73
485.71	775.45
486.07	780.24
486.44	785.22
486.80	790.40
487.17	796.05
487.53	802.58
487.90	809.39
488.26	816.63
488.62	824.26
488.99	831.80
489.35	839.62
489.72	848.75
490.08	858.55
490.44	868.06
490.81	877.90
491.17	887.29
491.54	898.05
491.90	908.45
492.26	919.79
492.63	932.06
492.99	944.84
493.36	957.49
493.72	971.04
494.08	984.96
494.45	999.44
494.81	1014.68
495.17	1030.10
495.54	1045.81
495.90	1062.30
496.26	1079.20
496.63	1096.81
496.99	1114.44
497.35	1132.05
497.72	1150.50
498.08	1169.23
498.44	1188.15
498.80	1208.32
499.17	1228.25
499.53	1249.10
499.89	1270.09
500.26	1291.20
500.62	1312.10
500.98	1334.43
501.34	1356.62
501.71	1379.02
502.07	1402.17
502.43	1425.18
502.79	1448.14
503.16	1471.36
503.52	1494.92
503.88	1518.07
504.24	1541.15
504.60	1565.02
504.97	1589.72
505.33	1613.45
505.69	1638.74
506.05	1663.65
506.41	1688.25
506.78	1712.98
507.14	1737.69
507.50	1762.58
507.86	1787.69
508.22	1813.19
508.59	1837.79
508.95	1862.91
509.31	1888.62
509.67	1914.05
510.03	1939.56
510.39	1965.10
510.75	1990.45
511.12	2014.63
511.48	2039.55
511.84	2064.73
512.20	2088.99
512.56	2113.26
512.92	2138.09
513.28	2162.51
513.64	2186.67
514.00	2210.26
514.37	2233.65
514.73	2257.22
515.09	2279.95
515.45	2302.77
515.81	2325.12
516.17	2347.69
516.53	2369.74
516.89	2391.10
517.25	2411.05
517.61	2430.88
517.97	2450.20
518.33	2469.09
518.69	2488.96
519.05	2508.77
519.41	2528.36
519.77	2548.18
520.13	2567.03
520.49	2584.95
520.85	2602.34
521.21	2619.63
521.57	2637.83
521.93	2654.49
522.29	2671.79
522.65	2689.28
523.01	2705.78
523.37	2721.75
523.73	2737.78
524.09	2752.74
524.45	2767.49
524.81	2782.42
525.17	2797.77
525.53	2813.16
525.89	2828.55
526.25	2843.40
526.61	2855.91
526.97	2868.60
527.33	2881.33
527.68	2894.54
528.04	2907.61
528.40	2919.76
528.76	2931.98
529.12	2943.10
529.48	2955.30
529.84	2965.15
530.20	2975.73
530.56	2986.62
530.91	2997.95
531.27	3008.19
531.63	3019.06
531.99	3029.17
532.35	3039.59
532.71	3049.36
533.07	3060.11
533.42	3069.79
533.78	3079.86
534.14	3089.86
534.50	3098.88
534.86	3108.17
535.21	3115.18
535.57	3123.68
535.93	3131.43
536.29	3138.66
536.65	3147.63
537.00	3154.79
537.36	3163.12
537.72	3169.98
538.08	3177.09
538.44	3183.52
538.79	3189.97
539.15	3196.51
539.51	3203.41
539.87	3210.32
540.22	3216.90
540.58	3222.85
540.94	3228.68
541.29	3233.46
541.65	3236.50
542.01	3240.63
542.37	3244.14
542.72	3249.79
543.08	3253.50
543.44	3258.13
543.79	3261.40
544.15	3263.26
544.51	3266.99
544.87	3269.87
545.22	3272.28
545.58	3273.31
545.94	3274.76
546.29	3275.90
546.65	3276.74
547.01	3277.61
547.36	3278.82
547.72	3279.46
548.07	3278.59
548.43	3277.98
548.79	3277.09
549.14	3278.67
549.50	3279.58
549.86	3280.19
550.21	3278.61
550.57	3278.14
550.92	3276.78
551.28	3275.77
551.64	3274.34
551.99	3273.50
552.35	3273.30
552.70	3272.81
553.06	3272.47
553.41	3271.95
553.77	3271.92
554.13	3270.71
554.48	3270.65
554.84	3269.40
555.19	3267.40
555.55	3266.75
555.90	3266.28
556.26	3265.27
556.61	3263.75
556.97	3260.94
557.32	3257.75
557.68	3255.70
558.03	3252.53
558.39	3249.78
558.74	3249.46
559.10	3249.06
559.45	3247.50
559.81	3245.61
560.16	3243.42
560.52	3242.31
560.87	3240.15
561.23	3236.11
561.58	3232.95
561.94	3228.36
562.29	3223.48
562.64	3219.85
563.00	3215.81
563.35	3211.03
563.71	3207.43
564.06	3204.27
564.42	3201.44
564.77	3198.73
565.12	3195.62
565.48	3192.80
565.83	3190.03
566.19	3186.29
566.54	3182.54
566.89	3177.32
567.25	3171.89
567.60	3167.98
567.96	3162.64
568.31	3157.50
568.66	3153.56
569.02	3149.70
569.37	3146.00
569.72	3142.59
570.08	3138.36
570.43	3132.45
570.78	3127.83
571.14	3122.58
571.49	3116.94
571.84	3111.95
572.20	3105.88
572.55	3100.73
572.90	3094.55
573.26	3088.10
573.61	3080.34
573.96	3072.10
574.31	3064.48
574.67	3057.66
575.02	3049.41
575.37	3041.21
575.72	3034.15
576.08	3026.73
576.43	3017.82
576.78	3009.51
577.13	3001.43
577.49	2993.62
577.84	2987.06
578.19	2979.19
578.54	2971.63
578.90	2963.82
579.25	2954.42
579.60	2945.17
579.95	2935.59
580.30	2926.73
580.66	2917.65
581.01	2908.57
581.36	2898.64
581.71	2890.32
582.06	2881.19
582.42	2873.40
582.77	2864.01
583.12	2854.12
583.47	2844.68
583.82	2835.88
584.17	2825.68
584.53	2816.35
584.88	2806.20
585.23	2795.56
585.58	2785.75
585.93	2775.15
586.28	2765.44
586.63	2755.70
586.98	2747.10
587.34	2738.34
587.69	2728.38
588.04	2719.22
588.39	2710.29
588.74	2700.79
589.09	2690.96
589.44	2680.10
589.79	2668.89
590.14	2659.49
590.49	2648.60
590.84	2638.79
591.19	2629.75
591.54	2619.75
591.89	2608.50
592.25	2598.12
592.60	2586.81
592.95	2575.68
593.30	2564.92
593.65	2554.38
594.00	2544.67
594.35	2535.06
594.70	2523.93
595.05	2513.70
595.40	2501.74
595.75	2490.11
596.10	2479.73
596.45	2468.81
596.80	2459.11
597.15	2448.69
597.50	2437.72
597.85	2428.15
598.19	2416.34
598.54	2404.18
598.89	2393.32
599.24	2382.83
599.59	2372.43
599.94	2363.37
600.29	2353.44
600.64	2343.13
600.99	2331.00
601.34	2320.21
601.69	2307.98
602.04	2296.98
602.39	2286.75
602.74	2278.24
603.08	2269.49
603.43	2260.97
603.78	2250.99
604.13	2240.84
604.48	2230.66
604.83	2221.69
605.18	2211.88
605.53	2202.34
605.87	2192.90
606.22	2183.62
606.57	2173.54
606.92	2162.33
607.27	2151.49
607.62	2141.00
607.96	2130.91
608.31	2122.73
608.66	2112.19
609.01	2102.36
609.36	2092.07
609.70	2081.38
610.05	2069.25
610.40	2057.51
610.75	2045.24
611.10	2034.55
611.44	2022.70
611.79	2012.02
612.14	2000.34
612.49	1988.05
612.83	1976.51
613.18	1964.39
613.53	1953.08
613.88	1941.16
614.22	1930.20
614.57	1918.45
614.92	1906.93
615.27	1895.44
615.61	1882.79
615.96	1871.49
616.31	1859.97
616.65	1849.44
617.00	1838.58
617.35	1828.40
617.70	1816.65
618.04	1805.37
618.39	1793.56
618.74	1782.69
619.08	1770.34
619.43	1758.74
619.78	1748.03
620.12	1738.03
620.47	1728.53
620.82	1717.51
621.16	1707.48
621.51	1697.43
621.85	1687.04
622.20	1676.33
622.55	1665.09
622.89	1654.84
623.24	1644.44
623.59	1633.77
623.93	1623.08
624.28	1612.34
624.62	1601.54
624.97	1591.60
625.32	1581.82
625.66	1572.58
626.01	1563.15
626.35	1554.91
626.70	1545.95
627.04	1536.60
627.39	1526.52
627.73	1516.75
628.08	1507.67
628.43	1498.45
628.77	1489.38
629.12	1480.14
629.46	1470.92
629.81	1461.74
630.15	1452.18
630.50	1442.65
630.84	1433.40
631.19	1423.62
631.53	1414.40
631.88	1405.16
632.22	1396.59
632.57	1388.00
632.91	1378.98
633.26	1369.94
633.60	1360.67
633.95	1351.94
634.29	1343.74
634.64	1335.55
634.98	1326.25
635.32	1317.68
635.67	1309.65
636.01	1301.04
636.36	1292.68
636.70	1284.50
637.05	1276.54
637.39	1268.69
637.73	1260.72
638.08	1253.65
638.42	1246.57
638.77	1239.10
639.11	1231.58
639.45	1223.47
639.80	1215.36
640.14	1207.43
640.49	1199.80
640.83	1191.39
641.17	1183.53
641.52	1175.49
641.86	1167.24
642.20	1159.76
642.55	1151.04
642.89	1142.43
643.23	1133.92
643.58	1126.47
643.92	1118.37
644.26	1110.65
644.61	1102.75
644.95	1094.68
645.29	1086.45
645.64	1078.12
645.98	1070.24
646.32	1062.71
646.66	1055.55
647.01	1048.17
647.35	1040.66
647.69	1032.89
648.04	1026.00
648.38	1018.25
648.72	1010.82
649.06	1003.70
649.41	996.24
649.75	989.02
650.09	982.13
650.43	975.60
650.78	968.28
651.12	961.40
651.46	954.58
651.80	948.25
652.14	942.16
652.49	935.30
652.83	928.70
653.17	921.69
653.51	914.80
653.85	908.17
654.20	901.80
654.54	895.43
654.88	889.07
655.22	882.22
655.56	875.17
655.90	868.02
656.25	861.05
656.59	854.76
656.93	848.70
657.27	842.22
657.61	835.64
657.95	829.47
658.29	823.48
658.64	817.57
658.98	811.22
659.32	804.80
659.66	799.16
660.00	793.27
660.34	787.75
660.68	782.15
661.02	775.90
661.36	770.05
661.70	764.35
662.05	758.82
662.39	753.70
662.73	748.99
663.07	744.38
663.41	739.74
663.75	734.80
664.09	729.79
664.43	724.80
664.77	719.98
665.11	715.05
665.45	710.37
665.79	705.64
666.13	701.05
666.47	696.68
666.81	692.13
667.15	687.64
667.49	683.20
667.83	678.84
668.17	674.77
668.51	670.43
668.85	666.06
669.19	661.76
669.53	657.32
669.87	652.76
670.21	648.37
670.55	643.77
670.89	639.53
671.23	635.62
671.57	631.51
671.91	627.52
672.25	623.47
672.58	619.43
672.92	615.28
673.26	611.44
673.60	607.40
673.94	603.67
674.28	600.16
674.62	596.36
674.96	592.47
675.30	588.96
675.64	585.38
675.97	582.00
676.31	578.67
676.65	575.41
676.99	572.39
677.33	569.28
677.67	566.19
678.01	562.66
678.34	559.05
678.68	555.83
679.02	552.29
679.36	549.15
679.70	545.67
680.04	542.33
680.37	538.99
680.71	535.91
681.05	532.72
681.39	529.46
681.73	526.52
682.06	523.54
682.40	520.33
682.74	517.20
683.08	514.03
683.42	510.85
683.75	507.64
684.09	504.47
684.43	501.27
684.77	498.20
685.10	495.18
685.44	492.19
685.78	489.08
686.12	486.28
686.45	483.27
686.79	480.64
687.13	478.05
687.46	475.33
687.80	472.44
688.14	469.54
688.48	466.77
688.81	463.77
689.15	461.11
689.49	458.37
689.82	455.49
690.16	452.42
690.50	449.63
690.83	446.92
691.17	444.20
691.51	441.56
691.84	439.06
692.18	436.61
692.52	434.18
692.85	431.85
693.19	429.44
693.52	426.91
693.86	424.29
694.20	421.72
694.53	419.18
694.87	416.69
695.21	414.30
695.54	411.94
695.88	409.80
696.21	407.42
696.55	405.22
696.88	403.20
697.22	401.35
697.56	399.51
697.89	397.61
698.23	395.69
698.56	393.68
698.90	391.63
699.23	389.67
699.57	387.72
699.90	385.70
700.24	383.73
700.58	381.91
700.91	380.09
701.25	378.34
701.58	376.62
701.92	374.95
702.25	373.31
702.59	371.55
702.92	369.73
703.26	368.08
703.59	366.46
703.93	364.95
704.26	363.35
704.60	361.61
704.93	359.82
705.26	358.10
705.60	356.54
705.93	354.94
706.27	353.48
706.60	351.99
706.94	350.45
707.27	348.91
707.61	347.38
707.94	345.90
708.27	344.36
708.61	342.87
708.94	341.48
709.28	340.06
709.61	338.54
709.94	337.06
710.28	335.49
710.61	334.05
710.95	332.42
711.28	330.95
711.61	329.52
711.95	328.19
712.28	326.84
712.61	325.56
712.95	324.39
713.28	323.10
713.61	321.85
713.95	320.75
714.28	319.66
714.61	318.50
714.95	317.38
715.28	316.18
715.61	314.93
715.95	313.72
716.28	312.39
716.61	311.22
716.95	310.09
717.28	309.00
717.61	307.82
717.94	306.76
718.28	305.63
718.61	304.57
718.94	303.55
719.27	302.56
719.61	301.53
719.94	300.43
720.27	299.35
720.60	298.36
720.94	297.42
721.27	296.37
721.60	295.49
721.93	294.60
722.27	293.77
722.60	292.93
722.93	291.96
723.26	291.14
723.59	290.35
723.93	289.59
724.26	288.82
724.59	288.07
724.92	287.27
725.25	286.55
725.59	285.72
725.92	285.07
726.25	284.31
726.58	283.52
726.91	282.78
727.24	282.07
727.57	281.33
727.91	280.41
728.24	279.79
728.57	279.01
728.90	278.25
729.23	277.47
729.56	276.84
729.89	276.21
730.22	275.44
730.55	274.69
730.89	273.89
731.22	273.18
731.55	272.49
731.88	271.79
732.21	271.15
732.54	270.52
732.87	269.77
733.20	269.17
733.53	268.51
733.86	267.99
734.19	267.42
734.52	266.84
734.85	266.52
735.18	265.82
735.51	265.19
735.84	264.61
736.17	264.11
736.50	263.46
736.83	263.12
737.16	262.66
737.49	262.21
737.82	261.69
738.15	261.15
738.48	260.56
738.81	260.07
739.14	259.49
739.47	258.97
739.80	258.40
740.13	257.86
740.46	257.35
740.79	256.76
741.12	256.24
741.45	255.77
741.78	255.18
742.11	254.72
742.44	254.24
742.77	253.79
743.10	253.26
743.43	252.78
743.75	252.16
744.08	251.90
744.41	251.36
744.74	250.89
745.07	250.39
745.40	250.05
745.73	249.69
746.06	249.28
746.39	248.89
746.71	248.45
747.04	248.06
747.37	247.71
747.70	247.30
748.03	246.93
748.36	246.55
748.68	246.17
749.01	245.73
749.34	245.36
749.67	244.98
750.00	244.61
750.33	244.35
750.65	243.94
750.98	243.38
751.31	242.96
751.64	242.63
751.97	242.36
752.29	241.92
752.62	241.50
752.95	241.11
753.28	240.81
753.60	240.58
753.93	240.20
754.26	239.86
754.59	239.49
754.91	239.11
755.24	238.75
755.57	238.38
755.90	238.10
756.22	237.76
756.55	237.44
756.88	237.03
757.20	236.58
757.53	236.20
757.86	235.92
758.19	235.74
758.51	235.48
758.84	235.13
759.17	234.90
759.49	234.66
759.82	234.51
760.15	234.18
760.47	233.85
760.80	233.49
761.13	233.21
761.45	233.02
761.78	232.70
762.11	232.44
762.43	232.18
762.76	231.95
763.08	231.84
763.41	231.58
763.74	231.44
764.06	231.22
764.39	231.04
764.71	230.80
765.04	230.48
765.37	230.23
765.69	230.06
766.02	229.87
766.34	229.65
766.67	229.38
767.00	229.22
767.32	229.18
767.65	229.22
767.97	229.01
768.30	228.78
768.62	228.64
768.95	228.41
769.27	228.17
769.60	227.98
769.92	227.75
770.25	227.63
770.57	227.39
770.90	227.21
771.22	226.99
771.55	226.80
771.87	226.65
772.20	226.46
772.52	226.38
772.85	226.32
773.17	226.14
773.50	225.95
773.82	225.74
774.15	225.43
774.47	225.11
774.80	224.99
775.12	224.79
775.45	224.63
775.77	224.51
776.09	224.39
776.42	224.21
776.74	224.04
777.07	223.89
777.39	223.77
777.72	223.57
778.04	223.52
778.36	223.40
778.69	223.29
779.01	223.14
779.33	222.88
779.66	222.60
779.98	222.40
780.31	222.36
780.63	222.28
780.95	222.25
781.28	222.14
781.60	221.94
781.92	221.86
782.25	221.72
782.57	221.58
782.89	221.49
783.22	221.42
783.54	221.29
783.86	221.15
784.19	221.05
784.51	221.00
784.83	220.89
785.16	220.78
785.48	220.61
785.80	220.55
786.12	220.42
786.45	220.40
786.77	220.36
787.09	220.25
787.42	220.09
787.74	219.98
788.06	219.87
788.38	219.85
788.71	219.77
789.03	219.65
789.35	219.65
789.67	219.52
789.99	219.45
790.32	219.37
790.64	219.33
790.96	219.43
791.28	219.41
791.61	219.21
791.93	219.15
792.25	219.13
792.57	219.14
792.89	219.11
793.21	219.02
793.54	218.92
793.86	218.76
794.18	218.72
794.50	218.58
794.82	218.54
795.14	218.45
795.47	218.43
795.79	218.47
796.11	218.31
796.43	218.34
796.75	218.33
797.07	218.25
797.39	218.09
797.71	217.89
798.04	217.78
798.36	217.82
798.68	217.79
799.00	217.75
799.32	217.64
799.64	217.60
799.96	217.49
800.28	217.51
800.60	217.48
800.92	217.46
801.24	217.45
801.56	217.39
801.89	217.30
802.21	217.22
802.53	217.11
802.85	217.13
803.17	217.16
803.49	217.04
803.81	216.98
804.13	217.00
804.45	216.93
804.77	216.89
805.09	216.73
805.41	216.68
805.73	216.62
806.05	216.50
806.37	216.45
806.69	216.47
807.01	216.26
807.33	216.15
807.65	216.10
807.97	216.06
808.28	215.98
808.60	215.89
808.92	215.85
809.24	215.89
809.56	215.82
809.88	215.64
810.20	215.63
810.52	215.62
810.84	215.53
811.16	215.43
811.48	215.45
811.80	215.54
812.12	215.40
812.43	215.38
812.75	215.39
813.07	215.36
813.39	215.23
813.71	215.25
814.03	215.23
814.35	215.16
814.67	215.11
814.98	215.07
815.30	215.07
815.62	214.98
815.94	214.88
816.26	214.82
816.58	214.72
816.89	214.60
817.21	214.53
817.53	214.52
817.85	214.49
818.17	214.35
818.48	214.24
818.80	214.25
819.12	214.21
819.44	214.16
819.76	214.09
820.07	214.11
820.39	214.10
820.71	214.09
821.03	214.01
821.34	213.98
821.66	213.94
821.98	213.89
822.30	213.82
822.61	213.91
822.93	213.91
823.25	213.92
823.57	213.94
823.88	214.02
824.20	214.01
824.52	214.10
824.83	214.13
825.15	214.12
825.47	214.08
825.79	214.08
826.10	214.03
826.42	214.00
826.74	213.98
827.05	213.92
827.37	213.93
827.69	213.92
828.00	213.89
828.32	213.89
828.64	213.87
828.95	213.97
829.27	213.87
829.58	213.81
829.90	213.81
830.22	213.89
830.53	213.71
830.85	213.65
831.17	213.54
831.48	213.50
831.80	213.43
832.11	213.45
832.43	213.38
832.75	213.45
833.06	213.54
833.38	213.58
833.69	213.62
834.01	213.59
834.32	213.51
834.64	213.51
834.96	213.53
835.27	213.57
835.59	213.45
835.90	213.37
836.22	213.35
836.53	213.31
836.85	213.17
837.16	213.35
837.48	213.33
837.79	213.39
838.11	213.38
838.42	213.39
838.74	213.36
839.05	213.27
839.37	213.15
839.68	213.04
840.00	212.96
840.31	212.91
840.63	212.89
840.94	212.90
841.26	212.81
841.57	212.84
841.88	212.79
842.20	212.81
842.51	212.85
842.83	212.86
843.14	213.04
843.46	213.05
843.77	212.97
844.08	212.91
844.40	212.77
844.71	212.76
845.03	212.73
845.34	212.68
845.65	212.72
845.97	212.78
846.28	212.73
846.60	212.72
846.91	212.70
847.22	212.70
847.54	212.76
847.85	212.78
848.16	212.63
848.48	212.60
848.79	212.62
849.10	212.60
849.42	212.57
849.73	212.29
850.04	212.34
850.36	212.25
850.67	212.36
850.98	212.39
851.30	212.32
851.61	212.37
851.92	212.34
852.23	212.40
852.55	212.30
852.86	212.32
853.17	212.27
853.49	212.33
853.80	212.40
854.11	212.42
854.42	212.40
854.74	212.48
855.05	212.44
855.36	212.40
855.67	212.42
855.99	212.42
856.30	212.67
856.61	212.61
856.92	212.60
857.23	212.50
857.55	212.49
857.86	212.50
858.17	212.46
858.48	212.41
858.79	212.32
859.11	212.34
859.42	212.28
859.73	212.24
860.04	212.20
860.35	212.10
860.66	212.03
860.98	211.99
861.29	212.01
861.60	211.95
861.91	211.97
862.22	211.90
862.53	211.89
862.84	211.60
863.16	211.56
863.47	211.60
863.78	211.60
864.09	211.56
864.40	211.57
864.71	211.53
865.02	211.61
865.33	211.66
865.64	211.61
865.95	211.69
866.27	211.77
866.58	211.75
866.89	211.78
867.20	211.74
867.51	211.78
867.82	211.71
868.13	211.85
868.44	211.76
868.75	211.79
869.06	211.81
869.37	211.88
869.68	211.81
869.99	211.71
870.30	211.72
870.61	211.80
870.92	211.83
871.23	211.85
871.54	211.86
871.85	211.94
872.16	212.01
872.47	211.89
872.78	211.80
873.09	211.74
873.40	211.69
873.71	211.77
874.02	211.75
874.33	211.67
874.64	211.57
874.95	211.61
875.26	211.63
875.56	211.56
875.87	211.57
876.18	211.60
876.49	211.84
876.80	211.80
877.11	211.72
877.42	211.67
877.73	211.69
878.04	211.66
878.35	211.56
878.66	211.60
878.96	211.61
879.27	211.66
879.58	211.68
879.89	211.69
880.20	211.70
880.51	211.71
880.82	211.77
881.12	211.80
881.43	211.74
881.74	211.64
882.05	211.68
882.36	211.64
882.67	211.65
882.97	211.47
883.28	211.50
883.59	211.53
883.90	211.59
884.21	211.54
884.51	211.53
884.82	211.49
885.13	211.44
885.44	211.47
885.74	211.41
886.05	211.48
886.36	211.44
886.67	211.32
886.98	211.38
887.28	211.38
887.59	211.42
887.90	211.43
888.20	211.45
888.51	211.46
888.82	211.44
889.13	211.39
889.43	211.49
889.74	211.47
890.05	211.37
890.35	211.29
890.66	211.35
890.97	211.32
891.28	211.33
891.58	211.30
891.89	211.28
892.20	211.23
892.50	211.13
892.81	211.13
893.12	211.15
893.42	211.03
893.73	211.06
894.04	211.02
894.34	211.02
894.65	211.02
894.95	210.97
895.26	210.98
895.57	211.13
895.87	210.99
896.18	211.01
896.48	211.05
896.79	211.12
897.10	211.12
897.40	211.14
897.71	211.15
898.01	211.17
898.32	211.15
898.63	211.17
898.93	211.22
899.24	211.21
899.54	211.22
899.85	211.22
900.15	211.15
900.46	211.16
900.76	211.21
901.07	211.17
901.38	211.15
901.68	211.21
901.99	211.11
902.29	211.11
902.60	211.10
902.90	211.09
903.21	211.00
903.51	210.92
903.82	210.97
904.12	211.00
904.43	210.97
904.73	211.00
905.03	211.03
905.34	211.19
905.64	211.15
905.95	211.10
906.25	211.12
906.56	211.13
906.86	211.06
907.17	210.97
907.47	211.02
907.77	211.00
908.08	210.93
908.38	210.96
908.69	210.96
908.99	210.94
909.30	210.97
909.60	210.99
909.90	211.01
910.21	210.90
910.51	210.84
910.81	210.86
911.12	210.81
911.42	210.86
911.73	210.71
912.03	210.83
912.33	210.95
912.64	210.95
912.94	210.98
913.24	211.03
913.55	211.11
913.85	211.04
914.15	211.08
914.46	211.15
914.76	211.07
915.06	211.06
915.37	211.06
915.67	211.04
915.97	211.05
916.27	211.05
916.58	211.09
916.88	211.08
917.18	211.08
917.49	211.30
917.79	211.25
918.09	211.29
918.39	211.30
918.70	211.27
919.00	211.25
919.30	211.40
919.60	211.34
919.91	211.37
920.21	211.46
920.51	211.43
920.81	211.36
921.12	211.43
921.42	211.45
921.72	211.50
922.02	211.50
922.32	211.51
922.63	211.57
922.93	211.67
923.23	211.69
923.53	211.66
923.83	211.50
924.13	211.53
924.44	211.48
924.74	211.51
925.04	211.55
925.34	211.53
925.64	211.39
925.94	211.44
926.24	211.48
926.55	211.49
926.85	211.52
927.15	211.53
927.45	211.51
927.75	211.49
928.05	211.47
928.35	211.46
928.65	211.52
928.95	211.47
929.26	211.34
929.56	211.33
929.86	211.34
930.16	211.34
930.46	211.28
930.76	211.33
931.06	211.22
931.36	211.13
931.66	211.18
931.96	211.18
932.26	211.16
932.56	211.06
932.86	211.00
933.16	211.01
933.46	211.03
933.76	211.04
934.06	211.06
934.36	211.17
934.66	211.19
934.96	211.11
935.26	211.09
935.56	211.13
935.86	211.06
936.16	211.06
936.46	211.02
936.76	211.05
937.06	210.99
937.36	211.02
937.66	211.03
937.96	211.02
938.26	211.03
938.56	211.03
938.86	211.00
939.16	211.05
939.46	211.06
939.76	211.06
940.06	211.03
940.35	211.01
940.65	210.87
940.95	210.83
941.25	210.81
941.55	210.87
941.85	210.88
942.15	210.98
942.45	211.01
942.75	211.05
943.04	211.04
943.34	211.06
943.64	211.04
943.94	210.97
944.24	210.99
944.54	210.98
944.84	210.92
945.13	210.94
945.43	210.88
945.73	210.89
946.03	210.86
946.33	210.87
946.62	210.86
946.92	210.83
947.22	210.87
947.52	210.92
947.82	210.87
948.11	210.84
948.41	210.76
948.71	210.75
949.01	210.73
949.31	210.75
949.60	210.71
949.90	210.74
950.20	210.78
950.50	210.71
950.79	210.70
951.09	210.80
951.39	210.77
951.69	210.80
951.98	210.76
952.28	210.79
952.58	210.77
952.87	210.75
953.17	210.83
953.47	210.82
953.76	210.80
954.06	210.76
954.36	210.77
954.66	210.80
954.95	210.83
955.25	210.85
955.55	210.82
955.84	210.80
956.14	210.78
956.44	210.76
956.73	210.75
957.03	210.71
957.32	210.73
957.62	210.75
957.92	210.73
958.21	210.79
958.51	210.97
958.81	211.01
959.10	211.01
959.40	211.05
959.69	211.05
959.99	211.06
960.29	211.12
960.58	211.14
960.88	211.14
961.17	211.10
961.47	211.07
961.76	211.06
962.06	211.11
962.36	211.11
962.65	211.10
962.95	211.10
963.24	211.17
963.54	211.06
963.83	211.07
964.13	211.15
964.42	211.08
964.72	210.99
965.01	210.96
965.31	211.02
965.60	210.96
965.90	211.02
966.19	211.01
966.49	210.98
966.78	210.95
967.08	211.01
967.37	211.01
967.67	210.97
967.96	211.01
968.26	211.01
968.55	210.97
968.85	211.05
969.14	211.00
969.43	210.93
969.73	210.96
970.02	210.97
970.32	210.89
970.61	210.89
970.91	210.79
971.20	210.76
971.49	210.73
971.79	210.67
972.08	210.55
972.38	210.58
972.67	210.58
972.96	210.57
973.26	210.50
973.55	210.59
973.85	210.68
974.14	210.67
974.43	210.65
974.73	210.68
975.02	210.63
975.31	210.66
975.61	210.74
975.90	210.75
976.19	210.74
976.49	210.77
976.78	210.78
977.07	210.73
977.37	210.74
977.66	210.77
977.95	210.79
978.24	210.83
978.54	210.84
978.83	210.82
979.12	210.79
979.42	210.82
979.71	210.73
980.00	210.67
980.29	210.66
980.59	210.72
980.88	210.76
981.17	210.77
981.46	210.82
981.76	210.75
982.05	210.79
982.34	210.80
982.63	210.71
982.93	210.75
983.22	210.86
983.51	210.87
983.80	210.89
984.09	210.94
984.39	210.95
984.68	210.93
984.97	210.99
985.26	211.01
985.55	211.00
985.85	210.99
986.14	211.04
986.43	211.10
986.72	211.03
987.01	210.96
987.30	210.95
987.59	210.92
987.89	210.95
988.18	210.91
988.47	210.93
988.76	211.03
989.05	211.03
989.34	210.93
989.63	210.97
989.92	210.92
990.22	210.88
990.51	210.91
990.80	210.84
991.09	210.83
991.38	210.93
991.67	210.89
991.96	210.91
992.25	210.85
992.54	210.81
992.83	210.81
993.12	210.82
993.41	210.81
993.70	210.90
993.99	210.93
994.28	210.93
994.58	210.92
994.87	210.84
995.16	210.79
995.45	210.85
995.74	210.83
996.03	210.90
996.32	210.89
996.61	210.94
996.90	211.04
997.19	211.03
997.48	210.90
997.77	210.95
998.06	210.95
998.34	210.97
998.63	210.91
998.92	210.88
999.21	210.90
999.50	210.88
999.79	210.80
1000.08	210.78
1000.37	210.79
1000.66	210.73
1000.95	210.74
1001.24	210.79
1001.53	210.77
1001.82	210.78
1002.11	210.71
1002.40	210.75
1002.68	210.75
1002.97	210.85
1003.26	210.86
1003.55	210.92
1003.84	210.90
1004.13	210.92
1004.42	210.93
1004.71	210.99
1004.99	211.05
1005.28	211.08
1005.57	211.12
1005.86	211.11
1006.15	211.11
1006.44	211.10
1006.72	211.17
1007.01	211.14
1007.30	211.10
1007.59	211.12
1007.88	211.08
1008.17	211.06
1008.45	210.95
1008.74	210.91
1009.03	210.88
1009.32	210.85
1009.60	210.85
1009.89	210.78
1010.18	210.77
1010.47	210.74
1010.76	210.74
1011.04	210.70
1011.33	210.91
1011.62	210.90
1011.91	210.94
1012.19	211.00
1012.48	211.01
1012.77	211.00
1013.05	211.11
1013.34	211.13
1013.63	211.07
1013.92	211.12
1014.20	211.15
1014.49	211.28
1014.78	211.30
1015.06	211.20
1015.35	211.27
1015.64	211.29
1015.92	211.41
1016.21	211.40
1016.50	211.44
1016.78	211.42
1017.07	211.47
1017.36	211.25
1017.64	211.28
1017.93	211.26
1018.22	211.21
1018.50	211.17
1018.79	211.15
1019.08	211.10
1019.36	211.14
1019.65	211.12
1019.93	211.20
1020.22	211.23
1020.51	211.28
1020.79	211.23
1021.08	211.05
1021.36	210.05
1021.65	210.50
1021.94	211.10
1022.22	211.60
1022.51	209.85
1022.79	212.90
1023.08	211.40
1023.36	213.10
1023.65	210.70
>>>>>End Processed Spectral Data<<<<<
