SpectraSuite Data File
++++++++++++++++++++++++++++++++++++
Date: Mon Feb 25 17:31:12 EST 2013
User: group
Dark Spectrum Present: No
Reference Spectrum Present: No
Number of Sampled Component Spectra: 1
Spectrometers: USB2E7196
Integration Time (usec): 52000 (USB2E7196)
Spectra Averaged: 20 (USB2E7196)
Boxcar Smoothing: 10 (USB2E7196)
Correct for Electrical Dark: No (USB2E7196)
Strobe/Lamp Enabled: No (USB2E7196)
Correct for Detector Non-linearity: No (USB2E7196)
Correct for Stray Light: No (USB2E7196)
Number of Pixels in Processed Spectrum: 2048
>>>>>Begin Processed Spectral Data<<<<<
339.09	0.00
339.48	199.75
339.86	200.20
340.24	201.10
340.63	202.80
341.01	207.70
341.39	205.65
341.78	207.20
342.16	209.20
342.54	209.65
342.93	198.14
343.31	208.12
343.69	208.65
344.07	209.10
344.46	209.55
344.84	209.95
345.22	210.11
345.60	210.42
345.99	210.54
346.37	210.60
346.75	210.65
347.13	210.73
347.52	210.74
347.90	210.86
348.28	210.88
348.66	210.98
349.05	210.89
349.43	210.94
349.81	211.03
350.19	211.03
350.57	211.04
350.96	211.23
351.34	211.33
351.72	211.41
352.10	211.51
352.48	211.57
352.87	211.61
353.25	211.69
353.63	211.66
354.01	211.77
354.39	211.95
354.77	212.03
355.15	212.13
355.54	212.21
355.92	212.17
356.30	212.31
356.68	212.51
357.06	212.59
357.44	212.65
357.82	212.73
358.20	212.85
358.58	212.96
358.97	212.97
359.35	212.99
359.73	213.12
360.11	213.19
360.49	213.24
360.87	213.29
361.25	213.31
361.63	213.43
362.01	213.51
362.39	213.47
362.77	213.57
363.15	213.65
363.53	213.66
363.91	213.75
364.29	213.69
364.67	213.55
365.05	213.59
365.43	213.62
365.81	213.68
366.19	213.79
366.57	213.82
366.95	213.88
367.33	213.93
367.71	213.88
368.09	213.90
368.47	213.95
368.85	214.03
369.23	214.05
369.61	214.00
369.99	214.10
370.37	214.13
370.75	214.15
371.13	214.08
371.51	214.00
371.89	214.01
372.27	214.11
372.65	214.06
373.03	214.08
373.41	214.04
373.78	214.01
374.16	213.85
374.54	213.86
374.92	213.85
375.30	213.85
375.68	213.76
376.06	213.78
376.44	213.71
376.82	213.57
377.19	213.57
377.57	213.45
377.95	213.32
378.33	213.22
378.71	213.13
379.09	213.12
379.47	213.11
379.84	213.03
380.22	212.89
380.60	212.83
380.98	212.74
381.36	212.75
381.73	212.66
382.11	212.70
382.49	212.65
382.87	212.52
383.25	212.48
383.62	212.72
384.00	212.60
384.38	212.58
384.76	212.68
385.13	212.70
385.51	212.73
385.89	212.62
386.27	212.61
386.64	212.60
387.02	212.52
387.40	212.49
387.78	212.52
388.15	212.48
388.53	212.56
388.91	212.52
389.29	212.48
389.66	212.52
390.04	212.48
390.42	212.41
390.79	212.42
391.17	212.29
391.55	211.99
391.92	212.04
392.30	212.05
392.68	211.93
393.05	211.88
393.43	211.86
393.81	211.89
394.18	211.86
394.56	211.82
394.94	211.91
395.31	211.91
395.69	211.95
396.06	212.00
396.44	211.90
396.82	211.92
397.19	211.93
397.57	211.86
397.95	211.81
398.32	211.76
398.70	211.81
399.07	211.99
399.45	212.03
399.82	211.98
400.20	211.93
400.58	212.00
400.95	211.94
401.33	212.06
401.70	212.24
402.08	212.27
402.45	212.42
402.83	212.51
403.20	212.57
403.58	212.57
403.95	212.74
404.33	212.87
404.71	212.93
405.08	213.13
405.46	213.20
405.83	213.39
406.21	213.51
406.58	213.60
406.96	213.63
407.33	213.82
407.70	214.04
408.08	214.39
408.45	214.61
408.83	214.84
409.20	215.01
409.58	215.19
409.95	215.46
410.33	215.69
410.70	215.90
411.08	216.30
411.45	216.64
411.82	216.92
412.20	217.35
412.57	217.91
412.95	218.24
413.32	218.87
413.69	219.46
414.07	220.02
414.44	220.69
414.82	221.36
415.19	222.09
415.56	222.86
415.94	223.54
416.31	224.42
416.68	225.38
417.06	226.31
417.43	227.21
417.81	228.34
418.18	229.36
418.55	230.57
418.93	231.78
419.30	233.06
419.67	234.47
420.04	235.88
420.42	237.38
420.79	239.09
421.16	240.79
421.54	242.55
421.91	244.40
422.28	246.31
422.66	248.33
423.03	250.38
423.40	252.35
423.77	254.55
424.15	256.71
424.52	258.98
424.89	261.56
425.26	264.05
425.64	266.40
426.01	269.03
426.38	271.62
426.75	274.28
427.13	277.10
427.50	279.93
427.87	282.91
428.24	285.84
428.61	288.76
428.99	291.92
429.36	295.33
429.73	298.68
430.10	302.02
430.47	305.51
430.85	308.99
431.22	312.85
431.59	317.00
431.96	320.84
432.33	325.12
432.70	329.16
433.08	333.97
433.45	338.45
433.82	343.04
434.19	348.07
434.56	353.00
434.93	357.69
435.30	362.33
435.68	367.55
436.05	372.74
436.42	377.72
436.79	382.26
437.16	387.12
437.53	392.44
437.90	397.65
438.27	402.67
438.64	407.98
439.01	412.87
439.38	417.07
439.75	421.31
440.13	426.05
440.50	430.58
440.87	434.13
441.24	437.94
441.61	442.09
441.98	445.24
442.35	448.70
442.72	452.26
443.09	455.82
443.46	457.87
443.83	459.17
444.20	460.25
444.57	462.06
444.94	462.87
445.31	463.63
445.68	464.37
446.05	464.65
446.42	463.98
446.79	463.24
447.16	462.50
447.53	461.86
447.90	459.91
448.27	457.82
448.64	455.09
449.01	453.03
449.37	449.27
449.74	445.73
450.11	441.85
450.48	437.51
450.85	433.00
451.22	429.08
451.59	425.37
451.96	421.90
452.33	417.23
452.70	413.01
453.07	407.96
453.43	402.79
453.80	397.80
454.17	393.08
454.54	388.56
454.91	383.75
455.28	379.11
455.65	374.73
456.02	370.53
456.38	366.83
456.75	362.30
457.12	358.62
457.49	354.76
457.86	351.06
458.23	347.86
458.59	344.47
458.96	341.04
459.33	337.94
459.70	334.97
460.07	332.45
460.43	329.65
460.80	327.03
461.17	324.68
461.54	322.38
461.91	320.08
462.27	317.82
462.64	315.86
463.01	313.70
463.38	311.63
463.74	309.48
464.11	307.60
464.48	305.95
464.85	304.27
465.21	303.06
465.58	301.54
465.95	299.83
466.32	298.39
466.68	296.95
467.05	295.64
467.42	294.22
467.78	292.79
468.15	291.43
468.52	290.47
468.88	289.19
469.25	287.95
469.62	287.07
469.98	286.06
470.35	285.10
470.72	284.23
471.08	283.17
471.45	282.39
471.82	281.60
472.18	280.74
472.55	280.09
472.92	279.41
473.28	278.90
473.65	278.38
474.02	277.80
474.38	277.42
474.75	277.05
475.11	276.67
475.48	276.45
475.85	276.23
476.21	275.95
476.58	275.85
476.94	275.84
477.31	275.84
477.67	275.82
478.04	275.91
478.41	276.04
478.77	276.43
479.14	276.48
479.50	276.74
479.87	277.18
480.23	277.54
480.60	277.90
480.96	278.30
481.33	278.93
481.69	279.57
482.06	280.18
482.42	280.83
482.79	281.61
483.15	282.47
483.52	283.48
483.88	284.47
484.25	285.53
484.61	286.64
484.98	287.73
485.34	289.04
485.71	290.37
486.07	291.68
486.44	292.96
486.80	294.57
487.17	296.22
487.53	297.85
487.90	299.71
488.26	301.73
488.62	303.85
488.99	305.89
489.35	308.05
489.72	310.26
490.08	312.67
490.44	315.21
490.81	317.89
491.17	320.56
491.54	323.39
491.90	326.36
492.26	329.59
492.63	332.88
492.99	336.30
493.36	340.00
493.72	343.90
494.08	347.88
494.45	352.09
494.81	356.51
495.17	361.11
495.54	365.87
495.90	370.90
496.26	376.01
496.63	381.55
496.99	387.24
497.35	393.29
497.72	399.50
498.08	405.88
498.44	412.61
498.80	419.76
499.17	427.18
499.53	434.85
499.89	442.70
500.26	450.65
500.62	458.96
500.98	467.61
501.34	476.71
501.71	486.07
502.07	495.74
502.43	505.90
502.79	516.01
503.16	526.73
503.52	537.45
503.88	548.60
504.24	559.94
504.60	571.66
504.97	583.92
505.33	596.38
505.69	609.60
506.05	622.81
506.41	636.30
506.78	649.98
507.14	664.04
507.50	678.39
507.86	693.51
508.22	708.95
508.59	724.54
508.95	740.29
509.31	756.42
509.67	773.06
510.03	789.69
510.39	807.22
510.75	824.85
511.12	842.82
511.48	860.98
511.84	879.65
512.20	898.25
512.56	917.33
512.92	936.65
513.28	956.01
513.64	975.60
514.00	995.40
514.37	1015.80
514.73	1036.47
515.09	1057.32
515.45	1077.84
515.81	1098.57
516.17	1119.57
516.53	1140.90
516.89	1162.48
517.25	1183.80
517.61	1205.40
517.97	1226.50
518.33	1247.66
518.69	1269.24
519.05	1291.27
519.41	1313.03
519.77	1335.37
520.13	1357.22
520.49	1378.88
520.85	1401.24
521.21	1423.27
521.57	1445.77
521.93	1467.31
522.29	1489.79
522.65	1511.86
523.01	1534.14
523.37	1555.94
523.73	1577.98
524.09	1599.76
524.45	1621.84
524.81	1643.43
525.17	1665.54
525.53	1687.90
525.89	1710.05
526.25	1731.62
526.61	1752.43
526.97	1774.12
527.33	1794.88
527.68	1816.10
528.04	1837.46
528.40	1857.53
528.76	1878.16
529.12	1898.33
529.48	1919.60
529.84	1939.60
530.20	1959.71
530.56	1979.76
530.91	2000.39
531.27	2020.68
531.63	2040.33
531.99	2059.52
532.35	2078.78
532.71	2097.40
533.07	2116.61
533.42	2134.85
533.78	2153.47
534.14	2171.63
534.50	2188.20
534.86	2206.38
535.21	2222.82
535.57	2239.75
535.93	2256.85
536.29	2273.37
536.65	2290.10
537.00	2305.07
537.36	2319.99
537.72	2334.98
538.08	2349.99
538.44	2364.83
538.79	2379.50
539.15	2393.80
539.51	2408.08
539.87	2423.12
540.22	2437.32
540.58	2451.74
540.94	2465.54
541.29	2478.34
541.65	2490.33
542.01	2503.48
542.37	2514.96
542.72	2526.65
543.08	2537.54
543.44	2548.69
543.79	2558.50
544.15	2568.27
544.51	2579.24
544.87	2589.91
545.22	2598.86
545.58	2607.39
545.94	2614.22
546.29	2620.45
546.65	2626.91
547.01	2632.84
547.36	2638.14
547.72	2643.29
548.07	2646.96
548.43	2650.45
548.79	2653.78
549.14	2658.24
549.50	2661.89
549.86	2665.62
550.21	2669.45
550.57	2673.32
550.92	2675.83
551.28	2678.39
551.64	2680.67
551.99	2683.07
552.35	2684.07
552.70	2686.46
553.06	2688.50
553.41	2691.33
553.77	2694.09
554.13	2695.90
554.48	2697.73
554.84	2699.12
555.19	2699.54
555.55	2699.70
555.90	2700.46
556.26	2701.09
556.61	2700.95
556.97	2699.60
557.32	2698.72
557.68	2696.96
558.03	2695.19
558.39	2693.54
558.74	2692.93
559.10	2691.53
559.45	2689.20
559.81	2688.19
560.16	2685.44
560.52	2682.86
560.87	2679.96
561.23	2676.10
561.58	2673.92
561.94	2670.67
562.29	2666.59
562.64	2664.02
563.00	2661.53
563.35	2659.14
563.71	2657.35
564.06	2655.17
564.42	2653.16
564.77	2650.31
565.12	2648.42
565.48	2645.37
565.83	2642.29
566.19	2638.84
566.54	2634.26
566.89	2630.25
567.25	2626.08
567.60	2622.76
567.96	2619.16
568.31	2615.57
568.66	2611.79
569.02	2606.91
569.37	2601.73
569.72	2598.06
570.08	2593.09
570.43	2587.44
570.78	2581.58
571.14	2574.97
571.49	2568.11
571.84	2562.34
572.20	2555.93
572.55	2549.60
572.90	2542.90
573.26	2535.78
573.61	2528.88
573.96	2523.03
574.31	2515.51
574.67	2507.46
575.02	2499.23
575.37	2490.53
575.72	2481.32
576.08	2473.70
576.43	2465.31
576.78	2457.54
577.13	2449.51
577.49	2441.43
577.84	2433.73
578.19	2426.08
578.54	2418.75
578.90	2412.35
579.25	2403.95
579.60	2395.27
579.95	2385.94
580.30	2377.90
580.66	2369.94
581.01	2360.98
581.36	2351.55
581.71	2343.26
582.06	2335.29
582.42	2327.24
582.77	2318.55
583.12	2309.96
583.47	2301.23
583.82	2293.13
584.17	2283.93
584.53	2275.04
584.88	2266.33
585.23	2257.32
585.58	2248.20
585.93	2238.67
586.28	2229.15
586.63	2220.36
586.98	2212.02
587.34	2203.78
587.69	2194.78
588.04	2186.20
588.39	2177.95
588.74	2169.03
589.09	2160.45
589.44	2150.90
589.79	2142.12
590.14	2134.40
590.49	2126.25
590.84	2117.51
591.19	2109.35
591.54	2100.97
591.89	2090.88
592.25	2081.59
592.60	2072.43
592.95	2063.03
593.30	2053.79
593.65	2044.01
594.00	2034.38
594.35	2026.28
594.70	2017.56
595.05	2009.15
595.40	2000.47
595.75	1991.34
596.10	1983.22
596.45	1974.79
596.80	1967.56
597.15	1959.54
597.50	1950.47
597.85	1942.31
598.19	1934.02
598.54	1925.60
598.89	1918.04
599.24	1911.45
599.59	1904.46
599.94	1897.66
600.29	1890.35
600.64	1882.74
600.99	1874.76
601.34	1868.07
601.69	1859.39
602.04	1851.05
602.39	1843.15
602.74	1835.19
603.08	1828.41
603.43	1821.65
603.78	1813.60
604.13	1805.73
604.48	1797.95
604.83	1791.31
605.18	1784.39
605.53	1777.01
605.87	1769.53
606.22	1762.59
606.57	1754.86
606.92	1747.00
607.27	1739.04
607.62	1731.67
607.96	1724.87
608.31	1718.95
608.66	1710.85
609.01	1703.53
609.36	1696.20
609.70	1688.20
610.05	1680.88
610.40	1672.95
610.75	1664.45
611.10	1657.32
611.44	1648.02
611.79	1639.24
612.14	1629.96
612.49	1620.44
612.83	1611.63
613.18	1601.90
613.53	1592.41
613.88	1582.90
614.22	1574.04
614.57	1564.91
614.92	1555.76
615.27	1546.39
615.61	1536.68
615.96	1528.20
616.31	1519.88
616.65	1512.16
617.00	1504.15
617.35	1495.67
617.70	1486.84
618.04	1478.24
618.39	1469.12
618.74	1461.25
619.08	1452.51
619.43	1444.48
619.78	1436.87
620.12	1428.81
620.47	1421.45
620.82	1413.26
621.16	1405.22
621.51	1396.94
621.85	1388.75
622.20	1380.49
622.55	1372.20
622.89	1364.15
623.24	1356.38
623.59	1347.76
623.93	1338.97
624.28	1330.65
624.62	1322.80
624.97	1314.80
625.32	1306.72
625.66	1299.48
626.01	1292.26
626.35	1285.39
626.70	1277.85
627.04	1270.48
627.39	1263.29
627.73	1255.88
628.08	1249.05
628.43	1242.05
628.77	1234.99
629.12	1227.87
629.46	1221.31
629.81	1214.61
630.15	1207.39
630.50	1200.03
630.84	1192.99
631.19	1186.15
631.53	1179.63
631.88	1171.86
632.22	1164.60
632.57	1157.92
632.91	1150.14
633.26	1142.53
633.60	1135.43
633.95	1128.80
634.29	1121.52
634.64	1114.80
634.98	1107.79
635.32	1100.87
635.67	1094.36
636.01	1087.57
636.36	1080.77
636.70	1074.32
637.05	1067.61
637.39	1061.24
637.73	1054.97
638.08	1049.24
638.42	1043.23
638.77	1036.72
639.11	1030.78
639.45	1024.91
639.80	1018.59
640.14	1012.53
640.49	1006.62
640.83	1000.64
641.17	994.21
641.52	988.25
641.86	981.72
642.20	975.74
642.55	968.98
642.89	962.57
643.23	956.20
643.58	950.59
643.92	944.25
644.26	938.19
644.61	932.28
644.95	926.22
645.29	919.99
645.64	913.58
645.98	907.52
646.32	901.75
646.66	895.64
647.01	889.75
647.35	884.00
647.69	877.77
648.04	871.88
648.38	866.15
648.72	860.35
649.06	854.54
649.41	848.72
649.75	843.25
650.09	837.43
650.43	831.81
650.78	825.52
651.12	819.48
651.46	813.75
651.80	808.11
652.14	802.25
652.49	796.49
652.83	790.77
653.17	784.88
653.51	779.03
653.85	773.54
654.20	767.76
654.54	761.95
654.88	756.54
655.22	750.58
655.56	744.78
655.90	738.97
656.25	733.17
656.59	727.64
656.93	722.56
657.27	717.40
657.61	711.91
657.95	707.02
658.29	701.99
658.64	696.93
658.98	691.73
659.32	686.35
659.66	681.17
660.00	676.06
660.34	670.75
660.68	665.61
661.02	660.47
661.36	655.80
661.70	651.04
662.05	646.37
662.39	642.03
662.73	637.72
663.07	633.50
663.41	629.33
663.75	624.84
664.09	619.96
664.43	615.44
664.77	611.20
665.11	606.68
665.45	602.40
665.79	597.99
666.13	593.64
666.47	589.54
666.81	585.39
667.15	581.49
667.49	577.87
667.83	573.94
668.17	570.10
668.51	566.40
668.85	562.81
669.19	559.21
669.53	555.55
669.87	551.57
670.21	547.90
670.55	544.11
670.89	540.72
671.23	537.56
671.57	534.18
671.91	530.75
672.25	527.19
672.58	523.63
672.92	520.35
673.26	517.14
673.60	513.97
673.94	510.80
674.28	507.54
674.62	504.37
674.96	501.28
675.30	498.30
675.64	494.96
675.97	491.83
676.31	488.95
676.65	486.03
676.99	483.34
677.33	480.38
677.67	477.59
678.01	474.48
678.34	471.47
678.68	468.64
679.02	465.71
679.36	463.05
679.70	460.34
680.04	457.45
680.37	454.61
680.71	452.00
681.05	449.28
681.39	446.69
681.73	444.04
682.06	441.66
682.40	439.32
682.74	436.80
683.08	434.28
683.42	431.57
683.75	428.97
684.09	426.40
684.43	423.86
684.77	421.30
685.10	418.90
685.44	416.41
685.78	413.87
686.12	411.57
686.45	409.30
686.79	407.09
687.13	404.97
687.46	402.76
687.80	400.53
688.14	398.30
688.48	396.13
688.81	393.92
689.15	391.65
689.49	389.23
689.82	387.11
690.16	384.84
690.50	382.64
690.83	380.38
691.17	378.23
691.51	376.05
691.84	373.95
692.18	371.91
692.52	370.03
692.85	368.16
693.19	366.29
693.52	364.30
693.86	362.31
694.20	360.40
694.53	358.66
694.87	356.66
695.21	354.75
695.54	352.84
695.88	350.91
696.21	349.02
696.55	347.32
696.88	345.70
697.22	343.99
697.56	342.39
697.89	340.83
698.23	339.24
698.56	337.68
698.90	336.33
699.23	334.82
699.57	333.20
699.90	331.70
700.24	330.12
700.58	328.61
700.91	327.14
701.25	325.74
701.58	324.24
701.92	322.85
702.25	321.55
702.59	320.15
702.92	318.99
703.26	317.72
703.59	316.40
703.93	315.19
704.26	314.07
704.60	312.75
704.93	311.46
705.26	310.17
705.60	308.99
705.93	307.65
706.27	306.45
706.60	305.37
706.94	304.24
707.27	303.13
707.61	301.99
707.94	300.93
708.27	299.84
708.61	298.65
708.94	297.57
709.28	296.38
709.61	295.35
709.94	294.25
710.28	293.15
710.61	292.17
710.95	290.95
711.28	289.95
711.61	289.01
711.95	288.07
712.28	287.11
712.61	286.11
712.95	285.25
713.28	284.41
713.61	283.45
713.95	282.51
714.28	281.57
714.61	280.69
714.95	279.80
715.28	278.79
715.61	277.94
715.95	277.08
716.28	276.23
716.61	275.38
716.95	274.45
717.28	273.72
717.61	272.91
717.94	272.16
718.28	271.30
718.61	270.54
718.94	269.76
719.27	269.10
719.61	268.43
719.94	267.73
720.27	266.89
720.60	266.20
720.94	265.50
721.27	264.89
721.60	264.26
721.93	263.59
722.27	263.01
722.60	262.46
722.93	261.89
723.26	261.37
723.59	260.81
723.93	260.33
724.26	259.69
724.59	259.14
724.92	258.60
725.25	258.17
725.59	257.64
725.92	257.23
726.25	256.69
726.58	256.22
726.91	255.73
727.24	255.30
727.57	254.79
727.91	254.26
728.24	253.80
728.57	253.32
728.90	252.82
729.23	252.39
729.56	251.95
729.89	251.51
730.22	250.98
730.55	250.47
730.89	250.04
731.22	249.61
731.55	249.07
731.88	248.64
732.21	248.14
732.54	247.72
732.87	247.26
733.20	246.87
733.53	246.33
733.86	245.83
734.19	245.30
734.52	244.96
734.85	244.73
735.18	244.32
735.51	243.93
735.84	243.64
736.17	243.29
736.50	242.88
736.83	242.73
737.16	242.41
737.49	242.05
737.82	241.60
738.15	241.27
738.48	240.98
738.81	240.62
739.14	240.29
739.47	239.87
739.80	239.45
740.13	239.07
740.46	238.76
740.79	238.35
741.12	238.12
741.45	237.79
741.78	237.36
742.11	237.00
742.44	236.72
742.77	236.37
743.10	236.05
743.43	235.74
743.75	235.21
744.08	235.10
744.41	234.86
744.74	234.55
745.07	234.18
745.40	233.90
745.73	233.67
746.06	233.31
746.39	233.11
746.71	232.84
747.04	232.55
747.37	232.32
747.70	232.16
748.03	231.85
748.36	231.52
748.68	231.26
749.01	231.03
749.34	230.72
749.67	230.52
750.00	230.29
750.33	230.14
750.65	229.95
750.98	229.52
751.31	229.23
751.64	229.03
751.97	228.94
752.29	228.66
752.62	228.37
752.95	228.23
753.28	227.97
753.60	227.84
753.93	227.67
754.26	227.43
754.59	227.22
754.91	227.04
755.24	226.89
755.57	226.68
755.90	226.47
756.22	226.31
756.55	226.13
756.88	225.88
757.20	225.60
757.53	225.36
757.86	225.17
758.19	225.06
758.51	224.85
758.84	224.59
759.17	224.46
759.49	224.34
759.82	224.21
760.15	224.05
760.47	223.83
760.80	223.68
761.13	223.52
761.45	223.34
761.78	223.17
762.11	223.02
762.43	222.94
762.76	222.85
763.08	222.74
763.41	222.58
763.74	222.55
764.06	222.42
764.39	222.30
764.71	222.16
765.04	221.98
765.37	221.98
765.69	221.87
766.02	221.79
766.34	221.66
766.67	221.44
767.00	221.42
767.32	221.41
767.65	221.41
767.97	221.36
768.30	221.14
768.62	221.16
768.95	221.01
769.27	220.82
769.60	220.74
769.92	220.62
770.25	220.51
770.57	220.38
770.90	220.31
771.22	220.14
771.55	220.07
771.87	219.98
772.20	219.89
772.52	219.95
772.85	220.04
773.17	219.98
773.50	220.00
773.82	219.82
774.15	219.71
774.47	219.50
774.80	219.39
775.12	219.47
775.45	219.31
775.77	219.32
776.09	219.35
776.42	219.18
776.74	219.17
777.07	219.12
777.39	219.03
777.72	218.96
778.04	218.93
778.36	218.87
778.69	218.87
779.01	218.71
779.33	218.49
779.66	218.15
779.98	218.08
780.31	217.94
780.63	217.96
780.95	217.93
781.28	217.87
781.60	217.78
781.92	217.65
782.25	217.55
782.57	217.44
782.89	217.35
783.22	217.35
783.54	217.24
783.86	217.11
784.19	216.94
784.51	216.87
784.83	216.81
785.16	216.75
785.48	216.64
785.80	216.56
786.12	216.50
786.45	216.41
786.77	216.36
787.09	216.34
787.42	216.21
787.74	216.11
788.06	215.99
788.38	215.95
788.71	215.94
789.03	215.91
789.35	215.90
789.67	215.85
789.99	215.80
790.32	215.66
790.64	215.75
790.96	215.85
791.28	215.76
791.61	215.64
791.93	215.63
792.25	215.61
792.57	215.72
792.89	215.65
793.21	215.66
793.54	215.64
793.86	215.55
794.18	215.45
794.50	215.35
794.82	215.36
795.14	215.33
795.47	215.24
795.79	215.22
796.11	215.06
796.43	214.92
796.75	214.87
797.07	214.81
797.39	214.65
797.71	214.55
798.04	214.56
798.36	214.60
798.68	214.51
799.00	214.49
799.32	214.37
799.64	214.39
799.96	214.26
800.28	214.16
800.60	214.15
800.92	214.17
801.24	214.19
801.56	214.16
801.89	214.09
802.21	214.10
802.53	214.00
802.85	214.00
803.17	214.13
803.49	214.09
803.81	214.06
804.13	214.08
804.45	214.01
804.77	214.06
805.09	214.07
805.41	214.05
805.73	214.00
806.05	213.98
806.37	213.91
806.69	214.01
807.01	213.98
807.33	213.98
807.65	213.97
807.97	213.99
808.28	213.92
808.60	213.98
808.92	213.97
809.24	214.07
809.56	214.06
809.88	213.91
810.20	213.86
810.52	213.93
810.84	213.85
811.16	213.82
811.48	213.71
811.80	213.70
812.12	213.70
812.43	213.66
812.75	213.65
813.07	213.61
813.39	213.61
813.71	213.53
814.03	213.45
814.35	213.37
814.67	213.22
814.98	213.22
815.30	213.10
815.62	213.01
815.94	212.92
816.26	212.91
816.58	212.84
816.89	212.82
817.21	212.72
817.53	212.73
817.85	212.73
818.17	212.76
818.48	212.73
818.80	212.77
819.12	212.74
819.44	212.66
819.76	212.72
820.07	212.67
820.39	212.70
820.71	212.71
821.03	212.69
821.34	212.68
821.66	212.64
821.98	212.66
822.30	212.67
822.61	212.71
822.93	212.70
823.25	212.75
823.57	212.76
823.88	212.85
824.20	212.81
824.52	212.80
824.83	212.77
825.15	212.69
825.47	212.62
825.79	212.63
826.10	212.64
826.42	212.59
826.74	212.57
827.05	212.54
827.37	212.58
827.69	212.60
828.00	212.62
828.32	212.71
828.64	212.76
828.95	212.81
829.27	212.79
829.58	212.74
829.90	212.74
830.22	212.81
830.53	212.79
830.85	212.73
831.17	212.70
831.48	212.68
831.80	212.65
832.11	212.61
832.43	212.58
832.75	212.54
833.06	212.61
833.38	212.63
833.69	212.59
834.01	212.55
834.32	212.55
834.64	212.56
834.96	212.50
835.27	212.44
835.59	212.42
835.90	212.36
836.22	212.40
836.53	212.28
836.85	212.15
837.16	212.25
837.48	212.32
837.79	212.39
838.11	212.29
838.42	212.28
838.74	212.29
839.05	212.26
839.37	212.22
839.68	212.10
840.00	212.08
840.31	212.13
840.63	212.13
840.94	212.05
841.26	212.01
841.57	211.96
841.88	212.00
842.20	211.94
842.51	211.93
842.83	211.88
843.14	212.12
843.46	212.18
843.77	212.06
844.08	212.06
844.40	212.00
844.71	211.98
845.03	211.92
845.34	211.86
845.65	211.81
845.97	211.85
846.28	211.86
846.60	211.82
846.91	211.82
847.22	211.75
847.54	211.85
847.85	211.81
848.16	211.79
848.48	211.75
848.79	211.78
849.10	211.73
849.42	211.71
849.73	211.50
850.04	211.50
850.36	211.35
850.67	211.33
850.98	211.30
851.30	211.40
851.61	211.47
851.92	211.48
852.23	211.56
852.55	211.53
852.86	211.53
853.17	211.50
853.49	211.46
853.80	211.51
854.11	211.47
854.42	211.51
854.74	211.49
855.05	211.48
855.36	211.45
855.67	211.53
855.99	211.61
856.30	211.91
856.61	211.90
856.92	211.98
857.23	212.00
857.55	211.97
857.86	211.90
858.17	211.93
858.48	211.93
858.79	211.93
859.11	211.92
859.42	211.95
859.73	211.95
860.04	212.04
860.35	212.04
860.66	212.04
860.98	212.01
861.29	212.05
861.60	211.95
861.91	211.98
862.22	211.95
862.53	211.90
862.84	211.60
863.16	211.64
863.47	211.55
863.78	211.49
864.09	211.51
864.40	211.58
864.71	211.62
865.02	211.61
865.33	211.56
865.64	211.55
865.95	211.53
866.27	211.64
866.58	211.58
866.89	211.55
867.20	211.53
867.51	211.55
867.82	211.55
868.13	211.69
868.44	211.67
868.75	211.62
869.06	211.55
869.37	211.58
869.68	211.51
869.99	211.59
870.30	211.60
870.61	211.59
870.92	211.57
871.23	211.54
871.54	211.58
871.85	211.72
872.16	211.76
872.47	211.72
872.78	211.62
873.09	211.68
873.40	211.60
873.71	211.62
874.02	211.64
874.33	211.61
874.64	211.49
874.95	211.52
875.26	211.52
875.56	211.54
875.87	211.52
876.18	211.46
876.49	211.59
876.80	211.55
877.11	211.59
877.42	211.56
877.73	211.52
878.04	211.54
878.35	211.46
878.66	211.48
878.96	211.44
879.27	211.45
879.58	211.34
879.89	211.35
880.20	211.39
880.51	211.39
880.82	211.41
881.12	211.49
881.43	211.41
881.74	211.40
882.05	211.44
882.36	211.45
882.67	211.46
882.97	211.38
883.28	211.35
883.59	211.32
883.90	211.30
884.21	211.33
884.51	211.23
884.82	211.21
885.13	211.11
885.44	211.17
885.74	211.19
886.05	211.25
886.36	211.26
886.67	211.21
886.98	211.29
887.28	211.29
887.59	211.19
887.90	211.19
888.20	211.23
888.51	211.23
888.82	211.17
889.13	211.28
889.43	211.30
889.74	211.37
890.05	211.34
890.35	211.34
890.66	211.26
890.97	211.31
891.28	211.27
891.58	211.38
891.89	211.35
892.20	211.25
892.50	211.20
892.81	211.18
893.12	211.19
893.42	211.07
893.73	211.06
894.04	211.12
894.34	211.10
894.65	211.07
894.95	211.03
895.26	211.13
895.57	211.15
895.87	211.04
896.18	211.09
896.48	211.10
896.79	211.04
897.10	211.12
897.40	211.17
897.71	211.28
898.01	211.21
898.32	211.25
898.63	211.28
898.93	211.35
899.24	211.34
899.54	211.31
899.85	211.40
900.15	211.40
900.46	211.41
900.76	211.48
901.07	211.49
901.38	211.57
901.68	211.50
901.99	211.44
902.29	211.52
902.60	211.45
902.90	211.44
903.21	211.53
903.51	211.52
903.82	211.54
904.12	211.52
904.43	211.54
904.73	211.45
905.03	211.49
905.34	211.61
905.64	211.64
905.95	211.64
906.25	211.53
906.56	211.49
906.86	211.55
907.17	211.51
907.47	211.48
907.77	211.37
908.08	211.37
908.38	211.40
908.69	211.34
908.99	211.39
909.30	211.41
909.60	211.40
909.90	211.41
910.21	211.36
910.51	211.31
910.81	211.30
911.12	211.42
911.42	211.40
911.73	211.22
912.03	211.28
912.33	211.27
912.64	211.31
912.94	211.35
913.24	211.33
913.55	211.32
913.85	211.31
914.15	211.42
914.46	211.41
914.76	211.35
915.06	211.38
915.37	211.34
915.67	211.38
915.97	211.32
916.27	211.30
916.58	211.29
916.88	211.28
917.18	211.25
917.49	211.36
917.79	211.43
918.09	211.41
918.39	211.40
918.70	211.46
919.00	211.42
919.30	211.45
919.60	211.45
919.91	211.43
920.21	211.48
920.51	211.39
920.81	211.34
921.12	211.39
921.42	211.40
921.72	211.40
922.02	211.36
922.32	211.42
922.63	211.40
922.93	211.47
923.23	211.45
923.53	211.50
923.83	211.35
924.13	211.31
924.44	211.40
924.74	211.43
925.04	211.42
925.34	211.47
925.64	211.35
925.94	211.30
926.24	211.39
926.55	211.37
926.85	211.43
927.15	211.51
927.45	211.52
927.75	211.45
928.05	211.48
928.35	211.51
928.65	211.53
928.95	211.55
929.26	211.47
929.56	211.54
929.86	211.51
930.16	211.53
930.46	211.49
930.76	211.49
931.06	211.41
931.36	211.43
931.66	211.44
931.96	211.48
932.26	211.48
932.56	211.43
932.86	211.46
933.16	211.47
933.46	211.42
933.76	211.33
934.06	211.45
934.36	211.48
934.66	211.46
934.96	211.48
935.26	211.46
935.56	211.45
935.86	211.43
936.16	211.42
936.46	211.41
936.76	211.39
937.06	211.39
937.36	211.41
937.66	211.38
937.96	211.34
938.26	211.35
938.56	211.38
938.86	211.34
939.16	211.34
939.46	211.42
939.76	211.39
940.06	211.38
940.35	211.25
940.65	211.19
940.95	211.13
941.25	211.02
941.55	211.01
941.85	211.05
942.15	211.02
942.45	211.08
942.75	211.05
943.04	211.03
943.34	211.00
943.64	210.98
943.94	211.00
944.24	211.03
944.54	211.00
944.84	210.96
945.13	210.97
945.43	210.93
945.73	210.80
946.03	210.85
946.33	210.91
946.62	210.88
946.92	210.85
947.22	210.90
947.52	210.93
947.82	210.92
948.11	210.84
948.41	210.80
948.71	210.72
949.01	210.73
949.31	210.80
949.60	210.81
949.90	210.83
950.20	210.76
950.50	210.80
950.79	210.86
951.09	210.93
951.39	210.97
951.69	211.00
951.98	211.08
952.28	211.00
952.58	210.97
952.87	211.02
953.17	211.07
953.47	211.03
953.76	211.07
954.06	211.04
954.36	211.04
954.66	211.07
954.95	211.13
955.25	211.13
955.55	211.10
955.84	211.05
956.14	211.08
956.44	211.04
956.73	211.01
957.03	211.01
957.32	210.96
957.62	210.92
957.92	210.93
958.21	210.92
958.51	211.18
958.81	211.23
959.10	211.24
959.40	211.25
959.69	211.34
959.99	211.26
960.29	211.34
960.58	211.46
960.88	211.54
961.17	211.53
961.47	211.62
961.76	211.55
962.06	211.64
962.36	211.62
962.65	211.70
962.95	211.64
963.24	211.57
963.54	211.59
963.83	211.60
964.13	211.62
964.42	211.51
964.72	211.34
965.01	211.32
965.31	211.33
965.60	211.26
965.90	211.35
966.19	211.36
966.49	211.27
966.78	211.19
967.08	211.15
967.37	211.15
967.67	211.08
967.96	211.16
968.26	211.07
968.55	211.09
968.85	211.12
969.14	211.09
969.43	211.10
969.73	211.13
970.02	211.14
970.32	211.06
970.61	211.06
970.91	211.07
971.20	211.07
971.49	211.04
971.79	211.14
972.08	210.99
972.38	211.11
972.67	211.15
972.96	211.15
973.26	211.15
973.55	211.17
973.85	211.12
974.14	211.09
974.43	211.12
974.73	211.07
975.02	211.06
975.31	211.14
975.61	211.16
975.90	211.06
976.19	211.00
976.49	211.01
976.78	211.01
977.07	210.92
977.37	210.93
977.66	210.92
977.95	210.83
978.24	210.77
978.54	210.73
978.83	210.70
979.12	210.67
979.42	210.66
979.71	210.69
980.00	210.69
980.29	210.72
980.59	210.69
980.88	210.71
981.17	210.66
981.46	210.65
981.76	210.63
982.05	210.73
982.34	210.80
982.63	210.86
982.93	210.86
983.22	210.95
983.51	210.90
983.80	210.88
984.09	210.90
984.39	210.86
984.68	210.87
984.97	210.89
985.26	210.85
985.55	210.79
985.85	210.68
986.14	210.72
986.43	210.67
986.72	210.62
987.01	210.62
987.30	210.63
987.59	210.54
987.89	210.53
988.18	210.50
988.47	210.47
988.76	210.45
989.05	210.48
989.34	210.43
989.63	210.49
989.92	210.53
990.22	210.52
990.51	210.65
990.80	210.65
991.09	210.65
991.38	210.64
991.67	210.74
991.96	210.82
992.25	210.85
992.54	210.94
992.83	210.97
993.12	211.00
993.41	211.06
993.70	211.19
993.99	211.24
994.28	211.21
994.58	211.26
994.87	211.17
995.16	211.10
995.45	211.13
995.74	211.10
996.03	211.15
996.32	211.08
996.61	211.12
996.90	211.03
997.19	211.02
997.48	211.10
997.77	211.04
998.06	210.98
998.34	210.94
998.63	210.88
998.92	210.93
999.21	210.79
999.50	210.77
999.79	210.66
1000.08	210.69
1000.37	210.63
1000.66	210.59
1000.95	210.71
1001.24	210.75
1001.53	210.77
1001.82	210.80
1002.11	210.73
1002.40	210.80
1002.68	210.81
1002.97	211.00
1003.26	210.99
1003.55	210.88
1003.84	210.82
1004.13	210.85
1004.42	210.81
1004.71	210.83
1004.99	210.77
1005.28	210.93
1005.57	210.85
1005.86	210.90
1006.15	210.83
1006.44	210.89
1006.72	210.88
1007.01	210.82
1007.30	210.83
1007.59	210.87
1007.88	210.84
1008.17	210.88
1008.45	210.89
1008.74	210.88
1009.03	210.79
1009.32	210.78
1009.60	210.87
1009.89	210.95
1010.18	210.90
1010.47	210.98
1010.76	210.96
1011.04	211.04
1011.33	210.99
1011.62	211.08
1011.91	211.05
1012.19	211.06
1012.48	211.02
1012.77	211.07
1013.05	211.12
1013.34	211.13
1013.63	211.04
1013.92	211.07
1014.20	211.04
1014.49	211.03
1014.78	210.99
1015.06	210.95
1015.35	211.00
1015.64	211.04
1015.92	211.05
1016.21	211.07
1016.50	211.00
1016.78	211.00
1017.07	210.94
1017.36	210.93
1017.64	210.89
1017.93	210.90
1018.22	210.92
1018.50	210.94
1018.79	210.90
1019.08	210.83
1019.36	210.85
1019.65	210.92
1019.93	210.97
1020.22	210.98
1020.51	211.00
1020.79	211.04
1021.08	210.55
1021.36	210.50
1021.65	210.80
1021.94	210.55
1022.22	211.35
1022.51	211.65
1022.79	212.10
1023.08	210.85
1023.36	211.50
1023.65	211.90
>>>>>End Processed Spectral Data<<<<<
