SpectraSuite Data File
++++++++++++++++++++++++++++++++++++
Date: Mon Feb 25 17:32:24 EST 2013
User: group
Dark Spectrum Present: No
Reference Spectrum Present: No
Number of Sampled Component Spectra: 1
Spectrometers: USB2E7196
Integration Time (usec): 52000 (USB2E7196)
Spectra Averaged: 20 (USB2E7196)
Boxcar Smoothing: 10 (USB2E7196)
Correct for Electrical Dark: No (USB2E7196)
Strobe/Lamp Enabled: No (USB2E7196)
Correct for Detector Non-linearity: No (USB2E7196)
Correct for Stray Light: No (USB2E7196)
Number of Pixels in Processed Spectrum: 2048
>>>>>Begin Processed Spectral Data<<<<<
339.09	0.00
339.48	200.25
339.86	200.55
340.24	203.00
340.63	202.75
341.01	208.05
341.39	206.25
341.78	208.25
342.16	209.45
342.54	209.45
342.93	198.76
343.31	208.84
343.69	209.32
344.07	209.79
344.46	210.17
344.84	210.59
345.22	210.74
345.60	211.01
345.99	211.18
346.37	211.30
346.75	211.39
347.13	211.43
347.52	211.45
347.90	211.54
348.28	211.50
348.66	211.49
349.05	211.50
349.43	211.51
349.81	211.54
350.19	211.54
350.57	211.58
350.96	211.60
351.34	211.64
351.72	211.67
352.10	211.74
352.48	211.76
352.87	211.84
353.25	211.88
353.63	211.89
354.01	211.93
354.39	211.94
354.77	211.95
355.15	212.05
355.54	212.03
355.92	212.08
356.30	212.13
356.68	212.30
357.06	212.31
357.44	212.31
357.82	212.30
358.20	212.39
358.58	212.44
358.97	212.53
359.35	212.60
359.73	212.69
360.11	212.74
360.49	212.80
360.87	212.81
361.25	212.83
361.63	212.90
362.01	212.97
362.39	212.96
362.77	213.08
363.15	213.12
363.53	213.14
363.91	213.10
364.29	213.10
364.67	213.00
365.05	213.05
365.43	213.09
365.81	213.24
366.19	213.30
366.57	213.38
366.95	213.34
367.33	213.22
367.71	213.22
368.09	213.23
368.47	213.24
368.85	213.19
369.23	213.29
369.61	213.29
369.99	213.27
370.37	213.33
370.75	213.38
371.13	213.32
371.51	213.26
371.89	213.26
372.27	213.32
372.65	213.35
373.03	213.36
373.41	213.38
373.78	213.28
374.16	213.20
374.54	213.11
374.92	213.09
375.30	213.18
375.68	213.13
376.06	213.12
376.44	213.04
376.82	213.05
377.19	212.99
377.57	212.87
377.95	212.81
378.33	212.77
378.71	212.61
379.09	212.60
379.47	212.60
379.84	212.54
380.22	212.39
380.60	212.28
380.98	212.20
381.36	212.17
381.73	212.19
382.11	212.11
382.49	212.12
382.87	212.08
383.25	212.06
383.62	212.20
384.00	212.08
384.38	212.07
384.76	212.12
385.13	212.12
385.51	212.11
385.89	212.07
386.27	212.01
386.64	212.02
387.02	211.98
387.40	211.93
387.78	211.91
388.15	211.94
388.53	211.94
388.91	211.94
389.29	211.88
389.66	211.85
390.04	211.79
390.42	211.82
390.79	211.81
391.17	211.74
391.55	211.58
391.92	211.64
392.30	211.62
392.68	211.50
393.05	211.43
393.43	211.41
393.81	211.40
394.18	211.41
394.56	211.41
394.94	211.52
395.31	211.53
395.69	211.56
396.06	211.61
396.44	211.57
396.82	211.62
397.19	211.68
397.57	211.62
397.95	211.67
398.32	211.61
398.70	211.68
399.07	211.76
399.45	211.80
399.82	211.84
400.20	211.92
400.58	212.01
400.95	212.05
401.33	212.19
401.70	212.44
402.08	212.51
402.45	212.60
402.83	212.61
403.20	212.70
403.58	212.79
403.95	212.88
404.33	213.03
404.71	213.10
405.08	213.34
405.46	213.50
405.83	213.71
406.21	213.89
406.58	213.98
406.96	214.10
407.33	214.22
407.70	214.35
408.08	214.66
408.45	214.87
408.83	215.10
409.20	215.31
409.58	215.44
409.95	215.70
410.33	216.02
410.70	216.23
411.08	216.63
411.45	216.96
411.82	217.34
412.20	217.83
412.57	218.36
412.95	218.62
413.32	219.10
413.69	219.54
414.07	220.11
414.44	220.74
414.82	221.40
415.19	222.14
415.56	222.97
415.94	223.71
416.31	224.60
416.68	225.46
417.06	226.42
417.43	227.39
417.81	228.53
418.18	229.60
418.55	230.84
418.93	232.04
419.30	233.31
419.67	234.67
420.04	236.03
420.42	237.45
420.79	239.27
421.16	240.99
421.54	242.85
421.91	244.67
422.28	246.59
422.66	248.61
423.03	250.74
423.40	252.77
423.77	255.00
424.15	257.22
424.52	259.57
424.89	262.08
425.26	264.46
425.64	266.71
426.01	269.25
426.38	271.98
426.75	274.68
427.13	277.59
427.50	280.61
427.87	283.67
428.24	286.79
428.61	289.76
428.99	293.03
429.36	296.36
429.73	299.83
430.10	303.18
430.47	306.64
430.85	310.20
431.22	314.11
431.59	318.32
431.96	322.11
432.33	326.46
432.70	330.64
433.08	335.59
433.45	340.29
433.82	344.86
434.19	349.91
434.56	355.01
434.93	359.62
435.30	364.36
435.68	369.57
436.05	374.77
436.42	379.80
436.79	384.43
437.16	389.65
437.53	394.90
437.90	400.26
438.27	405.47
438.64	410.87
439.01	415.67
439.38	419.91
439.75	424.26
440.13	429.14
440.50	433.69
440.87	437.33
441.24	441.08
441.61	445.30
441.98	448.38
442.35	451.89
442.72	455.58
443.09	459.04
443.46	461.23
443.83	462.49
444.20	463.66
444.57	465.32
444.94	466.03
445.31	466.76
445.68	467.53
446.05	467.74
446.42	466.95
446.79	466.21
447.16	465.35
447.53	464.67
447.90	462.40
448.27	460.32
448.64	457.48
449.01	455.40
449.37	451.73
449.74	448.09
450.11	444.05
450.48	439.63
450.85	434.92
451.22	430.95
451.59	427.28
451.96	423.70
452.33	419.13
452.70	414.76
453.07	409.62
453.43	404.33
453.80	399.34
454.17	394.65
454.54	390.23
454.91	385.40
455.28	380.66
455.65	376.27
456.02	371.92
456.38	368.16
456.75	363.58
457.12	359.80
457.49	356.10
457.86	352.29
458.23	349.01
458.59	345.68
458.96	342.13
459.33	338.95
459.70	335.81
460.07	333.30
460.43	330.50
460.80	327.88
461.17	325.51
461.54	323.05
461.91	320.67
462.27	318.28
462.64	316.28
463.01	314.12
463.38	312.20
463.74	310.01
464.11	308.17
464.48	306.50
464.85	304.76
465.21	303.47
465.58	302.08
465.95	300.36
466.32	298.88
466.68	297.46
467.05	296.06
467.42	294.66
467.78	293.25
468.15	291.95
468.52	290.95
468.88	289.77
469.25	288.68
469.62	287.83
469.98	286.82
470.35	285.92
470.72	285.09
471.08	284.11
471.45	283.39
471.82	282.69
472.18	281.81
472.55	281.23
472.92	280.53
473.28	279.91
473.65	279.30
474.02	278.77
474.38	278.37
474.75	278.06
475.11	277.72
475.48	277.40
475.85	277.13
476.21	276.99
476.58	276.81
476.94	276.73
477.31	276.64
477.67	276.58
478.04	276.55
478.41	276.69
478.77	276.95
479.14	277.03
479.50	277.24
479.87	277.64
480.23	278.01
480.60	278.27
480.96	278.67
481.33	279.39
481.69	280.03
482.06	280.70
482.42	281.25
482.79	281.91
483.15	282.81
483.52	283.83
483.88	284.75
484.25	285.73
484.61	286.85
484.98	287.96
485.34	289.31
485.71	290.74
486.07	292.12
486.44	293.37
486.80	294.86
487.17	296.40
487.53	298.18
487.90	300.03
488.26	301.98
488.62	304.08
488.99	306.13
489.35	308.28
489.72	310.55
490.08	313.08
490.44	315.62
490.81	318.24
491.17	320.91
491.54	323.78
491.90	326.80
492.26	329.90
492.63	333.27
492.99	336.66
493.36	340.16
493.72	344.00
494.08	348.14
494.45	352.48
494.81	356.97
495.17	361.53
495.54	366.34
495.90	371.46
496.26	376.49
496.63	381.96
496.99	387.68
497.35	393.68
497.72	399.95
498.08	406.41
498.44	413.06
498.80	420.09
499.17	427.39
499.53	435.01
499.89	442.98
500.26	451.16
500.62	459.65
500.98	468.54
501.34	477.67
501.71	487.04
502.07	496.66
502.43	506.63
502.79	516.80
503.16	527.52
503.52	538.38
503.88	549.80
504.24	561.39
504.60	573.20
504.97	585.40
505.33	597.85
505.69	611.06
506.05	624.55
506.41	638.24
506.78	652.15
507.14	666.16
507.50	680.69
507.86	695.69
508.22	710.91
508.59	726.47
508.95	742.40
509.31	758.54
509.67	775.45
510.03	792.48
510.39	810.07
510.75	827.65
511.12	845.73
511.48	863.90
511.84	882.61
512.20	901.05
512.56	920.19
512.92	939.65
513.28	959.23
513.64	979.15
514.00	999.10
514.37	1019.31
514.73	1040.36
515.09	1061.09
515.45	1081.70
515.81	1102.92
516.17	1123.93
516.53	1145.24
516.89	1166.74
517.25	1188.05
517.61	1209.59
517.97	1231.00
518.33	1252.69
518.69	1274.11
519.05	1296.23
519.41	1318.00
519.77	1340.80
520.13	1362.56
520.49	1384.45
520.85	1406.83
521.21	1428.88
521.57	1451.64
521.93	1473.73
522.29	1496.55
522.65	1519.00
523.01	1541.56
523.37	1563.40
523.73	1585.73
524.09	1607.95
524.45	1630.10
524.81	1652.18
525.17	1674.50
525.53	1696.70
525.89	1718.90
526.25	1741.07
526.61	1762.24
526.97	1784.01
527.33	1805.10
527.68	1826.79
528.04	1847.97
528.40	1868.38
528.76	1889.10
529.12	1909.63
529.48	1931.22
529.84	1951.15
530.20	1971.40
530.56	1991.78
530.91	2012.42
531.27	2032.80
531.63	2052.68
531.99	2072.42
532.35	2091.76
532.71	2110.54
533.07	2130.09
533.42	2148.32
533.78	2167.15
534.14	2185.57
534.50	2202.56
534.86	2220.58
535.21	2237.27
535.57	2254.94
535.93	2271.98
536.29	2288.85
536.65	2305.61
537.00	2320.60
537.36	2335.70
537.72	2350.74
538.08	2365.63
538.44	2380.61
538.79	2395.82
539.15	2410.47
539.51	2425.13
539.87	2440.25
540.22	2455.11
540.58	2470.10
540.94	2484.50
541.29	2497.21
541.65	2509.72
542.01	2522.71
542.37	2534.46
542.72	2546.93
543.08	2557.55
543.44	2569.65
543.79	2579.99
544.15	2589.99
544.51	2601.06
544.87	2612.31
545.22	2621.69
545.58	2630.09
545.94	2637.50
546.29	2643.83
546.65	2650.14
547.01	2656.20
547.36	2661.45
547.72	2666.51
548.07	2669.99
548.43	2673.58
548.79	2677.45
549.14	2681.88
549.50	2686.20
549.86	2690.44
550.21	2693.96
550.57	2698.26
550.92	2700.81
551.28	2703.29
551.64	2705.94
551.99	2708.25
552.35	2709.29
552.70	2711.88
553.06	2714.61
553.41	2717.58
553.77	2720.25
554.13	2722.43
554.48	2724.53
554.84	2725.90
555.19	2726.41
555.55	2727.22
555.90	2727.98
556.26	2728.29
556.61	2727.95
556.97	2727.03
557.32	2725.77
557.68	2724.06
558.03	2722.55
558.39	2720.92
558.74	2720.49
559.10	2718.69
559.45	2716.76
559.81	2715.63
560.16	2712.68
560.52	2710.45
560.87	2707.35
561.23	2703.85
561.58	2701.51
561.94	2697.90
562.29	2694.35
562.64	2692.31
563.00	2689.58
563.35	2687.23
563.71	2685.75
564.06	2683.68
564.42	2681.52
564.77	2679.61
565.12	2678.11
565.48	2674.90
565.83	2671.61
566.19	2668.39
566.54	2664.32
566.89	2660.55
567.25	2656.72
567.60	2653.87
567.96	2649.87
568.31	2646.56
568.66	2642.65
569.02	2638.15
569.37	2633.36
569.72	2629.65
570.08	2623.99
570.43	2618.30
570.78	2612.64
571.14	2606.14
571.49	2599.63
571.84	2593.65
572.20	2586.67
572.55	2580.10
572.90	2573.65
573.26	2566.99
573.61	2559.65
573.96	2553.16
574.31	2545.43
574.67	2537.60
575.02	2528.83
575.37	2520.31
575.72	2511.31
576.08	2503.78
576.43	2494.94
576.78	2487.14
577.13	2478.84
577.49	2470.99
577.84	2463.74
578.19	2456.23
578.54	2448.79
578.90	2441.78
579.25	2433.10
579.60	2423.84
579.95	2414.54
580.30	2406.39
580.66	2398.19
581.01	2389.18
581.36	2379.92
581.71	2371.86
582.06	2363.30
582.42	2355.31
582.77	2346.65
583.12	2337.54
583.47	2328.81
583.82	2320.60
584.17	2311.63
584.53	2302.75
584.88	2294.05
585.23	2284.35
585.58	2274.75
585.93	2265.13
586.28	2256.02
586.63	2247.42
586.98	2239.58
587.34	2231.31
587.69	2221.98
588.04	2212.62
588.39	2204.57
588.74	2195.71
589.09	2186.63
589.44	2177.10
589.79	2168.59
590.14	2160.44
590.49	2152.49
590.84	2143.53
591.19	2135.28
591.54	2126.46
591.89	2116.24
592.25	2106.98
592.60	2097.72
592.95	2088.40
593.30	2078.91
593.65	2069.26
594.00	2059.65
594.35	2051.19
594.70	2041.92
595.05	2033.36
595.40	2024.74
595.75	2015.03
596.10	2006.82
596.45	1998.52
596.80	1990.88
597.15	1982.54
597.50	1973.57
597.85	1964.84
598.19	1956.35
598.54	1947.95
598.89	1940.24
599.24	1934.02
599.59	1926.89
599.94	1919.76
600.29	1912.05
600.64	1904.50
600.99	1895.91
601.34	1888.72
601.69	1880.00
602.04	1872.08
602.39	1864.13
602.74	1856.50
603.08	1849.95
603.43	1842.85
603.78	1834.80
604.13	1826.73
604.48	1818.97
604.83	1812.08
605.18	1804.96
605.53	1797.45
605.87	1789.82
606.22	1782.75
606.57	1774.76
606.92	1766.45
607.27	1758.56
607.62	1751.40
607.96	1744.42
608.31	1738.39
608.66	1730.72
609.01	1723.39
609.36	1715.68
609.70	1707.72
610.05	1699.88
610.40	1691.52
610.75	1683.10
611.10	1675.40
611.44	1666.51
611.79	1657.34
612.14	1648.08
612.49	1638.95
612.83	1630.22
613.18	1620.60
613.53	1611.09
613.88	1601.43
614.22	1592.54
614.57	1583.30
614.92	1573.83
615.27	1564.30
615.61	1554.44
615.96	1545.35
616.31	1536.72
616.65	1528.99
617.00	1520.72
617.35	1512.11
617.70	1503.40
618.04	1494.45
618.39	1485.17
618.74	1476.68
619.08	1468.06
619.43	1459.83
619.78	1451.76
620.12	1443.70
620.47	1436.09
620.82	1427.52
621.16	1419.18
621.51	1411.00
621.85	1402.51
622.20	1394.23
622.55	1386.00
622.89	1377.86
623.24	1369.95
623.59	1361.49
623.93	1352.52
624.28	1344.14
624.62	1336.00
624.97	1327.84
625.32	1320.10
625.66	1312.90
626.01	1305.73
626.35	1298.75
626.70	1291.01
627.04	1283.84
627.39	1276.24
627.73	1268.54
628.08	1261.65
628.43	1254.44
628.77	1247.02
629.12	1239.94
629.46	1233.20
629.81	1226.06
630.15	1218.82
630.50	1211.33
630.84	1204.10
631.19	1197.01
631.53	1190.35
631.88	1182.83
632.22	1175.44
632.57	1168.51
632.91	1160.97
633.26	1153.43
633.60	1146.34
633.95	1139.43
634.29	1132.08
634.64	1125.36
634.98	1118.43
635.32	1111.39
635.67	1104.92
636.01	1098.15
636.36	1091.44
636.70	1084.58
637.05	1077.82
637.39	1071.57
637.73	1065.26
638.08	1059.35
638.42	1053.68
638.77	1047.19
639.11	1041.00
639.45	1034.74
639.80	1028.07
640.14	1021.60
640.49	1015.52
640.83	1009.04
641.17	1003.03
641.52	997.10
641.86	990.71
642.20	984.66
642.55	977.95
642.89	971.33
643.23	965.05
643.58	958.98
643.92	952.74
644.26	946.80
644.61	940.61
644.95	934.75
645.29	928.57
645.64	921.93
645.98	915.65
646.32	909.89
646.66	903.96
647.01	898.11
647.35	892.45
647.69	886.15
648.04	880.22
648.38	874.23
648.72	868.08
649.06	861.96
649.41	855.96
649.75	850.24
650.09	844.51
650.43	838.69
650.78	832.84
651.12	826.87
651.46	821.06
651.80	815.11
652.14	809.19
652.49	803.26
652.83	797.46
653.17	791.42
653.51	785.43
653.85	779.71
654.20	773.88
654.54	768.13
654.88	762.78
655.22	757.05
655.56	751.09
655.90	745.14
656.25	739.57
656.59	733.99
656.93	728.83
657.27	723.80
657.61	718.34
657.95	713.11
658.29	707.93
658.64	702.86
658.98	697.68
659.32	692.29
659.66	687.06
660.00	681.89
660.34	676.87
660.68	671.76
661.02	666.59
661.36	662.01
661.70	657.15
662.05	652.50
662.39	648.22
662.73	644.02
663.07	639.84
663.41	635.49
663.75	630.91
664.09	626.26
664.43	621.42
664.77	617.11
665.11	612.64
665.45	608.33
665.79	603.89
666.13	599.59
666.47	595.40
666.81	591.26
667.15	587.15
667.49	583.43
667.83	579.66
668.17	575.94
668.51	572.08
668.85	568.39
669.19	564.67
669.53	560.63
669.87	556.54
670.21	552.65
670.55	548.67
670.89	545.23
671.23	541.94
671.57	538.55
671.91	534.87
672.25	531.39
672.58	527.86
672.92	524.36
673.26	521.31
673.60	518.10
673.94	514.70
674.28	511.33
674.62	508.05
674.96	504.93
675.30	501.97
675.64	498.70
675.97	495.49
676.31	492.37
676.65	489.42
676.99	486.78
677.33	483.85
677.67	481.00
678.01	477.87
678.34	474.96
678.68	472.12
679.02	469.29
679.36	466.48
679.70	463.68
680.04	460.94
680.37	457.80
680.71	454.98
681.05	452.43
681.39	449.80
681.73	447.04
682.06	444.50
682.40	441.74
682.74	439.10
683.08	436.57
683.42	434.06
683.75	431.58
684.09	428.91
684.43	426.52
684.77	423.95
685.10	421.54
685.44	418.87
685.78	416.34
686.12	414.08
686.45	411.70
686.79	409.51
687.13	407.28
687.46	405.20
687.80	402.94
688.14	400.56
688.48	398.63
688.81	396.40
689.15	394.07
689.49	391.95
689.82	389.76
690.16	387.47
690.50	385.12
690.83	382.89
691.17	380.62
691.51	378.33
691.84	376.31
692.18	374.29
692.52	372.40
692.85	370.52
693.19	368.48
693.52	366.55
693.86	364.52
694.20	362.63
694.53	360.75
694.87	358.80
695.21	356.96
695.54	354.89
695.88	353.05
696.21	351.22
696.55	349.44
696.88	347.71
697.22	346.01
697.56	344.41
697.89	342.77
698.23	341.21
698.56	339.58
698.90	338.10
699.23	336.42
699.57	334.81
699.90	333.20
700.24	331.69
700.58	330.16
700.91	328.69
701.25	327.29
701.58	325.78
701.92	324.39
702.25	323.07
702.59	321.65
702.92	320.32
703.26	318.97
703.59	317.78
703.93	316.63
704.26	315.31
704.60	314.02
704.93	312.75
705.26	311.54
705.60	310.37
705.93	308.89
706.27	307.73
706.60	306.63
706.94	305.46
707.27	304.24
707.61	303.05
707.94	301.93
708.27	300.69
708.61	299.61
708.94	298.54
709.28	297.34
709.61	296.32
709.94	295.25
710.28	294.17
710.61	293.04
710.95	291.79
711.28	290.94
711.61	289.87
711.95	288.92
712.28	287.86
712.61	286.93
712.95	286.21
713.28	285.37
713.61	284.28
713.95	283.40
714.28	282.52
714.61	281.62
714.95	280.66
715.28	279.70
715.61	278.77
715.95	277.89
716.28	277.08
716.61	276.18
716.95	275.32
717.28	274.48
717.61	273.53
717.94	272.90
718.28	272.02
718.61	271.31
718.94	270.52
719.27	269.80
719.61	269.08
719.94	268.32
720.27	267.54
720.60	266.92
720.94	266.12
721.27	265.43
721.60	264.76
721.93	264.15
722.27	263.57
722.60	262.93
722.93	262.25
723.26	261.60
723.59	260.96
723.93	260.42
724.26	259.83
724.59	259.37
724.92	258.77
725.25	258.20
725.59	257.68
725.92	257.10
726.25	256.61
726.58	256.08
726.91	255.51
727.24	255.02
727.57	254.40
727.91	253.91
728.24	253.47
728.57	253.05
728.90	252.63
729.23	252.10
729.56	251.66
729.89	251.18
730.22	250.79
730.55	250.38
730.89	249.88
731.22	249.46
731.55	249.01
731.88	248.50
732.21	248.09
732.54	247.62
732.87	247.24
733.20	246.74
733.53	246.29
733.86	245.95
734.19	245.52
734.52	245.30
734.85	245.10
735.18	244.62
735.51	244.27
735.84	243.89
736.17	243.64
736.50	243.27
736.83	243.18
737.16	242.81
737.49	242.45
737.82	242.06
738.15	241.75
738.48	241.42
738.81	241.12
739.14	240.86
739.47	240.48
739.80	240.09
740.13	239.75
740.46	239.42
740.79	239.02
741.12	238.73
741.45	238.40
741.78	237.98
742.11	237.79
742.44	237.37
742.77	236.98
743.10	236.67
743.43	236.42
743.75	235.93
744.08	235.84
744.41	235.52
744.74	235.28
745.07	234.96
745.40	234.71
745.73	234.49
746.06	234.10
746.39	233.90
746.71	233.66
747.04	233.42
747.37	233.12
747.70	232.90
748.03	232.62
748.36	232.39
748.68	232.11
749.01	231.73
749.34	231.56
749.67	231.39
750.00	231.13
750.33	231.04
750.65	230.82
750.98	230.41
751.31	230.15
751.64	229.89
751.97	229.74
752.29	229.49
752.62	229.20
752.95	228.95
753.28	228.67
753.60	228.45
753.93	228.30
754.26	228.10
754.59	227.80
754.91	227.65
755.24	227.36
755.57	227.20
755.90	227.01
756.22	226.77
756.55	226.55
756.88	226.30
757.20	225.94
757.53	225.71
757.86	225.49
758.19	225.39
758.51	225.24
758.84	224.95
759.17	224.77
759.49	224.61
759.82	224.51
760.15	224.35
760.47	224.18
760.80	223.91
761.13	223.83
761.45	223.68
761.78	223.46
762.11	223.34
762.43	223.15
762.76	223.06
763.08	222.97
763.41	222.85
763.74	222.71
764.06	222.48
764.39	222.35
764.71	222.20
765.04	222.00
765.37	221.84
765.69	221.70
766.02	221.60
766.34	221.46
766.67	221.30
767.00	221.19
767.32	221.15
767.65	221.20
767.97	220.97
768.30	220.91
768.62	220.76
768.95	220.66
769.27	220.52
769.60	220.41
769.92	220.25
770.25	220.18
770.57	220.05
770.90	220.03
771.22	219.98
771.55	219.97
771.87	219.91
772.20	219.87
772.52	220.02
772.85	220.11
773.17	220.04
773.50	219.97
773.82	219.86
774.15	219.70
774.47	219.50
774.80	219.43
775.12	219.34
775.45	219.31
775.77	219.20
776.09	219.14
776.42	219.08
776.74	219.03
777.07	218.91
777.39	218.91
777.72	218.79
778.04	218.66
778.36	218.46
778.69	218.39
779.01	218.34
779.33	218.03
779.66	217.79
779.98	217.71
780.31	217.59
780.63	217.62
780.95	217.62
781.28	217.56
781.60	217.53
781.92	217.48
782.25	217.38
782.57	217.38
782.89	217.31
783.22	217.21
783.54	217.14
783.86	217.10
784.19	217.01
784.51	216.99
784.83	216.87
785.16	216.79
785.48	216.75
785.80	216.63
786.12	216.63
786.45	216.54
786.77	216.53
787.09	216.52
787.42	216.36
787.74	216.33
788.06	216.25
788.38	216.07
788.71	216.00
789.03	215.95
789.35	215.89
789.67	215.81
789.99	215.77
790.32	215.69
790.64	215.61
790.96	215.73
791.28	215.64
791.61	215.65
791.93	215.61
792.25	215.57
792.57	215.73
792.89	215.60
793.21	215.51
793.54	215.41
793.86	215.30
794.18	215.30
794.50	215.19
794.82	215.19
795.14	215.27
795.47	215.27
795.79	215.25
796.11	215.17
796.43	215.13
796.75	215.05
797.07	215.05
797.39	215.01
797.71	214.79
798.04	214.77
798.36	214.75
798.68	214.72
799.00	214.68
799.32	214.55
799.64	214.61
799.96	214.60
800.28	214.58
800.60	214.62
800.92	214.57
801.24	214.52
801.56	214.51
801.89	214.51
802.21	214.40
802.53	214.27
802.85	214.31
803.17	214.29
803.49	214.28
803.81	214.23
804.13	214.19
804.45	214.17
804.77	214.09
805.09	214.05
805.41	214.05
805.73	213.94
806.05	213.80
806.37	213.75
806.69	213.74
807.01	213.70
807.33	213.66
807.65	213.58
807.97	213.56
808.28	213.48
808.60	213.40
808.92	213.44
809.24	213.58
809.56	213.51
809.88	213.46
810.20	213.48
810.52	213.50
810.84	213.46
811.16	213.41
811.48	213.47
811.80	213.48
812.12	213.47
812.43	213.52
812.75	213.51
813.07	213.50
813.39	213.51
813.71	213.48
814.03	213.42
814.35	213.39
814.67	213.31
814.98	213.29
815.30	213.22
815.62	213.10
815.94	213.00
816.26	212.96
816.58	212.91
816.89	212.90
817.21	212.83
817.53	212.76
817.85	212.78
818.17	212.75
818.48	212.67
818.80	212.63
819.12	212.63
819.44	212.57
819.76	212.51
820.07	212.51
820.39	212.50
820.71	212.44
821.03	212.47
821.34	212.51
821.66	212.52
821.98	212.58
822.30	212.59
822.61	212.65
822.93	212.66
823.25	212.69
823.57	212.61
823.88	212.60
824.20	212.62
824.52	212.57
824.83	212.48
825.15	212.45
825.47	212.44
825.79	212.40
826.10	212.34
826.42	212.33
826.74	212.31
827.05	212.26
827.37	212.29
827.69	212.22
828.00	212.15
828.32	212.12
828.64	212.05
828.95	212.12
829.27	212.04
829.58	211.95
829.90	211.94
830.22	211.93
830.53	211.90
830.85	211.90
831.17	211.87
831.48	211.90
831.80	211.86
832.11	211.93
832.43	211.86
832.75	211.93
833.06	212.01
833.38	211.95
833.69	211.92
834.01	211.92
834.32	211.95
834.64	211.93
834.96	211.89
835.27	211.91
835.59	211.84
835.90	211.82
836.22	211.88
836.53	211.87
836.85	211.83
837.16	211.99
837.48	211.95
837.79	212.02
838.11	212.00
838.42	211.98
838.74	211.95
839.05	211.94
839.37	211.85
839.68	211.78
840.00	211.70
840.31	211.75
840.63	211.73
840.94	211.70
841.26	211.70
841.57	211.73
841.88	211.71
842.20	211.72
842.51	211.70
842.83	211.69
843.14	211.84
843.46	211.85
843.77	211.75
844.08	211.78
844.40	211.72
844.71	211.78
845.03	211.85
845.34	211.84
845.65	211.79
845.97	211.84
846.28	211.83
846.60	211.86
846.91	211.84
847.22	211.85
847.54	211.89
847.85	211.90
848.16	211.89
848.48	211.93
848.79	211.95
849.10	211.97
849.42	211.98
849.73	211.79
850.04	211.76
850.36	211.68
850.67	211.65
850.98	211.68
851.30	211.57
851.61	211.58
851.92	211.52
852.23	211.55
852.55	211.53
852.86	211.56
853.17	211.60
853.49	211.65
853.80	211.68
854.11	211.61
854.42	211.65
854.74	211.55
855.05	211.44
855.36	211.33
855.67	211.32
855.99	211.29
856.30	211.50
856.61	211.52
856.92	211.49
857.23	211.51
857.55	211.44
857.86	211.50
858.17	211.53
858.48	211.51
858.79	211.59
859.11	211.66
859.42	211.59
859.73	211.54
860.04	211.51
860.35	211.46
860.66	211.50
860.98	211.49
861.29	211.52
861.60	211.55
861.91	211.65
862.22	211.64
862.53	211.61
862.84	211.39
863.16	211.45
863.47	211.46
863.78	211.45
864.09	211.47
864.40	211.46
864.71	211.45
865.02	211.43
865.33	211.32
865.64	211.24
865.95	211.26
866.27	211.39
866.58	211.34
866.89	211.40
867.20	211.31
867.51	211.28
867.82	211.29
868.13	211.36
868.44	211.29
868.75	211.31
869.06	211.33
869.37	211.30
869.68	211.25
869.99	211.29
870.30	211.30
870.61	211.36
870.92	211.38
871.23	211.37
871.54	211.45
871.85	211.50
872.16	211.52
872.47	211.53
872.78	211.44
873.09	211.38
873.40	211.35
873.71	211.50
874.02	211.54
874.33	211.56
874.64	211.54
874.95	211.55
875.26	211.55
875.56	211.57
875.87	211.62
876.18	211.59
876.49	211.74
876.80	211.73
877.11	211.68
877.42	211.62
877.73	211.58
878.04	211.57
878.35	211.60
878.66	211.60
878.96	211.59
879.27	211.60
879.58	211.63
879.89	211.61
880.20	211.62
880.51	211.61
880.82	211.58
881.12	211.65
881.43	211.63
881.74	211.55
882.05	211.50
882.36	211.56
882.67	211.61
882.97	211.42
883.28	211.38
883.59	211.36
883.90	211.41
884.21	211.41
884.51	211.39
884.82	211.37
885.13	211.45
885.44	211.40
885.74	211.37
886.05	211.42
886.36	211.42
886.67	211.25
886.98	211.27
887.28	211.35
887.59	211.22
887.90	211.23
888.20	211.28
888.51	211.25
888.82	211.22
889.13	211.19
889.43	211.25
889.74	211.27
890.05	211.31
890.35	211.28
890.66	211.23
890.97	211.17
891.28	211.12
891.58	211.08
891.89	211.06
892.20	211.03
892.50	210.99
892.81	211.03
893.12	211.09
893.42	211.04
893.73	211.02
894.04	211.12
894.34	211.15
894.65	211.12
894.95	211.17
895.26	211.09
895.57	211.16
895.87	211.05
896.18	211.09
896.48	211.07
896.79	211.07
897.10	211.15
897.40	211.20
897.71	211.21
898.01	211.18
898.32	211.24
898.63	211.27
898.93	211.27
899.24	211.25
899.54	211.22
899.85	211.20
900.15	211.21
900.46	211.20
900.76	211.20
901.07	211.19
901.38	211.16
901.68	211.26
901.99	211.19
902.29	211.23
902.60	211.19
902.90	211.15
903.21	211.20
903.51	211.17
903.82	211.22
904.12	211.24
904.43	211.23
904.73	211.25
905.03	211.30
905.34	211.48
905.64	211.47
905.95	211.53
906.25	211.53
906.56	211.50
906.86	211.47
907.17	211.53
907.47	211.52
907.77	211.57
908.08	211.47
908.38	211.52
908.69	211.50
908.99	211.66
909.30	211.69
909.60	211.67
909.90	211.70
910.21	211.62
910.51	211.60
910.81	211.60
911.12	211.62
911.42	211.59
911.73	211.38
912.03	211.38
912.33	211.48
912.64	211.46
912.94	211.43
913.24	211.42
913.55	211.34
913.85	211.43
914.15	211.44
914.46	211.49
914.76	211.49
915.06	211.55
915.37	211.35
915.67	211.38
915.97	211.36
916.27	211.32
916.58	211.32
916.88	211.36
917.18	211.36
917.49	211.47
917.79	211.48
918.09	211.50
918.39	211.45
918.70	211.28
919.00	211.30
919.30	211.45
919.60	211.44
919.91	211.47
920.21	211.41
920.51	211.39
920.81	211.42
921.12	211.41
921.42	211.35
921.72	211.44
922.02	211.42
922.32	211.45
922.63	211.48
922.93	211.56
923.23	211.57
923.53	211.54
923.83	211.35
924.13	211.36
924.44	211.41
924.74	211.46
925.04	211.60
925.34	211.52
925.64	211.41
925.94	211.41
926.24	211.45
926.55	211.39
926.85	211.31
927.15	211.27
927.45	211.27
927.75	211.26
928.05	211.23
928.35	211.24
928.65	211.27
928.95	211.27
929.26	211.21
929.56	211.19
929.86	211.24
930.16	211.24
930.46	211.31
930.76	211.28
931.06	211.24
931.36	211.18
931.66	211.31
931.96	211.36
932.26	211.39
932.56	211.32
932.86	211.45
933.16	211.50
933.46	211.49
933.76	211.47
934.06	211.52
934.36	211.54
934.66	211.53
934.96	211.43
935.26	211.44
935.56	211.46
935.86	211.42
936.16	211.41
936.46	211.44
936.76	211.30
937.06	211.30
937.36	211.30
937.66	211.26
937.96	211.22
938.26	211.14
938.56	211.10
938.86	211.03
939.16	211.03
939.46	211.02
939.76	211.03
940.06	211.01
940.35	210.97
940.65	210.90
940.95	210.87
941.25	210.95
941.55	210.87
941.85	210.82
942.15	210.85
942.45	210.87
942.75	210.83
943.04	210.89
943.34	210.86
943.64	210.85
943.94	210.83
944.24	210.79
944.54	210.78
944.84	210.74
945.13	210.76
945.43	210.70
945.73	210.76
946.03	210.73
946.33	210.75
946.62	210.79
946.92	210.74
947.22	210.78
947.52	210.72
947.82	210.82
948.11	210.83
948.41	210.77
948.71	210.69
949.01	210.73
949.31	210.64
949.60	210.67
949.90	210.73
950.20	210.70
950.50	210.71
950.79	210.79
951.09	210.86
951.39	210.87
951.69	210.84
951.98	210.84
952.28	210.85
952.58	210.82
952.87	210.79
953.17	210.87
953.47	210.82
953.76	210.83
954.06	210.74
954.36	210.73
954.66	210.80
954.95	210.95
955.25	210.97
955.55	211.03
955.84	211.04
956.14	210.95
956.44	210.92
956.73	210.89
957.03	210.90
957.32	210.92
957.62	210.90
957.92	211.00
958.21	210.90
958.51	211.13
958.81	211.12
959.10	211.09
959.40	211.10
959.69	211.14
959.99	211.15
960.29	211.14
960.58	211.16
960.88	211.13
961.17	211.05
961.47	211.07
961.76	211.05
962.06	211.04
962.36	211.10
962.65	211.19
962.95	211.17
963.24	211.09
963.54	210.98
963.83	211.03
964.13	210.96
964.42	211.06
964.72	210.91
965.01	210.94
965.31	210.99
965.60	211.00
965.90	211.13
966.19	211.15
966.49	211.18
966.78	211.15
967.08	211.17
967.37	211.17
967.67	211.06
967.96	211.07
968.26	211.03
968.55	211.02
968.85	210.96
969.14	211.00
969.43	211.04
969.73	211.09
970.02	211.04
970.32	211.00
970.61	210.90
970.91	210.80
971.20	210.75
971.49	210.66
971.79	210.64
972.08	210.50
972.38	210.49
972.67	210.45
972.96	210.45
973.26	210.35
973.55	210.43
973.85	210.53
974.14	210.54
974.43	210.64
974.73	210.65
975.02	210.64
975.31	210.59
975.61	210.61
975.90	210.64
976.19	210.65
976.49	210.72
976.78	210.70
977.07	210.71
977.37	210.72
977.66	210.83
977.95	210.80
978.24	210.84
978.54	210.89
978.83	210.86
979.12	210.82
979.42	210.89
979.71	210.83
980.00	210.85
980.29	210.89
980.59	210.84
980.88	210.90
981.17	210.88
981.46	210.95
981.76	210.91
982.05	210.86
982.34	210.91
982.63	210.90
982.93	211.00
983.22	211.07
983.51	211.12
983.80	211.10
984.09	211.19
984.39	211.16
984.68	211.17
984.97	211.25
985.26	211.33
985.55	211.40
985.85	211.36
986.14	211.33
986.43	211.28
986.72	211.24
987.01	211.18
987.30	211.26
987.59	211.24
987.89	211.23
988.18	211.23
988.47	211.17
988.76	211.11
989.05	211.10
989.34	211.05
989.63	211.04
989.92	211.02
990.22	211.00
990.51	210.97
990.80	210.86
991.09	210.87
991.38	210.85
991.67	210.82
991.96	210.81
992.25	210.79
992.54	210.77
992.83	210.74
993.12	210.74
993.41	210.70
993.70	210.78
993.99	210.86
994.28	210.94
994.58	211.04
994.87	211.09
995.16	211.07
995.45	211.11
995.74	211.09
996.03	211.13
996.32	211.14
996.61	211.20
996.90	211.21
997.19	211.20
997.48	211.25
997.77	211.22
998.06	211.23
998.34	211.22
998.63	211.27
998.92	211.31
999.21	211.39
999.50	211.44
999.79	211.32
1000.08	211.22
1000.37	211.22
1000.66	211.24
1000.95	211.24
1001.24	211.20
1001.53	211.17
1001.82	211.13
1002.11	211.09
1002.40	211.05
1002.68	211.03
1002.97	211.19
1003.26	211.13
1003.55	211.06
1003.84	211.11
1004.13	211.13
1004.42	211.05
1004.71	211.07
1004.99	211.05
1005.28	211.01
1005.57	211.06
1005.86	211.10
1006.15	211.16
1006.44	211.11
1006.72	211.08
1007.01	211.00
1007.30	211.05
1007.59	211.05
1007.88	211.07
1008.17	211.02
1008.45	210.94
1008.74	210.90
1009.03	210.88
1009.32	210.90
1009.60	210.85
1009.89	210.80
1010.18	210.75
1010.47	210.87
1010.76	210.84
1011.04	210.87
1011.33	210.91
1011.62	210.80
1011.91	210.79
1012.19	210.82
1012.48	210.77
1012.77	210.75
1013.05	210.85
1013.34	210.83
1013.63	210.84
1013.92	210.83
1014.20	210.87
1014.49	210.97
1014.78	210.97
1015.06	210.85
1015.35	210.86
1015.64	210.92
1015.92	210.97
1016.21	211.01
1016.50	210.99
1016.78	210.98
1017.07	210.97
1017.36	210.90
1017.64	210.91
1017.93	210.92
1018.22	210.93
1018.50	210.98
1018.79	210.98
1019.08	210.89
1019.36	210.96
1019.65	210.90
1019.93	210.99
1020.22	211.03
1020.51	211.07
1020.79	211.11
1021.08	211.85
1021.36	210.50
1021.65	211.10
1021.94	210.25
1022.22	212.25
1022.51	209.70
1022.79	212.20
1023.08	211.55
1023.36	212.55
1023.65	211.20
>>>>>End Processed Spectral Data<<<<<
