SpectraSuite Data File
++++++++++++++++++++++++++++++++++++
Date: Mon Feb 25 17:34:28 EST 2013
User: group
Dark Spectrum Present: No
Reference Spectrum Present: No
Number of Sampled Component Spectra: 1
Spectrometers: USB2E7196
Integration Time (usec): 52000 (USB2E7196)
Spectra Averaged: 20 (USB2E7196)
Boxcar Smoothing: 10 (USB2E7196)
Correct for Electrical Dark: No (USB2E7196)
Strobe/Lamp Enabled: No (USB2E7196)
Correct for Detector Non-linearity: No (USB2E7196)
Correct for Stray Light: No (USB2E7196)
Number of Pixels in Processed Spectrum: 2048
>>>>>Begin Processed Spectral Data<<<<<
339.09	0.00
339.48	198.95
339.86	201.05
340.24	202.05
340.63	204.45
341.01	207.40
341.39	204.25
341.78	206.85
342.16	209.35
342.54	210.05
342.93	198.58
343.31	208.62
343.69	209.20
344.07	209.70
344.46	210.18
344.84	210.50
345.22	210.71
345.60	211.09
345.99	211.27
346.37	211.35
346.75	211.47
347.13	211.55
347.52	211.60
347.90	211.71
348.28	211.75
348.66	211.79
349.05	211.72
349.43	211.82
349.81	211.78
350.19	211.84
350.57	211.84
350.96	211.92
351.34	211.96
351.72	212.04
352.10	212.09
352.48	212.09
352.87	212.15
353.25	212.15
353.63	212.21
354.01	212.32
354.39	212.42
354.77	212.39
355.15	212.52
355.54	212.58
355.92	212.52
356.30	212.59
356.68	212.74
357.06	212.83
357.44	212.86
357.82	212.82
358.20	212.84
358.58	212.91
358.97	212.93
359.35	213.05
359.73	213.12
360.11	213.16
360.49	213.20
360.87	213.21
361.25	213.32
361.63	213.33
362.01	213.39
362.39	213.41
362.77	213.46
363.15	213.41
363.53	213.40
363.91	213.48
364.29	213.55
364.67	213.41
365.05	213.41
365.43	213.44
365.81	213.54
366.19	213.70
366.57	213.70
366.95	213.70
367.33	213.57
367.71	213.55
368.09	213.55
368.47	213.56
368.85	213.61
369.23	213.68
369.61	213.61
369.99	213.60
370.37	213.66
370.75	213.79
371.13	213.71
371.51	213.68
371.89	213.68
372.27	213.66
372.65	213.61
373.03	213.57
373.41	213.55
373.78	213.57
374.16	213.38
374.54	213.35
374.92	213.24
375.30	213.25
375.68	213.17
376.06	213.13
376.44	213.08
376.82	213.05
377.19	212.88
377.57	212.80
377.95	212.69
378.33	212.62
378.71	212.37
379.09	212.34
379.47	212.33
379.84	212.26
380.22	212.15
380.60	212.15
380.98	212.12
381.36	212.05
381.73	211.95
382.11	211.96
382.49	211.91
382.87	211.90
383.25	211.87
383.62	212.01
384.00	211.93
384.38	211.92
384.76	211.86
385.13	211.92
385.51	211.93
385.89	211.89
386.27	211.81
386.64	211.85
387.02	211.78
387.40	211.69
387.78	211.74
388.15	211.76
388.53	211.68
388.91	211.66
389.29	211.64
389.66	211.65
390.04	211.59
390.42	211.58
390.79	211.58
391.17	211.56
391.55	211.36
391.92	211.40
392.30	211.40
392.68	211.40
393.05	211.32
393.43	211.35
393.81	211.33
394.18	211.34
394.56	211.35
394.94	211.50
395.31	211.47
395.69	211.43
396.06	211.37
396.44	211.40
396.82	211.36
397.19	211.43
397.57	211.44
397.95	211.51
398.32	211.52
398.70	211.62
399.07	211.71
399.45	211.77
399.82	211.81
400.20	211.79
400.58	211.78
400.95	211.83
401.33	211.91
401.70	212.10
402.08	212.22
402.45	212.25
402.83	212.30
403.20	212.45
403.58	212.54
403.95	212.68
404.33	212.77
404.71	212.93
405.08	213.13
405.46	213.25
405.83	213.35
406.21	213.45
406.58	213.57
406.96	213.74
407.33	213.88
407.70	214.06
408.08	214.41
408.45	214.74
408.83	214.94
409.20	215.16
409.58	215.36
409.95	215.56
410.33	215.88
410.70	216.16
411.08	216.47
411.45	216.81
411.82	217.15
412.20	217.60
412.57	218.10
412.95	218.43
413.32	218.97
413.69	219.45
414.07	220.06
414.44	220.64
414.82	221.26
415.19	222.01
415.56	222.73
415.94	223.45
416.31	224.29
416.68	225.24
417.06	226.24
417.43	227.20
417.81	228.35
418.18	229.50
418.55	230.70
418.93	231.98
419.30	233.31
419.67	234.79
420.04	236.23
420.42	237.69
420.79	239.40
421.16	241.15
421.54	243.04
421.91	244.94
422.28	246.87
422.66	248.92
423.03	250.98
423.40	253.17
423.77	255.43
424.15	257.66
424.52	259.97
424.89	262.54
425.26	264.98
425.64	267.32
426.01	269.88
426.38	272.58
426.75	275.40
427.13	278.13
427.50	281.12
427.87	284.13
428.24	287.22
428.61	290.21
428.99	293.49
429.36	297.01
429.73	300.55
430.10	304.07
430.47	307.56
430.85	311.15
431.22	314.97
431.59	319.10
431.96	323.03
432.33	327.40
432.70	331.60
433.08	336.62
433.45	341.30
433.82	345.89
434.19	351.05
434.56	356.07
434.93	360.92
435.30	365.74
435.68	371.14
436.05	376.43
436.42	381.72
436.79	386.43
437.16	391.60
437.53	396.87
437.90	402.11
438.27	407.39
438.64	412.86
439.01	418.00
439.38	422.36
439.75	426.72
440.13	431.48
440.50	436.03
440.87	439.76
441.24	443.54
441.61	447.82
441.98	450.85
442.35	454.47
442.72	458.15
443.09	461.57
443.46	463.75
443.83	465.15
444.20	466.24
444.57	468.01
444.94	468.63
445.31	469.35
445.68	470.25
446.05	470.47
446.42	469.90
446.79	469.01
447.16	468.08
447.53	467.46
447.90	465.44
448.27	463.33
448.64	460.35
449.01	458.29
449.37	454.67
449.74	451.18
450.11	447.03
450.48	442.58
450.85	437.99
451.22	433.85
451.59	430.09
451.96	426.51
452.33	421.68
452.70	417.37
453.07	412.30
453.43	406.86
453.80	401.90
454.17	397.03
454.54	392.49
454.91	387.74
455.28	382.98
455.65	378.53
456.02	374.29
456.38	370.58
456.75	365.92
457.12	362.08
457.49	358.24
457.86	354.37
458.23	351.13
458.59	347.64
458.96	344.19
459.33	340.88
459.70	337.68
460.07	335.15
460.43	332.29
460.80	329.63
461.17	327.37
461.54	324.89
461.91	322.55
462.27	320.18
462.64	318.19
463.01	315.85
463.38	313.72
463.74	311.38
464.11	309.49
464.48	307.84
464.85	306.04
465.21	304.73
465.58	303.36
465.95	301.72
466.32	300.27
466.68	298.75
467.05	297.41
467.42	296.08
467.78	294.69
468.15	293.31
468.52	292.26
468.88	290.92
469.25	289.69
469.62	288.71
469.98	287.65
470.35	286.65
470.72	285.89
471.08	284.90
471.45	284.17
471.82	283.42
472.18	282.57
472.55	281.93
472.92	281.19
473.28	280.57
473.65	279.93
474.02	279.34
474.38	279.05
474.75	278.75
475.11	278.26
475.48	277.96
475.85	277.72
476.21	277.45
476.58	277.32
476.94	277.33
477.31	277.19
477.67	277.15
478.04	277.27
478.41	277.33
478.77	277.71
479.14	277.84
479.50	278.07
479.87	278.41
480.23	278.83
480.60	279.10
480.96	279.52
481.33	280.10
481.69	280.81
482.06	281.26
482.42	281.78
482.79	282.51
483.15	283.30
483.52	284.41
483.88	285.43
484.25	286.39
484.61	287.40
484.98	288.52
485.34	289.82
485.71	291.17
486.07	292.52
486.44	293.84
486.80	295.40
487.17	296.95
487.53	298.71
487.90	300.45
488.26	302.46
488.62	304.50
488.99	306.52
489.35	308.60
489.72	311.01
490.08	313.48
490.44	315.97
490.81	318.63
491.17	321.19
491.54	323.95
491.90	326.98
492.26	330.15
492.63	333.60
492.99	336.95
493.36	340.57
493.72	344.43
494.08	348.42
494.45	352.80
494.81	357.36
495.17	361.93
495.54	366.91
495.90	371.93
496.26	377.13
496.63	382.49
496.99	388.10
497.35	394.05
497.72	400.28
498.08	406.73
498.44	413.37
498.80	420.60
499.17	428.08
499.53	435.73
499.89	443.75
500.26	451.69
500.62	460.09
500.98	468.93
501.34	478.06
501.71	487.55
502.07	497.09
502.43	506.94
502.79	517.26
503.16	527.92
503.52	538.96
503.88	550.24
504.24	562.06
504.60	574.06
504.97	586.33
505.33	598.87
505.69	612.30
506.05	625.94
506.41	639.50
506.78	653.44
507.14	667.64
507.50	682.22
507.86	697.20
508.22	712.68
508.59	728.27
508.95	744.25
509.31	760.60
509.67	777.34
510.03	794.33
510.39	811.73
510.75	829.35
511.12	847.47
511.48	865.87
511.84	884.52
512.20	903.16
512.56	922.48
512.92	941.97
513.28	961.50
513.64	981.17
514.00	1001.05
514.37	1021.38
514.73	1042.20
515.09	1063.19
515.45	1084.42
515.81	1105.78
516.17	1127.08
516.53	1148.52
516.89	1170.03
517.25	1191.73
517.61	1213.56
517.97	1235.40
518.33	1257.07
518.69	1279.02
519.05	1301.08
519.41	1323.09
519.77	1345.85
520.13	1368.35
520.49	1390.74
520.85	1413.35
521.21	1435.93
521.57	1459.04
521.93	1481.34
522.29	1504.51
522.65	1527.01
523.01	1549.55
523.37	1571.57
523.73	1594.11
524.09	1616.71
524.45	1638.99
524.81	1661.46
525.17	1684.17
525.53	1706.56
525.89	1729.11
526.25	1751.04
526.61	1772.41
526.97	1794.42
527.33	1815.81
527.68	1837.19
528.04	1858.58
528.40	1879.13
528.76	1900.20
529.12	1920.92
529.48	1942.74
529.84	1963.03
530.20	1983.50
530.56	2004.21
530.91	2025.37
531.27	2045.89
531.63	2065.87
531.99	2086.14
532.35	2105.70
532.71	2124.95
533.07	2144.77
533.42	2163.47
533.78	2182.62
534.14	2201.53
534.50	2218.96
534.86	2237.25
535.21	2254.31
535.57	2272.40
535.93	2289.81
536.29	2306.72
536.65	2323.53
537.00	2339.12
537.36	2354.37
537.72	2369.83
538.08	2385.56
538.44	2400.72
538.79	2416.14
539.15	2431.18
539.51	2445.78
539.87	2461.04
540.22	2475.57
540.58	2490.55
540.94	2505.50
541.29	2518.65
541.65	2531.16
542.01	2544.61
542.37	2556.75
542.72	2568.91
543.08	2579.56
543.44	2591.66
543.79	2602.17
544.15	2612.94
544.51	2624.13
544.87	2635.30
545.22	2644.80
545.58	2652.82
545.94	2660.47
546.29	2666.77
546.65	2673.04
547.01	2679.47
547.36	2684.87
547.72	2690.32
548.07	2694.32
548.43	2698.10
548.79	2702.02
549.14	2706.69
549.50	2711.19
549.86	2715.18
550.21	2719.39
550.57	2724.01
550.92	2727.10
551.28	2730.01
551.64	2732.36
551.99	2734.80
552.35	2736.49
552.70	2739.15
553.06	2742.15
553.41	2745.13
553.77	2748.40
554.13	2750.80
554.48	2752.80
554.84	2754.82
555.19	2755.60
555.55	2755.96
555.90	2756.49
556.26	2757.33
556.61	2757.28
556.97	2755.89
557.32	2755.66
557.68	2754.20
558.03	2752.49
558.39	2750.74
558.74	2750.56
559.10	2749.42
559.45	2747.54
559.81	2746.59
560.16	2744.05
560.52	2741.69
560.87	2738.80
561.23	2735.22
561.58	2733.29
561.94	2730.20
562.29	2726.57
562.64	2724.39
563.00	2722.25
563.35	2720.04
563.71	2718.18
564.06	2716.08
564.42	2714.67
564.77	2712.19
565.12	2710.49
565.48	2707.60
565.83	2704.64
566.19	2700.94
566.54	2696.69
566.89	2692.89
567.25	2689.16
567.60	2686.00
567.96	2682.60
568.31	2679.00
568.66	2675.16
569.02	2670.16
569.37	2665.11
569.72	2661.09
570.08	2656.01
570.43	2650.35
570.78	2644.99
571.14	2638.68
571.49	2632.16
571.84	2625.88
572.20	2619.17
572.55	2612.61
572.90	2605.86
573.26	2598.84
573.61	2591.90
573.96	2585.36
574.31	2577.88
574.67	2569.81
575.02	2561.20
575.37	2552.50
575.72	2543.73
576.08	2536.22
576.43	2527.77
576.78	2519.93
577.13	2511.78
577.49	2503.54
577.84	2495.89
578.19	2487.71
578.54	2479.99
578.90	2473.19
579.25	2464.56
579.60	2455.10
579.95	2445.50
580.30	2437.26
580.66	2428.97
581.01	2419.88
581.36	2410.53
581.71	2401.64
582.06	2392.80
582.42	2384.69
582.77	2375.21
583.12	2365.88
583.47	2356.96
583.82	2348.58
584.17	2339.30
584.53	2329.98
584.88	2320.99
585.23	2311.27
585.58	2301.59
585.93	2291.92
586.28	2282.47
586.63	2273.61
586.98	2265.35
587.34	2257.14
587.69	2247.84
588.04	2238.56
588.39	2229.78
588.74	2220.75
589.09	2212.13
589.44	2202.49
589.79	2193.84
590.14	2186.01
590.49	2177.82
590.84	2168.66
591.19	2160.34
591.54	2151.59
591.89	2141.72
592.25	2132.39
592.60	2123.39
592.95	2114.30
593.30	2104.78
593.65	2094.83
594.00	2084.86
594.35	2076.48
594.70	2067.14
595.05	2058.54
595.40	2049.87
595.75	2040.59
596.10	2032.35
596.45	2023.65
596.80	2015.89
597.15	2007.26
597.50	1998.04
597.85	1989.34
598.19	1980.38
598.54	1971.46
598.89	1963.67
599.24	1956.84
599.59	1949.45
599.94	1941.93
600.29	1934.01
600.64	1926.02
600.99	1917.41
601.34	1910.23
601.69	1901.45
602.04	1893.17
602.39	1884.94
602.74	1876.97
603.08	1870.26
603.43	1862.85
603.78	1854.60
604.13	1846.38
604.48	1838.54
604.83	1831.54
605.18	1824.51
605.53	1816.96
605.87	1809.17
606.22	1801.74
606.57	1793.52
606.92	1785.26
607.27	1777.10
607.62	1769.54
607.96	1762.70
608.31	1756.28
608.66	1748.27
609.01	1740.56
609.36	1732.99
609.70	1724.75
610.05	1717.14
610.40	1708.84
610.75	1700.14
611.10	1692.50
611.44	1683.50
611.79	1674.48
612.14	1664.95
612.49	1655.26
612.83	1646.50
613.18	1636.94
613.53	1627.40
613.88	1617.77
614.22	1608.88
614.57	1599.60
614.92	1590.18
615.27	1580.63
615.61	1571.05
615.96	1561.83
616.31	1553.24
616.65	1545.03
617.00	1536.82
617.35	1527.76
617.70	1518.46
618.04	1509.63
618.39	1500.24
618.74	1491.78
619.08	1482.94
619.43	1474.72
619.78	1466.86
620.12	1459.00
620.47	1451.26
620.82	1442.53
621.16	1434.14
621.51	1425.51
621.85	1417.39
622.20	1408.77
622.55	1400.07
622.89	1391.77
623.24	1383.88
623.59	1375.17
623.93	1366.55
624.28	1358.11
624.62	1349.97
624.97	1341.89
625.32	1334.00
625.66	1326.38
626.01	1318.91
626.35	1311.51
626.70	1303.86
627.04	1296.30
627.39	1288.49
627.73	1280.79
628.08	1273.99
628.43	1266.64
628.77	1259.10
629.12	1251.32
629.46	1244.90
629.81	1237.76
630.15	1230.50
630.50	1223.07
630.84	1215.64
631.19	1208.39
631.53	1201.35
631.88	1193.70
632.22	1185.92
632.57	1178.87
632.91	1171.59
633.26	1164.09
633.60	1156.98
633.95	1149.94
634.29	1142.47
634.64	1135.43
634.98	1128.38
635.32	1121.19
635.67	1114.83
636.01	1108.36
636.36	1101.78
636.70	1094.63
637.05	1088.14
637.39	1081.65
637.73	1075.44
638.08	1069.63
638.42	1063.70
638.77	1057.16
639.11	1051.03
639.45	1045.24
639.80	1038.60
640.14	1032.21
640.49	1025.96
640.83	1019.53
641.17	1012.95
641.52	1006.96
641.86	1000.52
642.20	994.36
642.55	987.52
642.89	980.89
643.23	974.30
643.58	968.23
643.92	961.78
644.26	955.38
644.61	949.11
644.95	942.70
645.29	936.39
645.64	929.60
645.98	923.45
646.32	917.41
646.66	911.15
647.01	905.15
647.35	899.10
647.69	892.91
648.04	886.94
648.38	881.12
648.72	874.91
649.06	868.78
649.41	862.75
649.75	856.96
650.09	850.95
650.43	845.00
650.78	838.68
651.12	832.75
651.46	826.95
651.80	821.01
652.14	815.08
652.49	809.06
652.83	803.23
653.17	797.16
653.51	791.27
653.85	785.41
654.20	779.52
654.54	773.71
654.88	768.21
655.22	762.36
655.56	756.49
655.90	750.79
656.25	745.24
656.59	739.56
656.93	734.54
657.27	729.26
657.61	723.76
657.95	718.77
658.29	713.61
658.64	708.29
658.98	703.14
659.32	697.70
659.66	692.51
660.00	687.35
660.34	682.23
660.68	677.02
661.02	672.09
661.36	667.29
661.70	662.49
662.05	657.70
662.39	653.25
662.73	648.72
663.07	644.30
663.41	639.82
663.75	635.33
664.09	630.45
664.43	625.65
664.77	621.15
665.11	616.69
665.45	612.27
665.79	607.94
666.13	603.54
666.47	599.42
666.81	595.16
667.15	591.03
667.49	587.02
667.83	583.06
668.17	579.14
668.51	575.35
668.85	571.38
669.19	567.65
669.53	563.60
669.87	559.52
670.21	555.53
670.55	551.67
670.89	548.13
671.23	544.74
671.57	541.30
671.91	537.84
672.25	534.14
672.58	530.62
672.92	527.08
673.26	523.88
673.60	520.63
673.94	517.48
674.28	514.12
674.62	510.93
674.96	507.79
675.30	504.67
675.64	501.45
675.97	498.38
676.31	495.28
676.65	492.52
676.99	489.96
677.33	486.94
677.67	484.07
678.01	480.91
678.34	478.03
678.68	475.17
679.02	472.15
679.36	469.38
679.70	466.62
680.04	463.71
680.37	460.74
680.71	457.92
681.05	455.12
681.39	452.50
681.73	449.83
682.06	447.24
682.40	444.61
682.74	442.01
683.08	439.37
683.42	436.73
683.75	434.05
684.09	431.41
684.43	429.02
684.77	426.24
685.10	423.78
685.44	421.20
685.78	418.72
686.12	416.52
686.45	414.14
686.79	411.75
687.13	409.69
687.46	407.33
687.80	405.18
688.14	402.87
688.48	400.70
688.81	398.33
689.15	396.03
689.49	393.70
689.82	391.41
690.16	389.18
690.50	386.82
690.83	384.65
691.17	382.42
691.51	380.24
691.84	378.28
692.18	376.24
692.52	374.26
692.85	372.39
693.19	370.45
693.52	368.50
693.86	366.55
694.20	364.63
694.53	362.83
694.87	360.74
695.21	358.89
695.54	356.86
695.88	355.07
696.21	353.24
696.55	351.46
696.88	349.73
697.22	348.09
697.56	346.56
697.89	344.83
698.23	343.21
698.56	341.61
698.90	340.17
699.23	338.49
699.57	336.90
699.90	335.17
700.24	333.45
700.58	331.85
700.91	330.27
701.25	328.81
701.58	327.33
701.92	325.96
702.25	324.52
702.59	323.22
702.92	321.87
703.26	320.55
703.59	319.28
703.93	318.10
704.26	316.75
704.60	315.48
704.93	314.16
705.26	312.90
705.60	311.67
705.93	310.26
706.27	309.16
706.60	308.00
706.94	306.96
707.27	305.80
707.61	304.68
707.94	303.52
708.27	302.20
708.61	301.01
708.94	299.85
709.28	298.72
709.61	297.60
709.94	296.60
710.28	295.49
710.61	294.49
710.95	293.23
711.28	292.22
711.61	291.06
711.95	290.14
712.28	289.05
712.61	288.08
712.95	287.21
713.28	286.27
713.61	285.22
713.95	284.21
714.28	283.35
714.61	282.39
714.95	281.60
715.28	280.76
715.61	279.89
715.95	279.04
716.28	278.14
716.61	277.24
716.95	276.24
717.28	275.36
717.61	274.52
717.94	273.75
718.28	272.85
718.61	272.13
718.94	271.30
719.27	270.60
719.61	269.82
719.94	269.10
720.27	268.31
720.60	267.60
720.94	266.89
721.27	266.13
721.60	265.59
721.93	264.85
722.27	264.28
722.60	263.70
722.93	263.05
723.26	262.50
723.59	261.88
723.93	261.35
724.26	260.82
724.59	260.27
724.92	259.73
725.25	259.28
725.59	258.75
725.92	258.22
726.25	257.69
726.58	257.14
726.91	256.54
727.24	256.00
727.57	255.53
727.91	255.00
728.24	254.55
728.57	253.91
728.90	253.44
729.23	252.98
729.56	252.54
729.89	252.08
730.22	251.56
730.55	251.12
730.89	250.66
731.22	250.17
731.55	249.69
731.88	249.25
732.21	248.75
732.54	248.27
732.87	247.82
733.20	247.32
733.53	246.93
733.86	246.57
734.19	246.14
734.52	245.76
734.85	245.56
735.18	245.10
735.51	244.80
735.84	244.42
736.17	244.02
736.50	243.57
736.83	243.43
737.16	243.06
737.49	242.74
737.82	242.32
738.15	241.97
738.48	241.62
738.81	241.15
739.14	240.79
739.47	240.39
739.80	240.05
740.13	239.75
740.46	239.33
740.79	238.93
741.12	238.65
741.45	238.22
741.78	237.83
742.11	237.69
742.44	237.40
742.77	237.18
743.10	236.84
743.43	236.52
743.75	235.96
744.08	235.84
744.41	235.46
744.74	235.16
745.07	234.77
745.40	234.62
745.73	234.46
746.06	234.17
746.39	233.91
746.71	233.64
747.04	233.37
747.37	233.16
747.70	232.91
748.03	232.61
748.36	232.46
748.68	232.15
749.01	231.74
749.34	231.47
749.67	231.21
750.00	230.95
750.33	230.81
750.65	230.57
750.98	230.19
751.31	229.94
751.64	229.73
751.97	229.71
752.29	229.39
752.62	229.14
752.95	228.91
753.28	228.71
753.60	228.53
753.93	228.28
754.26	228.05
754.59	227.78
754.91	227.60
755.24	227.32
755.57	227.12
755.90	226.97
756.22	226.70
756.55	226.42
756.88	226.22
757.20	225.93
757.53	225.75
757.86	225.43
758.19	225.27
758.51	225.12
758.84	224.85
759.17	224.68
759.49	224.50
759.82	224.41
760.15	224.20
760.47	224.02
760.80	223.89
761.13	223.80
761.45	223.65
761.78	223.39
762.11	223.29
762.43	223.10
762.76	222.98
763.08	222.93
763.41	222.83
763.74	222.70
764.06	222.58
764.39	222.46
764.71	222.43
765.04	222.34
765.37	222.16
765.69	221.98
766.02	221.86
766.34	221.73
766.67	221.57
767.00	221.55
767.32	221.50
767.65	221.45
767.97	221.38
768.30	221.34
768.62	221.29
768.95	221.14
769.27	221.05
769.60	220.97
769.92	220.76
770.25	220.63
770.57	220.47
770.90	220.41
771.22	220.21
771.55	220.10
771.87	219.99
772.20	219.95
772.52	220.02
772.85	220.12
773.17	220.06
773.50	219.95
773.82	219.79
774.15	219.65
774.47	219.42
774.80	219.27
775.12	219.15
775.45	219.12
775.77	219.05
776.09	219.01
776.42	218.87
776.74	218.89
777.07	218.79
777.39	218.70
777.72	218.50
778.04	218.54
778.36	218.45
778.69	218.42
779.01	218.27
779.33	218.09
779.66	217.71
779.98	217.59
780.31	217.46
780.63	217.50
780.95	217.44
781.28	217.34
781.60	217.20
781.92	217.14
782.25	217.01
782.57	216.96
782.89	216.84
783.22	216.78
783.54	216.69
783.86	216.72
784.19	216.70
784.51	216.75
784.83	216.63
785.16	216.55
785.48	216.54
785.80	216.50
786.12	216.41
786.45	216.50
786.77	216.45
787.09	216.42
787.42	216.26
787.74	216.17
788.06	216.22
788.38	216.14
788.71	216.13
789.03	216.09
789.35	216.05
789.67	216.02
789.99	215.93
790.32	215.85
790.64	215.74
790.96	215.82
791.28	215.71
791.61	215.65
791.93	215.66
792.25	215.52
792.57	215.52
792.89	215.43
793.21	215.31
793.54	215.28
793.86	215.23
794.18	215.20
794.50	215.18
794.82	215.12
795.14	215.12
795.47	215.04
795.79	215.01
796.11	214.93
796.43	214.85
796.75	214.84
797.07	214.80
797.39	214.78
797.71	214.59
798.04	214.54
798.36	214.50
798.68	214.44
799.00	214.45
799.32	214.43
799.64	214.47
799.96	214.44
800.28	214.41
800.60	214.44
800.92	214.47
801.24	214.41
801.56	214.42
801.89	214.36
802.21	214.39
802.53	214.34
802.85	214.28
803.17	214.33
803.49	214.29
803.81	214.25
804.13	214.20
804.45	214.13
804.77	214.11
805.09	214.10
805.41	214.01
805.73	213.91
806.05	213.84
806.37	213.79
806.69	213.75
807.01	213.68
807.33	213.57
807.65	213.48
807.97	213.52
808.28	213.47
808.60	213.47
808.92	213.44
809.24	213.51
809.56	213.49
809.88	213.46
810.20	213.41
810.52	213.47
810.84	213.38
811.16	213.40
811.48	213.45
811.80	213.49
812.12	213.51
812.43	213.46
812.75	213.40
813.07	213.37
813.39	213.39
813.71	213.33
814.03	213.26
814.35	213.22
814.67	213.16
814.98	213.15
815.30	213.09
815.62	212.97
815.94	212.74
816.26	212.74
816.58	212.72
816.89	212.76
817.21	212.70
817.53	212.70
817.85	212.70
818.17	212.63
818.48	212.55
818.80	212.55
819.12	212.59
819.44	212.58
819.76	212.50
820.07	212.44
820.39	212.45
820.71	212.48
821.03	212.44
821.34	212.42
821.66	212.40
821.98	212.41
822.30	212.41
822.61	212.62
822.93	212.54
823.25	212.47
823.57	212.44
823.88	212.45
824.20	212.40
824.52	212.42
824.83	212.43
825.15	212.39
825.47	212.40
825.79	212.35
826.10	212.32
826.42	212.34
826.74	212.40
827.05	212.45
827.37	212.43
827.69	212.44
828.00	212.42
828.32	212.38
828.64	212.32
828.95	212.41
829.27	212.32
829.58	212.29
829.90	212.35
830.22	212.34
830.53	212.28
830.85	212.30
831.17	212.24
831.48	212.23
831.80	212.23
832.11	212.20
832.43	212.23
832.75	212.19
833.06	212.32
833.38	212.27
833.69	212.21
834.01	212.26
834.32	212.24
834.64	212.27
834.96	212.26
835.27	212.29
835.59	212.21
835.90	212.18
836.22	212.27
836.53	212.19
836.85	212.14
837.16	212.34
837.48	212.35
837.79	212.43
838.11	212.42
838.42	212.38
838.74	212.46
839.05	212.44
839.37	212.53
839.68	212.40
840.00	212.33
840.31	212.41
840.63	212.34
840.94	212.35
841.26	212.27
841.57	212.28
841.88	212.39
842.20	212.37
842.51	212.35
842.83	212.31
843.14	212.50
843.46	212.47
843.77	212.35
844.08	212.30
844.40	212.15
844.71	212.16
845.03	212.15
845.34	212.09
845.65	212.03
845.97	212.01
846.28	212.02
846.60	212.07
846.91	211.98
847.22	212.00
847.54	211.98
847.85	211.96
848.16	211.92
848.48	211.76
848.79	211.87
849.10	211.88
849.42	211.96
849.73	211.76
850.04	211.81
850.36	211.75
850.67	211.76
850.98	211.85
851.30	211.80
851.61	211.83
851.92	211.86
852.23	211.90
852.55	211.91
852.86	211.88
853.17	211.81
853.49	211.85
853.80	211.95
854.11	212.00
854.42	212.05
854.74	212.02
855.05	212.08
855.36	211.93
855.67	211.93
855.99	211.87
856.30	212.13
856.61	212.09
856.92	212.06
857.23	212.11
857.55	212.06
857.86	212.05
858.17	212.11
858.48	212.10
858.79	212.11
859.11	212.06
859.42	212.10
859.73	212.03
860.04	212.02
860.35	211.87
860.66	211.84
860.98	211.76
861.29	211.79
861.60	211.85
861.91	211.90
862.22	211.89
862.53	211.88
862.84	211.62
863.16	211.73
863.47	211.76
863.78	211.69
864.09	211.79
864.40	211.81
864.71	211.75
865.02	211.72
865.33	211.63
865.64	211.60
865.95	211.54
866.27	211.73
866.58	211.70
866.89	211.73
867.20	211.67
867.51	211.68
867.82	211.70
868.13	211.63
868.44	211.56
868.75	211.57
869.06	211.49
869.37	211.47
869.68	211.37
869.99	211.37
870.30	211.40
870.61	211.36
870.92	211.29
871.23	211.21
871.54	211.20
871.85	211.25
872.16	211.22
872.47	211.25
872.78	211.12
873.09	211.18
873.40	211.18
873.71	211.24
874.02	211.26
874.33	211.20
874.64	211.22
874.95	211.28
875.26	211.30
875.56	211.32
875.87	211.33
876.18	211.29
876.49	211.46
876.80	211.40
877.11	211.30
877.42	211.30
877.73	211.33
878.04	211.31
878.35	211.33
878.66	211.38
878.96	211.32
879.27	211.35
879.58	211.30
879.89	211.24
880.20	211.27
880.51	211.25
880.82	211.32
881.12	211.33
881.43	211.23
881.74	211.19
882.05	211.17
882.36	211.20
882.67	211.22
882.97	210.95
883.28	210.97
883.59	210.99
883.90	211.03
884.21	211.07
884.51	211.05
884.82	210.99
885.13	210.99
885.44	211.01
885.74	210.96
886.05	210.91
886.36	210.91
886.67	210.79
886.98	210.90
887.28	210.86
887.59	210.83
887.90	210.91
888.20	210.90
888.51	211.02
888.82	210.92
889.13	210.97
889.43	211.19
889.74	211.14
890.05	211.19
890.35	211.22
890.66	211.16
890.97	211.15
891.28	211.17
891.58	211.21
891.89	211.22
892.20	211.24
892.50	211.31
892.81	211.33
893.12	211.40
893.42	211.35
893.73	211.37
894.04	211.41
894.34	211.47
894.65	211.41
894.95	211.34
895.26	211.41
895.57	211.48
895.87	211.28
896.18	211.39
896.48	211.40
896.79	211.31
897.10	211.44
897.40	211.41
897.71	211.48
898.01	211.44
898.32	211.46
898.63	211.45
898.93	211.47
899.24	211.40
899.54	211.37
899.85	211.33
900.15	211.35
900.46	211.31
900.76	211.27
901.07	211.27
901.38	211.26
901.68	211.26
901.99	211.17
902.29	211.19
902.60	211.21
902.90	211.15
903.21	211.19
903.51	211.09
903.82	211.22
904.12	211.14
904.43	211.21
904.73	211.22
905.03	211.21
905.34	211.26
905.64	211.31
905.95	211.32
906.25	211.32
906.56	211.34
906.86	211.26
907.17	211.22
907.47	211.28
907.77	211.25
908.08	211.24
908.38	211.21
908.69	211.20
908.99	211.15
909.30	211.16
909.60	211.14
909.90	211.15
910.21	211.04
910.51	211.07
910.81	210.97
911.12	210.98
911.42	211.03
911.73	210.94
912.03	210.97
912.33	210.99
912.64	210.99
912.94	210.94
913.24	210.95
913.55	210.95
913.85	210.86
914.15	210.99
914.46	211.06
914.76	211.12
915.06	211.16
915.37	211.10
915.67	211.10
915.97	211.07
916.27	211.06
916.58	211.05
916.88	211.06
917.18	211.08
917.49	211.19
917.79	211.14
918.09	211.15
918.39	211.17
918.70	211.19
919.00	211.16
919.30	211.23
919.60	211.29
919.91	211.33
920.21	211.34
920.51	211.20
920.81	211.11
921.12	211.08
921.42	211.07
921.72	211.09
922.02	211.15
922.32	211.21
922.63	211.25
922.93	211.32
923.23	211.32
923.53	211.30
923.83	211.17
924.13	211.15
924.44	211.19
924.74	211.23
925.04	211.23
925.34	211.21
925.64	211.14
925.94	211.11
926.24	211.21
926.55	211.22
926.85	211.28
927.15	211.30
927.45	211.30
927.75	211.28
928.05	211.31
928.35	211.32
928.65	211.38
928.95	211.38
929.26	211.36
929.56	211.37
929.86	211.39
930.16	211.39
930.46	211.46
930.76	211.35
931.06	211.23
931.36	211.20
931.66	211.24
931.96	211.27
932.26	211.28
932.56	211.14
932.86	211.20
933.16	211.21
933.46	211.20
933.76	211.17
934.06	211.25
934.36	211.28
934.66	211.23
934.96	211.25
935.26	211.22
935.56	211.29
935.86	211.26
936.16	211.28
936.46	211.24
936.76	211.20
937.06	211.29
937.36	211.29
937.66	211.32
937.96	211.34
938.26	211.29
938.56	211.25
938.86	211.30
939.16	211.32
939.46	211.29
939.76	211.27
940.06	211.28
940.35	211.22
940.65	211.15
940.95	211.22
941.25	211.10
941.55	211.07
941.85	211.04
942.15	211.05
942.45	211.06
942.75	211.04
943.04	211.13
943.34	211.17
943.64	211.20
943.94	211.11
944.24	211.11
944.54	211.14
944.84	211.15
945.13	211.16
945.43	211.08
945.73	211.15
946.03	211.17
946.33	211.17
946.62	211.15
946.92	211.13
947.22	211.06
947.52	211.10
947.82	211.06
948.11	211.08
948.41	210.98
948.71	210.87
949.01	210.91
949.31	210.84
949.60	210.78
949.90	210.82
950.20	210.91
950.50	210.89
950.79	210.89
951.09	210.97
951.39	210.96
951.69	210.97
951.98	210.99
952.28	211.06
952.58	211.09
952.87	211.11
953.17	211.19
953.47	211.15
953.76	211.16
954.06	211.18
954.36	211.14
954.66	211.21
954.95	211.32
955.25	211.36
955.55	211.34
955.84	211.34
956.14	211.36
956.44	211.29
956.73	211.29
957.03	211.35
957.32	211.32
957.62	211.28
957.92	211.31
958.21	211.26
958.51	211.40
958.81	211.38
959.10	211.36
959.40	211.32
959.69	211.38
959.99	211.37
960.29	211.39
960.58	211.35
960.88	211.44
961.17	211.45
961.47	211.44
961.76	211.46
962.06	211.44
962.36	211.35
962.65	211.39
962.95	211.33
963.24	211.27
963.54	211.24
963.83	211.33
964.13	211.36
964.42	211.27
964.72	211.06
965.01	211.01
965.31	211.09
965.60	211.10
965.90	211.20
966.19	211.17
966.49	211.18
966.78	211.19
967.08	211.10
967.37	211.11
967.67	211.14
967.96	211.20
968.26	211.28
968.55	211.33
968.85	211.34
969.14	211.37
969.43	211.38
969.73	211.37
970.02	211.32
970.32	211.31
970.61	211.32
970.91	211.37
971.20	211.36
971.49	211.30
971.79	211.30
972.08	211.19
972.38	211.22
972.67	211.22
972.96	211.25
973.26	211.28
973.55	211.27
973.85	211.24
974.14	211.19
974.43	211.08
974.73	211.07
975.02	211.08
975.31	211.09
975.61	211.06
975.90	211.08
976.19	211.01
976.49	210.98
976.78	211.00
977.07	210.94
977.37	210.97
977.66	211.00
977.95	210.92
978.24	210.94
978.54	210.94
978.83	210.91
979.12	210.91
979.42	210.90
979.71	210.90
980.00	210.89
980.29	210.89
980.59	210.85
980.88	210.93
981.17	210.98
981.46	210.99
981.76	210.99
982.05	211.07
982.34	211.07
982.63	211.09
982.93	211.12
983.22	211.19
983.51	211.20
983.80	211.18
984.09	211.20
984.39	211.12
984.68	211.13
984.97	211.10
985.26	211.11
985.55	211.14
985.85	211.14
986.14	211.17
986.43	211.21
986.72	211.21
987.01	211.15
987.30	211.12
987.59	211.05
987.89	211.11
988.18	211.04
988.47	211.10
988.76	211.06
989.05	211.08
989.34	211.00
989.63	211.05
989.92	211.04
990.22	211.05
990.51	211.10
990.80	211.02
991.09	211.08
991.38	211.02
991.67	210.98
991.96	210.95
992.25	210.95
992.54	210.83
992.83	210.92
993.12	210.88
993.41	210.85
993.70	210.94
993.99	210.93
994.28	210.89
994.58	210.92
994.87	210.94
995.16	210.93
995.45	210.98
995.74	210.94
996.03	210.97
996.32	211.02
996.61	211.03
996.90	211.08
997.19	211.04
997.48	211.04
997.77	211.00
998.06	210.95
998.34	210.87
998.63	210.94
998.92	210.83
999.21	210.90
999.50	210.86
999.79	210.85
1000.08	210.85
1000.37	210.89
1000.66	210.84
1000.95	210.94
1001.24	210.93
1001.53	210.93
1001.82	210.95
1002.11	210.89
1002.40	210.93
1002.68	210.96
1002.97	211.02
1003.26	211.09
1003.55	211.05
1003.84	211.12
1004.13	211.21
1004.42	211.27
1004.71	211.22
1004.99	211.27
1005.28	211.29
1005.57	211.33
1005.86	211.34
1006.15	211.29
1006.44	211.23
1006.72	211.25
1007.01	211.10
1007.30	211.10
1007.59	211.00
1007.88	210.96
1008.17	210.98
1008.45	210.99
1008.74	210.98
1009.03	210.96
1009.32	210.92
1009.60	210.97
1009.89	210.98
1010.18	210.88
1010.47	210.88
1010.76	210.93
1011.04	210.91
1011.33	210.89
1011.62	210.90
1011.91	210.81
1012.19	210.86
1012.48	210.86
1012.77	210.90
1013.05	211.02
1013.34	210.98
1013.63	211.05
1013.92	211.05
1014.20	210.98
1014.49	210.95
1014.78	210.87
1015.06	210.81
1015.35	210.79
1015.64	210.80
1015.92	210.70
1016.21	210.77
1016.50	210.75
1016.78	210.76
1017.07	210.79
1017.36	210.73
1017.64	210.75
1017.93	210.80
1018.22	210.76
1018.50	210.78
1018.79	210.76
1019.08	210.71
1019.36	210.79
1019.65	210.77
1019.93	210.84
1020.22	210.84
1020.51	210.82
1020.79	210.80
1021.08	211.00
1021.36	210.70
1021.65	211.20
1021.94	211.55
1022.22	211.95
1022.51	210.35
1022.79	211.90
1023.08	209.35
1023.36	211.10
1023.65	209.75
>>>>>End Processed Spectral Data<<<<<
