SpectraSuite Data File
++++++++++++++++++++++++++++++++++++
Date: Mon Feb 25 17:36:18 EST 2013
User: group
Dark Spectrum Present: No
Reference Spectrum Present: No
Number of Sampled Component Spectra: 1
Spectrometers: USB2E7196
Integration Time (usec): 52000 (USB2E7196)
Spectra Averaged: 20 (USB2E7196)
Boxcar Smoothing: 10 (USB2E7196)
Correct for Electrical Dark: No (USB2E7196)
Strobe/Lamp Enabled: No (USB2E7196)
Correct for Detector Non-linearity: No (USB2E7196)
Correct for Stray Light: No (USB2E7196)
Number of Pixels in Processed Spectrum: 2048
>>>>>Begin Processed Spectral Data<<<<<
339.09	0.00
339.48	198.10
339.86	199.45
340.24	199.15
340.63	203.50
341.01	206.00
341.39	206.60
341.78	206.05
342.16	207.85
342.54	209.00
342.93	197.74
343.31	207.66
343.69	208.21
344.07	208.70
344.46	209.25
344.84	209.67
345.22	210.02
345.60	210.35
345.99	210.73
346.37	210.96
346.75	211.10
347.13	211.26
347.52	211.45
347.90	211.64
348.28	211.73
348.66	211.94
349.05	212.05
349.43	212.21
349.81	212.37
350.19	212.55
350.57	212.78
350.96	212.98
351.34	213.28
351.72	213.50
352.10	213.74
352.48	213.88
352.87	214.01
353.25	214.04
353.63	214.09
354.01	214.18
354.39	214.25
354.77	214.39
355.15	214.51
355.54	214.56
355.92	214.59
356.30	214.65
356.68	214.82
357.06	214.91
357.44	214.90
357.82	214.98
358.20	215.09
358.58	215.10
358.97	215.22
359.35	215.32
359.73	215.45
360.11	215.52
360.49	215.59
360.87	215.57
361.25	215.62
361.63	215.71
362.01	215.72
362.39	215.80
362.77	215.82
363.15	215.89
363.53	215.87
363.91	215.98
364.29	216.05
364.67	215.90
365.05	215.95
365.43	216.04
365.81	216.10
366.19	216.24
366.57	216.34
366.95	216.30
367.33	216.25
367.71	216.22
368.09	216.19
368.47	216.23
368.85	216.26
369.23	216.32
369.61	216.27
369.99	216.30
370.37	216.28
370.75	216.38
371.13	216.32
371.51	216.32
371.89	216.26
372.27	216.33
372.65	216.30
373.03	216.25
373.41	216.20
373.78	216.08
374.16	215.90
374.54	215.84
374.92	215.87
375.30	215.88
375.68	215.82
376.06	215.84
376.44	215.82
376.82	215.80
377.19	215.78
377.57	215.77
377.95	215.67
378.33	215.65
378.71	215.52
379.09	215.50
379.47	215.49
379.84	215.44
380.22	215.33
380.60	215.26
380.98	215.18
381.36	215.13
381.73	215.13
382.11	215.20
382.49	215.14
382.87	215.06
383.25	215.05
383.62	215.29
384.00	215.17
384.38	215.11
384.76	215.15
385.13	215.17
385.51	215.17
385.89	215.18
386.27	215.23
386.64	215.18
387.02	215.19
387.40	215.18
387.78	215.20
388.15	215.19
388.53	215.20
388.91	215.25
389.29	215.26
389.66	215.30
390.04	215.21
390.42	215.24
390.79	215.23
391.17	215.22
391.55	214.99
391.92	215.06
392.30	215.10
392.68	215.10
393.05	215.12
393.43	215.13
393.81	215.19
394.18	215.22
394.56	215.35
394.94	215.44
395.31	215.52
395.69	215.63
396.06	215.76
396.44	215.91
396.82	215.98
397.19	216.19
397.57	216.30
397.95	216.50
398.32	216.54
398.70	216.76
399.07	216.98
399.45	217.14
399.82	217.33
400.20	217.50
400.58	217.76
400.95	217.95
401.33	218.29
401.70	218.64
402.08	218.90
402.45	219.26
402.83	219.66
403.20	220.06
403.58	220.45
403.95	220.92
404.33	221.51
404.71	222.13
405.08	222.72
405.46	223.38
405.83	224.06
406.21	224.93
406.58	225.82
406.96	226.72
407.33	227.68
407.70	228.85
408.08	230.22
408.45	231.46
408.83	232.95
409.20	234.41
409.58	235.91
409.95	237.64
410.33	239.55
410.70	241.47
411.08	243.59
411.45	245.88
411.82	248.28
412.20	250.73
412.57	253.70
412.95	256.61
413.32	259.78
413.69	263.29
414.07	266.92
414.44	270.86
414.82	274.95
415.19	279.66
415.56	284.45
415.94	289.56
416.31	295.23
416.68	300.85
417.06	307.23
417.43	313.44
417.81	320.63
418.18	327.80
418.55	335.74
418.93	344.09
419.30	352.81
419.67	362.00
420.04	371.56
420.42	381.62
420.79	392.72
421.16	404.38
421.54	416.03
421.91	428.33
422.28	441.47
422.66	455.45
423.03	468.74
423.40	482.98
423.77	498.33
424.15	513.87
424.52	530.15
424.89	547.89
425.26	565.29
425.64	581.91
426.01	600.30
426.38	619.57
426.75	638.67
427.13	658.90
427.50	680.39
427.87	702.99
428.24	725.45
428.61	747.30
428.99	770.50
429.36	796.49
429.73	821.88
430.10	846.98
430.47	873.06
430.85	900.85
431.22	929.62
431.59	959.65
431.96	989.07
432.33	1021.76
432.70	1053.30
433.08	1090.32
433.45	1125.32
433.82	1160.49
434.19	1199.09
434.56	1237.65
434.93	1274.81
435.30	1311.61
435.68	1352.20
436.05	1393.10
436.42	1433.83
436.79	1471.47
437.16	1511.83
437.53	1555.15
437.90	1597.53
438.27	1639.32
438.64	1683.10
439.01	1723.62
439.38	1760.95
439.75	1796.51
440.13	1836.49
440.50	1874.68
440.87	1906.57
441.24	1940.03
441.61	1976.08
441.98	2004.25
442.35	2036.13
442.72	2067.99
443.09	2098.86
443.46	2119.77
443.83	2134.83
444.20	2148.50
444.57	2166.97
444.94	2177.67
445.31	2187.93
445.68	2196.86
446.05	2203.48
446.42	2202.97
446.79	2201.48
447.16	2199.57
447.53	2199.40
447.90	2188.09
448.27	2176.75
448.64	2158.74
449.01	2146.21
449.37	2121.81
449.74	2098.17
450.11	2068.62
450.48	2037.57
450.85	2005.74
451.22	1977.80
451.59	1951.10
451.96	1925.84
452.33	1890.74
452.70	1859.18
453.07	1821.43
453.43	1783.86
453.80	1746.32
454.17	1710.48
454.54	1677.01
454.91	1640.08
455.28	1604.06
455.65	1570.65
456.02	1535.15
456.38	1506.42
456.75	1470.26
457.12	1440.68
457.49	1410.82
457.86	1383.22
458.23	1357.62
458.59	1330.25
458.96	1302.48
459.33	1277.83
459.70	1252.62
460.07	1232.72
460.43	1209.95
460.80	1188.08
461.17	1169.45
461.54	1149.69
461.91	1130.68
462.27	1111.80
462.64	1095.95
463.01	1078.16
463.38	1060.23
463.74	1044.38
464.11	1029.40
464.48	1016.20
464.85	1001.76
465.21	990.57
465.58	978.34
465.95	964.47
466.32	952.51
466.68	940.61
467.05	928.73
467.42	917.50
467.78	905.66
468.15	894.03
468.52	885.34
468.88	874.35
469.25	864.73
469.62	856.67
469.98	847.95
470.35	839.77
470.72	832.17
471.08	824.39
471.45	817.35
471.82	810.01
472.18	802.45
472.55	796.84
472.92	790.58
473.28	785.06
473.65	779.54
474.02	774.24
474.38	769.93
474.75	765.97
475.11	761.60
475.48	758.25
475.85	755.57
476.21	752.85
476.58	750.38
476.94	748.63
477.31	746.59
477.67	744.37
478.04	742.93
478.41	742.10
478.77	741.42
479.14	740.75
479.50	740.55
479.87	741.07
480.23	741.60
480.60	741.49
480.96	741.66
481.33	743.21
481.69	744.69
482.06	745.71
482.42	746.70
482.79	748.22
483.15	750.89
483.52	754.25
483.88	757.21
484.25	760.37
484.61	763.50
484.98	766.76
485.34	770.94
485.71	775.49
486.07	780.28
486.44	785.22
486.80	790.53
487.17	796.36
487.53	802.75
487.90	809.35
488.26	816.68
488.62	824.24
488.99	831.75
489.35	839.65
489.72	848.98
490.08	858.91
490.44	868.72
490.81	878.35
491.17	887.86
491.54	898.70
491.90	909.26
492.26	920.73
492.63	932.90
492.99	945.51
493.36	958.17
493.72	971.53
494.08	985.38
494.45	1000.04
494.81	1015.15
495.17	1030.56
495.54	1046.54
495.90	1063.34
496.26	1080.39
496.63	1098.05
496.99	1115.75
497.35	1133.48
497.72	1151.69
498.08	1170.49
498.44	1189.56
498.80	1209.85
499.17	1229.91
499.53	1250.70
499.89	1272.10
500.26	1293.50
500.62	1314.44
500.98	1336.92
501.34	1359.06
501.71	1381.60
502.07	1404.49
502.43	1427.76
502.79	1450.71
503.16	1474.25
503.52	1497.62
503.88	1520.71
504.24	1543.95
504.60	1567.87
504.97	1592.53
505.33	1616.68
505.69	1641.93
506.05	1667.02
506.41	1691.90
506.78	1716.59
507.14	1741.30
507.50	1766.07
507.86	1791.04
508.22	1816.93
508.59	1841.57
508.95	1866.96
509.31	1892.56
509.67	1918.00
510.03	1943.55
510.39	1969.33
510.75	1994.51
511.12	2019.29
511.48	2044.25
511.84	2069.09
512.20	2093.58
512.56	2118.08
512.92	2143.15
513.28	2167.55
513.64	2191.82
514.00	2214.98
514.37	2238.54
514.73	2262.47
515.09	2285.21
515.45	2308.05
515.81	2330.67
516.17	2353.52
516.53	2375.44
516.89	2397.10
517.25	2417.18
517.61	2436.87
517.97	2456.44
518.33	2475.38
518.69	2494.86
519.05	2514.77
519.41	2534.46
519.77	2554.11
520.13	2572.73
520.49	2590.31
520.85	2607.73
521.21	2624.65
521.57	2642.96
521.93	2659.38
522.29	2676.89
522.65	2694.46
523.01	2711.47
523.37	2726.95
523.73	2742.79
524.09	2757.63
524.45	2772.21
524.81	2787.28
525.17	2802.56
525.53	2817.60
525.89	2833.10
526.25	2847.95
526.61	2861.08
526.97	2874.14
527.33	2886.76
527.68	2899.83
528.04	2912.80
528.40	2925.15
528.76	2937.43
529.12	2948.68
529.48	2961.15
529.84	2970.36
530.20	2980.70
530.56	2990.80
530.91	3002.14
531.27	3012.58
531.63	3023.61
531.99	3033.55
532.35	3043.39
532.71	3052.97
533.07	3063.76
533.42	3073.05
533.78	3082.76
534.14	3092.08
534.50	3100.65
534.86	3110.00
535.21	3117.25
535.57	3125.97
535.93	3133.61
536.29	3141.35
536.65	3150.08
537.00	3157.25
537.36	3165.58
537.72	3172.43
538.08	3179.55
538.44	3185.84
538.79	3191.70
539.15	3198.16
539.51	3205.46
539.87	3212.82
540.22	3219.14
540.58	3224.60
540.94	3230.50
541.29	3235.15
541.65	3238.48
542.01	3242.32
542.37	3245.92
542.72	3251.19
543.08	3254.77
543.44	3259.21
543.79	3261.90
544.15	3263.61
544.51	3266.99
544.87	3270.40
545.22	3272.46
545.58	3273.77
545.94	3274.90
546.29	3276.40
546.65	3276.97
547.01	3277.20
547.36	3278.09
547.72	3278.67
548.07	3278.21
548.43	3277.82
548.79	3276.65
549.14	3278.10
549.50	3279.44
549.86	3279.80
550.21	3278.69
550.57	3278.09
550.92	3276.08
551.28	3274.97
551.64	3273.75
551.99	3272.65
552.35	3271.83
552.70	3271.58
553.06	3271.36
553.41	3271.26
553.77	3270.55
554.13	3269.59
554.48	3269.65
554.84	3268.60
555.19	3267.03
555.55	3266.21
555.90	3265.21
556.26	3264.48
556.61	3262.62
556.97	3259.36
557.32	3256.29
557.68	3253.34
558.03	3250.10
558.39	3247.93
558.74	3247.72
559.10	3247.02
559.45	3245.35
559.81	3243.31
560.16	3240.82
560.52	3239.39
560.87	3237.15
561.23	3233.54
561.58	3230.26
561.94	3225.52
562.29	3220.45
562.64	3216.61
563.00	3212.60
563.35	3208.17
563.71	3204.77
564.06	3201.67
564.42	3198.82
564.77	3195.87
565.12	3192.80
565.48	3189.54
565.83	3186.43
566.19	3182.77
566.54	3178.93
566.89	3173.76
567.25	3168.65
567.60	3164.95
567.96	3159.47
568.31	3154.24
568.66	3150.32
569.02	3146.69
569.37	3143.03
569.72	3139.51
570.08	3135.42
570.43	3129.14
570.78	3124.22
571.14	3118.95
571.49	3113.32
571.84	3108.44
572.20	3102.10
572.55	3097.52
572.90	3091.88
573.26	3085.47
573.61	3077.96
573.96	3070.31
574.31	3063.13
574.67	3056.25
575.02	3047.84
575.37	3039.89
575.72	3032.85
576.08	3025.32
576.43	3016.63
576.78	3008.34
577.13	3000.45
577.49	2992.72
577.84	2986.47
578.19	2978.61
578.54	2970.46
578.90	2962.48
579.25	2952.96
579.60	2944.12
579.95	2934.02
580.30	2925.51
580.66	2916.37
581.01	2906.64
581.36	2896.34
581.71	2887.79
582.06	2878.74
582.42	2871.14
582.77	2861.60
583.12	2851.48
583.47	2842.00
583.82	2832.79
584.17	2823.07
584.53	2813.32
584.88	2803.24
585.23	2792.68
585.58	2783.14
585.93	2772.64
586.28	2763.37
586.63	2754.39
586.98	2745.95
587.34	2736.98
587.69	2726.93
588.04	2717.80
588.39	2708.92
588.74	2699.21
589.09	2689.63
589.44	2678.52
589.79	2667.21
590.14	2658.20
590.49	2647.44
590.84	2637.33
591.19	2627.91
591.54	2617.59
591.89	2606.61
592.25	2596.17
592.60	2584.64
592.95	2573.58
593.30	2563.44
593.65	2552.53
594.00	2542.13
594.35	2532.45
594.70	2521.92
595.05	2511.55
595.40	2500.46
595.75	2489.37
596.10	2479.35
596.45	2468.33
596.80	2459.15
597.15	2448.87
597.50	2437.70
597.85	2428.20
598.19	2416.73
598.54	2404.66
598.89	2393.92
599.24	2383.74
599.59	2373.23
599.94	2364.41
600.29	2354.30
600.64	2343.60
600.99	2331.66
601.34	2321.38
601.69	2309.03
602.04	2297.81
602.39	2287.42
602.74	2278.60
603.08	2269.84
603.43	2261.29
603.78	2251.60
604.13	2240.82
604.48	2230.51
604.83	2221.13
605.18	2211.38
605.53	2202.08
605.87	2193.18
606.22	2183.78
606.57	2173.51
606.92	2162.40
607.27	2151.58
607.62	2141.14
607.96	2131.27
608.31	2122.65
608.66	2112.00
609.01	2102.06
609.36	2092.11
609.70	2081.36
610.05	2069.13
610.40	2056.78
610.75	2044.51
611.10	2033.19
611.44	2021.40
611.79	2010.64
612.14	1999.29
612.49	1987.15
612.83	1975.77
613.18	1963.70
613.53	1952.25
613.88	1940.38
614.22	1929.10
614.57	1917.41
614.92	1905.70
615.27	1894.29
615.61	1882.17
615.96	1870.67
616.31	1859.68
616.65	1848.93
617.00	1838.39
617.35	1827.91
617.70	1816.87
618.04	1805.45
618.39	1794.07
618.74	1783.36
619.08	1771.66
619.43	1760.17
619.78	1749.67
620.12	1739.50
620.47	1729.86
620.82	1718.93
621.16	1708.82
621.51	1699.09
621.85	1688.75
622.20	1678.00
622.55	1666.85
622.89	1656.33
623.24	1645.96
623.59	1635.34
623.93	1624.81
624.28	1614.03
624.62	1603.55
624.97	1593.52
625.32	1584.07
625.66	1575.03
626.01	1565.71
626.35	1557.13
626.70	1548.03
627.04	1538.30
627.39	1528.04
627.73	1518.15
628.08	1509.17
628.43	1500.01
628.77	1491.14
629.12	1481.92
629.46	1473.21
629.81	1463.97
630.15	1454.61
630.50	1445.05
630.84	1435.39
631.19	1425.70
631.53	1416.17
631.88	1406.67
632.22	1397.91
632.57	1389.28
632.91	1380.01
633.26	1371.44
633.60	1362.15
633.95	1353.65
634.29	1345.38
634.64	1337.24
634.98	1328.00
635.32	1319.23
635.67	1311.32
636.01	1302.59
636.36	1294.00
636.70	1285.46
637.05	1277.65
637.39	1269.63
637.73	1261.92
638.08	1254.81
638.42	1247.55
638.77	1240.56
639.11	1233.20
639.45	1225.46
639.80	1217.37
640.14	1209.54
640.49	1201.49
640.83	1193.30
641.17	1185.19
641.52	1177.23
641.86	1169.11
642.20	1161.59
642.55	1153.21
642.89	1144.42
643.23	1136.18
643.58	1128.74
643.92	1120.90
644.26	1112.96
644.61	1105.23
644.95	1097.12
645.29	1089.16
645.64	1081.10
645.98	1073.03
646.32	1065.39
646.66	1057.84
647.01	1050.36
647.35	1042.73
647.69	1034.93
648.04	1027.85
648.38	1020.16
648.72	1013.06
649.06	1005.83
649.41	998.44
649.75	991.11
650.09	984.29
650.43	977.49
650.78	970.32
651.12	963.41
651.46	956.94
651.80	950.31
652.14	944.31
652.49	937.39
652.83	930.65
653.17	923.34
653.51	916.57
653.85	910.18
654.20	903.75
654.54	897.32
654.88	890.92
655.22	883.95
655.56	877.10
655.90	869.71
656.25	862.65
656.59	856.30
656.93	850.24
657.27	843.78
657.61	837.34
657.95	831.18
658.29	825.00
658.64	818.73
658.98	812.69
659.32	806.11
659.66	800.25
660.00	794.28
660.34	789.02
660.68	783.26
661.02	777.03
661.36	771.00
661.70	765.40
662.05	759.95
662.39	754.80
662.73	749.92
663.07	745.32
663.41	740.83
663.75	736.06
664.09	731.07
664.43	726.13
664.77	721.10
665.11	716.15
665.45	711.52
665.79	706.79
666.13	702.15
666.47	697.71
666.81	693.27
667.15	688.70
667.49	684.32
667.83	679.93
668.17	675.75
668.51	671.77
668.85	667.33
669.19	663.06
669.53	658.82
669.87	654.19
670.21	649.67
670.55	645.04
670.89	640.61
671.23	636.85
671.57	632.71
671.91	628.49
672.25	624.35
672.58	620.17
672.92	616.09
673.26	612.14
673.60	608.16
673.94	604.39
674.28	600.95
674.62	597.08
674.96	593.13
675.30	589.49
675.64	585.58
675.97	582.22
676.31	578.91
676.65	575.48
676.99	572.60
677.33	569.52
677.67	566.40
678.01	562.89
678.34	559.24
678.68	556.08
679.02	552.93
679.36	549.63
679.70	546.25
680.04	543.05
680.37	539.79
680.71	536.73
681.05	533.59
681.39	530.45
681.73	527.38
682.06	524.47
682.40	521.37
682.74	518.46
683.08	515.20
683.42	512.04
683.75	508.95
684.09	505.65
684.43	502.49
684.77	499.32
685.10	496.23
685.44	493.15
685.78	489.90
686.12	486.93
686.45	484.15
686.79	481.41
687.13	478.76
687.46	475.98
687.80	473.15
688.14	470.15
688.48	467.32
688.81	464.45
689.15	461.82
689.49	458.96
689.82	456.06
690.16	453.16
690.50	450.31
690.83	447.66
691.17	444.91
691.51	442.38
691.84	439.97
692.18	437.65
692.52	435.25
692.85	432.96
693.19	430.61
693.52	428.24
693.86	425.75
694.20	423.15
694.53	420.66
694.87	418.00
695.21	415.54
695.54	413.12
695.88	410.86
696.21	408.58
696.55	406.40
696.88	404.45
697.22	402.60
697.56	400.77
697.89	398.79
698.23	397.02
698.56	394.87
698.90	392.85
699.23	390.91
699.57	388.93
699.90	386.95
700.24	384.88
700.58	382.85
700.91	381.06
701.25	379.33
701.58	377.73
701.92	376.21
702.25	374.56
702.59	372.81
702.92	371.10
703.26	369.27
703.59	367.75
703.93	366.20
704.26	364.44
704.60	362.63
704.93	360.80
705.26	358.96
705.60	357.44
705.93	355.80
706.27	354.25
706.60	352.76
706.94	351.18
707.27	349.64
707.61	348.10
707.94	346.59
708.27	344.88
708.61	343.23
708.94	341.63
709.28	340.18
709.61	338.67
709.94	337.16
710.28	335.64
710.61	333.97
710.95	332.23
711.28	330.90
711.61	329.39
711.95	328.05
712.28	326.72
712.61	325.43
712.95	324.19
713.28	322.99
713.61	321.74
713.95	320.58
714.28	319.41
714.61	318.35
714.95	317.18
715.28	316.04
715.61	314.87
715.95	313.65
716.28	312.46
716.61	311.22
716.95	310.00
717.28	308.92
717.61	307.86
717.94	306.86
718.28	305.67
718.61	304.76
718.94	303.71
719.27	302.58
719.61	301.47
719.94	300.45
720.27	299.29
720.60	298.30
720.94	297.34
721.27	296.37
721.60	295.43
721.93	294.47
722.27	293.67
722.60	292.79
722.93	291.97
723.26	291.17
723.59	290.40
723.93	289.65
724.26	288.78
724.59	287.97
724.92	287.20
725.25	286.48
725.59	285.59
725.92	284.86
726.25	284.14
726.58	283.44
726.91	282.70
727.24	281.97
727.57	281.26
727.91	280.45
728.24	279.77
728.57	278.97
728.90	278.26
729.23	277.45
729.56	276.84
729.89	276.03
730.22	275.26
730.55	274.61
730.89	273.96
731.22	273.26
731.55	272.70
731.88	271.92
732.21	271.15
732.54	270.52
732.87	269.90
733.20	269.39
733.53	268.88
733.86	268.23
734.19	267.58
734.52	266.98
734.85	266.55
735.18	265.93
735.51	265.36
735.84	264.79
736.17	264.32
736.50	263.57
736.83	263.25
737.16	262.73
737.49	262.14
737.82	261.50
738.15	261.06
738.48	260.53
738.81	260.08
739.14	259.57
739.47	259.13
739.80	258.57
740.13	257.94
740.46	257.25
740.79	256.77
741.12	256.25
741.45	255.68
741.78	255.15
742.11	254.68
742.44	254.19
742.77	253.74
743.10	253.20
743.43	252.74
743.75	252.12
744.08	251.84
744.41	251.44
744.74	251.02
745.07	250.53
745.40	250.07
745.73	249.64
746.06	249.19
746.39	248.66
746.71	248.22
747.04	247.85
747.37	247.47
747.70	247.05
748.03	246.70
748.36	246.36
748.68	245.91
749.01	245.58
749.34	245.20
749.67	244.79
750.00	244.39
750.33	244.20
750.65	243.87
750.98	243.37
751.31	242.85
751.64	242.45
751.97	242.24
752.29	241.86
752.62	241.46
752.95	241.12
753.28	240.82
753.60	240.50
753.93	240.18
754.26	239.90
754.59	239.47
754.91	239.10
755.24	238.70
755.57	238.44
755.90	238.09
756.22	237.73
756.55	237.39
756.88	237.05
757.20	236.53
757.53	236.20
757.86	235.85
758.19	235.68
758.51	235.43
758.84	235.08
759.17	234.80
759.49	234.54
759.82	234.45
760.15	234.17
760.47	233.91
760.80	233.62
761.13	233.29
761.45	233.10
761.78	232.85
762.11	232.56
762.43	232.26
762.76	231.94
763.08	231.69
763.41	231.51
763.74	231.27
764.06	231.08
764.39	230.83
764.71	230.60
765.04	230.38
765.37	230.18
765.69	229.89
766.02	229.63
766.34	229.42
766.67	229.08
767.00	228.90
767.32	228.86
767.65	228.72
767.97	228.55
768.30	228.28
768.62	228.08
768.95	227.94
769.27	227.69
769.60	227.57
769.92	227.37
770.25	227.15
770.57	226.99
770.90	226.76
771.22	226.55
771.55	226.45
771.87	226.26
772.20	226.07
772.52	226.08
772.85	226.12
773.17	225.95
773.50	225.71
773.82	225.55
774.15	225.21
774.47	224.97
774.80	224.81
775.12	224.71
775.45	224.54
775.77	224.43
776.09	224.33
776.42	224.15
776.74	224.11
777.07	223.95
777.39	223.76
777.72	223.69
778.04	223.56
778.36	223.35
778.69	223.23
779.01	223.07
779.33	222.73
779.66	222.39
779.98	222.29
780.31	222.20
780.63	222.17
780.95	222.11
781.28	221.92
781.60	221.79
781.92	221.69
782.25	221.61
782.57	221.51
782.89	221.38
783.22	221.28
783.54	221.16
783.86	221.08
784.19	221.02
784.51	220.96
784.83	220.86
785.16	220.84
785.48	220.76
785.80	220.70
786.12	220.58
786.45	220.50
786.77	220.38
787.09	220.30
787.42	220.15
787.74	220.07
788.06	220.10
788.38	220.00
788.71	219.96
789.03	219.92
789.35	219.84
789.67	219.76
789.99	219.65
790.32	219.52
790.64	219.47
790.96	219.55
791.28	219.43
791.61	219.29
791.93	219.10
792.25	218.95
792.57	219.02
792.89	218.94
793.21	218.88
793.54	218.75
793.86	218.69
794.18	218.57
794.50	218.47
794.82	218.36
795.14	218.33
795.47	218.20
795.79	218.09
796.11	217.96
796.43	217.87
796.75	217.85
797.07	217.81
797.39	217.78
797.71	217.53
798.04	217.55
798.36	217.60
798.68	217.55
799.00	217.47
799.32	217.38
799.64	217.41
799.96	217.36
800.28	217.44
800.60	217.35
800.92	217.41
801.24	217.34
801.56	217.33
801.89	217.30
802.21	217.28
802.53	217.17
802.85	217.21
803.17	217.29
803.49	217.20
803.81	217.11
804.13	217.02
804.45	216.99
804.77	216.94
805.09	216.85
805.41	216.87
805.73	216.90
806.05	216.75
806.37	216.67
806.69	216.60
807.01	216.49
807.33	216.50
807.65	216.34
807.97	216.44
808.28	216.33
808.60	216.25
808.92	216.24
809.24	216.39
809.56	216.25
809.88	216.13
810.20	216.09
810.52	216.15
810.84	216.10
811.16	216.10
811.48	215.96
811.80	215.99
812.12	215.92
812.43	215.86
812.75	215.80
813.07	215.74
813.39	215.69
813.71	215.57
814.03	215.57
814.35	215.57
814.67	215.44
814.98	215.38
815.30	215.30
815.62	215.21
815.94	215.05
816.26	215.03
816.58	214.95
816.89	214.97
817.21	214.81
817.53	214.79
817.85	214.74
818.17	214.76
818.48	214.64
818.80	214.65
819.12	214.60
819.44	214.53
819.76	214.50
820.07	214.49
820.39	214.51
820.71	214.38
821.03	214.33
821.34	214.38
821.66	214.36
821.98	214.38
822.30	214.37
822.61	214.43
822.93	214.40
823.25	214.34
823.57	214.28
823.88	214.30
824.20	214.25
824.52	214.26
824.83	214.23
825.15	214.26
825.47	214.19
825.79	214.26
826.10	214.21
826.42	214.18
826.74	214.15
827.05	214.14
827.37	214.20
827.69	214.18
828.00	214.06
828.32	214.10
828.64	214.05
828.95	214.12
829.27	214.00
829.58	213.98
829.90	214.03
830.22	214.02
830.53	214.02
830.85	214.00
831.17	213.92
831.48	213.87
831.80	213.82
832.11	213.78
832.43	213.74
832.75	213.81
833.06	213.87
833.38	213.88
833.69	213.86
834.01	213.78
834.32	213.74
834.64	213.67
834.96	213.61
835.27	213.62
835.59	213.52
835.90	213.52
836.22	213.53
836.53	213.42
836.85	213.42
837.16	213.52
837.48	213.47
837.79	213.55
838.11	213.56
838.42	213.60
838.74	213.63
839.05	213.57
839.37	213.51
839.68	213.41
840.00	213.35
840.31	213.28
840.63	213.30
840.94	213.24
841.26	213.27
841.57	213.24
841.88	213.18
842.20	213.15
842.51	213.10
842.83	213.10
843.14	213.29
843.46	213.25
843.77	213.15
844.08	213.17
844.40	213.01
844.71	213.01
845.03	212.94
845.34	212.85
845.65	212.91
845.97	212.90
846.28	212.92
846.60	212.93
846.91	212.94
847.22	212.94
847.54	212.96
847.85	212.95
848.16	212.96
848.48	213.00
848.79	213.10
849.10	213.06
849.42	213.00
849.73	212.80
850.04	212.75
850.36	212.67
850.67	212.73
850.98	212.76
851.30	212.71
851.61	212.65
851.92	212.73
852.23	212.69
852.55	212.63
852.86	212.59
853.17	212.56
853.49	212.55
853.80	212.55
854.11	212.53
854.42	212.59
854.74	212.50
855.05	212.46
855.36	212.30
855.67	212.29
855.99	212.39
856.30	212.58
856.61	212.58
856.92	212.54
857.23	212.47
857.55	212.48
857.86	212.45
858.17	212.46
858.48	212.35
858.79	212.31
859.11	212.43
859.42	212.49
859.73	212.45
860.04	212.45
860.35	212.41
860.66	212.38
860.98	212.31
861.29	212.37
861.60	212.34
861.91	212.38
862.22	212.42
862.53	212.27
862.84	212.02
863.16	212.10
863.47	212.06
863.78	212.02
864.09	211.99
864.40	212.00
864.71	212.00
865.02	212.06
865.33	212.01
865.64	211.95
865.95	211.90
866.27	212.07
866.58	212.08
866.89	212.06
867.20	212.06
867.51	212.02
867.82	212.02
868.13	212.12
868.44	212.09
868.75	212.13
869.06	212.16
869.37	212.21
869.68	212.17
869.99	212.22
870.30	212.24
870.61	212.33
870.92	212.29
871.23	212.34
871.54	212.30
871.85	212.36
872.16	212.36
872.47	212.32
872.78	212.15
873.09	212.15
873.40	212.16
873.71	212.19
874.02	212.19
874.33	212.20
874.64	212.17
874.95	212.20
875.26	212.09
875.56	212.11
875.87	212.09
876.18	212.08
876.49	212.21
876.80	212.16
877.11	212.11
877.42	212.15
877.73	212.12
878.04	212.15
878.35	212.07
878.66	212.05
878.96	212.00
879.27	212.01
879.58	212.05
879.89	212.01
880.20	212.05
880.51	212.06
880.82	212.07
881.12	212.01
881.43	211.95
881.74	211.99
882.05	211.95
882.36	212.02
882.67	212.01
882.97	211.85
883.28	211.85
883.59	211.80
883.90	211.87
884.21	211.89
884.51	211.87
884.82	211.92
885.13	211.92
885.44	211.95
885.74	211.97
886.05	211.96
886.36	211.97
886.67	211.89
886.98	211.93
887.28	211.93
887.59	211.94
887.90	212.03
888.20	211.97
888.51	211.97
888.82	211.90
889.13	211.90
889.43	212.04
889.74	212.05
890.05	212.06
890.35	211.92
890.66	211.88
890.97	211.77
891.28	211.67
891.58	211.69
891.89	211.64
892.20	211.59
892.50	211.49
892.81	211.45
893.12	211.41
893.42	211.27
893.73	211.19
894.04	211.14
894.34	211.04
894.65	211.08
894.95	211.09
895.26	211.07
895.57	211.13
895.87	210.97
896.18	210.98
896.48	210.93
896.79	211.00
897.10	211.04
897.40	211.14
897.71	211.23
898.01	211.22
898.32	211.32
898.63	211.30
898.93	211.36
899.24	211.36
899.54	211.37
899.85	211.49
900.15	211.57
900.46	211.55
900.76	211.59
901.07	211.55
901.38	211.55
901.68	211.63
901.99	211.50
902.29	211.47
902.60	211.46
902.90	211.46
903.21	211.48
903.51	211.44
903.82	211.44
904.12	211.40
904.43	211.35
904.73	211.24
905.03	211.26
905.34	211.43
905.64	211.42
905.95	211.34
906.25	211.29
906.56	211.24
906.86	211.32
907.17	211.31
907.47	211.39
907.77	211.39
908.08	211.25
908.38	211.26
908.69	211.28
908.99	211.20
909.30	211.26
909.60	211.20
909.90	211.21
910.21	211.12
910.51	211.08
910.81	211.09
911.12	211.10
911.42	211.18
911.73	211.01
912.03	211.06
912.33	211.26
912.64	211.25
912.94	211.25
913.24	211.16
913.55	211.13
913.85	211.07
914.15	211.11
914.46	211.15
914.76	211.19
915.06	211.25
915.37	211.35
915.67	211.25
915.97	211.31
916.27	211.26
916.58	211.29
916.88	211.37
917.18	211.36
917.49	211.56
917.79	211.46
918.09	211.43
918.39	211.49
918.70	211.40
919.00	211.42
919.30	211.45
919.60	211.44
919.91	211.47
920.21	211.46
920.51	211.40
920.81	211.38
921.12	211.40
921.42	211.37
921.72	211.33
922.02	211.38
922.32	211.38
922.63	211.48
922.93	211.65
923.23	211.63
923.53	211.65
923.83	211.54
924.13	211.62
924.44	211.65
924.74	211.70
925.04	211.67
925.34	211.67
925.64	211.61
925.94	211.60
926.24	211.70
926.55	211.70
926.85	211.68
927.15	211.76
927.45	211.73
927.75	211.76
928.05	211.75
928.35	211.72
928.65	211.69
928.95	211.60
929.26	211.48
929.56	211.46
929.86	211.50
930.16	211.45
930.46	211.47
930.76	211.47
931.06	211.29
931.36	211.27
931.66	211.24
931.96	211.30
932.26	211.35
932.56	211.15
932.86	211.17
933.16	211.21
933.46	211.17
933.76	211.12
934.06	211.15
934.36	211.21
934.66	211.23
934.96	211.24
935.26	211.28
935.56	211.34
935.86	211.32
936.16	211.23
936.46	211.22
936.76	211.16
937.06	211.15
937.36	211.17
937.66	211.16
937.96	211.14
938.26	211.12
938.56	211.07
938.86	211.13
939.16	211.21
939.46	211.21
939.76	211.15
940.06	211.19
940.35	211.11
940.65	211.01
940.95	211.09
941.25	211.04
941.55	210.93
941.85	210.92
942.15	210.90
942.45	210.99
942.75	210.94
943.04	210.96
943.34	210.99
943.64	210.97
943.94	210.96
944.24	211.04
944.54	211.00
944.84	211.01
945.13	211.01
945.43	210.98
945.73	211.04
946.03	211.09
946.33	211.11
946.62	211.07
946.92	211.10
947.22	211.05
947.52	211.14
947.82	211.23
948.11	211.09
948.41	211.05
948.71	210.99
949.01	211.02
949.31	210.94
949.60	210.93
949.90	210.99
950.20	210.99
950.50	210.97
950.79	211.02
951.09	211.12
951.39	211.09
951.69	211.05
951.98	211.04
952.28	211.05
952.58	211.02
952.87	211.11
953.17	211.13
953.47	211.12
953.76	211.07
954.06	211.00
954.36	211.08
954.66	211.12
954.95	211.15
955.25	211.10
955.55	211.14
955.84	211.12
956.14	211.15
956.44	211.14
956.73	211.07
957.03	211.02
957.32	210.98
957.62	211.05
957.92	211.11
958.21	211.06
958.51	211.26
958.81	211.25
959.10	211.23
959.40	211.20
959.69	211.30
959.99	211.36
960.29	211.37
960.58	211.40
960.88	211.48
961.17	211.53
961.47	211.60
961.76	211.58
962.06	211.60
962.36	211.56
962.65	211.62
962.95	211.62
963.24	211.63
963.54	211.60
963.83	211.62
964.13	211.49
964.42	211.44
964.72	211.25
965.01	211.28
965.31	211.26
965.60	211.26
965.90	211.30
966.19	211.20
966.49	211.22
966.78	211.10
967.08	211.09
967.37	211.02
967.67	210.98
967.96	211.05
968.26	211.03
968.55	211.07
968.85	211.02
969.14	211.02
969.43	210.97
969.73	210.96
970.02	210.95
970.32	210.96
970.61	210.93
970.91	210.90
971.20	210.91
971.49	210.88
971.79	210.89
972.08	210.75
972.38	210.75
972.67	210.73
972.96	210.77
973.26	210.72
973.55	210.76
973.85	210.79
974.14	210.72
974.43	210.70
974.73	210.60
975.02	210.62
975.31	210.72
975.61	210.68
975.90	210.73
976.19	210.69
976.49	210.80
976.78	210.82
977.07	210.85
977.37	210.80
977.66	210.81
977.95	210.75
978.24	210.79
978.54	210.83
978.83	210.83
979.12	210.90
979.42	210.87
979.71	210.84
980.00	210.79
980.29	210.81
980.59	210.82
980.88	210.86
981.17	210.81
981.46	210.74
981.76	210.82
982.05	210.74
982.34	210.81
982.63	210.79
982.93	210.82
983.22	210.81
983.51	210.87
983.80	210.85
984.09	210.87
984.39	210.90
984.68	210.93
984.97	210.93
985.26	210.89
985.55	210.95
985.85	210.89
986.14	210.98
986.43	211.03
986.72	211.04
987.01	211.03
987.30	211.10
987.59	211.11
987.89	211.11
988.18	211.19
988.47	211.12
988.76	211.05
989.05	210.97
989.34	210.96
989.63	210.96
989.92	211.02
990.22	211.02
990.51	210.98
990.80	210.88
991.09	210.91
991.38	210.92
991.67	210.85
991.96	210.90
992.25	210.85
992.54	210.80
992.83	210.77
993.12	210.72
993.41	210.71
993.70	210.79
993.99	210.78
994.28	210.70
994.58	210.74
994.87	210.77
995.16	210.77
995.45	210.83
995.74	210.78
996.03	210.78
996.32	210.86
996.61	210.87
996.90	210.98
997.19	210.92
997.48	210.96
997.77	210.98
998.06	210.99
998.34	210.99
998.63	210.96
998.92	211.00
999.21	211.09
999.50	211.08
999.79	211.02
1000.08	211.03
1000.37	211.09
1000.66	211.01
1000.95	211.04
1001.24	211.07
1001.53	211.08
1001.82	211.09
1002.11	211.03
1002.40	211.05
1002.68	211.12
1002.97	211.21
1003.26	211.16
1003.55	211.08
1003.84	211.10
1004.13	211.13
1004.42	211.12
1004.71	211.18
1004.99	211.14
1005.28	211.15
1005.57	211.15
1005.86	211.16
1006.15	211.12
1006.44	211.09
1006.72	211.11
1007.01	211.09
1007.30	211.09
1007.59	211.02
1007.88	211.00
1008.17	210.99
1008.45	210.90
1008.74	210.83
1009.03	210.69
1009.32	210.76
1009.60	210.81
1009.89	210.80
1010.18	210.70
1010.47	210.68
1010.76	210.69
1011.04	210.75
1011.33	210.90
1011.62	210.90
1011.91	210.88
1012.19	210.92
1012.48	210.93
1012.77	210.96
1013.05	210.97
1013.34	210.98
1013.63	211.01
1013.92	211.09
1014.20	211.08
1014.49	211.11
1014.78	211.06
1015.06	211.01
1015.35	210.90
1015.64	210.92
1015.92	210.98
1016.21	211.05
1016.50	211.03
1016.78	211.00
1017.07	210.95
1017.36	210.79
1017.64	210.80
1017.93	210.78
1018.22	210.76
1018.50	210.78
1018.79	210.76
1019.08	210.70
1019.36	210.70
1019.65	210.71
1019.93	210.61
1020.22	210.76
1020.51	210.80
1020.79	210.83
1021.08	210.55
1021.36	211.15
1021.65	210.85
1021.94	210.05
1022.22	210.70
1022.51	211.40
1022.79	209.95
1023.08	213.05
1023.36	212.40
1023.65	210.35
>>>>>End Processed Spectral Data<<<<<
