SpectraSuite Data File
++++++++++++++++++++++++++++++++++++
Date: Mon Feb 25 17:33:03 EST 2013
User: group
Dark Spectrum Present: No
Reference Spectrum Present: No
Number of Sampled Component Spectra: 1
Spectrometers: USB2E7196
Integration Time (usec): 52000 (USB2E7196)
Spectra Averaged: 20 (USB2E7196)
Boxcar Smoothing: 10 (USB2E7196)
Correct for Electrical Dark: No (USB2E7196)
Strobe/Lamp Enabled: No (USB2E7196)
Correct for Detector Non-linearity: No (USB2E7196)
Correct for Stray Light: No (USB2E7196)
Number of Pixels in Processed Spectrum: 2048
>>>>>Begin Processed Spectral Data<<<<<
339.09	0.00
339.48	198.05
339.86	200.05
340.24	200.00
340.63	202.05
341.01	207.35
341.39	204.70
341.78	207.65
342.16	208.85
342.54	207.70
342.93	197.71
343.31	207.72
343.69	208.27
344.07	208.79
344.46	209.28
344.84	209.69
345.22	209.84
345.60	210.16
345.99	210.30
346.37	210.42
346.75	210.67
347.13	210.76
347.52	210.82
347.90	210.97
348.28	211.10
348.66	211.24
349.05	211.15
349.43	211.31
349.81	211.46
350.19	211.53
350.57	211.60
350.96	211.75
351.34	211.80
351.72	211.91
352.10	211.96
352.48	212.03
352.87	212.17
353.25	212.26
353.63	212.33
354.01	212.55
354.39	212.63
354.77	212.67
355.15	212.86
355.54	212.95
355.92	213.00
356.30	213.06
356.68	213.30
357.06	213.51
357.44	213.54
357.82	213.57
358.20	213.67
358.58	213.73
358.97	213.83
359.35	214.03
359.73	214.22
360.11	214.36
360.49	214.48
360.87	214.50
361.25	214.58
361.63	214.72
362.01	214.73
362.39	214.83
362.77	214.81
363.15	214.76
363.53	214.80
363.91	214.80
364.29	214.90
364.67	214.74
365.05	214.72
365.43	214.77
365.81	214.79
366.19	214.81
366.57	214.92
366.95	214.92
367.33	214.84
367.71	214.78
368.09	214.78
368.47	214.80
368.85	214.81
369.23	214.84
369.61	214.69
369.99	214.69
370.37	214.64
370.75	214.75
371.13	214.72
371.51	214.63
371.89	214.63
372.27	214.52
372.65	214.48
373.03	214.37
373.41	214.30
373.78	214.23
374.16	214.11
374.54	214.03
374.92	213.97
375.30	213.93
375.68	213.90
376.06	213.80
376.44	213.75
376.82	213.71
377.19	213.68
377.57	213.69
377.95	213.64
378.33	213.60
378.71	213.42
379.09	213.32
379.47	213.31
379.84	213.32
380.22	213.20
380.60	213.03
380.98	213.02
381.36	212.96
381.73	212.85
382.11	212.83
382.49	212.79
382.87	212.65
383.25	212.58
383.62	212.69
384.00	212.70
384.38	212.59
384.76	212.50
385.13	212.46
385.51	212.44
385.89	212.32
386.27	212.25
386.64	212.23
387.02	212.27
387.40	212.15
387.78	212.09
388.15	212.17
388.53	212.20
388.91	212.19
389.29	212.10
389.66	212.13
390.04	211.98
390.42	211.87
390.79	211.90
391.17	211.87
391.55	211.65
391.92	211.62
392.30	211.66
392.68	211.71
393.05	211.67
393.43	211.60
393.81	211.56
394.18	211.49
394.56	211.45
394.94	211.43
395.31	211.45
395.69	211.47
396.06	211.46
396.44	211.44
396.82	211.44
397.19	211.55
397.57	211.57
397.95	211.71
398.32	211.78
398.70	211.78
399.07	211.82
399.45	211.81
399.82	211.84
400.20	211.81
400.58	211.75
400.95	211.75
401.33	211.82
401.70	212.06
402.08	212.17
402.45	212.25
402.83	212.39
403.20	212.50
403.58	212.53
403.95	212.64
404.33	212.80
404.71	212.89
405.08	213.13
405.46	213.28
405.83	213.44
406.21	213.54
406.58	213.67
406.96	213.81
407.33	214.02
407.70	214.18
408.08	214.54
408.45	214.83
408.83	215.11
409.20	215.34
409.58	215.41
409.95	215.78
410.33	216.06
410.70	216.31
411.08	216.68
411.45	217.05
411.82	217.35
412.20	217.82
412.57	218.37
412.95	218.64
413.32	219.17
413.69	219.62
414.07	220.22
414.44	220.91
414.82	221.57
415.19	222.33
415.56	223.09
415.94	223.82
416.31	224.69
416.68	225.61
417.06	226.66
417.43	227.73
417.81	228.73
418.18	229.91
418.55	231.07
418.93	232.32
419.30	233.71
419.67	235.15
420.04	236.55
420.42	237.95
420.79	239.78
421.16	241.48
421.54	243.35
421.91	245.15
422.28	247.02
422.66	249.07
423.03	251.11
423.40	253.16
423.77	255.38
424.15	257.62
424.52	259.90
424.89	262.37
425.26	264.83
425.64	267.15
426.01	269.68
426.38	272.38
426.75	275.07
427.13	277.80
427.50	280.81
427.87	283.93
428.24	287.10
428.61	289.91
428.99	293.20
429.36	296.73
429.73	300.26
430.10	303.77
430.47	307.27
430.85	310.94
431.22	314.78
431.59	318.81
431.96	322.77
432.33	327.14
432.70	331.31
433.08	336.14
433.45	340.77
433.82	345.25
434.19	350.43
434.56	355.40
434.93	360.24
435.30	364.88
435.68	369.96
436.05	375.05
436.42	380.25
436.79	384.92
437.16	389.90
437.53	395.16
437.90	400.27
438.27	405.37
438.64	410.70
439.01	415.62
439.38	419.99
439.75	424.20
440.13	428.97
440.50	433.37
440.87	437.07
441.24	440.95
441.61	445.38
441.98	448.44
442.35	452.05
442.72	455.52
443.09	459.07
443.46	461.25
443.83	462.72
444.20	463.82
444.57	465.44
444.94	466.21
445.31	467.04
445.68	467.88
446.05	468.24
446.42	467.55
446.79	466.78
447.16	465.91
447.53	465.26
447.90	463.12
448.27	461.22
448.64	458.37
449.01	456.31
449.37	452.67
449.74	449.17
450.11	445.07
450.48	440.63
450.85	436.07
451.22	432.03
451.59	428.20
451.96	424.60
452.33	419.98
452.70	415.65
453.07	410.55
453.43	405.34
453.80	400.35
454.17	395.64
454.54	391.20
454.91	386.50
455.28	381.78
455.65	377.41
456.02	373.08
456.38	369.26
456.75	364.48
457.12	360.55
457.49	356.69
457.86	352.96
458.23	349.85
458.59	346.35
458.96	342.93
459.33	339.73
459.70	336.72
460.07	334.15
460.43	331.21
460.80	328.53
461.17	326.13
461.54	323.66
461.91	321.34
462.27	318.95
462.64	316.85
463.01	314.67
463.38	312.60
463.74	310.27
464.11	308.51
464.48	306.90
464.85	305.17
465.21	303.92
465.58	302.45
465.95	300.64
466.32	299.24
466.68	297.75
467.05	296.48
467.42	295.01
467.78	293.57
468.15	292.27
468.52	291.18
468.88	289.92
469.25	288.73
469.62	287.78
469.98	286.73
470.35	285.83
470.72	284.94
471.08	283.94
471.45	283.25
471.82	282.38
472.18	281.47
472.55	280.85
472.92	280.00
473.28	279.41
473.65	278.87
474.02	278.26
474.38	277.85
474.75	277.47
475.11	277.05
475.48	276.81
475.85	276.63
476.21	276.50
476.58	276.35
476.94	276.31
477.31	276.15
477.67	276.07
478.04	276.10
478.41	276.21
478.77	276.57
479.14	276.60
479.50	276.90
479.87	277.36
480.23	277.75
480.60	278.14
480.96	278.66
481.33	279.26
481.69	279.83
482.06	280.44
482.42	281.06
482.79	281.79
483.15	282.63
483.52	283.50
483.88	284.43
484.25	285.44
484.61	286.51
484.98	287.59
485.34	289.00
485.71	290.39
486.07	291.86
486.44	293.18
486.80	294.77
487.17	296.35
487.53	298.10
487.90	299.97
488.26	301.94
488.62	303.84
488.99	305.85
489.35	308.08
489.72	310.45
490.08	312.87
490.44	315.40
490.81	318.10
491.17	320.87
491.54	323.77
491.90	326.84
492.26	329.99
492.63	333.40
492.99	336.89
493.36	340.52
493.72	344.33
494.08	348.37
494.45	352.67
494.81	357.12
495.17	361.74
495.54	366.59
495.90	371.72
496.26	376.97
496.63	382.58
496.99	388.35
497.35	394.46
497.72	400.63
498.08	407.05
498.44	413.73
498.80	420.91
499.17	428.25
499.53	435.86
499.89	443.94
500.26	452.09
500.62	460.14
500.98	468.99
501.34	478.12
501.71	487.48
502.07	497.13
502.43	507.18
502.79	517.28
503.16	527.92
503.52	538.80
503.88	550.05
504.24	561.58
504.60	573.32
504.97	585.53
505.33	598.13
505.69	611.61
506.05	625.15
506.41	638.59
506.78	652.29
507.14	666.44
507.50	680.94
507.86	695.85
508.22	711.42
508.59	726.92
508.95	742.81
509.31	759.12
509.67	775.76
510.03	792.80
510.39	810.45
510.75	828.27
511.12	846.27
511.48	864.59
511.84	883.23
512.20	902.10
512.56	921.22
512.92	940.57
513.28	959.79
513.64	979.45
514.00	999.48
514.37	1019.80
514.73	1040.57
515.09	1061.21
515.45	1081.99
515.81	1103.09
516.17	1124.28
516.53	1145.61
516.89	1167.22
517.25	1188.79
517.61	1210.24
517.97	1231.84
518.33	1253.24
518.69	1274.88
519.05	1296.96
519.41	1319.15
519.77	1341.67
520.13	1363.82
520.49	1385.96
520.85	1408.82
521.21	1431.28
521.57	1454.16
521.93	1476.40
522.29	1499.30
522.65	1521.99
523.01	1544.53
523.37	1566.72
523.73	1589.19
524.09	1611.35
524.45	1633.51
524.81	1655.90
525.17	1678.54
525.53	1701.03
525.89	1723.38
526.25	1745.69
526.61	1766.78
526.97	1788.40
527.33	1809.72
527.68	1831.32
528.04	1852.75
528.40	1873.04
528.76	1893.88
529.12	1914.59
529.48	1936.43
529.84	1956.48
530.20	1976.85
530.56	1997.42
530.91	2018.14
531.27	2038.34
531.63	2058.70
531.99	2078.44
532.35	2097.78
532.71	2116.54
533.07	2135.84
533.42	2154.17
533.78	2173.12
534.14	2192.10
534.50	2209.06
534.86	2227.08
535.21	2243.84
535.57	2261.60
535.93	2279.08
536.29	2295.70
536.65	2312.28
537.00	2327.53
537.36	2343.05
537.72	2358.45
538.08	2373.65
538.44	2388.91
538.79	2404.28
539.15	2418.83
539.51	2433.49
539.87	2448.70
540.22	2463.27
540.58	2478.00
540.94	2492.89
541.29	2505.67
541.65	2517.86
542.01	2531.50
542.37	2543.26
542.72	2555.65
543.08	2566.42
543.44	2578.30
543.79	2588.71
544.15	2598.99
544.51	2610.05
544.87	2621.21
545.22	2630.31
545.58	2638.71
545.94	2646.01
546.29	2652.64
546.65	2659.34
547.01	2665.75
547.36	2671.09
547.72	2676.70
548.07	2680.69
548.43	2684.42
548.79	2688.11
549.14	2692.82
549.50	2696.92
549.86	2701.19
550.21	2705.05
550.57	2709.26
550.92	2711.79
551.28	2714.61
551.64	2717.15
551.99	2719.65
552.35	2721.06
552.70	2723.61
553.06	2726.67
553.41	2729.63
553.77	2732.66
554.13	2734.53
554.48	2736.69
554.84	2738.31
555.19	2739.02
555.55	2739.65
555.90	2740.47
556.26	2741.13
556.61	2741.02
556.97	2739.89
557.32	2739.22
557.68	2737.64
558.03	2736.17
558.39	2734.45
558.74	2733.99
559.10	2732.76
559.45	2730.60
559.81	2729.47
560.16	2726.82
560.52	2724.28
560.87	2721.33
561.23	2717.46
561.58	2715.34
561.94	2711.84
562.29	2708.31
562.64	2705.95
563.00	2703.50
563.35	2700.92
563.71	2699.05
564.06	2696.75
564.42	2694.88
564.77	2692.49
565.12	2690.59
565.48	2687.58
565.83	2684.93
566.19	2681.70
566.54	2677.54
566.89	2673.76
567.25	2669.79
567.60	2666.77
567.96	2662.92
568.31	2659.53
568.66	2655.70
569.02	2650.90
569.37	2645.90
569.72	2641.86
570.08	2636.73
570.43	2631.04
570.78	2625.20
571.14	2618.96
571.49	2612.25
571.84	2606.45
572.20	2599.55
572.55	2592.77
572.90	2585.70
573.26	2578.57
573.61	2571.19
573.96	2564.75
574.31	2556.83
574.67	2548.70
575.02	2539.89
575.37	2531.34
575.72	2522.21
576.08	2514.48
576.43	2506.06
576.78	2498.42
577.13	2490.60
577.49	2482.47
577.84	2474.65
578.19	2467.05
578.54	2459.70
578.90	2452.81
579.25	2443.73
579.60	2434.88
579.95	2426.02
580.30	2418.06
580.66	2409.75
581.01	2400.99
581.36	2391.70
581.71	2383.28
582.06	2375.07
582.42	2367.07
582.77	2357.97
583.12	2349.12
583.47	2340.33
583.82	2331.81
584.17	2322.32
584.53	2313.05
584.88	2304.26
585.23	2295.04
585.58	2285.65
585.93	2275.83
586.28	2266.57
586.63	2257.78
586.98	2249.17
587.34	2240.61
587.69	2231.36
588.04	2222.12
588.39	2214.06
588.74	2205.19
589.09	2196.64
589.44	2186.96
589.79	2178.41
590.14	2170.86
590.49	2162.78
590.84	2153.85
591.19	2145.85
591.54	2136.99
591.89	2126.88
592.25	2117.47
592.60	2108.04
592.95	2098.61
593.30	2089.14
593.65	2079.30
594.00	2069.72
594.35	2061.62
594.70	2052.61
595.05	2043.84
595.40	2035.21
595.75	2025.32
596.10	2016.74
596.45	2008.04
596.80	2000.41
597.15	1992.01
597.50	1982.83
597.85	1974.15
598.19	1965.43
598.54	1956.62
598.89	1949.10
599.24	1942.48
599.59	1934.92
599.94	1927.96
600.29	1920.08
600.64	1912.17
600.99	1903.87
601.34	1896.90
601.69	1887.76
602.04	1879.69
602.39	1871.68
602.74	1863.95
603.08	1857.24
603.43	1850.08
603.78	1842.28
604.13	1834.06
604.48	1826.04
604.83	1818.76
605.18	1811.79
605.53	1804.21
605.87	1796.45
606.22	1789.05
606.57	1781.10
606.92	1773.04
607.27	1764.94
607.62	1757.78
607.96	1751.19
608.31	1745.22
608.66	1737.28
609.01	1730.09
609.36	1722.21
609.70	1714.36
610.05	1706.56
610.40	1698.15
610.75	1689.78
611.10	1682.33
611.44	1673.25
611.79	1664.34
612.14	1655.09
612.49	1645.42
612.83	1636.75
613.18	1626.98
613.53	1617.64
613.88	1607.90
614.22	1598.99
614.57	1589.78
614.92	1580.36
615.27	1570.68
615.61	1560.55
615.96	1551.47
616.31	1542.98
616.65	1535.07
617.00	1526.62
617.35	1517.89
617.70	1509.41
618.04	1500.25
618.39	1490.63
618.74	1482.34
619.08	1473.76
619.43	1465.54
619.78	1457.68
620.12	1449.64
620.47	1442.16
620.82	1433.56
621.16	1425.45
621.51	1416.99
621.85	1408.74
622.20	1400.10
622.55	1391.74
622.89	1383.65
623.24	1375.96
623.59	1367.22
623.93	1358.61
624.28	1350.28
624.62	1342.31
624.97	1333.90
625.32	1326.03
625.66	1318.60
626.01	1311.24
626.35	1304.01
626.70	1296.21
627.04	1288.72
627.39	1280.95
627.73	1273.42
628.08	1266.66
628.43	1259.07
628.77	1251.64
629.12	1244.14
629.46	1237.82
629.81	1230.71
630.15	1223.43
630.50	1215.93
630.84	1208.81
631.19	1201.55
631.53	1194.60
631.88	1186.86
632.22	1179.19
632.57	1172.43
632.91	1165.03
633.26	1157.38
633.60	1150.13
633.95	1143.28
634.29	1135.96
634.64	1129.38
634.98	1122.03
635.32	1114.90
635.67	1108.51
636.01	1102.10
636.36	1095.32
636.70	1088.55
637.05	1081.93
637.39	1075.60
637.73	1069.14
638.08	1063.18
638.42	1057.12
638.77	1050.84
639.11	1044.64
639.45	1038.69
639.80	1032.16
640.14	1025.73
640.49	1019.54
640.83	1013.31
641.17	1006.84
641.52	1000.85
641.86	994.16
642.20	988.11
642.55	981.51
642.89	975.09
643.23	968.60
643.58	962.76
643.92	956.16
644.26	949.90
644.61	943.81
644.95	937.77
645.29	931.31
645.64	924.80
645.98	918.66
646.32	912.66
646.66	906.64
647.01	900.78
647.35	895.02
647.69	888.71
648.04	882.60
648.38	876.98
648.72	870.80
649.06	864.93
649.41	858.93
649.75	853.11
650.09	847.14
650.43	841.30
650.78	835.13
651.12	829.10
651.46	823.48
651.80	817.43
652.14	811.53
652.49	805.78
652.83	799.96
653.17	793.88
653.51	788.17
653.85	782.32
654.20	776.28
654.54	770.56
654.88	765.37
655.22	759.77
655.56	753.86
655.90	747.91
656.25	742.05
656.59	736.52
656.93	731.33
657.27	726.22
657.61	720.75
657.95	715.59
658.29	710.48
658.64	705.23
658.98	700.17
659.32	694.65
659.66	689.31
660.00	684.05
660.34	678.68
660.68	673.43
661.02	668.35
661.36	663.75
661.70	658.80
662.05	654.14
662.39	649.71
662.73	645.40
663.07	641.15
663.41	636.93
663.75	632.46
664.09	627.82
664.43	623.09
664.77	618.70
665.11	614.19
665.45	609.75
665.79	605.37
666.13	600.86
666.47	596.65
666.81	592.65
667.15	588.66
667.49	584.96
667.83	581.13
668.17	577.45
668.51	573.57
668.85	569.74
669.19	565.90
669.53	562.01
669.87	557.95
670.21	554.06
670.55	550.18
670.89	546.83
671.23	543.36
671.57	540.01
671.91	536.45
672.25	532.99
672.58	529.50
672.92	525.97
673.26	522.88
673.60	519.74
673.94	516.39
674.28	513.00
674.62	509.80
674.96	506.62
675.30	503.41
675.64	500.16
675.97	496.96
676.31	493.90
676.65	490.89
676.99	488.26
677.33	485.37
677.67	482.51
678.01	479.32
678.34	476.36
678.68	473.25
679.02	470.40
679.36	467.54
679.70	464.65
680.04	461.86
680.37	458.85
680.71	456.07
681.05	453.45
681.39	450.76
681.73	448.03
682.06	445.44
682.40	442.82
682.74	440.19
683.08	437.76
683.42	435.08
683.75	432.42
684.09	429.62
684.43	427.15
684.77	424.54
685.10	422.02
685.44	419.41
685.78	417.05
686.12	414.71
686.45	412.37
686.79	410.19
687.13	407.97
687.46	405.88
687.80	403.59
688.14	401.21
688.48	399.09
688.81	396.92
689.15	394.67
689.49	392.29
689.82	390.17
690.16	387.74
690.50	385.51
690.83	383.33
691.17	381.05
691.51	378.80
691.84	376.75
692.18	374.83
692.52	372.93
692.85	371.07
693.19	369.19
693.52	367.23
693.86	365.17
694.20	363.29
694.53	361.31
694.87	359.33
695.21	357.40
695.54	355.54
695.88	353.58
696.21	351.73
696.55	350.03
696.88	348.14
697.22	346.57
697.56	345.05
697.89	343.46
698.23	341.95
698.56	340.47
698.90	338.96
699.23	337.36
699.57	335.79
699.90	334.08
700.24	332.36
700.58	330.73
700.91	329.32
701.25	327.90
701.58	326.53
701.92	325.10
702.25	323.71
702.59	322.41
702.92	321.15
703.26	319.71
703.59	318.45
703.93	317.29
704.26	316.02
704.60	314.59
704.93	313.27
705.26	312.02
705.60	310.78
705.93	309.49
706.27	308.22
706.60	306.98
706.94	305.98
707.27	304.87
707.61	303.88
707.94	302.73
708.27	301.40
708.61	300.14
708.94	299.09
709.28	297.97
709.61	296.81
709.94	295.70
710.28	294.69
710.61	293.69
710.95	292.47
711.28	291.53
711.61	290.57
711.95	289.57
712.28	288.55
712.61	287.51
712.95	286.62
713.28	285.77
713.61	284.86
713.95	283.83
714.28	282.88
714.61	281.87
714.95	280.86
715.28	279.94
715.61	279.01
715.95	278.06
716.28	277.20
716.61	276.31
716.95	275.47
717.28	274.60
717.61	273.66
717.94	273.00
718.28	272.09
718.61	271.28
718.94	270.45
719.27	269.72
719.61	269.05
719.94	268.33
720.27	267.55
720.60	266.80
720.94	266.10
721.27	265.42
721.60	264.84
721.93	264.32
722.27	263.87
722.60	263.28
722.93	262.62
723.26	262.04
723.59	261.44
723.93	260.92
724.26	260.42
724.59	259.84
724.92	259.22
725.25	258.73
725.59	258.22
725.92	257.77
726.25	257.29
726.58	256.79
726.91	256.20
727.24	255.71
727.57	255.29
727.91	254.78
728.24	254.36
728.57	253.83
728.90	253.37
729.23	252.83
729.56	252.50
729.89	252.12
730.22	251.67
730.55	251.19
730.89	250.77
731.22	250.36
731.55	249.92
731.88	249.54
732.21	248.99
732.54	248.52
732.87	248.12
733.20	247.63
733.53	247.15
733.86	246.75
734.19	246.29
734.52	245.91
734.85	245.63
735.18	245.08
735.51	244.72
735.84	244.30
736.17	243.92
736.50	243.45
736.83	243.30
737.16	242.90
737.49	242.59
737.82	242.17
738.15	241.76
738.48	241.43
738.81	241.10
739.14	240.69
739.47	240.38
739.80	239.91
740.13	239.60
740.46	239.27
740.79	238.99
741.12	238.69
741.45	238.31
741.78	237.95
742.11	237.81
742.44	237.49
742.77	237.27
743.10	236.90
743.43	236.58
743.75	236.02
744.08	235.97
744.41	235.62
744.74	235.33
745.07	235.06
745.40	234.84
745.73	234.65
746.06	234.44
746.39	234.10
746.71	233.88
747.04	233.56
747.37	233.30
747.70	233.04
748.03	232.76
748.36	232.49
748.68	232.17
749.01	231.81
749.34	231.57
749.67	231.36
750.00	231.16
750.33	231.04
750.65	230.89
750.98	230.41
751.31	230.15
751.64	229.92
751.97	229.75
752.29	229.55
752.62	229.19
752.95	228.95
753.28	228.70
753.60	228.48
753.93	228.36
754.26	228.09
754.59	227.80
754.91	227.59
755.24	227.40
755.57	227.15
755.90	227.02
756.22	226.80
756.55	226.52
756.88	226.30
757.20	225.98
757.53	225.71
757.86	225.57
758.19	225.41
758.51	225.22
758.84	224.95
759.17	224.73
759.49	224.58
759.82	224.52
760.15	224.37
760.47	224.22
760.80	223.94
761.13	223.82
761.45	223.56
761.78	223.37
762.11	223.26
762.43	223.16
762.76	222.98
763.08	222.84
763.41	222.64
763.74	222.50
764.06	222.42
764.39	222.26
764.71	222.10
765.04	221.95
765.37	221.75
765.69	221.69
766.02	221.55
766.34	221.39
766.67	221.19
767.00	221.14
767.32	221.04
767.65	220.99
767.97	220.88
768.30	220.88
768.62	220.83
768.95	220.64
769.27	220.53
769.60	220.41
769.92	220.27
770.25	220.18
770.57	220.03
770.90	219.94
771.22	219.83
771.55	219.68
771.87	219.68
772.20	219.61
772.52	219.62
772.85	219.69
773.17	219.63
773.50	219.58
773.82	219.49
774.15	219.36
774.47	219.25
774.80	219.16
775.12	219.04
775.45	218.93
775.77	218.88
776.09	218.78
776.42	218.73
776.74	218.78
777.07	218.67
777.39	218.61
777.72	218.46
778.04	218.44
778.36	218.37
778.69	218.27
779.01	218.14
779.33	217.88
779.66	217.65
779.98	217.56
780.31	217.49
780.63	217.46
780.95	217.43
781.28	217.33
781.60	217.23
781.92	217.28
782.25	217.12
782.57	217.04
782.89	216.99
783.22	216.89
783.54	216.72
783.86	216.71
784.19	216.61
784.51	216.56
784.83	216.43
785.16	216.43
785.48	216.35
785.80	216.39
786.12	216.37
786.45	216.25
786.77	216.21
787.09	216.11
787.42	216.06
787.74	215.99
788.06	215.93
788.38	215.85
788.71	215.74
789.03	215.74
789.35	215.74
789.67	215.70
789.99	215.67
790.32	215.60
790.64	215.55
790.96	215.70
791.28	215.70
791.61	215.60
791.93	215.57
792.25	215.47
792.57	215.49
792.89	215.38
793.21	215.44
793.54	215.34
793.86	215.28
794.18	215.18
794.50	215.17
794.82	215.16
795.14	215.19
795.47	215.16
795.79	215.14
796.11	215.10
796.43	215.09
796.75	215.07
797.07	215.06
797.39	215.00
797.71	214.85
798.04	214.88
798.36	214.94
798.68	214.82
799.00	214.91
799.32	214.88
799.64	214.89
799.96	214.83
800.28	214.86
800.60	214.85
800.92	214.82
801.24	214.71
801.56	214.64
801.89	214.53
802.21	214.49
802.53	214.46
802.85	214.38
803.17	214.40
803.49	214.31
803.81	214.29
804.13	214.24
804.45	214.14
804.77	214.08
805.09	214.05
805.41	214.04
805.73	213.90
806.05	213.84
806.37	213.86
806.69	213.91
807.01	213.94
807.33	213.89
807.65	213.83
807.97	213.93
808.28	213.96
808.60	213.95
808.92	213.93
809.24	214.00
809.56	213.99
809.88	213.88
810.20	213.93
810.52	214.00
810.84	213.97
811.16	213.95
811.48	213.92
811.80	214.02
812.12	214.00
812.43	214.00
812.75	213.89
813.07	213.75
813.39	213.63
813.71	213.48
814.03	213.48
814.35	213.49
814.67	213.36
814.98	213.28
815.30	213.31
815.62	213.25
815.94	213.15
816.26	213.13
816.58	213.11
816.89	213.11
817.21	212.99
817.53	213.00
817.85	213.00
818.17	212.97
818.48	212.88
818.80	212.91
819.12	212.91
819.44	212.89
819.76	212.94
820.07	212.92
820.39	212.99
820.71	212.97
821.03	212.92
821.34	212.92
821.66	213.01
821.98	213.01
822.30	213.05
822.61	213.12
822.93	213.10
823.25	213.04
823.57	212.96
823.88	213.00
824.20	213.04
824.52	213.09
824.83	213.03
825.15	212.98
825.47	212.95
825.79	212.97
826.10	212.99
826.42	212.95
826.74	212.99
827.05	212.96
827.37	212.98
827.69	212.93
828.00	212.92
828.32	212.88
828.64	212.78
828.95	212.89
829.27	212.79
829.58	212.78
829.90	212.83
830.22	212.86
830.53	212.77
830.85	212.73
831.17	212.65
831.48	212.74
831.80	212.70
832.11	212.65
832.43	212.61
832.75	212.58
833.06	212.68
833.38	212.59
833.69	212.49
834.01	212.49
834.32	212.52
834.64	212.52
834.96	212.52
835.27	212.52
835.59	212.41
835.90	212.38
836.22	212.34
836.53	212.28
836.85	212.22
837.16	212.39
837.48	212.30
837.79	212.30
838.11	212.22
838.42	212.21
838.74	212.21
839.05	212.19
839.37	212.16
839.68	212.06
840.00	212.11
840.31	212.22
840.63	212.22
840.94	212.16
841.26	212.13
841.57	212.09
841.88	212.09
842.20	211.99
842.51	211.95
842.83	211.92
843.14	212.11
843.46	212.11
843.77	212.00
844.08	212.03
844.40	211.96
844.71	211.88
845.03	211.90
845.34	211.89
845.65	211.86
845.97	211.90
846.28	211.83
846.60	211.81
846.91	211.76
847.22	211.72
847.54	211.78
847.85	211.79
848.16	211.72
848.48	211.72
848.79	211.92
849.10	211.98
849.42	212.00
849.73	211.80
850.04	211.80
850.36	211.73
850.67	211.75
850.98	211.78
851.30	211.83
851.61	211.81
851.92	211.76
852.23	211.86
852.55	211.84
852.86	211.90
853.17	211.93
853.49	211.97
853.80	212.00
854.11	212.00
854.42	212.06
854.74	212.03
855.05	212.05
855.36	211.86
855.67	211.88
855.99	211.94
856.30	212.14
856.61	212.12
856.92	212.14
857.23	212.08
857.55	212.11
857.86	212.13
858.17	212.16
858.48	212.20
858.79	212.17
859.11	212.22
859.42	212.22
859.73	212.19
860.04	212.12
860.35	212.01
860.66	211.92
860.98	211.86
861.29	211.93
861.60	211.88
861.91	211.91
862.22	211.86
862.53	211.84
862.84	211.55
863.16	211.64
863.47	211.59
863.78	211.63
864.09	211.56
864.40	211.57
864.71	211.54
865.02	211.57
865.33	211.50
865.64	211.41
865.95	211.37
866.27	211.43
866.58	211.46
866.89	211.55
867.20	211.60
867.51	211.57
867.82	211.58
868.13	211.61
868.44	211.62
868.75	211.65
869.06	211.60
869.37	211.74
869.68	211.64
869.99	211.67
870.30	211.71
870.61	211.81
870.92	211.76
871.23	211.73
871.54	211.76
871.85	211.83
872.16	211.83
872.47	211.79
872.78	211.72
873.09	211.68
873.40	211.64
873.71	211.63
874.02	211.72
874.33	211.69
874.64	211.70
874.95	211.77
875.26	211.78
875.56	211.72
875.87	211.67
876.18	211.65
876.49	211.80
876.80	211.82
877.11	211.76
877.42	211.75
877.73	211.82
878.04	211.81
878.35	211.78
878.66	211.82
878.96	211.85
879.27	211.87
879.58	211.88
879.89	211.86
880.20	211.93
880.51	211.85
880.82	211.84
881.12	211.79
881.43	211.66
881.74	211.57
882.05	211.64
882.36	211.62
882.67	211.64
882.97	211.47
883.28	211.35
883.59	211.34
883.90	211.35
884.21	211.34
884.51	211.34
884.82	211.33
885.13	211.37
885.44	211.39
885.74	211.38
886.05	211.38
886.36	211.34
886.67	211.25
886.98	211.31
887.28	211.30
887.59	211.31
887.90	211.36
888.20	211.33
888.51	211.37
888.82	211.40
889.13	211.36
889.43	211.46
889.74	211.45
890.05	211.46
890.35	211.48
890.66	211.43
890.97	211.34
891.28	211.29
891.58	211.28
891.89	211.29
892.20	211.25
892.50	211.23
892.81	211.25
893.12	211.26
893.42	211.19
893.73	211.21
894.04	211.19
894.34	211.11
894.65	211.17
894.95	211.10
895.26	211.08
895.57	211.21
895.87	211.13
896.18	211.17
896.48	211.16
896.79	211.15
897.10	211.20
897.40	211.15
897.71	211.14
898.01	211.06
898.32	211.04
898.63	210.97
898.93	211.03
899.24	211.06
899.54	211.06
899.85	211.04
900.15	211.04
900.46	211.04
900.76	211.15
901.07	211.10
901.38	211.18
901.68	211.20
901.99	211.15
902.29	211.09
902.60	211.13
902.90	211.10
903.21	211.06
903.51	211.05
903.82	211.16
904.12	211.15
904.43	211.21
904.73	211.24
905.03	211.35
905.34	211.43
905.64	211.38
905.95	211.38
906.25	211.42
906.56	211.40
906.86	211.40
907.17	211.32
907.47	211.33
907.77	211.25
908.08	211.19
908.38	211.16
908.69	211.16
908.99	211.18
909.30	211.19
909.60	211.21
909.90	211.19
910.21	211.08
910.51	211.09
910.81	211.07
911.12	211.07
911.42	211.00
911.73	210.82
912.03	210.83
912.33	210.86
912.64	210.86
912.94	210.89
913.24	210.88
913.55	210.78
913.85	210.79
914.15	210.77
914.46	210.84
914.76	210.79
915.06	210.82
915.37	210.76
915.67	210.76
915.97	210.79
916.27	210.75
916.58	210.77
916.88	210.72
917.18	210.74
917.49	210.84
917.79	210.87
918.09	210.94
918.39	210.97
918.70	210.94
919.00	210.91
919.30	210.95
919.60	210.94
919.91	211.04
920.21	211.11
920.51	211.12
920.81	211.07
921.12	211.10
921.42	211.09
921.72	211.07
922.02	211.08
922.32	211.05
922.63	211.01
922.93	211.09
923.23	211.14
923.53	211.05
923.83	210.88
924.13	210.90
924.44	210.87
924.74	210.90
925.04	210.98
925.34	210.92
925.64	210.85
925.94	210.88
926.24	210.93
926.55	210.88
926.85	210.97
927.15	211.01
927.45	211.02
927.75	210.98
928.05	211.03
928.35	211.01
928.65	211.02
928.95	211.13
929.26	211.09
929.56	211.09
929.86	211.18
930.16	211.20
930.46	211.13
930.76	211.24
931.06	211.14
931.36	211.09
931.66	211.10
931.96	211.12
932.26	211.17
932.56	211.11
932.86	211.11
933.16	211.10
933.46	211.10
933.76	211.09
934.06	211.18
934.36	211.28
934.66	211.28
934.96	211.31
935.26	211.27
935.56	211.30
935.86	211.26
936.16	211.19
936.46	211.25
936.76	211.30
937.06	211.20
937.36	211.25
937.66	211.26
937.96	211.31
938.26	211.32
938.56	211.22
938.86	211.25
939.16	211.32
939.46	211.34
939.76	211.33
940.06	211.34
940.35	211.28
940.65	211.16
940.95	211.19
941.25	211.10
941.55	211.12
941.85	211.18
942.15	211.28
942.45	211.41
942.75	211.40
943.04	211.40
943.34	211.47
943.64	211.46
943.94	211.46
944.24	211.50
944.54	211.41
944.84	211.50
945.13	211.51
945.43	211.46
945.73	211.39
946.03	211.40
946.33	211.41
946.62	211.45
946.92	211.44
947.22	211.46
947.52	211.50
947.82	211.54
948.11	211.50
948.41	211.38
948.71	211.32
949.01	211.33
949.31	211.33
949.60	211.28
949.90	211.32
950.20	211.32
950.50	211.34
950.79	211.38
951.09	211.40
951.39	211.37
951.69	211.39
951.98	211.44
952.28	211.48
952.58	211.47
952.87	211.44
953.17	211.46
953.47	211.48
953.76	211.49
954.06	211.46
954.36	211.40
954.66	211.47
954.95	211.54
955.25	211.49
955.55	211.53
955.84	211.59
956.14	211.59
956.44	211.53
956.73	211.45
957.03	211.49
957.32	211.51
957.62	211.50
957.92	211.52
958.21	211.47
958.51	211.59
958.81	211.53
959.10	211.54
959.40	211.59
959.69	211.62
959.99	211.61
960.29	211.58
960.58	211.62
960.88	211.64
961.17	211.54
961.47	211.59
961.76	211.51
962.06	211.48
962.36	211.50
962.65	211.51
962.95	211.53
963.24	211.43
963.54	211.37
963.83	211.38
964.13	211.34
964.42	211.33
964.72	211.25
965.01	211.29
965.31	211.29
965.60	211.29
965.90	211.38
966.19	211.39
966.49	211.43
966.78	211.39
967.08	211.46
967.37	211.48
967.67	211.39
967.96	211.46
968.26	211.44
968.55	211.44
968.85	211.53
969.14	211.61
969.43	211.65
969.73	211.62
970.02	211.60
970.32	211.62
970.61	211.66
970.91	211.57
971.20	211.55
971.49	211.55
971.79	211.53
972.08	211.43
972.38	211.46
972.67	211.40
972.96	211.45
973.26	211.35
973.55	211.43
973.85	211.43
974.14	211.38
974.43	211.38
974.73	211.34
975.02	211.30
975.31	211.23
975.61	211.30
975.90	211.33
976.19	211.39
976.49	211.35
976.78	211.31
977.07	211.31
977.37	211.32
977.66	211.37
977.95	211.38
978.24	211.27
978.54	211.31
978.83	211.26
979.12	211.19
979.42	211.16
979.71	211.07
980.00	211.05
980.29	211.10
980.59	211.01
980.88	211.01
981.17	210.96
981.46	210.96
981.76	210.91
982.05	210.95
982.34	210.82
982.63	210.87
982.93	210.83
983.22	210.85
983.51	210.86
983.80	210.76
984.09	210.73
984.39	210.78
984.68	210.70
984.97	210.78
985.26	210.83
985.55	210.85
985.85	210.83
986.14	210.89
986.43	210.93
986.72	210.93
987.01	210.92
987.30	210.90
987.59	210.84
987.89	210.80
988.18	210.68
988.47	210.70
988.76	210.66
989.05	210.65
989.34	210.64
989.63	210.74
989.92	210.70
990.22	210.68
990.51	210.65
990.80	210.68
991.09	210.65
991.38	210.64
991.67	210.64
991.96	210.59
992.25	210.57
992.54	210.52
992.83	210.55
993.12	210.53
993.41	210.63
993.70	210.67
993.99	210.73
994.28	210.82
994.58	210.91
994.87	210.89
995.16	210.95
995.45	210.96
995.74	210.81
996.03	210.86
996.32	210.90
996.61	210.93
996.90	210.90
997.19	210.87
997.48	210.86
997.77	210.86
998.06	210.92
998.34	210.94
998.63	210.95
998.92	211.00
999.21	211.02
999.50	210.93
999.79	210.95
1000.08	210.96
1000.37	210.98
1000.66	210.90
1000.95	210.93
1001.24	210.91
1001.53	210.87
1001.82	210.86
1002.11	210.85
1002.40	210.81
1002.68	210.83
1002.97	210.90
1003.26	210.90
1003.55	210.82
1003.84	210.78
1004.13	210.80
1004.42	210.77
1004.71	210.70
1004.99	210.70
1005.28	210.76
1005.57	210.75
1005.86	210.68
1006.15	210.69
1006.44	210.62
1006.72	210.63
1007.01	210.57
1007.30	210.62
1007.59	210.55
1007.88	210.55
1008.17	210.64
1008.45	210.68
1008.74	210.63
1009.03	210.54
1009.32	210.58
1009.60	210.60
1009.89	210.63
1010.18	210.59
1010.47	210.59
1010.76	210.65
1011.04	210.64
1011.33	210.65
1011.62	210.65
1011.91	210.65
1012.19	210.57
1012.48	210.58
1012.77	210.61
1013.05	210.67
1013.34	210.57
1013.63	210.70
1013.92	210.66
1014.20	210.63
1014.49	210.61
1014.78	210.61
1015.06	210.59
1015.35	210.57
1015.64	210.64
1015.92	210.65
1016.21	210.65
1016.50	210.64
1016.78	210.61
1017.07	210.63
1017.36	210.59
1017.64	210.56
1017.93	210.63
1018.22	210.66
1018.50	210.69
1018.79	210.71
1019.08	210.64
1019.36	210.64
1019.65	210.58
1019.93	210.70
1020.22	210.64
1020.51	210.73
1020.79	210.79
1021.08	210.40
1021.36	210.65
1021.65	211.30
1021.94	209.80
1022.22	209.50
1022.51	210.50
1022.79	211.60
1023.08	210.45
1023.36	212.95
1023.65	211.45
>>>>>End Processed Spectral Data<<<<<
