SpectraSuite Data File
++++++++++++++++++++++++++++++++++++
Date: Mon Feb 25 17:34:27 EST 2013
User: group
Dark Spectrum Present: No
Reference Spectrum Present: No
Number of Sampled Component Spectra: 1
Spectrometers: USB2E7196
Integration Time (usec): 52000 (USB2E7196)
Spectra Averaged: 20 (USB2E7196)
Boxcar Smoothing: 10 (USB2E7196)
Correct for Electrical Dark: No (USB2E7196)
Strobe/Lamp Enabled: No (USB2E7196)
Correct for Detector Non-linearity: No (USB2E7196)
Correct for Stray Light: No (USB2E7196)
Number of Pixels in Processed Spectrum: 2048
>>>>>Begin Processed Spectral Data<<<<<
339.09	0.00
339.48	198.60
339.86	200.00
340.24	201.25
340.63	202.35
341.01	206.25
341.39	205.40
341.78	206.95
342.16	208.35
342.54	209.35
342.93	197.96
343.31	207.99
343.69	208.56
344.07	209.01
344.46	209.49
344.84	209.92
345.22	210.16
345.60	210.41
345.99	210.65
346.37	210.73
346.75	210.85
347.13	210.91
347.52	210.99
347.90	211.04
348.28	211.14
348.66	211.20
349.05	211.20
349.43	211.27
349.81	211.34
350.19	211.36
350.57	211.45
350.96	211.52
351.34	211.60
351.72	211.69
352.10	211.81
352.48	211.87
352.87	211.91
353.25	211.95
353.63	212.05
354.01	212.13
354.39	212.27
354.77	212.27
355.15	212.38
355.54	212.41
355.92	212.39
356.30	212.43
356.68	212.64
357.06	212.69
357.44	212.73
357.82	212.82
358.20	212.89
358.58	212.94
358.97	213.05
359.35	213.25
359.73	213.32
360.11	213.41
360.49	213.51
360.87	213.57
361.25	213.64
361.63	213.75
362.01	213.77
362.39	213.82
362.77	213.93
363.15	213.99
363.53	214.07
363.91	214.15
364.29	214.23
364.67	214.04
365.05	214.07
365.43	214.09
365.81	214.13
366.19	214.28
366.57	214.46
366.95	214.38
367.33	214.33
367.71	214.35
368.09	214.46
368.47	214.43
368.85	214.46
369.23	214.55
369.61	214.56
369.99	214.64
370.37	214.69
370.75	214.73
371.13	214.69
371.51	214.68
371.89	214.71
372.27	214.72
372.65	214.73
373.03	214.72
373.41	214.70
373.78	214.60
374.16	214.45
374.54	214.26
374.92	214.28
375.30	214.20
375.68	214.05
376.06	213.90
376.44	213.86
376.82	213.84
377.19	213.73
377.57	213.55
377.95	213.44
378.33	213.33
378.71	213.22
379.09	213.20
379.47	213.15
379.84	213.08
380.22	212.98
380.60	212.92
380.98	212.85
381.36	212.74
381.73	212.71
382.11	212.67
382.49	212.68
382.87	212.59
383.25	212.54
383.62	212.72
384.00	212.72
384.38	212.66
384.76	212.62
385.13	212.68
385.51	212.67
385.89	212.54
386.27	212.50
386.64	212.49
387.02	212.42
387.40	212.35
387.78	212.29
388.15	212.28
388.53	212.29
388.91	212.28
389.29	212.25
389.66	212.30
390.04	212.29
390.42	212.26
390.79	212.25
391.17	212.23
391.55	212.05
391.92	211.98
392.30	211.90
392.68	211.81
393.05	211.75
393.43	211.75
393.81	211.75
394.18	211.68
394.56	211.58
394.94	211.65
395.31	211.68
395.69	211.72
396.06	211.72
396.44	211.71
396.82	211.74
397.19	211.83
397.57	211.79
397.95	211.79
398.32	211.75
398.70	211.85
399.07	211.85
399.45	211.85
399.82	211.86
400.20	212.01
400.58	212.04
400.95	211.99
401.33	212.05
401.70	212.26
402.08	212.36
402.45	212.40
402.83	212.42
403.20	212.45
403.58	212.46
403.95	212.52
404.33	212.63
404.71	212.70
405.08	212.90
405.46	212.96
405.83	213.12
406.21	213.21
406.58	213.36
406.96	213.51
407.33	213.72
407.70	213.92
408.08	214.17
408.45	214.47
408.83	214.83
409.20	215.05
409.58	215.20
409.95	215.51
410.33	215.96
410.70	216.28
411.08	216.61
411.45	217.02
411.82	217.39
412.20	217.82
412.57	218.34
412.95	218.59
413.32	219.09
413.69	219.57
414.07	220.18
414.44	220.76
414.82	221.45
415.19	222.17
415.56	222.95
415.94	223.61
416.31	224.49
416.68	225.31
417.06	226.29
417.43	227.25
417.81	228.35
418.18	229.40
418.55	230.57
418.93	231.89
419.30	233.16
419.67	234.63
420.04	236.03
420.42	237.47
420.79	239.40
421.16	241.13
421.54	242.99
421.91	244.82
422.28	246.67
422.66	248.64
423.03	250.71
423.40	252.74
423.77	255.05
424.15	257.28
424.52	259.52
424.89	262.14
425.26	264.57
425.64	266.90
426.01	269.41
426.38	272.15
426.75	274.85
427.13	277.69
427.50	280.59
427.87	283.70
428.24	286.75
428.61	289.59
428.99	292.84
429.36	296.26
429.73	299.77
430.10	303.34
430.47	306.93
430.85	310.53
431.22	314.52
431.59	318.72
431.96	322.72
432.33	327.21
432.70	331.44
433.08	336.46
433.45	341.16
433.82	345.87
434.19	351.00
434.56	356.01
434.93	360.80
435.30	365.58
435.68	370.82
436.05	376.10
436.42	381.26
436.79	386.00
437.16	391.16
437.53	396.54
437.90	401.76
438.27	407.11
438.64	412.52
439.01	417.52
439.38	421.86
439.75	426.04
440.13	430.93
440.50	435.50
440.87	439.18
441.24	442.98
441.61	447.21
441.98	450.33
442.35	453.98
442.72	457.74
443.09	461.26
443.46	463.33
443.83	464.90
444.20	466.14
444.57	467.94
444.94	468.63
445.31	469.48
445.68	470.24
446.05	470.40
446.42	469.70
446.79	468.92
447.16	468.03
447.53	467.40
447.90	465.35
448.27	463.18
448.64	460.30
449.01	458.17
449.37	454.50
449.74	450.98
450.11	446.94
450.48	442.33
450.85	437.68
451.22	433.80
451.59	429.85
451.96	426.29
452.33	421.45
452.70	417.24
453.07	412.06
453.43	406.81
453.80	401.73
454.17	397.00
454.54	392.41
454.91	387.56
455.28	382.84
455.65	378.32
456.02	373.99
456.38	370.24
456.75	365.59
457.12	361.72
457.49	357.84
457.86	353.95
458.23	350.80
458.59	347.42
458.96	343.86
459.33	340.67
459.70	337.44
460.07	334.86
460.43	331.91
460.80	329.19
461.17	326.83
461.54	324.35
461.91	321.92
462.27	319.54
462.64	317.48
463.01	315.24
463.38	313.14
463.74	310.84
464.11	308.88
464.48	307.25
464.85	305.53
465.21	304.19
465.58	302.82
465.95	301.09
466.32	299.60
466.68	298.18
467.05	296.86
467.42	295.47
467.78	294.10
468.15	292.73
468.52	291.65
468.88	290.30
469.25	289.08
469.62	288.11
469.98	287.10
470.35	286.23
470.72	285.46
471.08	284.37
471.45	283.71
471.82	283.00
472.18	282.09
472.55	281.44
472.92	280.71
473.28	280.06
473.65	279.47
474.02	278.97
474.38	278.59
474.75	278.17
475.11	277.83
475.48	277.59
475.85	277.34
476.21	277.12
476.58	276.93
476.94	277.00
477.31	276.99
477.67	276.98
478.04	276.95
478.41	276.97
478.77	277.42
479.14	277.53
479.50	277.78
479.87	278.19
480.23	278.67
480.60	279.00
480.96	279.43
481.33	280.06
481.69	280.62
482.06	281.18
482.42	281.73
482.79	282.47
483.15	283.28
483.52	284.33
483.88	285.35
484.25	286.42
484.61	287.50
484.98	288.61
485.34	289.90
485.71	291.23
486.07	292.70
486.44	293.91
486.80	295.46
487.17	297.04
487.53	298.77
487.90	300.58
488.26	302.60
488.62	304.67
488.99	306.67
489.35	308.83
489.72	311.09
490.08	313.58
490.44	315.96
490.81	318.59
491.17	321.27
491.54	324.16
491.90	327.19
492.26	330.35
492.63	333.76
492.99	337.15
493.36	340.84
493.72	344.68
494.08	348.68
494.45	352.95
494.81	357.47
495.17	362.10
495.54	366.78
495.90	371.70
496.26	376.94
496.63	382.47
496.99	388.25
497.35	394.25
497.72	400.44
498.08	407.01
498.44	413.84
498.80	420.95
499.17	428.38
499.53	435.95
499.89	443.93
500.26	452.01
500.62	460.49
500.98	469.24
501.34	478.27
501.71	487.70
502.07	497.45
502.43	507.36
502.79	517.60
503.16	528.46
503.52	539.64
503.88	550.90
504.24	562.48
504.60	574.29
504.97	586.73
505.33	599.33
505.69	612.57
506.05	625.91
506.41	639.59
506.78	653.24
507.14	667.45
507.50	681.98
507.86	697.20
508.22	712.54
508.59	728.15
508.95	744.10
509.31	760.50
509.67	777.20
510.03	794.37
510.39	811.95
510.75	829.83
511.12	847.85
511.48	866.23
511.84	884.93
512.20	903.85
512.56	923.15
512.92	942.67
513.28	962.24
513.64	982.06
514.00	1002.00
514.37	1022.53
514.73	1043.40
515.09	1064.24
515.45	1085.09
515.81	1106.38
516.17	1127.90
516.53	1149.50
516.89	1171.18
517.25	1192.78
517.61	1214.62
517.97	1236.21
518.33	1257.54
518.69	1279.43
519.05	1301.65
519.41	1324.01
519.77	1346.62
520.13	1368.75
520.49	1390.91
520.85	1413.64
521.21	1436.30
521.57	1459.40
521.93	1481.86
522.29	1504.73
522.65	1527.40
523.01	1549.86
523.37	1571.90
523.73	1594.24
524.09	1616.43
524.45	1638.80
524.81	1661.59
525.17	1684.00
525.53	1706.41
525.89	1729.01
526.25	1750.98
526.61	1772.64
526.97	1794.21
527.33	1815.45
527.68	1837.20
528.04	1858.80
528.40	1879.21
528.76	1900.17
529.12	1920.93
529.48	1942.53
529.84	1962.98
530.20	1983.34
530.56	2003.98
530.91	2025.15
531.27	2045.78
531.63	2066.17
531.99	2086.13
532.35	2105.09
532.71	2123.96
533.07	2143.81
533.42	2162.27
533.78	2181.68
534.14	2200.02
534.50	2217.50
534.86	2235.64
535.21	2252.55
535.57	2270.57
535.93	2288.50
536.29	2305.55
536.65	2322.27
537.00	2337.77
537.36	2353.08
537.72	2368.86
538.08	2384.21
538.44	2399.35
538.79	2414.87
539.15	2429.83
539.51	2444.62
539.87	2460.37
540.22	2475.42
540.58	2490.36
540.94	2505.57
541.29	2518.17
541.65	2530.93
542.01	2544.36
542.37	2556.67
542.72	2569.22
543.08	2580.09
543.44	2591.75
543.79	2602.11
544.15	2612.55
544.51	2623.73
544.87	2635.19
545.22	2644.54
545.58	2653.45
545.94	2661.00
546.29	2667.68
546.65	2674.00
547.01	2680.27
547.36	2686.01
547.72	2691.53
548.07	2695.58
548.43	2699.42
548.79	2703.96
549.14	2708.46
549.50	2713.09
549.86	2717.04
550.21	2721.08
550.57	2725.35
550.92	2728.18
551.28	2730.99
551.64	2733.67
551.99	2736.62
552.35	2738.12
552.70	2741.12
553.06	2743.93
553.41	2747.03
553.77	2750.11
554.13	2752.32
554.48	2754.48
554.84	2755.72
555.19	2756.16
555.55	2756.95
555.90	2757.28
556.26	2757.51
556.61	2757.66
556.97	2756.19
557.32	2755.98
557.68	2754.13
558.03	2753.03
558.39	2751.72
558.74	2751.59
559.10	2750.41
559.45	2748.49
559.81	2747.48
560.16	2744.51
560.52	2741.98
560.87	2739.04
561.23	2735.06
561.58	2733.06
561.94	2729.74
562.29	2726.14
562.64	2724.18
563.00	2721.63
563.35	2719.48
563.71	2717.72
564.06	2715.35
564.42	2713.70
564.77	2711.26
565.12	2709.65
565.48	2706.09
565.83	2703.15
566.19	2700.10
566.54	2695.95
566.89	2691.87
567.25	2688.01
567.60	2684.66
567.96	2681.03
568.31	2677.60
568.66	2673.66
569.02	2669.07
569.37	2664.41
569.72	2660.88
570.08	2655.50
570.43	2649.63
570.78	2643.89
571.14	2637.55
571.49	2630.90
571.84	2625.12
572.20	2618.29
572.55	2611.73
572.90	2605.12
573.26	2597.89
573.61	2590.26
573.96	2583.84
574.31	2576.15
574.67	2567.99
575.02	2559.48
575.37	2550.78
575.72	2541.41
576.08	2534.05
576.43	2525.07
576.78	2517.01
577.13	2508.63
577.49	2500.52
577.84	2492.92
578.19	2485.36
578.54	2477.87
578.90	2471.27
579.25	2462.14
579.60	2452.82
579.95	2443.49
580.30	2435.30
580.66	2427.06
581.01	2418.23
581.36	2408.86
581.71	2400.41
582.06	2392.04
582.42	2383.89
582.77	2374.73
583.12	2366.17
583.47	2357.40
583.82	2349.26
584.17	2339.90
584.53	2330.63
584.88	2321.70
585.23	2312.38
585.58	2302.82
585.93	2292.98
586.28	2283.65
586.63	2274.80
586.98	2266.55
587.34	2258.07
587.69	2248.72
588.04	2239.73
588.39	2231.05
588.74	2222.28
589.09	2213.37
589.44	2203.85
589.79	2195.28
590.14	2187.18
590.49	2178.59
590.84	2169.24
591.19	2161.00
591.54	2152.35
591.89	2142.05
592.25	2132.59
592.60	2123.01
592.95	2113.38
593.30	2104.18
593.65	2093.99
594.00	2084.46
594.35	2076.11
594.70	2066.85
595.05	2058.41
595.40	2049.15
595.75	2039.55
596.10	2030.87
596.45	2022.03
596.80	2013.87
597.15	2005.52
597.50	1996.66
597.85	1988.34
598.19	1979.71
598.54	1971.06
598.89	1962.89
599.24	1956.49
599.59	1949.09
599.94	1942.05
600.29	1934.31
600.64	1926.27
600.99	1917.80
601.34	1910.54
601.69	1901.63
602.04	1893.27
602.39	1884.89
602.74	1877.24
603.08	1870.69
603.43	1863.60
603.78	1855.73
604.13	1847.58
604.48	1839.59
604.83	1832.69
605.18	1825.42
605.53	1817.79
605.87	1809.99
606.22	1802.72
606.57	1794.30
606.92	1786.05
607.27	1778.02
607.62	1770.44
607.96	1763.36
608.31	1757.17
608.66	1749.09
609.01	1741.56
609.36	1734.03
609.70	1725.92
610.05	1718.07
610.40	1709.53
610.75	1700.82
611.10	1692.96
611.44	1684.08
611.79	1674.80
612.14	1665.18
612.49	1655.37
612.83	1646.39
613.18	1636.53
613.53	1627.09
613.88	1617.56
614.22	1608.66
614.57	1598.98
614.92	1589.57
615.27	1580.32
615.61	1570.30
615.96	1561.32
616.31	1552.68
616.65	1544.77
617.00	1536.30
617.35	1527.67
617.70	1518.77
618.04	1509.54
618.39	1500.15
618.74	1491.49
619.08	1482.75
619.43	1474.35
619.78	1466.60
620.12	1458.65
620.47	1450.92
620.82	1442.44
621.16	1434.21
621.51	1425.78
621.85	1417.80
622.20	1409.53
622.55	1400.88
622.89	1392.70
623.24	1384.92
623.59	1376.08
623.93	1366.95
624.28	1358.70
624.62	1350.37
624.97	1341.98
625.32	1334.25
625.66	1326.76
626.01	1319.39
626.35	1312.07
626.70	1304.37
627.04	1296.64
627.39	1288.85
627.73	1281.37
628.08	1274.41
628.43	1266.76
628.77	1259.39
629.12	1251.66
629.46	1244.90
629.81	1237.64
630.15	1230.17
630.50	1222.56
630.84	1215.23
631.19	1208.17
631.53	1201.40
631.88	1193.56
632.22	1186.08
632.57	1178.90
632.91	1171.25
633.26	1163.87
633.60	1156.79
633.95	1149.89
634.29	1142.59
634.64	1135.86
634.98	1128.56
635.32	1121.30
635.67	1114.96
636.01	1108.16
636.36	1101.66
636.70	1094.86
637.05	1088.33
637.39	1082.21
637.73	1075.79
638.08	1070.03
638.42	1064.03
638.77	1057.36
639.11	1051.33
639.45	1045.43
639.80	1038.89
640.14	1032.65
640.49	1026.36
640.83	1019.91
641.17	1013.39
641.52	1007.48
641.86	1001.02
642.20	994.97
642.55	988.25
642.89	981.70
643.23	975.30
643.58	969.17
643.92	962.65
644.26	956.39
644.61	950.32
644.95	944.12
645.29	937.74
645.64	931.16
645.98	924.89
646.32	919.07
646.66	912.73
647.01	906.76
647.35	900.87
647.69	894.57
648.04	888.65
648.38	882.77
648.72	876.59
649.06	870.35
649.41	864.23
649.75	858.45
650.09	852.55
650.43	846.47
650.78	840.36
651.12	834.18
651.46	828.13
651.80	821.81
652.14	815.68
652.49	809.62
652.83	803.82
653.17	797.70
653.51	791.66
653.85	785.88
654.20	779.99
654.54	774.18
654.88	768.56
655.22	762.73
655.56	756.83
655.90	750.92
656.25	745.20
656.59	739.52
656.93	734.42
657.27	729.15
657.61	723.73
657.95	718.32
658.29	713.14
658.64	708.10
658.98	702.99
659.32	697.70
659.66	692.56
660.00	687.10
660.34	681.99
660.68	676.59
661.02	671.55
661.36	666.75
661.70	661.85
662.05	657.17
662.39	652.61
662.73	648.31
663.07	644.01
663.41	639.67
663.75	635.18
664.09	630.32
664.43	625.60
664.77	621.26
665.11	616.94
665.45	612.53
665.79	608.07
666.13	603.73
666.47	599.30
666.81	595.07
667.15	591.08
667.49	587.14
667.83	583.39
668.17	579.47
668.51	575.61
668.85	571.81
669.19	568.11
669.53	564.26
669.87	560.04
670.21	556.27
670.55	552.34
670.89	548.77
671.23	545.43
671.57	541.92
671.91	538.28
672.25	534.65
672.58	531.23
672.92	527.76
673.26	524.47
673.60	521.41
673.94	517.96
674.28	514.62
674.62	511.46
674.96	508.17
675.30	504.93
675.64	501.67
675.97	498.51
676.31	495.42
676.65	492.41
676.99	489.73
677.33	486.71
677.67	483.71
678.01	480.60
678.34	477.52
678.68	474.53
679.02	471.64
679.36	468.84
679.70	465.98
680.04	463.14
680.37	460.22
680.71	457.31
681.05	454.82
681.39	452.12
681.73	449.33
682.06	446.73
682.40	444.16
682.74	441.60
683.08	439.02
683.42	436.40
683.75	433.73
684.09	431.12
684.43	428.58
684.77	426.07
685.10	423.66
685.44	421.09
685.78	418.72
686.12	416.43
686.45	414.06
686.79	411.76
687.13	409.58
687.46	407.37
687.80	405.16
688.14	402.84
688.48	400.71
688.81	398.53
689.15	396.39
689.49	394.14
689.82	391.90
690.16	389.57
690.50	387.20
690.83	384.92
691.17	382.67
691.51	380.43
691.84	378.37
692.18	376.23
692.52	374.43
692.85	372.53
693.19	370.63
693.52	368.65
693.86	366.53
694.20	364.58
694.53	362.60
694.87	360.59
695.21	358.70
695.54	356.67
695.88	354.70
696.21	352.78
696.55	351.05
696.88	349.28
697.22	347.57
697.56	346.04
697.89	344.53
698.23	342.94
698.56	341.31
698.90	339.78
699.23	338.15
699.57	336.51
699.90	334.81
700.24	333.09
700.58	331.52
700.91	330.12
701.25	328.70
701.58	327.28
701.92	325.90
702.25	324.42
702.59	323.12
702.92	321.88
703.26	320.51
703.59	319.19
703.93	318.01
704.26	316.73
704.60	315.39
704.93	314.04
705.26	312.78
705.60	311.60
705.93	310.35
706.27	309.29
706.60	308.10
706.94	307.05
707.27	305.95
707.61	304.89
707.94	303.80
708.27	302.42
708.61	301.23
708.94	300.12
709.28	299.01
709.61	297.93
709.94	296.82
710.28	295.76
710.61	294.74
710.95	293.54
711.28	292.62
711.61	291.59
711.95	290.58
712.28	289.50
712.61	288.40
712.95	287.41
713.28	286.45
713.61	285.44
713.95	284.48
714.28	283.58
714.61	282.54
714.95	281.59
715.28	280.68
715.61	279.83
715.95	278.98
716.28	278.10
716.61	277.23
716.95	276.37
717.28	275.58
717.61	274.78
717.94	274.01
718.28	273.15
718.61	272.40
718.94	271.68
719.27	271.00
719.61	270.28
719.94	269.56
720.27	268.74
720.60	267.94
720.94	267.20
721.27	266.49
721.60	265.93
721.93	265.31
722.27	264.76
722.60	264.12
722.93	263.51
723.26	263.00
723.59	262.37
723.93	261.73
724.26	261.10
724.59	260.46
724.92	259.82
725.25	259.23
725.59	258.60
725.92	258.05
726.25	257.56
726.58	257.05
726.91	256.50
727.24	256.02
727.57	255.48
727.91	254.89
728.24	254.41
728.57	253.81
728.90	253.33
729.23	252.83
729.56	252.42
729.89	251.85
730.22	251.30
730.55	250.87
730.89	250.44
731.22	249.97
731.55	249.49
731.88	249.16
732.21	248.71
732.54	248.31
732.87	247.88
733.20	247.43
733.53	247.05
733.86	246.66
734.19	246.13
734.52	245.80
734.85	245.57
735.18	245.13
735.51	244.76
735.84	244.34
736.17	244.00
736.50	243.55
736.83	243.41
737.16	243.06
737.49	242.66
737.82	242.30
738.15	241.96
738.48	241.56
738.81	241.15
739.14	240.77
739.47	240.38
739.80	240.05
740.13	239.72
740.46	239.29
740.79	238.91
741.12	238.65
741.45	238.28
741.78	237.87
742.11	237.64
742.44	237.23
742.77	237.02
743.10	236.66
743.43	236.34
743.75	235.86
744.08	235.79
744.41	235.50
744.74	235.15
745.07	234.77
745.40	234.59
745.73	234.33
746.06	234.00
746.39	233.72
746.71	233.37
747.04	233.02
747.37	232.75
747.70	232.49
748.03	232.23
748.36	232.10
748.68	231.88
749.01	231.61
749.34	231.45
749.67	231.11
750.00	230.91
750.33	230.80
750.65	230.55
750.98	230.06
751.31	229.75
751.64	229.53
751.97	229.48
752.29	229.26
752.62	228.98
752.95	228.83
753.28	228.60
753.60	228.35
753.93	228.22
754.26	228.04
754.59	227.77
754.91	227.52
755.24	227.28
755.57	227.02
755.90	226.77
756.22	226.52
756.55	226.39
756.88	226.17
757.20	225.87
757.53	225.65
757.86	225.41
758.19	225.25
758.51	225.10
758.84	224.77
759.17	224.46
759.49	224.29
759.82	224.23
760.15	224.07
760.47	223.99
760.80	223.76
761.13	223.64
761.45	223.55
761.78	223.44
762.11	223.29
762.43	223.17
762.76	223.06
763.08	222.99
763.41	222.81
763.74	222.71
764.06	222.50
764.39	222.33
764.71	222.25
765.04	222.20
765.37	222.02
765.69	221.91
766.02	221.81
766.34	221.73
766.67	221.55
767.00	221.50
767.32	221.48
767.65	221.41
767.97	221.32
768.30	221.15
768.62	220.99
768.95	220.76
769.27	220.69
769.60	220.55
769.92	220.43
770.25	220.35
770.57	220.17
770.90	220.12
771.22	220.04
771.55	219.92
771.87	219.75
772.20	219.65
772.52	219.73
772.85	219.92
773.17	219.81
773.50	219.66
773.82	219.52
774.15	219.33
774.47	219.20
774.80	219.10
775.12	219.05
775.45	219.06
775.77	218.97
776.09	218.84
776.42	218.80
776.74	218.80
777.07	218.61
777.39	218.56
777.72	218.43
778.04	218.31
778.36	218.24
778.69	218.20
779.01	218.15
779.33	217.92
779.66	217.63
779.98	217.61
780.31	217.59
780.63	217.64
780.95	217.57
781.28	217.47
781.60	217.36
781.92	217.33
782.25	217.20
782.57	217.20
782.89	217.10
783.22	216.96
783.54	216.85
783.86	216.86
784.19	216.79
784.51	216.80
784.83	216.79
785.16	216.74
785.48	216.71
785.80	216.70
786.12	216.66
786.45	216.63
786.77	216.48
787.09	216.32
787.42	216.19
787.74	216.12
788.06	216.10
788.38	216.06
788.71	215.94
789.03	215.90
789.35	215.90
789.67	215.85
789.99	215.77
790.32	215.69
790.64	215.71
790.96	215.79
791.28	215.71
791.61	215.71
791.93	215.65
792.25	215.54
792.57	215.58
792.89	215.50
793.21	215.50
793.54	215.45
793.86	215.45
794.18	215.36
794.50	215.33
794.82	215.28
795.14	215.19
795.47	215.18
795.79	215.08
796.11	214.91
796.43	214.87
796.75	214.85
797.07	214.77
797.39	214.66
797.71	214.52
798.04	214.41
798.36	214.35
798.68	214.33
799.00	214.37
799.32	214.21
799.64	214.20
799.96	214.09
800.28	214.05
800.60	214.03
800.92	214.01
801.24	213.96
801.56	213.99
801.89	214.00
802.21	213.95
802.53	213.93
802.85	214.02
803.17	214.10
803.49	214.09
803.81	214.05
804.13	214.00
804.45	213.94
804.77	214.02
805.09	214.02
805.41	214.01
805.73	213.88
806.05	213.95
806.37	213.92
806.69	213.97
807.01	214.01
807.33	213.96
807.65	213.91
807.97	213.98
808.28	213.86
808.60	213.88
808.92	213.85
809.24	213.99
809.56	213.97
809.88	213.89
810.20	213.88
810.52	213.93
810.84	213.95
811.16	213.99
811.48	213.91
811.80	213.91
812.12	213.89
812.43	213.97
812.75	213.93
813.07	213.88
813.39	213.83
813.71	213.80
814.03	213.78
814.35	213.75
814.67	213.64
814.98	213.65
815.30	213.63
815.62	213.58
815.94	213.41
816.26	213.38
816.58	213.26
816.89	213.29
817.21	213.21
817.53	213.16
817.85	213.12
818.17	213.15
818.48	213.08
818.80	213.06
819.12	213.02
819.44	212.94
819.76	212.96
820.07	212.95
820.39	212.85
820.71	212.82
821.03	212.81
821.34	212.80
821.66	212.80
821.98	212.77
822.30	212.70
822.61	212.82
822.93	212.77
823.25	212.78
823.57	212.75
823.88	212.75
824.20	212.79
824.52	212.73
824.83	212.75
825.15	212.69
825.47	212.67
825.79	212.61
826.10	212.59
826.42	212.53
826.74	212.46
827.05	212.44
827.37	212.42
827.69	212.50
828.00	212.46
828.32	212.46
828.64	212.46
828.95	212.63
829.27	212.57
829.58	212.53
829.90	212.60
830.22	212.55
830.53	212.60
830.85	212.57
831.17	212.56
831.48	212.53
831.80	212.51
832.11	212.49
832.43	212.48
832.75	212.44
833.06	212.54
833.38	212.47
833.69	212.53
834.01	212.59
834.32	212.50
834.64	212.54
834.96	212.53
835.27	212.46
835.59	212.40
835.90	212.33
836.22	212.38
836.53	212.32
836.85	212.28
837.16	212.39
837.48	212.35
837.79	212.42
838.11	212.39
838.42	212.41
838.74	212.41
839.05	212.49
839.37	212.54
839.68	212.44
840.00	212.51
840.31	212.50
840.63	212.52
840.94	212.47
841.26	212.43
841.57	212.38
841.88	212.44
842.20	212.42
842.51	212.48
842.83	212.48
843.14	212.64
843.46	212.69
843.77	212.57
844.08	212.66
844.40	212.54
844.71	212.52
845.03	212.57
845.34	212.52
845.65	212.45
845.97	212.40
846.28	212.37
846.60	212.34
846.91	212.32
847.22	212.22
847.54	212.32
847.85	212.32
848.16	212.35
848.48	212.28
848.79	212.34
849.10	212.33
849.42	212.30
849.73	212.10
850.04	212.06
850.36	212.00
850.67	211.92
850.98	211.96
851.30	211.93
851.61	211.90
851.92	211.87
852.23	211.94
852.55	211.93
852.86	211.93
853.17	211.93
853.49	211.98
853.80	212.03
854.11	211.91
854.42	211.91
854.74	211.85
855.05	211.81
855.36	211.65
855.67	211.60
855.99	211.61
856.30	211.75
856.61	211.75
856.92	211.74
857.23	211.74
857.55	211.60
857.86	211.57
858.17	211.61
858.48	211.61
858.79	211.52
859.11	211.52
859.42	211.45
859.73	211.46
860.04	211.45
860.35	211.41
860.66	211.43
860.98	211.47
861.29	211.46
861.60	211.51
861.91	211.53
862.22	211.45
862.53	211.40
862.84	211.20
863.16	211.20
863.47	211.20
863.78	211.17
864.09	211.24
864.40	211.30
864.71	211.25
865.02	211.26
865.33	211.21
865.64	211.19
865.95	211.28
866.27	211.36
866.58	211.35
866.89	211.28
867.20	211.27
867.51	211.19
867.82	211.25
868.13	211.20
868.44	211.20
868.75	211.25
869.06	211.25
869.37	211.36
869.68	211.35
869.99	211.32
870.30	211.33
870.61	211.31
870.92	211.34
871.23	211.34
871.54	211.33
871.85	211.40
872.16	211.45
872.47	211.38
872.78	211.32
873.09	211.32
873.40	211.41
873.71	211.42
874.02	211.45
874.33	211.36
874.64	211.38
874.95	211.37
875.26	211.35
875.56	211.38
875.87	211.33
876.18	211.34
876.49	211.52
876.80	211.53
877.11	211.54
877.42	211.48
877.73	211.44
878.04	211.45
878.35	211.49
878.66	211.40
878.96	211.43
879.27	211.37
879.58	211.28
879.89	211.25
880.20	211.32
880.51	211.26
880.82	211.33
881.12	211.34
881.43	211.37
881.74	211.34
882.05	211.28
882.36	211.27
882.67	211.26
882.97	211.12
883.28	211.11
883.59	211.09
883.90	211.14
884.21	211.21
884.51	211.22
884.82	211.12
885.13	211.25
885.44	211.26
885.74	211.36
886.05	211.46
886.36	211.49
886.67	211.38
886.98	211.58
887.28	211.55
887.59	211.65
887.90	211.64
888.20	211.70
888.51	211.75
888.82	211.76
889.13	211.75
889.43	211.79
889.74	211.81
890.05	211.82
890.35	211.82
890.66	211.82
890.97	211.82
891.28	211.85
891.58	211.81
891.89	211.78
892.20	211.65
892.50	211.55
892.81	211.49
893.12	211.56
893.42	211.30
893.73	211.27
894.04	211.16
894.34	211.18
894.65	211.08
894.95	211.08
895.26	211.07
895.57	211.18
895.87	211.04
896.18	211.08
896.48	211.12
896.79	211.04
897.10	211.00
897.40	210.95
897.71	211.03
898.01	211.03
898.32	211.01
898.63	211.03
898.93	211.11
899.24	211.11
899.54	211.08
899.85	211.22
900.15	211.27
900.46	211.22
900.76	211.27
901.07	211.30
901.38	211.30
901.68	211.33
901.99	211.19
902.29	211.23
902.60	211.17
902.90	211.06
903.21	211.11
903.51	211.13
903.82	211.15
904.12	211.06
904.43	211.02
904.73	211.08
905.03	211.13
905.34	211.25
905.64	211.25
905.95	211.26
906.25	211.18
906.56	211.13
906.86	211.15
907.17	211.08
907.47	211.10
907.77	211.07
908.08	211.04
908.38	211.01
908.69	210.98
908.99	211.01
909.30	211.10
909.60	211.02
909.90	210.99
910.21	210.90
910.51	210.86
910.81	210.87
911.12	210.90
911.42	210.86
911.73	210.65
912.03	210.62
912.33	210.64
912.64	210.64
912.94	210.63
913.24	210.61
913.55	210.58
913.85	210.60
914.15	210.61
914.46	210.62
914.76	210.70
915.06	210.75
915.37	210.73
915.67	210.67
915.97	210.75
916.27	210.71
916.58	210.78
916.88	210.85
917.18	210.85
917.49	210.90
917.79	210.90
918.09	210.89
918.39	210.97
918.70	210.93
919.00	210.98
919.30	211.04
919.60	211.07
919.91	211.10
920.21	211.08
920.51	211.05
920.81	211.07
921.12	211.08
921.42	211.09
921.72	211.09
922.02	211.15
922.32	211.20
922.63	211.19
922.93	211.31
923.23	211.23
923.53	211.25
923.83	211.15
924.13	211.17
924.44	211.29
924.74	211.32
925.04	211.43
925.34	211.39
925.64	211.39
925.94	211.38
926.24	211.50
926.55	211.50
926.85	211.50
927.15	211.52
927.45	211.53
927.75	211.51
928.05	211.49
928.35	211.49
928.65	211.52
928.95	211.54
929.26	211.49
929.56	211.63
929.86	211.65
930.16	211.65
930.46	211.64
930.76	211.65
931.06	211.57
931.36	211.48
931.66	211.52
931.96	211.49
932.26	211.48
932.56	211.44
932.86	211.44
933.16	211.54
933.46	211.46
933.76	211.38
934.06	211.42
934.36	211.55
934.66	211.50
934.96	211.43
935.26	211.39
935.56	211.36
935.86	211.31
936.16	211.28
936.46	211.24
936.76	211.21
937.06	211.16
937.36	211.15
937.66	211.19
937.96	211.18
938.26	211.15
938.56	211.17
938.86	211.13
939.16	211.14
939.46	211.08
939.76	211.11
940.06	211.15
940.35	211.07
940.65	210.96
940.95	211.00
941.25	210.94
941.55	210.96
941.85	210.97
942.15	210.95
942.45	210.94
942.75	210.94
943.04	210.91
943.34	210.90
943.64	210.89
943.94	210.84
944.24	210.80
944.54	210.80
944.84	210.78
945.13	210.73
945.43	210.67
945.73	210.64
946.03	210.61
946.33	210.57
946.62	210.57
946.92	210.57
947.22	210.55
947.52	210.58
947.82	210.54
948.11	210.52
948.41	210.47
948.71	210.43
949.01	210.41
949.31	210.42
949.60	210.40
949.90	210.39
950.20	210.33
950.50	210.32
950.79	210.28
951.09	210.27
951.39	210.29
951.69	210.25
951.98	210.27
952.28	210.30
952.58	210.31
952.87	210.30
953.17	210.26
953.47	210.23
953.76	210.20
954.06	210.22
954.36	210.20
954.66	210.21
954.95	210.28
955.25	210.31
955.55	210.25
955.84	210.18
956.14	210.25
956.44	210.28
956.73	210.27
957.03	210.37
957.32	210.41
957.62	210.40
957.92	210.44
958.21	210.43
958.51	210.57
958.81	210.62
959.10	210.69
959.40	210.73
959.69	210.77
959.99	210.88
960.29	210.88
960.58	210.89
960.88	210.98
961.17	210.92
961.47	210.94
961.76	211.06
962.06	211.17
962.36	211.17
962.65	211.21
962.95	211.22
963.24	211.13
963.54	211.08
963.83	211.03
964.13	211.05
964.42	211.00
964.72	210.88
965.01	210.93
965.31	210.89
965.60	210.86
965.90	211.00
966.19	210.91
966.49	210.95
966.78	210.89
967.08	210.88
967.37	210.90
967.67	210.81
967.96	210.80
968.26	210.74
968.55	210.77
968.85	210.76
969.14	210.76
969.43	210.82
969.73	210.76
970.02	210.78
970.32	210.80
970.61	210.78
970.91	210.71
971.20	210.62
971.49	210.60
971.79	210.69
972.08	210.45
972.38	210.48
972.67	210.47
972.96	210.53
973.26	210.46
973.55	210.54
973.85	210.61
974.14	210.57
974.43	210.62
974.73	210.59
975.02	210.62
975.31	210.59
975.61	210.56
975.90	210.66
976.19	210.72
976.49	210.74
976.78	210.78
977.07	210.84
977.37	210.84
977.66	210.77
977.95	210.73
978.24	210.85
978.54	210.84
978.83	210.81
979.12	210.79
979.42	210.83
979.71	210.75
980.00	210.75
980.29	210.84
980.59	210.82
980.88	210.75
981.17	210.71
981.46	210.75
981.76	210.77
982.05	210.81
982.34	210.76
982.63	210.74
982.93	210.75
983.22	210.74
983.51	210.77
983.80	210.90
984.09	210.88
984.39	210.77
984.68	210.75
984.97	210.75
985.26	210.79
985.55	210.84
985.85	210.85
986.14	210.86
986.43	210.81
986.72	210.79
987.01	210.76
987.30	210.81
987.59	210.75
987.89	210.71
988.18	210.65
988.47	210.74
988.76	210.78
989.05	210.74
989.34	210.70
989.63	210.76
989.92	210.70
990.22	210.72
990.51	210.80
990.80	210.86
991.09	210.85
991.38	210.90
991.67	210.82
991.96	210.80
992.25	210.81
992.54	210.78
992.83	210.78
993.12	210.86
993.41	210.84
993.70	210.95
993.99	211.07
994.28	211.08
994.58	211.03
994.87	210.99
995.16	211.00
995.45	211.03
995.74	210.88
996.03	210.95
996.32	211.03
996.61	211.03
996.90	211.02
997.19	211.10
997.48	211.07
997.77	211.06
998.06	211.17
998.34	211.13
998.63	211.18
998.92	211.19
999.21	211.17
999.50	211.21
999.79	211.17
1000.08	211.09
1000.37	211.13
1000.66	211.15
1000.95	211.18
1001.24	211.20
1001.53	211.25
1001.82	211.28
1002.11	211.17
1002.40	211.15
1002.68	211.18
1002.97	211.24
1003.26	211.18
1003.55	211.13
1003.84	211.16
1004.13	211.13
1004.42	211.12
1004.71	211.06
1004.99	211.04
1005.28	211.10
1005.57	211.04
1005.86	211.02
1006.15	211.05
1006.44	210.97
1006.72	210.95
1007.01	210.90
1007.30	210.99
1007.59	210.93
1007.88	210.90
1008.17	210.98
1008.45	210.88
1008.74	210.80
1009.03	210.80
1009.32	210.82
1009.60	210.86
1009.89	210.87
1010.18	210.76
1010.47	210.82
1010.76	210.77
1011.04	210.82
1011.33	210.82
1011.62	210.79
1011.91	210.81
1012.19	210.78
1012.48	210.79
1012.77	210.81
1013.05	210.98
1013.34	210.91
1013.63	210.88
1013.92	210.89
1014.20	210.79
1014.49	210.79
1014.78	210.85
1015.06	210.71
1015.35	210.74
1015.64	210.76
1015.92	210.79
1016.21	210.81
1016.50	210.74
1016.78	210.82
1017.07	210.80
1017.36	210.74
1017.64	210.77
1017.93	210.75
1018.22	210.77
1018.50	210.76
1018.79	210.76
1019.08	210.63
1019.36	210.66
1019.65	210.73
1019.93	210.87
1020.22	210.93
1020.51	211.05
1020.79	211.05
1021.08	210.75
1021.36	210.15
1021.65	211.00
1021.94	211.00
1022.22	211.60
1022.51	211.15
1022.79	213.25
1023.08	210.20
1023.36	212.70
1023.65	211.10
>>>>>End Processed Spectral Data<<<<<
