SpectraSuite Data File
++++++++++++++++++++++++++++++++++++
Date: Mon Feb 25 17:34:33 EST 2013
User: group
Dark Spectrum Present: No
Reference Spectrum Present: No
Number of Sampled Component Spectra: 1
Spectrometers: USB2E7196
Integration Time (usec): 52000 (USB2E7196)
Spectra Averaged: 20 (USB2E7196)
Boxcar Smoothing: 10 (USB2E7196)
Correct for Electrical Dark: No (USB2E7196)
Strobe/Lamp Enabled: No (USB2E7196)
Correct for Detector Non-linearity: No (USB2E7196)
Correct for Stray Light: No (USB2E7196)
Number of Pixels in Processed Spectrum: 2048
>>>>>Begin Processed Spectral Data<<<<<
339.09	0.00
339.48	199.80
339.86	199.10
340.24	202.75
340.63	202.60
341.01	206.05
341.39	205.30
341.78	209.10
342.16	209.55
342.54	209.45
342.93	198.15
343.31	208.12
343.69	208.58
344.07	209.10
344.46	209.52
344.84	209.98
345.22	210.29
345.60	210.60
345.99	210.69
346.37	210.75
346.75	210.81
347.13	210.91
347.52	210.90
347.90	211.06
348.28	211.12
348.66	211.22
349.05	211.25
349.43	211.32
349.81	211.40
350.19	211.48
350.57	211.49
350.96	211.56
351.34	211.70
351.72	211.86
352.10	211.93
352.48	211.98
352.87	211.98
353.25	212.07
353.63	212.16
354.01	212.24
354.39	212.31
354.77	212.37
355.15	212.43
355.54	212.59
355.92	212.59
356.30	212.75
356.68	212.90
357.06	212.90
357.44	212.92
357.82	212.98
358.20	213.06
358.58	213.19
358.97	213.30
359.35	213.41
359.73	213.49
360.11	213.62
360.49	213.70
360.87	213.80
361.25	213.73
361.63	213.75
362.01	213.81
362.39	213.91
362.77	213.99
363.15	214.05
363.53	214.11
363.91	214.15
364.29	214.10
364.67	213.99
365.05	214.02
365.43	214.14
365.81	214.13
366.19	214.24
366.57	214.27
366.95	214.24
367.33	214.15
367.71	214.13
368.09	214.16
368.47	214.13
368.85	214.08
369.23	214.11
369.61	213.99
369.99	214.05
370.37	214.03
370.75	214.14
371.13	214.10
371.51	214.06
371.89	214.03
372.27	214.02
372.65	213.97
373.03	213.92
373.41	213.76
373.78	213.72
374.16	213.55
374.54	213.47
374.92	213.48
375.30	213.44
375.68	213.35
376.06	213.28
376.44	213.20
376.82	213.16
377.19	213.09
377.57	213.15
377.95	212.99
378.33	212.88
378.71	212.68
379.09	212.63
379.47	212.60
379.84	212.55
380.22	212.55
380.60	212.50
380.98	212.45
381.36	212.49
381.73	212.45
382.11	212.40
382.49	212.31
382.87	212.23
383.25	212.25
383.62	212.48
384.00	212.44
384.38	212.43
384.76	212.45
385.13	212.50
385.51	212.40
385.89	212.38
386.27	212.34
386.64	212.36
387.02	212.35
387.40	212.26
387.78	212.21
388.15	212.06
388.53	211.95
388.91	211.97
389.29	211.89
389.66	211.89
390.04	211.90
390.42	211.93
390.79	211.90
391.17	211.83
391.55	211.59
391.92	211.57
392.30	211.57
392.68	211.50
393.05	211.49
393.43	211.58
393.81	211.59
394.18	211.62
394.56	211.59
394.94	211.60
395.31	211.57
395.69	211.65
396.06	211.77
396.44	211.81
396.82	211.72
397.19	211.79
397.57	211.74
397.95	211.79
398.32	211.75
398.70	211.75
399.07	211.87
399.45	211.88
399.82	211.91
400.20	211.95
400.58	211.98
400.95	211.99
401.33	211.99
401.70	212.12
402.08	212.19
402.45	212.31
402.83	212.35
403.20	212.50
403.58	212.59
403.95	212.62
404.33	212.83
404.71	213.08
405.08	213.27
405.46	213.39
405.83	213.48
406.21	213.62
406.58	213.82
406.96	213.94
407.33	214.09
407.70	214.25
408.08	214.53
408.45	214.79
408.83	215.01
409.20	215.22
409.58	215.39
409.95	215.67
410.33	215.98
410.70	216.30
411.08	216.63
411.45	216.95
411.82	217.33
412.20	217.74
412.57	218.20
412.95	218.52
413.32	219.06
413.69	219.62
414.07	220.19
414.44	220.76
414.82	221.43
415.19	222.18
415.56	222.92
415.94	223.63
416.31	224.46
416.68	225.35
417.06	226.37
417.43	227.35
417.81	228.48
418.18	229.66
418.55	230.81
418.93	232.06
419.30	233.42
419.67	234.89
420.04	236.28
420.42	237.70
420.79	239.50
421.16	241.17
421.54	243.03
421.91	244.85
422.28	246.76
422.66	248.69
423.03	250.75
423.40	252.89
423.77	255.11
424.15	257.34
424.52	259.70
424.89	262.32
425.26	264.80
425.64	267.11
426.01	269.52
426.38	272.27
426.75	275.02
427.13	277.85
427.50	280.66
427.87	283.81
428.24	286.83
428.61	289.75
428.99	293.17
429.36	296.60
429.73	300.12
430.10	303.65
430.47	307.27
430.85	310.85
431.22	314.68
431.59	318.94
431.96	323.00
432.33	327.38
432.70	331.55
433.08	336.55
433.45	341.28
433.82	346.02
434.19	351.20
434.56	356.22
434.93	361.03
435.30	365.88
435.68	371.22
436.05	376.55
436.42	381.72
436.79	386.37
437.16	391.59
437.53	396.88
437.90	402.18
438.27	407.35
438.64	412.82
439.01	417.67
439.38	421.96
439.75	426.16
440.13	431.06
440.50	435.59
440.87	439.18
441.24	443.00
441.61	447.24
441.98	450.31
442.35	453.94
442.72	457.59
443.09	461.14
443.46	463.16
443.83	464.63
444.20	465.83
444.57	467.61
444.94	468.21
445.31	469.15
445.68	469.77
446.05	470.02
446.42	469.35
446.79	468.78
447.16	468.03
447.53	467.45
447.90	465.27
448.27	463.29
448.64	460.49
449.01	458.35
449.37	454.66
449.74	451.06
450.11	446.86
450.48	442.36
450.85	437.65
451.22	433.64
451.59	429.74
451.96	426.18
452.33	421.38
452.70	417.16
453.07	411.88
453.43	406.74
453.80	401.85
454.17	397.05
454.54	392.46
454.91	387.56
455.28	382.71
455.65	378.28
456.02	373.88
456.38	370.13
456.75	365.48
457.12	361.57
457.49	357.80
457.86	354.09
458.23	350.91
458.59	347.51
458.96	343.92
459.33	340.76
459.70	337.56
460.07	335.03
460.43	332.12
460.80	329.40
461.17	327.06
461.54	324.45
461.91	322.04
462.27	319.60
462.64	317.51
463.01	315.35
463.38	313.28
463.74	310.94
464.11	308.97
464.48	307.31
464.85	305.54
465.21	304.16
465.58	302.73
465.95	300.93
466.32	299.39
466.68	298.00
467.05	296.56
467.42	295.05
467.78	293.55
468.15	292.11
468.52	291.18
468.88	289.80
469.25	288.72
469.62	287.85
469.98	286.86
470.35	285.94
470.72	285.06
471.08	284.02
471.45	283.29
471.82	282.55
472.18	281.68
472.55	281.15
472.92	280.35
473.28	279.79
473.65	279.20
474.02	278.77
474.38	278.32
474.75	278.01
475.11	277.75
475.48	277.48
475.85	277.29
476.21	277.02
476.58	276.93
476.94	276.82
477.31	276.80
477.67	276.78
478.04	276.78
478.41	276.95
478.77	277.27
479.14	277.47
479.50	277.70
479.87	278.07
480.23	278.45
480.60	278.78
480.96	279.16
481.33	279.78
481.69	280.34
482.06	280.97
482.42	281.55
482.79	282.16
483.15	283.13
483.52	284.16
483.88	285.22
484.25	286.22
484.61	287.32
484.98	288.35
485.34	289.69
485.71	291.16
486.07	292.53
486.44	293.80
486.80	295.30
487.17	296.95
487.53	298.71
487.90	300.37
488.26	302.39
488.62	304.46
488.99	306.52
489.35	308.80
489.72	311.22
490.08	313.73
490.44	316.23
490.81	318.75
491.17	321.45
491.54	324.33
491.90	327.36
492.26	330.54
492.63	333.82
492.99	337.20
493.36	340.76
493.72	344.59
494.08	348.70
494.45	352.92
494.81	357.30
495.17	361.83
495.54	366.89
495.90	372.00
496.26	377.20
496.63	382.65
496.99	388.30
497.35	394.23
497.72	400.49
498.08	407.00
498.44	413.86
498.80	420.95
499.17	428.43
499.53	436.06
499.89	444.00
500.26	452.20
500.62	460.63
500.98	469.52
501.34	478.67
501.71	487.98
502.07	497.73
502.43	507.78
502.79	518.07
503.16	528.60
503.52	539.58
503.88	550.91
504.24	562.53
504.60	574.51
504.97	586.81
505.33	599.50
505.69	612.95
506.05	626.35
506.41	639.95
506.78	653.67
507.14	667.77
507.50	682.44
507.86	697.63
508.22	713.04
508.59	728.59
508.95	744.62
509.31	760.95
509.67	777.79
510.03	794.97
510.39	812.65
510.75	830.55
511.12	848.62
511.48	866.69
511.84	885.30
512.20	904.06
512.56	923.44
512.92	943.03
513.28	962.44
513.64	982.30
514.00	1002.48
514.37	1022.95
514.73	1043.87
515.09	1064.83
515.45	1085.57
515.81	1106.77
516.17	1128.24
516.53	1149.59
516.89	1171.28
517.25	1193.04
517.61	1214.53
517.97	1235.87
518.33	1257.31
518.69	1279.01
519.05	1301.33
519.41	1323.63
519.77	1346.19
520.13	1368.23
520.49	1390.15
520.85	1412.87
521.21	1435.46
521.57	1458.72
521.93	1480.49
522.29	1503.56
522.65	1526.09
523.01	1548.92
523.37	1571.03
523.73	1593.38
524.09	1615.57
524.45	1638.21
524.81	1660.19
525.17	1682.92
525.53	1705.60
525.89	1728.22
526.25	1750.64
526.61	1772.13
526.97	1793.93
527.33	1815.34
527.68	1837.09
528.04	1858.59
528.40	1879.35
528.76	1900.17
529.12	1920.65
529.48	1942.95
529.84	1963.29
530.20	1983.88
530.56	2004.47
530.91	2025.60
531.27	2046.20
531.63	2066.77
531.99	2086.51
532.35	2106.19
532.71	2125.40
533.07	2145.21
533.42	2164.07
533.78	2182.81
534.14	2201.61
534.50	2219.18
534.86	2237.49
535.21	2254.32
535.57	2272.15
535.93	2289.35
536.29	2306.55
536.65	2323.25
537.00	2338.65
537.36	2354.07
537.72	2369.10
538.08	2384.40
538.44	2400.01
538.79	2415.46
539.15	2430.34
539.51	2445.28
539.87	2460.62
540.22	2475.45
540.58	2490.46
540.94	2505.01
541.29	2518.31
541.65	2531.02
542.01	2544.43
542.37	2556.61
542.72	2569.30
543.08	2580.56
543.44	2592.99
543.79	2603.44
544.15	2614.04
544.51	2625.28
544.87	2636.74
545.22	2646.50
545.58	2655.24
545.94	2662.41
546.29	2668.80
546.65	2675.10
547.01	2681.28
547.36	2687.09
547.72	2692.56
548.07	2696.49
548.43	2700.39
548.79	2704.42
549.14	2708.97
549.50	2713.62
549.86	2717.56
550.21	2721.44
550.57	2725.63
550.92	2727.97
551.28	2730.94
551.64	2733.48
551.99	2736.12
552.35	2737.45
552.70	2740.29
553.06	2742.99
553.41	2746.35
553.77	2749.86
554.13	2752.33
554.48	2754.46
554.84	2756.27
555.19	2756.94
555.55	2757.68
555.90	2758.35
556.26	2759.01
556.61	2759.16
556.97	2757.79
557.32	2757.47
557.68	2755.87
558.03	2754.50
558.39	2753.13
558.74	2752.70
559.10	2751.35
559.45	2749.49
559.81	2748.58
560.16	2745.88
560.52	2743.51
560.87	2740.14
561.23	2736.34
561.58	2734.19
561.94	2731.12
562.29	2727.25
562.64	2725.07
563.00	2722.69
563.35	2720.68
563.71	2718.89
564.06	2716.66
564.42	2714.90
564.77	2712.46
565.12	2710.96
565.48	2707.83
565.83	2704.82
566.19	2701.45
566.54	2697.43
566.89	2693.52
567.25	2689.69
567.60	2686.57
567.96	2683.22
568.31	2679.83
568.66	2675.78
569.02	2670.93
569.37	2666.08
569.72	2662.29
570.08	2656.79
570.43	2650.97
570.78	2645.14
571.14	2638.97
571.49	2632.38
571.84	2626.48
572.20	2619.67
572.55	2613.36
572.90	2606.48
573.26	2599.71
573.61	2592.70
573.96	2586.44
574.31	2578.34
574.67	2570.22
575.02	2561.74
575.37	2552.76
575.72	2543.70
576.08	2536.18
576.43	2527.73
576.78	2519.79
577.13	2511.63
577.49	2503.24
577.84	2495.58
578.19	2487.65
578.54	2480.06
578.90	2472.95
579.25	2464.11
579.60	2454.98
579.95	2445.31
580.30	2437.67
580.66	2429.54
581.01	2420.02
581.36	2410.38
581.71	2402.31
582.06	2393.62
582.42	2385.50
582.77	2376.39
583.12	2367.28
583.47	2358.40
583.82	2350.13
584.17	2340.83
584.53	2331.81
584.88	2323.28
585.23	2314.03
585.58	2304.49
585.93	2294.48
586.28	2285.14
586.63	2276.23
586.98	2267.68
587.34	2259.23
587.69	2249.43
588.04	2239.85
588.39	2231.85
588.74	2222.99
589.09	2213.97
589.44	2204.15
589.79	2195.16
590.14	2187.52
590.49	2179.65
590.84	2170.44
591.19	2162.14
591.54	2153.18
591.89	2142.73
592.25	2133.26
592.60	2123.72
592.95	2114.20
593.30	2105.05
593.65	2094.99
594.00	2084.96
594.35	2076.44
594.70	2066.94
595.05	2058.19
595.40	2049.39
595.75	2039.65
596.10	2031.60
596.45	2023.04
596.80	2015.62
597.15	2007.05
597.50	1997.46
597.85	1988.54
598.19	1980.08
598.54	1971.13
598.89	1963.10
599.24	1956.35
599.59	1948.97
599.94	1941.76
600.29	1933.91
600.64	1925.67
600.99	1917.31
601.34	1910.40
601.69	1901.79
602.04	1893.71
602.39	1885.79
602.74	1877.95
603.08	1871.16
603.43	1863.39
603.78	1855.32
604.13	1847.10
604.48	1839.15
604.83	1832.25
605.18	1825.25
605.53	1817.60
605.87	1809.87
606.22	1802.71
606.57	1794.64
606.92	1786.45
607.27	1778.30
607.62	1771.02
607.96	1764.31
608.31	1758.16
608.66	1750.06
609.01	1742.39
609.36	1734.61
609.70	1726.43
610.05	1718.50
610.40	1710.19
610.75	1701.65
611.10	1693.79
611.44	1684.47
611.79	1675.37
612.14	1665.70
612.49	1655.85
612.83	1646.86
613.18	1637.09
613.53	1627.45
613.88	1617.54
614.22	1608.50
614.57	1599.15
614.92	1589.76
615.27	1580.29
615.61	1570.20
615.96	1561.16
616.31	1552.52
616.65	1544.56
617.00	1535.91
617.35	1527.37
617.70	1518.17
618.04	1509.15
618.39	1499.71
618.74	1491.68
619.08	1483.14
619.43	1474.83
619.78	1467.10
620.12	1458.94
620.47	1451.29
620.82	1442.92
621.16	1434.98
621.51	1426.60
621.85	1418.26
622.20	1409.76
622.55	1401.01
622.89	1392.86
623.24	1384.74
623.59	1375.94
623.93	1367.26
624.28	1359.24
624.62	1350.87
624.97	1342.62
625.32	1334.73
625.66	1327.32
626.01	1319.70
626.35	1312.18
626.70	1304.61
627.04	1296.92
627.39	1289.32
627.73	1281.67
628.08	1274.65
628.43	1266.89
628.77	1259.24
629.12	1251.78
629.46	1245.17
629.81	1238.01
630.15	1230.66
630.50	1223.29
630.84	1216.27
631.19	1209.18
631.53	1202.27
631.88	1194.62
632.22	1187.31
632.57	1180.11
632.91	1172.71
633.26	1165.11
633.60	1158.00
633.95	1151.15
634.29	1143.76
634.64	1136.97
634.98	1129.89
635.32	1122.74
635.67	1116.38
636.01	1109.90
636.36	1102.95
636.70	1095.95
637.05	1089.28
637.39	1082.93
637.73	1076.47
638.08	1070.55
638.42	1064.52
638.77	1057.85
639.11	1051.59
639.45	1045.59
639.80	1038.98
640.14	1032.71
640.49	1026.59
640.83	1020.45
641.17	1013.92
641.52	1007.77
641.86	1001.11
642.20	994.66
642.55	987.85
642.89	981.22
643.23	974.70
643.58	968.90
643.92	962.50
644.26	956.22
644.61	949.89
644.95	943.79
645.29	937.26
645.64	930.51
645.98	924.23
646.32	918.27
646.66	911.89
647.01	905.88
647.35	899.65
647.69	893.21
648.04	887.09
648.38	881.30
648.72	875.35
649.06	869.29
649.41	863.34
649.75	857.66
650.09	851.89
650.43	845.90
650.78	839.62
651.12	833.47
651.46	827.67
651.80	821.74
652.14	815.76
652.49	809.77
652.83	803.93
653.17	797.96
653.51	792.05
653.85	786.21
654.20	780.28
654.54	774.61
654.88	769.14
655.22	763.17
655.56	757.05
655.90	751.11
656.25	745.31
656.59	739.83
656.93	734.60
657.27	729.39
657.61	723.91
657.95	718.76
658.29	713.75
658.64	708.49
658.98	703.33
659.32	697.82
659.66	692.71
660.00	687.31
660.34	682.09
660.68	676.89
661.02	671.94
661.36	667.39
661.70	662.45
662.05	657.77
662.39	653.33
662.73	649.00
663.07	644.85
663.41	640.58
663.75	636.08
664.09	631.13
664.43	626.26
664.77	621.94
665.11	617.55
665.45	613.08
665.79	608.71
666.13	604.31
666.47	600.18
666.81	596.09
667.15	592.03
667.49	588.10
667.83	584.17
668.17	580.29
668.51	576.32
668.85	572.59
669.19	568.77
669.53	564.91
669.87	560.87
670.21	556.90
670.55	552.92
670.89	549.39
671.23	546.26
671.57	542.91
671.91	539.31
672.25	535.74
672.58	532.10
672.92	528.61
673.26	525.46
673.60	522.20
673.94	518.72
674.28	515.39
674.62	512.20
674.96	508.95
675.30	505.77
675.64	502.67
675.97	499.35
676.31	496.07
676.65	493.05
676.99	490.46
677.33	487.43
677.67	484.51
678.01	481.31
678.34	478.18
678.68	475.12
679.02	472.16
679.36	469.16
679.70	466.26
680.04	463.38
680.37	460.25
680.71	457.38
681.05	454.68
681.39	451.98
681.73	449.14
682.06	446.57
682.40	443.85
682.74	441.09
683.08	438.57
683.42	436.10
683.75	433.54
684.09	430.71
684.43	428.14
684.77	425.65
685.10	423.22
685.44	420.59
685.78	418.13
686.12	415.84
686.45	413.40
686.79	411.10
687.13	408.89
687.46	406.84
687.80	404.54
688.14	402.20
688.48	400.00
688.81	397.80
689.15	395.59
689.49	393.42
689.82	391.21
690.16	388.95
690.50	386.59
690.83	384.40
691.17	382.13
691.51	380.00
691.84	377.85
692.18	375.69
692.52	373.79
692.85	371.96
693.19	370.07
693.52	368.20
693.86	366.34
694.20	364.39
694.53	362.35
694.87	360.45
695.21	358.61
695.54	356.67
695.88	354.77
696.21	352.84
696.55	351.17
696.88	349.41
697.22	347.71
697.56	346.22
697.89	344.49
698.23	342.96
698.56	341.28
698.90	339.69
699.23	338.12
699.57	336.46
699.90	334.75
700.24	333.05
700.58	331.48
700.91	329.93
701.25	328.48
701.58	327.13
701.92	325.68
702.25	324.22
702.59	322.89
702.92	321.53
703.26	320.27
703.59	318.85
703.93	317.70
704.26	316.37
704.60	314.97
704.93	313.72
705.26	312.36
705.60	311.16
705.93	309.92
706.27	308.72
706.60	307.59
706.94	306.50
707.27	305.25
707.61	304.20
707.94	303.03
708.27	301.84
708.61	300.60
708.94	299.46
709.28	298.30
709.61	297.21
709.94	296.15
710.28	295.07
710.61	294.01
710.95	292.75
711.28	291.86
711.61	290.86
711.95	289.82
712.28	288.87
712.61	287.82
712.95	286.99
713.28	286.13
713.61	285.17
713.95	284.31
714.28	283.45
714.61	282.38
714.95	281.47
715.28	280.47
715.61	279.57
715.95	278.63
716.28	277.75
716.61	277.00
716.95	276.22
717.28	275.37
717.61	274.58
717.94	273.81
718.28	272.90
718.61	272.06
718.94	271.43
719.27	270.74
719.61	270.10
719.94	269.30
720.27	268.50
720.60	267.85
720.94	267.08
721.27	266.49
721.60	265.93
721.93	265.41
722.27	264.83
722.60	264.35
722.93	263.79
723.26	263.31
723.59	262.55
723.93	261.88
724.26	261.34
724.59	260.71
724.92	260.21
725.25	259.63
725.59	259.14
725.92	258.49
726.25	258.02
726.58	257.51
726.91	257.00
727.24	256.50
727.57	255.92
727.91	255.34
728.24	254.88
728.57	254.38
728.90	253.86
729.23	253.44
729.56	252.95
729.89	252.50
730.22	251.95
730.55	251.54
730.89	251.20
731.22	250.66
731.55	250.23
731.88	249.84
732.21	249.42
732.54	248.89
732.87	248.47
733.20	248.02
733.53	247.52
733.86	247.11
734.19	246.69
734.52	246.32
734.85	246.03
735.18	245.49
735.51	245.10
735.84	244.72
736.17	244.33
736.50	243.87
736.83	243.74
737.16	243.42
737.49	243.03
737.82	242.57
738.15	242.26
738.48	241.88
738.81	241.44
739.14	241.04
739.47	240.71
739.80	240.34
740.13	239.92
740.46	239.64
740.79	239.19
741.12	238.85
741.45	238.47
741.78	238.13
742.11	237.90
742.44	237.57
742.77	237.24
743.10	236.91
743.43	236.58
743.75	236.01
744.08	235.89
744.41	235.60
744.74	235.36
745.07	235.04
745.40	234.81
745.73	234.56
746.06	234.35
746.39	234.12
746.71	233.81
747.04	233.54
747.37	233.21
747.70	233.05
748.03	232.73
748.36	232.48
748.68	232.19
749.01	231.86
749.34	231.57
749.67	231.40
750.00	231.16
750.33	231.09
750.65	230.89
750.98	230.48
751.31	230.25
751.64	230.02
751.97	229.89
752.29	229.64
752.62	229.36
752.95	229.16
753.28	229.00
753.60	228.88
753.93	228.78
754.26	228.62
754.59	228.38
754.91	228.21
755.24	228.04
755.57	227.90
755.90	227.67
756.22	227.52
756.55	227.28
756.88	227.00
757.20	226.64
757.53	226.40
757.86	226.16
758.19	225.97
758.51	225.72
758.84	225.53
759.17	225.31
759.49	225.24
759.82	225.13
760.15	224.91
760.47	224.74
760.80	224.52
761.13	224.41
761.45	224.33
761.78	224.18
762.11	224.10
762.43	223.90
762.76	223.82
763.08	223.72
763.41	223.58
763.74	223.52
764.06	223.47
764.39	223.41
764.71	223.40
765.04	223.27
765.37	223.15
765.69	222.91
766.02	222.83
766.34	222.65
766.67	222.50
767.00	222.39
767.32	222.30
767.65	222.30
767.97	222.13
768.30	221.97
768.62	221.84
768.95	221.63
769.27	221.50
769.60	221.49
769.92	221.35
770.25	221.21
770.57	221.06
770.90	220.85
771.22	220.72
771.55	220.54
771.87	220.49
772.20	220.42
772.52	220.52
772.85	220.59
773.17	220.42
773.50	220.25
773.82	220.10
774.15	219.93
774.47	219.69
774.80	219.58
775.12	219.49
775.45	219.37
775.77	219.23
776.09	219.18
776.42	218.99
776.74	218.90
777.07	218.82
777.39	218.79
777.72	218.71
778.04	218.60
778.36	218.46
778.69	218.34
779.01	218.29
779.33	218.05
779.66	217.81
779.98	217.75
780.31	217.63
780.63	217.70
780.95	217.58
781.28	217.49
781.60	217.34
781.92	217.25
782.25	217.18
782.57	217.08
782.89	216.91
783.22	216.86
783.54	216.73
783.86	216.65
784.19	216.42
784.51	216.47
784.83	216.43
785.16	216.39
785.48	216.32
785.80	216.29
786.12	216.19
786.45	216.07
786.77	216.06
787.09	216.06
787.42	215.89
787.74	215.92
788.06	215.90
788.38	215.82
788.71	215.75
789.03	215.74
789.35	215.86
789.67	215.80
789.99	215.75
790.32	215.69
790.64	215.63
790.96	215.82
791.28	215.59
791.61	215.42
791.93	215.38
792.25	215.28
792.57	215.20
792.89	215.12
793.21	215.07
793.54	214.97
793.86	214.93
794.18	214.85
794.50	214.74
794.82	214.71
795.14	214.76
795.47	214.72
795.79	214.62
796.11	214.46
796.43	214.49
796.75	214.38
797.07	214.30
797.39	214.24
797.71	214.02
798.04	214.05
798.36	214.07
798.68	214.03
799.00	214.03
799.32	213.97
799.64	214.00
799.96	213.94
800.28	213.96
800.60	213.88
800.92	213.94
801.24	213.93
801.56	213.89
801.89	213.79
802.21	213.81
802.53	213.79
802.85	213.81
803.17	213.77
803.49	213.79
803.81	213.83
804.13	213.79
804.45	213.79
804.77	213.83
805.09	213.80
805.41	213.75
805.73	213.73
806.05	213.68
806.37	213.61
806.69	213.61
807.01	213.61
807.33	213.58
807.65	213.50
807.97	213.57
808.28	213.50
808.60	213.53
808.92	213.47
809.24	213.60
809.56	213.55
809.88	213.54
810.20	213.54
810.52	213.60
810.84	213.63
811.16	213.60
811.48	213.53
811.80	213.62
812.12	213.61
812.43	213.59
812.75	213.54
813.07	213.54
813.39	213.53
813.71	213.46
814.03	213.47
814.35	213.44
814.67	213.29
814.98	213.32
815.30	213.34
815.62	213.28
815.94	213.13
816.26	213.14
816.58	213.04
816.89	213.01
817.21	212.88
817.53	212.88
817.85	212.86
818.17	212.83
818.48	212.67
818.80	212.69
819.12	212.65
819.44	212.65
819.76	212.65
820.07	212.67
820.39	212.56
820.71	212.58
821.03	212.57
821.34	212.58
821.66	212.62
821.98	212.56
822.30	212.52
822.61	212.61
822.93	212.51
823.25	212.55
823.57	212.52
823.88	212.52
824.20	212.41
824.52	212.38
824.83	212.45
825.15	212.48
825.47	212.48
825.79	212.47
826.10	212.40
826.42	212.35
826.74	212.39
827.05	212.46
827.37	212.40
827.69	212.38
828.00	212.37
828.32	212.30
828.64	212.30
828.95	212.39
829.27	212.34
829.58	212.31
829.90	212.37
830.22	212.40
830.53	212.35
830.85	212.35
831.17	212.38
831.48	212.30
831.80	212.27
832.11	212.20
832.43	212.15
832.75	212.21
833.06	212.22
833.38	212.09
833.69	212.04
834.01	212.04
834.32	212.05
834.64	212.10
834.96	211.99
835.27	211.93
835.59	211.90
835.90	211.79
836.22	211.80
836.53	211.74
836.85	211.68
837.16	211.81
837.48	211.80
837.79	211.80
838.11	211.86
838.42	211.81
838.74	211.83
839.05	211.85
839.37	211.86
839.68	211.83
840.00	211.90
840.31	211.93
840.63	211.92
840.94	211.88
841.26	211.76
841.57	211.89
841.88	211.90
842.20	211.83
842.51	211.87
842.83	211.90
843.14	212.00
843.46	212.06
843.77	212.08
844.08	212.13
844.40	212.12
844.71	212.06
845.03	212.04
845.34	212.11
845.65	212.10
845.97	212.02
846.28	212.05
846.60	211.99
846.91	211.97
847.22	212.00
847.54	212.03
847.85	212.07
848.16	212.03
848.48	211.98
848.79	212.01
849.10	212.04
849.42	212.05
849.73	211.92
850.04	211.89
850.36	211.78
850.67	211.76
850.98	211.75
851.30	211.71
851.61	211.77
851.92	211.71
852.23	211.76
852.55	211.81
852.86	211.77
853.17	211.85
853.49	211.93
853.80	211.95
854.11	212.03
854.42	212.10
854.74	212.02
855.05	212.10
855.36	212.01
855.67	212.00
855.99	212.00
856.30	212.20
856.61	212.16
856.92	212.14
857.23	212.16
857.55	212.13
857.86	212.16
858.17	212.19
858.48	212.21
858.79	212.15
859.11	212.13
859.42	212.15
859.73	212.14
860.04	212.10
860.35	212.08
860.66	211.97
860.98	211.96
861.29	211.98
861.60	211.95
861.91	212.03
862.22	211.98
862.53	211.92
862.84	211.70
863.16	211.81
863.47	211.75
863.78	211.77
864.09	211.84
864.40	211.84
864.71	211.78
865.02	211.75
865.33	211.75
865.64	211.81
865.95	211.80
866.27	211.88
866.58	211.83
866.89	211.82
867.20	211.83
867.51	211.75
867.82	211.76
868.13	211.89
868.44	211.87
868.75	211.88
869.06	211.92
869.37	211.93
869.68	211.89
869.99	212.00
870.30	211.99
870.61	211.98
870.92	211.97
871.23	211.99
871.54	212.06
871.85	212.05
872.16	212.05
872.47	212.00
872.78	211.83
873.09	211.83
873.40	211.80
873.71	211.86
874.02	211.95
874.33	211.96
874.64	211.83
874.95	211.88
875.26	211.84
875.56	211.86
875.87	211.85
876.18	211.76
876.49	211.87
876.80	211.86
877.11	211.84
877.42	211.88
877.73	211.91
878.04	211.84
878.35	211.87
878.66	211.84
878.96	211.91
879.27	211.96
879.58	212.00
879.89	212.02
880.20	212.02
880.51	211.94
880.82	211.89
881.12	211.92
881.43	211.82
881.74	211.87
882.05	211.82
882.36	211.88
882.67	211.96
882.97	211.73
883.28	211.72
883.59	211.70
883.90	211.65
884.21	211.67
884.51	211.67
884.82	211.70
885.13	211.66
885.44	211.62
885.74	211.69
886.05	211.65
886.36	211.70
886.67	211.61
886.98	211.76
887.28	211.79
887.59	211.80
887.90	211.79
888.20	211.81
888.51	211.81
888.82	211.74
889.13	211.67
889.43	211.89
889.74	211.85
890.05	211.82
890.35	211.89
890.66	211.96
890.97	211.88
891.28	211.83
891.58	211.83
891.89	211.81
892.20	211.68
892.50	211.62
892.81	211.54
893.12	211.52
893.42	211.42
893.73	211.44
894.04	211.45
894.34	211.49
894.65	211.43
894.95	211.43
895.26	211.46
895.57	211.54
895.87	211.39
896.18	211.40
896.48	211.36
896.79	211.31
897.10	211.21
897.40	211.21
897.71	211.16
898.01	211.16
898.32	211.19
898.63	211.22
898.93	211.32
899.24	211.30
899.54	211.34
899.85	211.35
900.15	211.29
900.46	211.27
900.76	211.28
901.07	211.24
901.38	211.23
901.68	211.23
901.99	211.07
902.29	211.02
902.60	210.97
902.90	210.96
903.21	210.92
903.51	210.90
903.82	210.89
904.12	210.92
904.43	210.88
904.73	210.91
905.03	210.93
905.34	211.06
905.64	211.01
905.95	210.97
906.25	210.93
906.56	210.95
906.86	210.90
907.17	210.81
907.47	210.90
907.77	210.86
908.08	210.77
908.38	210.81
908.69	210.87
908.99	210.93
909.30	210.97
909.60	210.99
909.90	210.98
910.21	210.98
910.51	210.93
910.81	210.97
911.12	210.88
911.42	210.84
911.73	210.68
912.03	210.79
912.33	210.77
912.64	210.71
912.94	210.69
913.24	210.68
913.55	210.72
913.85	210.63
914.15	210.70
914.46	210.74
914.76	210.76
915.06	210.72
915.37	210.69
915.67	210.69
915.97	210.61
916.27	210.63
916.58	210.63
916.88	210.62
917.18	210.60
917.49	210.75
917.79	210.80
918.09	210.76
918.39	210.72
918.70	210.72
919.00	210.75
919.30	210.76
919.60	210.77
919.91	210.83
920.21	210.85
920.51	210.77
920.81	210.81
921.12	210.85
921.42	210.88
921.72	210.93
922.02	210.95
922.32	211.05
922.63	211.05
922.93	211.12
923.23	211.17
923.53	211.21
923.83	211.10
924.13	211.05
924.44	211.07
924.74	211.06
925.04	211.15
925.34	211.12
925.64	211.10
925.94	211.12
926.24	211.11
926.55	211.17
926.85	211.15
927.15	211.10
927.45	211.07
927.75	211.01
928.05	211.03
928.35	210.98
928.65	211.02
928.95	211.06
929.26	211.01
929.56	211.04
929.86	211.03
930.16	211.02
930.46	210.94
930.76	210.98
931.06	210.98
931.36	210.90
931.66	210.96
931.96	211.00
932.26	210.99
932.56	210.91
932.86	210.87
933.16	210.93
933.46	210.97
933.76	211.03
934.06	211.12
934.36	211.14
934.66	211.10
934.96	211.02
935.26	211.00
935.56	211.03
935.86	210.95
936.16	210.89
936.46	210.90
936.76	210.98
937.06	210.89
937.36	210.93
937.66	210.90
937.96	210.94
938.26	210.83
938.56	210.80
938.86	210.86
939.16	210.88
939.46	210.93
939.76	210.93
940.06	210.90
940.35	210.78
940.65	210.68
940.95	210.76
941.25	210.77
941.55	210.78
941.85	210.76
942.15	210.79
942.45	210.83
942.75	210.83
943.04	210.86
943.34	210.95
943.64	210.89
943.94	210.89
944.24	210.82
944.54	210.90
944.84	210.88
945.13	210.80
945.43	210.76
945.73	210.72
946.03	210.71
946.33	210.74
946.62	210.85
946.92	210.84
947.22	210.79
947.52	210.79
947.82	210.75
948.11	210.77
948.41	210.71
948.71	210.70
949.01	210.67
949.31	210.59
949.60	210.53
949.90	210.51
950.20	210.51
950.50	210.51
950.79	210.49
951.09	210.55
951.39	210.53
951.69	210.48
951.98	210.53
952.28	210.53
952.58	210.52
952.87	210.47
953.17	210.57
953.47	210.59
953.76	210.55
954.06	210.65
954.36	210.62
954.66	210.70
954.95	210.76
955.25	210.81
955.55	210.83
955.84	210.80
956.14	210.87
956.44	210.82
956.73	210.77
957.03	210.76
957.32	210.77
957.62	210.80
957.92	210.84
958.21	210.82
958.51	210.96
958.81	210.97
959.10	210.97
959.40	210.95
959.69	210.99
959.99	211.03
960.29	210.97
960.58	210.97
960.88	211.02
961.17	211.02
961.47	211.08
961.76	211.06
962.06	211.10
962.36	210.99
962.65	211.04
962.95	211.04
963.24	211.04
963.54	211.06
963.83	211.17
964.13	211.22
964.42	211.12
964.72	211.03
965.01	211.01
965.31	210.95
965.60	210.90
965.90	210.92
966.19	210.88
966.49	210.91
966.78	210.85
967.08	210.75
967.37	210.73
967.67	210.63
967.96	210.64
968.26	210.63
968.55	210.70
968.85	210.72
969.14	210.77
969.43	210.80
969.73	210.73
970.02	210.63
970.32	210.64
970.61	210.69
970.91	210.63
971.20	210.66
971.49	210.70
971.79	210.70
972.08	210.61
972.38	210.68
972.67	210.57
972.96	210.66
973.26	210.65
973.55	210.71
973.85	210.71
974.14	210.77
974.43	210.81
974.73	210.83
975.02	210.75
975.31	210.73
975.61	210.72
975.90	210.69
976.19	210.65
976.49	210.63
976.78	210.67
977.07	210.64
977.37	210.54
977.66	210.52
977.95	210.45
978.24	210.46
978.54	210.46
978.83	210.50
979.12	210.47
979.42	210.52
979.71	210.43
980.00	210.43
980.29	210.41
980.59	210.30
980.88	210.25
981.17	210.32
981.46	210.29
981.76	210.31
982.05	210.41
982.34	210.46
982.63	210.43
982.93	210.41
983.22	210.46
983.51	210.44
983.80	210.46
984.09	210.52
984.39	210.56
984.68	210.53
984.97	210.54
985.26	210.48
985.55	210.49
985.85	210.49
986.14	210.50
986.43	210.55
986.72	210.59
987.01	210.62
987.30	210.61
987.59	210.70
987.89	210.69
988.18	210.69
988.47	210.69
988.76	210.67
989.05	210.62
989.34	210.62
989.63	210.69
989.92	210.69
990.22	210.70
990.51	210.66
990.80	210.64
991.09	210.65
991.38	210.70
991.67	210.65
991.96	210.65
992.25	210.72
992.54	210.65
992.83	210.66
993.12	210.65
993.41	210.69
993.70	210.67
993.99	210.67
994.28	210.58
994.58	210.54
994.87	210.53
995.16	210.59
995.45	210.53
995.74	210.50
996.03	210.51
996.32	210.56
996.61	210.57
996.90	210.59
997.19	210.57
997.48	210.60
997.77	210.66
998.06	210.66
998.34	210.58
998.63	210.63
998.92	210.66
999.21	210.69
999.50	210.68
999.79	210.55
1000.08	210.57
1000.37	210.59
1000.66	210.57
1000.95	210.58
1001.24	210.51
1001.53	210.61
1001.82	210.63
1002.11	210.60
1002.40	210.57
1002.68	210.64
1002.97	210.73
1003.26	210.71
1003.55	210.65
1003.84	210.61
1004.13	210.65
1004.42	210.66
1004.71	210.59
1004.99	210.49
1005.28	210.57
1005.57	210.52
1005.86	210.57
1006.15	210.59
1006.44	210.62
1006.72	210.73
1007.01	210.74
1007.30	210.77
1007.59	210.76
1007.88	210.76
1008.17	210.77
1008.45	210.66
1008.74	210.61
1009.03	210.51
1009.32	210.48
1009.60	210.48
1009.89	210.45
1010.18	210.38
1010.47	210.30
1010.76	210.37
1011.04	210.40
1011.33	210.38
1011.62	210.46
1011.91	210.44
1012.19	210.37
1012.48	210.42
1012.77	210.35
1013.05	210.48
1013.34	210.50
1013.63	210.46
1013.92	210.48
1014.20	210.52
1014.49	210.66
1014.78	210.61
1015.06	210.61
1015.35	210.67
1015.64	210.72
1015.92	210.81
1016.21	210.86
1016.50	210.93
1016.78	210.89
1017.07	210.90
1017.36	210.84
1017.64	210.76
1017.93	210.78
1018.22	210.85
1018.50	210.80
1018.79	210.81
1019.08	210.66
1019.36	210.70
1019.65	210.69
1019.93	210.70
1020.22	210.68
1020.51	210.72
1020.79	210.75
1021.08	211.60
1021.36	210.35
1021.65	210.50
1021.94	210.20
1022.22	211.60
1022.51	210.70
1022.79	211.25
1023.08	210.35
1023.36	212.95
1023.65	210.15
>>>>>End Processed Spectral Data<<<<<
