SpectraSuite Data File
++++++++++++++++++++++++++++++++++++
Date: Mon Feb 25 17:31:13 EST 2013
User: group
Dark Spectrum Present: No
Reference Spectrum Present: No
Number of Sampled Component Spectra: 1
Spectrometers: USB2E7196
Integration Time (usec): 52000 (USB2E7196)
Spectra Averaged: 20 (USB2E7196)
Boxcar Smoothing: 10 (USB2E7196)
Correct for Electrical Dark: No (USB2E7196)
Strobe/Lamp Enabled: No (USB2E7196)
Correct for Detector Non-linearity: No (USB2E7196)
Correct for Stray Light: No (USB2E7196)
Number of Pixels in Processed Spectrum: 2048
>>>>>Begin Processed Spectral Data<<<<<
339.09	0.00
339.48	197.70
339.86	200.40
340.24	201.20
340.63	204.20
341.01	207.60
341.39	205.40
341.78	207.10
342.16	208.05
342.54	208.30
342.93	198.15
343.31	208.17
343.69	208.74
344.07	209.19
344.46	209.65
344.84	210.03
345.22	210.22
345.60	210.49
345.99	210.75
346.37	210.90
346.75	211.08
347.13	211.24
347.52	211.29
347.90	211.33
348.28	211.28
348.66	211.34
349.05	211.29
349.43	211.34
349.81	211.44
350.19	211.41
350.57	211.52
350.96	211.55
351.34	211.71
351.72	211.85
352.10	211.95
352.48	212.00
352.87	211.99
353.25	212.08
353.63	212.12
354.01	212.17
354.39	212.24
354.77	212.30
355.15	212.35
355.54	212.37
355.92	212.40
356.30	212.50
356.68	212.71
357.06	212.85
357.44	212.90
357.82	212.96
358.20	213.09
358.58	213.18
358.97	213.19
359.35	213.25
359.73	213.38
360.11	213.43
360.49	213.55
360.87	213.55
361.25	213.55
361.63	213.67
362.01	213.69
362.39	213.81
362.77	213.89
363.15	213.96
363.53	214.00
363.91	214.11
364.29	214.19
364.67	214.09
365.05	214.06
365.43	214.15
365.81	214.17
366.19	214.21
366.57	214.28
366.95	214.35
367.33	214.27
367.71	214.25
368.09	214.30
368.47	214.25
368.85	214.37
369.23	214.43
369.61	214.35
369.99	214.47
370.37	214.42
370.75	214.46
371.13	214.36
371.51	214.32
371.89	214.26
372.27	214.20
372.65	214.19
373.03	214.13
373.41	214.05
373.78	214.04
374.16	213.91
374.54	213.79
374.92	213.71
375.30	213.67
375.68	213.53
376.06	213.44
376.44	213.39
376.82	213.27
377.19	213.15
377.57	213.13
377.95	212.89
378.33	212.83
378.71	212.65
379.09	212.69
379.47	212.63
379.84	212.57
380.22	212.46
380.60	212.34
380.98	212.35
381.36	212.28
381.73	212.27
382.11	212.31
382.49	212.27
382.87	212.15
383.25	212.16
383.62	212.35
384.00	212.27
384.38	212.25
384.76	212.30
385.13	212.33
385.51	212.31
385.89	212.26
386.27	212.21
386.64	212.23
387.02	212.14
387.40	212.17
387.78	212.08
388.15	212.13
388.53	212.04
388.91	211.97
389.29	211.93
389.66	211.86
390.04	211.75
390.42	211.81
390.79	211.84
391.17	211.75
391.55	211.47
391.92	211.51
392.30	211.47
392.68	211.35
393.05	211.31
393.43	211.26
393.81	211.30
394.18	211.26
394.56	211.23
394.94	211.29
395.31	211.22
395.69	211.34
396.06	211.30
396.44	211.40
396.82	211.38
397.19	211.52
397.57	211.51
397.95	211.54
398.32	211.49
398.70	211.51
399.07	211.60
399.45	211.78
399.82	211.83
400.20	211.95
400.58	212.03
400.95	212.01
401.33	212.13
401.70	212.30
402.08	212.39
402.45	212.47
402.83	212.55
403.20	212.71
403.58	212.73
403.95	212.78
404.33	212.84
404.71	212.94
405.08	213.12
405.46	213.30
405.83	213.40
406.21	213.44
406.58	213.55
406.96	213.68
407.33	213.75
407.70	213.90
408.08	214.16
408.45	214.36
408.83	214.69
409.20	214.89
409.58	215.00
409.95	215.29
410.33	215.58
410.70	215.83
411.08	216.12
411.45	216.53
411.82	216.95
412.20	217.38
412.57	217.91
412.95	218.29
413.32	218.70
413.69	219.24
414.07	219.85
414.44	220.55
414.82	221.14
415.19	221.91
415.56	222.64
415.94	223.32
416.31	224.21
416.68	225.00
417.06	226.00
417.43	226.92
417.81	227.96
418.18	229.05
418.55	230.19
418.93	231.42
419.30	232.61
419.67	233.99
420.04	235.36
420.42	236.82
420.79	238.54
421.16	240.26
421.54	242.08
421.91	243.91
422.28	245.78
422.66	247.84
423.03	249.84
423.40	251.83
423.77	254.00
424.15	256.16
424.52	258.41
424.89	260.90
425.26	263.32
425.64	265.62
426.01	268.23
426.38	270.96
426.75	273.71
427.13	276.53
427.50	279.48
427.87	282.56
428.24	285.62
428.61	288.45
428.99	291.69
429.36	295.14
429.73	298.57
430.10	301.95
430.47	305.35
430.85	308.98
431.22	312.85
431.59	317.05
431.96	320.89
432.33	325.24
432.70	329.42
433.08	334.40
433.45	338.97
433.82	343.46
434.19	348.48
434.56	353.29
434.93	357.93
435.30	362.49
435.68	367.77
436.05	372.79
436.42	377.94
436.79	382.70
437.16	387.66
437.53	392.95
437.90	398.16
438.27	403.35
438.64	408.48
439.01	413.35
439.38	417.52
439.75	421.67
440.13	426.30
440.50	430.67
440.87	434.22
441.24	438.08
441.61	442.10
441.98	445.05
442.35	448.62
442.72	452.27
443.09	455.74
443.46	457.73
443.83	459.10
444.20	460.25
444.57	461.85
444.94	462.58
445.31	463.11
445.68	463.88
446.05	463.95
446.42	463.31
446.79	462.56
447.16	461.75
447.53	461.32
447.90	459.20
448.27	457.22
448.64	454.41
449.01	452.25
449.37	448.79
449.74	445.35
450.11	441.35
450.48	436.96
450.85	432.50
451.22	428.56
451.59	424.92
451.96	421.42
452.33	416.67
452.70	412.40
453.07	407.52
453.43	402.32
453.80	397.55
454.17	392.96
454.54	388.50
454.91	383.73
455.28	378.92
455.65	374.71
456.02	370.54
456.38	366.84
456.75	362.27
457.12	358.52
457.49	354.80
457.86	351.19
458.23	348.10
458.59	344.66
458.96	341.19
459.33	338.09
459.70	334.85
460.07	332.41
460.43	329.60
460.80	327.01
461.17	324.72
461.54	322.29
461.91	319.99
462.27	317.68
462.64	315.81
463.01	313.71
463.38	311.66
463.74	309.33
464.11	307.54
464.48	305.93
464.85	304.17
465.21	302.85
465.58	301.41
465.95	299.68
466.32	298.30
466.68	296.87
467.05	295.50
467.42	294.19
467.78	292.78
468.15	291.51
468.52	290.49
468.88	289.19
469.25	288.07
469.62	287.07
469.98	286.07
470.35	285.11
470.72	284.33
471.08	283.33
471.45	282.62
471.82	281.85
472.18	281.03
472.55	280.40
472.92	279.65
473.28	278.97
473.65	278.38
474.02	277.83
474.38	277.48
474.75	277.12
475.11	276.76
475.48	276.51
475.85	276.28
476.21	276.04
476.58	275.94
476.94	275.88
477.31	275.88
477.67	275.90
478.04	275.95
478.41	276.01
478.77	276.39
479.14	276.60
479.50	276.75
479.87	277.16
480.23	277.56
480.60	277.90
480.96	278.37
481.33	278.99
481.69	279.54
482.06	280.14
482.42	280.85
482.79	281.59
483.15	282.40
483.52	283.35
483.88	284.33
484.25	285.25
484.61	286.34
484.98	287.45
485.34	288.71
485.71	289.97
486.07	291.32
486.44	292.63
486.80	294.05
487.17	295.63
487.53	297.37
487.90	299.16
488.26	301.14
488.62	303.24
488.99	305.26
489.35	307.38
489.72	309.56
490.08	311.86
490.44	314.34
490.81	316.96
491.17	319.63
491.54	322.55
491.90	325.65
492.26	328.79
492.63	332.06
492.99	335.53
493.36	339.29
493.72	343.19
494.08	347.20
494.45	351.42
494.81	355.99
495.17	360.59
495.54	365.51
495.90	370.66
496.26	375.71
496.63	381.17
496.99	386.99
497.35	393.15
497.72	399.50
498.08	405.98
498.44	412.69
498.80	419.91
499.17	427.33
499.53	434.96
499.89	442.93
500.26	451.03
500.62	459.20
500.98	468.00
501.34	477.04
501.71	486.41
502.07	496.15
502.43	506.28
502.79	516.37
503.16	526.86
503.52	537.65
503.88	548.87
504.24	560.34
504.60	572.16
504.97	584.42
505.33	596.70
505.69	610.04
506.05	623.38
506.41	636.83
506.78	650.56
507.14	664.52
507.50	679.02
507.86	693.99
508.22	709.29
508.59	724.59
508.95	740.56
509.31	756.69
509.67	773.26
510.03	789.71
510.39	807.06
510.75	824.72
511.12	842.76
511.48	861.10
511.84	879.75
512.20	898.50
512.56	917.25
512.92	936.64
513.28	955.93
513.64	975.53
514.00	995.11
514.37	1015.18
514.73	1035.86
515.09	1056.40
515.45	1076.97
515.81	1097.97
516.17	1119.16
516.53	1140.35
516.89	1161.76
517.25	1183.14
517.61	1204.71
517.97	1226.17
518.33	1247.49
518.69	1268.99
519.05	1290.85
519.41	1312.73
519.77	1334.82
520.13	1356.90
520.49	1378.83
520.85	1400.97
521.21	1423.18
521.57	1446.10
521.93	1467.87
522.29	1490.28
522.65	1512.51
523.01	1534.87
523.37	1556.75
523.73	1578.97
524.09	1600.57
524.45	1622.55
524.81	1644.50
525.17	1666.65
525.53	1688.77
525.89	1710.94
526.25	1732.68
526.61	1753.69
526.97	1775.02
527.33	1795.99
527.68	1817.47
528.04	1838.21
528.40	1858.23
528.76	1878.91
529.12	1898.94
529.48	1920.25
529.84	1940.46
530.20	1960.45
530.56	1980.52
530.91	2001.13
531.27	2020.85
531.63	2040.65
531.99	2059.74
532.35	2078.60
532.71	2097.19
533.07	2116.21
533.42	2134.13
533.78	2152.63
534.14	2170.80
534.50	2187.70
534.86	2205.41
535.21	2221.75
535.57	2239.27
535.93	2256.64
536.29	2272.95
536.65	2289.50
537.00	2304.59
537.36	2319.50
537.72	2334.37
538.08	2349.33
538.44	2364.04
538.79	2379.19
539.15	2393.52
539.51	2408.14
539.87	2423.05
540.22	2437.15
540.58	2451.57
540.94	2465.82
541.29	2478.87
541.65	2490.77
542.01	2503.68
542.37	2515.44
542.72	2527.23
543.08	2537.90
543.44	2549.36
543.79	2559.26
544.15	2569.06
544.51	2579.73
544.87	2590.21
545.22	2599.54
545.58	2607.86
545.94	2614.97
546.29	2620.97
546.65	2627.01
547.01	2633.05
547.36	2638.36
547.72	2643.62
548.07	2647.17
548.43	2650.62
548.79	2653.63
549.14	2658.24
549.50	2662.30
549.86	2665.97
550.21	2669.45
550.57	2673.31
550.92	2675.43
551.28	2677.95
551.64	2680.01
551.99	2682.23
552.35	2683.89
552.70	2686.43
553.06	2688.89
553.41	2691.57
553.77	2694.51
554.13	2696.55
554.48	2698.24
554.84	2699.64
555.19	2700.02
555.55	2700.64
555.90	2700.93
556.26	2701.38
556.61	2700.50
556.97	2699.13
557.32	2698.37
557.68	2696.82
558.03	2695.02
558.39	2693.40
558.74	2692.81
559.10	2691.83
559.45	2689.87
559.81	2688.27
560.16	2685.41
560.52	2682.84
560.87	2679.73
561.23	2675.74
561.58	2673.79
561.94	2670.46
562.29	2666.57
562.64	2664.61
563.00	2662.06
563.35	2659.81
563.71	2657.67
564.06	2655.76
564.42	2653.86
564.77	2651.27
565.12	2649.25
565.48	2646.20
565.83	2643.40
566.19	2639.86
566.54	2635.06
566.89	2631.18
567.25	2627.24
567.60	2623.75
567.96	2620.15
568.31	2616.77
568.66	2612.85
569.02	2607.92
569.37	2602.83
569.72	2598.98
570.08	2593.48
570.43	2587.92
570.78	2582.15
571.14	2576.14
571.49	2569.63
571.84	2563.48
572.20	2556.73
572.55	2550.08
572.90	2543.38
573.26	2536.27
573.61	2529.19
573.96	2523.00
574.31	2515.01
574.67	2506.82
575.02	2498.45
575.37	2489.40
575.72	2480.01
576.08	2472.62
576.43	2463.86
576.78	2456.30
577.13	2448.43
577.49	2440.39
577.84	2432.73
578.19	2425.33
578.54	2417.77
578.90	2410.77
579.25	2402.35
579.60	2393.20
579.95	2384.54
580.30	2376.60
580.66	2368.82
581.01	2360.38
581.36	2351.32
581.71	2343.51
582.06	2335.23
582.42	2327.33
582.77	2318.66
583.12	2310.16
583.47	2301.50
583.82	2293.54
584.17	2284.43
584.53	2275.39
584.88	2266.39
585.23	2257.22
585.58	2248.04
585.93	2238.42
586.28	2229.43
586.63	2220.57
586.98	2212.67
587.34	2204.35
587.69	2195.56
588.04	2186.57
588.39	2177.99
588.74	2169.36
589.09	2160.56
589.44	2151.51
589.79	2142.87
590.14	2135.13
590.49	2127.16
590.84	2118.46
591.19	2110.43
591.54	2102.22
591.89	2092.31
592.25	2083.82
592.60	2074.67
592.95	2065.46
593.30	2056.64
593.65	2047.09
594.00	2037.75
594.35	2029.83
594.70	2020.64
595.05	2011.98
595.40	2003.18
595.75	1993.82
596.10	1985.34
596.45	1977.06
596.80	1969.60
597.15	1961.56
597.50	1952.45
597.85	1944.23
598.19	1935.47
598.54	1926.95
598.89	1918.89
599.24	1912.34
599.59	1904.63
599.94	1897.74
600.29	1890.14
600.64	1882.55
600.99	1874.26
601.34	1867.36
601.69	1858.56
602.04	1850.58
602.39	1842.52
602.74	1834.77
603.08	1828.37
603.43	1821.77
603.78	1813.61
604.13	1805.43
604.48	1797.55
604.83	1791.11
605.18	1784.13
605.53	1776.94
605.87	1769.56
606.22	1762.77
606.57	1755.02
606.92	1747.42
607.27	1739.37
607.62	1732.20
607.96	1725.31
608.31	1719.48
608.66	1711.73
609.01	1704.35
609.36	1696.90
609.70	1688.97
610.05	1681.53
610.40	1673.54
610.75	1665.09
611.10	1657.77
611.44	1648.90
611.79	1640.03
612.14	1630.91
612.49	1621.30
612.83	1612.76
613.18	1603.05
613.53	1593.80
613.88	1584.24
614.22	1575.49
614.57	1566.61
614.92	1557.33
615.27	1547.81
615.61	1537.96
615.96	1529.05
616.31	1520.69
616.65	1512.75
617.00	1504.80
617.35	1496.15
617.70	1487.48
618.04	1478.61
618.39	1469.49
618.74	1461.51
619.08	1453.33
619.43	1445.32
619.78	1437.70
620.12	1429.65
620.47	1422.23
620.82	1413.75
621.16	1405.91
621.51	1397.43
621.85	1389.29
622.20	1381.22
622.55	1373.05
622.89	1365.17
623.24	1357.45
623.59	1348.80
623.93	1340.64
624.28	1332.24
624.62	1324.35
624.97	1316.32
625.32	1308.67
625.66	1301.42
626.01	1294.31
626.35	1286.85
626.70	1279.15
627.04	1272.02
627.39	1264.65
627.73	1257.24
628.08	1250.40
628.43	1242.82
628.77	1235.57
629.12	1228.19
629.46	1221.39
629.81	1214.22
630.15	1206.77
630.50	1199.50
630.84	1192.36
631.19	1185.33
631.53	1178.89
631.88	1171.24
632.22	1163.65
632.57	1156.96
632.91	1149.65
633.26	1142.13
633.60	1135.09
633.95	1128.28
634.29	1121.03
634.64	1114.46
634.98	1107.54
635.32	1100.44
635.67	1094.25
636.01	1087.97
636.36	1081.42
636.70	1074.88
637.05	1068.67
637.39	1062.55
637.73	1056.44
638.08	1050.95
638.42	1045.00
638.77	1038.42
639.11	1032.47
639.45	1026.69
639.80	1019.97
640.14	1013.65
640.49	1007.55
640.83	1001.43
641.17	995.03
641.52	988.78
641.86	982.29
642.20	976.29
642.55	969.89
642.89	963.53
643.23	957.19
643.58	951.25
643.92	944.75
644.26	938.47
644.61	932.58
644.95	926.48
645.29	920.06
645.64	913.50
645.98	907.52
646.32	901.66
646.66	895.51
647.01	889.80
647.35	884.02
647.69	877.99
648.04	872.15
648.38	866.50
648.72	860.57
649.06	854.75
649.41	848.85
649.75	843.14
650.09	837.29
650.43	831.25
650.78	825.07
651.12	819.29
651.46	813.67
651.80	807.68
652.14	801.78
652.49	795.99
652.83	790.16
653.17	784.30
653.51	778.47
653.85	772.95
654.20	767.19
654.54	761.42
654.88	755.97
655.22	750.19
655.56	744.32
655.90	738.77
656.25	733.02
656.59	727.41
656.93	722.31
657.27	717.42
657.61	712.21
657.95	707.35
658.29	702.18
658.64	697.20
658.98	691.99
659.32	686.65
659.66	681.55
660.00	676.40
660.34	671.13
660.68	666.11
661.02	661.03
661.36	656.37
661.70	651.65
662.05	646.90
662.39	642.49
662.73	638.24
663.07	633.94
663.41	629.62
663.75	625.31
664.09	620.58
664.43	615.67
664.77	611.41
665.11	606.88
665.45	602.75
665.79	598.17
666.13	593.92
666.47	589.83
666.81	585.81
667.15	581.95
667.49	578.13
667.83	574.23
668.17	570.45
668.51	566.67
668.85	563.02
669.19	559.42
669.53	555.62
669.87	551.62
670.21	547.79
670.55	543.89
670.89	540.38
671.23	537.05
671.57	533.75
671.91	530.25
672.25	526.70
672.58	523.05
672.92	519.72
673.26	516.75
673.60	513.50
673.94	510.23
674.28	506.94
674.62	503.86
674.96	500.75
675.30	497.65
675.64	494.36
675.97	491.16
676.31	488.25
676.65	485.41
676.99	482.81
677.33	480.03
677.67	477.25
678.01	474.21
678.34	471.29
678.68	468.38
679.02	465.43
679.36	462.73
679.70	460.06
680.04	457.21
680.37	454.30
680.71	451.58
681.05	448.96
681.39	446.30
681.73	443.63
682.06	441.13
682.40	438.61
682.74	436.22
683.08	433.71
683.42	431.05
683.75	428.55
684.09	425.90
684.43	423.23
684.77	420.70
685.10	418.26
685.44	415.84
685.78	413.53
686.12	411.29
686.45	408.97
686.79	406.75
687.13	404.71
687.46	402.53
687.80	400.33
688.14	397.92
688.48	395.82
688.81	393.70
689.15	391.43
689.49	389.22
689.82	386.95
690.16	384.69
690.50	382.43
690.83	380.19
691.17	377.98
691.51	375.93
691.84	373.98
692.18	371.98
692.52	370.11
692.85	368.26
693.19	366.46
693.52	364.64
693.86	362.71
694.20	360.84
694.53	358.82
694.87	356.91
695.21	355.18
695.54	353.24
695.88	351.44
696.21	349.70
696.55	348.01
696.88	346.32
697.22	344.67
697.56	343.10
697.89	341.48
698.23	339.84
698.56	338.16
698.90	336.61
699.23	335.02
699.57	333.40
699.90	331.74
700.24	330.05
700.58	328.49
700.91	326.93
701.25	325.41
701.58	324.06
701.92	322.68
702.25	321.29
702.59	319.98
702.92	318.61
703.26	317.24
703.59	316.01
703.93	314.85
704.26	313.62
704.60	312.31
704.93	311.07
705.26	309.93
705.60	308.92
705.93	307.69
706.27	306.58
706.60	305.48
706.94	304.46
707.27	303.28
707.61	302.16
707.94	301.00
708.27	299.93
708.61	298.85
708.94	297.81
709.28	296.75
709.61	295.78
709.94	294.79
710.28	293.71
710.61	292.62
710.95	291.45
711.28	290.63
711.61	289.56
711.95	288.67
712.28	287.67
712.61	286.58
712.95	285.65
713.28	284.76
713.61	283.71
713.95	282.70
714.28	281.84
714.61	280.88
714.95	280.03
715.28	279.06
715.61	278.17
715.95	277.33
716.28	276.41
716.61	275.52
716.95	274.62
717.28	273.86
717.61	273.04
717.94	272.29
718.28	271.33
718.61	270.68
718.94	269.85
719.27	269.08
719.61	268.40
719.94	267.68
720.27	266.90
720.60	266.20
720.94	265.48
721.27	264.83
721.60	264.21
721.93	263.67
722.27	263.14
722.60	262.53
722.93	261.77
723.26	261.24
723.59	260.52
723.93	259.98
724.26	259.42
724.59	258.83
724.92	258.31
725.25	257.86
725.59	257.29
725.92	256.78
726.25	256.30
726.58	255.80
726.91	255.23
727.24	254.78
727.57	254.32
727.91	253.78
728.24	253.32
728.57	252.87
728.90	252.34
729.23	251.82
729.56	251.47
729.89	251.11
730.22	250.63
730.55	250.28
730.89	249.80
731.22	249.38
731.55	248.93
731.88	248.49
732.21	247.97
732.54	247.48
732.87	247.01
733.20	246.59
733.53	246.13
733.86	245.79
734.19	245.32
734.52	244.96
734.85	244.71
735.18	244.30
735.51	243.95
735.84	243.55
736.17	243.19
736.50	242.67
736.83	242.51
737.16	242.16
737.49	241.70
737.82	241.38
738.15	240.96
738.48	240.66
738.81	240.27
739.14	239.97
739.47	239.59
739.80	239.31
740.13	238.97
740.46	238.62
740.79	238.31
741.12	237.99
741.45	237.67
741.78	237.28
742.11	237.04
742.44	236.63
742.77	236.34
743.10	236.00
743.43	235.74
743.75	235.21
744.08	235.06
744.41	234.83
744.74	234.49
745.07	234.25
745.40	233.99
745.73	233.88
746.06	233.58
746.39	233.37
746.71	233.10
747.04	232.87
747.37	232.68
747.70	232.36
748.03	232.12
748.36	231.85
748.68	231.55
749.01	231.27
749.34	231.04
749.67	230.82
750.00	230.70
750.33	230.57
750.65	230.36
750.98	229.97
751.31	229.72
751.64	229.54
751.97	229.35
752.29	229.11
752.62	228.74
752.95	228.48
753.28	228.28
753.60	228.03
753.93	227.87
754.26	227.63
754.59	227.40
754.91	227.21
755.24	227.04
755.57	226.86
755.90	226.68
756.22	226.55
756.55	226.29
756.88	225.97
757.20	225.72
757.53	225.50
757.86	225.34
758.19	225.23
758.51	225.08
758.84	224.86
759.17	224.64
759.49	224.44
759.82	224.40
760.15	224.23
760.47	224.08
760.80	223.85
761.13	223.75
761.45	223.55
761.78	223.33
762.11	223.18
762.43	223.04
762.76	222.82
763.08	222.70
763.41	222.69
763.74	222.62
764.06	222.52
764.39	222.30
764.71	222.13
765.04	221.94
765.37	221.81
765.69	221.63
766.02	221.59
766.34	221.52
766.67	221.32
767.00	221.25
767.32	221.16
767.65	221.15
767.97	221.00
768.30	220.98
768.62	220.83
768.95	220.69
769.27	220.59
769.60	220.56
769.92	220.38
770.25	220.27
770.57	220.09
770.90	219.88
771.22	219.85
771.55	219.77
771.87	219.67
772.20	219.50
772.52	219.54
772.85	219.59
773.17	219.49
773.50	219.37
773.82	219.25
774.15	219.10
774.47	218.88
774.80	218.75
775.12	218.73
775.45	218.69
775.77	218.63
776.09	218.51
776.42	218.37
776.74	218.40
777.07	218.20
777.39	218.15
777.72	218.05
778.04	217.93
778.36	217.84
778.69	217.78
779.01	217.83
779.33	217.62
779.66	217.36
779.98	217.30
780.31	217.25
780.63	217.31
780.95	217.37
781.28	217.32
781.60	217.22
781.92	217.05
782.25	216.99
782.57	216.89
782.89	216.87
783.22	216.76
783.54	216.61
783.86	216.64
784.19	216.58
784.51	216.60
784.83	216.56
785.16	216.53
785.48	216.45
785.80	216.30
786.12	216.32
786.45	216.28
786.77	216.27
787.09	216.20
787.42	216.05
787.74	215.92
788.06	215.88
788.38	215.83
788.71	215.77
789.03	215.73
789.35	215.73
789.67	215.71
789.99	215.79
790.32	215.77
790.64	215.80
790.96	215.93
791.28	215.80
791.61	215.78
791.93	215.77
792.25	215.70
792.57	215.77
792.89	215.69
793.21	215.63
793.54	215.57
793.86	215.48
794.18	215.41
794.50	215.40
794.82	215.37
795.14	215.39
795.47	215.40
795.79	215.38
796.11	215.34
796.43	215.31
796.75	215.24
797.07	215.19
797.39	215.06
797.71	214.89
798.04	214.93
798.36	214.92
798.68	214.84
799.00	214.90
799.32	214.80
799.64	214.77
799.96	214.79
800.28	214.77
800.60	214.78
800.92	214.73
801.24	214.70
801.56	214.66
801.89	214.63
802.21	214.61
802.53	214.56
802.85	214.57
803.17	214.58
803.49	214.49
803.81	214.42
804.13	214.43
804.45	214.41
804.77	214.35
805.09	214.38
805.41	214.32
805.73	214.24
806.05	214.23
806.37	214.21
806.69	214.16
807.01	214.16
807.33	214.17
807.65	214.08
807.97	214.14
808.28	214.03
808.60	213.99
808.92	213.98
809.24	214.04
809.56	213.95
809.88	213.83
810.20	213.84
810.52	213.86
810.84	213.77
811.16	213.70
811.48	213.70
811.80	213.68
812.12	213.69
812.43	213.72
812.75	213.63
813.07	213.63
813.39	213.61
813.71	213.50
814.03	213.43
814.35	213.46
814.67	213.38
814.98	213.40
815.30	213.35
815.62	213.29
815.94	213.14
816.26	213.15
816.58	213.14
816.89	213.13
817.21	213.05
817.53	213.04
817.85	213.04
818.17	213.00
818.48	212.85
818.80	212.82
819.12	212.82
819.44	212.79
819.76	212.67
820.07	212.67
820.39	212.73
820.71	212.73
821.03	212.70
821.34	212.60
821.66	212.63
821.98	212.67
822.30	212.64
822.61	212.79
822.93	212.76
823.25	212.68
823.57	212.65
823.88	212.69
824.20	212.72
824.52	212.74
824.83	212.67
825.15	212.70
825.47	212.76
825.79	212.73
826.10	212.73
826.42	212.78
826.74	212.81
827.05	212.71
827.37	212.66
827.69	212.66
828.00	212.68
828.32	212.65
828.64	212.62
828.95	212.72
829.27	212.61
829.58	212.55
829.90	212.69
830.22	212.67
830.53	212.59
830.85	212.57
831.17	212.54
831.48	212.59
831.80	212.56
832.11	212.47
832.43	212.40
832.75	212.35
833.06	212.49
833.38	212.42
833.69	212.36
834.01	212.39
834.32	212.40
834.64	212.41
834.96	212.48
835.27	212.46
835.59	212.40
835.90	212.41
836.22	212.44
836.53	212.37
836.85	212.36
837.16	212.51
837.48	212.49
837.79	212.52
838.11	212.53
838.42	212.50
838.74	212.46
839.05	212.43
839.37	212.42
839.68	212.24
840.00	212.22
840.31	212.28
840.63	212.30
840.94	212.18
841.26	212.11
841.57	212.03
841.88	212.00
842.20	211.93
842.51	211.93
842.83	211.93
843.14	212.03
843.46	211.97
843.77	211.90
844.08	211.92
844.40	211.85
844.71	211.80
845.03	211.80
845.34	211.80
845.65	211.79
845.97	211.77
846.28	211.74
846.60	211.77
846.91	211.73
847.22	211.67
847.54	211.75
847.85	211.70
848.16	211.62
848.48	211.54
848.79	211.59
849.10	211.50
849.42	211.44
849.73	211.25
850.04	211.27
850.36	211.25
850.67	211.23
850.98	211.25
851.30	211.25
851.61	211.20
851.92	211.17
852.23	211.22
852.55	211.30
852.86	211.34
853.17	211.32
853.49	211.34
853.80	211.35
854.11	211.35
854.42	211.46
854.74	211.52
855.05	211.52
855.36	211.41
855.67	211.39
855.99	211.42
856.30	211.63
856.61	211.62
856.92	211.58
857.23	211.59
857.55	211.54
857.86	211.53
858.17	211.55
858.48	211.59
858.79	211.56
859.11	211.50
859.42	211.45
859.73	211.43
860.04	211.45
860.35	211.41
860.66	211.35
860.98	211.31
861.29	211.29
861.60	211.27
861.91	211.35
862.22	211.35
862.53	211.31
862.84	211.08
863.16	211.12
863.47	211.06
863.78	210.99
864.09	210.96
864.40	211.02
864.71	211.02
865.02	211.04
865.33	210.94
865.64	210.91
865.95	210.94
866.27	211.00
866.58	210.94
866.89	210.97
867.20	210.93
867.51	210.90
867.82	210.86
868.13	211.02
868.44	210.96
868.75	211.00
869.06	211.02
869.37	211.07
869.68	211.01
869.99	211.10
870.30	211.08
870.61	211.17
870.92	211.13
871.23	211.15
871.54	211.15
871.85	211.30
872.16	211.34
872.47	211.29
872.78	211.16
873.09	211.22
873.40	211.23
873.71	211.30
874.02	211.26
874.33	211.23
874.64	211.14
874.95	211.20
875.26	211.17
875.56	211.19
875.87	211.21
876.18	211.25
876.49	211.37
876.80	211.35
877.11	211.27
877.42	211.27
877.73	211.25
878.04	211.27
878.35	211.22
878.66	211.21
878.96	211.16
879.27	211.22
879.58	211.15
879.89	211.05
880.20	211.06
880.51	211.05
880.82	211.07
881.12	211.05
881.43	211.02
881.74	211.01
882.05	211.00
882.36	210.97
882.67	210.96
882.97	210.72
883.28	210.74
883.59	210.69
883.90	210.63
884.21	210.69
884.51	210.65
884.82	210.64
885.13	210.67
885.44	210.73
885.74	210.66
886.05	210.69
886.36	210.71
886.67	210.65
886.98	210.79
887.28	210.75
887.59	210.82
887.90	210.84
888.20	210.74
888.51	210.78
888.82	210.74
889.13	210.76
889.43	211.02
889.74	211.01
890.05	211.05
890.35	211.11
890.66	211.03
890.97	211.01
891.28	211.00
891.58	210.97
891.89	210.96
892.20	211.00
892.50	211.01
892.81	211.06
893.12	211.09
893.42	210.97
893.73	211.12
894.04	211.07
894.34	211.08
894.65	211.09
894.95	211.05
895.26	211.11
895.57	211.19
895.87	210.95
896.18	210.99
896.48	210.99
896.79	210.93
897.10	210.99
897.40	210.99
897.71	211.05
898.01	210.97
898.32	211.03
898.63	210.98
898.93	210.98
899.24	210.98
899.54	210.99
899.85	210.99
900.15	210.94
900.46	210.96
900.76	210.96
901.07	211.06
901.38	211.08
901.68	211.08
901.99	211.01
902.29	211.03
902.60	211.00
902.90	211.01
903.21	211.03
903.51	210.98
903.82	211.00
904.12	210.93
904.43	211.02
904.73	211.00
905.03	210.99
905.34	211.15
905.64	211.14
905.95	211.09
906.25	211.05
906.56	211.03
906.86	211.03
907.17	210.98
907.47	211.01
907.77	211.01
908.08	211.01
908.38	211.00
908.69	211.06
908.99	211.11
909.30	211.17
909.60	211.19
909.90	211.22
910.21	211.23
910.51	211.27
910.81	211.27
911.12	211.25
911.42	211.39
911.73	211.26
912.03	211.24
912.33	211.32
912.64	211.38
912.94	211.34
913.24	211.35
913.55	211.32
913.85	211.29
914.15	211.31
914.46	211.30
914.76	211.23
915.06	211.19
915.37	211.24
915.67	211.17
915.97	211.16
916.27	211.13
916.58	211.15
916.88	211.08
917.18	211.05
917.49	211.17
917.79	211.09
918.09	210.99
918.39	211.13
918.70	211.15
919.00	211.17
919.30	211.34
919.60	211.24
919.91	211.19
920.21	211.20
920.51	211.09
920.81	211.05
921.12	211.16
921.42	211.16
921.72	211.13
922.02	211.17
922.32	211.13
922.63	211.20
922.93	211.19
923.23	211.27
923.53	211.30
923.83	211.15
924.13	211.21
924.44	211.27
924.74	211.31
925.04	211.33
925.34	211.32
925.64	211.18
925.94	211.22
926.24	211.39
926.55	211.36
926.85	211.42
927.15	211.46
927.45	211.45
927.75	211.43
928.05	211.43
928.35	211.37
928.65	211.46
928.95	211.41
929.26	211.36
929.56	211.38
929.86	211.34
930.16	211.34
930.46	211.25
930.76	211.25
931.06	211.10
931.36	211.02
931.66	211.01
931.96	211.05
932.26	211.04
932.56	210.98
932.86	210.97
933.16	210.97
933.46	210.93
933.76	210.85
934.06	210.90
934.36	210.98
934.66	210.98
934.96	210.93
935.26	210.97
935.56	211.00
935.86	211.00
936.16	211.02
936.46	211.00
936.76	210.96
937.06	211.02
937.36	210.97
937.66	210.96
937.96	210.93
938.26	210.89
938.56	210.86
938.86	210.82
939.16	210.83
939.46	210.87
939.76	210.91
940.06	210.95
940.35	210.93
940.65	210.84
940.95	210.86
941.25	210.83
941.55	210.77
941.85	210.77
942.15	210.76
942.45	210.84
942.75	210.85
943.04	210.95
943.34	210.93
943.64	210.95
943.94	210.92
944.24	210.96
944.54	210.99
944.84	211.00
945.13	211.00
945.43	210.98
945.73	211.01
946.03	210.98
946.33	210.92
946.62	210.88
946.92	210.86
947.22	210.88
947.52	210.90
947.82	210.92
948.11	210.90
948.41	210.80
948.71	210.71
949.01	210.73
949.31	210.69
949.60	210.66
949.90	210.70
950.20	210.69
950.50	210.67
950.79	210.62
951.09	210.64
951.39	210.65
951.69	210.67
951.98	210.66
952.28	210.63
952.58	210.69
952.87	210.66
953.17	210.70
953.47	210.60
953.76	210.62
954.06	210.66
954.36	210.67
954.66	210.73
954.95	210.76
955.25	210.79
955.55	210.81
955.84	210.71
956.14	210.75
956.44	210.74
956.73	210.67
957.03	210.64
957.32	210.68
957.62	210.61
957.92	210.57
958.21	210.53
958.51	210.75
958.81	210.75
959.10	210.84
959.40	210.84
959.69	210.88
959.99	210.91
960.29	210.89
960.58	210.86
960.88	210.87
961.17	210.89
961.47	210.92
961.76	210.90
962.06	211.07
962.36	211.00
962.65	211.06
962.95	211.13
963.24	211.16
963.54	211.18
963.83	211.24
964.13	211.30
964.42	211.25
964.72	211.08
965.01	211.08
965.31	211.02
965.60	210.94
965.90	211.09
966.19	211.07
966.49	211.09
966.78	211.02
967.08	211.00
967.37	210.89
967.67	210.80
967.96	210.86
968.26	210.74
968.55	210.76
968.85	210.71
969.14	210.67
969.43	210.56
969.73	210.56
970.02	210.54
970.32	210.52
970.61	210.53
970.91	210.45
971.20	210.40
971.49	210.37
971.79	210.43
972.08	210.30
972.38	210.27
972.67	210.28
972.96	210.40
973.26	210.39
973.55	210.56
973.85	210.52
974.14	210.49
974.43	210.57
974.73	210.56
975.02	210.57
975.31	210.58
975.61	210.66
975.90	210.56
976.19	210.57
976.49	210.58
976.78	210.62
977.07	210.66
977.37	210.68
977.66	210.63
977.95	210.55
978.24	210.51
978.54	210.57
978.83	210.51
979.12	210.43
979.42	210.45
979.71	210.36
980.00	210.44
980.29	210.45
980.59	210.42
980.88	210.53
981.17	210.55
981.46	210.51
981.76	210.53
982.05	210.60
982.34	210.62
982.63	210.61
982.93	210.65
983.22	210.69
983.51	210.74
983.80	210.82
984.09	210.91
984.39	210.97
984.68	210.91
984.97	210.95
985.26	210.94
985.55	210.91
985.85	210.84
986.14	210.82
986.43	210.87
986.72	210.90
987.01	210.82
987.30	210.80
987.59	210.82
987.89	210.85
988.18	210.80
988.47	210.81
988.76	210.79
989.05	210.74
989.34	210.71
989.63	210.75
989.92	210.75
990.22	210.77
990.51	210.78
990.80	210.84
991.09	210.84
991.38	210.93
991.67	210.94
991.96	210.92
992.25	210.96
992.54	210.95
992.83	210.94
993.12	210.88
993.41	210.93
993.70	211.06
993.99	211.06
994.28	211.08
994.58	211.09
994.87	211.01
995.16	210.99
995.45	210.99
995.74	210.93
996.03	210.92
996.32	210.95
996.61	211.00
996.90	210.93
997.19	210.94
997.48	210.92
997.77	210.78
998.06	210.87
998.34	210.86
998.63	210.82
998.92	210.84
999.21	210.90
999.50	210.91
999.79	210.87
1000.08	210.90
1000.37	210.90
1000.66	210.88
1000.95	210.99
1001.24	211.03
1001.53	211.06
1001.82	211.10
1002.11	211.10
1002.40	211.05
1002.68	211.07
1002.97	211.20
1003.26	211.14
1003.55	211.13
1003.84	211.22
1004.13	211.30
1004.42	211.25
1004.71	211.24
1004.99	211.17
1005.28	211.20
1005.57	211.15
1005.86	211.09
1006.15	211.12
1006.44	211.11
1006.72	211.10
1007.01	211.06
1007.30	211.04
1007.59	211.01
1007.88	210.94
1008.17	210.96
1008.45	210.95
1008.74	210.87
1009.03	210.76
1009.32	210.74
1009.60	210.76
1009.89	210.77
1010.18	210.70
1010.47	210.66
1010.76	210.69
1011.04	210.76
1011.33	210.70
1011.62	210.77
1011.91	210.81
1012.19	210.75
1012.48	210.75
1012.77	210.68
1013.05	210.79
1013.34	210.78
1013.63	210.79
1013.92	210.84
1014.20	210.88
1014.49	210.91
1014.78	210.87
1015.06	210.84
1015.35	210.92
1015.64	210.95
1015.92	210.97
1016.21	210.98
1016.50	211.10
1016.78	211.10
1017.07	211.08
1017.36	211.10
1017.64	211.06
1017.93	211.05
1018.22	211.05
1018.50	211.10
1018.79	211.18
1019.08	211.09
1019.36	211.15
1019.65	211.12
1019.93	211.09
1020.22	211.05
1020.51	211.10
1020.79	211.08
1021.08	210.55
1021.36	211.10
1021.65	211.05
1021.94	210.65
1022.22	211.25
1022.51	210.25
1022.79	211.05
1023.08	211.10
1023.36	212.10
1023.65	210.15
>>>>>End Processed Spectral Data<<<<<
