SpectraSuite Data File
++++++++++++++++++++++++++++++++++++
Date: Mon Feb 25 17:33:34 EST 2013
User: group
Dark Spectrum Present: No
Reference Spectrum Present: No
Number of Sampled Component Spectra: 1
Spectrometers: USB2E7196
Integration Time (usec): 52000 (USB2E7196)
Spectra Averaged: 20 (USB2E7196)
Boxcar Smoothing: 10 (USB2E7196)
Correct for Electrical Dark: No (USB2E7196)
Strobe/Lamp Enabled: No (USB2E7196)
Correct for Detector Non-linearity: No (USB2E7196)
Correct for Stray Light: No (USB2E7196)
Number of Pixels in Processed Spectrum: 2048
>>>>>Begin Processed Spectral Data<<<<<
339.09	0.00
339.48	199.00
339.86	198.95
340.24	201.70
340.63	203.50
341.01	207.35
341.39	205.50
341.78	205.85
342.16	208.75
342.54	209.35
342.93	197.98
343.31	207.98
343.69	208.51
344.07	209.05
344.46	209.52
344.84	209.94
345.22	210.05
345.60	210.26
345.99	210.45
346.37	210.55
346.75	210.71
347.13	210.81
347.52	210.86
347.90	211.02
348.28	211.06
348.66	211.09
349.05	211.02
349.43	210.95
349.81	211.04
350.19	211.12
350.57	211.20
350.96	211.31
351.34	211.42
351.72	211.57
352.10	211.65
352.48	211.74
352.87	211.75
353.25	211.86
353.63	212.00
354.01	212.17
354.39	212.30
354.77	212.35
355.15	212.50
355.54	212.57
355.92	212.60
356.30	212.61
356.68	212.85
357.06	213.01
357.44	213.16
357.82	213.20
358.20	213.30
358.58	213.29
358.97	213.38
359.35	213.51
359.73	213.60
360.11	213.68
360.49	213.67
360.87	213.74
361.25	213.83
361.63	213.95
362.01	213.98
362.39	214.01
362.77	214.02
363.15	213.96
363.53	214.03
363.91	214.10
364.29	214.21
364.67	214.09
365.05	214.15
365.43	214.20
365.81	214.27
366.19	214.41
366.57	214.62
366.95	214.66
367.33	214.59
367.71	214.55
368.09	214.56
368.47	214.57
368.85	214.53
369.23	214.55
369.61	214.47
369.99	214.53
370.37	214.52
370.75	214.66
371.13	214.72
371.51	214.60
371.89	214.53
372.27	214.50
372.65	214.42
373.03	214.42
373.41	214.34
373.78	214.36
374.16	214.10
374.54	213.92
374.92	213.82
375.30	213.75
375.68	213.63
376.06	213.60
376.44	213.57
376.82	213.54
377.19	213.53
377.57	213.47
377.95	213.38
378.33	213.27
378.71	213.01
379.09	212.93
379.47	212.93
379.84	212.91
380.22	212.81
380.60	212.76
380.98	212.61
381.36	212.57
381.73	212.46
382.11	212.50
382.49	212.57
382.87	212.51
383.25	212.50
383.62	212.66
384.00	212.64
384.38	212.61
384.76	212.64
385.13	212.65
385.51	212.62
385.89	212.57
386.27	212.57
386.64	212.60
387.02	212.55
387.40	212.61
387.78	212.52
388.15	212.51
388.53	212.50
388.91	212.46
389.29	212.43
389.66	212.41
390.04	212.30
390.42	212.27
390.79	212.24
391.17	212.21
391.55	212.04
391.92	211.96
392.30	212.05
392.68	211.95
393.05	211.86
393.43	211.90
393.81	211.84
394.18	211.77
394.56	211.80
394.94	211.79
395.31	211.73
395.69	211.80
396.06	211.78
396.44	211.75
396.82	211.83
397.19	211.87
397.57	211.84
397.95	211.98
398.32	211.93
398.70	211.90
399.07	211.94
399.45	211.90
399.82	211.95
400.20	211.89
400.58	211.95
400.95	211.95
401.33	212.02
401.70	212.23
402.08	212.35
402.45	212.37
402.83	212.54
403.20	212.61
403.58	212.68
403.95	212.84
404.33	213.00
404.71	213.08
405.08	213.29
405.46	213.42
405.83	213.51
406.21	213.64
406.58	213.90
406.96	214.12
407.33	214.36
407.70	214.55
408.08	214.80
408.45	215.06
408.83	215.36
409.20	215.52
409.58	215.70
409.95	215.92
410.33	216.23
410.70	216.49
411.08	216.83
411.45	217.19
411.82	217.53
412.20	217.95
412.57	218.48
412.95	218.87
413.32	219.42
413.69	220.02
414.07	220.55
414.44	221.10
414.82	221.72
415.19	222.39
415.56	223.19
415.94	223.88
416.31	224.84
416.68	225.66
417.06	226.72
417.43	227.70
417.81	228.87
418.18	229.97
418.55	231.12
418.93	232.45
419.30	233.72
419.67	235.08
420.04	236.52
420.42	238.00
420.79	239.76
421.16	241.51
421.54	243.37
421.91	245.23
422.28	247.16
422.66	249.20
423.03	251.29
423.40	253.31
423.77	255.61
424.15	257.72
424.52	260.06
424.89	262.52
425.26	264.95
425.64	267.30
426.01	269.94
426.38	272.59
426.75	275.23
427.13	278.13
427.50	281.20
427.87	284.16
428.24	287.16
428.61	290.07
428.99	293.32
429.36	296.78
429.73	300.23
430.10	303.85
430.47	307.40
430.85	311.12
431.22	315.01
431.59	319.12
431.96	323.09
432.33	327.52
432.70	331.83
433.08	336.80
433.45	341.46
433.82	346.01
434.19	351.23
434.56	356.26
434.93	360.91
435.30	365.56
435.68	370.99
436.05	376.32
436.42	381.49
436.79	386.11
437.16	391.19
437.53	396.66
437.90	401.79
438.27	406.91
438.64	412.25
439.01	417.31
439.38	421.72
439.75	425.94
440.13	430.78
440.50	435.34
440.87	438.96
441.24	442.75
441.61	447.09
441.98	450.18
442.35	453.83
442.72	457.61
443.09	461.10
443.46	463.12
443.83	464.40
444.20	465.44
444.57	467.22
444.94	467.93
445.31	468.60
445.68	469.30
446.05	469.55
446.42	468.89
446.79	468.03
447.16	467.17
447.53	466.51
447.90	464.36
448.27	462.18
448.64	459.29
449.01	457.04
449.37	453.33
449.74	449.73
450.11	445.57
450.48	440.95
450.85	436.44
451.22	432.49
451.59	428.74
451.96	425.19
452.33	420.51
452.70	416.17
453.07	411.01
453.43	405.83
453.80	400.87
454.17	396.02
454.54	391.46
454.91	386.57
455.28	381.91
455.65	377.47
456.02	373.15
456.38	369.45
456.75	364.92
457.12	361.07
457.49	357.14
457.86	353.35
458.23	350.20
458.59	346.65
458.96	343.09
459.33	339.84
459.70	336.64
460.07	334.07
460.43	331.10
460.80	328.44
461.17	326.04
461.54	323.52
461.91	321.25
462.27	318.89
462.64	316.79
463.01	314.55
463.38	312.43
463.74	310.28
464.11	308.30
464.48	306.71
464.85	304.90
465.21	303.66
465.58	302.28
465.95	300.58
466.32	299.18
466.68	297.69
467.05	296.32
467.42	294.97
467.78	293.55
468.15	292.27
468.52	291.36
468.88	290.04
469.25	288.91
469.62	287.99
469.98	287.04
470.35	286.27
470.72	285.45
471.08	284.54
471.45	283.68
471.82	282.98
472.18	282.14
472.55	281.55
472.92	280.85
473.28	280.17
473.65	279.56
474.02	278.90
474.38	278.54
474.75	278.25
475.11	277.81
475.48	277.50
475.85	277.35
476.21	277.04
476.58	276.89
476.94	276.87
477.31	276.79
477.67	276.73
478.04	276.75
478.41	276.80
478.77	277.06
479.14	277.23
479.50	277.53
479.87	277.85
480.23	278.35
480.60	278.70
480.96	279.19
481.33	279.90
481.69	280.61
482.06	281.20
482.42	281.78
482.79	282.54
483.15	283.43
483.52	284.41
483.88	285.35
484.25	286.39
484.61	287.48
484.98	288.56
485.34	289.91
485.71	291.29
486.07	292.78
486.44	294.18
486.80	295.69
487.17	297.21
487.53	298.97
487.90	300.64
488.26	302.62
488.62	304.71
488.99	306.63
489.35	308.79
489.72	311.10
490.08	313.53
490.44	316.10
490.81	318.80
491.17	321.39
491.54	324.19
491.90	327.25
492.26	330.49
492.63	333.87
492.99	337.29
493.36	340.92
493.72	344.74
494.08	348.62
494.45	352.85
494.81	357.40
495.17	361.82
495.54	366.72
495.90	371.75
496.26	376.95
496.63	382.49
496.99	388.30
497.35	394.38
497.72	400.72
498.08	407.17
498.44	413.85
498.80	420.99
499.17	428.48
499.53	436.01
499.89	443.91
500.26	451.95
500.62	460.42
500.98	469.20
501.34	478.34
501.71	487.87
502.07	497.42
502.43	507.41
502.79	517.74
503.16	528.50
503.52	539.34
503.88	550.54
504.24	562.06
504.60	574.03
504.97	586.36
505.33	598.85
505.69	612.36
506.05	625.88
506.41	639.59
506.78	653.36
507.14	667.63
507.50	682.13
507.86	697.16
508.22	712.49
508.59	728.04
508.95	743.99
509.31	760.27
509.67	777.20
510.03	794.11
510.39	811.81
510.75	829.40
511.12	847.70
511.48	866.17
511.84	884.69
512.20	903.09
512.56	922.39
512.92	941.77
513.28	960.96
513.64	980.73
514.00	1000.49
514.37	1021.05
514.73	1041.81
515.09	1062.76
515.45	1083.68
515.81	1104.76
516.17	1126.18
516.53	1147.52
516.89	1168.97
517.25	1190.37
517.61	1212.11
517.97	1233.43
518.33	1255.04
518.69	1276.53
519.05	1298.66
519.41	1321.09
519.77	1343.86
520.13	1365.61
520.49	1387.88
520.85	1410.61
521.21	1433.32
521.57	1456.59
521.93	1478.41
522.29	1501.45
522.65	1523.71
523.01	1546.14
523.37	1568.32
523.73	1590.57
524.09	1612.88
524.45	1635.27
524.81	1657.93
525.17	1680.31
525.53	1702.93
525.89	1725.40
526.25	1747.70
526.61	1768.97
526.97	1790.62
527.33	1811.86
527.68	1833.54
528.04	1854.88
528.40	1875.40
528.76	1895.99
529.12	1916.49
529.48	1938.45
529.84	1958.67
530.20	1979.34
530.56	1999.96
530.91	2020.79
531.27	2041.49
531.63	2061.89
531.99	2081.77
532.35	2100.91
532.71	2119.80
533.07	2139.25
533.42	2157.73
533.78	2176.46
534.14	2194.73
534.50	2211.85
534.86	2230.19
535.21	2247.35
535.57	2265.24
535.93	2282.46
536.29	2299.21
536.65	2316.23
537.00	2331.54
537.36	2346.74
537.72	2361.95
538.08	2377.46
538.44	2392.92
538.79	2408.17
539.15	2422.91
539.51	2437.65
539.87	2453.04
540.22	2467.95
540.58	2483.21
540.94	2497.88
541.29	2511.19
541.65	2523.86
542.01	2537.56
542.37	2549.37
542.72	2561.80
543.08	2572.90
543.44	2585.09
543.79	2595.37
544.15	2605.39
544.51	2616.62
544.87	2628.20
545.22	2637.91
545.58	2645.96
545.94	2653.12
546.29	2659.85
546.65	2665.94
547.01	2672.15
547.36	2677.91
547.72	2683.44
548.07	2686.97
548.43	2690.72
548.79	2694.56
549.14	2699.03
549.50	2703.20
549.86	2707.42
550.21	2711.48
550.57	2715.32
550.92	2718.05
551.28	2721.04
551.64	2723.96
551.99	2726.19
552.35	2727.48
552.70	2730.17
553.06	2733.20
553.41	2736.30
553.77	2738.80
554.13	2741.27
554.48	2743.18
554.84	2744.45
555.19	2744.99
555.55	2745.61
555.90	2746.05
556.26	2746.36
556.61	2746.79
556.97	2745.51
557.32	2745.08
557.68	2743.13
558.03	2741.76
558.39	2740.28
558.74	2739.90
559.10	2738.43
559.45	2736.85
559.81	2735.50
560.16	2732.77
560.52	2730.20
560.87	2727.20
561.23	2723.50
561.58	2721.28
561.94	2718.17
562.29	2714.57
562.64	2712.39
563.00	2710.09
563.35	2708.18
563.71	2706.79
564.06	2704.61
564.42	2702.98
564.77	2700.61
565.12	2698.94
565.48	2695.68
565.83	2692.02
566.19	2688.65
566.54	2684.65
566.89	2680.75
567.25	2677.18
567.60	2673.71
567.96	2670.40
568.31	2667.27
568.66	2663.65
569.02	2659.01
569.37	2653.85
569.72	2650.16
570.08	2644.93
570.43	2639.29
570.78	2633.71
571.14	2627.31
571.49	2620.55
571.84	2614.73
572.20	2607.97
572.55	2601.32
572.90	2594.64
573.26	2588.08
573.61	2581.01
573.96	2574.35
574.31	2566.48
574.67	2558.36
575.02	2550.21
575.37	2541.34
575.72	2532.13
576.08	2524.38
576.43	2515.70
576.78	2508.03
577.13	2499.46
577.49	2491.16
577.84	2483.41
578.19	2475.66
578.54	2468.32
578.90	2461.51
579.25	2452.41
579.60	2443.10
579.95	2433.91
580.30	2426.14
580.66	2418.13
581.01	2409.27
581.36	2399.79
581.71	2391.20
582.06	2382.53
582.42	2373.98
582.77	2364.97
583.12	2355.90
583.47	2347.43
583.82	2338.86
584.17	2329.48
584.53	2320.88
584.88	2312.12
585.23	2302.92
585.58	2293.29
585.93	2283.08
586.28	2273.47
586.63	2264.74
586.98	2256.24
587.34	2247.95
587.69	2238.45
588.04	2229.16
588.39	2220.78
588.74	2212.07
589.09	2203.74
589.44	2194.45
589.79	2185.99
590.14	2177.89
590.49	2169.62
590.84	2160.27
591.19	2152.30
591.54	2144.02
591.89	2133.70
592.25	2124.79
592.60	2115.17
592.95	2105.70
593.30	2096.51
593.65	2086.64
594.00	2076.90
594.35	2068.98
594.70	2059.51
595.05	2050.84
595.40	2042.09
595.75	2032.28
596.10	2024.02
596.45	2015.35
596.80	2007.35
597.15	1998.98
597.50	1989.92
597.85	1981.15
598.19	1972.39
598.54	1963.40
598.89	1955.39
599.24	1948.95
599.59	1941.17
599.94	1934.23
600.29	1926.27
600.64	1918.49
600.99	1910.16
601.34	1903.19
601.69	1893.85
602.04	1885.81
602.39	1877.52
602.74	1869.33
603.08	1862.77
603.43	1855.31
603.78	1847.09
604.13	1839.17
604.48	1831.04
604.83	1824.22
605.18	1817.46
605.53	1810.00
605.87	1802.16
606.22	1794.88
606.57	1786.56
606.92	1778.49
607.27	1770.28
607.62	1763.16
607.96	1756.40
608.31	1750.38
608.66	1742.29
609.01	1734.91
609.36	1727.14
609.70	1719.40
610.05	1711.94
610.40	1703.35
610.75	1694.95
611.10	1687.51
611.44	1678.23
611.79	1669.10
612.14	1659.59
612.49	1649.81
612.83	1641.19
613.18	1631.74
613.53	1622.10
613.88	1612.31
614.22	1603.17
614.57	1593.96
614.92	1584.49
615.27	1574.72
615.61	1564.81
615.96	1555.89
616.31	1547.23
616.65	1539.41
617.00	1530.97
617.35	1522.10
617.70	1513.47
618.04	1504.10
618.39	1494.13
618.74	1485.76
619.08	1477.22
619.43	1469.03
619.78	1461.07
620.12	1452.81
620.47	1445.16
620.82	1436.56
621.16	1428.43
621.51	1419.99
621.85	1411.35
622.20	1402.84
622.55	1394.33
622.89	1386.05
623.24	1378.04
623.59	1369.42
623.93	1360.60
624.28	1352.26
624.62	1344.18
624.97	1335.78
625.32	1328.17
625.66	1321.15
626.01	1313.85
626.35	1306.65
626.70	1299.04
627.04	1291.63
627.39	1283.74
627.73	1276.27
628.08	1269.59
628.43	1261.96
628.77	1254.61
629.12	1247.40
629.46	1240.87
629.81	1233.72
630.15	1226.52
630.50	1219.24
630.84	1212.05
631.19	1204.92
631.53	1198.06
631.88	1190.22
632.22	1182.72
632.57	1175.70
632.91	1168.10
633.26	1160.60
633.60	1153.46
633.95	1146.50
634.29	1139.11
634.64	1132.64
634.98	1125.51
635.32	1118.28
635.67	1112.12
636.01	1105.46
636.36	1098.77
636.70	1091.99
637.05	1085.28
637.39	1078.65
637.73	1072.23
638.08	1066.33
638.42	1060.26
638.77	1053.82
639.11	1048.00
639.45	1042.11
639.80	1035.52
640.14	1029.05
640.49	1022.85
640.83	1016.32
641.17	1009.80
641.52	1003.72
641.86	997.15
642.20	990.78
642.55	984.12
642.89	977.54
643.23	971.25
643.58	965.35
643.92	958.66
644.26	952.72
644.61	946.77
644.95	940.60
645.29	934.14
645.64	927.51
645.98	921.25
646.32	915.18
646.66	908.82
647.01	902.72
647.35	896.96
647.69	890.72
648.04	884.90
648.38	879.16
648.72	872.96
649.06	866.85
649.41	860.95
649.75	855.20
650.09	849.30
650.43	843.34
650.78	837.05
651.12	831.11
651.46	825.21
651.80	819.25
652.14	813.12
652.49	807.17
652.83	801.41
653.17	795.20
653.51	789.26
653.85	783.62
654.20	777.96
654.54	772.07
654.88	766.53
655.22	760.61
655.56	754.52
655.90	748.77
656.25	743.18
656.59	737.63
656.93	732.36
657.27	727.20
657.61	721.69
657.95	716.69
658.29	711.53
658.64	706.31
658.98	700.95
659.32	695.65
659.66	690.61
660.00	685.35
660.34	680.36
660.68	675.24
661.02	670.21
661.36	665.39
661.70	660.60
662.05	655.85
662.39	651.57
662.73	647.29
663.07	643.03
663.41	638.60
663.75	634.00
664.09	629.20
664.43	624.38
664.77	620.15
665.11	615.62
665.45	611.30
665.79	606.84
666.13	602.53
666.47	598.30
666.81	594.10
667.15	589.96
667.49	586.03
667.83	582.06
668.17	578.17
668.51	574.39
668.85	570.71
669.19	567.00
669.53	562.90
669.87	559.08
670.21	555.19
670.55	551.30
670.89	547.94
671.23	544.69
671.57	541.24
671.91	537.48
672.25	533.93
672.58	530.43
672.92	527.02
673.26	523.75
673.60	520.51
673.94	517.12
674.28	513.92
674.62	510.69
674.96	507.55
675.30	504.48
675.64	501.18
675.97	497.98
676.31	494.92
676.65	492.10
676.99	489.34
677.33	486.39
677.67	483.47
678.01	480.34
678.34	477.23
678.68	474.19
679.02	471.32
679.36	468.47
679.70	465.63
680.04	462.64
680.37	459.76
680.71	456.90
681.05	454.37
681.39	451.57
681.73	448.92
682.06	446.37
682.40	443.78
682.74	441.14
683.08	438.59
683.42	435.87
683.75	433.29
684.09	430.41
684.43	428.00
684.77	425.45
685.10	422.96
685.44	420.49
685.78	418.13
686.12	415.88
686.45	413.58
686.79	411.26
687.13	409.09
687.46	406.92
687.80	404.75
688.14	402.26
688.48	400.11
688.81	397.84
689.15	395.57
689.49	393.18
689.82	390.94
690.16	388.48
690.50	386.15
690.83	383.83
691.17	381.69
691.51	379.49
691.84	377.38
692.18	375.34
692.52	373.30
692.85	371.46
693.19	369.48
693.52	367.47
693.86	365.54
694.20	363.62
694.53	361.65
694.87	359.68
695.21	357.84
695.54	355.92
695.88	353.98
696.21	352.10
696.55	350.41
696.88	348.73
697.22	347.06
697.56	345.51
697.89	343.89
698.23	342.27
698.56	340.53
698.90	339.02
699.23	337.46
699.57	335.90
699.90	334.17
700.24	332.55
700.58	331.01
700.91	329.47
701.25	328.03
701.58	326.61
701.92	325.23
702.25	323.88
702.59	322.48
702.92	321.20
703.26	319.96
703.59	318.72
703.93	317.57
704.26	316.44
704.60	315.15
704.93	313.85
705.26	312.61
705.60	311.47
705.93	310.21
706.27	308.95
706.60	307.84
706.94	306.80
707.27	305.60
707.61	304.49
707.94	303.38
708.27	302.16
708.61	301.05
708.94	299.88
709.28	298.70
709.61	297.73
709.94	296.69
710.28	295.48
710.61	294.36
710.95	293.23
711.28	292.24
711.61	291.16
711.95	290.20
712.28	289.26
712.61	288.36
712.95	287.42
713.28	286.53
713.61	285.55
713.95	284.59
714.28	283.78
714.61	282.76
714.95	281.85
715.28	281.00
715.61	280.00
715.95	279.20
716.28	278.39
716.61	277.47
716.95	276.64
717.28	275.80
717.61	274.96
717.94	274.12
718.28	273.20
718.61	272.68
718.94	271.91
719.27	271.15
719.61	270.26
719.94	269.51
720.27	268.66
720.60	267.91
720.94	267.23
721.27	266.52
721.60	265.87
721.93	265.28
722.27	264.68
722.60	264.08
722.93	263.42
723.26	262.83
723.59	262.28
723.93	261.62
724.26	261.08
724.59	260.53
724.92	259.95
725.25	259.43
725.59	258.76
725.92	258.23
726.25	257.67
726.58	257.23
726.91	256.70
727.24	256.33
727.57	255.84
727.91	255.31
728.24	254.80
728.57	254.44
728.90	253.94
729.23	253.47
729.56	253.05
729.89	252.63
730.22	252.14
730.55	251.58
730.89	251.11
731.22	250.60
731.55	250.10
731.88	249.60
732.21	249.10
732.54	248.58
732.87	248.13
733.20	247.67
733.53	247.13
733.86	246.70
734.19	246.14
734.52	245.79
734.85	245.51
735.18	245.15
735.51	244.75
735.84	244.32
736.17	243.93
736.50	243.53
736.83	243.25
737.16	242.90
737.49	242.51
737.82	242.14
738.15	241.82
738.48	241.53
738.81	241.21
739.14	240.90
739.47	240.58
739.80	240.20
740.13	239.81
740.46	239.53
740.79	239.28
741.12	238.93
741.45	238.49
741.78	238.06
742.11	237.71
742.44	237.34
742.77	237.15
743.10	236.78
743.43	236.48
743.75	236.05
744.08	235.95
744.41	235.69
744.74	235.46
745.07	235.12
745.40	234.79
745.73	234.62
746.06	234.39
746.39	234.11
746.71	233.84
747.04	233.57
747.37	233.25
747.70	232.97
748.03	232.74
748.36	232.54
748.68	232.29
749.01	232.00
749.34	231.79
749.67	231.40
750.00	231.18
750.33	231.00
750.65	230.77
750.98	230.35
751.31	230.09
751.64	229.92
751.97	229.80
752.29	229.53
752.62	229.15
752.95	228.86
753.28	228.58
753.60	228.38
753.93	228.27
754.26	228.11
754.59	227.89
754.91	227.67
755.24	227.45
755.57	227.18
755.90	226.99
756.22	226.74
756.55	226.52
756.88	226.32
757.20	226.07
757.53	225.82
757.86	225.55
758.19	225.42
758.51	225.17
758.84	224.93
759.17	224.76
759.49	224.71
759.82	224.59
760.15	224.42
760.47	224.28
760.80	224.01
761.13	223.88
761.45	223.67
761.78	223.52
762.11	223.41
762.43	223.28
762.76	223.16
763.08	223.04
763.41	222.93
763.74	222.78
764.06	222.66
764.39	222.53
764.71	222.48
765.04	222.25
765.37	222.13
765.69	221.97
766.02	221.89
766.34	221.66
766.67	221.49
767.00	221.48
767.32	221.40
767.65	221.42
767.97	221.29
768.30	221.19
768.62	221.11
768.95	220.96
769.27	220.87
769.60	220.77
769.92	220.60
770.25	220.48
770.57	220.37
770.90	220.27
771.22	220.15
771.55	219.99
771.87	219.98
772.20	219.87
772.52	219.97
772.85	220.03
773.17	219.94
773.50	219.84
773.82	219.69
774.15	219.46
774.47	219.27
774.80	219.14
775.12	218.97
775.45	218.87
775.77	218.82
776.09	218.73
776.42	218.68
776.74	218.68
777.07	218.60
777.39	218.53
777.72	218.36
778.04	218.35
778.36	218.30
778.69	218.19
779.01	218.09
779.33	217.82
779.66	217.57
779.98	217.47
780.31	217.40
780.63	217.40
780.95	217.42
781.28	217.26
781.60	217.14
781.92	217.09
782.25	216.99
782.57	216.89
782.89	216.81
783.22	216.70
783.54	216.60
783.86	216.57
784.19	216.43
784.51	216.45
784.83	216.28
785.16	216.21
785.48	216.22
785.80	216.20
786.12	216.18
786.45	216.07
786.77	216.10
787.09	216.08
787.42	215.99
787.74	215.94
788.06	215.95
788.38	215.91
788.71	215.81
789.03	215.85
789.35	215.87
789.67	215.75
789.99	215.64
790.32	215.58
790.64	215.58
790.96	215.79
791.28	215.62
791.61	215.60
791.93	215.55
792.25	215.40
792.57	215.42
792.89	215.29
793.21	215.26
793.54	215.11
793.86	215.04
794.18	214.95
794.50	214.89
794.82	214.83
795.14	214.84
795.47	214.86
795.79	214.81
796.11	214.76
796.43	214.82
796.75	214.84
797.07	214.80
797.39	214.69
797.71	214.43
798.04	214.47
798.36	214.50
798.68	214.42
799.00	214.45
799.32	214.37
799.64	214.38
799.96	214.41
800.28	214.47
800.60	214.41
800.92	214.44
801.24	214.40
801.56	214.36
801.89	214.34
802.21	214.39
802.53	214.28
802.85	214.24
803.17	214.23
803.49	214.17
803.81	214.13
804.13	214.13
804.45	214.10
804.77	214.09
805.09	214.03
805.41	214.02
805.73	213.97
806.05	213.87
806.37	213.83
806.69	213.77
807.01	213.69
807.33	213.72
807.65	213.63
807.97	213.65
808.28	213.68
808.60	213.70
808.92	213.60
809.24	213.65
809.56	213.60
809.88	213.51
810.20	213.55
810.52	213.63
810.84	213.58
811.16	213.50
811.48	213.57
811.80	213.58
812.12	213.51
812.43	213.57
812.75	213.60
813.07	213.67
813.39	213.65
813.71	213.65
814.03	213.56
814.35	213.51
814.67	213.44
814.98	213.41
815.30	213.38
815.62	213.40
815.94	213.36
816.26	213.27
816.58	213.27
816.89	213.15
817.21	213.06
817.53	213.10
817.85	213.18
818.17	213.08
818.48	212.99
818.80	213.06
819.12	212.97
819.44	212.94
819.76	212.85
820.07	212.79
820.39	212.76
820.71	212.83
821.03	212.92
821.34	212.90
821.66	212.86
821.98	212.86
822.30	212.84
822.61	212.92
822.93	212.94
823.25	212.88
823.57	212.87
823.88	212.91
824.20	212.86
824.52	212.76
824.83	212.72
825.15	212.68
825.47	212.62
825.79	212.60
826.10	212.58
826.42	212.55
826.74	212.60
827.05	212.61
827.37	212.58
827.69	212.50
828.00	212.56
828.32	212.55
828.64	212.56
828.95	212.55
829.27	212.43
829.58	212.40
829.90	212.44
830.22	212.48
830.53	212.32
830.85	212.23
831.17	212.29
831.48	212.33
831.80	212.37
832.11	212.40
832.43	212.38
832.75	212.27
833.06	212.40
833.38	212.33
833.69	212.24
834.01	212.16
834.32	212.15
834.64	212.04
834.96	212.06
835.27	211.93
835.59	211.93
835.90	211.87
836.22	211.87
836.53	211.78
836.85	211.77
837.16	212.00
837.48	212.03
837.79	212.14
838.11	212.05
838.42	212.03
838.74	211.95
839.05	211.89
839.37	211.95
839.68	211.81
840.00	211.83
840.31	211.88
840.63	211.90
840.94	211.87
841.26	211.85
841.57	211.85
841.88	211.87
842.20	211.81
842.51	211.86
842.83	211.85
843.14	211.97
843.46	211.96
843.77	211.86
844.08	211.81
844.40	211.70
844.71	211.69
845.03	211.66
845.34	211.68
845.65	211.77
845.97	211.77
846.28	211.82
846.60	211.82
846.91	211.76
847.22	211.77
847.54	211.84
847.85	211.93
848.16	211.92
848.48	211.92
848.79	212.04
849.10	212.03
849.42	212.02
849.73	211.90
850.04	211.85
850.36	211.80
850.67	211.90
850.98	211.86
851.30	211.89
851.61	211.89
851.92	211.89
852.23	211.93
852.55	211.94
852.86	211.92
853.17	211.96
853.49	212.05
853.80	212.09
854.11	212.07
854.42	212.09
854.74	212.01
855.05	212.03
855.36	211.93
855.67	211.93
855.99	212.00
856.30	212.28
856.61	212.35
856.92	212.32
857.23	212.27
857.55	212.29
857.86	212.24
858.17	212.30
858.48	212.31
858.79	212.17
859.11	212.17
859.42	212.15
859.73	212.06
860.04	212.05
860.35	211.96
860.66	211.95
860.98	211.89
861.29	211.94
861.60	211.96
861.91	211.98
862.22	211.98
862.53	211.96
862.84	211.69
863.16	211.74
863.47	211.74
863.78	211.67
864.09	211.67
864.40	211.74
864.71	211.68
865.02	211.72
865.33	211.76
865.64	211.68
865.95	211.69
866.27	211.87
866.58	211.85
866.89	211.88
867.20	211.85
867.51	211.82
867.82	211.78
868.13	211.83
868.44	211.81
868.75	211.80
869.06	211.73
869.37	211.72
869.68	211.65
869.99	211.71
870.30	211.73
870.61	211.76
870.92	211.67
871.23	211.69
871.54	211.70
871.85	211.78
872.16	211.89
872.47	211.84
872.78	211.71
873.09	211.66
873.40	211.68
873.71	211.69
874.02	211.67
874.33	211.73
874.64	211.63
874.95	211.64
875.26	211.59
875.56	211.59
875.87	211.66
876.18	211.64
876.49	211.77
876.80	211.77
877.11	211.68
877.42	211.75
877.73	211.72
878.04	211.66
878.35	211.62
878.66	211.51
878.96	211.50
879.27	211.50
879.58	211.54
879.89	211.57
880.20	211.55
880.51	211.58
880.82	211.52
881.12	211.56
881.43	211.61
881.74	211.60
882.05	211.62
882.36	211.53
882.67	211.55
882.97	211.35
883.28	211.33
883.59	211.35
883.90	211.39
884.21	211.44
884.51	211.42
884.82	211.43
885.13	211.51
885.44	211.49
885.74	211.44
886.05	211.41
886.36	211.33
886.67	211.36
886.98	211.42
887.28	211.44
887.59	211.40
887.90	211.29
888.20	211.28
888.51	211.30
888.82	211.35
889.13	211.33
889.43	211.50
889.74	211.55
890.05	211.58
890.35	211.58
890.66	211.53
890.97	211.54
891.28	211.47
891.58	211.48
891.89	211.49
892.20	211.53
892.50	211.55
892.81	211.57
893.12	211.49
893.42	211.40
893.73	211.33
894.04	211.37
894.34	211.43
894.65	211.45
894.95	211.39
895.26	211.37
895.57	211.47
895.87	211.29
896.18	211.29
896.48	211.26
896.79	211.26
897.10	211.28
897.40	211.28
897.71	211.38
898.01	211.33
898.32	211.30
898.63	211.30
898.93	211.34
899.24	211.36
899.54	211.44
899.85	211.41
900.15	211.47
900.46	211.45
900.76	211.44
901.07	211.39
901.38	211.45
901.68	211.47
901.99	211.36
902.29	211.33
902.60	211.29
902.90	211.32
903.21	211.29
903.51	211.29
903.82	211.24
904.12	211.16
904.43	211.15
904.73	211.25
905.03	211.19
905.34	211.29
905.64	211.25
905.95	211.19
906.25	211.22
906.56	211.29
906.86	211.29
907.17	211.32
907.47	211.40
907.77	211.36
908.08	211.38
908.38	211.41
908.69	211.48
908.99	211.57
909.30	211.50
909.60	211.45
909.90	211.47
910.21	211.51
910.51	211.50
910.81	211.53
911.12	211.46
911.42	211.49
911.73	211.37
912.03	211.35
912.33	211.40
912.64	211.39
912.94	211.29
913.24	211.24
913.55	211.17
913.85	211.16
914.15	211.15
914.46	211.13
914.76	211.13
915.06	211.04
915.37	210.98
915.67	211.03
915.97	211.09
916.27	211.04
916.58	211.07
916.88	211.06
917.18	211.06
917.49	211.21
917.79	211.22
918.09	211.22
918.39	211.33
918.70	211.28
919.00	211.32
919.30	211.43
919.60	211.36
919.91	211.41
920.21	211.35
920.51	211.32
920.81	211.30
921.12	211.30
921.42	211.38
921.72	211.34
922.02	211.30
922.32	211.30
922.63	211.31
922.93	211.36
923.23	211.35
923.53	211.32
923.83	211.17
924.13	211.18
924.44	211.14
924.74	211.13
925.04	211.20
925.34	211.18
925.64	211.04
925.94	211.10
926.24	211.11
926.55	211.18
926.85	211.19
927.15	211.19
927.45	211.17
927.75	211.08
928.05	211.07
928.35	211.06
928.65	211.10
928.95	211.05
929.26	210.93
929.56	211.02
929.86	211.00
930.16	210.98
930.46	210.96
930.76	210.96
931.06	210.86
931.36	210.80
931.66	210.77
931.96	210.83
932.26	210.79
932.56	210.69
932.86	210.65
933.16	210.61
933.46	210.61
933.76	210.59
934.06	210.65
934.36	210.80
934.66	210.82
934.96	210.80
935.26	210.80
935.56	210.84
935.86	210.76
936.16	210.77
936.46	210.81
936.76	210.83
937.06	210.80
937.36	210.80
937.66	210.80
937.96	210.85
938.26	210.85
938.56	210.86
938.86	210.94
939.16	211.00
939.46	211.11
939.76	211.12
940.06	211.15
940.35	211.12
940.65	210.99
940.95	211.04
941.25	210.98
941.55	211.04
941.85	211.10
942.15	211.10
942.45	211.15
942.75	211.11
943.04	211.10
943.34	211.17
943.64	211.18
943.94	211.18
944.24	211.17
944.54	211.18
944.84	211.20
945.13	211.15
945.43	211.12
945.73	211.07
946.03	211.08
946.33	211.03
946.62	211.05
946.92	211.03
947.22	211.02
947.52	211.05
947.82	211.06
948.11	210.97
948.41	210.89
948.71	210.80
949.01	210.88
949.31	210.84
949.60	210.81
949.90	210.89
950.20	210.84
950.50	210.81
950.79	210.80
951.09	210.84
951.39	210.89
951.69	210.92
951.98	210.93
952.28	210.98
952.58	210.97
952.87	211.01
953.17	211.08
953.47	210.98
953.76	210.99
954.06	210.95
954.36	210.97
954.66	211.01
954.95	211.10
955.25	211.08
955.55	211.09
955.84	211.11
956.14	211.00
956.44	211.09
956.73	211.05
957.03	211.13
957.32	211.13
957.62	211.06
957.92	211.06
958.21	211.05
958.51	211.19
958.81	211.19
959.10	211.14
959.40	211.17
959.69	211.24
959.99	211.30
960.29	211.32
960.58	211.28
960.88	211.39
961.17	211.45
961.47	211.45
961.76	211.47
962.06	211.50
962.36	211.50
962.65	211.48
962.95	211.52
963.24	211.46
963.54	211.44
963.83	211.49
964.13	211.40
964.42	211.33
964.72	211.26
965.01	211.30
965.31	211.33
965.60	211.30
965.90	211.36
966.19	211.23
966.49	211.22
966.78	211.23
967.08	211.21
967.37	211.15
967.67	211.11
967.96	211.15
968.26	211.14
968.55	211.21
968.85	211.23
969.14	211.24
969.43	211.23
969.73	211.20
970.02	211.16
970.32	211.25
970.61	211.31
970.91	211.23
971.20	211.16
971.49	211.13
971.79	211.11
972.08	210.99
972.38	211.05
972.67	211.08
972.96	211.08
973.26	211.02
973.55	211.02
973.85	210.98
974.14	210.88
974.43	210.85
974.73	210.77
975.02	210.77
975.31	210.77
975.61	210.79
975.90	210.81
976.19	210.86
976.49	210.81
976.78	210.84
977.07	210.78
977.37	210.84
977.66	210.88
977.95	210.86
978.24	210.90
978.54	210.93
978.83	210.91
979.12	210.93
979.42	210.95
979.71	210.89
980.00	210.92
980.29	210.96
980.59	211.00
980.88	211.05
981.17	211.04
981.46	211.04
981.76	211.03
982.05	211.12
982.34	211.13
982.63	211.15
982.93	211.10
983.22	211.15
983.51	211.13
983.80	211.06
984.09	211.11
984.39	211.12
984.68	211.11
984.97	211.20
985.26	211.18
985.55	211.14
985.85	211.22
986.14	211.24
986.43	211.27
986.72	211.24
987.01	211.24
987.30	211.23
987.59	211.18
987.89	211.21
988.18	211.11
988.47	211.08
988.76	211.12
989.05	211.12
989.34	211.16
989.63	211.25
989.92	211.29
990.22	211.26
990.51	211.33
990.80	211.27
991.09	211.18
991.38	211.23
991.67	211.20
991.96	211.11
992.25	211.05
992.54	211.07
992.83	211.05
993.12	211.04
993.41	211.13
993.70	211.16
993.99	211.15
994.28	211.17
994.58	211.15
994.87	211.12
995.16	211.17
995.45	211.16
995.74	211.09
996.03	211.14
996.32	211.12
996.61	211.07
996.90	211.15
997.19	211.20
997.48	211.22
997.77	211.27
998.06	211.36
998.34	211.44
998.63	211.41
998.92	211.45
999.21	211.46
999.50	211.43
999.79	211.45
1000.08	211.53
1000.37	211.57
1000.66	211.60
1000.95	211.64
1001.24	211.67
1001.53	211.72
1001.82	211.71
1002.11	211.62
1002.40	211.69
1002.68	211.76
1002.97	211.81
1003.26	211.77
1003.55	211.69
1003.84	211.64
1004.13	211.64
1004.42	211.62
1004.71	211.61
1004.99	211.58
1005.28	211.61
1005.57	211.53
1005.86	211.52
1006.15	211.46
1006.44	211.43
1006.72	211.51
1007.01	211.44
1007.30	211.33
1007.59	211.22
1007.88	211.28
1008.17	211.31
1008.45	211.22
1008.74	211.14
1009.03	211.10
1009.32	211.12
1009.60	211.12
1009.89	211.15
1010.18	211.14
1010.47	211.16
1010.76	211.15
1011.04	211.20
1011.33	211.20
1011.62	211.20
1011.91	211.14
1012.19	211.20
1012.48	211.15
1012.77	211.07
1013.05	211.16
1013.34	211.21
1013.63	211.28
1013.92	211.31
1014.20	211.31
1014.49	211.35
1014.78	211.40
1015.06	211.32
1015.35	211.27
1015.64	211.40
1015.92	211.46
1016.21	211.50
1016.50	211.51
1016.78	211.58
1017.07	211.55
1017.36	211.50
1017.64	211.50
1017.93	211.56
1018.22	211.54
1018.50	211.58
1018.79	211.55
1019.08	211.51
1019.36	211.53
1019.65	211.45
1019.93	211.44
1020.22	211.44
1020.51	211.54
1020.79	211.43
1021.08	212.05
1021.36	211.00
1021.65	210.65
1021.94	211.80
1022.22	211.60
1022.51	210.35
1022.79	212.30
1023.08	210.90
1023.36	213.40
1023.65	209.95
>>>>>End Processed Spectral Data<<<<<
