SpectraSuite Data File
++++++++++++++++++++++++++++++++++++
Date: Mon Feb 25 17:31:34 EST 2013
User: group
Dark Spectrum Present: No
Reference Spectrum Present: No
Number of Sampled Component Spectra: 1
Spectrometers: USB2E7196
Integration Time (usec): 52000 (USB2E7196)
Spectra Averaged: 20 (USB2E7196)
Boxcar Smoothing: 10 (USB2E7196)
Correct for Electrical Dark: No (USB2E7196)
Strobe/Lamp Enabled: No (USB2E7196)
Correct for Detector Non-linearity: No (USB2E7196)
Correct for Stray Light: No (USB2E7196)
Number of Pixels in Processed Spectrum: 2048
>>>>>Begin Processed Spectral Data<<<<<
339.09	0.00
339.48	199.35
339.86	200.55
340.24	202.55
340.63	203.55
341.01	208.60
341.39	207.30
341.78	207.95
342.16	208.95
342.54	209.05
342.93	198.55
343.31	208.57
343.69	209.10
344.07	209.56
344.46	209.95
344.84	210.31
345.22	210.43
345.60	210.60
345.99	210.74
346.37	210.78
346.75	210.86
347.13	210.91
347.52	210.92
347.90	211.01
348.28	211.01
348.66	211.00
349.05	210.98
349.43	211.06
349.81	211.04
350.19	211.10
350.57	211.15
350.96	211.20
351.34	211.26
351.72	211.35
352.10	211.46
352.48	211.49
352.87	211.56
353.25	211.62
353.63	211.70
354.01	211.75
354.39	211.83
354.77	211.99
355.15	212.04
355.54	212.11
355.92	212.10
356.30	212.17
356.68	212.36
357.06	212.43
357.44	212.45
357.82	212.60
358.20	212.66
358.58	212.80
358.97	212.84
359.35	212.95
359.73	212.99
360.11	212.99
360.49	213.04
360.87	213.13
361.25	213.16
361.63	213.26
362.01	213.35
362.39	213.46
362.77	213.40
363.15	213.46
363.53	213.53
363.91	213.60
364.29	213.66
364.67	213.51
365.05	213.58
365.43	213.66
365.81	213.70
366.19	213.77
366.57	213.75
366.95	213.75
367.33	213.76
367.71	213.80
368.09	213.91
368.47	213.96
368.85	213.94
369.23	214.01
369.61	213.92
369.99	214.01
370.37	214.04
370.75	214.14
371.13	214.05
371.51	214.03
371.89	213.95
372.27	213.93
372.65	213.95
373.03	213.94
373.41	213.86
373.78	213.80
374.16	213.70
374.54	213.64
374.92	213.65
375.30	213.61
375.68	213.52
376.06	213.45
376.44	213.35
376.82	213.31
377.19	213.29
377.57	213.24
377.95	213.07
378.33	212.91
378.71	212.76
379.09	212.78
379.47	212.79
379.84	212.79
380.22	212.72
380.60	212.64
380.98	212.54
381.36	212.44
381.73	212.41
382.11	212.40
382.49	212.35
382.87	212.25
383.25	212.18
383.62	212.40
384.00	212.27
384.38	212.31
384.76	212.27
385.13	212.27
385.51	212.24
385.89	212.22
386.27	212.25
386.64	212.26
387.02	212.25
387.40	212.19
387.78	212.13
388.15	212.11
388.53	212.05
388.91	212.07
389.29	212.06
389.66	212.02
390.04	212.01
390.42	212.02
390.79	212.03
391.17	212.03
391.55	211.78
391.92	211.81
392.30	211.77
392.68	211.73
393.05	211.73
393.43	211.79
393.81	211.80
394.18	211.78
394.56	211.78
394.94	211.85
395.31	211.80
395.69	211.86
396.06	211.95
396.44	212.00
396.82	211.93
397.19	212.00
397.57	212.02
397.95	211.99
398.32	212.01
398.70	212.05
399.07	212.05
399.45	212.07
399.82	212.08
400.20	212.20
400.58	212.18
400.95	212.13
401.33	212.08
401.70	212.24
402.08	212.32
402.45	212.44
402.83	212.50
403.20	212.62
403.58	212.63
403.95	212.70
404.33	212.82
404.71	213.00
405.08	213.25
405.46	213.31
405.83	213.51
406.21	213.63
406.58	213.77
406.96	213.95
407.33	214.08
407.70	214.27
408.08	214.59
408.45	214.82
408.83	215.10
409.20	215.35
409.58	215.50
409.95	215.72
410.33	216.00
410.70	216.19
411.08	216.52
411.45	216.86
411.82	217.25
412.20	217.64
412.57	218.15
412.95	218.48
413.32	219.05
413.69	219.51
414.07	220.09
414.44	220.72
414.82	221.37
415.19	222.08
415.56	222.83
415.94	223.50
416.31	224.49
416.68	225.32
417.06	226.35
417.43	227.23
417.81	228.34
418.18	229.40
418.55	230.62
418.93	231.85
419.30	233.11
419.67	234.38
420.04	235.85
420.42	237.33
420.79	239.10
421.16	240.82
421.54	242.64
421.91	244.41
422.28	246.27
422.66	248.30
423.03	250.33
423.40	252.40
423.77	254.56
424.15	256.67
424.52	259.00
424.89	261.59
425.26	264.09
425.64	266.43
426.01	269.04
426.38	271.76
426.75	274.52
427.13	277.37
427.50	280.34
427.87	283.28
428.24	286.20
428.61	288.98
428.99	292.19
429.36	295.60
429.73	299.10
430.10	302.56
430.47	305.98
430.85	309.65
431.22	313.47
431.59	317.59
431.96	321.52
432.33	325.75
432.70	329.73
433.08	334.51
433.45	339.03
433.82	343.58
434.19	348.51
434.56	353.33
434.93	358.16
435.30	362.84
435.68	368.05
436.05	373.27
436.42	378.36
436.79	382.95
437.16	387.95
437.53	393.19
437.90	398.35
438.27	403.43
438.64	408.69
439.01	413.50
439.38	417.72
439.75	421.90
440.13	426.71
440.50	431.33
440.87	435.05
441.24	438.92
441.61	442.96
441.98	446.07
442.35	449.76
442.72	453.20
443.09	456.85
443.46	458.95
443.83	460.20
444.20	461.50
444.57	463.26
444.94	464.00
445.31	464.75
445.68	465.57
446.05	465.75
446.42	465.21
446.79	464.50
447.16	463.72
447.53	463.16
447.90	461.12
448.27	458.89
448.64	456.08
449.01	453.91
449.37	450.45
449.74	446.90
450.11	442.77
450.48	438.44
450.85	433.66
451.22	429.84
451.59	426.21
451.96	422.59
452.33	417.82
452.70	413.58
453.07	408.57
453.43	403.36
453.80	398.58
454.17	393.82
454.54	389.44
454.91	384.74
455.28	380.01
455.65	375.67
456.02	371.56
456.38	367.88
456.75	363.41
457.12	359.51
457.49	355.81
457.86	352.14
458.23	348.90
458.59	345.56
458.96	342.02
459.33	338.91
459.70	335.72
460.07	333.32
460.43	330.47
460.80	327.86
461.17	325.50
461.54	322.98
461.91	320.68
462.27	318.29
462.64	316.36
463.01	314.15
463.38	312.10
463.74	309.90
464.11	307.98
464.48	306.33
464.85	304.57
465.21	303.28
465.58	301.82
465.95	300.23
466.32	298.79
466.68	297.35
467.05	296.02
467.42	294.75
467.78	293.23
468.15	291.89
468.52	290.74
468.88	289.50
469.25	288.35
469.62	287.43
469.98	286.46
470.35	285.40
470.72	284.59
471.08	283.48
471.45	282.71
471.82	281.89
472.18	281.01
472.55	280.47
472.92	279.78
473.28	279.18
473.65	278.58
474.02	278.04
474.38	277.75
474.75	277.31
475.11	276.89
475.48	276.73
475.85	276.59
476.21	276.47
476.58	276.40
476.94	276.48
477.31	276.40
477.67	276.30
478.04	276.40
478.41	276.51
478.77	276.85
479.14	276.97
479.50	277.29
479.87	277.72
480.23	278.08
480.60	278.45
480.96	278.84
481.33	279.44
481.69	280.08
482.06	280.56
482.42	281.29
482.79	282.06
483.15	282.87
483.52	283.84
483.88	284.76
484.25	285.63
484.61	286.56
484.98	287.60
485.34	288.96
485.71	290.21
486.07	291.56
486.44	292.88
486.80	294.47
487.17	296.07
487.53	297.73
487.90	299.56
488.26	301.48
488.62	303.67
488.99	305.74
489.35	307.88
489.72	310.19
490.08	312.60
490.44	314.97
490.81	317.66
491.17	320.26
491.54	323.20
491.90	326.30
492.26	329.56
492.63	332.91
492.99	336.33
493.36	340.04
493.72	344.01
494.08	348.09
494.45	352.30
494.81	356.81
495.17	361.45
495.54	366.38
495.90	371.48
496.26	376.63
496.63	382.02
496.99	387.72
497.35	393.79
497.72	400.00
498.08	406.62
498.44	413.31
498.80	420.52
499.17	427.95
499.53	435.58
499.89	443.52
500.26	451.69
500.62	460.02
500.98	468.75
501.34	477.86
501.71	487.20
502.07	496.87
502.43	506.81
502.79	516.94
503.16	527.47
503.52	538.20
503.88	549.38
504.24	561.10
504.60	573.00
504.97	585.19
505.33	597.73
505.69	610.82
506.05	624.16
506.41	637.75
506.78	651.39
507.14	665.43
507.50	679.87
507.86	694.85
508.22	710.21
508.59	725.75
508.95	741.48
509.31	757.84
509.67	774.42
510.03	791.24
510.39	808.70
510.75	826.39
511.12	844.35
511.48	862.68
511.84	881.07
512.20	899.73
512.56	918.68
512.92	938.04
513.28	957.40
513.64	977.18
514.00	997.00
514.37	1017.20
514.73	1037.78
515.09	1058.35
515.45	1078.82
515.81	1099.80
516.17	1120.92
516.53	1142.21
516.89	1163.20
517.25	1184.46
517.61	1205.96
517.97	1227.47
518.33	1248.84
518.69	1270.32
519.05	1292.23
519.41	1314.28
519.77	1336.65
520.13	1358.65
520.49	1380.51
520.85	1403.07
521.21	1425.13
521.57	1447.75
521.93	1469.63
522.29	1492.27
522.65	1514.95
523.01	1537.27
523.37	1559.17
523.73	1581.07
524.09	1603.05
524.45	1625.19
524.81	1647.39
525.17	1669.62
525.53	1691.73
525.89	1714.01
526.25	1735.95
526.61	1756.72
526.97	1778.10
527.33	1798.91
527.68	1820.57
528.04	1841.70
528.40	1861.66
528.76	1882.26
529.12	1902.89
529.48	1924.37
529.84	1944.45
530.20	1964.15
530.56	1984.35
530.91	2004.73
531.27	2024.99
531.63	2044.56
531.99	2064.41
532.35	2083.44
532.71	2102.11
533.07	2121.40
533.42	2139.52
533.78	2158.08
534.14	2176.56
534.50	2193.49
534.86	2211.51
535.21	2227.38
535.57	2244.76
535.93	2261.85
536.29	2278.39
536.65	2294.51
537.00	2309.66
537.36	2324.82
537.72	2340.14
538.08	2355.34
538.44	2370.15
538.79	2385.35
539.15	2400.03
539.51	2414.38
539.87	2429.22
540.22	2443.64
540.58	2458.11
540.94	2472.46
541.29	2485.22
541.65	2497.15
542.01	2510.19
542.37	2521.77
542.72	2534.18
543.08	2545.01
543.44	2556.75
543.79	2567.11
544.15	2577.03
544.51	2587.93
544.87	2598.62
545.22	2607.74
545.58	2615.91
545.94	2623.24
546.29	2629.48
546.65	2635.81
547.01	2641.45
547.36	2647.10
547.72	2652.19
548.07	2655.85
548.43	2659.41
548.79	2662.88
549.14	2667.70
549.50	2671.62
549.86	2675.47
550.21	2679.41
550.57	2682.95
550.92	2685.46
551.28	2687.65
551.64	2690.27
551.99	2692.27
552.35	2693.96
552.70	2696.45
553.06	2699.28
553.41	2702.20
553.77	2704.99
554.13	2706.76
554.48	2708.78
554.84	2710.10
555.19	2710.62
555.55	2710.98
555.90	2711.25
556.26	2711.85
556.61	2711.32
556.97	2710.06
557.32	2709.20
557.68	2707.42
558.03	2706.24
558.39	2704.32
558.74	2703.94
559.10	2702.59
559.45	2700.40
559.81	2698.98
560.16	2696.40
560.52	2693.74
560.87	2690.49
561.23	2686.87
561.58	2684.78
561.94	2681.30
562.29	2677.48
562.64	2675.02
563.00	2672.69
563.35	2670.48
563.71	2668.66
564.06	2666.24
564.42	2664.58
564.77	2662.19
565.12	2660.49
565.48	2657.31
565.83	2654.50
566.19	2650.81
566.54	2646.39
566.89	2642.70
567.25	2638.68
567.60	2635.22
567.96	2631.47
568.31	2628.10
568.66	2623.89
569.02	2618.99
569.37	2614.28
569.72	2610.59
570.08	2605.47
570.43	2599.61
570.78	2593.92
571.14	2587.54
571.49	2581.11
571.84	2575.00
572.20	2568.21
572.55	2561.31
572.90	2554.34
573.26	2547.13
573.61	2540.18
573.96	2533.89
574.31	2526.28
574.67	2518.33
575.02	2509.57
575.37	2501.09
575.72	2492.26
576.08	2484.91
576.43	2476.70
576.78	2468.95
577.13	2460.53
577.49	2452.77
577.84	2445.15
578.19	2437.26
578.54	2429.67
578.90	2422.83
579.25	2414.11
579.60	2405.26
579.95	2395.96
580.30	2388.19
580.66	2380.37
581.01	2371.44
581.36	2362.18
581.71	2353.56
582.06	2344.95
582.42	2337.10
582.77	2328.09
583.12	2319.18
583.47	2310.35
583.82	2302.06
584.17	2292.92
584.53	2284.18
584.88	2275.19
585.23	2266.33
585.58	2257.12
585.93	2247.63
586.28	2238.62
586.63	2230.09
586.98	2222.11
587.34	2214.10
587.69	2205.00
588.04	2195.95
588.39	2187.96
588.74	2179.05
589.09	2170.61
589.44	2161.34
589.79	2152.69
590.14	2144.77
590.49	2136.74
590.84	2128.15
591.19	2120.24
591.54	2111.79
591.89	2101.99
592.25	2092.73
592.60	2083.19
592.95	2073.94
593.30	2064.69
593.65	2055.03
594.00	2045.44
594.35	2037.06
594.70	2027.70
595.05	2019.03
595.40	2010.49
595.75	2001.23
596.10	1993.28
596.45	1985.03
596.80	1977.43
597.15	1969.53
597.50	1960.54
597.85	1951.84
598.19	1942.92
598.54	1933.94
598.89	1926.04
599.24	1919.36
599.59	1912.26
599.94	1905.52
600.29	1898.03
600.64	1890.37
600.99	1882.22
601.34	1875.20
601.69	1866.43
602.04	1858.74
602.39	1850.88
602.74	1843.15
603.08	1836.43
603.43	1829.24
603.78	1821.35
604.13	1813.42
604.48	1805.44
604.83	1798.74
605.18	1792.02
605.53	1784.98
605.87	1777.62
606.22	1770.80
606.57	1762.85
606.92	1754.88
607.27	1746.95
607.62	1739.66
607.96	1732.94
608.31	1726.83
608.66	1719.04
609.01	1711.83
609.36	1704.24
609.70	1696.17
610.05	1688.50
610.40	1680.29
610.75	1671.89
611.10	1664.45
611.44	1655.40
611.79	1646.32
612.14	1637.10
612.49	1627.46
612.83	1618.85
613.18	1609.39
613.53	1600.02
613.88	1590.53
614.22	1581.70
614.57	1572.44
614.92	1563.20
615.27	1553.93
615.61	1544.28
615.96	1535.46
616.31	1526.93
616.65	1519.05
617.00	1511.02
617.35	1502.55
617.70	1494.01
618.04	1485.24
618.39	1475.86
618.74	1467.77
619.08	1459.42
619.43	1451.24
619.78	1443.73
620.12	1435.47
620.47	1427.61
620.82	1418.97
621.16	1410.90
621.51	1402.59
621.85	1394.52
622.20	1385.99
622.55	1377.80
622.89	1369.62
623.24	1361.71
623.59	1353.23
623.93	1344.63
624.28	1336.23
624.62	1328.25
624.97	1319.87
625.32	1311.94
625.66	1304.79
626.01	1297.36
626.35	1290.15
626.70	1282.57
627.04	1275.07
627.39	1267.61
627.73	1260.25
628.08	1253.64
628.43	1246.31
628.77	1238.95
629.12	1231.45
629.46	1225.14
629.81	1218.01
630.15	1210.62
630.50	1203.23
630.84	1196.16
631.19	1189.14
631.53	1182.62
631.88	1175.05
632.22	1167.71
632.57	1160.89
632.91	1153.31
633.26	1145.89
633.60	1138.92
633.95	1132.28
634.29	1124.99
634.64	1118.46
634.98	1111.78
635.32	1104.63
635.67	1098.55
636.01	1092.19
636.36	1085.49
636.70	1078.85
637.05	1072.31
637.39	1066.31
637.73	1060.09
638.08	1054.26
638.42	1048.36
638.77	1041.81
639.11	1035.65
639.45	1029.71
639.80	1023.17
640.14	1017.09
640.49	1011.04
640.83	1004.86
641.17	998.60
641.52	992.78
641.86	986.11
642.20	979.88
642.55	973.45
642.89	966.73
643.23	960.30
643.58	954.51
643.92	948.28
644.26	942.04
644.61	935.68
644.95	929.53
645.29	923.25
645.64	916.76
645.98	910.67
646.32	904.79
646.66	898.85
647.01	893.01
647.35	886.99
647.69	880.95
648.04	874.83
648.38	868.91
648.72	862.78
649.06	856.75
649.41	850.63
649.75	844.83
650.09	839.00
650.43	833.12
650.78	827.09
651.12	820.90
651.46	815.17
651.80	809.39
652.14	803.59
652.49	797.91
652.83	792.14
653.17	786.11
653.51	780.48
653.85	774.81
654.20	769.15
654.54	763.26
654.88	757.84
655.22	752.26
655.56	746.49
655.90	740.75
656.25	735.33
656.59	730.03
656.93	724.89
657.27	719.88
657.61	714.51
657.95	709.44
658.29	704.33
658.64	699.32
658.98	694.30
659.32	688.99
659.66	683.68
660.00	678.47
660.34	673.33
660.68	668.10
661.02	662.95
661.36	658.24
661.70	653.72
662.05	649.12
662.39	644.66
662.73	640.17
663.07	635.86
663.41	631.58
663.75	627.09
664.09	622.48
664.43	617.80
664.77	613.65
665.11	609.35
665.45	605.14
665.79	600.90
666.13	596.45
666.47	592.36
666.81	588.23
667.15	584.25
667.49	580.36
667.83	576.41
668.17	572.69
668.51	568.71
668.85	564.90
669.19	561.09
669.53	557.19
669.87	553.37
670.21	549.61
670.55	545.65
670.89	542.28
671.23	539.00
671.57	535.60
671.91	531.94
672.25	528.41
672.58	524.91
672.92	521.32
673.26	518.30
673.60	515.15
673.94	511.90
674.28	508.71
674.62	505.77
674.96	502.55
675.30	499.45
675.64	496.42
675.97	493.35
676.31	490.38
676.65	487.56
676.99	484.82
677.33	481.91
677.67	479.14
678.01	475.95
678.34	472.82
678.68	469.85
679.02	467.03
679.36	464.29
679.70	461.49
680.04	458.59
680.37	455.66
680.71	452.84
681.05	450.20
681.39	447.59
681.73	444.78
682.06	442.34
682.40	439.83
682.74	437.23
683.08	434.69
683.42	432.09
683.75	429.49
684.09	426.98
684.43	424.43
684.77	421.85
685.10	419.40
685.44	416.93
685.78	414.57
686.12	412.18
686.45	409.78
686.79	407.59
687.13	405.62
687.46	403.38
687.80	401.24
688.14	399.00
688.48	396.89
688.81	394.84
689.15	392.68
689.49	390.45
689.82	388.20
690.16	385.91
690.50	383.68
690.83	381.48
691.17	379.18
691.51	377.12
691.84	375.14
692.18	373.07
692.52	371.14
692.85	369.25
693.19	367.38
693.52	365.50
693.86	363.51
694.20	361.52
694.53	359.74
694.87	357.80
695.21	355.84
695.54	353.87
695.88	351.95
696.21	350.18
696.55	348.40
696.88	346.74
697.22	345.00
697.56	343.36
697.89	341.71
698.23	340.10
698.56	338.49
698.90	336.94
699.23	335.43
699.57	333.84
699.90	332.13
700.24	330.58
700.58	328.87
700.91	327.35
701.25	325.94
701.58	324.40
701.92	322.98
702.25	321.60
702.59	320.13
702.92	318.82
703.26	317.43
703.59	316.16
703.93	315.06
704.26	313.90
704.60	312.65
704.93	311.47
705.26	310.24
705.60	309.09
705.93	307.85
706.27	306.74
706.60	305.70
706.94	304.65
707.27	303.50
707.61	302.35
707.94	301.26
708.27	300.03
708.61	298.85
708.94	297.74
709.28	296.61
709.61	295.59
709.94	294.50
710.28	293.45
710.61	292.40
710.95	291.22
711.28	290.26
711.61	289.31
711.95	288.34
712.28	287.36
712.61	286.34
712.95	285.40
713.28	284.49
713.61	283.54
713.95	282.63
714.28	281.71
714.61	280.83
714.95	279.91
715.28	279.05
715.61	278.18
715.95	277.34
716.28	276.52
716.61	275.66
716.95	274.79
717.28	273.92
717.61	272.99
717.94	272.24
718.28	271.40
718.61	270.66
718.94	269.89
719.27	269.11
719.61	268.42
719.94	267.80
720.27	267.02
720.60	266.27
720.94	265.56
721.27	264.87
721.60	264.36
721.93	263.77
722.27	263.24
722.60	262.74
722.93	262.11
723.26	261.57
723.59	261.03
723.93	260.40
724.26	259.90
724.59	259.40
724.92	258.83
725.25	258.32
725.59	257.75
725.92	257.25
726.25	256.76
726.58	256.18
726.91	255.57
727.24	255.03
727.57	254.53
727.91	254.00
728.24	253.53
728.57	253.02
728.90	252.48
729.23	251.99
729.56	251.56
729.89	251.17
730.22	250.67
730.55	250.16
730.89	249.89
731.22	249.42
731.55	249.05
731.88	248.53
732.21	248.13
732.54	247.65
732.87	247.23
733.20	246.88
733.53	246.46
733.86	246.12
734.19	245.71
734.52	245.37
734.85	245.11
735.18	244.73
735.51	244.40
735.84	244.06
736.17	243.73
736.50	243.31
736.83	243.17
737.16	242.78
737.49	242.46
737.82	241.98
738.15	241.66
738.48	241.26
738.81	240.95
739.14	240.64
739.47	240.23
739.80	239.88
740.13	239.59
740.46	239.30
740.79	238.94
741.12	238.64
741.45	238.33
741.78	237.87
742.11	237.59
742.44	237.17
742.77	236.89
743.10	236.56
743.43	236.21
743.75	235.68
744.08	235.66
744.41	235.34
744.74	235.00
745.07	234.65
745.40	234.40
745.73	234.20
746.06	233.89
746.39	233.75
746.71	233.46
747.04	233.09
747.37	232.78
747.70	232.53
748.03	232.30
748.36	232.03
748.68	231.89
749.01	231.58
749.34	231.36
749.67	231.11
750.00	230.85
750.33	230.82
750.65	230.62
750.98	230.18
751.31	229.93
751.64	229.71
751.97	229.60
752.29	229.32
752.62	229.01
752.95	228.65
753.28	228.37
753.60	228.16
753.93	228.05
754.26	227.94
754.59	227.74
754.91	227.49
755.24	227.23
755.57	227.01
755.90	226.87
756.22	226.70
756.55	226.48
756.88	226.22
757.20	225.87
757.53	225.60
757.86	225.39
758.19	225.20
758.51	225.11
758.84	224.88
759.17	224.70
759.49	224.56
759.82	224.50
760.15	224.38
760.47	224.27
760.80	223.95
761.13	223.80
761.45	223.56
761.78	223.42
762.11	223.31
762.43	223.20
762.76	223.03
763.08	222.90
763.41	222.73
763.74	222.67
764.06	222.50
764.39	222.36
764.71	222.27
765.04	222.22
765.37	222.10
765.69	221.97
766.02	221.94
766.34	221.82
766.67	221.66
767.00	221.57
767.32	221.48
767.65	221.56
767.97	221.37
768.30	221.28
768.62	221.14
768.95	221.01
769.27	220.87
769.60	220.80
769.92	220.67
770.25	220.65
770.57	220.48
770.90	220.49
771.22	220.38
771.55	220.22
771.87	220.08
772.20	220.00
772.52	220.03
772.85	220.06
773.17	219.95
773.50	219.88
773.82	219.74
774.15	219.61
774.47	219.37
774.80	219.31
775.12	219.22
775.45	219.17
775.77	219.15
776.09	219.07
776.42	219.00
776.74	218.96
777.07	218.87
777.39	218.81
777.72	218.65
778.04	218.58
778.36	218.56
778.69	218.56
779.01	218.50
779.33	218.29
779.66	218.01
779.98	217.94
780.31	217.95
780.63	217.93
780.95	217.88
781.28	217.86
781.60	217.76
781.92	217.70
782.25	217.64
782.57	217.50
782.89	217.40
783.22	217.21
783.54	217.19
783.86	217.09
784.19	217.02
784.51	217.02
784.83	217.00
785.16	216.92
785.48	216.86
785.80	216.72
786.12	216.65
786.45	216.65
786.77	216.58
787.09	216.46
787.42	216.38
787.74	216.32
788.06	216.23
788.38	216.20
788.71	216.15
789.03	216.12
789.35	216.09
789.67	216.05
789.99	216.08
790.32	215.95
790.64	215.95
790.96	216.04
791.28	215.95
791.61	215.89
791.93	215.84
792.25	215.75
792.57	215.87
792.89	215.81
793.21	215.70
793.54	215.71
793.86	215.65
794.18	215.55
794.50	215.44
794.82	215.43
795.14	215.43
795.47	215.40
795.79	215.35
796.11	215.19
796.43	215.16
796.75	215.11
797.07	215.04
797.39	214.92
797.71	214.78
798.04	214.70
798.36	214.63
798.68	214.62
799.00	214.64
799.32	214.52
799.64	214.50
799.96	214.50
800.28	214.46
800.60	214.38
800.92	214.38
801.24	214.37
801.56	214.30
801.89	214.21
802.21	214.21
802.53	214.08
802.85	214.16
803.17	214.23
803.49	214.16
803.81	214.10
804.13	214.07
804.45	214.03
804.77	214.12
805.09	214.05
805.41	214.00
805.73	213.90
806.05	213.81
806.37	213.81
806.69	213.83
807.01	213.75
807.33	213.73
807.65	213.71
807.97	213.85
808.28	213.78
808.60	213.75
808.92	213.72
809.24	213.86
809.56	213.89
809.88	213.79
810.20	213.77
810.52	213.80
810.84	213.79
811.16	213.69
811.48	213.56
811.80	213.67
812.12	213.59
812.43	213.61
812.75	213.64
813.07	213.56
813.39	213.54
813.71	213.52
814.03	213.55
814.35	213.51
814.67	213.33
814.98	213.32
815.30	213.33
815.62	213.25
815.94	213.07
816.26	212.99
816.58	212.92
816.89	212.95
817.21	212.89
817.53	212.90
817.85	212.90
818.17	212.87
818.48	212.71
818.80	212.80
819.12	212.67
819.44	212.60
819.76	212.60
820.07	212.55
820.39	212.59
820.71	212.46
821.03	212.40
821.34	212.32
821.66	212.38
821.98	212.39
822.30	212.42
822.61	212.56
822.93	212.55
823.25	212.49
823.57	212.43
823.88	212.38
824.20	212.35
824.52	212.41
824.83	212.37
825.15	212.43
825.47	212.31
825.79	212.29
826.10	212.22
826.42	212.15
826.74	212.21
827.05	212.13
827.37	212.22
827.69	212.21
828.00	212.27
828.32	212.23
828.64	212.20
828.95	212.25
829.27	212.23
829.58	212.16
829.90	212.18
830.22	212.15
830.53	212.07
830.85	212.02
831.17	211.94
831.48	212.00
831.80	212.00
832.11	212.02
832.43	212.06
832.75	212.15
833.06	212.22
833.38	212.12
833.69	212.16
834.01	212.08
834.32	212.10
834.64	212.10
834.96	212.14
835.27	212.05
835.59	211.99
835.90	211.88
836.22	211.94
836.53	211.90
836.85	211.89
837.16	212.19
837.48	212.26
837.79	212.32
838.11	212.31
838.42	212.29
838.74	212.29
839.05	212.29
839.37	212.23
839.68	212.09
840.00	212.10
840.31	212.07
840.63	212.09
840.94	212.11
841.26	212.05
841.57	212.02
841.88	212.03
842.20	211.99
842.51	211.94
842.83	211.87
843.14	212.06
843.46	212.10
843.77	211.97
844.08	211.90
844.40	211.79
844.71	211.71
845.03	211.70
845.34	211.70
845.65	211.68
845.97	211.65
846.28	211.74
846.60	211.83
846.91	211.85
847.22	211.84
847.54	211.79
847.85	211.76
848.16	211.73
848.48	211.71
848.79	211.76
849.10	211.85
849.42	211.91
849.73	211.70
850.04	211.70
850.36	211.61
850.67	211.65
850.98	211.78
851.30	211.78
851.61	211.74
851.92	211.72
852.23	211.81
852.55	211.85
852.86	211.86
853.17	211.78
853.49	211.76
853.80	211.76
854.11	211.78
854.42	211.80
854.74	211.81
855.05	211.87
855.36	211.87
855.67	211.85
855.99	211.77
856.30	211.97
856.61	211.97
856.92	211.97
857.23	211.91
857.55	211.84
857.86	211.85
858.17	211.91
858.48	211.86
858.79	211.79
859.11	211.81
859.42	211.79
859.73	211.76
860.04	211.82
860.35	211.83
860.66	211.83
860.98	211.79
861.29	211.82
861.60	211.76
861.91	211.73
862.22	211.74
862.53	211.72
862.84	211.52
863.16	211.60
863.47	211.58
863.78	211.62
864.09	211.60
864.40	211.63
864.71	211.60
865.02	211.61
865.33	211.64
865.64	211.59
865.95	211.54
866.27	211.67
866.58	211.58
866.89	211.67
867.20	211.63
867.51	211.69
867.82	211.66
868.13	211.68
868.44	211.66
868.75	211.65
869.06	211.72
869.37	211.67
869.68	211.49
869.99	211.59
870.30	211.62
870.61	211.69
870.92	211.66
871.23	211.68
871.54	211.76
871.85	211.71
872.16	211.70
872.47	211.69
872.78	211.58
873.09	211.65
873.40	211.53
873.71	211.59
874.02	211.56
874.33	211.49
874.64	211.46
874.95	211.48
875.26	211.51
875.56	211.49
875.87	211.60
876.18	211.67
876.49	211.73
876.80	211.71
877.11	211.69
877.42	211.78
877.73	211.79
878.04	211.76
878.35	211.84
878.66	211.88
878.96	211.82
879.27	211.83
879.58	211.78
879.89	211.76
880.20	211.80
880.51	211.75
880.82	211.84
881.12	211.88
881.43	211.88
881.74	211.78
882.05	211.72
882.36	211.65
882.67	211.69
882.97	211.57
883.28	211.57
883.59	211.54
883.90	211.49
884.21	211.54
884.51	211.53
884.82	211.44
885.13	211.40
885.44	211.50
885.74	211.45
886.05	211.43
886.36	211.48
886.67	211.34
886.98	211.45
887.28	211.49
887.59	211.46
887.90	211.43
888.20	211.51
888.51	211.57
888.82	211.54
889.13	211.55
889.43	211.62
889.74	211.60
890.05	211.56
890.35	211.55
890.66	211.44
890.97	211.39
891.28	211.30
891.58	211.29
891.89	211.20
892.20	211.24
892.50	211.25
892.81	211.23
893.12	211.31
893.42	211.27
893.73	211.18
894.04	211.20
894.34	211.21
894.65	211.10
894.95	211.03
895.26	211.12
895.57	211.16
895.87	211.01
896.18	211.00
896.48	211.03
896.79	210.98
897.10	211.01
897.40	211.05
897.71	211.12
898.01	211.14
898.32	211.23
898.63	211.21
898.93	211.18
899.24	211.19
899.54	211.16
899.85	211.13
900.15	211.17
900.46	211.17
900.76	211.14
901.07	211.11
901.38	211.20
901.68	211.20
901.99	211.12
902.29	211.17
902.60	211.17
902.90	211.16
903.21	211.19
903.51	211.16
903.82	211.21
904.12	211.26
904.43	211.23
904.73	211.19
905.03	211.14
905.34	211.27
905.64	211.25
905.95	211.25
906.25	211.27
906.56	211.20
906.86	211.18
907.17	211.26
907.47	211.33
907.77	211.31
908.08	211.24
908.38	211.18
908.69	211.17
908.99	211.20
909.30	211.22
909.60	211.18
909.90	211.22
910.21	211.15
910.51	211.10
910.81	211.15
911.12	211.16
911.42	211.21
911.73	211.05
912.03	211.05
912.33	211.11
912.64	211.05
912.94	211.05
913.24	211.03
913.55	210.96
913.85	210.96
914.15	210.93
914.46	210.96
914.76	211.00
915.06	211.02
915.37	211.04
915.67	211.04
915.97	211.11
916.27	211.06
916.58	211.08
916.88	211.07
917.18	211.05
917.49	211.13
917.79	211.14
918.09	211.21
918.39	211.25
918.70	211.24
919.00	211.29
919.30	211.41
919.60	211.47
919.91	211.41
920.21	211.40
920.51	211.40
920.81	211.43
921.12	211.40
921.42	211.37
921.72	211.39
922.02	211.45
922.32	211.46
922.63	211.43
922.93	211.46
923.23	211.50
923.53	211.55
923.83	211.46
924.13	211.47
924.44	211.45
924.74	211.46
925.04	211.47
925.34	211.43
925.64	211.32
925.94	211.29
926.24	211.42
926.55	211.44
926.85	211.42
927.15	211.39
927.45	211.41
927.75	211.35
928.05	211.29
928.35	211.19
928.65	211.22
928.95	211.27
929.26	211.30
929.56	211.32
929.86	211.23
930.16	211.19
930.46	211.17
930.76	211.18
931.06	211.08
931.36	211.01
931.66	211.03
931.96	211.07
932.26	211.08
932.56	210.99
932.86	210.96
933.16	211.01
933.46	210.98
933.76	210.96
934.06	211.06
934.36	211.15
934.66	211.19
934.96	211.13
935.26	211.16
935.56	211.17
935.86	211.10
936.16	211.09
936.46	211.09
936.76	211.07
937.06	210.98
937.36	211.04
937.66	210.99
937.96	211.01
938.26	210.91
938.56	210.84
938.86	210.92
939.16	210.98
939.46	210.96
939.76	211.00
940.06	211.10
940.35	211.07
940.65	210.98
940.95	211.04
941.25	210.95
941.55	210.88
941.85	210.90
942.15	210.90
942.45	211.00
942.75	211.02
943.04	211.04
943.34	211.08
943.64	211.03
943.94	211.06
944.24	211.10
944.54	211.18
944.84	211.19
945.13	211.08
945.43	211.10
945.73	211.11
946.03	211.04
946.33	210.90
946.62	210.90
946.92	210.91
947.22	210.92
947.52	210.96
947.82	211.02
948.11	210.93
948.41	211.00
948.71	210.95
949.01	210.97
949.31	210.99
949.60	211.00
949.90	211.05
950.20	211.10
950.50	211.05
950.79	211.05
951.09	211.09
951.39	211.12
951.69	211.07
951.98	211.10
952.28	211.15
952.58	211.25
952.87	211.22
953.17	211.20
953.47	211.09
953.76	211.11
954.06	211.11
954.36	211.06
954.66	211.08
954.95	211.10
955.25	211.11
955.55	211.10
955.84	211.09
956.14	211.12
956.44	211.11
956.73	211.07
957.03	211.12
957.32	211.15
957.62	211.14
957.92	211.11
958.21	211.07
958.51	211.32
958.81	211.32
959.10	211.34
959.40	211.37
959.69	211.44
959.99	211.52
960.29	211.46
960.58	211.45
960.88	211.47
961.17	211.50
961.47	211.51
961.76	211.44
962.06	211.51
962.36	211.50
962.65	211.55
962.95	211.54
963.24	211.50
963.54	211.45
963.83	211.50
964.13	211.50
964.42	211.51
964.72	211.31
965.01	211.30
965.31	211.34
965.60	211.35
965.90	211.39
966.19	211.30
966.49	211.34
966.78	211.36
967.08	211.32
967.37	211.20
967.67	211.23
967.96	211.30
968.26	211.24
968.55	211.25
968.85	211.25
969.14	211.30
969.43	211.29
969.73	211.29
970.02	211.23
970.32	211.28
970.61	211.21
970.91	211.13
971.20	211.08
971.49	210.99
971.79	211.02
972.08	210.97
972.38	210.94
972.67	210.96
972.96	211.00
973.26	210.90
973.55	211.00
973.85	210.92
974.14	210.93
974.43	210.96
974.73	210.87
975.02	210.79
975.31	210.74
975.61	210.76
975.90	210.74
976.19	210.77
976.49	210.76
976.78	210.78
977.07	210.82
977.37	210.80
977.66	210.89
977.95	210.83
978.24	210.80
978.54	210.83
978.83	210.76
979.12	210.70
979.42	210.74
979.71	210.71
980.00	210.77
980.29	210.82
980.59	210.71
980.88	210.80
981.17	210.85
981.46	210.90
981.76	210.87
982.05	210.88
982.34	210.83
982.63	210.82
982.93	210.81
983.22	210.86
983.51	210.89
983.80	210.87
984.09	210.92
984.39	210.89
984.68	210.82
984.97	210.84
985.26	210.82
985.55	210.89
985.85	210.85
986.14	210.85
986.43	210.81
986.72	210.83
987.01	210.72
987.30	210.65
987.59	210.60
987.89	210.65
988.18	210.64
988.47	210.68
988.76	210.59
989.05	210.59
989.34	210.55
989.63	210.60
989.92	210.53
990.22	210.50
990.51	210.50
990.80	210.64
991.09	210.72
991.38	210.75
991.67	210.70
991.96	210.76
992.25	210.75
992.54	210.73
992.83	210.84
993.12	210.85
993.41	210.99
993.70	211.05
993.99	211.03
994.28	211.08
994.58	211.07
994.87	211.14
995.16	211.09
995.45	211.12
995.74	211.07
996.03	211.17
996.32	211.16
996.61	211.23
996.90	211.14
997.19	211.01
997.48	211.02
997.77	211.02
998.06	211.00
998.34	210.99
998.63	211.00
998.92	211.00
999.21	211.07
999.50	211.02
999.79	210.95
1000.08	210.94
1000.37	210.96
1000.66	210.97
1000.95	210.97
1001.24	211.01
1001.53	210.96
1001.82	210.94
1002.11	210.82
1002.40	210.86
1002.68	210.86
1002.97	211.01
1003.26	211.10
1003.55	211.15
1003.84	211.14
1004.13	211.12
1004.42	211.07
1004.71	211.05
1004.99	210.94
1005.28	211.00
1005.57	210.97
1005.86	210.92
1006.15	210.89
1006.44	210.85
1006.72	210.82
1007.01	210.78
1007.30	210.78
1007.59	210.75
1007.88	210.75
1008.17	210.79
1008.45	210.75
1008.74	210.75
1009.03	210.56
1009.32	210.52
1009.60	210.42
1009.89	210.46
1010.18	210.45
1010.47	210.41
1010.76	210.47
1011.04	210.50
1011.33	210.49
1011.62	210.51
1011.91	210.55
1012.19	210.54
1012.48	210.54
1012.77	210.60
1013.05	210.66
1013.34	210.72
1013.63	210.76
1013.92	210.78
1014.20	210.80
1014.49	210.85
1014.78	210.83
1015.06	210.82
1015.35	210.83
1015.64	210.93
1015.92	211.01
1016.21	211.08
1016.50	211.11
1016.78	211.03
1017.07	211.05
1017.36	211.00
1017.64	210.93
1017.93	211.00
1018.22	210.96
1018.50	210.89
1018.79	210.87
1019.08	210.80
1019.36	210.77
1019.65	210.74
1019.93	210.79
1020.22	210.85
1020.51	210.93
1020.79	210.91
1021.08	209.65
1021.36	209.15
1021.65	210.80
1021.94	210.30
1022.22	210.95
1022.51	210.05
1022.79	211.70
1023.08	211.85
1023.36	213.70
1023.65	210.65
>>>>>End Processed Spectral Data<<<<<
