SpectraSuite Data File
++++++++++++++++++++++++++++++++++++
Date: Mon Feb 25 17:32:55 EST 2013
User: group
Dark Spectrum Present: No
Reference Spectrum Present: No
Number of Sampled Component Spectra: 1
Spectrometers: USB2E7196
Integration Time (usec): 52000 (USB2E7196)
Spectra Averaged: 20 (USB2E7196)
Boxcar Smoothing: 10 (USB2E7196)
Correct for Electrical Dark: No (USB2E7196)
Strobe/Lamp Enabled: No (USB2E7196)
Correct for Detector Non-linearity: No (USB2E7196)
Correct for Stray Light: No (USB2E7196)
Number of Pixels in Processed Spectrum: 2048
>>>>>Begin Processed Spectral Data<<<<<
339.09	0.00
339.48	199.25
339.86	200.95
340.24	202.35
340.63	202.65
341.01	207.25
341.39	206.30
341.78	206.90
342.16	209.70
342.54	208.25
342.93	198.43
343.31	208.48
343.69	209.00
344.07	209.42
344.46	209.88
344.84	210.36
345.22	210.56
345.60	210.83
345.99	211.04
346.37	211.17
346.75	211.30
347.13	211.50
347.52	211.55
347.90	211.73
348.28	211.80
348.66	211.91
349.05	211.95
349.43	212.01
349.81	212.13
350.19	212.23
350.57	212.32
350.96	212.42
351.34	212.53
351.72	212.65
352.10	212.79
352.48	212.84
352.87	212.88
353.25	212.94
353.63	212.98
354.01	213.11
354.39	213.17
354.77	213.30
355.15	213.37
355.54	213.45
355.92	213.45
356.30	213.51
356.68	213.66
357.06	213.68
357.44	213.70
357.82	213.80
358.20	213.92
358.58	213.91
358.97	213.95
359.35	213.99
359.73	214.11
360.11	214.18
360.49	214.23
360.87	214.21
361.25	214.35
361.63	214.45
362.01	214.45
362.39	214.45
362.77	214.48
363.15	214.45
363.53	214.41
363.91	214.39
364.29	214.48
364.67	214.33
365.05	214.32
365.43	214.34
365.81	214.24
366.19	214.26
366.57	214.38
366.95	214.37
367.33	214.40
367.71	214.33
368.09	214.29
368.47	214.29
368.85	214.32
369.23	214.32
369.61	214.22
369.99	214.27
370.37	214.31
370.75	214.37
371.13	214.29
371.51	214.20
371.89	214.15
372.27	213.97
372.65	214.02
373.03	213.95
373.41	213.85
373.78	213.82
374.16	213.69
374.54	213.56
374.92	213.49
375.30	213.36
375.68	213.22
376.06	213.22
376.44	213.14
376.82	213.11
377.19	212.99
377.57	212.94
377.95	212.76
378.33	212.68
378.71	212.50
379.09	212.45
379.47	212.50
379.84	212.50
380.22	212.48
380.60	212.31
380.98	212.33
381.36	212.28
381.73	212.22
382.11	212.15
382.49	212.12
382.87	212.05
383.25	212.02
383.62	212.24
384.00	212.16
384.38	212.08
384.76	212.04
385.13	212.07
385.51	212.02
385.89	212.03
386.27	211.93
386.64	211.93
387.02	211.89
387.40	211.79
387.78	211.77
388.15	211.80
388.53	211.72
388.91	211.61
389.29	211.48
389.66	211.49
390.04	211.46
390.42	211.46
390.79	211.45
391.17	211.42
391.55	211.27
391.92	211.25
392.30	211.31
392.68	211.23
393.05	211.15
393.43	211.19
393.81	211.19
394.18	211.21
394.56	211.20
394.94	211.23
395.31	211.24
395.69	211.24
396.06	211.20
396.44	211.25
396.82	211.35
397.19	211.58
397.57	211.58
397.95	211.67
398.32	211.60
398.70	211.63
399.07	211.70
399.45	211.61
399.82	211.59
400.20	211.65
400.58	211.67
400.95	211.68
401.33	211.67
401.70	211.80
402.08	211.85
402.45	211.91
402.83	212.00
403.20	212.11
403.58	212.20
403.95	212.28
404.33	212.42
404.71	212.49
405.08	212.69
405.46	212.81
405.83	212.93
406.21	213.14
406.58	213.31
406.96	213.50
407.33	213.76
407.70	214.04
408.08	214.31
408.45	214.61
408.83	214.91
409.20	215.15
409.58	215.36
409.95	215.73
410.33	215.96
410.70	216.23
411.08	216.64
411.45	217.03
411.82	217.48
412.20	217.95
412.57	218.43
412.95	218.70
413.32	219.21
413.69	219.70
414.07	220.25
414.44	220.96
414.82	221.57
415.19	222.29
415.56	222.98
415.94	223.65
416.31	224.50
416.68	225.34
417.06	226.41
417.43	227.41
417.81	228.49
418.18	229.70
418.55	231.00
418.93	232.24
419.30	233.54
419.67	234.91
420.04	236.30
420.42	237.85
420.79	239.64
421.16	241.36
421.54	243.16
421.91	245.00
422.28	246.84
422.66	248.87
423.03	251.00
423.40	253.21
423.77	255.46
424.15	257.64
424.52	260.04
424.89	262.50
425.26	264.98
425.64	267.30
426.01	269.90
426.38	272.49
426.75	275.21
427.13	277.98
427.50	280.94
427.87	284.09
428.24	287.07
428.61	290.04
428.99	293.25
429.36	296.75
429.73	300.21
430.10	303.72
430.47	307.25
430.85	310.84
431.22	314.69
431.59	318.85
431.96	322.95
432.33	327.28
432.70	331.50
433.08	336.26
433.45	340.90
433.82	345.53
434.19	350.56
434.56	355.50
434.93	360.31
435.30	365.05
435.68	370.23
436.05	375.51
436.42	380.61
436.79	385.44
437.16	390.50
437.53	395.80
437.90	400.95
438.27	406.13
438.64	411.43
439.01	416.29
439.38	420.59
439.75	424.74
440.13	429.55
440.50	434.05
440.87	437.84
441.24	441.68
441.61	445.79
441.98	448.94
442.35	452.48
442.72	456.08
443.09	459.51
443.46	461.59
443.83	463.00
444.20	464.28
444.57	465.89
444.94	466.78
445.31	467.56
445.68	468.33
446.05	468.52
446.42	468.00
446.79	467.24
447.16	466.47
447.53	465.90
447.90	463.68
448.27	461.66
448.64	458.80
449.01	456.60
449.37	453.01
449.74	449.53
450.11	445.48
450.48	440.95
450.85	436.38
451.22	432.48
451.59	428.67
451.96	425.00
452.33	420.35
452.70	415.91
453.07	410.71
453.43	405.53
453.80	400.43
454.17	395.50
454.54	391.08
454.91	386.22
455.28	381.48
455.65	377.15
456.02	372.86
456.38	369.05
456.75	364.50
457.12	360.73
457.49	356.92
457.86	353.18
458.23	350.09
458.59	346.73
458.96	343.16
459.33	340.01
459.70	336.85
460.07	334.25
460.43	331.33
460.80	328.72
461.17	326.39
461.54	324.05
461.91	321.77
462.27	319.33
462.64	317.28
463.01	315.11
463.38	312.95
463.74	310.66
464.11	308.87
464.48	307.16
464.85	305.19
465.21	303.81
465.58	302.33
465.95	300.50
466.32	298.98
466.68	297.58
467.05	296.24
467.42	294.84
467.78	293.36
468.15	292.02
468.52	291.01
468.88	289.72
469.25	288.59
469.62	287.73
469.98	286.79
470.35	285.89
470.72	284.90
471.08	284.04
471.45	283.24
471.82	282.45
472.18	281.65
472.55	281.18
472.92	280.40
473.28	279.90
473.65	279.41
474.02	278.83
474.38	278.42
474.75	277.96
475.11	277.55
475.48	277.33
475.85	277.15
476.21	276.94
476.58	276.79
476.94	276.82
477.31	276.69
477.67	276.54
478.04	276.58
478.41	276.78
478.77	276.99
479.14	277.11
479.50	277.41
479.87	277.79
480.23	278.20
480.60	278.62
480.96	279.01
481.33	279.67
481.69	280.39
482.06	280.98
482.42	281.63
482.79	282.43
483.15	283.38
483.52	284.38
483.88	285.32
484.25	286.31
484.61	287.33
484.98	288.45
485.34	289.81
485.71	291.24
486.07	292.56
486.44	294.00
486.80	295.60
487.17	297.14
487.53	298.87
487.90	300.58
488.26	302.59
488.62	304.64
488.99	306.58
489.35	308.67
489.72	310.94
490.08	313.46
490.44	316.03
490.81	318.60
491.17	321.32
491.54	324.18
491.90	327.17
492.26	330.34
492.63	333.77
492.99	337.17
493.36	340.68
493.72	344.60
494.08	348.49
494.45	352.77
494.81	357.26
495.17	361.70
495.54	366.63
495.90	371.61
496.26	376.83
496.63	382.34
496.99	388.10
497.35	394.24
497.72	400.42
498.08	406.79
498.44	413.54
498.80	420.69
499.17	428.13
499.53	435.76
499.89	443.67
500.26	451.59
500.62	459.91
500.98	468.85
501.34	477.87
501.71	487.45
502.07	497.06
502.43	507.05
502.79	517.46
503.16	528.04
503.52	539.06
503.88	550.32
504.24	561.77
504.60	573.67
504.97	585.89
505.33	598.37
505.69	611.52
506.05	624.88
506.41	638.37
506.78	652.18
507.14	666.56
507.50	681.05
507.86	696.02
508.22	711.55
508.59	726.94
508.95	742.97
509.31	759.22
509.67	776.01
510.03	793.02
510.39	810.55
510.75	828.41
511.12	846.18
511.48	864.33
511.84	883.10
512.20	901.77
512.56	920.86
512.92	940.46
513.28	960.11
513.64	979.94
514.00	1000.03
514.37	1020.32
514.73	1040.80
515.09	1061.72
515.45	1082.58
515.81	1103.47
516.17	1124.64
516.53	1146.19
516.89	1167.56
517.25	1189.02
517.61	1210.49
517.97	1231.94
518.33	1253.44
518.69	1275.22
519.05	1297.52
519.41	1319.64
519.77	1342.11
520.13	1364.13
520.49	1386.04
520.85	1408.49
521.21	1430.85
521.57	1453.44
521.93	1475.72
522.29	1498.68
522.65	1521.28
523.01	1543.81
523.37	1565.97
523.73	1588.31
524.09	1610.46
524.45	1632.70
524.81	1655.02
525.17	1677.65
525.53	1700.18
525.89	1722.74
526.25	1744.92
526.61	1766.29
526.97	1788.10
527.33	1809.39
527.68	1831.17
528.04	1852.40
528.40	1872.92
528.76	1893.74
529.12	1914.47
529.48	1936.04
529.84	1956.18
530.20	1976.39
530.56	1996.91
530.91	2017.72
531.27	2037.99
531.63	2057.77
531.99	2077.85
532.35	2097.23
532.71	2116.15
533.07	2135.59
533.42	2153.78
533.78	2172.57
534.14	2190.95
534.50	2208.05
534.86	2226.17
535.21	2243.04
535.57	2261.03
535.93	2278.38
536.29	2295.07
536.65	2311.75
537.00	2326.83
537.36	2342.14
537.72	2357.38
538.08	2372.38
538.44	2387.51
538.79	2403.23
539.15	2418.43
539.51	2432.78
539.87	2448.00
540.22	2462.39
540.58	2477.33
540.94	2491.94
541.29	2505.13
541.65	2517.19
542.01	2530.42
542.37	2542.15
542.72	2554.20
543.08	2564.75
543.44	2576.49
543.79	2587.00
544.15	2597.10
544.51	2608.30
544.87	2619.07
545.22	2628.28
545.58	2637.16
545.94	2644.40
546.29	2650.63
546.65	2656.79
547.01	2663.20
547.36	2668.87
547.72	2674.35
548.07	2678.22
548.43	2682.08
548.79	2685.79
549.14	2690.70
549.50	2694.88
549.86	2698.71
550.21	2702.97
550.57	2707.16
550.92	2709.66
551.28	2712.16
551.64	2714.86
551.99	2717.56
552.35	2719.75
552.70	2722.44
553.06	2724.96
553.41	2727.91
553.77	2730.65
554.13	2732.88
554.48	2734.91
554.84	2735.92
555.19	2736.47
555.55	2736.85
555.90	2737.31
556.26	2737.78
556.61	2737.73
556.97	2736.38
557.32	2736.23
557.68	2734.20
558.03	2733.26
558.39	2732.16
558.74	2731.79
559.10	2730.72
559.45	2728.70
559.81	2727.03
560.16	2724.55
560.52	2721.95
560.87	2719.45
561.23	2715.89
561.58	2713.20
561.94	2709.64
562.29	2706.02
562.64	2703.81
563.00	2701.43
563.35	2698.91
563.71	2697.14
564.06	2694.99
564.42	2693.29
564.77	2690.90
565.12	2689.30
565.48	2685.64
565.83	2682.20
566.19	2678.95
566.54	2674.53
566.89	2670.63
567.25	2666.86
567.60	2663.51
567.96	2659.75
568.31	2655.98
568.66	2652.01
569.02	2647.48
569.37	2642.61
569.72	2639.00
570.08	2633.56
570.43	2628.11
570.78	2622.44
571.14	2616.17
571.49	2609.36
571.84	2603.40
572.20	2596.33
572.55	2589.94
572.90	2583.37
573.26	2576.58
573.61	2569.36
573.96	2562.84
574.31	2554.80
574.67	2546.76
575.02	2538.07
575.37	2529.65
575.72	2520.88
576.08	2513.54
576.43	2505.14
576.78	2497.10
577.13	2488.95
577.49	2480.99
577.84	2472.87
578.19	2465.40
578.54	2457.79
578.90	2451.11
579.25	2442.29
579.60	2433.48
579.95	2424.11
580.30	2415.64
580.66	2407.37
581.01	2398.31
581.36	2388.87
581.71	2380.71
582.06	2372.21
582.42	2364.33
582.77	2355.37
583.12	2346.47
583.47	2337.82
583.82	2329.50
584.17	2320.60
584.53	2311.69
584.88	2302.72
585.23	2293.66
585.58	2283.89
585.93	2274.47
586.28	2264.91
586.63	2256.19
586.98	2247.81
587.34	2239.42
587.69	2230.65
588.04	2221.62
588.39	2213.48
588.74	2204.50
589.09	2195.44
589.44	2185.81
589.79	2177.15
590.14	2169.48
590.49	2160.95
590.84	2151.65
591.19	2143.19
591.54	2134.55
591.89	2124.26
592.25	2115.26
592.60	2105.90
592.95	2096.60
593.30	2087.04
593.65	2077.13
594.00	2067.39
594.35	2059.31
594.70	2049.86
595.05	2040.99
595.40	2032.00
595.75	2022.32
596.10	2014.30
596.45	2005.95
596.80	1998.52
597.15	1990.14
597.50	1980.59
597.85	1972.20
598.19	1963.61
598.54	1955.15
598.89	1947.04
599.24	1940.48
599.59	1933.01
599.94	1925.94
600.29	1918.12
600.64	1910.15
600.99	1902.15
601.34	1894.87
601.69	1885.90
602.04	1877.77
602.39	1869.55
602.74	1861.72
603.08	1855.21
603.43	1847.99
603.78	1839.86
604.13	1831.40
604.48	1823.63
604.83	1817.19
605.18	1810.00
605.53	1802.71
605.87	1795.12
606.22	1788.24
606.57	1780.29
606.92	1772.08
607.27	1763.85
607.62	1756.91
607.96	1749.98
608.31	1743.70
608.66	1736.11
609.01	1728.57
609.36	1720.98
609.70	1713.25
610.05	1705.73
610.40	1697.20
610.75	1688.73
611.10	1681.35
611.44	1672.46
611.79	1663.01
612.14	1653.07
612.49	1643.23
612.83	1634.26
613.18	1624.59
613.53	1615.00
613.88	1605.22
614.22	1596.44
614.57	1587.21
614.92	1577.70
615.27	1568.49
615.61	1558.77
615.96	1549.75
616.31	1541.35
616.65	1533.37
617.00	1525.26
617.35	1516.65
617.70	1507.99
618.04	1498.91
618.39	1489.44
618.74	1481.23
619.08	1472.93
619.43	1464.82
619.78	1457.24
620.12	1449.16
620.47	1441.50
620.82	1433.11
621.16	1424.97
621.51	1416.59
621.85	1408.41
622.20	1400.10
622.55	1391.76
622.89	1383.41
623.24	1375.45
623.59	1366.62
623.93	1357.94
624.28	1349.58
624.62	1341.37
624.97	1333.29
625.32	1325.53
625.66	1318.38
626.01	1310.93
626.35	1303.50
626.70	1295.84
627.04	1288.26
627.39	1280.53
627.73	1272.77
628.08	1265.92
628.43	1258.32
628.77	1250.79
629.12	1243.18
629.46	1236.55
629.81	1229.25
630.15	1222.01
630.50	1214.66
630.84	1207.45
631.19	1200.45
631.53	1193.47
631.88	1185.99
632.22	1178.54
632.57	1171.52
632.91	1163.93
633.26	1156.57
633.60	1149.55
633.95	1142.87
634.29	1135.55
634.64	1128.99
634.98	1122.08
635.32	1114.74
635.67	1108.64
636.01	1102.04
636.36	1095.47
636.70	1088.58
637.05	1082.11
637.39	1075.75
637.73	1069.34
638.08	1063.48
638.42	1057.46
638.77	1050.89
639.11	1044.60
639.45	1038.42
639.80	1031.96
640.14	1025.45
640.49	1019.26
640.83	1013.19
641.17	1006.76
641.52	1001.06
641.86	994.55
642.20	988.38
642.55	981.75
642.89	975.10
643.23	968.85
643.58	963.06
643.92	956.57
644.26	950.32
644.61	944.24
644.95	938.35
645.29	932.06
645.64	925.32
645.98	919.30
646.32	913.29
646.66	907.00
647.01	901.02
647.35	895.36
647.69	889.12
648.04	883.10
648.38	877.15
648.72	871.03
649.06	864.99
649.41	859.00
649.75	853.38
650.09	847.54
650.43	841.74
650.78	835.45
651.12	829.51
651.46	823.75
651.80	818.06
652.14	812.01
652.49	805.88
652.83	800.27
653.17	794.10
653.51	788.06
653.85	782.65
654.20	776.80
654.54	770.85
654.88	765.36
655.22	759.58
655.56	753.64
655.90	747.58
656.25	741.81
656.59	736.18
656.93	730.92
657.27	725.76
657.61	720.17
657.95	715.11
658.29	709.93
658.64	704.66
658.98	699.15
659.32	693.71
659.66	688.78
660.00	683.44
660.34	678.32
660.68	673.32
661.02	668.12
661.36	663.48
661.70	658.62
662.05	653.75
662.39	649.35
662.73	645.16
663.07	640.96
663.41	636.55
663.75	632.04
664.09	627.35
664.43	622.50
664.77	618.21
665.11	613.81
665.45	609.50
665.79	605.21
666.13	600.77
666.47	596.58
666.81	592.48
667.15	588.51
667.49	584.62
667.83	580.72
668.17	576.88
668.51	572.94
668.85	569.34
669.19	565.69
669.53	561.58
669.87	557.40
670.21	553.62
670.55	549.79
670.89	546.40
671.23	542.91
671.57	539.53
671.91	535.91
672.25	532.21
672.58	528.64
672.92	525.12
673.26	522.05
673.60	518.78
673.94	515.20
674.28	511.84
674.62	508.68
674.96	505.50
675.30	502.30
675.64	499.18
675.97	495.90
676.31	492.85
676.65	489.92
676.99	487.26
677.33	484.16
677.67	481.34
678.01	478.21
678.34	475.24
678.68	472.39
679.02	469.53
679.36	466.72
679.70	464.07
680.04	461.16
680.37	458.24
680.71	455.48
681.05	452.95
681.39	450.35
681.73	447.65
682.06	445.17
682.40	442.64
682.74	439.97
683.08	437.32
683.42	434.58
683.75	432.01
684.09	429.33
684.43	426.87
684.77	424.29
685.10	421.85
685.44	419.35
685.78	416.96
686.12	414.65
686.45	412.35
686.79	409.91
687.13	407.84
687.46	405.65
687.80	403.45
688.14	401.01
688.48	398.81
688.81	396.66
689.15	394.36
689.49	392.05
689.82	389.83
690.16	387.59
690.50	385.31
690.83	383.05
691.17	380.87
691.51	378.67
691.84	376.60
692.18	374.58
692.52	372.68
692.85	370.75
693.19	368.88
693.52	366.88
693.86	364.98
694.20	363.02
694.53	361.09
694.87	359.15
695.21	357.42
695.54	355.57
695.88	353.68
696.21	351.83
696.55	350.14
696.88	348.42
697.22	346.73
697.56	345.32
697.89	343.79
698.23	342.19
698.56	340.60
698.90	339.17
699.23	337.53
699.57	335.94
699.90	334.30
700.24	332.59
700.58	330.93
700.91	329.48
701.25	328.03
701.58	326.67
701.92	325.22
702.25	323.84
702.59	322.45
702.92	321.07
703.26	319.72
703.59	318.40
703.93	317.23
704.26	315.98
704.60	314.67
704.93	313.34
705.26	312.12
705.60	310.98
705.93	309.64
706.27	308.43
706.60	307.30
706.94	306.23
707.27	305.10
707.61	304.08
707.94	302.88
708.27	301.65
708.61	300.42
708.94	299.34
709.28	298.08
709.61	296.97
709.94	295.93
710.28	294.88
710.61	293.80
710.95	292.65
711.28	291.80
711.61	290.76
711.95	289.68
712.28	288.71
712.61	287.67
712.95	286.73
713.28	285.88
713.61	284.88
713.95	283.85
714.28	282.91
714.61	281.97
714.95	281.09
715.28	280.14
715.61	279.24
715.95	278.25
716.28	277.40
716.61	276.62
716.95	275.71
717.28	274.93
717.61	274.21
717.94	273.40
718.28	272.48
718.61	271.73
718.94	271.04
719.27	270.24
719.61	269.53
719.94	268.85
720.27	268.03
720.60	267.35
720.94	266.60
721.27	265.94
721.60	265.45
721.93	264.81
722.27	264.25
722.60	263.71
722.93	263.23
723.26	262.71
723.59	262.00
723.93	261.57
724.26	260.91
724.59	260.33
724.92	259.79
725.25	259.24
725.59	258.64
725.92	258.06
726.25	257.55
726.58	257.06
726.91	256.50
727.24	256.02
727.57	255.48
727.91	254.93
728.24	254.40
728.57	253.81
728.90	253.32
729.23	252.83
729.56	252.31
729.89	251.75
730.22	251.20
730.55	250.76
730.89	250.18
731.22	249.78
731.55	249.30
731.88	248.82
732.21	248.34
732.54	247.92
732.87	247.59
733.20	247.10
733.53	246.61
733.86	246.24
734.19	245.80
734.52	245.44
734.85	245.26
735.18	244.88
735.51	244.47
735.84	244.06
736.17	243.71
736.50	243.33
736.83	243.25
737.16	242.97
737.49	242.65
737.82	242.28
738.15	241.85
738.48	241.51
738.81	241.21
739.14	240.87
739.47	240.55
739.80	240.19
740.13	239.88
740.46	239.54
740.79	239.14
741.12	238.81
741.45	238.42
741.78	237.94
742.11	237.70
742.44	237.41
742.77	237.18
743.10	236.84
743.43	236.56
743.75	236.05
744.08	235.98
744.41	235.71
744.74	235.46
745.07	235.25
745.40	234.98
745.73	234.79
746.06	234.49
746.39	234.24
746.71	234.00
747.04	233.81
747.37	233.62
747.70	233.41
748.03	233.20
748.36	232.96
748.68	232.72
749.01	232.36
749.34	232.10
749.67	231.88
750.00	231.65
750.33	231.50
750.65	231.29
750.98	230.82
751.31	230.62
751.64	230.38
751.97	230.20
752.29	229.91
752.62	229.57
752.95	229.34
753.28	229.06
753.60	228.72
753.93	228.49
754.26	228.23
754.59	227.95
754.91	227.68
755.24	227.49
755.57	227.31
755.90	227.16
756.22	226.96
756.55	226.65
756.88	226.46
757.20	226.14
757.53	225.84
757.86	225.59
758.19	225.35
758.51	225.12
758.84	224.86
759.17	224.73
759.49	224.54
759.82	224.43
760.15	224.27
760.47	224.14
760.80	223.91
761.13	223.77
761.45	223.63
761.78	223.55
762.11	223.43
762.43	223.28
762.76	223.11
763.08	222.97
763.41	222.87
763.74	222.75
764.06	222.59
764.39	222.55
764.71	222.50
765.04	222.31
765.37	222.25
765.69	222.16
766.02	221.96
766.34	221.87
766.67	221.71
767.00	221.61
767.32	221.57
767.65	221.63
767.97	221.47
768.30	221.35
768.62	221.17
768.95	221.02
769.27	220.88
769.60	220.87
769.92	220.71
770.25	220.50
770.57	220.37
770.90	220.23
771.22	220.06
771.55	219.93
771.87	219.82
772.20	219.70
772.52	219.70
772.85	219.86
773.17	219.76
773.50	219.69
773.82	219.56
774.15	219.37
774.47	219.18
774.80	219.07
775.12	218.97
775.45	218.89
775.77	218.77
776.09	218.77
776.42	218.66
776.74	218.67
777.07	218.65
777.39	218.63
777.72	218.59
778.04	218.54
778.36	218.45
778.69	218.42
779.01	218.33
779.33	218.11
779.66	217.80
779.98	217.69
780.31	217.60
780.63	217.67
780.95	217.70
781.28	217.61
781.60	217.60
781.92	217.56
782.25	217.45
782.57	217.41
782.89	217.31
783.22	217.19
783.54	217.01
783.86	217.00
784.19	216.84
784.51	216.84
784.83	216.77
785.16	216.70
785.48	216.70
785.80	216.68
786.12	216.69
786.45	216.74
786.77	216.73
787.09	216.72
787.42	216.58
787.74	216.55
788.06	216.49
788.38	216.49
788.71	216.38
789.03	216.38
789.35	216.35
789.67	216.28
789.99	216.28
790.32	216.29
790.64	216.20
790.96	216.33
791.28	216.16
791.61	216.04
791.93	216.02
792.25	215.88
792.57	215.90
792.89	215.83
793.21	215.75
793.54	215.68
793.86	215.55
794.18	215.50
794.50	215.41
794.82	215.39
795.14	215.26
795.47	215.30
795.79	215.30
796.11	215.20
796.43	215.09
796.75	215.08
797.07	215.05
797.39	215.13
797.71	215.05
798.04	215.09
798.36	215.08
798.68	215.02
799.00	214.99
799.32	214.88
799.64	214.85
799.96	214.77
800.28	214.78
800.60	214.79
800.92	214.78
801.24	214.72
801.56	214.63
801.89	214.66
802.21	214.59
802.53	214.52
802.85	214.58
803.17	214.69
803.49	214.53
803.81	214.54
804.13	214.43
804.45	214.34
804.77	214.30
805.09	214.31
805.41	214.31
805.73	214.28
806.05	214.22
806.37	214.20
806.69	214.18
807.01	214.12
807.33	214.10
807.65	213.99
807.97	214.01
808.28	213.98
808.60	213.86
808.92	213.76
809.24	213.81
809.56	213.80
809.88	213.67
810.20	213.66
810.52	213.56
810.84	213.49
811.16	213.45
811.48	213.39
811.80	213.37
812.12	213.32
812.43	213.40
812.75	213.35
813.07	213.27
813.39	213.28
813.71	213.27
814.03	213.18
814.35	213.14
814.67	213.06
814.98	213.00
815.30	213.02
815.62	213.00
815.94	212.87
816.26	212.81
816.58	212.75
816.89	212.78
817.21	212.78
817.53	212.80
817.85	212.74
818.17	212.69
818.48	212.67
818.80	212.69
819.12	212.57
819.44	212.50
819.76	212.45
820.07	212.38
820.39	212.42
820.71	212.45
821.03	212.40
821.34	212.34
821.66	212.37
821.98	212.42
822.30	212.48
822.61	212.52
822.93	212.49
823.25	212.56
823.57	212.51
823.88	212.45
824.20	212.42
824.52	212.46
824.83	212.44
825.15	212.38
825.47	212.32
825.79	212.34
826.10	212.40
826.42	212.47
826.74	212.50
827.05	212.40
827.37	212.40
827.69	212.43
828.00	212.48
828.32	212.48
828.64	212.45
828.95	212.50
829.27	212.47
829.58	212.45
829.90	212.44
830.22	212.45
830.53	212.52
830.85	212.53
831.17	212.50
831.48	212.58
831.80	212.65
832.11	212.62
832.43	212.60
832.75	212.58
833.06	212.67
833.38	212.62
833.69	212.59
834.01	212.54
834.32	212.57
834.64	212.59
834.96	212.64
835.27	212.62
835.59	212.55
835.90	212.55
836.22	212.52
836.53	212.50
836.85	212.48
837.16	212.68
837.48	212.67
837.79	212.68
838.11	212.68
838.42	212.67
838.74	212.69
839.05	212.66
839.37	212.72
839.68	212.66
840.00	212.68
840.31	212.72
840.63	212.81
840.94	212.81
841.26	212.76
841.57	212.75
841.88	212.72
842.20	212.68
842.51	212.72
842.83	212.75
843.14	212.83
843.46	212.85
843.77	212.63
844.08	212.61
844.40	212.57
844.71	212.57
845.03	212.51
845.34	212.59
845.65	212.59
845.97	212.52
846.28	212.46
846.60	212.38
846.91	212.44
847.22	212.41
847.54	212.40
847.85	212.32
848.16	212.29
848.48	212.23
848.79	212.28
849.10	212.19
849.42	212.10
849.73	211.95
850.04	211.84
850.36	211.76
850.67	211.75
850.98	211.79
851.30	211.74
851.61	211.73
851.92	211.70
852.23	211.70
852.55	211.67
852.86	211.70
853.17	211.70
853.49	211.64
853.80	211.64
854.11	211.70
854.42	211.81
854.74	211.73
855.05	211.80
855.36	211.73
855.67	211.75
855.99	211.81
856.30	212.00
856.61	212.07
856.92	212.06
857.23	212.07
857.55	211.99
857.86	211.96
858.17	211.95
858.48	211.89
858.79	211.90
859.11	211.94
859.42	211.85
859.73	211.89
860.04	211.93
860.35	211.82
860.66	211.65
860.98	211.60
861.29	211.68
861.60	211.66
861.91	211.73
862.22	211.73
862.53	211.66
862.84	211.48
863.16	211.54
863.47	211.58
863.78	211.52
864.09	211.55
864.40	211.60
864.71	211.56
865.02	211.57
865.33	211.51
865.64	211.50
865.95	211.46
866.27	211.59
866.58	211.56
866.89	211.65
867.20	211.66
867.51	211.62
867.82	211.62
868.13	211.65
868.44	211.60
868.75	211.61
869.06	211.67
869.37	211.68
869.68	211.62
869.99	211.57
870.30	211.62
870.61	211.60
870.92	211.57
871.23	211.59
871.54	211.60
871.85	211.66
872.16	211.68
872.47	211.73
872.78	211.60
873.09	211.57
873.40	211.58
873.71	211.66
874.02	211.71
874.33	211.70
874.64	211.66
874.95	211.70
875.26	211.64
875.56	211.64
875.87	211.63
876.18	211.59
876.49	211.80
876.80	211.80
877.11	211.80
877.42	211.83
877.73	211.85
878.04	211.84
878.35	211.84
878.66	211.80
878.96	211.79
879.27	211.81
879.58	211.79
879.89	211.67
880.20	211.65
880.51	211.56
880.82	211.54
881.12	211.55
881.43	211.49
881.74	211.45
882.05	211.43
882.36	211.42
882.67	211.49
882.97	211.36
883.28	211.25
883.59	211.26
883.90	211.21
884.21	211.23
884.51	211.24
884.82	211.13
885.13	211.21
885.44	211.18
885.74	211.12
886.05	211.13
886.36	211.15
886.67	211.11
886.98	211.23
887.28	211.32
887.59	211.30
887.90	211.34
888.20	211.35
888.51	211.36
888.82	211.33
889.13	211.32
889.43	211.40
889.74	211.46
890.05	211.44
890.35	211.42
890.66	211.35
890.97	211.34
891.28	211.38
891.58	211.31
891.89	211.37
892.20	211.41
892.50	211.44
892.81	211.45
893.12	211.51
893.42	211.44
893.73	211.38
894.04	211.39
894.34	211.37
894.65	211.42
894.95	211.36
895.26	211.41
895.57	211.48
895.87	211.33
896.18	211.33
896.48	211.35
896.79	211.39
897.10	211.40
897.40	211.38
897.71	211.40
898.01	211.43
898.32	211.46
898.63	211.38
898.93	211.34
899.24	211.30
899.54	211.28
899.85	211.30
900.15	211.32
900.46	211.28
900.76	211.32
901.07	211.35
901.38	211.38
901.68	211.40
901.99	211.24
902.29	211.26
902.60	211.27
902.90	211.28
903.21	211.34
903.51	211.32
903.82	211.37
904.12	211.42
904.43	211.44
904.73	211.39
905.03	211.45
905.34	211.67
905.64	211.73
905.95	211.76
906.25	211.80
906.56	211.72
906.86	211.81
907.17	211.79
907.47	211.78
907.77	211.73
908.08	211.69
908.38	211.74
908.69	211.73
908.99	211.80
909.30	211.77
909.60	211.61
909.90	211.67
910.21	211.62
910.51	211.58
910.81	211.54
911.12	211.55
911.42	211.54
911.73	211.31
912.03	211.30
912.33	211.27
912.64	211.16
912.94	211.19
913.24	211.08
913.55	211.01
913.85	210.94
914.15	211.06
914.46	211.12
914.76	211.11
915.06	211.13
915.37	211.06
915.67	211.08
915.97	211.19
916.27	211.15
916.58	211.23
916.88	211.19
917.18	211.20
917.49	211.25
917.79	211.26
918.09	211.28
918.39	211.29
918.70	211.27
919.00	211.33
919.30	211.40
919.60	211.40
919.91	211.43
920.21	211.47
920.51	211.36
920.81	211.26
921.12	211.27
921.42	211.24
921.72	211.24
922.02	211.22
922.32	211.22
922.63	211.20
922.93	211.21
923.23	211.25
923.53	211.23
923.83	211.20
924.13	211.20
924.44	211.20
924.74	211.22
925.04	211.29
925.34	211.30
925.64	211.17
925.94	211.20
926.24	211.25
926.55	211.25
926.85	211.26
927.15	211.33
927.45	211.30
927.75	211.34
928.05	211.42
928.35	211.44
928.65	211.43
928.95	211.46
929.26	211.36
929.56	211.39
929.86	211.43
930.16	211.38
930.46	211.38
930.76	211.43
931.06	211.39
931.36	211.34
931.66	211.39
931.96	211.46
932.26	211.50
932.56	211.47
932.86	211.45
933.16	211.48
933.46	211.45
933.76	211.57
934.06	211.55
934.36	211.50
934.66	211.54
934.96	211.50
935.26	211.47
935.56	211.58
935.86	211.49
936.16	211.47
936.46	211.42
936.76	211.36
937.06	211.26
937.36	211.26
937.66	211.26
937.96	211.17
938.26	211.14
938.56	211.09
938.86	211.09
939.16	211.19
939.46	211.14
939.76	211.14
940.06	211.04
940.35	210.96
940.65	210.84
940.95	210.80
941.25	210.78
941.55	210.85
941.85	210.75
942.15	210.81
942.45	210.88
942.75	210.86
943.04	210.93
943.34	211.05
943.64	210.97
943.94	210.91
944.24	210.98
944.54	210.92
944.84	210.92
945.13	210.86
945.43	210.74
945.73	210.81
946.03	210.77
946.33	210.75
946.62	210.84
946.92	210.88
947.22	210.91
947.52	210.95
947.82	210.90
948.11	210.90
948.41	210.82
948.71	210.77
949.01	210.83
949.31	210.82
949.60	210.72
949.90	210.79
950.20	210.77
950.50	210.76
950.79	210.82
951.09	210.81
951.39	210.87
951.69	210.87
951.98	210.88
952.28	210.95
952.58	210.90
952.87	210.79
953.17	210.79
953.47	210.80
953.76	210.77
954.06	210.67
954.36	210.59
954.66	210.66
954.95	210.61
955.25	210.60
955.55	210.62
955.84	210.60
956.14	210.67
956.44	210.69
956.73	210.59
957.03	210.63
957.32	210.71
957.62	210.69
957.92	210.71
958.21	210.65
958.51	210.80
958.81	210.85
959.10	210.90
959.40	210.95
959.69	210.88
959.99	210.92
960.29	210.93
960.58	211.07
960.88	211.11
961.17	211.10
961.47	211.14
961.76	211.09
962.06	211.14
962.36	211.10
962.65	211.13
962.95	211.17
963.24	211.11
963.54	211.02
963.83	211.05
964.13	211.04
964.42	211.04
964.72	210.91
965.01	210.90
965.31	210.95
965.60	210.94
965.90	211.06
966.19	210.97
966.49	211.07
966.78	211.05
967.08	211.02
967.37	211.00
967.67	210.95
967.96	211.00
968.26	211.00
968.55	210.97
968.85	210.98
969.14	211.02
969.43	211.04
969.73	211.06
970.02	211.06
970.32	211.06
970.61	211.07
970.91	211.10
971.20	211.15
971.49	211.05
971.79	211.07
972.08	210.89
972.38	211.00
972.67	210.94
972.96	210.93
973.26	210.91
973.55	210.95
973.85	211.02
974.14	211.02
974.43	211.04
974.73	211.05
975.02	211.06
975.31	211.03
975.61	211.06
975.90	211.06
976.19	211.07
976.49	211.11
976.78	211.10
977.07	211.06
977.37	211.07
977.66	211.16
977.95	211.11
978.24	211.14
978.54	211.09
978.83	211.09
979.12	211.12
979.42	211.15
979.71	211.18
980.00	211.09
980.29	211.08
980.59	211.04
980.88	211.06
981.17	211.00
981.46	210.99
981.76	210.94
982.05	210.97
982.34	210.93
982.63	210.91
982.93	210.95
983.22	210.92
983.51	210.96
983.80	210.97
984.09	211.01
984.39	211.08
984.68	211.09
984.97	211.09
985.26	211.02
985.55	211.00
985.85	211.00
986.14	211.04
986.43	211.10
986.72	211.07
987.01	211.02
987.30	211.07
987.59	211.03
987.89	210.99
988.18	210.97
988.47	210.94
988.76	210.91
989.05	210.86
989.34	210.87
989.63	210.88
989.92	210.89
990.22	210.84
990.51	210.87
990.80	210.81
991.09	210.80
991.38	210.86
991.67	210.87
991.96	210.79
992.25	210.88
992.54	210.78
992.83	210.81
993.12	210.74
993.41	210.70
993.70	210.82
993.99	210.88
994.28	210.89
994.58	210.95
994.87	210.92
995.16	210.89
995.45	210.89
995.74	210.80
996.03	210.83
996.32	210.86
996.61	210.85
996.90	210.87
997.19	210.91
997.48	210.88
997.77	210.85
998.06	210.92
998.34	210.84
998.63	210.84
998.92	210.88
999.21	210.98
999.50	210.98
999.79	210.93
1000.08	210.91
1000.37	210.88
1000.66	210.87
1000.95	210.90
1001.24	210.94
1001.53	210.89
1001.82	210.89
1002.11	210.79
1002.40	210.80
1002.68	210.83
1002.97	210.99
1003.26	210.90
1003.55	210.90
1003.84	210.89
1004.13	210.89
1004.42	210.91
1004.71	210.96
1004.99	210.94
1005.28	210.94
1005.57	210.95
1005.86	210.90
1006.15	210.87
1006.44	210.84
1006.72	210.84
1007.01	210.85
1007.30	210.84
1007.59	210.94
1007.88	210.96
1008.17	210.96
1008.45	210.93
1008.74	210.87
1009.03	210.75
1009.32	210.82
1009.60	210.82
1009.89	210.85
1010.18	210.80
1010.47	210.78
1010.76	210.76
1011.04	210.68
1011.33	210.70
1011.62	210.67
1011.91	210.72
1012.19	210.80
1012.48	210.83
1012.77	210.85
1013.05	210.96
1013.34	210.97
1013.63	210.96
1013.92	210.97
1014.20	210.96
1014.49	210.96
1014.78	210.95
1015.06	210.90
1015.35	210.87
1015.64	210.93
1015.92	210.93
1016.21	210.92
1016.50	210.95
1016.78	210.92
1017.07	210.96
1017.36	210.95
1017.64	210.98
1017.93	210.94
1018.22	210.85
1018.50	210.86
1018.79	210.81
1019.08	210.69
1019.36	210.71
1019.65	210.70
1019.93	210.66
1020.22	210.67
1020.51	210.73
1020.79	210.71
1021.08	209.50
1021.36	210.95
1021.65	210.40
1021.94	210.65
1022.22	211.20
1022.51	211.45
1022.79	210.50
1023.08	210.50
1023.36	211.75
1023.65	209.85
>>>>>End Processed Spectral Data<<<<<
