SpectraSuite Data File
++++++++++++++++++++++++++++++++++++
Date: Mon Feb 25 17:31:05 EST 2013
User: group
Dark Spectrum Present: No
Reference Spectrum Present: No
Number of Sampled Component Spectra: 1
Spectrometers: USB2E7196
Integration Time (usec): 52000 (USB2E7196)
Spectra Averaged: 20 (USB2E7196)
Boxcar Smoothing: 10 (USB2E7196)
Correct for Electrical Dark: No (USB2E7196)
Strobe/Lamp Enabled: No (USB2E7196)
Correct for Detector Non-linearity: No (USB2E7196)
Correct for Stray Light: No (USB2E7196)
Number of Pixels in Processed Spectrum: 2048
>>>>>Begin Processed Spectral Data<<<<<
339.09	0.00
339.48	197.90
339.86	199.50
340.24	201.70
340.63	203.40
341.01	207.50
341.39	206.50
341.78	208.00
342.16	208.25
342.54	210.05
342.93	198.16
343.31	208.14
343.69	208.69
344.07	209.13
344.46	209.54
344.84	209.90
345.22	210.10
345.60	210.30
345.99	210.48
346.37	210.61
346.75	210.64
347.13	210.68
347.52	210.64
347.90	210.77
348.28	210.78
348.66	210.83
349.05	210.79
349.43	210.84
349.81	210.98
350.19	211.07
350.57	211.17
350.96	211.25
351.34	211.35
351.72	211.46
352.10	211.62
352.48	211.76
352.87	211.76
353.25	211.80
353.63	211.85
354.01	211.91
354.39	212.02
354.77	212.13
355.15	212.25
355.54	212.42
355.92	212.42
356.30	212.49
356.68	212.64
357.06	212.74
357.44	212.79
357.82	212.85
358.20	212.97
358.58	212.99
358.97	213.12
359.35	213.24
359.73	213.36
360.11	213.43
360.49	213.49
360.87	213.55
361.25	213.60
361.63	213.77
362.01	213.76
362.39	213.77
362.77	213.85
363.15	213.86
363.53	213.83
363.91	213.77
364.29	213.78
364.67	213.65
365.05	213.70
365.43	213.76
365.81	213.79
366.19	213.75
366.57	213.88
366.95	213.85
367.33	213.86
367.71	213.84
368.09	213.91
368.47	213.82
368.85	213.85
369.23	213.94
369.61	213.87
369.99	213.98
370.37	214.05
370.75	214.08
371.13	214.05
371.51	214.00
371.89	214.09
372.27	214.10
372.65	214.11
373.03	214.04
373.41	213.92
373.78	213.87
374.16	213.80
374.54	213.66
374.92	213.59
375.30	213.49
375.68	213.42
376.06	213.41
376.44	213.34
376.82	213.33
377.19	213.18
377.57	213.09
377.95	212.98
378.33	212.90
378.71	212.78
379.09	212.78
379.47	212.79
379.84	212.65
380.22	212.61
380.60	212.49
380.98	212.41
381.36	212.35
381.73	212.29
382.11	212.35
382.49	212.31
382.87	212.30
383.25	212.32
383.62	212.43
384.00	212.26
384.38	212.27
384.76	212.25
385.13	212.30
385.51	212.20
385.89	212.20
386.27	212.17
386.64	212.13
387.02	212.12
387.40	212.05
387.78	212.08
388.15	212.06
388.53	212.01
388.91	212.02
389.29	212.09
389.66	212.05
390.04	211.95
390.42	212.00
390.79	211.96
391.17	211.89
391.55	211.75
391.92	211.78
392.30	211.79
392.68	211.70
393.05	211.72
393.43	211.78
393.81	211.72
394.18	211.61
394.56	211.66
394.94	211.64
395.31	211.58
395.69	211.64
396.06	211.66
396.44	211.70
396.82	211.66
397.19	211.70
397.57	211.72
397.95	211.70
398.32	211.62
398.70	211.65
399.07	211.68
399.45	211.67
399.82	211.65
400.20	211.66
400.58	211.75
400.95	211.68
401.33	211.73
401.70	211.92
402.08	211.98
402.45	211.97
402.83	212.02
403.20	212.19
403.58	212.23
403.95	212.31
404.33	212.51
404.71	212.68
405.08	212.88
405.46	213.02
405.83	213.13
406.21	213.21
406.58	213.42
406.96	213.57
407.33	213.79
407.70	214.02
408.08	214.39
408.45	214.62
408.83	214.91
409.20	215.17
409.58	215.27
409.95	215.57
410.33	215.90
410.70	216.18
411.08	216.54
411.45	216.89
411.82	217.24
412.20	217.63
412.57	218.07
412.95	218.41
413.32	218.94
413.69	219.51
414.07	220.21
414.44	220.71
414.82	221.37
415.19	222.06
415.56	222.79
415.94	223.45
416.31	224.31
416.68	225.11
417.06	226.09
417.43	227.04
417.81	228.18
418.18	229.26
418.55	230.45
418.93	231.66
419.30	232.98
419.67	234.36
420.04	235.73
420.42	237.26
420.79	239.03
421.16	240.67
421.54	242.34
421.91	244.12
422.28	246.07
422.66	248.05
423.03	250.07
423.40	252.14
423.77	254.35
424.15	256.57
424.52	258.91
424.89	261.40
425.26	263.80
425.64	266.10
426.01	268.62
426.38	271.29
426.75	273.95
427.13	276.62
427.50	279.58
427.87	282.67
428.24	285.61
428.61	288.37
428.99	291.65
429.36	295.17
429.73	298.59
430.10	302.07
430.47	305.60
430.85	309.16
431.22	312.94
431.59	316.97
431.96	320.80
432.33	325.06
432.70	329.22
433.08	334.11
433.45	338.73
433.82	343.18
434.19	348.14
434.56	353.09
434.93	357.85
435.30	362.43
435.68	367.51
436.05	372.64
436.42	377.76
436.79	382.38
437.16	387.35
437.53	392.67
437.90	397.73
438.27	402.87
438.64	408.27
439.01	413.27
439.38	417.50
439.75	421.65
440.13	426.30
440.50	430.79
440.87	434.45
441.24	438.11
441.61	442.30
441.98	445.39
442.35	448.89
442.72	452.55
443.09	455.96
443.46	458.08
443.83	459.46
444.20	460.59
444.57	462.27
444.94	463.05
445.31	463.75
445.68	464.48
446.05	464.59
446.42	463.83
446.79	462.98
447.16	462.22
447.53	461.58
447.90	459.57
448.27	457.50
448.64	454.67
449.01	452.65
449.37	449.11
449.74	445.69
450.11	441.67
450.48	437.14
450.85	432.66
451.22	428.76
451.59	425.10
451.96	421.56
452.33	416.89
452.70	412.65
453.07	407.60
453.43	402.45
453.80	397.62
454.17	392.99
454.54	388.60
454.91	383.87
455.28	379.31
455.65	375.08
456.02	370.84
456.38	367.13
456.75	362.51
457.12	358.69
457.49	354.93
457.86	351.18
458.23	348.08
458.59	344.74
458.96	341.25
459.33	338.09
459.70	334.90
460.07	332.43
460.43	329.54
460.80	326.85
461.17	324.57
461.54	322.05
461.91	319.67
462.27	317.25
462.64	315.23
463.01	313.04
463.38	310.97
463.74	308.68
464.11	306.81
464.48	305.23
464.85	303.51
465.21	302.13
465.58	300.83
465.95	299.16
466.32	297.77
466.68	296.43
467.05	295.11
467.42	293.82
467.78	292.29
468.15	290.97
468.52	290.00
468.88	288.67
469.25	287.59
469.62	286.71
469.98	285.75
470.35	284.85
470.72	284.02
471.08	283.08
471.45	282.37
471.82	281.60
472.18	280.80
472.55	280.26
472.92	279.60
473.28	278.96
473.65	278.43
474.02	277.84
474.38	277.40
474.75	277.00
475.11	276.65
475.48	276.51
475.85	276.30
476.21	276.08
476.58	275.93
476.94	275.88
477.31	275.76
477.67	275.78
478.04	275.89
478.41	276.02
478.77	276.29
479.14	276.46
479.50	276.77
479.87	277.15
480.23	277.51
480.60	277.89
480.96	278.28
481.33	278.81
481.69	279.48
482.06	280.03
482.42	280.72
482.79	281.45
483.15	282.27
483.52	283.34
483.88	284.31
484.25	285.35
484.61	286.48
484.98	287.71
485.34	288.86
485.71	290.06
486.07	291.40
486.44	292.71
486.80	294.26
487.17	295.85
487.53	297.59
487.90	299.38
488.26	301.36
488.62	303.43
488.99	305.56
489.35	307.65
489.72	309.92
490.08	312.26
490.44	314.80
490.81	317.54
491.17	320.10
491.54	322.97
491.90	325.95
492.26	329.13
492.63	332.41
492.99	335.89
493.36	339.60
493.72	343.46
494.08	347.45
494.45	351.78
494.81	356.20
495.17	360.68
495.54	365.59
495.90	370.57
496.26	375.77
496.63	381.18
496.99	386.91
497.35	392.89
497.72	399.13
498.08	405.53
498.44	412.10
498.80	419.30
499.17	426.75
499.53	434.41
499.89	442.25
500.26	450.21
500.62	458.59
500.98	467.39
501.34	476.42
501.71	485.82
502.07	495.27
502.43	505.25
502.79	515.49
503.16	526.10
503.52	537.05
503.88	548.24
504.24	559.91
504.60	571.70
504.97	583.98
505.33	596.39
505.69	609.46
506.05	622.85
506.41	636.25
506.78	649.76
507.14	663.85
507.50	678.50
507.86	693.47
508.22	708.82
508.59	724.14
508.95	740.02
509.31	756.06
509.67	772.78
510.03	789.45
510.39	806.84
510.75	824.20
511.12	842.03
511.48	860.17
511.84	878.49
512.20	897.13
512.56	916.28
512.92	935.79
513.28	955.38
513.64	975.09
514.00	994.90
514.37	1015.22
514.73	1035.71
515.09	1056.18
515.45	1076.77
515.81	1097.74
516.17	1118.92
516.53	1140.06
516.89	1161.37
517.25	1182.57
517.61	1204.25
517.97	1225.54
518.33	1246.94
518.69	1268.44
519.05	1290.33
519.41	1312.12
519.77	1334.24
520.13	1356.06
520.49	1378.04
520.85	1400.11
521.21	1422.17
521.57	1444.99
521.93	1466.52
522.29	1489.10
522.65	1511.02
523.01	1533.28
523.37	1555.03
523.73	1577.03
524.09	1598.99
524.45	1620.85
524.81	1642.86
525.17	1664.57
525.53	1686.73
525.89	1708.74
526.25	1730.44
526.61	1751.27
526.97	1772.76
527.33	1793.78
527.68	1814.74
528.04	1835.34
528.40	1855.42
528.76	1875.72
529.12	1895.68
529.48	1917.19
529.84	1937.11
530.20	1957.10
530.56	1977.03
530.91	1997.37
531.27	2017.16
531.63	2036.83
531.99	2056.50
532.35	2075.20
532.71	2093.97
533.07	2113.01
533.42	2131.22
533.78	2149.67
534.14	2168.13
534.50	2184.87
534.86	2202.74
535.21	2219.07
535.57	2236.64
535.93	2253.57
536.29	2269.84
536.65	2286.31
537.00	2301.42
537.36	2316.55
537.72	2331.58
538.08	2346.60
538.44	2361.46
538.79	2376.82
539.15	2391.23
539.51	2405.12
539.87	2420.26
540.22	2434.32
540.58	2448.51
540.94	2462.61
541.29	2475.16
541.65	2487.06
542.01	2500.08
542.37	2511.57
542.72	2523.66
543.08	2534.42
543.44	2546.00
543.79	2556.21
544.15	2565.81
544.51	2576.46
544.87	2586.91
545.22	2596.10
545.58	2604.19
545.94	2610.89
546.29	2616.78
546.65	2622.64
547.01	2628.77
547.36	2634.07
547.72	2639.37
548.07	2643.25
548.43	2647.00
548.79	2650.45
549.14	2654.50
549.50	2658.30
549.86	2661.80
550.21	2665.46
550.57	2668.98
550.92	2671.30
551.28	2673.75
551.64	2676.09
551.99	2678.07
552.35	2679.23
552.70	2681.44
553.06	2683.95
553.41	2687.03
553.77	2689.78
554.13	2692.19
554.48	2694.10
554.84	2695.16
555.19	2695.44
555.55	2696.07
555.90	2696.28
556.26	2696.72
556.61	2696.81
556.97	2695.50
557.32	2694.96
557.68	2693.53
558.03	2692.07
558.39	2690.70
558.74	2690.44
559.10	2689.45
559.45	2687.41
559.81	2686.21
560.16	2683.47
560.52	2681.15
560.87	2678.22
561.23	2674.15
561.58	2671.43
561.94	2668.00
562.29	2664.25
562.64	2662.24
563.00	2659.39
563.35	2657.06
563.71	2655.18
564.06	2652.93
564.42	2650.91
564.77	2648.08
565.12	2645.96
565.48	2642.65
565.83	2639.07
566.19	2635.31
566.54	2630.71
566.89	2626.89
567.25	2623.24
567.60	2619.97
567.96	2616.22
568.31	2612.52
568.66	2608.87
569.02	2604.08
569.37	2599.36
569.72	2595.85
570.08	2590.14
570.43	2584.37
570.78	2578.89
571.14	2572.63
571.49	2565.86
571.84	2559.81
572.20	2553.37
572.55	2546.76
572.90	2539.65
573.26	2532.86
573.61	2526.08
573.96	2519.62
574.31	2511.71
574.67	2503.47
575.02	2494.96
575.37	2486.09
575.72	2477.31
576.08	2469.88
576.43	2461.48
576.78	2453.54
577.13	2445.61
577.49	2438.16
577.84	2430.34
578.19	2422.54
578.54	2415.26
578.90	2408.48
579.25	2400.14
579.60	2391.12
579.95	2382.01
580.30	2374.51
580.66	2366.85
581.01	2357.85
581.36	2348.82
581.71	2340.64
582.06	2332.61
582.42	2325.00
582.77	2316.25
583.12	2307.39
583.47	2298.56
583.82	2290.40
584.17	2281.36
584.53	2272.12
584.88	2263.17
585.23	2254.63
585.58	2244.85
585.93	2235.22
586.28	2226.25
586.63	2217.66
586.98	2209.67
587.34	2201.51
587.69	2192.46
588.04	2183.20
588.39	2174.97
588.74	2166.25
589.09	2157.99
589.44	2148.50
589.79	2139.70
590.14	2132.27
590.49	2123.98
590.84	2115.22
591.19	2107.22
591.54	2098.65
591.89	2088.80
592.25	2080.17
592.60	2070.88
592.95	2062.24
593.30	2053.22
593.65	2043.32
594.00	2033.84
594.35	2025.72
594.70	2016.66
595.05	2007.87
595.40	1999.51
595.75	1990.10
596.10	1982.10
596.45	1973.82
596.80	1966.20
597.15	1957.99
597.50	1948.94
597.85	1940.63
598.19	1932.35
598.54	1923.79
598.89	1916.19
599.24	1909.50
599.59	1901.94
599.94	1894.93
600.29	1887.21
600.64	1879.16
600.99	1871.07
601.34	1864.08
601.69	1855.22
602.04	1847.30
602.39	1839.69
602.74	1832.04
603.08	1825.66
603.43	1818.51
603.78	1810.36
604.13	1802.50
604.48	1794.99
604.83	1787.94
605.18	1781.24
605.53	1773.96
605.87	1766.59
606.22	1759.48
606.57	1751.86
606.92	1743.85
607.27	1735.82
607.62	1728.60
607.96	1722.00
608.31	1716.38
608.66	1708.65
609.01	1701.38
609.36	1693.90
609.70	1685.97
610.05	1678.05
610.40	1670.00
610.75	1661.47
611.10	1654.12
611.44	1645.10
611.79	1636.02
612.14	1626.86
612.49	1617.28
612.83	1608.56
613.18	1599.12
613.53	1590.10
613.88	1580.40
614.22	1571.52
614.57	1562.50
614.92	1553.46
615.27	1544.33
615.61	1534.29
615.96	1525.51
616.31	1517.27
616.65	1509.78
617.00	1501.95
617.35	1493.61
617.70	1484.74
618.04	1476.16
618.39	1467.05
618.74	1458.90
619.08	1450.50
619.43	1442.59
619.78	1435.08
620.12	1427.05
620.47	1419.52
620.82	1411.22
621.16	1403.17
621.51	1395.06
621.85	1387.12
622.20	1378.73
622.55	1370.46
622.89	1362.51
623.24	1354.78
623.59	1346.18
623.93	1337.40
624.28	1329.07
624.62	1321.18
624.97	1313.30
625.32	1305.59
625.66	1298.40
626.01	1291.25
626.35	1284.29
626.70	1276.94
627.04	1269.48
627.39	1261.98
627.73	1254.50
628.08	1247.59
628.43	1240.54
628.77	1233.59
629.12	1226.16
629.46	1219.69
629.81	1212.69
630.15	1205.44
630.50	1198.09
630.84	1191.36
631.19	1184.39
631.53	1177.69
631.88	1170.11
632.22	1162.51
632.57	1155.74
632.91	1148.38
633.26	1141.13
633.60	1134.09
633.95	1127.45
634.29	1120.24
634.64	1113.87
634.98	1106.97
635.32	1099.91
635.67	1093.61
636.01	1086.86
636.36	1080.36
636.70	1073.70
637.05	1067.18
637.39	1061.04
637.73	1054.77
638.08	1048.72
638.42	1042.84
638.77	1036.66
639.11	1030.86
639.45	1025.26
639.80	1018.60
640.14	1012.43
640.49	1006.46
640.83	1000.20
641.17	993.97
641.52	988.04
641.86	981.37
642.20	975.28
642.55	968.60
642.89	962.27
643.23	955.93
643.58	950.18
643.92	944.06
644.26	938.05
644.61	931.90
644.95	925.99
645.29	919.64
645.64	912.98
645.98	906.69
646.32	900.54
646.66	894.41
647.01	888.73
647.35	882.88
647.69	876.51
648.04	870.66
648.38	864.59
648.72	858.75
649.06	852.98
649.41	847.14
649.75	841.64
650.09	835.83
650.43	830.05
650.78	823.95
651.12	817.75
651.46	811.94
651.80	806.15
652.14	800.20
652.49	794.46
652.83	789.07
653.17	783.08
653.51	777.44
653.85	771.70
654.20	765.98
654.54	760.15
654.88	754.72
655.22	749.06
655.56	743.30
655.90	737.56
656.25	731.88
656.59	726.33
656.93	721.19
657.27	716.01
657.61	710.70
657.95	705.48
658.29	700.54
658.64	695.47
658.98	690.50
659.32	685.31
659.66	680.36
660.00	674.96
660.34	669.83
660.68	664.71
661.02	659.74
661.36	655.09
661.70	650.26
662.05	645.60
662.39	641.25
662.73	636.93
663.07	632.67
663.41	628.55
663.75	624.21
664.09	619.60
664.43	615.05
664.77	610.68
665.11	606.42
665.45	601.96
665.79	597.65
666.13	593.25
666.47	589.17
666.81	584.99
667.15	581.05
667.49	577.28
667.83	573.53
668.17	569.95
668.51	566.22
668.85	562.68
669.19	559.20
669.53	555.27
669.87	551.27
670.21	547.39
670.55	543.43
670.89	539.98
671.23	536.73
671.57	533.18
671.91	529.66
672.25	526.03
672.58	522.71
672.92	519.41
673.26	516.32
673.60	512.88
673.94	509.57
674.28	506.44
674.62	503.36
674.96	500.13
675.30	496.91
675.64	493.67
675.97	490.50
676.31	487.40
676.65	484.67
676.99	482.17
677.33	479.47
677.67	476.62
678.01	473.54
678.34	470.52
678.68	467.86
679.02	465.03
679.36	462.35
679.70	459.63
680.04	456.84
680.37	453.85
680.71	451.25
681.05	448.76
681.39	446.08
681.73	443.48
682.06	441.01
682.40	438.58
682.74	436.10
683.08	433.66
683.42	431.26
683.75	428.70
684.09	425.95
684.43	423.44
684.77	420.91
685.10	418.51
685.44	416.05
685.78	413.48
686.12	411.28
686.45	408.96
686.79	406.71
687.13	404.49
687.46	402.38
687.80	400.25
688.14	397.92
688.48	395.85
688.81	393.59
689.15	391.42
689.49	389.10
689.82	386.84
690.16	384.46
690.50	382.19
690.83	380.03
691.17	377.89
691.51	375.69
691.84	373.74
692.18	371.77
692.52	369.94
692.85	368.10
693.19	366.28
693.52	364.37
693.86	362.38
694.20	360.57
694.53	358.79
694.87	356.87
695.21	355.02
695.54	353.12
695.88	351.11
696.21	349.31
696.55	347.68
696.88	346.02
697.22	344.41
697.56	342.82
697.89	341.12
698.23	339.50
698.56	338.01
698.90	336.44
699.23	334.83
699.57	333.25
699.90	331.72
700.24	330.01
700.58	328.58
700.91	327.13
701.25	325.74
701.58	324.35
701.92	322.97
702.25	321.52
702.59	320.08
702.92	318.98
703.26	317.62
703.59	316.34
703.93	315.22
704.26	314.08
704.60	312.75
704.93	311.46
705.26	310.35
705.60	309.10
705.93	307.87
706.27	306.73
706.60	305.58
706.94	304.53
707.27	303.41
707.61	302.37
707.94	301.38
708.27	300.16
708.61	299.05
708.94	297.93
709.28	296.91
709.61	295.94
709.94	294.83
710.28	293.85
710.61	292.80
710.95	291.55
711.28	290.63
711.61	289.67
711.95	288.79
712.28	287.68
712.61	286.69
712.95	285.90
713.28	285.03
713.61	284.01
713.95	283.01
714.28	282.14
714.61	281.13
714.95	280.11
715.28	279.25
715.61	278.33
715.95	277.42
716.28	276.60
716.61	275.78
716.95	274.89
717.28	274.02
717.61	273.23
717.94	272.67
718.28	271.74
718.61	270.93
718.94	270.21
719.27	269.58
719.61	268.93
719.94	268.18
720.27	267.42
720.60	266.87
720.94	266.21
721.27	265.61
721.60	265.03
721.93	264.42
722.27	263.81
722.60	263.25
722.93	262.78
723.26	262.19
723.59	261.59
723.93	261.14
724.26	260.59
724.59	259.99
724.92	259.37
725.25	258.97
725.59	258.40
725.92	257.90
726.25	257.33
726.58	256.85
726.91	256.31
727.24	255.85
727.57	255.26
727.91	254.67
728.24	254.17
728.57	253.63
728.90	253.22
729.23	252.65
729.56	252.26
729.89	251.71
730.22	251.15
730.55	250.64
730.89	250.15
731.22	249.65
731.55	249.20
731.88	248.76
732.21	248.24
732.54	247.85
732.87	247.38
733.20	246.98
733.53	246.57
733.86	246.15
734.19	245.68
734.52	245.39
734.85	245.17
735.18	244.76
735.51	244.40
735.84	243.99
736.17	243.67
736.50	243.20
736.83	243.08
737.16	242.74
737.49	242.45
737.82	242.01
738.15	241.64
738.48	241.28
738.81	240.87
739.14	240.45
739.47	240.09
739.80	239.69
740.13	239.35
740.46	238.89
740.79	238.48
741.12	238.09
741.45	237.70
741.78	237.29
742.11	236.98
742.44	236.70
742.77	236.51
743.10	236.14
743.43	235.80
743.75	235.27
744.08	235.26
744.41	234.85
744.74	234.55
745.07	234.27
745.40	234.09
745.73	233.92
746.06	233.71
746.39	233.47
746.71	233.22
747.04	233.02
747.37	232.80
747.70	232.62
748.03	232.45
748.36	232.19
748.68	231.92
749.01	231.56
749.34	231.30
749.67	231.00
750.00	230.81
750.33	230.67
750.65	230.46
750.98	230.00
751.31	229.80
751.64	229.60
751.97	229.45
752.29	229.20
752.62	228.84
752.95	228.59
753.28	228.31
753.60	228.00
753.93	227.79
754.26	227.52
754.59	227.25
754.91	227.00
755.24	226.82
755.57	226.62
755.90	226.39
756.22	226.14
756.55	225.91
756.88	225.80
757.20	225.49
757.53	225.20
757.86	225.00
758.19	224.90
758.51	224.73
758.84	224.52
759.17	224.33
759.49	224.25
759.82	224.16
760.15	224.05
760.47	224.00
760.80	223.73
761.13	223.63
761.45	223.45
761.78	223.30
762.11	223.14
762.43	222.98
762.76	222.93
763.08	222.82
763.41	222.71
763.74	222.47
764.06	222.37
764.39	222.31
764.71	222.20
765.04	222.01
765.37	221.85
765.69	221.65
766.02	221.51
766.34	221.33
766.67	221.18
767.00	221.15
767.32	221.07
767.65	221.07
767.97	220.99
768.30	220.84
768.62	220.74
768.95	220.64
769.27	220.54
769.60	220.45
769.92	220.40
770.25	220.30
770.57	220.15
770.90	220.00
771.22	219.86
771.55	219.74
771.87	219.72
772.20	219.64
772.52	219.84
772.85	220.00
773.17	219.96
773.50	219.78
773.82	219.58
774.15	219.48
774.47	219.33
774.80	219.18
775.12	219.20
775.45	219.16
775.77	219.10
776.09	219.03
776.42	219.01
776.74	218.92
777.07	218.94
777.39	218.92
777.72	218.87
778.04	218.89
778.36	218.80
778.69	218.64
779.01	218.68
779.33	218.44
779.66	218.15
779.98	218.05
780.31	218.04
780.63	218.12
780.95	218.01
781.28	217.95
781.60	217.89
781.92	217.85
782.25	217.78
782.57	217.71
782.89	217.63
783.22	217.48
783.54	217.36
783.86	217.20
784.19	217.12
784.51	217.11
784.83	217.00
785.16	216.95
785.48	216.96
785.80	216.82
786.12	216.73
786.45	216.68
786.77	216.62
787.09	216.59
787.42	216.47
787.74	216.44
788.06	216.34
788.38	216.35
788.71	216.27
789.03	216.21
789.35	216.17
789.67	216.06
789.99	216.05
790.32	216.01
790.64	216.03
790.96	216.16
791.28	216.05
791.61	215.94
791.93	215.92
792.25	215.84
792.57	215.94
792.89	215.78
793.21	215.75
793.54	215.76
793.86	215.65
794.18	215.54
794.50	215.47
794.82	215.54
795.14	215.49
795.47	215.44
795.79	215.37
796.11	215.26
796.43	215.31
796.75	215.25
797.07	215.24
797.39	215.15
797.71	214.98
798.04	214.99
798.36	215.02
798.68	214.96
799.00	215.00
799.32	214.88
799.64	214.97
799.96	214.86
800.28	214.82
800.60	214.82
800.92	214.78
801.24	214.78
801.56	214.72
801.89	214.69
802.21	214.66
802.53	214.60
802.85	214.62
803.17	214.58
803.49	214.51
803.81	214.42
804.13	214.35
804.45	214.29
804.77	214.28
805.09	214.24
805.41	214.19
805.73	214.07
806.05	214.01
806.37	213.96
806.69	213.96
807.01	213.85
807.33	213.77
807.65	213.77
807.97	213.77
808.28	213.75
808.60	213.75
808.92	213.71
809.24	213.74
809.56	213.70
809.88	213.63
810.20	213.60
810.52	213.58
810.84	213.50
811.16	213.43
811.48	213.33
811.80	213.38
812.12	213.34
812.43	213.38
812.75	213.30
813.07	213.24
813.39	213.25
813.71	213.33
814.03	213.35
814.35	213.35
814.67	213.25
814.98	213.17
815.30	213.10
815.62	213.08
815.94	213.00
816.26	212.94
816.58	212.90
816.89	212.93
817.21	212.88
817.53	212.93
817.85	212.96
818.17	212.94
818.48	212.89
818.80	212.93
819.12	212.82
819.44	212.79
819.76	212.75
820.07	212.67
820.39	212.55
820.71	212.52
821.03	212.41
821.34	212.39
821.66	212.38
821.98	212.32
822.30	212.23
822.61	212.34
822.93	212.31
823.25	212.33
823.57	212.30
823.88	212.33
824.20	212.31
824.52	212.28
824.83	212.28
825.15	212.22
825.47	212.23
825.79	212.24
826.10	212.19
826.42	212.15
826.74	212.19
827.05	212.23
827.37	212.18
827.69	212.19
828.00	212.21
828.32	212.19
828.64	212.23
828.95	212.34
829.27	212.22
829.58	212.21
829.90	212.22
830.22	212.22
830.53	212.17
830.85	212.03
831.17	212.05
831.48	212.03
831.80	212.03
832.11	211.98
832.43	211.95
832.75	211.96
833.06	212.05
833.38	211.99
833.69	211.92
834.01	212.00
834.32	211.95
834.64	211.90
834.96	211.90
835.27	211.77
835.59	211.74
835.90	211.78
836.22	211.77
836.53	211.74
836.85	211.70
837.16	211.93
837.48	212.01
837.79	212.02
838.11	212.03
838.42	211.98
838.74	211.94
839.05	211.95
839.37	211.91
839.68	211.86
840.00	211.83
840.31	211.87
840.63	211.74
840.94	211.75
841.26	211.76
841.57	211.76
841.88	211.83
842.20	211.83
842.51	211.80
842.83	211.81
843.14	211.95
843.46	211.97
843.77	211.82
844.08	211.75
844.40	211.67
844.71	211.68
845.03	211.64
845.34	211.67
845.65	211.59
845.97	211.64
846.28	211.61
846.60	211.67
846.91	211.62
847.22	211.65
847.54	211.71
847.85	211.68
848.16	211.67
848.48	211.69
848.79	211.69
849.10	211.71
849.42	211.75
849.73	211.57
850.04	211.51
850.36	211.51
850.67	211.65
850.98	211.62
851.30	211.66
851.61	211.66
851.92	211.60
852.23	211.70
852.55	211.72
852.86	211.76
853.17	211.75
853.49	211.79
853.80	211.83
854.11	211.80
854.42	211.85
854.74	211.83
855.05	211.86
855.36	211.80
855.67	211.84
855.99	211.81
856.30	212.03
856.61	212.10
856.92	212.12
857.23	212.12
857.55	212.10
857.86	212.03
858.17	212.06
858.48	212.12
858.79	212.09
859.11	212.11
859.42	212.10
859.73	212.10
860.04	212.06
860.35	211.99
860.66	212.01
860.98	211.99
861.29	212.03
861.60	211.95
861.91	211.95
862.22	211.84
862.53	211.83
862.84	211.64
863.16	211.67
863.47	211.56
863.78	211.50
864.09	211.56
864.40	211.65
864.71	211.63
865.02	211.65
865.33	211.64
865.64	211.58
865.95	211.55
866.27	211.63
866.58	211.68
866.89	211.73
867.20	211.65
867.51	211.65
867.82	211.58
868.13	211.65
868.44	211.66
868.75	211.76
869.06	211.76
869.37	211.78
869.68	211.69
869.99	211.80
870.30	211.82
870.61	211.85
870.92	211.77
871.23	211.79
871.54	211.78
871.85	211.83
872.16	211.90
872.47	211.96
872.78	211.89
873.09	211.95
873.40	211.94
873.71	212.00
874.02	212.01
874.33	212.00
874.64	211.97
874.95	211.99
875.26	211.89
875.56	211.86
875.87	211.85
876.18	211.85
876.49	212.02
876.80	212.02
877.11	211.95
877.42	211.99
877.73	212.01
878.04	211.98
878.35	211.97
878.66	211.95
878.96	211.88
879.27	211.85
879.58	211.77
879.89	211.78
880.20	211.78
880.51	211.80
880.82	211.84
881.12	211.84
881.43	211.82
881.74	211.86
882.05	211.89
882.36	211.86
882.67	211.92
882.97	211.63
883.28	211.56
883.59	211.54
883.90	211.59
884.21	211.65
884.51	211.71
884.82	211.68
885.13	211.66
885.44	211.68
885.74	211.67
886.05	211.65
886.36	211.65
886.67	211.65
886.98	211.69
887.28	211.74
887.59	211.76
887.90	211.71
888.20	211.67
888.51	211.73
888.82	211.68
889.13	211.69
889.43	211.88
889.74	211.90
890.05	211.93
890.35	211.91
890.66	211.86
890.97	211.79
891.28	211.83
891.58	211.78
891.89	211.71
892.20	211.68
892.50	211.64
892.81	211.61
893.12	211.54
893.42	211.43
893.73	211.39
894.04	211.38
894.34	211.39
894.65	211.41
894.95	211.38
895.26	211.41
895.57	211.42
895.87	211.20
896.18	211.20
896.48	211.20
896.79	211.15
897.10	211.17
897.40	211.15
897.71	211.10
898.01	211.10
898.32	211.14
898.63	211.15
898.93	211.15
899.24	211.11
899.54	211.16
899.85	211.15
900.15	211.09
900.46	211.07
900.76	211.14
901.07	211.13
901.38	211.06
901.68	211.10
901.99	211.07
902.29	211.14
902.60	211.14
902.90	211.13
903.21	211.13
903.51	211.07
903.82	211.10
904.12	211.13
904.43	211.15
904.73	211.17
905.03	211.17
905.34	211.32
905.64	211.35
905.95	211.34
906.25	211.40
906.56	211.41
906.86	211.44
907.17	211.43
907.47	211.36
907.77	211.36
908.08	211.34
908.38	211.22
908.69	211.23
908.99	211.30
909.30	211.30
909.60	211.28
909.90	211.25
910.21	211.22
910.51	211.12
910.81	211.10
911.12	211.11
911.42	211.13
911.73	210.97
912.03	210.94
912.33	210.96
912.64	210.96
912.94	210.96
913.24	210.87
913.55	210.81
913.85	210.83
914.15	210.85
914.46	210.85
914.76	210.90
915.06	210.91
915.37	210.88
915.67	210.84
915.97	210.81
916.27	210.81
916.58	210.81
916.88	210.90
917.18	210.94
917.49	210.98
917.79	210.98
918.09	210.98
918.39	211.08
918.70	211.05
919.00	211.00
919.30	211.07
919.60	211.13
919.91	211.14
920.21	211.17
920.51	211.16
920.81	211.15
921.12	211.14
921.42	211.12
921.72	211.08
922.02	211.11
922.32	211.18
922.63	211.26
922.93	211.34
923.23	211.23
923.53	211.20
923.83	211.16
924.13	211.12
924.44	211.18
924.74	211.22
925.04	211.24
925.34	211.26
925.64	211.21
925.94	211.22
926.24	211.29
926.55	211.31
926.85	211.38
927.15	211.36
927.45	211.43
927.75	211.42
928.05	211.43
928.35	211.37
928.65	211.35
928.95	211.33
929.26	211.27
929.56	211.33
929.86	211.32
930.16	211.22
930.46	211.24
930.76	211.25
931.06	211.16
931.36	211.09
931.66	211.09
931.96	211.08
932.26	211.06
932.56	211.01
932.86	211.01
933.16	211.01
933.46	211.05
933.76	210.95
934.06	211.02
934.36	211.11
934.66	211.14
934.96	211.15
935.26	211.17
935.56	211.22
935.86	211.24
936.16	211.21
936.46	211.28
936.76	211.28
937.06	211.25
937.36	211.28
937.66	211.32
937.96	211.28
938.26	211.23
938.56	211.27
938.86	211.25
939.16	211.30
939.46	211.22
939.76	211.17
940.06	211.27
940.35	211.20
940.65	211.13
940.95	211.12
941.25	211.06
941.55	211.00
941.85	210.91
942.15	210.97
942.45	211.00
942.75	210.95
943.04	210.96
943.34	210.94
943.64	210.89
943.94	210.90
944.24	210.94
944.54	210.98
944.84	210.95
945.13	210.91
945.43	210.90
945.73	210.91
946.03	210.88
946.33	210.81
946.62	210.83
946.92	210.79
947.22	210.85
947.52	210.86
947.82	210.92
948.11	210.95
948.41	210.88
948.71	210.80
949.01	210.85
949.31	210.81
949.60	210.85
949.90	210.84
950.20	210.77
950.50	210.80
950.79	210.82
951.09	210.83
951.39	210.83
951.69	210.80
951.98	210.86
952.28	210.90
952.58	210.89
952.87	210.86
953.17	210.87
953.47	210.80
953.76	210.88
954.06	210.83
954.36	210.79
954.66	210.75
954.95	210.82
955.25	210.87
955.55	211.00
955.84	210.93
956.14	210.99
956.44	211.03
956.73	210.97
957.03	210.98
957.32	210.98
957.62	210.92
957.92	210.85
958.21	210.81
958.51	211.04
958.81	211.05
959.10	211.08
959.40	211.16
959.69	211.18
959.99	211.14
960.29	211.15
960.58	211.14
960.88	211.27
961.17	211.31
961.47	211.29
961.76	211.18
962.06	211.23
962.36	211.17
962.65	211.18
962.95	211.14
963.24	211.06
963.54	211.05
963.83	211.09
964.13	211.16
964.42	211.15
964.72	210.95
965.01	210.92
965.31	210.91
965.60	210.87
965.90	210.96
966.19	210.91
966.49	210.85
966.78	210.89
967.08	210.82
967.37	210.80
967.67	210.75
967.96	210.77
968.26	210.77
968.55	210.82
968.85	210.76
969.14	210.82
969.43	210.86
969.73	210.91
970.02	210.94
970.32	210.89
970.61	210.90
970.91	210.89
971.20	210.94
971.49	210.90
971.79	210.92
972.08	210.81
972.38	210.86
972.67	210.93
972.96	210.90
973.26	210.83
973.55	210.89
973.85	210.95
974.14	210.95
974.43	210.99
974.73	210.99
975.02	210.98
975.31	211.04
975.61	211.02
975.90	210.99
976.19	210.99
976.49	211.01
976.78	211.01
977.07	211.07
977.37	211.12
977.66	211.12
977.95	211.08
978.24	211.05
978.54	211.04
978.83	210.98
979.12	211.01
979.42	211.11
979.71	211.09
980.00	211.02
980.29	211.00
980.59	210.98
980.88	211.03
981.17	211.09
981.46	211.03
981.76	211.02
982.05	211.01
982.34	211.03
982.63	211.08
982.93	211.11
983.22	211.11
983.51	211.03
983.80	211.09
984.09	211.07
984.39	211.13
984.68	211.17
984.97	211.18
985.26	211.20
985.55	211.14
985.85	211.11
986.14	211.18
986.43	211.18
986.72	211.20
987.01	211.19
987.30	211.16
987.59	211.19
987.89	211.24
988.18	211.25
988.47	211.21
988.76	211.10
989.05	211.06
989.34	211.01
989.63	211.05
989.92	211.01
990.22	211.00
990.51	210.97
990.80	210.92
991.09	210.95
991.38	210.91
991.67	210.94
991.96	210.98
992.25	210.91
992.54	210.93
992.83	210.92
993.12	210.82
993.41	210.80
993.70	210.90
993.99	210.85
994.28	210.81
994.58	210.82
994.87	210.94
995.16	210.92
995.45	210.95
995.74	210.90
996.03	210.91
996.32	210.96
996.61	211.00
996.90	211.01
997.19	211.04
997.48	211.05
997.77	211.05
998.06	210.98
998.34	211.02
998.63	211.00
998.92	210.92
999.21	211.01
999.50	211.06
999.79	210.92
1000.08	210.95
1000.37	211.03
1000.66	211.00
1000.95	210.95
1001.24	210.94
1001.53	210.93
1001.82	210.93
1002.11	210.95
1002.40	210.97
1002.68	211.01
1002.97	211.08
1003.26	211.00
1003.55	210.96
1003.84	210.98
1004.13	211.04
1004.42	211.05
1004.71	211.08
1004.99	211.09
1005.28	211.07
1005.57	211.01
1005.86	211.03
1006.15	211.04
1006.44	210.91
1006.72	210.98
1007.01	210.90
1007.30	210.87
1007.59	210.86
1007.88	210.82
1008.17	210.85
1008.45	210.76
1008.74	210.67
1009.03	210.56
1009.32	210.56
1009.60	210.55
1009.89	210.42
1010.18	210.40
1010.47	210.34
1010.76	210.25
1011.04	210.21
1011.33	210.19
1011.62	210.24
1011.91	210.22
1012.19	210.21
1012.48	210.22
1012.77	210.15
1013.05	210.26
1013.34	210.30
1013.63	210.34
1013.92	210.37
1014.20	210.28
1014.49	210.33
1014.78	210.31
1015.06	210.30
1015.35	210.36
1015.64	210.37
1015.92	210.47
1016.21	210.43
1016.50	210.47
1016.78	210.55
1017.07	210.62
1017.36	210.61
1017.64	210.60
1017.93	210.68
1018.22	210.64
1018.50	210.68
1018.79	210.76
1019.08	210.73
1019.36	210.69
1019.65	210.63
1019.93	210.74
1020.22	210.79
1020.51	210.84
1020.79	210.86
1021.08	210.25
1021.36	210.60
1021.65	211.80
1021.94	210.65
1022.22	209.85
1022.51	210.15
1022.79	212.45
1023.08	211.00
1023.36	212.20
1023.65	210.05
>>>>>End Processed Spectral Data<<<<<
