SpectraSuite Data File
++++++++++++++++++++++++++++++++++++
Date: Mon Feb 25 17:32:34 EST 2013
User: group
Dark Spectrum Present: No
Reference Spectrum Present: No
Number of Sampled Component Spectra: 1
Spectrometers: USB2E7196
Integration Time (usec): 52000 (USB2E7196)
Spectra Averaged: 20 (USB2E7196)
Boxcar Smoothing: 10 (USB2E7196)
Correct for Electrical Dark: No (USB2E7196)
Strobe/Lamp Enabled: No (USB2E7196)
Correct for Detector Non-linearity: No (USB2E7196)
Correct for Stray Light: No (USB2E7196)
Number of Pixels in Processed Spectrum: 2048
>>>>>Begin Processed Spectral Data<<<<<
339.09	0.00
339.48	197.40
339.86	200.50
340.24	202.10
340.63	202.15
341.01	208.10
341.39	205.15
341.78	207.55
342.16	209.60
342.54	208.55
342.93	198.30
343.31	208.35
343.69	209.00
344.07	209.42
344.46	209.85
344.84	210.28
345.22	210.42
345.60	210.69
345.99	210.97
346.37	211.12
346.75	211.27
347.13	211.35
347.52	211.33
347.90	211.52
348.28	211.53
348.66	211.69
349.05	211.71
349.43	211.80
349.81	211.84
350.19	211.97
350.57	212.04
350.96	212.15
351.34	212.29
351.72	212.38
352.10	212.57
352.48	212.64
352.87	212.72
353.25	212.81
353.63	212.89
354.01	212.93
354.39	212.95
354.77	213.04
355.15	213.13
355.54	213.11
355.92	213.06
356.30	213.15
356.68	213.35
357.06	213.47
357.44	213.49
357.82	213.55
358.20	213.54
358.58	213.64
358.97	213.64
359.35	213.66
359.73	213.65
360.11	213.62
360.49	213.70
360.87	213.71
361.25	213.76
361.63	213.81
362.01	213.82
362.39	213.85
362.77	213.84
363.15	213.85
363.53	213.93
363.91	214.00
364.29	213.98
364.67	213.76
365.05	213.73
365.43	213.72
365.81	213.71
366.19	213.87
366.57	213.90
366.95	213.93
367.33	213.91
367.71	213.98
368.09	213.98
368.47	213.97
368.85	213.91
369.23	213.88
369.61	213.90
369.99	213.89
370.37	213.91
370.75	213.92
371.13	213.86
371.51	213.85
371.89	213.76
372.27	213.79
372.65	213.77
373.03	213.77
373.41	213.81
373.78	213.77
374.16	213.64
374.54	213.55
374.92	213.47
375.30	213.44
375.68	213.42
376.06	213.42
376.44	213.39
376.82	213.43
377.19	213.48
377.57	213.39
377.95	213.34
378.33	213.24
378.71	213.18
379.09	213.09
379.47	213.05
379.84	213.01
380.22	212.96
380.60	212.85
380.98	212.70
381.36	212.67
381.73	212.60
382.11	212.53
382.49	212.43
382.87	212.36
383.25	212.31
383.62	212.40
384.00	212.38
384.38	212.33
384.76	212.45
385.13	212.42
385.51	212.38
385.89	212.35
386.27	212.29
386.64	212.31
387.02	212.29
387.40	212.23
387.78	212.20
388.15	212.18
388.53	212.20
388.91	212.26
389.29	212.19
389.66	212.24
390.04	212.15
390.42	212.27
390.79	212.31
391.17	212.29
391.55	212.08
391.92	212.04
392.30	211.99
392.68	211.82
393.05	211.79
393.43	211.81
393.81	211.74
394.18	211.69
394.56	211.61
394.94	211.66
395.31	211.60
395.69	211.63
396.06	211.67
396.44	211.70
396.82	211.71
397.19	211.79
397.57	211.80
397.95	211.81
398.32	211.69
398.70	211.79
399.07	211.80
399.45	211.82
399.82	211.81
400.20	211.82
400.58	211.80
400.95	211.76
401.33	211.85
401.70	212.05
402.08	212.16
402.45	212.28
402.83	212.33
403.20	212.49
403.58	212.60
403.95	212.61
404.33	212.70
404.71	212.73
405.08	212.91
405.46	213.01
405.83	213.25
406.21	213.42
406.58	213.49
406.96	213.67
407.33	213.90
407.70	214.15
408.08	214.56
408.45	214.89
408.83	215.15
409.20	215.33
409.58	215.48
409.95	215.81
410.33	216.10
410.70	216.40
411.08	216.70
411.45	217.04
411.82	217.44
412.20	217.89
412.57	218.53
412.95	218.83
413.32	219.24
413.69	219.74
414.07	220.27
414.44	220.93
414.82	221.52
415.19	222.18
415.56	222.91
415.94	223.62
416.31	224.41
416.68	225.35
417.06	226.40
417.43	227.39
417.81	228.40
418.18	229.60
418.55	230.81
418.93	232.11
419.30	233.35
419.67	234.73
420.04	236.16
420.42	237.66
420.79	239.46
421.16	241.26
421.54	243.07
421.91	244.94
422.28	246.86
422.66	248.96
423.03	251.14
423.40	253.18
423.77	255.34
424.15	257.51
424.52	259.76
424.89	262.23
425.26	264.64
425.64	267.01
426.01	269.57
426.38	272.21
426.75	274.93
427.13	277.76
427.50	280.71
427.87	283.73
428.24	286.61
428.61	289.44
428.99	292.67
429.36	296.15
429.73	299.63
430.10	303.07
430.47	306.62
430.85	310.19
431.22	314.03
431.59	318.16
431.96	322.13
432.33	326.55
432.70	330.80
433.08	335.78
433.45	340.45
433.82	344.98
434.19	350.17
434.56	355.07
434.93	359.91
435.30	364.69
435.68	369.82
436.05	374.96
436.42	380.20
436.79	384.93
437.16	389.90
437.53	395.18
437.90	400.32
438.27	405.53
438.64	410.84
439.01	415.85
439.38	420.21
439.75	424.50
440.13	429.24
440.50	433.74
440.87	437.42
441.24	441.15
441.61	445.36
441.98	448.26
442.35	451.96
442.72	455.52
443.09	459.03
443.46	461.10
443.83	462.64
444.20	463.79
444.57	465.45
444.94	466.38
445.31	467.22
445.68	467.80
446.05	467.97
446.42	467.31
446.79	466.54
447.16	465.66
447.53	465.07
447.90	462.82
448.27	460.67
448.64	457.83
449.01	455.77
449.37	452.02
449.74	448.52
450.11	444.35
450.48	440.00
450.85	435.29
451.22	431.51
451.59	427.78
451.96	424.14
452.33	419.35
452.70	414.82
453.07	409.67
453.43	404.67
453.80	399.58
454.17	394.85
454.54	390.47
454.91	385.71
455.28	380.94
455.65	376.72
456.02	372.46
456.38	368.71
456.75	364.03
457.12	360.35
457.49	356.63
457.86	352.92
458.23	349.58
458.59	346.25
458.96	342.74
459.33	339.57
459.70	336.46
460.07	333.99
460.43	331.24
460.80	328.51
461.17	326.14
461.54	323.75
461.91	321.36
462.27	318.88
462.64	316.78
463.01	314.65
463.38	312.57
463.74	310.40
464.11	308.47
464.48	306.93
464.85	305.12
465.21	303.79
465.58	302.35
465.95	300.61
466.32	299.16
466.68	297.73
467.05	296.33
467.42	295.01
467.78	293.59
468.15	292.25
468.52	291.20
468.88	289.92
469.25	288.79
469.62	287.89
469.98	286.89
470.35	285.94
470.72	285.03
471.08	284.06
471.45	283.25
471.82	282.55
472.18	281.75
472.55	281.14
472.92	280.44
473.28	279.82
473.65	279.29
474.02	278.66
474.38	278.23
474.75	277.90
475.11	277.48
475.48	277.28
475.85	277.15
476.21	277.00
476.58	276.97
476.94	276.85
477.31	276.72
477.67	276.75
478.04	276.84
478.41	276.90
478.77	277.14
479.14	277.30
479.50	277.53
479.87	277.86
480.23	278.29
480.60	278.67
480.96	279.17
481.33	279.90
481.69	280.60
482.06	281.21
482.42	281.80
482.79	282.45
483.15	283.29
483.52	284.26
483.88	285.21
484.25	286.19
484.61	287.33
484.98	288.58
485.34	289.78
485.71	291.20
486.07	292.66
486.44	294.05
486.80	295.53
487.17	297.04
487.53	298.83
487.90	300.62
488.26	302.59
488.62	304.66
488.99	306.61
489.35	308.70
489.72	310.94
490.08	313.35
490.44	315.87
490.81	318.50
491.17	321.08
491.54	324.03
491.90	326.97
492.26	330.22
492.63	333.49
492.99	336.97
493.36	340.52
493.72	344.27
494.08	348.32
494.45	352.57
494.81	357.07
495.17	361.58
495.54	366.33
495.90	371.38
496.26	376.50
496.63	381.92
496.99	387.59
497.35	393.55
497.72	399.85
498.08	406.33
498.44	413.14
498.80	420.38
499.17	427.78
499.53	435.49
499.89	443.44
500.26	451.45
500.62	459.75
500.98	468.55
501.34	477.66
501.71	486.93
502.07	496.58
502.43	506.49
502.79	516.75
503.16	527.53
503.52	538.43
503.88	549.65
504.24	561.37
504.60	573.33
504.97	585.72
505.33	598.27
505.69	611.54
506.05	624.95
506.41	638.30
506.78	651.92
507.14	666.04
507.50	680.56
507.86	695.62
508.22	711.13
508.59	726.73
508.95	742.73
509.31	759.15
509.67	775.91
510.03	792.80
510.39	810.23
510.75	827.80
511.12	845.82
511.48	863.97
511.84	882.55
512.20	901.41
512.56	920.45
512.92	939.95
513.28	959.43
513.64	978.97
514.00	999.20
514.37	1019.54
514.73	1040.15
515.09	1060.82
515.45	1081.62
515.81	1102.67
516.17	1124.01
516.53	1145.53
516.89	1166.92
517.25	1188.45
517.61	1210.15
517.97	1231.57
518.33	1253.28
518.69	1274.88
519.05	1297.43
519.41	1319.60
519.77	1341.80
520.13	1363.85
520.49	1385.89
520.85	1408.45
521.21	1431.14
521.57	1453.92
521.93	1475.82
522.29	1498.72
522.65	1521.00
523.01	1543.56
523.37	1565.52
523.73	1587.83
524.09	1609.88
524.45	1632.21
524.81	1654.40
525.17	1676.91
525.53	1699.18
525.89	1721.71
526.25	1743.65
526.61	1764.74
526.97	1786.39
527.33	1807.81
527.68	1829.58
528.04	1850.55
528.40	1870.73
528.76	1891.11
529.12	1911.46
529.48	1933.23
529.84	1953.37
530.20	1973.77
530.56	1994.35
530.91	2015.15
531.27	2035.43
531.63	2055.18
531.99	2074.90
532.35	2094.13
532.71	2113.06
533.07	2132.64
533.42	2150.65
533.78	2169.65
534.14	2187.93
534.50	2204.85
534.86	2222.72
535.21	2239.35
535.57	2257.07
535.93	2274.47
536.29	2291.36
536.65	2307.91
537.00	2323.42
537.36	2338.74
537.72	2354.14
538.08	2368.95
538.44	2384.00
538.79	2398.94
539.15	2413.85
539.51	2428.14
539.87	2443.16
540.22	2457.64
540.58	2472.40
540.94	2487.07
541.29	2500.20
541.65	2512.39
542.01	2526.05
542.37	2537.88
542.72	2549.79
543.08	2560.72
543.44	2572.35
543.79	2582.68
544.15	2593.13
544.51	2604.07
544.87	2614.97
545.22	2623.88
545.58	2632.53
545.94	2639.62
546.29	2646.33
546.65	2652.45
547.01	2658.80
547.36	2664.63
547.72	2670.00
548.07	2673.81
548.43	2677.04
548.79	2680.80
549.14	2685.32
549.50	2689.15
549.86	2693.13
550.21	2697.44
550.57	2701.62
550.92	2704.37
551.28	2706.88
551.64	2709.15
551.99	2711.46
552.35	2713.01
552.70	2715.81
553.06	2718.33
553.41	2721.34
553.77	2724.23
554.13	2726.78
554.48	2729.25
554.84	2730.54
555.19	2731.15
555.55	2731.47
555.90	2732.34
556.26	2732.20
556.61	2732.17
556.97	2730.82
557.32	2730.50
557.68	2728.50
558.03	2727.08
558.39	2725.50
558.74	2725.19
559.10	2723.71
559.45	2721.83
559.81	2720.68
560.16	2717.81
560.52	2715.04
560.87	2711.97
561.23	2708.22
561.58	2705.46
561.94	2701.62
562.29	2697.71
562.64	2695.39
563.00	2693.27
563.35	2691.09
563.71	2689.98
564.06	2687.97
564.42	2686.24
564.77	2683.46
565.12	2681.70
565.48	2678.31
565.83	2675.43
566.19	2672.18
566.54	2668.47
566.89	2664.67
567.25	2660.49
567.60	2657.59
567.96	2654.28
568.31	2650.96
568.66	2647.23
569.02	2642.63
569.37	2637.67
569.72	2633.81
570.08	2628.66
570.43	2622.90
570.78	2617.35
571.14	2610.99
571.49	2603.90
571.84	2598.18
572.20	2591.68
572.55	2585.20
572.90	2578.57
573.26	2571.38
573.61	2564.26
573.96	2557.61
574.31	2549.70
574.67	2541.61
575.02	2532.76
575.37	2524.31
575.72	2515.48
576.08	2507.87
576.43	2499.14
576.78	2491.38
577.13	2483.70
577.49	2475.33
577.84	2467.75
578.19	2460.23
578.54	2452.58
578.90	2445.95
579.25	2436.95
579.60	2427.46
579.95	2417.75
580.30	2409.58
580.66	2401.68
581.01	2392.26
581.36	2383.07
581.71	2374.56
582.06	2366.24
582.42	2358.10
582.77	2348.91
583.12	2339.92
583.47	2330.99
583.82	2323.12
584.17	2314.04
584.53	2304.75
584.88	2295.90
585.23	2286.62
585.58	2276.63
585.93	2266.81
586.28	2257.60
586.63	2248.84
586.98	2240.73
587.34	2232.78
587.69	2223.90
588.04	2214.80
588.39	2206.91
588.74	2198.10
589.09	2189.41
589.44	2179.90
589.79	2171.86
590.14	2164.06
590.49	2155.79
590.84	2146.62
591.19	2138.27
591.54	2129.36
591.89	2119.51
592.25	2110.84
592.60	2101.48
592.95	2092.15
593.30	2082.72
593.65	2072.80
594.00	2063.18
594.35	2055.11
594.70	2046.04
595.05	2037.11
595.40	2028.40
595.75	2018.72
596.10	2010.42
596.45	2001.87
596.80	1994.54
597.15	1985.98
597.50	1976.75
597.85	1967.94
598.19	1959.49
598.54	1950.78
598.89	1943.01
599.24	1936.15
599.59	1928.56
599.94	1921.66
600.29	1914.15
600.64	1906.45
600.99	1898.24
601.34	1891.10
601.69	1882.04
602.04	1874.01
602.39	1866.09
602.74	1858.12
603.08	1851.69
603.43	1844.33
603.78	1836.36
604.13	1827.98
604.48	1819.93
604.83	1813.04
605.18	1806.48
605.53	1799.03
605.87	1791.46
606.22	1784.53
606.57	1776.60
606.92	1768.15
607.27	1759.78
607.62	1752.43
607.96	1745.54
608.31	1739.52
608.66	1731.85
609.01	1724.58
609.36	1717.06
609.70	1709.10
610.05	1701.33
610.40	1692.95
610.75	1684.66
611.10	1677.24
611.44	1668.20
611.79	1659.24
612.14	1649.85
612.49	1640.17
612.83	1631.32
613.18	1621.71
613.53	1612.15
613.88	1602.28
614.22	1593.33
614.57	1584.14
614.92	1574.77
615.27	1565.23
615.61	1555.24
615.96	1546.36
616.31	1537.81
616.65	1529.86
617.00	1521.47
617.35	1513.01
617.70	1504.15
618.04	1495.05
618.39	1485.78
618.74	1477.55
619.08	1469.18
619.43	1461.10
619.78	1453.30
620.12	1445.38
620.47	1437.82
620.82	1429.20
621.16	1421.24
621.51	1413.27
621.85	1405.16
622.20	1396.83
622.55	1388.65
622.89	1380.77
623.24	1372.67
623.59	1364.02
623.93	1355.13
624.28	1346.80
624.62	1338.52
624.97	1330.35
625.32	1322.72
625.66	1315.23
626.01	1307.97
626.35	1300.61
626.70	1292.71
627.04	1285.21
627.39	1277.49
627.73	1269.96
628.08	1263.20
628.43	1255.76
628.77	1248.30
629.12	1240.81
629.46	1234.11
629.81	1226.95
630.15	1219.53
630.50	1212.04
630.84	1204.63
631.19	1197.56
631.53	1190.80
631.88	1183.27
632.22	1175.59
632.57	1168.47
632.91	1161.12
633.26	1153.77
633.60	1146.53
633.95	1139.96
634.29	1132.72
634.64	1126.28
634.98	1119.08
635.32	1112.08
635.67	1105.77
636.01	1099.28
636.36	1092.68
636.70	1086.05
637.05	1079.38
637.39	1073.25
637.73	1066.98
638.08	1061.55
638.42	1055.93
638.77	1049.45
639.11	1043.25
639.45	1037.47
639.80	1030.86
640.14	1024.43
640.49	1018.13
640.83	1012.05
641.17	1005.69
641.52	999.68
641.86	993.00
642.20	986.90
642.55	980.31
642.89	973.74
643.23	967.24
643.58	961.42
643.92	954.87
644.26	948.82
644.61	942.62
644.95	936.55
645.29	930.19
645.64	923.30
645.98	917.21
646.32	911.29
646.66	905.30
647.01	899.61
647.35	893.76
647.69	887.45
648.04	881.60
648.38	875.67
648.72	869.70
649.06	863.68
649.41	857.75
649.75	851.87
650.09	846.26
650.43	840.45
650.78	834.14
651.12	828.18
651.46	822.29
651.80	816.27
652.14	810.20
652.49	804.05
652.83	798.38
653.17	792.19
653.51	786.40
653.85	780.62
654.20	774.72
654.54	768.90
654.88	763.59
655.22	757.63
655.56	751.68
655.90	745.67
656.25	739.90
656.59	734.32
656.93	729.22
657.27	723.84
657.61	718.26
657.95	713.15
658.29	708.07
658.64	703.07
658.98	697.76
659.32	692.52
659.66	687.41
660.00	682.03
660.34	676.93
660.68	671.77
661.02	666.83
661.36	662.03
661.70	657.15
662.05	652.27
662.39	647.75
662.73	643.60
663.07	639.43
663.41	635.25
663.75	630.86
664.09	626.04
664.43	621.35
664.77	617.15
665.11	612.59
665.45	608.30
665.79	603.83
666.13	599.62
666.47	595.51
666.81	591.47
667.15	587.55
667.49	583.94
667.83	580.10
668.17	576.07
668.51	572.27
668.85	568.65
669.19	565.00
669.53	561.12
669.87	557.13
670.21	553.25
670.55	549.22
670.89	545.71
671.23	542.52
671.57	539.19
671.91	535.47
672.25	532.04
672.58	528.43
672.92	524.93
673.26	521.72
673.60	518.40
673.94	515.01
674.28	511.67
674.62	508.26
674.96	504.95
675.30	501.91
675.64	498.77
675.97	495.66
676.31	492.58
676.65	489.74
676.99	487.04
677.33	483.97
677.67	481.17
678.01	478.02
678.34	474.97
678.68	471.87
679.02	469.06
679.36	466.17
679.70	463.33
680.04	460.43
680.37	457.51
680.71	454.73
681.05	452.08
681.39	449.38
681.73	446.71
682.06	444.17
682.40	441.45
682.74	438.82
683.08	436.13
683.42	433.55
683.75	430.96
684.09	428.24
684.43	425.85
684.77	423.27
685.10	420.85
685.44	418.21
685.78	415.88
686.12	413.59
686.45	411.31
686.79	409.17
687.13	407.07
687.46	404.89
687.80	402.77
688.14	400.45
688.48	398.37
688.81	396.28
689.15	394.14
689.49	391.95
689.82	389.73
690.16	387.46
690.50	385.14
690.83	382.89
691.17	380.73
691.51	378.50
691.84	376.46
692.18	374.44
692.52	372.61
692.85	370.66
693.19	368.84
693.52	366.85
693.86	364.85
694.20	362.97
694.53	361.08
694.87	359.13
695.21	357.28
695.54	355.31
695.88	353.32
696.21	351.42
696.55	349.66
696.88	347.96
697.22	346.23
697.56	344.67
697.89	343.10
698.23	341.43
698.56	339.87
698.90	338.36
699.23	336.68
699.57	335.12
699.90	333.49
700.24	331.74
700.58	330.22
700.91	328.62
701.25	327.19
701.58	325.76
701.92	324.22
702.25	322.81
702.59	321.40
702.92	320.07
703.26	318.74
703.59	317.51
703.93	316.38
704.26	315.28
704.60	314.02
704.93	312.69
705.26	311.49
705.60	310.30
705.93	309.03
706.27	307.93
706.60	306.73
706.94	305.67
707.27	304.51
707.61	303.38
707.94	302.29
708.27	301.03
708.61	299.88
708.94	298.88
709.28	297.83
709.61	296.75
709.94	295.80
710.28	294.73
710.61	293.70
710.95	292.45
711.28	291.49
711.61	290.35
711.95	289.40
712.28	288.40
712.61	287.35
712.95	286.46
713.28	285.53
713.61	284.54
713.95	283.61
714.28	282.69
714.61	281.82
714.95	280.98
715.28	280.05
715.61	279.15
715.95	278.29
716.28	277.40
716.61	276.54
716.95	275.60
717.28	274.77
717.61	273.94
717.94	273.18
718.28	272.19
718.61	271.60
718.94	270.79
719.27	269.92
719.61	269.31
719.94	268.60
720.27	267.90
720.60	267.20
720.94	266.49
721.27	265.81
721.60	265.13
721.93	264.42
722.27	263.93
722.60	263.33
722.93	262.67
723.26	262.08
723.59	261.54
723.93	261.02
724.26	260.46
724.59	259.91
724.92	259.41
725.25	259.00
725.59	258.38
725.92	257.95
726.25	257.56
726.58	256.96
726.91	256.41
727.24	255.85
727.57	255.40
727.91	254.85
728.24	254.33
728.57	253.89
728.90	253.40
729.23	252.79
729.56	252.40
729.89	251.97
730.22	251.43
730.55	250.92
730.89	250.43
731.22	249.98
731.55	249.51
731.88	249.00
732.21	248.47
732.54	247.96
732.87	247.47
733.20	246.98
733.53	246.59
733.86	246.10
734.19	245.69
734.52	245.28
734.85	245.05
735.18	244.75
735.51	244.36
735.84	244.09
736.17	243.78
736.50	243.31
736.83	243.10
737.16	242.89
737.49	242.50
737.82	242.12
738.15	241.82
738.48	241.43
738.81	241.10
739.14	240.76
739.47	240.41
739.80	240.05
740.13	239.77
740.46	239.37
740.79	239.06
741.12	238.72
741.45	238.43
741.78	238.04
742.11	237.76
742.44	237.47
742.77	237.18
743.10	236.89
743.43	236.59
743.75	236.07
744.08	236.04
744.41	235.73
744.74	235.43
745.07	235.14
745.40	234.98
745.73	234.75
746.06	234.45
746.39	234.23
746.71	234.00
747.04	233.70
747.37	233.47
747.70	233.25
748.03	232.97
748.36	232.79
748.68	232.56
749.01	232.21
749.34	231.93
749.67	231.73
750.00	231.46
750.33	231.39
750.65	231.22
750.98	230.65
751.31	230.45
751.64	230.22
751.97	230.01
752.29	229.70
752.62	229.42
752.95	229.22
753.28	228.99
753.60	228.79
753.93	228.61
754.26	228.37
754.59	228.04
754.91	227.81
755.24	227.48
755.57	227.19
755.90	227.00
756.22	226.80
756.55	226.50
756.88	226.29
757.20	225.99
757.53	225.64
757.86	225.51
758.19	225.32
758.51	225.15
758.84	224.94
759.17	224.74
759.49	224.57
759.82	224.48
760.15	224.33
760.47	224.13
760.80	223.89
761.13	223.80
761.45	223.76
761.78	223.62
762.11	223.47
762.43	223.27
762.76	223.19
763.08	223.07
763.41	222.91
763.74	222.78
764.06	222.64
764.39	222.65
764.71	222.42
765.04	222.39
765.37	222.25
765.69	222.07
766.02	221.98
766.34	221.89
766.67	221.71
767.00	221.63
767.32	221.63
767.65	221.55
767.97	221.36
768.30	221.21
768.62	221.13
768.95	221.02
769.27	220.94
769.60	220.78
769.92	220.60
770.25	220.48
770.57	220.35
770.90	220.13
771.22	219.98
771.55	219.87
771.87	219.71
772.20	219.58
772.52	219.62
772.85	219.75
773.17	219.65
773.50	219.55
773.82	219.38
774.15	219.14
774.47	219.04
774.80	218.96
775.12	218.89
775.45	218.78
775.77	218.68
776.09	218.64
776.42	218.59
776.74	218.64
777.07	218.53
777.39	218.56
777.72	218.54
778.04	218.49
778.36	218.36
778.69	218.27
779.01	218.24
779.33	218.00
779.66	217.65
779.98	217.45
780.31	217.40
780.63	217.42
780.95	217.44
781.28	217.37
781.60	217.32
781.92	217.24
782.25	217.16
782.57	217.13
782.89	217.09
783.22	217.00
783.54	216.85
783.86	216.83
784.19	216.68
784.51	216.66
784.83	216.54
785.16	216.50
785.48	216.50
785.80	216.46
786.12	216.51
786.45	216.49
786.77	216.53
787.09	216.48
787.42	216.41
787.74	216.35
788.06	216.28
788.38	216.22
788.71	216.15
789.03	216.12
789.35	216.08
789.67	216.04
789.99	216.03
790.32	216.00
790.64	215.99
790.96	216.02
791.28	215.95
791.61	215.88
791.93	215.88
792.25	215.82
792.57	215.89
792.89	215.72
793.21	215.70
793.54	215.66
793.86	215.57
794.18	215.47
794.50	215.32
794.82	215.27
795.14	215.23
795.47	215.22
795.79	215.17
796.11	215.09
796.43	215.00
796.75	214.99
797.07	214.96
797.39	214.89
797.71	214.76
798.04	214.73
798.36	214.77
798.68	214.78
799.00	214.75
799.32	214.56
799.64	214.61
799.96	214.62
800.28	214.63
800.60	214.57
800.92	214.63
801.24	214.67
801.56	214.79
801.89	214.72
802.21	214.67
802.53	214.62
802.85	214.71
803.17	214.82
803.49	214.79
803.81	214.76
804.13	214.76
804.45	214.72
804.77	214.63
805.09	214.57
805.41	214.49
805.73	214.45
806.05	214.45
806.37	214.46
806.69	214.41
807.01	214.36
807.33	214.36
807.65	214.33
807.97	214.34
808.28	214.23
808.60	214.19
808.92	214.13
809.24	214.32
809.56	214.22
809.88	214.05
810.20	214.07
810.52	214.01
810.84	213.94
811.16	213.95
811.48	213.98
811.80	214.04
812.12	214.03
812.43	214.04
812.75	214.04
813.07	213.98
813.39	213.88
813.71	213.84
814.03	213.80
814.35	213.71
814.67	213.68
814.98	213.58
815.30	213.51
815.62	213.46
815.94	213.30
816.26	213.28
816.58	213.27
816.89	213.14
817.21	213.09
817.53	213.14
817.85	213.07
818.17	213.12
818.48	213.05
818.80	213.08
819.12	212.96
819.44	212.89
819.76	212.85
820.07	212.87
820.39	212.86
820.71	212.88
821.03	212.88
821.34	212.78
821.66	212.81
821.98	212.92
822.30	212.90
822.61	212.95
822.93	212.89
823.25	212.92
823.57	212.91
823.88	212.94
824.20	212.88
824.52	212.89
824.83	212.77
825.15	212.71
825.47	212.69
825.79	212.71
826.10	212.66
826.42	212.57
826.74	212.55
827.05	212.53
827.37	212.55
827.69	212.49
828.00	212.49
828.32	212.46
828.64	212.36
828.95	212.50
829.27	212.45
829.58	212.46
829.90	212.41
830.22	212.47
830.53	212.38
830.85	212.36
831.17	212.32
831.48	212.35
831.80	212.30
832.11	212.31
832.43	212.21
832.75	212.22
833.06	212.33
833.38	212.34
833.69	212.33
834.01	212.23
834.32	212.21
834.64	212.21
834.96	212.25
835.27	212.30
835.59	212.23
835.90	212.16
836.22	212.15
836.53	212.09
836.85	212.00
837.16	212.20
837.48	212.21
837.79	212.23
838.11	212.23
838.42	212.31
838.74	212.29
839.05	212.36
839.37	212.36
839.68	212.29
840.00	212.20
840.31	212.13
840.63	212.18
840.94	212.18
841.26	212.15
841.57	212.10
841.88	212.04
842.20	211.99
842.51	211.93
842.83	211.89
843.14	212.01
843.46	212.02
843.77	211.83
844.08	211.75
844.40	211.75
844.71	211.65
845.03	211.54
845.34	211.57
845.65	211.55
845.97	211.52
846.28	211.57
846.60	211.63
846.91	211.64
847.22	211.65
847.54	211.69
847.85	211.70
848.16	211.61
848.48	211.62
848.79	211.69
849.10	211.76
849.42	211.75
849.73	211.61
850.04	211.60
850.36	211.64
850.67	211.65
850.98	211.64
851.30	211.72
851.61	211.77
851.92	211.69
852.23	211.77
852.55	211.83
852.86	211.75
853.17	211.71
853.49	211.70
853.80	211.73
854.11	211.73
854.42	211.79
854.74	211.82
855.05	211.74
855.36	211.69
855.67	211.59
855.99	211.58
856.30	211.82
856.61	211.86
856.92	211.81
857.23	211.88
857.55	211.86
857.86	211.85
858.17	211.88
858.48	211.86
858.79	211.80
859.11	211.81
859.42	211.83
859.73	211.87
860.04	211.90
860.35	211.84
860.66	211.80
860.98	211.82
861.29	211.79
861.60	211.84
861.91	211.81
862.22	211.79
862.53	211.81
862.84	211.59
863.16	211.55
863.47	211.55
863.78	211.53
864.09	211.53
864.40	211.46
864.71	211.46
865.02	211.44
865.33	211.40
865.64	211.30
865.95	211.32
866.27	211.39
866.58	211.37
866.89	211.38
867.20	211.40
867.51	211.34
867.82	211.40
868.13	211.38
868.44	211.36
868.75	211.43
869.06	211.47
869.37	211.49
869.68	211.37
869.99	211.37
870.30	211.34
870.61	211.38
870.92	211.38
871.23	211.40
871.54	211.42
871.85	211.45
872.16	211.47
872.47	211.41
872.78	211.29
873.09	211.27
873.40	211.15
873.71	211.18
874.02	211.20
874.33	211.19
874.64	211.18
874.95	211.20
875.26	211.14
875.56	211.11
875.87	211.08
876.18	211.20
876.49	211.33
876.80	211.38
877.11	211.32
877.42	211.40
877.73	211.34
878.04	211.34
878.35	211.33
878.66	211.29
878.96	211.25
879.27	211.29
879.58	211.27
879.89	211.29
880.20	211.31
880.51	211.25
880.82	211.19
881.12	211.19
881.43	211.20
881.74	211.21
882.05	211.19
882.36	211.21
882.67	211.19
882.97	211.04
883.28	210.89
883.59	210.86
883.90	210.82
884.21	210.89
884.51	210.86
884.82	210.89
885.13	210.92
885.44	211.00
885.74	211.00
886.05	211.01
886.36	211.05
886.67	210.97
886.98	211.08
887.28	211.13
887.59	211.19
887.90	211.17
888.20	211.14
888.51	211.18
888.82	211.14
889.13	211.18
889.43	211.33
889.74	211.39
890.05	211.44
890.35	211.47
890.66	211.45
890.97	211.47
891.28	211.40
891.58	211.34
891.89	211.34
892.20	211.32
892.50	211.33
892.81	211.32
893.12	211.28
893.42	211.25
893.73	211.22
894.04	211.23
894.34	211.25
894.65	211.35
894.95	211.28
895.26	211.27
895.57	211.35
895.87	211.24
896.18	211.32
896.48	211.33
896.79	211.28
897.10	211.27
897.40	211.31
897.71	211.40
898.01	211.45
898.32	211.44
898.63	211.41
898.93	211.44
899.24	211.47
899.54	211.51
899.85	211.50
900.15	211.55
900.46	211.55
900.76	211.58
901.07	211.55
901.38	211.63
901.68	211.70
901.99	211.59
902.29	211.55
902.60	211.55
902.90	211.58
903.21	211.65
903.51	211.61
903.82	211.65
904.12	211.60
904.43	211.63
904.73	211.65
905.03	211.64
905.34	211.78
905.64	211.84
905.95	211.87
906.25	211.80
906.56	211.80
906.86	211.84
907.17	211.79
907.47	211.79
907.77	211.80
908.08	211.81
908.38	211.79
908.69	211.82
908.99	211.85
909.30	211.81
909.60	211.75
909.90	211.77
910.21	211.70
910.51	211.72
910.81	211.75
911.12	211.77
911.42	211.74
911.73	211.56
912.03	211.52
912.33	211.52
912.64	211.53
912.94	211.53
913.24	211.44
913.55	211.48
913.85	211.49
914.15	211.47
914.46	211.52
914.76	211.52
915.06	211.53
915.37	211.43
915.67	211.38
915.97	211.41
916.27	211.40
916.58	211.41
916.88	211.41
917.18	211.33
917.49	211.41
917.79	211.44
918.09	211.49
918.39	211.50
918.70	211.50
919.00	211.47
919.30	211.46
919.60	211.50
919.91	211.51
920.21	211.49
920.51	211.46
920.81	211.42
921.12	211.39
921.42	211.39
921.72	211.47
922.02	211.55
922.32	211.58
922.63	211.61
922.93	211.69
923.23	211.66
923.53	211.75
923.83	211.65
924.13	211.74
924.44	211.65
924.74	211.69
925.04	211.77
925.34	211.86
925.64	211.85
925.94	211.85
926.24	211.90
926.55	211.92
926.85	211.96
927.15	211.93
927.45	212.03
927.75	212.02
928.05	212.01
928.35	211.95
928.65	211.92
928.95	211.95
929.26	211.90
929.56	211.99
929.86	211.99
930.16	212.02
930.46	211.95
930.76	212.03
931.06	211.95
931.36	211.85
931.66	211.84
931.96	211.85
932.26	211.87
932.56	211.79
932.86	211.75
933.16	211.79
933.46	211.78
933.76	211.77
934.06	211.80
934.36	211.79
934.66	211.82
934.96	211.82
935.26	211.80
935.56	211.80
935.86	211.70
936.16	211.60
936.46	211.54
936.76	211.51
937.06	211.54
937.36	211.61
937.66	211.64
937.96	211.57
938.26	211.57
938.56	211.54
938.86	211.55
939.16	211.57
939.46	211.53
939.76	211.54
940.06	211.47
940.35	211.46
940.65	211.41
940.95	211.44
941.25	211.39
941.55	211.35
941.85	211.36
942.15	211.38
942.45	211.47
942.75	211.52
943.04	211.52
943.34	211.51
943.64	211.45
943.94	211.38
944.24	211.39
944.54	211.34
944.84	211.30
945.13	211.24
945.43	211.19
945.73	211.18
946.03	211.11
946.33	211.05
946.62	211.07
946.92	211.06
947.22	211.05
947.52	211.10
947.82	211.17
948.11	211.10
948.41	211.14
948.71	211.10
949.01	211.06
949.31	211.04
949.60	210.97
949.90	211.00
950.20	211.00
950.50	211.03
950.79	210.97
951.09	211.02
951.39	211.04
951.69	211.02
951.98	211.08
952.28	211.11
952.58	211.14
952.87	211.09
953.17	211.09
953.47	211.08
953.76	211.00
954.06	210.85
954.36	210.82
954.66	210.74
954.95	210.74
955.25	210.75
955.55	210.78
955.84	210.81
956.14	210.81
956.44	210.80
956.73	210.77
957.03	210.90
957.32	210.88
957.62	210.88
957.92	210.92
958.21	210.92
958.51	211.15
958.81	211.23
959.10	211.22
959.40	211.28
959.69	211.30
959.99	211.38
960.29	211.50
960.58	211.50
960.88	211.66
961.17	211.65
961.47	211.66
961.76	211.68
962.06	211.68
962.36	211.66
962.65	211.68
962.95	211.71
963.24	211.65
963.54	211.69
963.83	211.73
964.13	211.71
964.42	211.59
964.72	211.41
965.01	211.39
965.31	211.39
965.60	211.31
965.90	211.37
966.19	211.33
966.49	211.32
966.78	211.30
967.08	211.22
967.37	211.23
967.67	211.16
967.96	211.19
968.26	211.20
968.55	211.25
968.85	211.27
969.14	211.24
969.43	211.23
969.73	211.17
970.02	211.10
970.32	211.12
970.61	211.15
970.91	211.06
971.20	210.99
971.49	210.94
971.79	210.92
972.08	210.82
972.38	210.76
972.67	210.75
972.96	210.81
973.26	210.79
973.55	210.92
973.85	211.01
974.14	211.00
974.43	210.98
974.73	210.91
975.02	210.89
975.31	210.87
975.61	210.85
975.90	210.91
976.19	210.96
976.49	210.96
976.78	210.97
977.07	211.01
977.37	211.01
977.66	211.07
977.95	211.07
978.24	211.15
978.54	211.26
978.83	211.23
979.12	211.20
979.42	211.21
979.71	211.13
980.00	211.01
980.29	211.00
980.59	210.96
980.88	211.00
981.17	211.03
981.46	211.05
981.76	211.05
982.05	211.06
982.34	211.02
982.63	211.08
982.93	211.04
983.22	211.12
983.51	211.20
983.80	211.24
984.09	211.32
984.39	211.28
984.68	211.22
984.97	211.26
985.26	211.29
985.55	211.26
985.85	211.18
986.14	211.30
986.43	211.30
986.72	211.35
987.01	211.30
987.30	211.30
987.59	211.29
987.89	211.33
988.18	211.23
988.47	211.26
988.76	211.14
989.05	211.13
989.34	211.03
989.63	211.07
989.92	211.01
990.22	211.00
990.51	210.95
990.80	210.98
991.09	210.92
991.38	210.93
991.67	210.94
991.96	210.94
992.25	210.89
992.54	210.84
992.83	210.85
993.12	210.84
993.41	210.85
993.70	210.93
993.99	210.93
994.28	211.04
994.58	211.08
994.87	211.12
995.16	211.11
995.45	211.12
995.74	211.02
996.03	211.03
996.32	211.05
996.61	211.11
996.90	211.13
997.19	211.19
997.48	211.24
997.77	211.27
998.06	211.26
998.34	211.24
998.63	211.31
998.92	211.27
999.21	211.30
999.50	211.39
999.79	211.33
1000.08	211.31
1000.37	211.20
1000.66	211.20
1000.95	211.18
1001.24	211.25
1001.53	211.30
1001.82	211.26
1002.11	211.25
1002.40	211.23
1002.68	211.20
1002.97	211.22
1003.26	211.11
1003.55	211.01
1003.84	210.94
1004.13	210.98
1004.42	210.89
1004.71	210.87
1004.99	210.86
1005.28	210.90
1005.57	210.85
1005.86	210.81
1006.15	210.78
1006.44	210.83
1006.72	210.82
1007.01	210.81
1007.30	210.90
1007.59	210.85
1007.88	210.86
1008.17	210.89
1008.45	210.81
1008.74	210.82
1009.03	210.80
1009.32	210.84
1009.60	210.76
1009.89	210.79
1010.18	210.75
1010.47	210.82
1010.76	210.75
1011.04	210.82
1011.33	210.81
1011.62	210.75
1011.91	210.76
1012.19	210.74
1012.48	210.73
1012.77	210.66
1013.05	210.73
1013.34	210.67
1013.63	210.71
1013.92	210.77
1014.20	210.75
1014.49	210.82
1014.78	210.77
1015.06	210.74
1015.35	210.82
1015.64	210.94
1015.92	210.91
1016.21	210.95
1016.50	210.91
1016.78	210.99
1017.07	210.96
1017.36	210.96
1017.64	210.98
1017.93	211.04
1018.22	211.00
1018.50	210.93
1018.79	210.96
1019.08	210.91
1019.36	210.89
1019.65	210.91
1019.93	210.92
1020.22	210.93
1020.51	211.04
1020.79	211.10
1021.08	209.35
1021.36	209.25
1021.65	210.70
1021.94	210.80
1022.22	211.15
1022.51	211.60
1022.79	211.75
1023.08	210.90
1023.36	213.45
1023.65	211.70
>>>>>End Processed Spectral Data<<<<<
