SpectraSuite Data File
++++++++++++++++++++++++++++++++++++
Date: Mon Feb 25 17:35:00 EST 2013
User: group
Dark Spectrum Present: No
Reference Spectrum Present: No
Number of Sampled Component Spectra: 1
Spectrometers: USB2E7196
Integration Time (usec): 52000 (USB2E7196)
Spectra Averaged: 20 (USB2E7196)
Boxcar Smoothing: 10 (USB2E7196)
Correct for Electrical Dark: No (USB2E7196)
Strobe/Lamp Enabled: No (USB2E7196)
Correct for Detector Non-linearity: No (USB2E7196)
Correct for Stray Light: No (USB2E7196)
Number of Pixels in Processed Spectrum: 2048
>>>>>Begin Processed Spectral Data<<<<<
339.09	0.00
339.48	198.75
339.86	201.50
340.24	202.25
340.63	203.15
341.01	207.95
341.39	205.60
341.78	206.90
342.16	209.50
342.54	208.55
342.93	198.50
343.31	208.60
343.69	209.18
344.07	209.56
344.46	210.00
344.84	210.46
345.22	210.70
345.60	210.98
345.99	211.28
346.37	211.43
346.75	211.56
347.13	211.67
347.52	211.74
347.90	211.81
348.28	211.86
348.66	212.01
349.05	212.05
349.43	212.02
349.81	212.05
350.19	212.15
350.57	212.20
350.96	212.35
351.34	212.45
351.72	212.55
352.10	212.70
352.48	212.80
352.87	212.79
353.25	212.83
353.63	212.90
354.01	212.87
354.39	212.86
354.77	213.04
355.15	213.15
355.54	213.19
355.92	213.22
356.30	213.33
356.68	213.47
357.06	213.51
357.44	213.50
357.82	213.60
358.20	213.66
358.58	213.67
358.97	213.58
359.35	213.65
359.73	213.67
360.11	213.68
360.49	213.65
360.87	213.64
361.25	213.64
361.63	213.70
362.01	213.72
362.39	213.78
362.77	213.69
363.15	213.66
363.53	213.65
363.91	213.71
364.29	213.62
364.67	213.44
365.05	213.43
365.43	213.54
365.81	213.48
366.19	213.52
366.57	213.57
366.95	213.67
367.33	213.48
367.71	213.50
368.09	213.53
368.47	213.54
368.85	213.59
369.23	213.66
369.61	213.58
369.99	213.66
370.37	213.64
370.75	213.72
371.13	213.70
371.51	213.61
371.89	213.52
372.27	213.51
372.65	213.45
373.03	213.43
373.41	213.31
373.78	213.26
374.16	213.13
374.54	213.05
374.92	212.93
375.30	212.95
375.68	212.84
376.06	212.79
376.44	212.81
376.82	212.71
377.19	212.61
377.57	212.56
377.95	212.47
378.33	212.42
378.71	212.27
379.09	212.19
379.47	212.18
379.84	212.13
380.22	212.10
380.60	212.10
380.98	212.03
381.36	211.95
381.73	211.87
382.11	211.87
382.49	211.87
382.87	211.84
383.25	211.82
383.62	212.02
384.00	211.92
384.38	211.86
384.76	211.86
385.13	211.85
385.51	211.81
385.89	211.80
386.27	211.79
386.64	211.80
387.02	211.73
387.40	211.76
387.78	211.77
388.15	211.72
388.53	211.60
388.91	211.61
389.29	211.65
389.66	211.70
390.04	211.71
390.42	211.77
390.79	211.76
391.17	211.73
391.55	211.57
391.92	211.61
392.30	211.55
392.68	211.51
393.05	211.52
393.43	211.56
393.81	211.49
394.18	211.38
394.56	211.44
394.94	211.45
395.31	211.37
395.69	211.40
396.06	211.41
396.44	211.52
396.82	211.46
397.19	211.57
397.57	211.63
397.95	211.64
398.32	211.53
398.70	211.68
399.07	211.70
399.45	211.63
399.82	211.66
400.20	211.63
400.58	211.70
400.95	211.61
401.33	211.69
401.70	211.86
402.08	211.98
402.45	211.91
402.83	212.09
403.20	212.17
403.58	212.25
403.95	212.32
404.33	212.34
404.71	212.44
405.08	212.58
405.46	212.64
405.83	212.81
406.21	212.90
406.58	212.99
406.96	213.14
407.33	213.38
407.70	213.58
408.08	213.90
408.45	214.16
408.83	214.53
409.20	214.69
409.58	214.92
409.95	215.16
410.33	215.51
410.70	215.75
411.08	216.11
411.45	216.40
411.82	216.79
412.20	217.36
412.57	217.89
412.95	218.20
413.32	218.78
413.69	219.31
414.07	219.94
414.44	220.47
414.82	221.08
415.19	221.75
415.56	222.54
415.94	223.37
416.31	224.18
416.68	225.03
417.06	226.02
417.43	226.95
417.81	228.11
418.18	229.24
418.55	230.44
418.93	231.77
419.30	233.06
419.67	234.47
420.04	235.89
420.42	237.39
420.79	239.21
421.16	240.85
421.54	242.63
421.91	244.55
422.28	246.63
422.66	248.76
423.03	250.91
423.40	253.01
423.77	255.19
424.15	257.57
424.52	259.93
424.89	262.64
425.26	265.12
425.64	267.49
426.01	270.10
426.38	272.77
426.75	275.51
427.13	278.41
427.50	281.40
427.87	284.50
428.24	287.64
428.61	290.56
428.99	293.90
429.36	297.41
429.73	300.81
430.10	304.14
430.47	307.74
430.85	311.41
431.22	315.26
431.59	319.47
431.96	323.33
432.33	327.74
432.70	331.87
433.08	336.85
433.45	341.52
433.82	346.13
434.19	351.43
434.56	356.42
434.93	361.29
435.30	366.11
435.68	371.28
436.05	376.49
436.42	381.65
436.79	386.40
437.16	391.66
437.53	397.13
437.90	402.53
438.27	407.70
438.64	412.98
439.01	418.00
439.38	422.35
439.75	426.61
440.13	431.42
440.50	436.04
440.87	439.75
441.24	443.60
441.61	448.02
441.98	451.04
442.35	454.65
442.72	458.35
443.09	461.93
443.46	464.20
443.83	465.71
444.20	466.96
444.57	468.73
444.94	469.39
445.31	470.15
445.68	470.83
446.05	471.16
446.42	470.56
446.79	469.94
447.16	469.10
447.53	468.55
447.90	466.51
448.27	464.44
448.64	461.55
449.01	459.40
449.37	455.62
449.74	452.20
450.11	448.15
450.48	443.63
450.85	438.94
451.22	434.92
451.59	431.09
451.96	427.46
452.33	422.63
452.70	418.23
453.07	413.08
453.43	407.89
453.80	402.77
454.17	397.96
454.54	393.29
454.91	388.45
455.28	383.72
455.65	379.23
456.02	374.79
456.38	371.06
456.75	366.46
457.12	362.62
457.49	358.66
457.86	354.81
458.23	351.53
458.59	348.00
458.96	344.38
459.33	341.15
459.70	337.96
460.07	335.39
460.43	332.56
460.80	329.85
461.17	327.46
461.54	324.95
461.91	322.66
462.27	320.24
462.64	318.17
463.01	315.98
463.38	313.89
463.74	311.67
464.11	309.71
464.48	308.10
464.85	306.16
465.21	304.81
465.58	303.37
465.95	301.65
466.32	300.20
466.68	298.82
467.05	297.50
467.42	296.17
467.78	294.76
468.15	293.28
468.52	292.18
468.88	290.87
469.25	289.73
469.62	288.76
469.98	287.71
470.35	286.80
470.72	285.81
471.08	284.86
471.45	284.05
471.82	283.35
472.18	282.35
472.55	281.93
472.92	281.25
473.28	280.67
473.65	279.98
474.02	279.38
474.38	278.94
474.75	278.49
475.11	278.09
475.48	277.86
475.85	277.63
476.21	277.45
476.58	277.36
476.94	277.33
477.31	277.24
477.67	277.32
478.04	277.31
478.41	277.50
478.77	277.72
479.14	277.88
479.50	278.03
479.87	278.39
480.23	278.66
480.60	279.09
480.96	279.50
481.33	280.25
481.69	280.93
482.06	281.51
482.42	282.16
482.79	282.84
483.15	283.69
483.52	284.70
483.88	285.66
484.25	286.57
484.61	287.61
484.98	288.84
485.34	290.10
485.71	291.55
486.07	292.82
486.44	294.16
486.80	295.69
487.17	297.33
487.53	299.10
487.90	300.92
488.26	302.79
488.62	304.85
488.99	306.75
489.35	308.90
489.72	311.22
490.08	313.59
490.44	316.05
490.81	318.60
491.17	321.35
491.54	324.30
491.90	327.36
492.26	330.52
492.63	333.77
492.99	337.18
493.36	340.78
493.72	344.75
494.08	348.79
494.45	353.02
494.81	357.43
495.17	362.04
495.54	366.96
495.90	372.01
496.26	377.13
496.63	382.72
496.99	388.51
497.35	394.55
497.72	400.97
498.08	407.45
498.44	414.24
498.80	421.45
499.17	428.77
499.53	436.43
499.89	444.39
500.26	452.58
500.62	460.92
500.98	469.74
501.34	478.85
501.71	488.53
502.07	498.28
502.43	508.43
502.79	518.59
503.16	529.17
503.52	539.98
503.88	551.35
504.24	562.75
504.60	574.61
504.97	587.06
505.33	599.50
505.69	612.82
506.05	626.47
506.41	639.98
506.78	653.80
507.14	668.11
507.50	682.83
507.86	697.84
508.22	713.35
508.59	728.92
508.95	745.08
509.31	761.29
509.67	778.03
510.03	794.97
510.39	812.72
510.75	830.67
511.12	849.14
511.48	867.55
511.84	886.47
512.20	905.15
512.56	924.36
512.92	944.08
513.28	963.74
513.64	983.47
514.00	1003.40
514.37	1023.99
514.73	1044.74
515.09	1065.61
515.45	1086.51
515.81	1107.58
516.17	1128.94
516.53	1150.17
516.89	1171.74
517.25	1193.44
517.61	1215.06
517.97	1236.60
518.33	1258.27
518.69	1279.72
519.05	1301.76
519.41	1324.24
519.77	1347.19
520.13	1369.41
520.49	1391.46
520.85	1414.34
521.21	1436.98
521.57	1460.19
521.93	1482.40
522.29	1505.24
522.65	1527.86
523.01	1550.69
523.37	1573.29
523.73	1595.68
524.09	1618.01
524.45	1640.25
524.81	1662.93
525.17	1685.51
525.53	1708.22
525.89	1730.65
526.25	1752.97
526.61	1774.70
526.97	1796.31
527.33	1817.45
527.68	1839.19
528.04	1860.55
528.40	1880.96
528.76	1901.79
529.12	1922.70
529.48	1944.55
529.84	1965.11
530.20	1985.81
530.56	2006.25
530.91	2027.09
531.27	2047.65
531.63	2067.85
531.99	2087.96
532.35	2107.17
532.71	2126.50
533.07	2146.22
533.42	2164.94
533.78	2184.37
534.14	2203.17
534.50	2220.57
534.86	2239.08
535.21	2256.02
535.57	2274.10
535.93	2291.55
536.29	2308.76
536.65	2325.45
537.00	2340.89
537.36	2356.44
537.72	2371.87
538.08	2387.25
538.44	2402.61
538.79	2418.18
539.15	2433.35
539.51	2448.25
539.87	2463.84
540.22	2478.45
540.58	2493.54
540.94	2508.16
541.29	2521.12
541.65	2533.37
542.01	2546.93
542.37	2558.84
542.72	2571.56
543.08	2582.75
543.44	2595.04
543.79	2605.31
544.15	2615.91
544.51	2627.21
544.87	2638.60
545.22	2647.91
545.58	2656.39
545.94	2663.71
546.29	2670.42
546.65	2676.76
547.01	2683.18
547.36	2688.67
547.72	2694.61
548.07	2698.25
548.43	2702.21
548.79	2706.40
549.14	2711.11
549.50	2715.67
549.86	2719.95
550.21	2723.97
550.57	2728.19
550.92	2731.04
551.28	2733.72
551.64	2736.25
551.99	2739.00
552.35	2740.49
552.70	2743.65
553.06	2746.83
553.41	2750.09
553.77	2753.14
554.13	2755.72
554.48	2757.60
554.84	2759.19
555.19	2759.94
555.55	2761.10
555.90	2761.89
556.26	2762.35
556.61	2762.70
556.97	2761.38
557.32	2760.95
557.68	2759.19
558.03	2757.85
558.39	2755.98
558.74	2756.14
559.10	2755.01
559.45	2752.95
559.81	2751.73
560.16	2748.81
560.52	2746.61
560.87	2743.71
561.23	2740.17
561.58	2737.85
561.94	2735.06
562.29	2731.81
562.64	2729.37
563.00	2726.88
563.35	2724.84
563.71	2723.27
564.06	2720.89
564.42	2718.92
564.77	2716.79
565.12	2715.08
565.48	2711.81
565.83	2709.26
566.19	2705.72
566.54	2701.88
566.89	2698.25
567.25	2694.92
567.60	2691.98
567.96	2688.35
568.31	2684.93
568.66	2681.09
569.02	2676.50
569.37	2671.39
569.72	2667.31
570.08	2662.26
570.43	2656.58
570.78	2650.72
571.14	2644.34
571.49	2637.65
571.84	2631.79
572.20	2624.76
572.55	2618.21
572.90	2611.68
573.26	2604.60
573.61	2597.55
573.96	2590.59
574.31	2582.52
574.67	2573.81
575.02	2565.05
575.37	2556.09
575.72	2546.89
576.08	2539.39
576.43	2530.61
576.78	2522.84
577.13	2514.77
577.49	2506.49
577.84	2498.55
578.19	2490.58
578.54	2482.76
578.90	2476.06
579.25	2467.21
579.60	2458.07
579.95	2448.52
580.30	2440.20
580.66	2431.96
581.01	2422.79
581.36	2413.24
581.71	2404.98
582.06	2396.51
582.42	2387.95
582.77	2378.91
583.12	2370.24
583.47	2361.27
583.82	2352.94
584.17	2343.36
584.53	2334.07
584.88	2324.92
585.23	2315.66
585.58	2306.23
585.93	2296.27
586.28	2286.76
586.63	2278.07
586.98	2269.54
587.34	2261.48
587.69	2252.39
588.04	2242.90
588.39	2234.76
588.74	2226.20
589.09	2217.42
589.44	2208.02
589.79	2199.79
590.14	2191.59
590.49	2183.05
590.84	2173.71
591.19	2165.34
591.54	2156.64
591.89	2146.41
592.25	2137.23
592.60	2127.58
592.95	2118.12
593.30	2108.76
593.65	2098.86
594.00	2089.00
594.35	2080.61
594.70	2070.90
595.05	2062.03
595.40	2052.99
595.75	2042.82
596.10	2034.28
596.45	2025.50
596.80	2017.70
597.15	2009.20
597.50	2000.12
597.85	1991.55
598.19	1982.97
598.54	1974.43
598.89	1966.40
599.24	1959.66
599.59	1952.11
599.94	1945.14
600.29	1937.21
600.64	1929.49
600.99	1921.19
601.34	1913.75
601.69	1904.65
602.04	1896.58
602.39	1888.14
602.74	1880.57
603.08	1874.14
603.43	1866.81
603.78	1858.62
604.13	1850.23
604.48	1841.98
604.83	1835.09
605.18	1827.77
605.53	1819.88
605.87	1812.16
606.22	1804.76
606.57	1796.83
606.92	1788.47
607.27	1780.32
607.62	1772.93
607.96	1765.88
608.31	1759.53
608.66	1751.87
609.01	1744.58
609.36	1736.94
609.70	1729.15
610.05	1721.10
610.40	1712.61
610.75	1703.90
611.10	1696.15
611.44	1687.14
611.79	1678.01
612.14	1668.43
612.49	1658.92
612.83	1650.30
613.18	1640.35
613.53	1630.96
613.88	1620.93
614.22	1612.13
614.57	1602.48
614.92	1592.98
615.27	1583.38
615.61	1573.33
615.96	1564.18
616.31	1555.45
616.65	1547.40
617.00	1538.60
617.35	1529.91
617.70	1520.99
618.04	1511.79
618.39	1502.14
618.74	1493.43
619.08	1484.90
619.43	1476.72
619.78	1468.70
620.12	1460.48
620.47	1452.78
620.82	1444.19
621.16	1435.94
621.51	1427.60
621.85	1419.39
622.20	1410.86
622.55	1402.35
622.89	1394.25
623.24	1386.10
623.59	1377.54
623.93	1368.71
624.28	1360.58
624.62	1352.45
624.97	1344.20
625.32	1336.57
625.66	1329.33
626.01	1322.00
626.35	1314.67
626.70	1306.74
627.04	1299.34
627.39	1291.59
627.73	1283.89
628.08	1276.91
628.43	1269.43
628.77	1261.71
629.12	1254.22
629.46	1247.56
629.81	1240.10
630.15	1232.51
630.50	1225.05
630.84	1217.41
631.19	1210.15
631.53	1203.15
631.88	1195.11
632.22	1187.40
632.57	1180.24
632.91	1172.58
633.26	1165.12
633.60	1157.82
633.95	1151.17
634.29	1143.62
634.64	1136.84
634.98	1129.92
635.32	1122.83
635.67	1116.46
636.01	1109.90
636.36	1103.27
636.70	1096.60
637.05	1090.42
637.39	1084.07
637.73	1077.66
638.08	1071.99
638.42	1065.98
638.77	1059.45
639.11	1053.38
639.45	1047.54
639.80	1040.95
640.14	1034.61
640.49	1028.31
640.83	1021.90
641.17	1015.40
641.52	1009.26
641.86	1002.65
642.20	996.30
642.55	989.48
642.89	982.94
643.23	976.26
643.58	970.03
643.92	963.49
644.26	956.94
644.61	950.74
644.95	944.53
645.29	938.14
645.64	931.45
645.98	925.35
646.32	919.45
646.66	913.05
647.01	906.97
647.35	901.04
647.69	894.69
648.04	888.85
648.38	882.64
648.72	876.53
649.06	870.46
649.41	864.41
649.75	858.61
650.09	852.67
650.43	846.90
650.78	840.67
651.12	834.52
651.46	828.81
651.80	822.93
652.14	816.96
652.49	810.90
652.83	805.02
653.17	798.86
653.51	792.90
653.85	787.26
654.20	781.47
654.54	775.71
654.88	770.27
655.22	764.11
655.56	758.31
655.90	752.34
656.25	746.53
656.59	740.83
656.93	735.62
657.27	730.40
657.61	724.85
657.95	719.68
658.29	714.61
658.64	709.31
658.98	704.07
659.32	698.57
659.66	693.41
660.00	688.04
660.34	682.91
660.68	677.78
661.02	672.63
661.36	667.79
661.70	662.89
662.05	658.16
662.39	653.90
662.73	649.48
663.07	645.26
663.41	641.05
663.75	636.56
664.09	631.78
664.43	627.05
664.77	622.81
665.11	618.46
665.45	614.05
665.79	609.62
666.13	605.12
666.47	601.05
666.81	596.95
667.15	593.08
667.49	588.98
667.83	585.07
668.17	581.04
668.51	577.21
668.85	573.37
669.19	569.60
669.53	565.59
669.87	561.56
670.21	557.57
670.55	553.53
670.89	549.99
671.23	546.60
671.57	543.05
671.91	539.35
672.25	535.75
672.58	532.10
672.92	528.41
673.26	525.27
673.60	522.01
673.94	518.60
674.28	515.31
674.62	512.24
674.96	508.92
675.30	505.86
675.64	502.52
675.97	499.36
676.31	496.25
676.65	493.30
676.99	490.48
677.33	487.44
677.67	484.53
678.01	481.36
678.34	478.31
678.68	475.30
679.02	472.30
679.36	469.35
679.70	466.42
680.04	463.66
680.37	460.65
680.71	457.78
681.05	455.04
681.39	452.18
681.73	449.34
682.06	446.86
682.40	444.12
682.74	441.62
683.08	439.01
683.42	436.37
683.75	433.73
684.09	431.11
684.43	428.68
684.77	426.18
685.10	423.70
685.44	421.14
685.78	418.72
686.12	416.44
686.45	414.05
686.79	411.76
687.13	409.66
687.46	407.50
687.80	405.30
688.14	403.02
688.48	400.98
688.81	398.75
689.15	396.54
689.49	394.42
689.82	392.15
690.16	389.83
690.50	387.54
690.83	385.32
691.17	383.08
691.51	380.88
691.84	378.75
692.18	376.71
692.52	374.66
692.85	372.80
693.19	370.92
693.52	369.07
693.86	367.13
694.20	365.25
694.53	363.32
694.87	361.25
695.21	359.33
695.54	357.32
695.88	355.50
696.21	353.50
696.55	351.80
696.88	350.01
697.22	348.29
697.56	346.69
697.89	345.10
698.23	343.50
698.56	341.90
698.90	340.40
699.23	338.81
699.57	337.28
699.90	335.55
700.24	333.95
700.58	332.43
700.91	331.03
701.25	329.55
701.58	328.17
701.92	326.88
702.25	325.45
702.59	324.07
702.92	322.71
703.26	321.43
703.59	320.08
703.93	318.92
704.26	317.68
704.60	316.41
704.93	315.15
705.26	313.86
705.60	312.62
705.93	311.28
706.27	310.10
706.60	309.06
706.94	307.98
707.27	306.72
707.61	305.50
707.94	304.29
708.27	303.05
708.61	301.75
708.94	300.51
709.28	299.32
709.61	298.22
709.94	297.20
710.28	296.13
710.61	295.15
710.95	293.93
711.28	292.95
711.61	291.92
711.95	290.90
712.28	290.02
712.61	289.08
712.95	288.21
713.28	287.27
713.61	286.24
713.95	285.25
714.28	284.35
714.61	283.49
714.95	282.55
715.28	281.54
715.61	280.66
715.95	279.78
716.28	278.93
716.61	278.07
716.95	277.14
717.28	276.26
717.61	275.32
717.94	274.49
718.28	273.68
718.61	272.81
718.94	271.95
719.27	271.17
719.61	270.40
719.94	269.56
720.27	268.80
720.60	268.03
720.94	267.39
721.27	266.67
721.60	265.87
721.93	265.20
722.27	264.65
722.60	264.07
722.93	263.40
723.26	262.90
723.59	262.19
723.93	261.69
724.26	261.15
724.59	260.64
724.92	260.11
725.25	259.51
725.59	259.01
725.92	258.54
726.25	257.92
726.58	257.35
726.91	256.83
727.24	256.30
727.57	255.79
727.91	255.20
728.24	254.80
728.57	254.37
728.90	253.96
729.23	253.43
729.56	252.98
729.89	252.49
730.22	251.92
730.55	251.48
730.89	250.92
731.22	250.37
731.55	249.83
731.88	249.41
732.21	248.96
732.54	248.49
732.87	248.02
733.20	247.61
733.53	247.15
733.86	246.71
734.19	246.27
734.52	245.86
734.85	245.55
735.18	245.07
735.51	244.74
735.84	244.33
736.17	243.93
736.50	243.42
736.83	243.23
737.16	242.99
737.49	242.61
737.82	242.20
738.15	241.83
738.48	241.48
738.81	241.14
739.14	240.74
739.47	240.33
739.80	239.92
740.13	239.53
740.46	239.25
740.79	238.88
741.12	238.55
741.45	238.14
741.78	237.73
742.11	237.52
742.44	237.13
742.77	236.85
743.10	236.56
743.43	236.34
743.75	235.88
744.08	235.71
744.41	235.43
744.74	235.17
745.07	234.87
745.40	234.64
745.73	234.49
746.06	234.22
746.39	234.02
746.71	233.72
747.04	233.49
747.37	233.19
747.70	233.03
748.03	232.75
748.36	232.56
748.68	232.38
749.01	232.07
749.34	231.86
749.67	231.62
750.00	231.37
750.33	231.18
750.65	230.92
750.98	230.45
751.31	230.24
751.64	230.01
751.97	229.88
752.29	229.64
752.62	229.26
752.95	229.03
753.28	228.77
753.60	228.61
753.93	228.44
754.26	228.25
754.59	227.92
754.91	227.75
755.24	227.64
755.57	227.41
755.90	227.17
756.22	226.95
756.55	226.70
756.88	226.54
757.20	226.36
757.53	226.25
757.86	226.11
758.19	225.84
758.51	225.64
758.84	225.38
759.17	225.22
759.49	225.04
759.82	224.98
760.15	224.80
760.47	224.58
760.80	224.36
761.13	224.19
761.45	224.05
761.78	223.87
762.11	223.64
762.43	223.51
762.76	223.33
763.08	223.20
763.41	223.04
763.74	222.87
764.06	222.64
764.39	222.40
764.71	222.28
765.04	222.21
765.37	222.05
765.69	221.88
766.02	221.73
766.34	221.62
766.67	221.37
767.00	221.31
767.32	221.29
767.65	221.29
767.97	221.21
768.30	221.18
768.62	221.03
768.95	220.95
769.27	220.77
769.60	220.72
769.92	220.58
770.25	220.47
770.57	220.34
770.90	220.21
771.22	220.16
771.55	220.05
771.87	219.95
772.20	219.88
772.52	219.97
772.85	220.03
773.17	219.96
773.50	219.92
773.82	219.84
774.15	219.69
774.47	219.41
774.80	219.30
775.12	219.17
775.45	219.12
775.77	218.95
776.09	218.93
776.42	218.82
776.74	218.76
777.07	218.74
777.39	218.65
777.72	218.57
778.04	218.56
778.36	218.45
778.69	218.40
779.01	218.33
779.33	218.16
779.66	217.94
779.98	217.85
780.31	217.80
780.63	217.81
780.95	217.79
781.28	217.80
781.60	217.70
781.92	217.60
782.25	217.53
782.57	217.52
782.89	217.38
783.22	217.33
783.54	217.25
783.86	217.11
784.19	217.03
784.51	217.05
784.83	216.91
785.16	216.82
785.48	216.77
785.80	216.74
786.12	216.64
786.45	216.55
786.77	216.52
787.09	216.40
787.42	216.22
787.74	216.13
788.06	216.04
788.38	215.96
788.71	215.90
789.03	215.89
789.35	215.85
789.67	215.82
789.99	215.79
790.32	215.69
790.64	215.73
790.96	215.83
791.28	215.66
791.61	215.62
791.93	215.55
792.25	215.48
792.57	215.56
792.89	215.51
793.21	215.53
793.54	215.42
793.86	215.40
794.18	215.39
794.50	215.32
794.82	215.31
795.14	215.32
795.47	215.30
795.79	215.22
796.11	215.19
796.43	215.10
796.75	215.05
797.07	215.05
797.39	215.02
797.71	214.86
798.04	214.83
798.36	214.82
798.68	214.81
799.00	214.71
799.32	214.54
799.64	214.51
799.96	214.43
800.28	214.46
800.60	214.36
800.92	214.30
801.24	214.26
801.56	214.22
801.89	214.11
802.21	214.17
802.53	214.05
802.85	214.03
803.17	214.10
803.49	214.01
803.81	213.92
804.13	213.85
804.45	213.78
804.77	213.80
805.09	213.83
805.41	213.76
805.73	213.77
806.05	213.69
806.37	213.60
806.69	213.58
807.01	213.44
807.33	213.42
807.65	213.38
807.97	213.45
808.28	213.42
808.60	213.41
808.92	213.32
809.24	213.43
809.56	213.44
809.88	213.40
810.20	213.35
810.52	213.35
810.84	213.27
811.16	213.27
811.48	213.19
811.80	213.15
812.12	213.13
812.43	213.13
812.75	213.15
813.07	213.23
813.39	213.18
813.71	213.16
814.03	213.15
814.35	213.11
814.67	213.05
814.98	213.00
815.30	213.00
815.62	212.96
815.94	212.88
816.26	212.81
816.58	212.71
816.89	212.70
817.21	212.66
817.53	212.68
817.85	212.71
818.17	212.70
818.48	212.60
818.80	212.66
819.12	212.58
819.44	212.59
819.76	212.47
820.07	212.49
820.39	212.51
820.71	212.55
821.03	212.51
821.34	212.40
821.66	212.50
821.98	212.45
822.30	212.40
822.61	212.50
822.93	212.42
823.25	212.47
823.57	212.45
823.88	212.45
824.20	212.42
824.52	212.38
824.83	212.38
825.15	212.40
825.47	212.35
825.79	212.34
826.10	212.24
826.42	212.28
826.74	212.26
827.05	212.26
827.37	212.16
827.69	212.17
828.00	212.18
828.32	212.17
828.64	212.20
828.95	212.30
829.27	212.21
829.58	212.23
829.90	212.19
830.22	212.26
830.53	212.24
830.85	212.19
831.17	212.20
831.48	212.20
831.80	212.18
832.11	212.13
832.43	212.13
832.75	212.20
833.06	212.27
833.38	212.17
833.69	212.17
834.01	212.17
834.32	212.19
834.64	212.18
834.96	212.15
835.27	212.04
835.59	211.98
835.90	211.90
836.22	211.91
836.53	211.87
836.85	211.80
837.16	211.98
837.48	212.04
837.79	212.01
838.11	212.00
838.42	211.97
838.74	212.04
839.05	212.03
839.37	211.90
839.68	211.79
840.00	211.85
840.31	211.86
840.63	211.86
840.94	211.80
841.26	211.76
841.57	211.71
841.88	211.77
842.20	211.68
842.51	211.69
842.83	211.60
843.14	211.76
843.46	211.79
843.77	211.70
844.08	211.60
844.40	211.52
844.71	211.50
845.03	211.44
845.34	211.35
845.65	211.33
845.97	211.40
846.28	211.40
846.60	211.43
846.91	211.36
847.22	211.39
847.54	211.38
847.85	211.40
848.16	211.39
848.48	211.41
848.79	211.52
849.10	211.55
849.42	211.63
849.73	211.42
850.04	211.37
850.36	211.26
850.67	211.34
850.98	211.45
851.30	211.42
851.61	211.51
851.92	211.54
852.23	211.61
852.55	211.65
852.86	211.65
853.17	211.63
853.49	211.66
853.80	211.68
854.11	211.71
854.42	211.79
854.74	211.77
855.05	211.77
855.36	211.65
855.67	211.67
855.99	211.71
856.30	211.97
856.61	211.95
856.92	211.99
857.23	211.97
857.55	211.87
857.86	211.87
858.17	211.81
858.48	211.78
858.79	211.76
859.11	211.83
859.42	211.85
859.73	211.83
860.04	211.90
860.35	211.90
860.66	211.87
860.98	211.86
861.29	211.88
861.60	211.83
861.91	211.92
862.22	211.89
862.53	211.87
862.84	211.72
863.16	211.77
863.47	211.75
863.78	211.70
864.09	211.81
864.40	211.88
864.71	211.92
865.02	211.90
865.33	211.86
865.64	211.72
865.95	211.72
866.27	211.85
866.58	211.78
866.89	211.76
867.20	211.75
867.51	211.64
867.82	211.57
868.13	211.56
868.44	211.45
868.75	211.47
869.06	211.45
869.37	211.46
869.68	211.35
869.99	211.38
870.30	211.45
870.61	211.40
870.92	211.33
871.23	211.30
871.54	211.31
871.85	211.31
872.16	211.36
872.47	211.31
872.78	211.13
873.09	211.17
873.40	211.18
873.71	211.20
874.02	211.29
874.33	211.35
874.64	211.35
874.95	211.44
875.26	211.37
875.56	211.34
875.87	211.19
876.18	211.27
876.49	211.41
876.80	211.33
877.11	211.33
877.42	211.34
877.73	211.37
878.04	211.34
878.35	211.26
878.66	211.25
878.96	211.22
879.27	211.24
879.58	211.15
879.89	211.11
880.20	211.17
880.51	211.13
880.82	211.12
881.12	211.12
881.43	211.02
881.74	211.00
882.05	210.95
882.36	211.04
882.67	211.00
882.97	210.83
883.28	210.85
883.59	210.83
883.90	210.80
884.21	210.88
884.51	210.93
884.82	210.99
885.13	210.98
885.44	211.01
885.74	211.02
886.05	211.04
886.36	210.98
886.67	210.86
886.98	210.92
887.28	210.95
887.59	211.01
887.90	211.00
888.20	211.06
888.51	211.10
888.82	211.10
889.13	211.15
889.43	211.27
889.74	211.29
890.05	211.24
890.35	211.23
890.66	211.12
890.97	211.10
891.28	211.04
891.58	211.08
891.89	211.05
892.20	211.05
892.50	211.01
892.81	211.04
893.12	211.05
893.42	210.97
893.73	210.93
894.04	210.84
894.34	210.88
894.65	210.85
894.95	210.80
895.26	210.80
895.57	210.82
895.87	210.69
896.18	210.70
896.48	210.73
896.79	210.77
897.10	210.79
897.40	210.78
897.71	210.90
898.01	210.85
898.32	210.83
898.63	210.91
898.93	210.95
899.24	210.98
899.54	210.98
899.85	211.02
900.15	210.98
900.46	211.03
900.76	211.07
901.07	211.06
901.38	211.09
901.68	211.15
901.99	211.16
902.29	211.16
902.60	211.13
902.90	211.13
903.21	211.16
903.51	211.15
903.82	211.22
904.12	211.18
904.43	211.20
904.73	211.24
905.03	211.19
905.34	211.37
905.64	211.27
905.95	211.34
906.25	211.30
906.56	211.29
906.86	211.31
907.17	211.30
907.47	211.31
907.77	211.34
908.08	211.27
908.38	211.24
908.69	211.26
908.99	211.36
909.30	211.31
909.60	211.31
909.90	211.31
910.21	211.24
910.51	211.25
910.81	211.26
911.12	211.23
911.42	211.20
911.73	211.02
912.03	211.14
912.33	211.17
912.64	211.18
912.94	211.28
913.24	211.25
913.55	211.25
913.85	211.28
914.15	211.19
914.46	211.29
914.76	211.17
915.06	211.15
915.37	211.05
915.67	211.08
915.97	211.01
916.27	210.99
916.58	211.00
916.88	211.00
917.18	211.05
917.49	211.25
917.79	211.24
918.09	211.26
918.39	211.25
918.70	211.16
919.00	211.17
919.30	211.10
919.60	211.10
919.91	211.07
920.21	211.04
920.51	211.10
920.81	211.02
921.12	211.15
921.42	211.15
921.72	211.13
922.02	211.18
922.32	211.16
922.63	211.17
922.93	211.26
923.23	211.24
923.53	211.12
923.83	210.95
924.13	210.97
924.44	210.94
924.74	210.98
925.04	211.10
925.34	211.11
925.64	211.05
925.94	211.02
926.24	211.05
926.55	211.05
926.85	211.07
927.15	211.06
927.45	211.01
927.75	211.00
928.05	211.04
928.35	211.01
928.65	211.06
928.95	211.04
929.26	210.96
929.56	211.02
929.86	211.04
930.16	210.96
930.46	210.91
930.76	210.96
931.06	210.89
931.36	210.75
931.66	210.77
931.96	210.82
932.26	210.90
932.56	210.89
932.86	210.85
933.16	210.83
933.46	210.81
933.76	210.75
934.06	210.70
934.36	210.72
934.66	210.71
934.96	210.68
935.26	210.69
935.56	210.68
935.86	210.56
936.16	210.60
936.46	210.65
936.76	210.68
937.06	210.70
937.36	210.67
937.66	210.77
937.96	210.72
938.26	210.73
938.56	210.66
938.86	210.60
939.16	210.69
939.46	210.73
939.76	210.75
940.06	210.76
940.35	210.77
940.65	210.78
940.95	210.81
941.25	210.77
941.55	210.79
941.85	210.87
942.15	211.02
942.45	211.04
942.75	210.99
943.04	211.01
943.34	210.98
943.64	211.02
943.94	210.93
944.24	210.95
944.54	210.87
944.84	210.84
945.13	210.89
945.43	210.86
945.73	210.87
946.03	210.86
946.33	210.90
946.62	210.93
946.92	210.87
947.22	210.89
947.52	210.90
947.82	210.90
948.11	210.81
948.41	210.65
948.71	210.60
949.01	210.71
949.31	210.65
949.60	210.59
949.90	210.56
950.20	210.54
950.50	210.52
950.79	210.57
951.09	210.61
951.39	210.55
951.69	210.55
951.98	210.62
952.28	210.63
952.58	210.66
952.87	210.69
953.17	210.67
953.47	210.66
953.76	210.71
954.06	210.71
954.36	210.71
954.66	210.81
954.95	210.82
955.25	210.79
955.55	210.86
955.84	210.87
956.14	210.87
956.44	210.94
956.73	210.92
957.03	210.94
957.32	210.98
957.62	211.03
957.92	210.99
958.21	210.93
958.51	211.15
958.81	211.07
959.10	211.10
959.40	211.18
959.69	211.11
959.99	211.19
960.29	211.16
960.58	211.22
960.88	211.23
961.17	211.30
961.47	211.27
961.76	211.25
962.06	211.30
962.36	211.37
962.65	211.44
962.95	211.48
963.24	211.48
963.54	211.42
963.83	211.41
964.13	211.48
964.42	211.37
964.72	211.15
965.01	211.19
965.31	211.17
965.60	211.15
965.90	211.30
966.19	211.24
966.49	211.24
966.78	211.10
967.08	211.07
967.37	211.03
967.67	211.03
967.96	211.10
968.26	211.08
968.55	211.05
968.85	210.95
969.14	210.92
969.43	210.97
969.73	210.97
970.02	210.99
970.32	210.98
970.61	211.05
970.91	211.03
971.20	210.98
971.49	210.95
971.79	210.90
972.08	210.80
972.38	210.87
972.67	210.86
972.96	210.95
973.26	210.96
973.55	211.02
973.85	211.02
974.14	210.94
974.43	210.92
974.73	210.86
975.02	210.85
975.31	210.82
975.61	210.81
975.90	210.79
976.19	210.72
976.49	210.69
976.78	210.63
977.07	210.68
977.37	210.73
977.66	210.73
977.95	210.75
978.24	210.74
978.54	210.70
978.83	210.68
979.12	210.67
979.42	210.63
979.71	210.56
980.00	210.60
980.29	210.57
980.59	210.50
980.88	210.57
981.17	210.65
981.46	210.68
981.76	210.65
982.05	210.65
982.34	210.67
982.63	210.63
982.93	210.66
983.22	210.67
983.51	210.66
983.80	210.75
984.09	210.75
984.39	210.76
984.68	210.75
984.97	210.77
985.26	210.73
985.55	210.80
985.85	210.80
986.14	210.73
986.43	210.83
986.72	210.91
987.01	210.93
987.30	210.87
987.59	210.83
987.89	210.79
988.18	210.88
988.47	210.90
988.76	210.94
989.05	210.94
989.34	210.94
989.63	210.99
989.92	210.89
990.22	210.86
990.51	210.81
990.80	210.81
991.09	210.81
991.38	210.88
991.67	210.88
991.96	210.88
992.25	210.88
992.54	210.82
992.83	210.85
993.12	210.75
993.41	210.77
993.70	210.87
993.99	210.97
994.28	210.93
994.58	210.92
994.87	210.90
995.16	210.91
995.45	210.89
995.74	210.84
996.03	210.83
996.32	210.86
996.61	210.92
996.90	210.94
997.19	210.96
997.48	210.92
997.77	210.88
998.06	210.90
998.34	210.92
998.63	210.88
998.92	210.84
999.21	210.92
999.50	210.97
999.79	210.91
1000.08	210.85
1000.37	210.88
1000.66	210.97
1000.95	210.98
1001.24	211.00
1001.53	210.98
1001.82	211.01
1002.11	211.05
1002.40	211.15
1002.68	211.19
1002.97	211.25
1003.26	211.19
1003.55	211.12
1003.84	211.14
1004.13	211.18
1004.42	211.21
1004.71	211.20
1004.99	211.17
1005.28	211.19
1005.57	211.13
1005.86	211.10
1006.15	211.07
1006.44	211.02
1006.72	210.94
1007.01	210.94
1007.30	210.94
1007.59	210.91
1007.88	210.86
1008.17	210.80
1008.45	210.67
1008.74	210.55
1009.03	210.53
1009.32	210.55
1009.60	210.55
1009.89	210.51
1010.18	210.44
1010.47	210.38
1010.76	210.45
1011.04	210.42
1011.33	210.45
1011.62	210.49
1011.91	210.56
1012.19	210.51
1012.48	210.53
1012.77	210.54
1013.05	210.63
1013.34	210.58
1013.63	210.57
1013.92	210.64
1014.20	210.64
1014.49	210.70
1014.78	210.69
1015.06	210.59
1015.35	210.59
1015.64	210.64
1015.92	210.64
1016.21	210.68
1016.50	210.70
1016.78	210.78
1017.07	210.86
1017.36	210.78
1017.64	210.68
1017.93	210.60
1018.22	210.68
1018.50	210.71
1018.79	210.69
1019.08	210.57
1019.36	210.59
1019.65	210.55
1019.93	210.53
1020.22	210.56
1020.51	210.60
1020.79	210.64
1021.08	210.70
1021.36	211.30
1021.65	210.45
1021.94	209.40
1022.22	210.85
1022.51	209.50
1022.79	211.10
1023.08	211.00
1023.36	212.15
1023.65	209.95
>>>>>End Processed Spectral Data<<<<<
