SpectraSuite Data File
++++++++++++++++++++++++++++++++++++
Date: Mon Feb 25 17:31:46 EST 2013
User: group
Dark Spectrum Present: No
Reference Spectrum Present: No
Number of Sampled Component Spectra: 1
Spectrometers: USB2E7196
Integration Time (usec): 52000 (USB2E7196)
Spectra Averaged: 20 (USB2E7196)
Boxcar Smoothing: 10 (USB2E7196)
Correct for Electrical Dark: No (USB2E7196)
Strobe/Lamp Enabled: No (USB2E7196)
Correct for Detector Non-linearity: No (USB2E7196)
Correct for Stray Light: No (USB2E7196)
Number of Pixels in Processed Spectrum: 2048
>>>>>Begin Processed Spectral Data<<<<<
339.09	0.00
339.48	199.20
339.86	200.45
340.24	200.95
340.63	202.55
341.01	206.35
341.39	205.50
341.78	208.50
342.16	209.70
342.54	208.50
342.93	198.15
343.31	208.13
343.69	208.64
344.07	209.11
344.46	209.59
344.84	210.03
345.22	210.25
345.60	210.54
345.99	210.66
346.37	210.76
346.75	210.84
347.13	210.85
347.52	210.89
347.90	211.06
348.28	211.14
348.66	211.18
349.05	211.15
349.43	211.16
349.81	211.18
350.19	211.15
350.57	211.20
350.96	211.30
351.34	211.42
351.72	211.50
352.10	211.56
352.48	211.58
352.87	211.63
353.25	211.68
353.63	211.70
354.01	211.74
354.39	211.71
354.77	211.80
355.15	211.95
355.54	212.06
355.92	212.07
356.30	212.04
356.68	212.22
357.06	212.34
357.44	212.40
357.82	212.48
358.20	212.55
358.58	212.59
358.97	212.59
359.35	212.73
359.73	212.82
360.11	212.89
360.49	212.98
360.87	212.98
361.25	213.11
361.63	213.23
362.01	213.33
362.39	213.48
362.77	213.56
363.15	213.61
363.53	213.65
363.91	213.69
364.29	213.75
364.67	213.59
365.05	213.60
365.43	213.71
365.81	213.81
366.19	213.90
366.57	214.02
366.95	214.13
367.33	214.05
367.71	214.07
368.09	214.20
368.47	214.19
368.85	214.13
369.23	214.07
369.61	214.04
369.99	214.12
370.37	214.05
370.75	214.19
371.13	214.10
371.51	214.00
371.89	213.97
372.27	214.01
372.65	214.02
373.03	213.97
373.41	213.86
373.78	213.81
374.16	213.70
374.54	213.60
374.92	213.44
375.30	213.40
375.68	213.29
376.06	213.16
376.44	213.18
376.82	213.26
377.19	213.24
377.57	213.15
377.95	212.99
378.33	212.95
378.71	212.70
379.09	212.68
379.47	212.70
379.84	212.66
380.22	212.51
380.60	212.44
380.98	212.43
381.36	212.39
381.73	212.27
382.11	212.22
382.49	212.19
382.87	212.22
383.25	212.18
383.62	212.35
384.00	212.25
384.38	212.18
384.76	212.13
385.13	212.10
385.51	212.11
385.89	212.15
386.27	212.16
386.64	212.13
387.02	212.10
387.40	212.01
387.78	211.96
388.15	211.99
388.53	212.00
388.91	211.93
389.29	211.90
389.66	211.85
390.04	211.82
390.42	211.80
390.79	211.75
391.17	211.72
391.55	211.55
391.92	211.57
392.30	211.56
392.68	211.44
393.05	211.36
393.43	211.30
393.81	211.21
394.18	211.11
394.56	211.16
394.94	211.16
395.31	211.18
395.69	211.26
396.06	211.24
396.44	211.18
396.82	211.22
397.19	211.37
397.57	211.38
397.95	211.42
398.32	211.45
398.70	211.51
399.07	211.55
399.45	211.61
399.82	211.58
400.20	211.63
400.58	211.68
400.95	211.75
401.33	211.82
401.70	212.02
402.08	212.11
402.45	212.21
402.83	212.30
403.20	212.36
403.58	212.40
403.95	212.54
404.33	212.69
404.71	212.81
405.08	212.98
405.46	213.11
405.83	213.26
406.21	213.38
406.58	213.49
406.96	213.68
407.33	213.77
407.70	214.03
408.08	214.27
408.45	214.56
408.83	214.86
409.20	215.07
409.58	215.14
409.95	215.47
410.33	215.74
410.70	216.11
411.08	216.42
411.45	216.80
411.82	217.14
412.20	217.58
412.57	218.11
412.95	218.36
413.32	218.94
413.69	219.45
414.07	219.96
414.44	220.58
414.82	221.23
415.19	222.08
415.56	222.80
415.94	223.51
416.31	224.42
416.68	225.22
417.06	226.18
417.43	227.20
417.81	228.27
418.18	229.33
418.55	230.39
418.93	231.68
419.30	232.94
419.67	234.33
420.04	235.65
420.42	237.13
420.79	238.92
421.16	240.62
421.54	242.49
421.91	244.27
422.28	246.14
422.66	248.18
423.03	250.08
423.40	252.16
423.77	254.36
424.15	256.55
424.52	258.89
424.89	261.45
425.26	263.90
425.64	266.17
426.01	268.76
426.38	271.45
426.75	274.23
427.13	277.00
427.50	279.94
427.87	283.03
428.24	285.95
428.61	288.74
428.99	291.94
429.36	295.32
429.73	298.77
430.10	302.23
430.47	305.63
430.85	309.32
431.22	313.20
431.59	317.31
431.96	321.32
432.33	325.65
432.70	329.86
433.08	334.71
433.45	339.28
433.82	343.90
434.19	348.90
434.56	353.76
434.93	358.53
435.30	363.20
435.68	368.47
436.05	373.80
436.42	378.93
436.79	383.63
437.16	388.58
437.53	393.90
437.90	398.98
438.27	404.12
438.64	409.34
439.01	414.18
439.38	418.48
439.75	422.56
440.13	427.38
440.50	431.75
440.87	435.40
441.24	439.38
441.61	443.46
441.98	446.53
442.35	450.19
442.72	453.65
443.09	457.11
443.46	459.13
443.83	460.43
444.20	461.58
444.57	463.29
444.94	464.13
445.31	464.77
445.68	465.55
446.05	465.84
446.42	465.14
446.79	464.44
447.16	463.60
447.53	462.89
447.90	460.69
448.27	458.54
448.64	455.70
449.01	453.43
449.37	449.83
449.74	446.44
450.11	442.31
450.48	438.01
450.85	433.46
451.22	429.56
451.59	425.77
451.96	422.37
452.33	417.56
452.70	413.29
453.07	408.31
453.43	403.16
453.80	398.28
454.17	393.65
454.54	389.09
454.91	384.32
455.28	379.77
455.65	375.43
456.02	371.26
456.38	367.62
456.75	363.09
457.12	359.35
457.49	355.49
457.86	351.71
458.23	348.56
458.59	345.13
458.96	341.53
459.33	338.44
459.70	335.32
460.07	332.91
460.43	330.03
460.80	327.41
461.17	325.16
461.54	322.58
461.91	320.27
462.27	318.03
462.64	316.08
463.01	313.91
463.38	311.84
463.74	309.57
464.11	307.62
464.48	306.06
464.85	304.27
465.21	302.86
465.58	301.46
465.95	299.67
466.32	298.26
466.68	297.00
467.05	295.60
467.42	294.21
467.78	292.81
468.15	291.46
468.52	290.46
468.88	289.12
469.25	288.00
469.62	287.14
469.98	286.07
470.35	285.06
470.72	284.16
471.08	283.32
471.45	282.66
471.82	281.95
472.18	281.07
472.55	280.55
472.92	279.94
473.28	279.31
473.65	278.75
474.02	278.22
474.38	277.83
474.75	277.55
475.11	277.09
475.48	276.79
475.85	276.62
476.21	276.44
476.58	276.38
476.94	276.29
477.31	276.13
477.67	276.15
478.04	276.25
478.41	276.35
478.77	276.60
479.14	276.70
479.50	276.97
479.87	277.30
480.23	277.62
480.60	278.02
480.96	278.48
481.33	279.18
481.69	279.82
482.06	280.38
482.42	280.92
482.79	281.63
483.15	282.47
483.52	283.44
483.88	284.35
484.25	285.38
484.61	286.52
484.98	287.62
485.34	288.91
485.71	290.30
486.07	291.70
486.44	292.98
486.80	294.54
487.17	296.13
487.53	297.84
487.90	299.63
488.26	301.61
488.62	303.65
488.99	305.67
489.35	307.72
489.72	310.00
490.08	312.38
490.44	314.92
490.81	317.49
491.17	320.06
491.54	323.02
491.90	325.94
492.26	329.16
492.63	332.44
492.99	335.86
493.36	339.47
493.72	343.39
494.08	347.34
494.45	351.69
494.81	356.12
495.17	360.79
495.54	365.79
495.90	370.63
496.26	375.79
496.63	381.23
496.99	387.05
497.35	393.04
497.72	399.34
498.08	405.87
498.44	412.65
498.80	419.84
499.17	427.17
499.53	434.85
499.89	442.63
500.26	450.84
500.62	459.16
500.98	467.90
501.34	476.96
501.71	486.38
502.07	495.92
502.43	505.97
502.79	516.17
503.16	526.77
503.52	537.96
503.88	549.26
504.24	560.90
504.60	572.65
504.97	584.94
505.33	597.48
505.69	610.70
506.05	624.12
506.41	637.63
506.78	651.29
507.14	665.40
507.50	680.04
507.86	694.95
508.22	710.30
508.59	725.76
508.95	741.62
509.31	757.87
509.67	774.49
510.03	791.42
510.39	808.95
510.75	826.61
511.12	844.40
511.48	862.76
511.84	881.20
512.20	900.07
512.56	919.21
512.92	938.60
513.28	957.70
513.64	977.44
514.00	997.37
514.37	1017.67
514.73	1038.21
515.09	1058.81
515.45	1079.47
515.81	1100.52
516.17	1121.65
516.53	1142.94
516.89	1164.58
517.25	1185.87
517.61	1207.24
517.97	1228.46
518.33	1249.63
518.69	1270.99
519.05	1292.86
519.41	1314.92
519.77	1337.24
520.13	1359.08
520.49	1380.86
520.85	1403.55
521.21	1425.79
521.57	1448.46
521.93	1470.40
522.29	1493.23
522.65	1515.71
523.01	1537.97
523.37	1559.85
523.73	1582.23
524.09	1604.17
524.45	1625.93
524.81	1648.20
525.17	1670.29
525.53	1692.65
525.89	1714.72
526.25	1736.80
526.61	1758.18
526.97	1779.78
527.33	1800.61
527.68	1821.99
528.04	1843.06
528.40	1863.17
528.76	1883.62
529.12	1903.97
529.48	1925.35
529.84	1945.45
530.20	1965.43
530.56	1985.82
530.91	2006.50
531.27	2026.66
531.63	2046.68
531.99	2066.50
532.35	2085.46
532.71	2104.61
533.07	2123.78
533.42	2142.21
533.78	2160.80
534.14	2178.62
534.50	2195.48
534.86	2213.45
535.21	2230.07
535.57	2247.83
535.93	2265.11
536.29	2282.08
536.65	2298.53
537.00	2314.00
537.36	2329.01
537.72	2344.06
538.08	2358.85
538.44	2373.89
538.79	2388.89
539.15	2403.24
539.51	2417.49
539.87	2432.58
540.22	2446.44
540.58	2460.89
540.94	2475.11
541.29	2488.10
541.65	2500.33
542.01	2513.18
542.37	2524.95
542.72	2537.06
543.08	2547.53
543.44	2559.02
543.79	2568.68
544.15	2578.88
544.51	2589.53
544.87	2600.16
545.22	2609.07
545.58	2617.56
545.94	2624.46
546.29	2630.78
546.65	2637.11
547.01	2643.19
547.36	2648.53
547.72	2654.12
548.07	2658.15
548.43	2662.21
548.79	2665.94
549.14	2670.27
549.50	2674.86
549.86	2678.64
550.21	2682.28
550.57	2686.41
550.92	2688.68
551.28	2691.53
551.64	2693.67
551.99	2695.99
552.35	2697.63
552.70	2700.29
553.06	2703.05
553.41	2706.06
553.77	2708.89
554.13	2710.78
554.48	2712.61
554.84	2714.02
555.19	2714.61
555.55	2714.94
555.90	2715.14
556.26	2715.58
556.61	2715.74
556.97	2714.28
557.32	2713.84
557.68	2712.24
558.03	2710.83
558.39	2709.65
558.74	2708.84
559.10	2707.83
559.45	2705.68
559.81	2704.34
560.16	2701.53
560.52	2698.78
560.87	2695.74
561.23	2692.11
561.58	2689.95
561.94	2686.85
562.29	2683.12
562.64	2680.71
563.00	2678.02
563.35	2676.05
563.71	2674.23
564.06	2671.83
564.42	2669.85
564.77	2667.15
565.12	2665.24
565.48	2661.88
565.83	2658.82
566.19	2655.63
566.54	2651.45
566.89	2647.72
567.25	2643.66
567.60	2640.74
567.96	2637.32
568.31	2633.73
568.66	2629.52
569.02	2624.65
569.37	2619.43
569.72	2615.62
570.08	2610.42
570.43	2605.04
570.78	2599.22
571.14	2592.62
571.49	2586.06
571.84	2579.82
572.20	2572.97
572.55	2566.34
572.90	2559.48
573.26	2552.22
573.61	2545.16
573.96	2538.55
574.31	2530.52
574.67	2522.62
575.02	2514.02
575.37	2505.36
575.72	2496.29
576.08	2489.13
576.43	2480.69
576.78	2472.98
577.13	2464.87
577.49	2456.76
577.84	2449.04
578.19	2441.42
578.54	2434.18
578.90	2427.45
579.25	2419.30
579.60	2410.36
579.95	2401.23
580.30	2393.53
580.66	2385.79
581.01	2376.89
581.36	2367.65
581.71	2359.66
582.06	2351.39
582.42	2343.62
582.77	2334.82
583.12	2326.32
583.47	2317.32
583.82	2309.15
584.17	2299.87
584.53	2291.00
584.88	2282.26
585.23	2273.14
585.58	2263.42
585.93	2253.71
586.28	2244.20
586.63	2235.11
586.98	2226.89
587.34	2218.81
587.69	2209.77
588.04	2200.73
588.39	2192.43
588.74	2183.60
589.09	2174.91
589.44	2165.38
589.79	2156.58
590.14	2148.75
590.49	2140.08
590.84	2131.22
591.19	2122.89
591.54	2114.57
591.89	2104.28
592.25	2095.40
592.60	2085.95
592.95	2076.80
593.30	2067.55
593.65	2058.10
594.00	2048.64
594.35	2040.37
594.70	2031.13
595.05	2022.30
595.40	2013.43
595.75	2003.97
596.10	1996.02
596.45	1987.62
596.80	1980.17
597.15	1971.89
597.50	1962.67
597.85	1954.64
598.19	1946.10
598.54	1937.98
598.89	1930.29
599.24	1923.90
599.59	1916.31
599.94	1909.33
600.29	1901.74
600.64	1893.74
600.99	1885.51
601.34	1878.48
601.69	1869.93
602.04	1861.75
602.39	1853.72
602.74	1845.94
603.08	1839.59
603.43	1832.10
603.78	1823.74
604.13	1815.61
604.48	1807.77
604.83	1801.05
605.18	1794.17
605.53	1786.86
605.87	1779.09
606.22	1771.79
606.57	1764.12
606.92	1756.07
607.27	1748.08
607.62	1740.65
607.96	1733.90
608.31	1727.69
608.66	1719.94
609.01	1712.61
609.36	1705.05
609.70	1697.37
610.05	1689.72
610.40	1681.46
610.75	1673.42
611.10	1666.19
611.44	1657.15
611.79	1648.21
612.14	1639.05
612.49	1629.40
612.83	1620.63
613.18	1611.20
613.53	1602.00
613.88	1592.38
614.22	1583.59
614.57	1574.48
614.92	1565.18
615.27	1556.13
615.61	1546.56
615.96	1537.82
616.31	1529.31
616.65	1521.80
617.00	1513.53
617.35	1505.15
617.70	1496.34
618.04	1487.13
618.39	1477.74
618.74	1469.41
619.08	1460.83
619.43	1452.67
619.78	1445.07
620.12	1437.19
620.47	1429.33
620.82	1420.75
621.16	1412.39
621.51	1404.22
621.85	1396.04
622.20	1387.83
622.55	1379.32
622.89	1371.03
623.24	1363.25
623.59	1354.65
623.93	1345.75
624.28	1337.42
624.62	1329.19
624.97	1321.16
625.32	1313.44
625.66	1306.45
626.01	1299.31
626.35	1292.35
626.70	1284.69
627.04	1277.21
627.39	1269.56
627.73	1262.19
628.08	1255.37
628.43	1248.32
628.77	1240.99
629.12	1233.63
629.46	1227.33
629.81	1220.25
630.15	1213.10
630.50	1205.57
630.84	1198.55
631.19	1191.56
631.53	1184.67
631.88	1177.18
632.22	1169.50
632.57	1162.54
632.91	1154.98
633.26	1147.78
633.60	1140.50
633.95	1133.75
634.29	1126.31
634.64	1119.73
634.98	1112.84
635.32	1105.90
635.67	1099.50
636.01	1092.83
636.36	1086.24
636.70	1079.49
637.05	1073.09
637.39	1066.84
637.73	1060.60
638.08	1054.64
638.42	1049.02
638.77	1042.85
639.11	1036.74
639.45	1031.03
639.80	1024.75
640.14	1018.48
640.49	1012.10
640.83	1005.97
641.17	999.71
641.52	993.91
641.86	987.24
642.20	980.99
642.55	974.26
642.89	967.70
643.23	961.50
643.58	955.70
643.92	949.02
644.26	942.97
644.61	936.94
644.95	930.87
645.29	924.64
645.64	917.84
645.98	911.52
646.32	905.69
646.66	899.57
647.01	893.54
647.35	887.85
647.69	881.70
648.04	875.85
648.38	869.74
648.72	863.62
649.06	857.74
649.41	851.84
649.75	846.41
650.09	840.60
650.43	834.79
650.78	828.56
651.12	822.82
651.46	816.94
651.80	810.90
652.14	804.93
652.49	799.05
652.83	793.37
653.17	787.47
653.51	781.66
653.85	776.02
654.20	770.51
654.54	764.58
654.88	759.30
655.22	753.45
655.56	747.77
655.90	742.14
656.25	736.55
656.59	731.14
656.93	725.89
657.27	720.98
657.61	715.46
657.95	710.42
658.29	705.27
658.64	700.21
658.98	695.18
659.32	689.79
659.66	684.75
660.00	679.47
660.34	674.41
660.68	669.33
661.02	664.23
661.36	659.30
661.70	654.58
662.05	649.75
662.39	645.35
662.73	641.12
663.07	636.79
663.41	632.56
663.75	627.94
664.09	623.10
664.43	618.34
664.77	613.96
665.11	609.66
665.45	605.31
665.79	600.91
666.13	596.59
666.47	592.43
666.81	588.25
667.15	584.32
667.49	580.41
667.83	576.61
668.17	572.83
668.51	569.08
668.85	565.50
669.19	561.86
669.53	557.98
669.87	553.82
670.21	549.85
670.55	545.88
670.89	542.48
671.23	539.24
671.57	535.80
671.91	532.34
672.25	528.72
672.58	525.31
672.92	521.93
673.26	518.74
673.60	515.57
673.94	512.20
674.28	508.97
674.62	505.84
674.96	502.60
675.30	499.52
675.64	496.40
675.97	493.14
676.31	490.11
676.65	487.26
676.99	484.55
677.33	481.90
677.67	479.02
678.01	476.03
678.34	473.04
678.68	470.09
679.02	467.20
679.36	464.43
679.70	461.64
680.04	458.75
680.37	455.80
680.71	453.13
681.05	450.67
681.39	448.03
681.73	445.38
682.06	442.86
682.40	440.32
682.74	437.70
683.08	435.20
683.42	432.54
683.75	429.92
684.09	427.48
684.43	425.03
684.77	422.46
685.10	419.93
685.44	417.33
685.78	415.04
686.12	412.75
686.45	410.44
686.79	408.14
687.13	406.01
687.46	403.96
687.80	401.69
688.14	399.32
688.48	397.17
688.81	395.00
689.15	392.78
689.49	390.40
689.82	388.24
690.16	385.96
690.50	383.77
690.83	381.62
691.17	379.43
691.51	377.05
691.84	375.10
692.18	373.10
692.52	371.33
692.85	369.39
693.19	367.58
693.52	365.57
693.86	363.62
694.20	361.67
694.53	359.71
694.87	357.92
695.21	356.09
695.54	354.13
695.88	352.15
696.21	350.40
696.55	348.77
696.88	347.03
697.22	345.34
697.56	343.80
697.89	342.07
698.23	340.43
698.56	338.90
698.90	337.35
699.23	335.77
699.57	334.16
699.90	332.45
700.24	330.73
700.58	329.22
700.91	327.81
701.25	326.49
701.58	325.14
701.92	323.71
702.25	322.29
702.59	320.96
702.92	319.67
703.26	318.24
703.59	316.88
703.93	315.80
704.26	314.63
704.60	313.45
704.93	312.34
705.26	311.10
705.60	309.79
705.93	308.55
706.27	307.42
706.60	306.33
706.94	305.26
707.27	304.06
707.61	302.92
707.94	301.66
708.27	300.42
708.61	299.22
708.94	298.04
709.28	296.93
709.61	295.82
709.94	294.75
710.28	293.75
710.61	292.77
710.95	291.49
711.28	290.46
711.61	289.29
711.95	288.28
712.28	287.30
712.61	286.45
712.95	285.53
713.28	284.66
713.61	283.69
713.95	282.73
714.28	281.85
714.61	281.02
714.95	280.17
715.28	279.25
715.61	278.30
715.95	277.50
716.28	276.69
716.61	275.92
716.95	275.06
717.28	274.19
717.61	273.34
717.94	272.64
718.28	271.78
718.61	271.00
718.94	270.26
719.27	269.51
719.61	268.73
719.94	267.95
720.27	267.17
720.60	266.43
720.94	265.76
721.27	265.14
721.60	264.47
721.93	263.90
722.27	263.33
722.60	262.77
722.93	262.11
723.26	261.53
723.59	260.91
723.93	260.47
724.26	259.88
724.59	259.26
724.92	258.71
725.25	258.21
725.59	257.71
725.92	257.24
726.25	256.76
726.58	256.29
726.91	255.85
727.24	255.41
727.57	254.92
727.91	254.43
728.24	253.94
728.57	253.49
728.90	253.04
729.23	252.54
729.56	252.19
729.89	251.79
730.22	251.33
730.55	250.83
730.89	250.25
731.22	249.85
731.55	249.45
731.88	249.07
732.21	248.65
732.54	248.22
732.87	247.67
733.20	247.35
733.53	246.84
733.86	246.46
734.19	246.00
734.52	245.58
734.85	245.36
735.18	245.01
735.51	244.68
735.84	244.26
736.17	243.93
736.50	243.42
736.83	243.20
737.16	242.82
737.49	242.51
737.82	242.24
738.15	241.81
738.48	241.50
738.81	241.00
739.14	240.65
739.47	240.33
739.80	240.02
740.13	239.61
740.46	239.37
740.79	238.97
741.12	238.67
741.45	238.41
741.78	237.89
742.11	237.59
742.44	237.25
742.77	236.99
743.10	236.70
743.43	236.45
743.75	236.02
744.08	235.91
744.41	235.62
744.74	235.37
745.07	235.12
745.40	234.89
745.73	234.75
746.06	234.41
746.39	234.15
746.71	233.89
747.04	233.55
747.37	233.31
747.70	233.03
748.03	232.80
748.36	232.60
748.68	232.40
749.01	232.10
749.34	231.84
749.67	231.57
750.00	231.34
750.33	231.19
750.65	230.91
750.98	230.53
751.31	230.34
751.64	230.05
751.97	229.95
752.29	229.65
752.62	229.35
752.95	229.09
753.28	228.84
753.60	228.61
753.93	228.56
754.26	228.33
754.59	228.09
754.91	227.77
755.24	227.47
755.57	227.25
755.90	227.00
756.22	226.81
756.55	226.53
756.88	226.35
757.20	226.00
757.53	225.73
757.86	225.48
758.19	225.21
758.51	225.05
758.84	224.74
759.17	224.55
759.49	224.38
759.82	224.31
760.15	224.19
760.47	224.04
760.80	223.73
761.13	223.65
761.45	223.47
761.78	223.36
762.11	223.19
762.43	223.03
762.76	222.87
763.08	222.72
763.41	222.63
763.74	222.43
764.06	222.37
764.39	222.27
764.71	222.17
765.04	222.05
765.37	221.87
765.69	221.72
766.02	221.59
766.34	221.48
766.67	221.35
767.00	221.22
767.32	221.17
767.65	221.12
767.97	220.91
768.30	220.84
768.62	220.71
768.95	220.59
769.27	220.55
769.60	220.53
769.92	220.39
770.25	220.29
770.57	220.19
770.90	220.01
771.22	219.90
771.55	219.78
771.87	219.71
772.20	219.59
772.52	219.68
772.85	219.83
773.17	219.73
773.50	219.59
773.82	219.52
774.15	219.35
774.47	219.22
774.80	219.13
775.12	219.03
775.45	218.96
775.77	219.00
776.09	218.91
776.42	218.77
776.74	218.71
777.07	218.60
777.39	218.47
777.72	218.38
778.04	218.33
778.36	218.25
778.69	218.10
779.01	218.08
779.33	217.80
779.66	217.45
779.98	217.35
780.31	217.30
780.63	217.20
780.95	217.22
781.28	217.09
781.60	217.02
781.92	216.96
782.25	216.87
782.57	216.74
782.89	216.60
783.22	216.52
783.54	216.43
783.86	216.41
784.19	216.33
784.51	216.31
784.83	216.27
785.16	216.25
785.48	216.17
785.80	216.14
786.12	216.20
786.45	216.15
786.77	216.06
787.09	215.94
787.42	215.93
787.74	215.92
788.06	215.95
788.38	215.89
788.71	215.80
789.03	215.81
789.35	215.79
789.67	215.78
789.99	215.83
790.32	215.80
790.64	215.77
790.96	215.94
791.28	215.81
791.61	215.74
791.93	215.63
792.25	215.61
792.57	215.70
792.89	215.55
793.21	215.52
793.54	215.49
793.86	215.49
794.18	215.45
794.50	215.24
794.82	215.10
795.14	215.08
795.47	215.13
795.79	215.01
796.11	214.95
796.43	214.85
796.75	214.83
797.07	214.79
797.39	214.70
797.71	214.56
798.04	214.52
798.36	214.50
798.68	214.48
799.00	214.50
799.32	214.30
799.64	214.32
799.96	214.37
800.28	214.44
800.60	214.36
800.92	214.32
801.24	214.38
801.56	214.48
801.89	214.41
802.21	214.30
802.53	214.28
802.85	214.24
803.17	214.30
803.49	214.17
803.81	214.14
804.13	214.07
804.45	214.00
804.77	214.05
805.09	214.05
805.41	214.01
805.73	213.97
806.05	213.95
806.37	214.01
806.69	213.85
807.01	213.76
807.33	213.76
807.65	213.68
807.97	213.66
808.28	213.56
808.60	213.46
808.92	213.46
809.24	213.58
809.56	213.43
809.88	213.37
810.20	213.37
810.52	213.35
810.84	213.38
811.16	213.29
811.48	213.26
811.80	213.30
812.12	213.27
812.43	213.25
812.75	213.19
813.07	213.08
813.39	213.08
813.71	213.05
814.03	213.01
814.35	212.96
814.67	212.85
814.98	212.83
815.30	212.89
815.62	212.80
815.94	212.66
816.26	212.70
816.58	212.58
816.89	212.54
817.21	212.40
817.53	212.42
817.85	212.40
818.17	212.37
818.48	212.31
818.80	212.36
819.12	212.31
819.44	212.28
819.76	212.30
820.07	212.30
820.39	212.27
820.71	212.29
821.03	212.25
821.34	212.26
821.66	212.25
821.98	212.27
822.30	212.28
822.61	212.31
822.93	212.30
823.25	212.38
823.57	212.35
823.88	212.45
824.20	212.39
824.52	212.48
824.83	212.47
825.15	212.44
825.47	212.40
825.79	212.42
826.10	212.43
826.42	212.35
826.74	212.43
827.05	212.35
827.37	212.32
827.69	212.35
828.00	212.34
828.32	212.33
828.64	212.25
828.95	212.35
829.27	212.26
829.58	212.26
829.90	212.25
830.22	212.30
830.53	212.35
830.85	212.35
831.17	212.25
831.48	212.14
831.80	212.09
832.11	212.04
832.43	212.02
832.75	212.03
833.06	212.06
833.38	211.96
833.69	212.04
834.01	212.04
834.32	212.02
834.64	212.03
834.96	211.98
835.27	211.99
835.59	211.94
835.90	211.99
836.22	212.05
836.53	212.00
836.85	211.92
837.16	211.93
837.48	211.89
837.79	211.94
838.11	212.03
838.42	212.01
838.74	212.06
839.05	212.05
839.37	212.08
839.68	212.07
840.00	212.14
840.31	212.11
840.63	212.13
840.94	212.13
841.26	212.13
841.57	212.14
841.88	212.18
842.20	212.09
842.51	212.03
842.83	212.00
843.14	212.20
843.46	212.21
843.77	212.14
844.08	212.22
844.40	212.12
844.71	212.09
845.03	212.08
845.34	212.05
845.65	212.04
845.97	212.04
846.28	212.07
846.60	212.12
846.91	212.10
847.22	212.14
847.54	212.22
847.85	212.20
848.16	212.23
848.48	212.19
848.79	212.31
849.10	212.37
849.42	212.32
849.73	212.16
850.04	212.22
850.36	212.19
850.67	212.18
850.98	212.24
851.30	212.36
851.61	212.39
851.92	212.41
852.23	212.42
852.55	212.35
852.86	212.32
853.17	212.21
853.49	212.35
853.80	212.43
854.11	212.40
854.42	212.43
854.74	212.39
855.05	212.39
855.36	212.33
855.67	212.29
855.99	212.33
856.30	212.50
856.61	212.44
856.92	212.41
857.23	212.38
857.55	212.34
857.86	212.22
858.17	212.19
858.48	212.12
858.79	212.14
859.11	212.15
859.42	212.11
859.73	212.10
860.04	212.03
860.35	211.91
860.66	211.86
860.98	211.93
861.29	212.01
861.60	211.97
861.91	212.02
862.22	212.03
862.53	211.93
862.84	211.80
863.16	211.87
863.47	211.89
863.78	211.89
864.09	211.96
864.40	212.00
864.71	211.97
865.02	212.05
865.33	211.99
865.64	212.05
865.95	212.02
866.27	212.13
866.58	212.07
866.89	212.08
867.20	212.04
867.51	212.00
867.82	211.97
868.13	212.02
868.44	211.95
868.75	211.93
869.06	211.97
869.37	211.92
869.68	211.83
869.99	211.89
870.30	211.87
870.61	211.83
870.92	211.78
871.23	211.78
871.54	211.76
871.85	211.82
872.16	211.79
872.47	211.75
872.78	211.64
873.09	211.74
873.40	211.67
873.71	211.69
874.02	211.57
874.33	211.51
874.64	211.48
874.95	211.49
875.26	211.44
875.56	211.47
875.87	211.46
876.18	211.44
876.49	211.55
876.80	211.48
877.11	211.47
877.42	211.44
877.73	211.48
878.04	211.41
878.35	211.43
878.66	211.40
878.96	211.44
879.27	211.45
879.58	211.37
879.89	211.42
880.20	211.48
880.51	211.56
880.82	211.57
881.12	211.63
881.43	211.61
881.74	211.56
882.05	211.59
882.36	211.60
882.67	211.66
882.97	211.50
883.28	211.52
883.59	211.53
883.90	211.65
884.21	211.69
884.51	211.73
884.82	211.71
885.13	211.75
885.44	211.68
885.74	211.67
886.05	211.66
886.36	211.58
886.67	211.48
886.98	211.55
887.28	211.54
887.59	211.51
887.90	211.49
888.20	211.48
888.51	211.45
888.82	211.45
889.13	211.44
889.43	211.55
889.74	211.53
890.05	211.53
890.35	211.44
890.66	211.35
890.97	211.36
891.28	211.31
891.58	211.28
891.89	211.36
892.20	211.30
892.50	211.27
892.81	211.27
893.12	211.25
893.42	211.09
893.73	211.02
894.04	210.99
894.34	211.00
894.65	211.03
894.95	211.02
895.26	210.99
895.57	211.07
895.87	210.95
896.18	210.97
896.48	210.90
896.79	210.95
897.10	211.04
897.40	211.00
897.71	211.01
898.01	210.95
898.32	210.91
898.63	210.97
898.93	210.95
899.24	210.98
899.54	210.99
899.85	210.96
900.15	211.08
900.46	211.04
900.76	211.10
901.07	211.09
901.38	211.00
901.68	210.97
901.99	210.87
902.29	210.79
902.60	210.83
902.90	210.89
903.21	210.84
903.51	210.75
903.82	210.84
904.12	210.83
904.43	210.90
904.73	210.90
905.03	210.89
905.34	211.10
905.64	211.09
905.95	211.11
906.25	211.21
906.56	211.17
906.86	211.21
907.17	211.11
907.47	211.16
907.77	211.21
908.08	211.20
908.38	211.19
908.69	211.22
908.99	211.23
909.30	211.17
909.60	211.19
909.90	211.23
910.21	211.16
910.51	211.09
910.81	211.07
911.12	211.03
911.42	211.09
911.73	210.90
912.03	210.87
912.33	210.87
912.64	210.90
912.94	210.93
913.24	210.89
913.55	210.96
913.85	210.95
914.15	210.98
914.46	210.99
914.76	210.97
915.06	211.02
915.37	210.93
915.67	210.88
915.97	210.88
916.27	210.77
916.58	210.78
916.88	210.80
917.18	210.78
917.49	210.95
917.79	210.97
918.09	211.05
918.39	211.10
918.70	211.11
919.00	210.99
919.30	211.06
919.60	211.07
919.91	211.08
920.21	211.09
920.51	211.15
920.81	211.16
921.12	211.26
921.42	211.24
921.72	211.32
922.02	211.39
922.32	211.38
922.63	211.50
922.93	211.59
923.23	211.64
923.53	211.61
923.83	211.48
924.13	211.40
924.44	211.33
924.74	211.40
925.04	211.44
925.34	211.48
925.64	211.36
925.94	211.41
926.24	211.49
926.55	211.49
926.85	211.39
927.15	211.38
927.45	211.30
927.75	211.29
928.05	211.25
928.35	211.25
928.65	211.36
928.95	211.35
929.26	211.25
929.56	211.31
929.86	211.37
930.16	211.36
930.46	211.38
930.76	211.44
931.06	211.34
931.36	211.30
931.66	211.34
931.96	211.40
932.26	211.28
932.56	211.14
932.86	211.13
933.16	211.19
933.46	211.23
933.76	211.18
934.06	211.19
934.36	211.21
934.66	211.14
934.96	211.07
935.26	211.05
935.56	211.04
935.86	210.89
936.16	210.88
936.46	210.82
936.76	210.80
937.06	210.79
937.36	210.77
937.66	210.71
937.96	210.73
938.26	210.67
938.56	210.66
938.86	210.72
939.16	210.79
939.46	210.83
939.76	210.80
940.06	210.87
940.35	210.84
940.65	210.75
940.95	210.82
941.25	210.70
941.55	210.63
941.85	210.62
942.15	210.68
942.45	210.66
942.75	210.71
943.04	210.68
943.34	210.62
943.64	210.60
943.94	210.58
944.24	210.61
944.54	210.62
944.84	210.64
945.13	210.57
945.43	210.46
945.73	210.39
946.03	210.35
946.33	210.38
946.62	210.33
946.92	210.41
947.22	210.42
947.52	210.50
947.82	210.53
948.11	210.55
948.41	210.58
948.71	210.60
949.01	210.57
949.31	210.56
949.60	210.62
949.90	210.70
950.20	210.79
950.50	210.70
950.79	210.72
951.09	210.73
951.39	210.76
951.69	210.82
951.98	210.83
952.28	210.85
952.58	210.77
952.87	210.80
953.17	210.78
953.47	210.82
953.76	210.80
954.06	210.86
954.36	210.83
954.66	210.78
954.95	210.76
955.25	210.84
955.55	210.92
955.84	210.86
956.14	210.86
956.44	210.84
956.73	210.87
957.03	210.85
957.32	210.85
957.62	210.80
957.92	210.80
958.21	210.81
958.51	211.02
958.81	211.08
959.10	211.09
959.40	211.16
959.69	211.06
959.99	211.09
960.29	211.02
960.58	211.04
960.88	211.07
961.17	211.09
961.47	211.01
961.76	210.98
962.06	211.06
962.36	211.02
962.65	211.08
962.95	211.04
963.24	211.00
963.54	210.98
963.83	211.04
964.13	211.01
964.42	210.99
964.72	210.88
965.01	210.81
965.31	210.79
965.60	210.71
965.90	210.86
966.19	210.88
966.49	210.90
966.78	210.92
967.08	210.99
967.37	210.97
967.67	210.96
967.96	211.02
968.26	210.99
968.55	211.08
968.85	211.03
969.14	211.04
969.43	211.08
969.73	211.10
970.02	211.10
970.32	211.11
970.61	211.09
970.91	210.98
971.20	211.04
971.49	211.03
971.79	211.10
972.08	211.02
972.38	211.01
972.67	211.06
972.96	211.06
973.26	211.05
973.55	211.11
973.85	211.15
974.14	211.10
974.43	211.16
974.73	211.07
975.02	211.08
975.31	211.08
975.61	211.10
975.90	211.13
976.19	211.15
976.49	211.17
976.78	211.25
977.07	211.28
977.37	211.28
977.66	211.38
977.95	211.32
978.24	211.32
978.54	211.31
978.83	211.26
979.12	211.31
979.42	211.26
979.71	211.29
980.00	211.31
980.29	211.33
980.59	211.25
980.88	211.36
981.17	211.35
981.46	211.38
981.76	211.40
982.05	211.46
982.34	211.46
982.63	211.42
982.93	211.39
983.22	211.47
983.51	211.53
983.80	211.53
984.09	211.55
984.39	211.59
984.68	211.60
984.97	211.65
985.26	211.63
985.55	211.70
985.85	211.66
986.14	211.70
986.43	211.67
986.72	211.72
987.01	211.57
987.30	211.57
987.59	211.50
987.89	211.48
988.18	211.36
988.47	211.38
988.76	211.42
989.05	211.43
989.34	211.38
989.63	211.30
989.92	211.25
990.22	211.19
990.51	211.19
990.80	211.14
991.09	211.11
991.38	211.06
991.67	211.00
991.96	210.95
992.25	210.91
992.54	210.94
992.83	210.89
993.12	210.92
993.41	210.89
993.70	211.04
993.99	211.06
994.28	211.09
994.58	211.02
994.87	210.92
995.16	210.86
995.45	210.82
995.74	210.88
996.03	210.90
996.32	210.96
996.61	210.96
996.90	210.98
997.19	210.96
997.48	211.00
997.77	210.98
998.06	211.00
998.34	210.97
998.63	210.94
998.92	210.93
999.21	210.98
999.50	210.97
999.79	210.82
1000.08	210.83
1000.37	210.87
1000.66	210.83
1000.95	210.89
1001.24	210.85
1001.53	210.84
1001.82	210.81
1002.11	210.75
1002.40	210.78
1002.68	210.77
1002.97	210.91
1003.26	210.93
1003.55	210.84
1003.84	210.90
1004.13	210.95
1004.42	211.01
1004.71	211.02
1004.99	211.01
1005.28	211.03
1005.57	211.08
1005.86	211.18
1006.15	211.18
1006.44	211.17
1006.72	211.26
1007.01	211.27
1007.30	211.37
1007.59	211.40
1007.88	211.36
1008.17	211.44
1008.45	211.37
1008.74	211.32
1009.03	211.19
1009.32	211.19
1009.60	211.30
1009.89	211.25
1010.18	211.18
1010.47	211.13
1010.76	211.12
1011.04	211.10
1011.33	211.14
1011.62	211.15
1011.91	211.14
1012.19	211.18
1012.48	211.13
1012.77	211.14
1013.05	211.24
1013.34	211.22
1013.63	211.16
1013.92	211.19
1014.20	211.09
1014.49	211.20
1014.78	211.18
1015.06	211.11
1015.35	211.12
1015.64	211.05
1015.92	211.04
1016.21	211.08
1016.50	211.10
1016.78	211.14
1017.07	211.15
1017.36	211.07
1017.64	210.96
1017.93	210.93
1018.22	210.84
1018.50	210.87
1018.79	210.85
1019.08	210.71
1019.36	210.76
1019.65	210.80
1019.93	210.85
1020.22	210.89
1020.51	210.85
1020.79	210.91
1021.08	210.15
1021.36	211.00
1021.65	211.05
1021.94	210.35
1022.22	211.85
1022.51	211.00
1022.79	211.95
1023.08	210.40
1023.36	212.15
1023.65	211.15
>>>>>End Processed Spectral Data<<<<<
