SpectraSuite Data File
++++++++++++++++++++++++++++++++++++
Date: Mon Feb 25 17:34:57 EST 2013
User: group
Dark Spectrum Present: No
Reference Spectrum Present: No
Number of Sampled Component Spectra: 1
Spectrometers: USB2E7196
Integration Time (usec): 52000 (USB2E7196)
Spectra Averaged: 20 (USB2E7196)
Boxcar Smoothing: 10 (USB2E7196)
Correct for Electrical Dark: No (USB2E7196)
Strobe/Lamp Enabled: No (USB2E7196)
Correct for Detector Non-linearity: No (USB2E7196)
Correct for Stray Light: No (USB2E7196)
Number of Pixels in Processed Spectrum: 2048
>>>>>Begin Processed Spectral Data<<<<<
339.09	0.00
339.48	198.00
339.86	199.20
340.24	201.70
340.63	202.95
341.01	206.95
341.39	206.25
341.78	206.35
342.16	207.30
342.54	209.60
342.93	198.02
343.31	208.04
343.69	208.60
344.07	209.12
344.46	209.55
344.84	210.00
345.22	210.23
345.60	210.52
345.99	210.79
346.37	210.95
346.75	211.04
347.13	211.16
347.52	211.21
347.90	211.38
348.28	211.32
348.66	211.32
349.05	211.37
349.43	211.40
349.81	211.50
350.19	211.58
350.57	211.70
350.96	211.79
351.34	211.91
351.72	212.09
352.10	212.18
352.48	212.25
352.87	212.26
353.25	212.33
353.63	212.35
354.01	212.41
354.39	212.55
354.77	212.59
355.15	212.71
355.54	212.80
355.92	212.77
356.30	212.86
356.68	213.08
357.06	213.20
357.44	213.26
357.82	213.32
358.20	213.34
358.58	213.34
358.97	213.41
359.35	213.45
359.73	213.48
360.11	213.55
360.49	213.56
360.87	213.64
361.25	213.64
361.63	213.75
362.01	213.80
362.39	213.81
362.77	213.85
363.15	213.87
363.53	213.92
363.91	213.87
364.29	213.87
364.67	213.74
365.05	213.69
365.43	213.71
365.81	213.72
366.19	213.81
366.57	213.90
366.95	213.95
367.33	213.85
367.71	213.85
368.09	213.84
368.47	213.84
368.85	213.75
369.23	213.82
369.61	213.73
369.99	213.71
370.37	213.64
370.75	213.67
371.13	213.61
371.51	213.41
371.89	213.45
372.27	213.45
372.65	213.37
373.03	213.37
373.41	213.30
373.78	213.23
374.16	213.13
374.54	213.07
374.92	212.90
375.30	212.89
375.68	212.85
376.06	212.84
376.44	212.80
376.82	212.77
377.19	212.70
377.57	212.58
377.95	212.50
378.33	212.50
378.71	212.34
379.09	212.30
379.47	212.32
379.84	212.19
380.22	212.16
380.60	212.12
380.98	212.06
381.36	212.03
381.73	212.01
382.11	212.03
382.49	211.90
382.87	211.86
383.25	211.89
383.62	212.01
384.00	212.02
384.38	212.06
384.76	212.09
385.13	212.10
385.51	212.12
385.89	212.05
386.27	212.03
386.64	212.11
387.02	212.10
387.40	212.09
387.78	212.11
388.15	212.02
388.53	212.02
388.91	211.96
389.29	211.94
389.66	211.95
390.04	211.78
390.42	211.88
390.79	211.93
391.17	211.87
391.55	211.64
391.92	211.57
392.30	211.59
392.68	211.56
393.05	211.55
393.43	211.57
393.81	211.56
394.18	211.54
394.56	211.51
394.94	211.50
395.31	211.45
395.69	211.55
396.06	211.58
396.44	211.54
396.82	211.48
397.19	211.57
397.57	211.57
397.95	211.65
398.32	211.59
398.70	211.61
399.07	211.63
399.45	211.69
399.82	211.66
400.20	211.64
400.58	211.71
400.95	211.68
401.33	211.78
401.70	212.04
402.08	212.10
402.45	212.16
402.83	212.30
403.20	212.44
403.58	212.49
403.95	212.62
404.33	212.70
404.71	212.87
405.08	213.07
405.46	213.15
405.83	213.33
406.21	213.48
406.58	213.69
406.96	213.87
407.33	214.01
407.70	214.27
408.08	214.56
408.45	214.84
408.83	215.17
409.20	215.30
409.58	215.37
409.95	215.75
410.33	216.06
410.70	216.32
411.08	216.67
411.45	216.97
411.82	217.32
412.20	217.89
412.57	218.44
412.95	218.80
413.32	219.38
413.69	219.95
414.07	220.55
414.44	221.13
414.82	221.78
415.19	222.57
415.56	223.36
415.94	224.10
416.31	224.92
416.68	225.73
417.06	226.77
417.43	227.82
417.81	228.85
418.18	230.04
418.55	231.26
418.93	232.61
419.30	234.00
419.67	235.42
420.04	236.85
420.42	238.24
420.79	240.04
421.16	241.74
421.54	243.52
421.91	245.34
422.28	247.29
422.66	249.34
423.03	251.41
423.40	253.52
423.77	255.77
424.15	258.02
424.52	260.41
424.89	263.05
425.26	265.50
425.64	267.93
426.01	270.45
426.38	273.15
426.75	275.79
427.13	278.55
427.50	281.50
427.87	284.61
428.24	287.79
428.61	290.78
428.99	294.01
429.36	297.52
429.73	301.07
430.10	304.53
430.47	308.18
430.85	311.82
431.22	315.70
431.59	319.83
431.96	323.75
432.33	328.20
432.70	332.33
433.08	337.29
433.45	341.89
433.82	346.50
434.19	351.76
434.56	356.78
434.93	361.68
435.30	366.49
435.68	371.74
436.05	376.97
436.42	382.08
436.79	386.88
437.16	392.00
437.53	397.39
437.90	402.79
438.27	408.00
438.64	413.36
439.01	418.24
439.38	422.59
439.75	426.85
440.13	431.65
440.50	436.21
440.87	439.87
441.24	443.74
441.61	448.00
441.98	451.02
442.35	454.73
442.72	458.37
443.09	461.87
443.46	463.90
443.83	465.27
444.20	466.31
444.57	468.12
444.94	468.87
445.31	469.63
445.68	470.33
446.05	470.48
446.42	469.84
446.79	469.22
447.16	468.31
447.53	467.77
447.90	465.62
448.27	463.55
448.64	460.76
449.01	458.58
449.37	455.01
449.74	451.49
450.11	447.27
450.48	442.72
450.85	438.03
451.22	434.04
451.59	430.30
451.96	426.74
452.33	421.92
452.70	417.55
453.07	412.29
453.43	406.93
453.80	401.94
454.17	397.13
454.54	392.50
454.91	387.77
455.28	382.97
455.65	378.58
456.02	374.21
456.38	370.42
456.75	365.79
457.12	361.92
457.49	357.99
457.86	354.23
458.23	350.99
458.59	347.51
458.96	344.01
459.33	340.90
459.70	337.78
460.07	335.14
460.43	332.22
460.80	329.57
461.17	327.34
461.54	324.83
461.91	322.57
462.27	320.21
462.64	318.17
463.01	315.92
463.38	313.80
463.74	311.55
464.11	309.62
464.48	307.97
464.85	306.11
465.21	304.78
465.58	303.34
465.95	301.55
466.32	300.17
466.68	298.75
467.05	297.21
467.42	295.84
467.78	294.48
468.15	293.13
468.52	292.11
468.88	290.72
469.25	289.57
469.62	288.45
469.98	287.41
470.35	286.52
470.72	285.70
471.08	284.67
471.45	283.90
471.82	283.06
472.18	282.28
472.55	281.68
472.92	280.90
473.28	280.29
473.65	279.69
474.02	279.11
474.38	278.67
474.75	278.32
475.11	277.92
475.48	277.63
475.85	277.43
476.21	277.25
476.58	277.17
476.94	277.14
477.31	277.16
477.67	277.10
478.04	277.00
478.41	277.09
478.77	277.39
479.14	277.47
479.50	277.76
479.87	277.99
480.23	278.43
480.60	278.81
480.96	279.26
481.33	279.93
481.69	280.61
482.06	281.19
482.42	281.85
482.79	282.54
483.15	283.39
483.52	284.40
483.88	285.34
484.25	286.23
484.61	287.15
484.98	288.27
485.34	289.50
485.71	290.98
486.07	292.35
486.44	293.69
486.80	295.27
487.17	296.86
487.53	298.66
487.90	300.44
488.26	302.40
488.62	304.47
488.99	306.57
489.35	308.64
489.72	310.87
490.08	313.36
490.44	315.88
490.81	318.47
491.17	321.11
491.54	324.02
491.90	327.04
492.26	330.38
492.63	333.69
492.99	337.25
493.36	340.79
493.72	344.61
494.08	348.58
494.45	352.99
494.81	357.45
495.17	362.02
495.54	366.93
495.90	372.02
496.26	377.27
496.63	382.73
496.99	388.59
497.35	394.75
497.72	401.01
498.08	407.46
498.44	414.16
498.80	421.31
499.17	428.66
499.53	436.28
499.89	444.30
500.26	452.42
500.62	460.77
500.98	469.67
501.34	478.84
501.71	488.35
502.07	498.00
502.43	508.05
502.79	518.36
503.16	529.04
503.52	539.91
503.88	551.16
504.24	562.86
504.60	574.58
504.97	586.70
505.33	599.33
505.69	612.70
506.05	626.32
506.41	640.00
506.78	653.68
507.14	667.85
507.50	682.33
507.86	697.34
508.22	712.82
508.59	728.36
508.95	744.48
509.31	760.66
509.67	777.18
510.03	794.33
510.39	811.81
510.75	829.60
511.12	847.68
511.48	866.09
511.84	884.78
512.20	903.51
512.56	922.95
512.92	942.45
513.28	962.08
513.64	981.99
514.00	1002.09
514.37	1022.62
514.73	1043.51
515.09	1064.57
515.45	1085.48
515.81	1106.72
516.17	1127.91
516.53	1149.26
516.89	1171.14
517.25	1193.06
517.61	1214.67
517.97	1236.35
518.33	1258.03
518.69	1280.10
519.05	1302.45
519.41	1324.67
519.77	1347.43
520.13	1369.62
520.49	1391.90
520.85	1414.40
521.21	1436.93
521.57	1460.02
521.93	1481.98
522.29	1505.26
522.65	1527.86
523.01	1550.62
523.37	1572.99
523.73	1595.70
524.09	1618.09
524.45	1640.48
524.81	1662.81
525.17	1685.29
525.53	1708.19
525.89	1730.65
526.25	1752.66
526.61	1773.96
526.97	1795.95
527.33	1817.64
527.68	1839.59
528.04	1861.04
528.40	1881.47
528.76	1902.35
529.12	1923.23
529.48	1945.31
529.84	1965.50
530.20	1985.92
530.56	2006.45
530.91	2027.36
531.27	2048.01
531.63	2068.34
531.99	2088.37
532.35	2107.89
532.71	2127.28
533.07	2146.62
533.42	2165.35
533.78	2184.37
534.14	2203.15
534.50	2220.31
534.86	2238.40
535.21	2255.25
535.57	2273.38
535.93	2291.24
536.29	2308.33
536.65	2324.99
537.00	2341.01
537.36	2356.54
537.72	2371.79
538.08	2387.19
538.44	2402.50
538.79	2418.07
539.15	2433.18
539.51	2447.96
539.87	2463.21
540.22	2477.60
540.58	2492.84
540.94	2507.63
541.29	2520.92
541.65	2533.31
542.01	2546.81
542.37	2558.75
542.72	2571.03
543.08	2581.81
543.44	2594.02
543.79	2604.54
544.15	2615.16
544.51	2625.92
544.87	2637.00
545.22	2646.64
545.58	2655.53
545.94	2663.15
546.29	2669.60
546.65	2676.25
547.01	2682.83
547.36	2688.90
547.72	2694.99
548.07	2699.00
548.43	2703.17
548.79	2707.28
549.14	2712.00
549.50	2716.78
549.86	2721.01
550.21	2725.39
550.57	2729.71
550.92	2732.09
551.28	2735.18
551.64	2737.59
551.99	2740.00
552.35	2741.80
552.70	2744.82
553.06	2747.68
553.41	2750.75
553.77	2753.82
554.13	2755.76
554.48	2757.53
554.84	2758.85
555.19	2759.34
555.55	2759.93
555.90	2760.24
556.26	2761.00
556.61	2761.02
556.97	2759.38
557.32	2759.50
557.68	2757.75
558.03	2756.47
558.39	2755.70
558.74	2755.13
559.10	2753.98
559.45	2752.55
559.81	2751.74
560.16	2749.10
560.52	2746.93
560.87	2743.48
561.23	2739.93
561.58	2737.70
561.94	2734.73
562.29	2731.28
562.64	2729.41
563.00	2727.12
563.35	2724.90
563.71	2723.00
564.06	2721.21
564.42	2719.82
564.77	2717.40
565.12	2715.92
565.48	2712.84
565.83	2709.48
566.19	2705.97
566.54	2702.07
566.89	2698.11
567.25	2694.24
567.60	2691.08
567.96	2687.13
568.31	2683.92
568.66	2680.50
569.02	2675.92
569.37	2670.44
569.72	2666.60
570.08	2661.01
570.43	2655.13
570.78	2649.45
571.14	2643.19
571.49	2636.54
571.84	2630.47
572.20	2623.10
572.55	2616.54
572.90	2609.36
573.26	2602.31
573.61	2595.23
573.96	2588.53
574.31	2580.65
574.67	2572.54
575.02	2563.86
575.37	2555.07
575.72	2545.86
576.08	2537.83
576.43	2528.98
576.78	2521.76
577.13	2513.46
577.49	2505.37
577.84	2497.66
578.19	2490.12
578.54	2482.71
578.90	2475.57
579.25	2466.65
579.60	2457.58
579.95	2447.85
580.30	2439.99
580.66	2431.61
581.01	2422.41
581.36	2412.87
581.71	2404.48
582.06	2395.75
582.42	2387.44
582.77	2378.66
583.12	2370.01
583.47	2361.15
583.82	2353.16
584.17	2343.70
584.53	2334.48
584.88	2325.31
585.23	2316.27
585.58	2306.35
585.93	2296.57
586.28	2287.00
586.63	2278.30
586.98	2270.13
587.34	2261.91
587.69	2252.68
588.04	2243.56
588.39	2235.61
588.74	2227.05
589.09	2218.25
589.44	2208.61
589.79	2200.02
590.14	2192.04
590.49	2183.62
590.84	2174.49
591.19	2165.99
591.54	2157.33
591.89	2147.35
592.25	2138.17
592.60	2128.44
592.95	2119.02
593.30	2109.41
593.65	2099.67
594.00	2089.62
594.35	2081.10
594.70	2071.41
595.05	2062.51
595.40	2053.49
595.75	2043.27
596.10	2034.71
596.45	2026.08
596.80	2018.24
597.15	2009.85
597.50	2000.16
597.85	1991.48
598.19	1982.75
598.54	1974.04
598.89	1965.76
599.24	1959.03
599.59	1951.66
599.94	1944.41
600.29	1936.69
600.64	1928.42
600.99	1920.09
601.34	1913.06
601.69	1904.17
602.04	1896.42
602.39	1888.33
602.74	1880.40
603.08	1874.05
603.43	1866.43
603.78	1858.14
604.13	1849.87
604.48	1841.83
604.83	1834.93
605.18	1827.72
605.53	1820.02
605.87	1812.13
606.22	1804.97
606.57	1796.79
606.92	1788.48
607.27	1780.46
607.62	1772.76
607.96	1765.87
608.31	1759.56
608.66	1751.34
609.01	1743.76
609.36	1735.84
609.70	1727.81
610.05	1720.13
610.40	1711.49
610.75	1702.79
611.10	1695.29
611.44	1686.16
611.79	1677.10
612.14	1667.79
612.49	1658.21
612.83	1649.45
613.18	1639.67
613.53	1630.05
613.88	1620.20
614.22	1611.30
614.57	1601.82
614.92	1592.54
615.27	1583.20
615.61	1573.35
615.96	1564.44
616.31	1555.71
616.65	1547.51
617.00	1538.92
617.35	1530.01
617.70	1521.10
618.04	1512.12
618.39	1502.42
618.74	1494.12
619.08	1485.34
619.43	1477.00
619.78	1469.04
620.12	1460.87
620.47	1453.24
620.82	1444.73
621.16	1436.33
621.51	1427.57
621.85	1419.14
622.20	1410.53
622.55	1401.95
622.89	1393.56
623.24	1385.34
623.59	1376.51
623.93	1367.86
624.28	1359.75
624.62	1351.59
624.97	1343.37
625.32	1335.64
625.66	1328.30
626.01	1320.83
626.35	1313.37
626.70	1305.61
627.04	1298.29
627.39	1290.39
627.73	1282.87
628.08	1276.07
628.43	1268.74
628.77	1261.39
629.12	1254.10
629.46	1247.64
629.81	1240.28
630.15	1232.68
630.50	1225.32
630.84	1218.19
631.19	1211.04
631.53	1203.72
631.88	1195.85
632.22	1188.07
632.57	1181.02
632.91	1173.56
633.26	1166.11
633.60	1158.97
633.95	1152.17
634.29	1144.47
634.64	1137.80
634.98	1130.61
635.32	1123.10
635.67	1116.60
636.01	1109.90
636.36	1103.03
636.70	1096.17
637.05	1089.74
637.39	1083.34
637.73	1077.12
638.08	1071.30
638.42	1065.30
638.77	1058.87
639.11	1052.82
639.45	1047.08
639.80	1040.33
640.14	1034.01
640.49	1027.72
640.83	1021.50
641.17	1015.16
641.52	1009.27
641.86	1002.72
642.20	996.47
642.55	989.99
642.89	983.52
643.23	977.22
643.58	971.37
643.92	964.69
644.26	958.32
644.61	952.44
644.95	946.27
645.29	939.87
645.64	933.08
645.98	927.10
646.32	921.18
646.66	914.74
647.01	908.87
647.35	902.64
647.69	896.14
648.04	890.10
648.38	883.85
648.72	877.70
649.06	871.54
649.41	865.54
649.75	859.67
650.09	853.72
650.43	847.63
650.78	841.01
651.12	834.96
651.46	829.10
651.80	822.99
652.14	816.87
652.49	810.71
652.83	804.95
653.17	798.62
653.51	792.73
653.85	787.15
654.20	781.15
654.54	775.40
654.88	770.08
655.22	764.24
655.56	758.37
655.90	752.39
656.25	746.64
656.59	740.92
656.93	735.69
657.27	730.37
657.61	724.91
657.95	719.92
658.29	714.86
658.64	709.56
658.98	704.20
659.32	698.77
659.66	693.64
660.00	688.33
660.34	683.10
660.68	677.85
661.02	672.60
661.36	668.01
661.70	663.06
662.05	658.25
662.39	653.78
662.73	649.38
663.07	645.16
663.41	640.67
663.75	636.09
664.09	631.26
664.43	626.46
664.77	622.04
665.11	617.61
665.45	613.19
665.79	608.93
666.13	604.56
666.47	600.40
666.81	596.30
667.15	592.26
667.49	588.59
667.83	584.67
668.17	580.84
668.51	576.92
668.85	573.33
669.19	569.45
669.53	565.38
669.87	561.26
670.21	557.31
670.55	553.56
670.89	550.08
671.23	546.70
671.57	543.24
671.91	539.52
672.25	535.91
672.58	532.36
672.92	528.82
673.26	525.80
673.60	522.51
673.94	518.95
674.28	515.63
674.62	512.33
674.96	509.06
675.30	505.90
675.64	502.63
675.97	499.35
676.31	496.39
676.65	493.52
676.99	490.85
677.33	487.87
677.67	485.03
678.01	481.89
678.34	478.82
678.68	476.10
679.02	473.35
679.36	470.65
679.70	467.83
680.04	464.86
680.37	461.75
680.71	458.88
681.05	456.49
681.39	453.70
681.73	450.92
682.06	448.43
682.40	445.79
682.74	443.06
683.08	440.56
683.42	437.82
683.75	435.06
684.09	432.35
684.43	429.94
684.77	427.20
685.10	424.69
685.44	422.07
685.78	419.52
686.12	417.14
686.45	414.66
686.79	412.35
687.13	410.15
687.46	408.05
687.80	405.88
688.14	403.25
688.48	401.21
688.81	398.93
689.15	396.52
689.49	394.34
689.82	392.22
690.16	389.90
690.50	387.53
690.83	385.39
691.17	383.16
691.51	380.86
691.84	378.68
692.18	376.63
692.52	374.73
692.85	372.81
693.19	370.91
693.52	369.03
693.86	367.00
694.20	365.15
694.53	363.15
694.87	361.10
695.21	359.22
695.54	357.14
695.88	355.21
696.21	353.40
696.55	351.61
696.88	349.84
697.22	348.05
697.56	346.59
697.89	344.91
698.23	343.28
698.56	341.59
698.90	340.18
699.23	338.55
699.57	337.00
699.90	335.30
700.24	333.56
700.58	331.80
700.91	330.30
701.25	328.79
701.58	327.34
701.92	325.85
702.25	324.46
702.59	323.12
702.92	321.83
703.26	320.50
703.59	319.20
703.93	317.93
704.26	316.61
704.60	315.30
704.93	313.96
705.26	312.70
705.60	311.55
705.93	310.24
706.27	309.10
706.60	307.91
706.94	306.84
707.27	305.65
707.61	304.60
707.94	303.42
708.27	302.10
708.61	300.90
708.94	299.81
709.28	298.65
709.61	297.55
709.94	296.46
710.28	295.33
710.61	294.18
710.95	293.04
711.28	292.08
711.61	290.93
711.95	289.87
712.28	288.84
712.61	287.79
712.95	286.88
713.28	285.85
713.61	284.81
713.95	283.79
714.28	282.94
714.61	281.96
714.95	281.11
715.28	280.27
715.61	279.27
715.95	278.33
716.28	277.54
716.61	276.67
716.95	275.78
717.28	275.00
717.61	274.28
717.94	273.49
718.28	272.74
718.61	272.04
718.94	271.41
719.27	270.67
719.61	270.00
719.94	269.27
720.27	268.54
720.60	267.83
720.94	267.07
721.27	266.35
721.60	265.72
721.93	265.05
722.27	264.53
722.60	264.08
722.93	263.53
723.26	263.00
723.59	262.43
723.93	261.91
724.26	261.33
724.59	260.70
724.92	260.06
725.25	259.45
725.59	258.82
725.92	258.26
726.25	257.65
726.58	257.08
726.91	256.57
727.24	256.12
727.57	255.63
727.91	255.09
728.24	254.68
728.57	254.14
728.90	253.64
729.23	253.09
729.56	252.57
729.89	252.15
730.22	251.54
730.55	251.06
730.89	250.53
731.22	250.04
731.55	249.55
731.88	249.15
732.21	248.68
732.54	248.19
732.87	247.75
733.20	247.44
733.53	247.00
733.86	246.52
734.19	246.05
734.52	245.70
734.85	245.54
735.18	245.04
735.51	244.76
735.84	244.41
736.17	244.06
736.50	243.64
736.83	243.44
737.16	243.13
737.49	242.74
737.82	242.33
738.15	242.04
738.48	241.73
738.81	241.41
739.14	241.01
739.47	240.74
739.80	240.33
740.13	239.94
740.46	239.60
740.79	239.28
741.12	238.93
741.45	238.65
741.78	238.19
742.11	237.95
742.44	237.57
742.77	237.26
743.10	236.94
743.43	236.66
743.75	236.15
744.08	236.06
744.41	235.73
744.74	235.51
745.07	235.12
745.40	234.93
745.73	234.71
746.06	234.48
746.39	234.26
746.71	234.01
747.04	233.76
747.37	233.53
747.70	233.28
748.03	233.10
748.36	232.83
748.68	232.55
749.01	232.28
749.34	232.03
749.67	231.79
750.00	231.51
750.33	231.33
750.65	231.10
750.98	230.62
751.31	230.33
751.64	230.12
751.97	230.00
752.29	229.69
752.62	229.35
752.95	229.12
753.28	228.82
753.60	228.66
753.93	228.52
754.26	228.28
754.59	228.02
754.91	227.72
755.24	227.49
755.57	227.36
755.90	227.15
756.22	226.93
756.55	226.75
756.88	226.53
757.20	226.20
757.53	225.89
757.86	225.74
758.19	225.68
758.51	225.50
758.84	225.18
759.17	225.00
759.49	224.91
759.82	224.82
760.15	224.69
760.47	224.50
760.80	224.25
761.13	224.14
761.45	223.99
761.78	223.82
762.11	223.62
762.43	223.40
762.76	223.23
763.08	223.11
763.41	222.98
763.74	222.92
764.06	222.81
764.39	222.76
764.71	222.57
765.04	222.47
765.37	222.30
765.69	222.20
766.02	222.09
766.34	221.91
766.67	221.72
767.00	221.59
767.32	221.48
767.65	221.45
767.97	221.33
768.30	221.17
768.62	221.14
768.95	221.01
769.27	220.87
769.60	220.79
769.92	220.71
770.25	220.55
770.57	220.33
770.90	220.28
771.22	220.14
771.55	220.03
771.87	219.85
772.20	219.70
772.52	219.80
772.85	219.91
773.17	219.81
773.50	219.67
773.82	219.58
774.15	219.44
774.47	219.21
774.80	219.07
775.12	218.98
775.45	218.83
775.77	218.79
776.09	218.81
776.42	218.68
776.74	218.61
777.07	218.52
777.39	218.51
777.72	218.38
778.04	218.35
778.36	218.34
778.69	218.31
779.01	218.29
779.33	218.02
779.66	217.70
779.98	217.63
780.31	217.60
780.63	217.55
780.95	217.51
781.28	217.53
781.60	217.48
781.92	217.45
782.25	217.40
782.57	217.28
782.89	217.14
783.22	217.13
783.54	216.97
783.86	216.93
784.19	216.79
784.51	216.80
784.83	216.67
785.16	216.60
785.48	216.53
785.80	216.59
786.12	216.65
786.45	216.66
786.77	216.65
787.09	216.61
787.42	216.60
787.74	216.57
788.06	216.48
788.38	216.38
788.71	216.33
789.03	216.29
789.35	216.36
789.67	216.36
789.99	216.28
790.32	216.28
790.64	216.27
790.96	216.45
791.28	216.34
791.61	216.35
791.93	216.30
792.25	216.18
792.57	216.23
792.89	216.07
793.21	216.01
793.54	215.91
793.86	215.78
794.18	215.65
794.50	215.58
794.82	215.54
795.14	215.53
795.47	215.49
795.79	215.46
796.11	215.37
796.43	215.32
796.75	215.27
797.07	215.29
797.39	215.20
797.71	215.13
798.04	215.16
798.36	215.16
798.68	215.17
799.00	215.26
799.32	215.10
799.64	215.12
799.96	215.09
800.28	215.10
800.60	215.10
800.92	215.06
801.24	215.00
801.56	215.03
801.89	215.00
802.21	214.95
802.53	214.90
802.85	214.90
803.17	214.91
803.49	214.88
803.81	214.75
804.13	214.74
804.45	214.57
804.77	214.49
805.09	214.39
805.41	214.30
805.73	214.27
806.05	214.15
806.37	214.09
806.69	214.05
807.01	214.04
807.33	214.11
807.65	214.03
807.97	214.18
808.28	214.10
808.60	214.07
808.92	214.05
809.24	214.18
809.56	214.08
809.88	214.06
810.20	214.06
810.52	214.14
810.84	214.06
811.16	214.05
811.48	214.09
811.80	214.11
812.12	214.03
812.43	214.01
812.75	213.98
813.07	213.99
813.39	214.01
813.71	213.97
814.03	213.82
814.35	213.86
814.67	213.75
814.98	213.70
815.30	213.70
815.62	213.68
815.94	213.55
816.26	213.53
816.58	213.49
816.89	213.48
817.21	213.35
817.53	213.36
817.85	213.36
818.17	213.22
818.48	213.15
818.80	213.20
819.12	213.06
819.44	213.09
819.76	213.05
820.07	212.98
820.39	212.91
820.71	212.96
821.03	212.88
821.34	212.79
821.66	212.81
821.98	212.74
822.30	212.65
822.61	212.70
822.93	212.67
823.25	212.57
823.57	212.50
823.88	212.59
824.20	212.63
824.52	212.62
824.83	212.65
825.15	212.62
825.47	212.56
825.79	212.59
826.10	212.56
826.42	212.49
826.74	212.54
827.05	212.59
827.37	212.49
827.69	212.53
828.00	212.47
828.32	212.46
828.64	212.51
828.95	212.60
829.27	212.48
829.58	212.49
829.90	212.49
830.22	212.48
830.53	212.32
830.85	212.23
831.17	212.11
831.48	212.11
831.80	212.15
832.11	212.17
832.43	212.18
832.75	212.12
833.06	212.21
833.38	212.04
833.69	212.00
834.01	212.07
834.32	212.12
834.64	212.19
834.96	212.13
835.27	212.02
835.59	211.98
835.90	211.98
836.22	211.97
836.53	211.94
836.85	211.92
837.16	212.20
837.48	212.12
837.79	212.19
838.11	212.20
838.42	212.09
838.74	212.09
839.05	212.05
839.37	212.05
839.68	211.98
840.00	212.04
840.31	212.02
840.63	211.95
840.94	211.83
841.26	211.81
841.57	211.88
841.88	211.95
842.20	211.92
842.51	211.92
842.83	211.87
843.14	212.06
843.46	212.02
843.77	211.90
844.08	211.92
844.40	211.96
844.71	211.89
845.03	211.93
845.34	211.91
845.65	211.87
845.97	211.85
846.28	211.81
846.60	211.82
846.91	211.80
847.22	211.79
847.54	211.85
847.85	211.82
848.16	211.76
848.48	211.71
848.79	211.82
849.10	211.82
849.42	211.85
849.73	211.62
850.04	211.65
850.36	211.57
850.67	211.64
850.98	211.55
851.30	211.61
851.61	211.61
851.92	211.65
852.23	211.73
852.55	211.73
852.86	211.70
853.17	211.69
853.49	211.74
853.80	211.84
854.11	211.82
854.42	211.83
854.74	211.81
855.05	211.84
855.36	211.67
855.67	211.68
855.99	211.68
856.30	211.88
856.61	211.92
856.92	211.90
857.23	211.91
857.55	211.87
857.86	211.84
858.17	211.83
858.48	211.81
858.79	211.76
859.11	211.75
859.42	211.76
859.73	211.72
860.04	211.72
860.35	211.59
860.66	211.49
860.98	211.48
861.29	211.51
861.60	211.54
861.91	211.60
862.22	211.61
862.53	211.58
862.84	211.42
863.16	211.41
863.47	211.37
863.78	211.34
864.09	211.36
864.40	211.40
864.71	211.38
865.02	211.39
865.33	211.38
865.64	211.36
865.95	211.43
866.27	211.48
866.58	211.50
866.89	211.51
867.20	211.54
867.51	211.47
867.82	211.37
868.13	211.42
868.44	211.32
868.75	211.31
869.06	211.32
869.37	211.31
869.68	211.29
869.99	211.37
870.30	211.34
870.61	211.39
870.92	211.29
871.23	211.27
871.54	211.30
871.85	211.30
872.16	211.36
872.47	211.28
872.78	211.21
873.09	211.16
873.40	211.22
873.71	211.26
874.02	211.35
874.33	211.41
874.64	211.35
874.95	211.46
875.26	211.42
875.56	211.33
875.87	211.33
876.18	211.30
876.49	211.41
876.80	211.40
877.11	211.40
877.42	211.42
877.73	211.43
878.04	211.36
878.35	211.34
878.66	211.35
878.96	211.41
879.27	211.43
879.58	211.39
879.89	211.32
880.20	211.40
880.51	211.35
880.82	211.40
881.12	211.44
881.43	211.41
881.74	211.45
882.05	211.47
882.36	211.46
882.67	211.47
882.97	211.32
883.28	211.38
883.59	211.35
883.90	211.44
884.21	211.55
884.51	211.54
884.82	211.52
885.13	211.49
885.44	211.47
885.74	211.48
886.05	211.50
886.36	211.54
886.67	211.46
886.98	211.50
887.28	211.47
887.59	211.45
887.90	211.45
888.20	211.39
888.51	211.54
888.82	211.53
889.13	211.59
889.43	211.75
889.74	211.70
890.05	211.70
890.35	211.66
890.66	211.57
890.97	211.58
891.28	211.59
891.58	211.53
891.89	211.47
892.20	211.48
892.50	211.48
892.81	211.43
893.12	211.37
893.42	211.34
893.73	211.35
894.04	211.27
894.34	211.18
894.65	211.21
894.95	211.07
895.26	211.09
895.57	211.12
895.87	210.90
896.18	210.90
896.48	210.85
896.79	210.83
897.10	210.82
897.40	210.84
897.71	210.88
898.01	210.90
898.32	210.94
898.63	210.96
898.93	210.99
899.24	211.01
899.54	211.02
899.85	211.06
900.15	211.00
900.46	211.06
900.76	211.10
901.07	211.01
901.38	211.08
901.68	211.05
901.99	210.99
902.29	210.96
902.60	211.00
902.90	211.05
903.21	211.04
903.51	211.10
903.82	211.12
904.12	211.07
904.43	211.10
904.73	211.08
905.03	211.00
905.34	211.10
905.64	211.05
905.95	211.06
906.25	211.02
906.56	210.99
906.86	210.94
907.17	210.98
907.47	211.02
907.77	211.01
908.08	210.98
908.38	210.99
908.69	211.06
908.99	211.14
909.30	211.07
909.60	211.10
909.90	211.05
910.21	211.03
910.51	210.97
910.81	210.95
911.12	210.96
911.42	211.03
911.73	210.90
912.03	210.96
912.33	211.02
912.64	211.01
912.94	211.00
913.24	210.96
913.55	210.90
913.85	210.85
914.15	210.83
914.46	210.84
914.76	210.78
915.06	210.68
915.37	210.64
915.67	210.64
915.97	210.61
916.27	210.59
916.58	210.60
916.88	210.65
917.18	210.68
917.49	210.82
917.79	210.87
918.09	210.91
918.39	210.95
918.70	210.90
919.00	210.84
919.30	210.94
919.60	210.94
919.91	210.91
920.21	210.95
920.51	210.92
920.81	210.90
921.12	210.96
921.42	210.98
921.72	210.89
922.02	210.94
922.32	211.00
922.63	210.97
922.93	211.05
923.23	211.09
923.53	211.08
923.83	210.92
924.13	210.87
924.44	210.75
924.74	210.84
925.04	210.87
925.34	210.92
925.64	210.93
925.94	210.99
926.24	211.12
926.55	211.14
926.85	211.16
927.15	211.16
927.45	211.14
927.75	211.16
928.05	211.18
928.35	211.18
928.65	211.20
928.95	211.23
929.26	211.15
929.56	211.15
929.86	211.10
930.16	211.08
930.46	211.07
930.76	211.17
931.06	210.98
931.36	210.92
931.66	210.96
931.96	210.92
932.26	210.91
932.56	210.80
932.86	210.82
933.16	210.90
933.46	210.90
933.76	210.85
934.06	210.94
934.36	211.06
934.66	211.03
934.96	210.99
935.26	211.00
935.56	211.01
935.86	211.02
936.16	211.02
936.46	210.99
936.76	210.94
937.06	210.92
937.36	211.01
937.66	211.00
937.96	211.00
938.26	210.94
938.56	210.94
938.86	211.00
939.16	210.97
939.46	210.94
939.76	210.97
940.06	210.99
940.35	210.89
940.65	210.81
940.95	210.90
941.25	210.84
941.55	210.80
941.85	210.87
942.15	210.81
942.45	210.92
942.75	210.99
943.04	211.09
943.34	211.10
943.64	211.10
943.94	211.17
944.24	211.15
944.54	211.15
944.84	211.11
945.13	211.08
945.43	211.11
945.73	211.05
946.03	210.99
946.33	211.01
946.62	211.07
946.92	211.00
947.22	210.92
947.52	210.88
947.82	210.92
948.11	210.86
948.41	210.89
948.71	210.77
949.01	210.83
949.31	210.77
949.60	210.80
949.90	210.81
950.20	210.70
950.50	210.69
950.79	210.73
951.09	210.78
951.39	210.78
951.69	210.79
951.98	210.85
952.28	210.90
952.58	210.85
952.87	210.88
953.17	210.94
953.47	210.95
953.76	211.02
954.06	211.00
954.36	210.95
954.66	210.95
954.95	211.01
955.25	210.97
955.55	210.93
955.84	210.89
956.14	210.95
956.44	211.02
956.73	211.03
957.03	211.01
957.32	211.00
957.62	211.04
957.92	211.06
958.21	211.03
958.51	211.25
958.81	211.37
959.10	211.32
959.40	211.32
959.69	211.28
959.99	211.30
960.29	211.30
960.58	211.34
960.88	211.39
961.17	211.38
961.47	211.36
961.76	211.40
962.06	211.36
962.36	211.32
962.65	211.26
962.95	211.26
963.24	211.27
963.54	211.24
963.83	211.21
964.13	211.19
964.42	211.16
964.72	210.97
965.01	210.90
965.31	210.87
965.60	210.85
965.90	211.03
966.19	211.01
966.49	211.01
966.78	210.99
967.08	210.94
967.37	210.96
967.67	210.91
967.96	210.88
968.26	210.94
968.55	210.92
968.85	210.96
969.14	210.96
969.43	210.97
969.73	210.97
970.02	210.92
970.32	210.90
970.61	210.90
970.91	210.98
971.20	210.93
971.49	210.95
971.79	210.99
972.08	210.88
972.38	210.93
972.67	210.86
972.96	210.85
973.26	210.89
973.55	210.96
973.85	210.99
974.14	211.05
974.43	211.09
974.73	210.98
975.02	210.97
975.31	210.97
975.61	210.98
975.90	210.98
976.19	210.97
976.49	210.95
976.78	210.97
977.07	210.87
977.37	210.88
977.66	210.89
977.95	210.80
978.24	210.76
978.54	210.76
978.83	210.74
979.12	210.75
979.42	210.77
979.71	210.65
980.00	210.66
980.29	210.64
980.59	210.57
980.88	210.70
981.17	210.66
981.46	210.69
981.76	210.58
982.05	210.64
982.34	210.66
982.63	210.70
982.93	210.68
983.22	210.76
983.51	210.80
983.80	210.81
984.09	210.89
984.39	210.86
984.68	210.85
984.97	210.95
985.26	210.97
985.55	210.91
985.85	210.91
986.14	210.88
986.43	210.88
986.72	210.88
987.01	210.85
987.30	210.92
987.59	210.85
987.89	210.89
988.18	210.81
988.47	210.84
988.76	210.78
989.05	210.80
989.34	210.79
989.63	210.84
989.92	210.83
990.22	210.84
990.51	210.86
990.80	210.81
991.09	210.79
991.38	210.81
991.67	210.77
991.96	210.82
992.25	210.87
992.54	210.85
992.83	210.85
993.12	210.76
993.41	210.67
993.70	210.81
993.99	210.95
994.28	211.08
994.58	211.09
994.87	211.09
995.16	211.11
995.45	211.07
995.74	210.98
996.03	211.00
996.32	210.96
996.61	211.01
996.90	211.02
997.19	210.99
997.48	211.02
997.77	211.08
998.06	211.01
998.34	211.00
998.63	210.99
998.92	211.01
999.21	211.05
999.50	211.08
999.79	210.97
1000.08	210.91
1000.37	210.84
1000.66	210.79
1000.95	210.85
1001.24	210.88
1001.53	210.77
1001.82	210.85
1002.11	210.78
1002.40	210.76
1002.68	210.76
1002.97	210.96
1003.26	210.97
1003.55	210.90
1003.84	210.84
1004.13	210.95
1004.42	210.98
1004.71	211.01
1004.99	210.96
1005.28	211.07
1005.57	211.11
1005.86	211.11
1006.15	211.08
1006.44	211.04
1006.72	211.07
1007.01	211.07
1007.30	211.03
1007.59	211.10
1007.88	211.06
1008.17	211.08
1008.45	211.11
1008.74	210.99
1009.03	210.85
1009.32	210.88
1009.60	210.89
1009.89	210.96
1010.18	210.86
1010.47	210.84
1010.76	210.79
1011.04	210.82
1011.33	210.74
1011.62	210.73
1011.91	210.77
1012.19	210.84
1012.48	210.88
1012.77	210.90
1013.05	210.97
1013.34	211.00
1013.63	211.07
1013.92	211.06
1014.20	211.13
1014.49	211.15
1014.78	211.24
1015.06	211.20
1015.35	211.22
1015.64	211.25
1015.92	211.26
1016.21	211.26
1016.50	211.26
1016.78	211.39
1017.07	211.35
1017.36	211.37
1017.64	211.47
1017.93	211.41
1018.22	211.34
1018.50	211.41
1018.79	211.43
1019.08	211.30
1019.36	211.33
1019.65	211.22
1019.93	211.27
1020.22	211.25
1020.51	211.37
1020.79	211.35
1021.08	210.60
1021.36	212.30
1021.65	211.45
1021.94	210.45
1022.22	211.65
1022.51	210.10
1022.79	211.90
1023.08	211.30
1023.36	213.85
1023.65	210.75
>>>>>End Processed Spectral Data<<<<<
