SpectraSuite Data File
++++++++++++++++++++++++++++++++++++
Date: Mon Feb 25 17:35:12 EST 2013
User: group
Dark Spectrum Present: No
Reference Spectrum Present: No
Number of Sampled Component Spectra: 1
Spectrometers: USB2E7196
Integration Time (usec): 52000 (USB2E7196)
Spectra Averaged: 20 (USB2E7196)
Boxcar Smoothing: 10 (USB2E7196)
Correct for Electrical Dark: No (USB2E7196)
Strobe/Lamp Enabled: No (USB2E7196)
Correct for Detector Non-linearity: No (USB2E7196)
Correct for Stray Light: No (USB2E7196)
Number of Pixels in Processed Spectrum: 2048
>>>>>Begin Processed Spectral Data<<<<<
339.09	0.00
339.48	199.20
339.86	201.00
340.24	201.75
340.63	202.40
341.01	207.90
341.39	204.90
341.78	208.35
342.16	208.85
342.54	209.85
342.93	198.60
343.31	208.61
343.69	209.20
344.07	209.66
344.46	210.15
344.84	210.65
345.22	210.85
345.60	211.20
345.99	211.38
346.37	211.56
346.75	211.65
347.13	211.78
347.52	211.77
347.90	211.76
348.28	211.80
348.66	211.82
349.05	211.71
349.43	211.71
349.81	211.80
350.19	211.92
350.57	212.07
350.96	212.11
351.34	212.23
351.72	212.30
352.10	212.39
352.48	212.46
352.87	212.45
353.25	212.52
353.63	212.53
354.01	212.56
354.39	212.60
354.77	212.67
355.15	212.79
355.54	212.88
355.92	212.89
356.30	213.02
356.68	213.16
357.06	213.28
357.44	213.37
357.82	213.40
358.20	213.42
358.58	213.36
358.97	213.41
359.35	213.51
359.73	213.63
360.11	213.69
360.49	213.75
360.87	213.80
361.25	213.82
361.63	213.96
362.01	214.09
362.39	214.17
362.77	214.21
363.15	214.20
363.53	214.23
363.91	214.22
364.29	214.23
364.67	214.18
365.05	214.20
365.43	214.21
365.81	214.22
366.19	214.27
366.57	214.41
366.95	214.43
367.33	214.39
367.71	214.32
368.09	214.37
368.47	214.33
368.85	214.35
369.23	214.44
369.61	214.31
369.99	214.31
370.37	214.25
370.75	214.30
371.13	214.25
371.51	214.20
371.89	214.24
372.27	214.15
372.65	214.12
373.03	214.05
373.41	214.05
373.78	213.99
374.16	213.85
374.54	213.69
374.92	213.61
375.30	213.52
375.68	213.43
376.06	213.28
376.44	213.23
376.82	213.12
377.19	212.94
377.57	212.93
377.95	212.77
378.33	212.66
378.71	212.54
379.09	212.48
379.47	212.45
379.84	212.35
380.22	212.32
380.60	212.20
380.98	212.20
381.36	212.13
381.73	212.05
382.11	212.12
382.49	212.10
382.87	212.07
383.25	212.07
383.62	212.26
384.00	212.24
384.38	212.18
384.76	212.18
385.13	212.22
385.51	212.12
385.89	212.09
386.27	212.12
386.64	212.04
387.02	212.03
387.40	211.96
387.78	211.94
388.15	211.89
388.53	211.89
388.91	211.78
389.29	211.77
389.66	211.75
390.04	211.63
390.42	211.63
390.79	211.60
391.17	211.56
391.55	211.33
391.92	211.28
392.30	211.32
392.68	211.32
393.05	211.27
393.43	211.32
393.81	211.25
394.18	211.21
394.56	211.26
394.94	211.24
395.31	211.23
395.69	211.29
396.06	211.34
396.44	211.29
396.82	211.34
397.19	211.44
397.57	211.47
397.95	211.53
398.32	211.54
398.70	211.55
399.07	211.60
399.45	211.70
399.82	211.78
400.20	211.78
400.58	211.86
400.95	211.84
401.33	211.90
401.70	212.14
402.08	212.24
402.45	212.37
402.83	212.49
403.20	212.60
403.58	212.70
403.95	212.82
404.33	213.00
404.71	213.16
405.08	213.42
405.46	213.53
405.83	213.62
406.21	213.75
406.58	213.94
406.96	214.10
407.33	214.25
407.70	214.46
408.08	214.75
408.45	214.94
408.83	215.28
409.20	215.45
409.58	215.66
409.95	215.94
410.33	216.21
410.70	216.50
411.08	216.84
411.45	217.16
411.82	217.51
412.20	217.95
412.57	218.50
412.95	218.79
413.32	219.31
413.69	219.86
414.07	220.49
414.44	221.12
414.82	221.73
415.19	222.47
415.56	223.19
415.94	223.94
416.31	224.83
416.68	225.64
417.06	226.72
417.43	227.60
417.81	228.68
418.18	229.81
418.55	231.06
418.93	232.43
419.30	233.85
419.67	235.28
420.04	236.62
420.42	238.11
420.79	239.79
421.16	241.57
421.54	243.43
421.91	245.21
422.28	247.21
422.66	249.33
423.03	251.39
423.40	253.53
423.77	255.85
424.15	258.11
424.52	260.48
424.89	263.08
425.26	265.66
425.64	267.97
426.01	270.54
426.38	273.21
426.75	275.84
427.13	278.58
427.50	281.55
427.87	284.78
428.24	287.75
428.61	290.74
428.99	293.95
429.36	297.44
429.73	301.02
430.10	304.40
430.47	307.98
430.85	311.60
431.22	315.40
431.59	319.58
431.96	323.57
432.33	328.00
432.70	332.17
433.08	337.08
433.45	341.83
433.82	346.47
434.19	351.50
434.56	356.56
434.93	361.39
435.30	366.15
435.68	371.38
436.05	376.66
436.42	381.91
436.79	386.71
437.16	391.75
437.53	397.15
437.90	402.55
438.27	407.70
438.64	413.16
439.01	418.25
439.38	422.60
439.75	426.88
440.13	431.80
440.50	436.35
440.87	440.11
441.24	443.93
441.61	448.17
441.98	451.43
442.35	455.10
442.72	458.85
443.09	462.50
443.46	464.61
443.83	465.92
444.20	467.06
444.57	468.85
444.94	469.66
445.31	470.31
445.68	471.03
446.05	471.30
446.42	470.57
446.79	469.80
447.16	468.93
447.53	468.28
447.90	466.05
448.27	464.01
448.64	461.10
449.01	458.98
449.37	455.42
449.74	451.86
450.11	447.82
450.48	443.25
450.85	438.50
451.22	434.46
451.59	430.71
451.96	426.99
452.33	422.06
452.70	417.74
453.07	412.60
453.43	407.33
453.80	402.20
454.17	397.50
454.54	392.98
454.91	388.05
455.28	383.25
455.65	378.81
456.02	374.31
456.38	370.55
456.75	365.90
457.12	361.95
457.49	358.10
457.86	354.25
458.23	350.97
458.59	347.48
458.96	343.90
459.33	340.71
459.70	337.62
460.07	335.18
460.43	332.28
460.80	329.60
461.17	327.10
461.54	324.68
461.91	322.23
462.27	319.80
462.64	317.80
463.01	315.55
463.38	313.45
463.74	311.28
464.11	309.30
464.48	307.59
464.85	305.75
465.21	304.38
465.58	302.78
465.95	301.10
466.32	299.66
466.68	298.32
467.05	296.91
467.42	295.51
467.78	293.90
468.15	292.61
468.52	291.61
468.88	290.41
469.25	289.18
469.62	288.32
469.98	287.30
470.35	286.32
470.72	285.46
471.08	284.52
471.45	283.75
471.82	283.06
472.18	282.21
472.55	281.67
472.92	280.89
473.28	280.38
473.65	279.72
474.02	279.11
474.38	278.66
474.75	278.37
475.11	278.03
475.48	277.91
475.85	277.64
476.21	277.43
476.58	277.30
476.94	277.32
477.31	277.11
477.67	277.01
478.04	277.15
478.41	277.25
478.77	277.49
479.14	277.62
479.50	277.86
479.87	278.22
480.23	278.63
480.60	278.98
480.96	279.31
481.33	280.03
481.69	280.60
482.06	281.22
482.42	281.83
482.79	282.47
483.15	283.21
483.52	284.19
483.88	285.06
484.25	285.97
484.61	287.03
484.98	288.20
485.34	289.50
485.71	290.75
486.07	292.19
486.44	293.50
486.80	295.04
487.17	296.66
487.53	298.35
487.90	300.11
488.26	302.12
488.62	304.24
488.99	306.26
489.35	308.44
489.72	310.64
490.08	312.98
490.44	315.60
490.81	318.35
491.17	320.98
491.54	323.95
491.90	327.02
492.26	330.18
492.63	333.44
492.99	336.95
493.36	340.55
493.72	344.47
494.08	348.58
494.45	352.87
494.81	357.33
495.17	362.01
495.54	366.90
495.90	371.91
496.26	377.02
496.63	382.59
496.99	388.38
497.35	394.52
497.72	400.84
498.08	407.21
498.44	413.93
498.80	421.18
499.17	428.51
499.53	436.19
499.89	444.14
500.26	452.43
500.62	460.72
500.98	469.57
501.34	478.45
501.71	487.83
502.07	497.58
502.43	507.59
502.79	517.79
503.16	528.35
503.52	539.24
503.88	550.40
504.24	561.83
504.60	573.78
504.97	586.01
505.33	598.55
505.69	611.90
506.05	625.36
506.41	638.87
506.78	652.60
507.14	666.70
507.50	681.51
507.86	696.54
508.22	712.01
508.59	727.49
508.95	743.71
509.31	760.08
509.67	776.80
510.03	793.84
510.39	811.59
510.75	829.59
511.12	847.90
511.48	866.31
511.84	885.12
512.20	903.86
512.56	923.27
512.92	942.82
513.28	962.51
513.64	982.52
514.00	1002.46
514.37	1023.04
514.73	1044.03
515.09	1064.71
515.45	1085.64
515.81	1106.85
516.17	1128.54
516.53	1150.07
516.89	1171.58
517.25	1193.24
517.61	1214.99
517.97	1236.56
518.33	1257.94
518.69	1279.58
519.05	1302.04
519.41	1324.35
519.77	1347.19
520.13	1369.42
520.49	1391.77
520.85	1414.47
521.21	1437.08
521.57	1460.57
521.93	1482.82
522.29	1505.87
522.65	1528.65
523.01	1551.44
523.37	1573.69
523.73	1596.18
524.09	1618.35
524.45	1640.78
524.81	1663.41
525.17	1685.82
525.53	1708.30
525.89	1731.13
526.25	1753.75
526.61	1775.12
526.97	1797.15
527.33	1818.62
527.68	1840.27
528.04	1861.49
528.40	1881.72
528.76	1902.61
529.12	1923.22
529.48	1945.04
529.84	1965.55
530.20	1986.01
530.56	2006.58
530.91	2027.47
531.27	2048.05
531.63	2068.38
531.99	2088.67
532.35	2108.06
532.71	2127.20
533.07	2147.02
533.42	2165.56
533.78	2184.23
534.14	2203.19
534.50	2220.58
534.86	2238.78
535.21	2255.65
535.57	2274.07
535.93	2291.92
536.29	2308.61
536.65	2325.31
537.00	2340.96
537.36	2356.36
537.72	2371.76
538.08	2387.24
538.44	2402.82
538.79	2418.49
539.15	2433.81
539.51	2448.64
539.87	2464.12
540.22	2478.99
540.58	2493.92
540.94	2508.81
541.29	2521.91
541.65	2534.40
542.01	2547.35
542.37	2559.48
542.72	2572.36
543.08	2583.21
543.44	2595.49
543.79	2606.45
544.15	2617.14
544.51	2628.56
544.87	2639.85
545.22	2649.62
545.58	2658.27
545.94	2665.92
546.29	2672.44
546.65	2678.84
547.01	2685.05
547.36	2691.06
547.72	2697.26
548.07	2701.59
548.43	2705.33
548.79	2709.76
549.14	2714.61
549.50	2719.29
549.86	2723.55
550.21	2727.60
550.57	2731.91
550.92	2734.83
551.28	2737.66
551.64	2740.54
551.99	2742.97
552.35	2744.78
552.70	2747.45
553.06	2750.21
553.41	2753.42
553.77	2756.36
554.13	2758.52
554.48	2760.89
554.84	2762.11
555.19	2762.42
555.55	2763.27
555.90	2763.99
556.26	2764.57
556.61	2764.62
556.97	2763.56
557.32	2762.98
557.68	2761.43
558.03	2760.13
558.39	2758.44
558.74	2758.31
559.10	2756.77
559.45	2754.78
559.81	2753.32
560.16	2750.75
560.52	2748.36
560.87	2745.33
561.23	2742.05
561.58	2739.98
561.94	2736.80
562.29	2733.23
562.64	2731.39
563.00	2728.61
563.35	2726.69
563.71	2724.92
564.06	2722.78
564.42	2721.46
564.77	2719.25
565.12	2717.69
565.48	2714.69
565.83	2711.61
566.19	2708.04
566.54	2704.39
566.89	2700.83
567.25	2697.50
567.60	2694.66
567.96	2691.43
568.31	2688.07
568.66	2684.05
569.02	2679.21
569.37	2673.72
569.72	2670.17
570.08	2664.59
570.43	2659.02
570.78	2653.25
571.14	2646.82
571.49	2640.27
571.84	2633.87
572.20	2626.73
572.55	2619.97
572.90	2612.89
573.26	2606.09
573.61	2599.15
573.96	2592.00
574.31	2584.04
574.67	2576.04
575.02	2567.49
575.37	2558.76
575.72	2549.27
576.08	2541.50
576.43	2532.87
576.78	2525.34
577.13	2516.75
577.49	2508.45
577.84	2500.96
578.19	2493.15
578.54	2485.67
578.90	2478.54
579.25	2469.75
579.60	2460.65
579.95	2451.22
580.30	2443.26
580.66	2434.97
581.01	2425.72
581.36	2416.34
581.71	2407.83
582.06	2398.76
582.42	2389.98
582.77	2380.51
583.12	2371.80
583.47	2363.08
583.82	2354.81
584.17	2345.33
584.53	2336.24
584.88	2327.34
585.23	2317.74
585.58	2307.98
585.93	2298.06
586.28	2288.69
586.63	2280.05
586.98	2271.69
587.34	2263.23
587.69	2254.08
588.04	2244.91
588.39	2236.45
588.74	2227.83
589.09	2218.95
589.44	2209.30
589.79	2201.09
590.14	2193.26
590.49	2185.05
590.84	2175.80
591.19	2167.85
591.54	2159.04
591.89	2148.91
592.25	2139.73
592.60	2130.34
592.95	2120.85
593.30	2111.20
593.65	2101.19
594.00	2091.18
594.35	2082.74
594.70	2073.05
595.05	2063.90
595.40	2054.74
595.75	2045.15
596.10	2036.48
596.45	2027.87
596.80	2020.21
597.15	2011.45
597.50	2002.25
597.85	1993.45
598.19	1984.99
598.54	1975.94
598.89	1968.14
599.24	1961.11
599.59	1953.35
599.94	1946.02
600.29	1938.23
600.64	1930.53
600.99	1922.15
601.34	1914.76
601.69	1905.85
602.04	1897.65
602.39	1889.48
602.74	1881.62
603.08	1874.76
603.43	1867.60
603.78	1859.52
604.13	1851.30
604.48	1843.06
604.83	1835.85
605.18	1828.80
605.53	1821.01
605.87	1813.22
606.22	1806.00
606.57	1797.99
606.92	1789.70
607.27	1781.49
607.62	1774.07
607.96	1767.15
608.31	1760.71
608.66	1752.73
609.01	1745.17
609.36	1737.56
609.70	1729.54
610.05	1721.81
610.40	1713.26
610.75	1704.59
611.10	1696.83
611.44	1687.36
611.79	1678.29
612.14	1668.81
612.49	1659.03
612.83	1649.93
613.18	1640.05
613.53	1630.36
613.88	1620.64
614.22	1611.78
614.57	1602.40
614.92	1592.95
615.27	1583.28
615.61	1573.40
615.96	1564.59
616.31	1556.18
616.65	1548.38
617.00	1539.82
617.35	1530.97
617.70	1522.28
618.04	1513.24
618.39	1503.77
618.74	1495.49
619.08	1486.95
619.43	1478.99
619.78	1471.07
620.12	1462.75
620.47	1454.99
620.82	1446.47
621.16	1438.12
621.51	1429.64
621.85	1421.45
622.20	1412.75
622.55	1404.27
622.89	1395.88
623.24	1387.61
623.59	1378.72
623.93	1369.99
624.28	1361.71
624.62	1353.40
624.97	1344.86
625.32	1336.95
625.66	1329.29
626.01	1321.96
626.35	1314.56
626.70	1306.67
627.04	1299.05
627.39	1291.65
627.73	1284.02
628.08	1277.22
628.43	1269.92
628.77	1262.44
629.12	1255.00
629.46	1248.43
629.81	1241.12
630.15	1233.81
630.50	1226.47
630.84	1219.17
631.19	1211.80
631.53	1204.88
631.88	1197.11
632.22	1189.64
632.57	1182.52
632.91	1174.99
633.26	1167.30
633.60	1160.04
633.95	1152.93
634.29	1145.42
634.64	1138.78
634.98	1131.62
635.32	1124.14
635.67	1117.63
636.01	1111.07
636.36	1104.07
636.70	1097.13
637.05	1090.41
637.39	1084.01
637.73	1077.35
638.08	1071.36
638.42	1065.56
638.77	1059.04
639.11	1052.81
639.45	1046.73
639.80	1039.89
640.14	1033.61
640.49	1027.63
640.83	1021.58
641.17	1015.09
641.52	1009.09
641.86	1002.15
642.20	995.96
642.55	989.38
642.89	982.75
643.23	976.14
643.58	969.89
643.92	963.46
644.26	957.29
644.61	951.23
644.95	945.20
645.29	939.05
645.64	932.15
645.98	925.96
646.32	920.06
646.66	913.75
647.01	908.02
647.35	902.10
647.69	895.62
648.04	889.31
648.38	883.38
648.72	877.24
649.06	871.24
649.41	865.06
649.75	859.17
650.09	853.49
650.43	847.53
650.78	841.61
651.12	835.59
651.46	829.82
651.80	823.71
652.14	817.74
652.49	811.51
652.83	805.50
653.17	799.30
653.51	793.40
653.85	787.73
654.20	781.73
654.54	775.87
654.88	770.23
655.22	764.35
655.56	758.35
655.90	752.28
656.25	746.44
656.59	740.91
656.93	735.87
657.27	730.51
657.61	725.09
657.95	719.93
658.29	714.76
658.64	709.66
658.98	704.39
659.32	698.85
659.66	693.71
660.00	688.39
660.34	683.15
660.68	677.90
661.02	672.86
661.36	668.20
661.70	663.42
662.05	658.82
662.39	654.42
662.73	650.00
663.07	645.81
663.41	641.54
663.75	636.97
664.09	632.27
664.43	627.35
664.77	622.95
665.11	618.32
665.45	613.96
665.79	609.40
666.13	605.09
666.47	600.95
666.81	596.67
667.15	592.73
667.49	588.98
667.83	585.12
668.17	581.18
668.51	577.09
668.85	573.36
669.19	569.57
669.53	565.44
669.87	561.57
670.21	557.61
670.55	553.58
670.89	550.15
671.23	546.65
671.57	543.21
671.91	539.60
672.25	536.08
672.58	532.52
672.92	529.08
673.26	525.90
673.60	522.58
673.94	519.28
674.28	516.00
674.62	512.67
674.96	509.30
675.30	506.17
675.64	503.03
675.97	499.66
676.31	496.56
676.65	493.74
676.99	490.95
677.33	488.11
677.67	485.24
678.01	482.10
678.34	478.89
678.68	476.02
679.02	472.96
679.36	470.09
679.70	467.17
680.04	464.21
680.37	461.23
680.71	458.40
681.05	455.70
681.39	452.95
681.73	450.18
682.06	447.69
682.40	445.05
682.74	442.46
683.08	439.95
683.42	437.23
683.75	434.56
684.09	431.92
684.43	429.33
684.77	426.77
685.10	424.15
685.44	421.63
685.78	419.13
686.12	416.83
686.45	414.44
686.79	412.22
687.13	409.98
687.46	407.69
687.80	405.62
688.14	403.31
688.48	401.17
688.81	398.95
689.15	396.62
689.49	394.38
689.82	392.11
690.16	389.66
690.50	387.42
690.83	385.24
691.17	382.99
691.51	380.74
691.84	378.66
692.18	376.67
692.52	374.74
692.85	372.94
693.19	371.10
693.52	369.25
693.86	367.25
694.20	365.40
694.53	363.45
694.87	361.32
695.21	359.32
695.54	357.37
695.88	355.47
696.21	353.54
696.55	351.75
696.88	349.99
697.22	348.28
697.56	346.77
697.89	345.15
698.23	343.40
698.56	341.85
698.90	340.29
699.23	338.59
699.57	336.87
699.90	335.09
700.24	333.33
700.58	331.66
700.91	330.09
701.25	328.65
701.58	327.28
701.92	325.94
702.25	324.58
702.59	323.16
702.92	321.85
703.26	320.60
703.59	319.27
703.93	318.10
704.26	316.82
704.60	315.42
704.93	314.03
705.26	312.82
705.60	311.57
705.93	310.23
706.27	309.17
706.60	308.16
706.94	307.04
707.27	305.91
707.61	304.85
707.94	303.68
708.27	302.36
708.61	301.19
708.94	300.04
709.28	298.91
709.61	297.80
709.94	296.80
710.28	295.75
710.61	294.72
710.95	293.51
711.28	292.64
711.61	291.64
711.95	290.76
712.28	289.84
712.61	288.80
712.95	287.91
713.28	286.87
713.61	285.80
713.95	284.87
714.28	283.95
714.61	282.92
714.95	281.98
715.28	281.01
715.61	280.12
715.95	279.26
716.28	278.30
716.61	277.45
716.95	276.49
717.28	275.62
717.61	274.78
717.94	273.99
718.28	273.15
718.61	272.36
718.94	271.53
719.27	270.63
719.61	269.94
719.94	269.22
720.27	268.49
720.60	267.76
720.94	266.97
721.27	266.34
721.60	265.70
721.93	265.03
722.27	264.51
722.60	263.80
722.93	263.13
723.26	262.61
723.59	261.99
723.93	261.39
724.26	260.78
724.59	260.19
724.92	259.65
725.25	259.05
725.59	258.42
725.92	257.89
726.25	257.44
726.58	256.86
726.91	256.34
727.24	255.85
727.57	255.32
727.91	254.76
728.24	254.24
728.57	253.72
728.90	253.30
729.23	252.80
729.56	252.45
729.89	251.95
730.22	251.52
730.55	251.02
730.89	250.54
731.22	250.09
731.55	249.62
731.88	249.17
732.21	248.69
732.54	248.25
732.87	247.82
733.20	247.36
733.53	246.91
733.86	246.49
734.19	246.04
734.52	245.71
734.85	245.50
735.18	245.09
735.51	244.86
735.84	244.48
736.17	244.11
736.50	243.61
736.83	243.46
737.16	243.10
737.49	242.79
737.82	242.41
738.15	242.10
738.48	241.82
738.81	241.44
739.14	241.08
739.47	240.75
739.80	240.38
740.13	240.10
740.46	239.76
740.79	239.32
741.12	238.96
741.45	238.62
741.78	238.23
742.11	237.92
742.44	237.40
742.77	237.11
743.10	236.78
743.43	236.51
743.75	236.09
744.08	236.00
744.41	235.66
744.74	235.47
745.07	235.19
745.40	234.92
745.73	234.74
746.06	234.47
746.39	234.24
746.71	233.97
747.04	233.64
747.37	233.39
747.70	233.31
748.03	233.10
748.36	232.82
748.68	232.49
749.01	232.17
749.34	231.94
749.67	231.70
750.00	231.49
750.33	231.31
750.65	230.99
750.98	230.50
751.31	230.27
751.64	230.01
751.97	229.85
752.29	229.51
752.62	229.17
752.95	228.88
753.28	228.70
753.60	228.44
753.93	228.27
754.26	228.00
754.59	227.67
754.91	227.40
755.24	227.26
755.57	227.12
755.90	227.01
756.22	226.78
756.55	226.51
756.88	226.28
757.20	226.01
757.53	225.71
757.86	225.54
758.19	225.34
758.51	225.15
758.84	224.84
759.17	224.63
759.49	224.45
759.82	224.43
760.15	224.20
760.47	224.10
760.80	223.86
761.13	223.81
761.45	223.61
761.78	223.49
762.11	223.30
762.43	223.13
762.76	222.93
763.08	222.84
763.41	222.74
763.74	222.64
764.06	222.48
764.39	222.44
764.71	222.25
765.04	222.12
765.37	221.96
765.69	221.82
766.02	221.76
766.34	221.65
766.67	221.44
767.00	221.42
767.32	221.34
767.65	221.27
767.97	221.10
768.30	221.03
768.62	220.88
768.95	220.78
769.27	220.70
769.60	220.63
769.92	220.57
770.25	220.43
770.57	220.29
770.90	220.16
771.22	219.99
771.55	219.85
771.87	219.83
772.20	219.71
772.52	219.72
772.85	219.76
773.17	219.73
773.50	219.65
773.82	219.47
774.15	219.28
774.47	219.18
774.80	219.10
775.12	219.02
775.45	218.92
775.77	218.77
776.09	218.66
776.42	218.57
776.74	218.55
777.07	218.43
777.39	218.32
777.72	218.24
778.04	218.26
778.36	218.20
778.69	218.05
779.01	217.99
779.33	217.91
779.66	217.72
779.98	217.58
780.31	217.51
780.63	217.49
780.95	217.40
781.28	217.34
781.60	217.24
781.92	217.10
782.25	217.01
782.57	216.98
782.89	216.98
783.22	216.90
783.54	216.77
783.86	216.72
784.19	216.66
784.51	216.70
784.83	216.57
785.16	216.50
785.48	216.51
785.80	216.48
786.12	216.36
786.45	216.24
786.77	216.20
787.09	216.14
787.42	216.01
787.74	216.01
788.06	215.91
788.38	215.91
788.71	215.91
789.03	215.92
789.35	215.83
789.67	215.65
789.99	215.57
790.32	215.47
790.64	215.47
790.96	215.54
791.28	215.40
791.61	215.34
791.93	215.30
792.25	215.19
792.57	215.27
792.89	215.17
793.21	215.10
793.54	215.06
793.86	215.04
794.18	215.01
794.50	214.94
794.82	214.94
795.14	214.87
795.47	214.86
795.79	214.79
796.11	214.75
796.43	214.71
796.75	214.65
797.07	214.62
797.39	214.64
797.71	214.52
798.04	214.51
798.36	214.45
798.68	214.46
799.00	214.44
799.32	214.30
799.64	214.38
799.96	214.46
800.28	214.48
800.60	214.35
800.92	214.35
801.24	214.31
801.56	214.31
801.89	214.33
802.21	214.31
802.53	214.31
802.85	214.33
803.17	214.41
803.49	214.43
803.81	214.41
804.13	214.40
804.45	214.32
804.77	214.33
805.09	214.36
805.41	214.31
805.73	214.31
806.05	214.29
806.37	214.20
806.69	214.21
807.01	214.15
807.33	214.17
807.65	214.15
807.97	214.19
808.28	214.05
808.60	213.93
808.92	213.85
809.24	213.93
809.56	213.95
809.88	213.90
810.20	213.87
810.52	213.82
810.84	213.69
811.16	213.72
811.48	213.63
811.80	213.69
812.12	213.67
812.43	213.70
812.75	213.65
813.07	213.61
813.39	213.51
813.71	213.49
814.03	213.46
814.35	213.44
814.67	213.39
814.98	213.47
815.30	213.50
815.62	213.45
815.94	213.27
816.26	213.29
816.58	213.23
816.89	213.21
817.21	213.26
817.53	213.28
817.85	213.18
818.17	213.15
818.48	213.10
818.80	213.18
819.12	213.06
819.44	213.05
819.76	212.98
820.07	213.04
820.39	212.99
820.71	212.98
821.03	212.89
821.34	212.90
821.66	212.82
821.98	212.84
822.30	212.84
822.61	212.92
822.93	212.79
823.25	212.80
823.57	212.74
823.88	212.72
824.20	212.68
824.52	212.79
824.83	212.82
825.15	212.69
825.47	212.65
825.79	212.78
826.10	212.71
826.42	212.65
826.74	212.60
827.05	212.58
827.37	212.59
827.69	212.61
828.00	212.53
828.32	212.53
828.64	212.45
828.95	212.53
829.27	212.56
829.58	212.59
829.90	212.55
830.22	212.56
830.53	212.47
830.85	212.46
831.17	212.38
831.48	212.38
831.80	212.42
832.11	212.34
832.43	212.20
832.75	212.13
833.06	212.26
833.38	212.15
833.69	212.16
834.01	212.15
834.32	212.14
834.64	212.14
834.96	212.17
835.27	212.21
835.59	212.16
835.90	212.05
836.22	211.98
836.53	211.95
836.85	211.95
837.16	212.12
837.48	212.05
837.79	212.13
838.11	212.11
838.42	212.12
838.74	212.16
839.05	212.18
839.37	212.25
839.68	212.20
840.00	212.24
840.31	212.25
840.63	212.22
840.94	212.23
841.26	212.22
841.57	212.24
841.88	212.23
842.20	212.25
842.51	212.22
842.83	212.30
843.14	212.45
843.46	212.45
843.77	212.32
844.08	212.35
844.40	212.26
844.71	212.27
845.03	212.18
845.34	212.17
845.65	212.13
845.97	212.16
846.28	212.14
846.60	212.15
846.91	212.08
847.22	212.06
847.54	212.06
847.85	212.04
848.16	211.98
848.48	211.91
848.79	211.92
849.10	211.90
849.42	211.83
849.73	211.70
850.04	211.74
850.36	211.72
850.67	211.74
850.98	211.71
851.30	211.75
851.61	211.84
851.92	211.84
852.23	211.91
852.55	211.90
852.86	211.82
853.17	211.83
853.49	211.93
853.80	211.99
854.11	212.00
854.42	212.07
854.74	212.09
855.05	212.10
855.36	211.93
855.67	211.98
855.99	212.02
856.30	212.19
856.61	212.15
856.92	212.11
857.23	212.15
857.55	212.12
857.86	212.09
858.17	212.04
858.48	211.95
858.79	211.88
859.11	211.96
859.42	211.98
859.73	211.92
860.04	211.90
860.35	211.82
860.66	211.70
860.98	211.64
861.29	211.64
861.60	211.68
861.91	211.77
862.22	211.66
862.53	211.60
862.84	211.42
863.16	211.37
863.47	211.45
863.78	211.38
864.09	211.41
864.40	211.36
864.71	211.38
865.02	211.43
865.33	211.44
865.64	211.33
865.95	211.37
866.27	211.47
866.58	211.43
866.89	211.46
867.20	211.52
867.51	211.57
867.82	211.51
868.13	211.55
868.44	211.51
868.75	211.65
869.06	211.64
869.37	211.63
869.68	211.63
869.99	211.56
870.30	211.59
870.61	211.62
870.92	211.64
871.23	211.65
871.54	211.63
871.85	211.62
872.16	211.62
872.47	211.57
872.78	211.48
873.09	211.46
873.40	211.43
873.71	211.41
874.02	211.37
874.33	211.35
874.64	211.31
874.95	211.32
875.26	211.32
875.56	211.35
875.87	211.37
876.18	211.36
876.49	211.51
876.80	211.48
877.11	211.45
877.42	211.42
877.73	211.45
878.04	211.44
878.35	211.47
878.66	211.49
878.96	211.51
879.27	211.57
879.58	211.54
879.89	211.54
880.20	211.60
880.51	211.63
880.82	211.66
881.12	211.63
881.43	211.59
881.74	211.53
882.05	211.43
882.36	211.45
882.67	211.46
882.97	211.28
883.28	211.25
883.59	211.22
883.90	211.24
884.21	211.20
884.51	211.21
884.82	211.22
885.13	211.22
885.44	211.23
885.74	211.17
886.05	211.15
886.36	211.23
886.67	211.14
886.98	211.20
887.28	211.18
887.59	211.13
887.90	211.16
888.20	211.12
888.51	211.22
888.82	211.07
889.13	211.10
889.43	211.23
889.74	211.23
890.05	211.25
890.35	211.23
890.66	211.22
890.97	211.25
891.28	211.18
891.58	211.15
891.89	211.09
892.20	211.08
892.50	211.15
892.81	211.07
893.12	211.10
893.42	210.92
893.73	210.95
894.04	211.00
894.34	211.02
894.65	211.07
894.95	211.00
895.26	211.08
895.57	211.12
895.87	210.98
896.18	211.01
896.48	211.00
896.79	211.00
897.10	210.97
897.40	210.99
897.71	211.05
898.01	211.00
898.32	211.10
898.63	211.07
898.93	211.09
899.24	211.12
899.54	211.11
899.85	211.14
900.15	211.17
900.46	211.22
900.76	211.28
901.07	211.23
901.38	211.27
901.68	211.36
901.99	211.30
902.29	211.28
902.60	211.34
902.90	211.32
903.21	211.29
903.51	211.29
903.82	211.26
904.12	211.22
904.43	211.23
904.73	211.14
905.03	211.17
905.34	211.32
905.64	211.31
905.95	211.32
906.25	211.35
906.56	211.38
906.86	211.36
907.17	211.25
907.47	211.30
907.77	211.25
908.08	211.17
908.38	211.16
908.69	211.27
908.99	211.28
909.30	211.29
909.60	211.35
909.90	211.35
910.21	211.29
910.51	211.31
910.81	211.40
911.12	211.47
911.42	211.48
911.73	211.26
912.03	211.23
912.33	211.32
912.64	211.38
912.94	211.30
913.24	211.25
913.55	211.29
913.85	211.29
914.15	211.40
914.46	211.40
914.76	211.41
915.06	211.44
915.37	211.37
915.67	211.40
915.97	211.33
916.27	211.41
916.58	211.49
916.88	211.44
917.18	211.35
917.49	211.48
917.79	211.46
918.09	211.48
918.39	211.55
918.70	211.49
919.00	211.43
919.30	211.49
919.60	211.47
919.91	211.48
920.21	211.43
920.51	211.35
920.81	211.32
921.12	211.31
921.42	211.29
921.72	211.33
922.02	211.29
922.32	211.36
922.63	211.32
922.93	211.39
923.23	211.39
923.53	211.41
923.83	211.24
924.13	211.20
924.44	211.18
924.74	211.15
925.04	211.17
925.34	211.17
925.64	211.08
925.94	211.12
926.24	211.20
926.55	211.22
926.85	211.23
927.15	211.22
927.45	211.20
927.75	211.10
928.05	211.10
928.35	211.07
928.65	211.02
928.95	211.01
929.26	210.98
929.56	210.98
929.86	211.00
930.16	210.95
930.46	211.07
930.76	211.11
931.06	211.05
931.36	211.05
931.66	211.13
931.96	211.18
932.26	211.18
932.56	211.08
932.86	211.05
933.16	211.07
933.46	211.10
933.76	211.07
934.06	211.11
934.36	211.11
934.66	211.20
934.96	211.23
935.26	211.21
935.56	211.12
935.86	211.01
936.16	210.97
936.46	210.99
936.76	210.89
937.06	210.82
937.36	210.78
937.66	210.79
937.96	210.74
938.26	210.74
938.56	210.68
938.86	210.77
939.16	210.76
939.46	210.79
939.76	210.79
940.06	210.83
940.35	210.81
940.65	210.71
940.95	210.68
941.25	210.63
941.55	210.62
941.85	210.64
942.15	210.81
942.45	210.89
942.75	210.81
943.04	210.85
943.34	210.92
943.64	210.91
943.94	210.84
944.24	210.81
944.54	210.76
944.84	210.80
945.13	210.76
945.43	210.76
945.73	210.77
946.03	210.75
946.33	210.82
946.62	210.80
946.92	210.85
947.22	210.83
947.52	210.85
947.82	210.83
948.11	210.83
948.41	210.73
948.71	210.65
949.01	210.70
949.31	210.70
949.60	210.64
949.90	210.69
950.20	210.71
950.50	210.67
950.79	210.70
951.09	210.65
951.39	210.57
951.69	210.54
951.98	210.52
952.28	210.58
952.58	210.51
952.87	210.46
953.17	210.52
953.47	210.50
953.76	210.47
954.06	210.39
954.36	210.40
954.66	210.43
954.95	210.55
955.25	210.60
955.55	210.64
955.84	210.69
956.14	210.70
956.44	210.75
956.73	210.82
957.03	210.80
957.32	210.84
957.62	210.86
957.92	210.93
958.21	210.91
958.51	211.01
958.81	211.05
959.10	211.15
959.40	211.15
959.69	211.24
959.99	211.33
960.29	211.43
960.58	211.43
960.88	211.51
961.17	211.43
961.47	211.42
961.76	211.36
962.06	211.36
962.36	211.32
962.65	211.25
962.95	211.20
963.24	211.22
963.54	211.22
963.83	211.23
964.13	211.26
964.42	211.19
964.72	211.05
965.01	211.00
965.31	210.98
965.60	211.00
965.90	211.01
966.19	210.91
966.49	210.86
966.78	210.82
967.08	210.76
967.37	210.75
967.67	210.71
967.96	210.73
968.26	210.70
968.55	210.77
968.85	210.80
969.14	210.82
969.43	210.85
969.73	210.89
970.02	210.93
970.32	210.89
970.61	210.95
970.91	210.95
971.20	210.91
971.49	210.90
971.79	210.79
972.08	210.66
972.38	210.61
972.67	210.63
972.96	210.68
973.26	210.61
973.55	210.67
973.85	210.70
974.14	210.70
974.43	210.72
974.73	210.65
975.02	210.63
975.31	210.68
975.61	210.64
975.90	210.53
976.19	210.49
976.49	210.44
976.78	210.50
977.07	210.53
977.37	210.60
977.66	210.56
977.95	210.62
978.24	210.61
978.54	210.73
978.83	210.77
979.12	210.70
979.42	210.74
979.71	210.75
980.00	210.73
980.29	210.73
980.59	210.72
980.88	210.79
981.17	210.75
981.46	210.71
981.76	210.70
982.05	210.81
982.34	210.79
982.63	210.79
982.93	210.72
983.22	210.75
983.51	210.72
983.80	210.78
984.09	210.82
984.39	210.82
984.68	210.78
984.97	210.74
985.26	210.77
985.55	210.79
985.85	210.70
986.14	210.69
986.43	210.71
986.72	210.69
987.01	210.63
987.30	210.64
987.59	210.60
987.89	210.60
988.18	210.53
988.47	210.53
988.76	210.49
989.05	210.45
989.34	210.40
989.63	210.43
989.92	210.42
990.22	210.36
990.51	210.42
990.80	210.45
991.09	210.49
991.38	210.53
991.67	210.53
991.96	210.52
992.25	210.58
992.54	210.49
992.83	210.47
993.12	210.44
993.41	210.47
993.70	210.52
993.99	210.55
994.28	210.57
994.58	210.67
994.87	210.71
995.16	210.75
995.45	210.70
995.74	210.64
996.03	210.64
996.32	210.65
996.61	210.63
996.90	210.55
997.19	210.57
997.48	210.58
997.77	210.51
998.06	210.53
998.34	210.50
998.63	210.50
998.92	210.48
999.21	210.55
999.50	210.56
999.79	210.54
1000.08	210.52
1000.37	210.55
1000.66	210.43
1000.95	210.46
1001.24	210.48
1001.53	210.52
1001.82	210.56
1002.11	210.48
1002.40	210.52
1002.68	210.62
1002.97	210.74
1003.26	210.67
1003.55	210.61
1003.84	210.66
1004.13	210.78
1004.42	210.81
1004.71	210.83
1004.99	210.87
1005.28	210.90
1005.57	210.86
1005.86	210.81
1006.15	210.79
1006.44	210.78
1006.72	210.80
1007.01	210.80
1007.30	210.75
1007.59	210.75
1007.88	210.71
1008.17	210.81
1008.45	210.76
1008.74	210.65
1009.03	210.64
1009.32	210.67
1009.60	210.70
1009.89	210.64
1010.18	210.53
1010.47	210.47
1010.76	210.49
1011.04	210.47
1011.33	210.50
1011.62	210.55
1011.91	210.58
1012.19	210.64
1012.48	210.66
1012.77	210.70
1013.05	210.78
1013.34	210.82
1013.63	210.80
1013.92	210.83
1014.20	210.86
1014.49	210.91
1014.78	211.03
1015.06	211.03
1015.35	211.03
1015.64	211.04
1015.92	211.08
1016.21	211.14
1016.50	211.14
1016.78	211.26
1017.07	211.23
1017.36	211.17
1017.64	211.19
1017.93	211.17
1018.22	211.11
1018.50	211.09
1018.79	211.11
1019.08	211.03
1019.36	211.02
1019.65	211.05
1019.93	211.10
1020.22	211.08
1020.51	211.14
1020.79	211.03
1021.08	210.20
1021.36	210.75
1021.65	211.05
1021.94	210.85
1022.22	210.30
1022.51	211.40
1022.79	211.00
1023.08	211.75
1023.36	212.95
1023.65	210.80
>>>>>End Processed Spectral Data<<<<<
