SpectraSuite Data File
++++++++++++++++++++++++++++++++++++
Date: Mon Feb 25 17:35:25 EST 2013
User: group
Dark Spectrum Present: No
Reference Spectrum Present: No
Number of Sampled Component Spectra: 1
Spectrometers: USB2E7196
Integration Time (usec): 52000 (USB2E7196)
Spectra Averaged: 20 (USB2E7196)
Boxcar Smoothing: 10 (USB2E7196)
Correct for Electrical Dark: No (USB2E7196)
Strobe/Lamp Enabled: No (USB2E7196)
Correct for Detector Non-linearity: No (USB2E7196)
Correct for Stray Light: No (USB2E7196)
Number of Pixels in Processed Spectrum: 2048
>>>>>Begin Processed Spectral Data<<<<<
339.09	0.00
339.48	199.05
339.86	199.10
340.24	201.85
340.63	202.30
341.01	206.35
341.39	205.30
341.78	208.10
342.16	207.95
342.54	209.00
342.93	198.23
343.31	208.27
343.69	208.80
344.07	209.29
344.46	209.74
344.84	210.18
345.22	210.48
345.60	210.78
345.99	210.91
346.37	211.06
346.75	211.12
347.13	211.19
347.52	211.28
347.90	211.40
348.28	211.37
348.66	211.36
349.05	211.39
349.43	211.43
349.81	211.45
350.19	211.42
350.57	211.48
350.96	211.60
351.34	211.69
351.72	211.81
352.10	212.02
352.48	212.03
352.87	212.11
353.25	212.06
353.63	212.14
354.01	212.26
354.39	212.37
354.77	212.52
355.15	212.64
355.54	212.70
355.92	212.65
356.30	212.72
356.68	212.91
357.06	212.94
357.44	212.94
357.82	212.99
358.20	213.10
358.58	213.18
358.97	213.17
359.35	213.29
359.73	213.39
360.11	213.35
360.49	213.42
360.87	213.43
361.25	213.51
361.63	213.54
362.01	213.54
362.39	213.58
362.77	213.58
363.15	213.62
363.53	213.65
363.91	213.67
364.29	213.74
364.67	213.63
365.05	213.71
365.43	213.77
365.81	213.81
366.19	213.90
366.57	213.95
366.95	214.00
367.33	213.92
367.71	213.90
368.09	213.91
368.47	213.94
368.85	213.91
369.23	213.97
369.61	213.95
369.99	213.99
370.37	213.96
370.75	214.06
371.13	214.00
371.51	213.94
371.89	213.98
372.27	213.88
372.65	213.89
373.03	213.79
373.41	213.72
373.78	213.67
374.16	213.47
374.54	213.37
374.92	213.28
375.30	213.20
375.68	213.11
376.06	213.05
376.44	212.97
376.82	212.95
377.19	212.87
377.57	212.88
377.95	212.81
378.33	212.71
378.71	212.56
379.09	212.55
379.47	212.51
379.84	212.40
380.22	212.39
380.60	212.29
380.98	212.24
381.36	212.27
381.73	212.16
382.11	212.23
382.49	212.15
382.87	212.15
383.25	212.15
383.62	212.28
384.00	212.24
384.38	212.21
384.76	212.22
385.13	212.28
385.51	212.21
385.89	212.16
386.27	212.24
386.64	212.20
387.02	212.16
387.40	212.16
387.78	212.21
388.15	212.20
388.53	212.20
388.91	212.17
389.29	212.10
389.66	212.07
390.04	212.03
390.42	212.04
390.79	211.96
391.17	211.94
391.55	211.70
391.92	211.69
392.30	211.78
392.68	211.72
393.05	211.58
393.43	211.60
393.81	211.60
394.18	211.52
394.56	211.52
394.94	211.60
395.31	211.58
395.69	211.59
396.06	211.58
396.44	211.55
396.82	211.61
397.19	211.73
397.57	211.88
397.95	211.90
398.32	211.91
398.70	211.98
399.07	212.12
399.45	212.20
399.82	212.27
400.20	212.31
400.58	212.38
400.95	212.45
401.33	212.49
401.70	212.64
402.08	212.75
402.45	212.84
402.83	212.91
403.20	213.00
403.58	213.10
403.95	213.25
404.33	213.32
404.71	213.40
405.08	213.57
405.46	213.62
405.83	213.76
406.21	213.89
406.58	214.09
406.96	214.20
407.33	214.42
407.70	214.61
408.08	214.86
408.45	215.08
408.83	215.29
409.20	215.52
409.58	215.64
409.95	215.92
410.33	216.15
410.70	216.43
411.08	216.80
411.45	217.11
411.82	217.45
412.20	217.92
412.57	218.44
412.95	218.80
413.32	219.33
413.69	219.85
414.07	220.45
414.44	221.04
414.82	221.62
415.19	222.35
415.56	223.07
415.94	223.79
416.31	224.74
416.68	225.64
417.06	226.59
417.43	227.63
417.81	228.69
418.18	229.89
418.55	231.05
418.93	232.29
419.30	233.68
419.67	235.12
420.04	236.60
420.42	238.13
420.79	239.92
421.16	241.70
421.54	243.55
421.91	245.35
422.28	247.26
422.66	249.31
423.03	251.43
423.40	253.56
423.77	255.82
424.15	258.00
424.52	260.36
424.89	262.96
425.26	265.41
425.64	267.79
426.01	270.38
426.38	273.11
426.75	275.80
427.13	278.55
427.50	281.50
427.87	284.58
428.24	287.64
428.61	290.54
428.99	293.75
429.36	297.31
429.73	300.86
430.10	304.32
430.47	307.83
430.85	311.44
431.22	315.29
431.59	319.36
431.96	323.30
432.33	327.69
432.70	331.92
433.08	336.88
433.45	341.63
433.82	346.16
434.19	351.30
434.56	356.49
434.93	361.33
435.30	366.04
435.68	371.39
436.05	376.58
436.42	381.75
436.79	386.48
437.16	391.58
437.53	396.94
437.90	402.23
438.27	407.62
438.64	412.85
439.01	417.92
439.38	422.32
439.75	426.75
440.13	431.68
440.50	436.23
440.87	440.05
441.24	443.86
441.61	448.19
441.98	451.29
442.35	454.82
442.72	458.57
443.09	462.23
443.46	464.33
443.83	465.80
444.20	466.98
444.57	468.77
444.94	469.54
445.31	470.33
445.68	471.19
446.05	471.39
446.42	471.00
446.79	470.21
447.16	469.51
447.53	468.79
447.90	466.51
448.27	464.54
448.64	461.53
449.01	459.46
449.37	455.90
449.74	452.34
450.11	448.34
450.48	443.73
450.85	439.11
451.22	435.02
451.59	431.24
451.96	427.58
452.33	422.77
452.70	418.32
453.07	413.16
453.43	407.73
453.80	402.62
454.17	397.69
454.54	393.05
454.91	388.10
455.28	383.30
455.65	378.97
456.02	374.53
456.38	370.75
456.75	366.06
457.12	362.07
457.49	358.19
457.86	354.32
458.23	351.23
458.59	347.70
458.96	344.17
459.33	340.86
459.70	337.73
460.07	335.11
460.43	332.26
460.80	329.48
461.17	327.15
461.54	324.71
461.91	322.28
462.27	320.00
462.64	318.01
463.01	315.78
463.38	313.62
463.74	311.42
464.11	309.54
464.48	307.90
464.85	306.09
465.21	304.73
465.58	303.29
465.95	301.47
466.32	299.97
466.68	298.58
467.05	297.27
467.42	295.83
467.78	294.45
468.15	293.16
468.52	292.17
468.88	290.97
469.25	289.80
469.62	288.91
469.98	287.87
470.35	286.87
470.72	285.99
471.08	284.93
471.45	284.10
471.82	283.29
472.18	282.36
472.55	281.86
472.92	281.22
473.28	280.55
473.65	279.95
474.02	279.42
474.38	279.02
474.75	278.63
475.11	278.25
475.48	277.97
475.85	277.72
476.21	277.54
476.58	277.35
476.94	277.27
477.31	277.23
477.67	277.17
478.04	277.22
478.41	277.33
478.77	277.76
479.14	277.90
479.50	278.17
479.87	278.57
480.23	278.94
480.60	279.28
480.96	279.69
481.33	280.26
481.69	280.94
482.06	281.54
482.42	282.16
482.79	282.97
483.15	283.81
483.52	284.69
483.88	285.62
484.25	286.52
484.61	287.61
484.98	288.67
485.34	289.93
485.71	291.29
486.07	292.72
486.44	293.97
486.80	295.50
487.17	297.18
487.53	298.89
487.90	300.63
488.26	302.58
488.62	304.75
488.99	306.73
489.35	308.79
489.72	311.01
490.08	313.51
490.44	315.94
490.81	318.54
491.17	321.27
491.54	324.15
491.90	327.19
492.26	330.41
492.63	333.77
492.99	337.18
493.36	340.67
493.72	344.47
494.08	348.58
494.45	352.96
494.81	357.47
495.17	361.99
495.54	366.89
495.90	371.89
496.26	377.08
496.63	382.66
496.99	388.49
497.35	394.45
497.72	400.64
498.08	407.24
498.44	414.06
498.80	421.25
499.17	428.65
499.53	436.38
499.89	444.35
500.26	452.59
500.62	460.93
500.98	469.81
501.34	478.95
501.71	488.21
502.07	497.86
502.43	507.83
502.79	518.14
503.16	528.84
503.52	539.78
503.88	550.98
504.24	562.70
504.60	574.57
504.97	586.97
505.33	599.61
505.69	612.84
506.05	626.45
506.41	640.12
506.78	653.96
507.14	668.13
507.50	682.71
507.86	697.71
508.22	713.34
508.59	728.99
508.95	744.82
509.31	761.14
509.67	777.85
510.03	794.85
510.39	812.47
510.75	830.33
511.12	848.64
511.48	867.05
511.84	885.62
512.20	904.34
512.56	923.65
512.92	943.12
513.28	962.85
513.64	982.63
514.00	1002.68
514.37	1023.04
514.73	1044.14
515.09	1064.90
515.45	1085.63
515.81	1106.90
516.17	1128.42
516.53	1150.16
516.89	1171.87
517.25	1193.33
517.61	1215.15
517.97	1236.75
518.33	1258.38
518.69	1280.15
519.05	1302.55
519.41	1325.01
519.77	1347.69
520.13	1369.90
520.49	1392.17
520.85	1414.86
521.21	1437.44
521.57	1460.34
521.93	1482.80
522.29	1505.52
522.65	1528.27
523.01	1551.09
523.37	1573.50
523.73	1596.04
524.09	1618.42
524.45	1640.96
524.81	1663.60
525.17	1686.20
525.53	1708.89
525.89	1731.49
526.25	1753.72
526.61	1775.05
526.97	1796.96
527.33	1818.53
527.68	1840.50
528.04	1861.89
528.40	1882.42
528.76	1903.41
529.12	1924.25
529.48	1945.96
529.84	1966.93
530.20	1987.50
530.56	2008.50
530.91	2029.33
531.27	2049.77
531.63	2070.10
531.99	2090.31
532.35	2109.89
532.71	2129.31
533.07	2149.01
533.42	2167.66
533.78	2186.92
534.14	2205.44
534.50	2222.57
534.86	2240.93
535.21	2257.57
535.57	2275.55
535.93	2293.18
536.29	2310.18
536.65	2327.23
537.00	2342.79
537.36	2358.00
537.72	2373.38
538.08	2388.38
538.44	2403.83
538.79	2419.54
539.15	2434.67
539.51	2449.50
539.87	2464.95
540.22	2479.39
540.58	2494.66
540.94	2509.48
541.29	2522.61
541.65	2535.53
542.01	2549.42
542.37	2561.36
542.72	2573.88
543.08	2585.18
543.44	2597.11
543.79	2607.71
544.15	2618.19
544.51	2629.47
544.87	2640.41
545.22	2649.98
545.58	2659.03
545.94	2666.37
546.29	2672.87
546.65	2679.19
547.01	2685.48
547.36	2691.37
547.72	2697.27
548.07	2701.04
548.43	2705.01
548.79	2708.85
549.14	2713.49
549.50	2717.68
549.86	2721.89
550.21	2726.35
550.57	2730.95
550.92	2733.98
551.28	2736.74
551.64	2739.21
551.99	2741.83
552.35	2744.00
552.70	2747.11
553.06	2750.05
553.41	2753.33
553.77	2756.75
554.13	2758.99
554.48	2761.26
554.84	2762.54
555.19	2763.56
555.55	2764.25
555.90	2765.02
556.26	2765.83
556.61	2765.74
556.97	2764.81
557.32	2764.85
557.68	2763.58
558.03	2761.67
558.39	2760.40
558.74	2760.50
559.10	2759.41
559.45	2757.93
559.81	2756.78
560.16	2754.02
560.52	2751.82
560.87	2748.75
561.23	2744.95
561.58	2743.04
561.94	2739.64
562.29	2736.26
562.64	2733.59
563.00	2731.56
563.35	2729.52
563.71	2727.93
564.06	2726.30
564.42	2724.55
564.77	2721.79
565.12	2719.60
565.48	2716.36
565.83	2713.26
566.19	2709.92
566.54	2705.88
566.89	2701.81
567.25	2697.78
567.60	2694.55
567.96	2690.59
568.31	2687.36
568.66	2683.68
569.02	2679.05
569.37	2674.31
569.72	2670.39
570.08	2665.17
570.43	2659.33
570.78	2653.46
571.14	2647.26
571.49	2640.34
571.84	2634.23
572.20	2627.52
572.55	2621.01
572.90	2614.37
573.26	2607.43
573.61	2600.21
573.96	2593.54
574.31	2585.90
574.67	2577.76
575.02	2569.26
575.37	2560.65
575.72	2551.48
576.08	2543.85
576.43	2535.00
576.78	2527.09
577.13	2519.05
577.49	2510.84
577.84	2503.26
578.19	2495.29
578.54	2487.57
578.90	2480.61
579.25	2471.65
579.60	2462.55
579.95	2453.26
580.30	2445.34
580.66	2437.08
581.01	2427.51
581.36	2418.24
581.71	2409.65
582.06	2401.15
582.42	2392.71
582.77	2383.49
583.12	2374.88
583.47	2365.65
583.82	2357.36
584.17	2347.95
584.53	2338.62
584.88	2329.48
585.23	2319.84
585.58	2310.22
585.93	2300.13
586.28	2290.53
586.63	2281.73
586.98	2273.21
587.34	2264.45
587.69	2254.97
588.04	2245.50
588.39	2237.30
588.74	2228.15
589.09	2219.27
589.44	2209.69
589.79	2201.15
590.14	2193.22
590.49	2184.58
590.84	2175.60
591.19	2167.26
591.54	2158.55
591.89	2148.57
592.25	2139.68
592.60	2130.05
592.95	2120.42
593.30	2111.05
593.65	2101.54
594.00	2091.86
594.35	2083.35
594.70	2074.32
595.05	2065.55
595.40	2056.56
595.75	2046.86
596.10	2038.58
596.45	2030.00
596.80	2022.04
597.15	2013.74
597.50	2004.27
597.85	1995.44
598.19	1986.75
598.54	1978.08
598.89	1970.24
599.24	1963.21
599.59	1955.42
599.94	1948.70
600.29	1941.02
600.64	1932.88
600.99	1924.43
601.34	1916.96
601.69	1908.09
602.04	1899.77
602.39	1891.59
602.74	1883.84
603.08	1877.28
603.43	1869.92
603.78	1861.59
604.13	1853.37
604.48	1845.05
604.83	1838.04
605.18	1830.83
605.53	1823.08
605.87	1815.16
606.22	1807.66
606.57	1799.56
606.92	1791.45
607.27	1782.77
607.62	1775.51
607.96	1768.59
608.31	1761.75
608.66	1753.87
609.01	1746.06
609.36	1738.29
609.70	1730.30
610.05	1722.42
610.40	1713.89
610.75	1705.25
611.10	1697.80
611.44	1688.46
611.79	1679.22
612.14	1669.80
612.49	1660.20
612.83	1651.43
613.18	1641.53
613.53	1631.81
613.88	1622.09
614.22	1612.83
614.57	1603.50
614.92	1593.97
615.27	1584.60
615.61	1574.88
615.96	1565.77
616.31	1557.31
616.65	1549.49
617.00	1540.92
617.35	1531.94
617.70	1522.92
618.04	1513.87
618.39	1504.24
618.74	1495.74
619.08	1487.19
619.43	1478.77
619.78	1470.63
620.12	1462.37
620.47	1454.73
620.82	1445.99
621.16	1437.71
621.51	1429.10
621.85	1420.82
622.20	1412.28
622.55	1403.48
622.89	1395.13
623.24	1387.09
623.59	1378.35
623.93	1369.55
624.28	1361.20
624.62	1353.10
624.97	1344.75
625.32	1336.59
625.66	1328.92
626.01	1321.62
626.35	1314.32
626.70	1306.70
627.04	1299.43
627.39	1291.64
627.73	1283.75
628.08	1277.02
628.43	1269.48
628.77	1262.38
629.12	1254.74
629.46	1247.82
629.81	1240.70
630.15	1233.48
630.50	1225.89
630.84	1218.56
631.19	1211.20
631.53	1204.31
631.88	1196.75
632.22	1189.11
632.57	1182.32
632.91	1174.90
633.26	1167.40
633.60	1160.13
633.95	1153.19
634.29	1145.75
634.64	1138.94
634.98	1132.05
635.32	1124.89
635.67	1118.55
636.01	1111.62
636.36	1105.10
636.70	1098.44
637.05	1091.80
637.39	1085.40
637.73	1079.14
638.08	1073.17
638.42	1067.20
638.77	1060.51
639.11	1053.99
639.45	1048.04
639.80	1041.30
640.14	1034.96
640.49	1028.83
640.83	1022.66
641.17	1016.23
641.52	1010.02
641.86	1003.34
642.20	997.05
642.55	990.18
642.89	983.41
643.23	976.96
643.58	970.74
643.92	964.08
644.26	957.77
644.61	951.58
644.95	945.45
645.29	939.11
645.64	932.40
645.98	926.22
646.32	920.30
646.66	913.95
647.01	908.06
647.35	901.94
647.69	895.30
648.04	889.04
648.38	883.10
648.72	876.95
649.06	870.96
649.41	864.90
649.75	859.23
650.09	853.41
650.43	847.55
650.78	841.42
651.12	835.55
651.46	829.68
651.80	823.53
652.14	817.36
652.49	811.37
652.83	805.47
653.17	799.26
653.51	793.43
653.85	787.73
654.20	781.77
654.54	775.91
654.88	770.79
655.22	765.06
655.56	758.98
655.90	753.26
656.25	747.54
656.59	741.87
656.93	736.59
657.27	731.39
657.61	726.00
657.95	720.78
658.29	715.50
658.64	710.33
658.98	705.22
659.32	699.90
659.66	694.75
660.00	689.32
660.34	684.35
660.68	678.97
661.02	673.83
661.36	668.85
661.70	664.09
662.05	659.13
662.39	654.67
662.73	650.32
663.07	645.98
663.41	641.59
663.75	637.05
664.09	632.26
664.43	627.36
664.77	622.76
665.11	618.32
665.45	613.94
665.79	609.50
666.13	605.16
666.47	600.84
666.81	596.58
667.15	592.62
667.49	588.68
667.83	584.77
668.17	580.97
668.51	577.23
668.85	573.36
669.19	569.73
669.53	565.66
669.87	561.74
670.21	557.70
670.55	553.68
670.89	550.12
671.23	546.68
671.57	543.34
671.91	539.69
672.25	536.06
672.58	532.49
672.92	528.96
673.26	525.60
673.60	522.36
673.94	519.05
674.28	515.66
674.62	512.45
674.96	509.35
675.30	506.17
675.64	502.86
675.97	499.74
676.31	496.63
676.65	493.71
676.99	490.85
677.33	487.96
677.67	484.96
678.01	481.90
678.34	478.84
678.68	475.84
679.02	472.95
679.36	470.16
679.70	467.25
680.04	464.40
680.37	461.49
680.71	458.66
681.05	455.91
681.39	453.22
681.73	450.44
682.06	447.91
682.40	445.36
682.74	442.90
683.08	440.20
683.42	437.50
683.75	434.83
684.09	432.13
684.43	429.59
684.77	427.10
685.10	424.52
685.44	422.05
685.78	419.52
686.12	417.26
686.45	414.81
686.79	412.49
687.13	410.21
687.46	408.01
687.80	405.89
688.14	403.60
688.48	401.33
688.81	398.94
689.15	396.63
689.49	394.25
689.82	392.01
690.16	389.69
690.50	387.37
690.83	385.13
691.17	382.87
691.51	380.69
691.84	378.62
692.18	376.64
692.52	374.62
692.85	372.71
693.19	370.76
693.52	368.85
693.86	366.98
694.20	365.22
694.53	363.22
694.87	361.12
695.21	359.15
695.54	357.34
695.88	355.49
696.21	353.58
696.55	351.83
696.88	349.95
697.22	348.25
697.56	346.71
697.89	345.11
698.23	343.46
698.56	341.80
698.90	340.17
699.23	338.51
699.57	336.98
699.90	335.34
700.24	333.57
700.58	331.89
700.91	330.28
701.25	328.75
701.58	327.27
701.92	325.82
702.25	324.38
702.59	322.91
702.92	321.58
703.26	320.24
703.59	318.92
703.93	317.80
704.26	316.60
704.60	315.18
704.93	313.91
705.26	312.72
705.60	311.45
705.93	310.14
706.27	309.00
706.60	307.77
706.94	306.72
707.27	305.57
707.61	304.49
707.94	303.29
708.27	301.95
708.61	300.86
708.94	299.70
709.28	298.65
709.61	297.51
709.94	296.50
710.28	295.41
710.61	294.44
710.95	293.21
711.28	292.19
711.61	291.19
711.95	290.24
712.28	289.16
712.61	288.18
712.95	287.28
713.28	286.33
713.61	285.39
713.95	284.37
714.28	283.63
714.61	282.68
714.95	281.82
715.28	280.91
715.61	279.97
715.95	279.13
716.28	278.13
716.61	277.33
716.95	276.40
717.28	275.57
717.61	274.70
717.94	273.95
718.28	273.18
718.61	272.46
718.94	271.64
719.27	270.96
719.61	270.24
719.94	269.66
720.27	268.92
720.60	268.27
720.94	267.54
721.27	266.73
721.60	266.14
721.93	265.54
722.27	265.06
722.60	264.45
722.93	263.86
723.26	263.27
723.59	262.67
723.93	262.11
724.26	261.53
724.59	260.95
724.92	260.45
725.25	259.90
725.59	259.31
725.92	258.79
726.25	258.25
726.58	257.67
726.91	257.04
727.24	256.56
727.57	256.06
727.91	255.53
728.24	255.12
728.57	254.59
728.90	254.12
729.23	253.60
729.56	253.17
729.89	252.65
730.22	252.21
730.55	251.70
730.89	251.16
731.22	250.65
731.55	250.19
731.88	249.69
732.21	249.20
732.54	248.73
732.87	248.28
733.20	247.75
733.53	247.35
733.86	246.93
734.19	246.52
734.52	246.00
734.85	245.76
735.18	245.30
735.51	244.88
735.84	244.50
736.17	244.05
736.50	243.60
736.83	243.43
737.16	243.15
737.49	242.84
737.82	242.50
738.15	242.14
738.48	241.70
738.81	241.37
739.14	240.94
739.47	240.56
739.80	240.14
740.13	239.89
740.46	239.57
740.79	239.19
741.12	238.80
741.45	238.49
741.78	238.00
742.11	237.67
742.44	237.31
742.77	236.97
743.10	236.65
743.43	236.39
743.75	235.89
744.08	235.68
744.41	235.32
744.74	235.04
745.07	234.73
745.40	234.57
745.73	234.32
746.06	234.10
746.39	233.80
746.71	233.49
747.04	233.23
747.37	232.90
747.70	232.68
748.03	232.40
748.36	232.14
748.68	231.90
749.01	231.70
749.34	231.50
749.67	231.29
750.00	231.09
750.33	230.97
750.65	230.78
750.98	230.40
751.31	230.24
751.64	229.95
751.97	229.81
752.29	229.51
752.62	229.22
752.95	228.95
753.28	228.69
753.60	228.54
753.93	228.32
754.26	228.06
754.59	227.79
754.91	227.57
755.24	227.37
755.57	227.19
755.90	226.92
756.22	226.67
756.55	226.42
756.88	226.20
757.20	225.85
757.53	225.63
757.86	225.46
758.19	225.23
758.51	225.12
758.84	224.89
759.17	224.67
759.49	224.51
759.82	224.40
760.15	224.29
760.47	224.13
760.80	223.95
761.13	223.91
761.45	223.71
761.78	223.57
762.11	223.37
762.43	223.25
762.76	223.10
763.08	222.95
763.41	222.81
763.74	222.72
764.06	222.61
764.39	222.45
764.71	222.26
765.04	222.10
765.37	221.93
765.69	221.79
766.02	221.71
766.34	221.60
766.67	221.47
767.00	221.43
767.32	221.37
767.65	221.31
767.97	221.21
768.30	221.11
768.62	221.00
768.95	220.87
769.27	220.69
769.60	220.61
769.92	220.57
770.25	220.52
770.57	220.33
770.90	220.19
771.22	220.10
771.55	220.01
771.87	219.97
772.20	219.83
772.52	219.91
772.85	220.04
773.17	219.92
773.50	219.84
773.82	219.68
774.15	219.49
774.47	219.28
774.80	219.11
775.12	219.03
775.45	218.99
775.77	219.01
776.09	218.99
776.42	218.90
776.74	218.86
777.07	218.73
777.39	218.68
777.72	218.60
778.04	218.53
778.36	218.42
778.69	218.32
779.01	218.32
779.33	218.10
779.66	217.84
779.98	217.74
780.31	217.61
780.63	217.65
780.95	217.60
781.28	217.58
781.60	217.50
781.92	217.44
782.25	217.35
782.57	217.19
782.89	217.10
783.22	217.02
783.54	216.91
783.86	216.82
784.19	216.78
784.51	216.82
784.83	216.80
785.16	216.75
785.48	216.74
785.80	216.66
786.12	216.60
786.45	216.50
786.77	216.45
787.09	216.42
787.42	216.27
787.74	216.28
788.06	216.24
788.38	216.19
788.71	216.15
789.03	216.07
789.35	216.03
789.67	216.00
789.99	215.95
790.32	215.87
790.64	215.85
790.96	215.94
791.28	215.71
791.61	215.58
791.93	215.53
792.25	215.41
792.57	215.50
792.89	215.41
793.21	215.35
793.54	215.20
793.86	215.08
794.18	215.02
794.50	214.90
794.82	214.87
795.14	214.82
795.47	214.79
795.79	214.78
796.11	214.71
796.43	214.68
796.75	214.60
797.07	214.51
797.39	214.50
797.71	214.30
798.04	214.36
798.36	214.32
798.68	214.30
799.00	214.31
799.32	214.19
799.64	214.18
799.96	214.18
800.28	214.21
800.60	214.22
800.92	214.21
801.24	214.13
801.56	214.06
801.89	214.05
802.21	213.93
802.53	213.85
802.85	213.88
803.17	213.88
803.49	213.89
803.81	213.90
804.13	213.79
804.45	213.81
804.77	213.75
805.09	213.76
805.41	213.68
805.73	213.67
806.05	213.58
806.37	213.55
806.69	213.51
807.01	213.49
807.33	213.46
807.65	213.29
807.97	213.46
808.28	213.52
808.60	213.51
808.92	213.58
809.24	213.67
809.56	213.65
809.88	213.57
810.20	213.53
810.52	213.56
810.84	213.55
811.16	213.46
811.48	213.43
811.80	213.46
812.12	213.48
812.43	213.42
812.75	213.46
813.07	213.42
813.39	213.42
813.71	213.43
814.03	213.41
814.35	213.50
814.67	213.34
814.98	213.23
815.30	213.16
815.62	213.13
815.94	212.96
816.26	212.94
816.58	212.88
816.89	212.92
817.21	212.84
817.53	212.83
817.85	212.82
818.17	212.84
818.48	212.79
818.80	212.88
819.12	212.88
819.44	212.86
819.76	212.82
820.07	212.80
820.39	212.73
820.71	212.79
821.03	212.83
821.34	212.79
821.66	212.81
821.98	212.84
822.30	212.85
822.61	213.00
822.93	212.95
823.25	212.97
823.57	212.86
823.88	212.90
824.20	212.85
824.52	212.90
824.83	212.86
825.15	212.84
825.47	212.73
825.79	212.71
826.10	212.67
826.42	212.64
826.74	212.65
827.05	212.67
827.37	212.63
827.69	212.56
828.00	212.64
828.32	212.58
828.64	212.52
828.95	212.57
829.27	212.47
829.58	212.46
829.90	212.46
830.22	212.53
830.53	212.48
830.85	212.54
831.17	212.48
831.48	212.42
831.80	212.41
832.11	212.40
832.43	212.40
832.75	212.43
833.06	212.57
833.38	212.50
833.69	212.48
834.01	212.43
834.32	212.47
834.64	212.39
834.96	212.48
835.27	212.52
835.59	212.42
835.90	212.39
836.22	212.36
836.53	212.30
836.85	212.22
837.16	212.37
837.48	212.34
837.79	212.39
838.11	212.43
838.42	212.39
838.74	212.39
839.05	212.32
839.37	212.23
839.68	212.12
840.00	212.10
840.31	212.09
840.63	212.09
840.94	212.04
841.26	212.05
841.57	212.00
841.88	211.96
842.20	211.90
842.51	211.90
842.83	211.91
843.14	212.05
843.46	212.09
843.77	211.98
844.08	211.98
844.40	211.92
844.71	211.86
845.03	211.82
845.34	211.85
845.65	211.89
845.97	211.85
846.28	211.84
846.60	211.88
846.91	211.87
847.22	211.87
847.54	211.90
847.85	211.86
848.16	211.84
848.48	211.86
848.79	212.00
849.10	212.00
849.42	212.02
849.73	211.87
850.04	211.86
850.36	211.83
850.67	211.78
850.98	211.80
851.30	211.85
851.61	211.87
851.92	211.76
852.23	211.80
852.55	211.89
852.86	211.83
853.17	211.80
853.49	211.80
853.80	211.82
854.11	211.82
854.42	211.80
854.74	211.77
855.05	211.74
855.36	211.60
855.67	211.53
855.99	211.53
856.30	211.73
856.61	211.70
856.92	211.65
857.23	211.65
857.55	211.63
857.86	211.58
858.17	211.65
858.48	211.69
858.79	211.67
859.11	211.70
859.42	211.74
859.73	211.68
860.04	211.66
860.35	211.62
860.66	211.55
860.98	211.59
861.29	211.61
861.60	211.64
861.91	211.69
862.22	211.75
862.53	211.68
862.84	211.45
863.16	211.53
863.47	211.55
863.78	211.59
864.09	211.55
864.40	211.59
864.71	211.52
865.02	211.54
865.33	211.51
865.64	211.48
865.95	211.48
866.27	211.64
866.58	211.67
866.89	211.71
867.20	211.72
867.51	211.71
867.82	211.68
868.13	211.67
868.44	211.64
868.75	211.57
869.06	211.60
869.37	211.61
869.68	211.57
869.99	211.63
870.30	211.58
870.61	211.61
870.92	211.59
871.23	211.60
871.54	211.58
871.85	211.60
872.16	211.53
872.47	211.50
872.78	211.35
873.09	211.40
873.40	211.36
873.71	211.34
874.02	211.39
874.33	211.40
874.64	211.37
874.95	211.42
875.26	211.41
875.56	211.43
875.87	211.54
876.18	211.49
876.49	211.59
876.80	211.64
877.11	211.64
877.42	211.66
877.73	211.67
878.04	211.66
878.35	211.61
878.66	211.66
878.96	211.69
879.27	211.76
879.58	211.67
879.89	211.60
880.20	211.60
880.51	211.58
880.82	211.49
881.12	211.48
881.43	211.44
881.74	211.45
882.05	211.43
882.36	211.39
882.67	211.39
882.97	211.26
883.28	211.21
883.59	211.19
883.90	211.14
884.21	211.20
884.51	211.17
884.82	211.25
885.13	211.27
885.44	211.18
885.74	211.10
886.05	211.11
886.36	211.16
886.67	211.14
886.98	211.22
887.28	211.30
887.59	211.29
887.90	211.26
888.20	211.18
888.51	211.17
888.82	211.11
889.13	211.13
889.43	211.25
889.74	211.26
890.05	211.24
890.35	211.34
890.66	211.25
890.97	211.28
891.28	211.19
891.58	211.14
891.89	211.24
892.20	211.28
892.50	211.27
892.81	211.26
893.12	211.28
893.42	211.16
893.73	211.19
894.04	211.17
894.34	211.25
894.65	211.35
894.95	211.28
895.26	211.29
895.57	211.33
895.87	211.16
896.18	211.16
896.48	211.16
896.79	211.01
897.10	211.06
897.40	211.01
897.71	210.99
898.01	211.05
898.32	211.01
898.63	210.90
898.93	210.92
899.24	210.92
899.54	210.97
899.85	211.00
900.15	210.96
900.46	210.97
900.76	210.89
901.07	210.90
901.38	210.92
901.68	210.97
901.99	210.91
902.29	210.87
902.60	210.85
902.90	210.81
903.21	210.84
903.51	210.81
903.82	210.88
904.12	210.88
904.43	210.84
904.73	210.87
905.03	211.02
905.34	211.16
905.64	211.13
905.95	211.05
906.25	211.04
906.56	211.08
906.86	211.10
907.17	211.19
907.47	211.18
907.77	211.23
908.08	211.17
908.38	211.16
908.69	211.22
908.99	211.23
909.30	211.25
909.60	211.30
909.90	211.25
910.21	211.18
910.51	211.15
910.81	211.09
911.12	211.03
911.42	211.02
911.73	210.92
912.03	210.96
912.33	210.95
912.64	210.89
912.94	210.86
913.24	210.84
913.55	210.73
913.85	210.67
914.15	210.67
914.46	210.69
914.76	210.66
915.06	210.70
915.37	210.69
915.67	210.70
915.97	210.69
916.27	210.70
916.58	210.72
916.88	210.68
917.18	210.65
917.49	210.79
917.79	210.71
918.09	210.69
918.39	210.72
918.70	210.79
919.00	210.81
919.30	210.81
919.60	210.74
919.91	210.72
920.21	210.74
920.51	210.69
920.81	210.71
921.12	210.74
921.42	210.69
921.72	210.65
922.02	210.63
922.32	210.62
922.63	210.63
922.93	210.74
923.23	210.81
923.53	210.78
923.83	210.71
924.13	210.77
924.44	210.75
924.74	210.78
925.04	210.78
925.34	210.81
925.64	210.76
925.94	210.75
926.24	210.88
926.55	210.91
926.85	210.94
927.15	210.89
927.45	210.90
927.75	210.85
928.05	210.91
928.35	210.90
928.65	211.01
928.95	211.05
929.26	210.90
929.56	210.93
929.86	211.01
930.16	210.95
930.46	210.91
930.76	210.92
931.06	210.90
931.36	210.81
931.66	210.78
931.96	210.77
932.26	210.81
932.56	210.68
932.86	210.66
933.16	210.67
933.46	210.65
933.76	210.60
934.06	210.70
934.36	210.74
934.66	210.80
934.96	210.71
935.26	210.75
935.56	210.85
935.86	210.81
936.16	210.77
936.46	210.77
936.76	210.80
937.06	210.77
937.36	210.71
937.66	210.74
937.96	210.80
938.26	210.84
938.56	210.90
938.86	210.97
939.16	211.01
939.46	211.05
939.76	211.08
940.06	211.15
940.35	211.06
940.65	210.99
940.95	210.99
941.25	210.93
941.55	210.80
941.85	210.73
942.15	210.78
942.45	210.81
942.75	210.80
943.04	210.87
943.34	210.90
943.64	210.90
943.94	210.93
944.24	210.94
944.54	210.89
944.84	210.84
945.13	210.83
945.43	210.85
945.73	210.85
946.03	210.82
946.33	210.69
946.62	210.71
946.92	210.71
947.22	210.74
947.52	210.77
947.82	210.93
948.11	210.94
948.41	210.88
948.71	210.91
949.01	210.92
949.31	210.87
949.60	210.84
949.90	210.87
950.20	210.88
950.50	210.83
950.79	210.88
951.09	210.88
951.39	210.86
951.69	210.81
951.98	210.85
952.28	210.87
952.58	210.98
952.87	210.98
953.17	211.00
953.47	210.90
953.76	210.92
954.06	210.77
954.36	210.72
954.66	210.75
954.95	210.79
955.25	210.80
955.55	210.78
955.84	210.71
956.14	210.68
956.44	210.64
956.73	210.64
957.03	210.65
957.32	210.61
957.62	210.65
957.92	210.69
958.21	210.59
958.51	210.89
958.81	210.93
959.10	210.95
959.40	210.97
959.69	211.05
959.99	211.08
960.29	211.19
960.58	211.20
960.88	211.29
961.17	211.21
961.47	211.26
961.76	211.29
962.06	211.41
962.36	211.44
962.65	211.52
962.95	211.53
963.24	211.53
963.54	211.62
963.83	211.67
964.13	211.64
964.42	211.66
964.72	211.42
965.01	211.41
965.31	211.38
965.60	211.35
965.90	211.48
966.19	211.41
966.49	211.41
966.78	211.39
967.08	211.33
967.37	211.41
967.67	211.37
967.96	211.45
968.26	211.46
968.55	211.54
968.85	211.51
969.14	211.52
969.43	211.49
969.73	211.49
970.02	211.45
970.32	211.46
970.61	211.41
970.91	211.32
971.20	211.25
971.49	211.26
971.79	211.33
972.08	211.20
972.38	211.25
972.67	211.28
972.96	211.33
973.26	211.30
973.55	211.33
973.85	211.30
974.14	211.27
974.43	211.17
974.73	211.07
975.02	211.01
975.31	211.03
975.61	211.09
975.90	211.05
976.19	211.01
976.49	211.02
976.78	211.03
977.07	211.10
977.37	211.09
977.66	211.11
977.95	211.04
978.24	211.03
978.54	211.09
978.83	210.99
979.12	211.01
979.42	211.00
979.71	210.99
980.00	210.98
980.29	210.96
980.59	210.99
980.88	210.97
981.17	210.96
981.46	210.92
981.76	210.89
982.05	210.85
982.34	210.92
982.63	210.87
982.93	210.88
983.22	210.95
983.51	210.97
983.80	210.95
984.09	210.96
984.39	210.98
984.68	210.90
984.97	210.95
985.26	210.92
985.55	210.92
985.85	210.75
986.14	210.78
986.43	210.75
986.72	210.68
987.01	210.62
987.30	210.61
987.59	210.57
987.89	210.53
988.18	210.53
988.47	210.48
988.76	210.53
989.05	210.55
989.34	210.42
989.63	210.45
989.92	210.41
990.22	210.40
990.51	210.33
990.80	210.33
991.09	210.31
991.38	210.33
991.67	210.33
991.96	210.35
992.25	210.30
992.54	210.28
992.83	210.35
993.12	210.45
993.41	210.60
993.70	210.67
993.99	210.70
994.28	210.70
994.58	210.70
994.87	210.66
995.16	210.66
995.45	210.69
995.74	210.57
996.03	210.58
996.32	210.60
996.61	210.67
996.90	210.62
997.19	210.57
997.48	210.59
997.77	210.59
998.06	210.65
998.34	210.68
998.63	210.67
998.92	210.72
999.21	210.69
999.50	210.60
999.79	210.51
1000.08	210.54
1000.37	210.59
1000.66	210.63
1000.95	210.69
1001.24	210.65
1001.53	210.67
1001.82	210.75
1002.11	210.69
1002.40	210.70
1002.68	210.75
1002.97	210.90
1003.26	210.92
1003.55	210.86
1003.84	210.88
1004.13	210.90
1004.42	210.92
1004.71	210.91
1004.99	210.84
1005.28	210.86
1005.57	210.86
1005.86	210.82
1006.15	210.81
1006.44	210.75
1006.72	210.70
1007.01	210.60
1007.30	210.65
1007.59	210.62
1007.88	210.60
1008.17	210.65
1008.45	210.61
1008.74	210.48
1009.03	210.37
1009.32	210.36
1009.60	210.36
1009.89	210.34
1010.18	210.26
1010.47	210.23
1010.76	210.23
1011.04	210.19
1011.33	210.28
1011.62	210.25
1011.91	210.39
1012.19	210.43
1012.48	210.46
1012.77	210.46
1013.05	210.52
1013.34	210.51
1013.63	210.55
1013.92	210.57
1014.20	210.62
1014.49	210.62
1014.78	210.66
1015.06	210.66
1015.35	210.65
1015.64	210.68
1015.92	210.69
1016.21	210.80
1016.50	210.86
1016.78	210.92
1017.07	210.93
1017.36	210.80
1017.64	210.75
1017.93	210.67
1018.22	210.59
1018.50	210.57
1018.79	210.59
1019.08	210.60
1019.36	210.64
1019.65	210.61
1019.93	210.65
1020.22	210.68
1020.51	210.74
1020.79	210.76
1021.08	210.10
1021.36	210.35
1021.65	210.60
1021.94	211.45
1022.22	211.50
1022.51	210.40
1022.79	211.65
1023.08	212.05
1023.36	211.95
1023.65	210.50
>>>>>End Processed Spectral Data<<<<<
