SpectraSuite Data File
++++++++++++++++++++++++++++++++++++
Date: Mon Feb 25 17:30:28 EST 2013
User: group
Dark Spectrum Present: No
Reference Spectrum Present: No
Number of Sampled Component Spectra: 1
Spectrometers: USB2E7196
Integration Time (usec): 52000 (USB2E7196)
Spectra Averaged: 20 (USB2E7196)
Boxcar Smoothing: 10 (USB2E7196)
Correct for Electrical Dark: No (USB2E7196)
Strobe/Lamp Enabled: No (USB2E7196)
Correct for Detector Non-linearity: No (USB2E7196)
Correct for Stray Light: No (USB2E7196)
Number of Pixels in Processed Spectrum: 2048
>>>>>Begin Processed Spectral Data<<<<<
339.09	0.00
339.48	200.30
339.86	201.45
340.24	202.15
340.63	203.20
341.01	207.20
341.39	206.15
341.78	208.05
342.16	208.35
342.54	209.55
342.93	198.64
343.31	208.70
343.69	209.17
344.07	209.63
344.46	210.10
344.84	210.57
345.22	210.79
345.60	211.07
345.99	211.28
346.37	211.45
346.75	211.55
347.13	211.59
347.52	211.70
347.90	211.77
348.28	211.80
348.66	211.82
349.05	211.91
349.43	212.00
349.81	211.99
350.19	211.99
350.57	212.14
350.96	212.18
351.34	212.33
351.72	212.45
352.10	212.51
352.48	212.49
352.87	212.45
353.25	212.46
353.63	212.47
354.01	212.48
354.39	212.57
354.77	212.61
355.15	212.72
355.54	212.75
355.92	212.69
356.30	212.83
356.68	212.96
357.06	212.98
357.44	212.93
357.82	212.91
358.20	213.00
358.58	212.98
358.97	213.06
359.35	213.00
359.73	213.08
360.11	213.14
360.49	213.17
360.87	213.24
361.25	213.32
361.63	213.42
362.01	213.42
362.39	213.37
362.77	213.46
363.15	213.47
363.53	213.57
363.91	213.70
364.29	213.62
364.67	213.51
365.05	213.51
365.43	213.54
365.81	213.59
366.19	213.66
366.57	213.69
366.95	213.70
367.33	213.75
367.71	213.67
368.09	213.68
368.47	213.65
368.85	213.65
369.23	213.60
369.61	213.46
369.99	213.52
370.37	213.57
370.75	213.54
371.13	213.45
371.51	213.29
371.89	213.24
372.27	213.26
372.65	213.20
373.03	213.13
373.41	213.11
373.78	213.07
374.16	212.89
374.54	212.81
374.92	212.72
375.30	212.65
375.68	212.57
376.06	212.48
376.44	212.47
376.82	212.35
377.19	212.35
377.57	212.37
377.95	212.28
378.33	212.21
378.71	212.13
379.09	212.15
379.47	212.16
379.84	212.04
380.22	211.97
380.60	211.91
380.98	211.90
381.36	211.82
381.73	211.70
382.11	211.78
382.49	211.74
382.87	211.69
383.25	211.55
383.62	211.72
384.00	211.66
384.38	211.63
384.76	211.68
385.13	211.72
385.51	211.70
385.89	211.66
386.27	211.60
386.64	211.54
387.02	211.47
387.40	211.50
387.78	211.54
388.15	211.55
388.53	211.47
388.91	211.49
389.29	211.50
389.66	211.55
390.04	211.50
390.42	211.56
390.79	211.50
391.17	211.57
391.55	211.45
391.92	211.40
392.30	211.39
392.68	211.38
393.05	211.38
393.43	211.37
393.81	211.37
394.18	211.40
394.56	211.43
394.94	211.50
395.31	211.36
395.69	211.43
396.06	211.47
396.44	211.54
396.82	211.51
397.19	211.60
397.57	211.60
397.95	211.53
398.32	211.45
398.70	211.52
399.07	211.61
399.45	211.59
399.82	211.72
400.20	211.75
400.58	211.74
400.95	211.72
401.33	211.77
401.70	211.95
402.08	212.03
402.45	212.11
402.83	212.28
403.20	212.42
403.58	212.50
403.95	212.58
404.33	212.75
404.71	212.87
405.08	213.08
405.46	213.24
405.83	213.47
406.21	213.63
406.58	213.79
406.96	213.86
407.33	214.00
407.70	214.12
408.08	214.48
408.45	214.72
408.83	214.93
409.20	215.16
409.58	215.29
409.95	215.57
410.33	215.84
410.70	216.01
411.08	216.39
411.45	216.67
411.82	216.98
412.20	217.32
412.57	217.84
412.95	218.07
413.32	218.52
413.69	219.00
414.07	219.54
414.44	220.10
414.82	220.74
415.19	221.47
415.56	222.25
415.94	222.88
416.31	223.73
416.68	224.60
417.06	225.54
417.43	226.37
417.81	227.42
418.18	228.46
418.55	229.61
418.93	230.79
419.30	232.07
419.67	233.49
420.04	234.97
420.42	236.40
420.79	238.18
421.16	239.89
421.54	241.69
421.91	243.40
422.28	245.31
422.66	247.32
423.03	249.29
423.40	251.30
423.77	253.52
424.15	255.68
424.52	257.97
424.89	260.51
425.26	262.99
425.64	265.29
426.01	267.75
426.38	270.37
426.75	273.11
427.13	275.93
427.50	278.77
427.87	281.74
428.24	284.68
428.61	287.55
428.99	290.64
429.36	293.97
429.73	297.46
430.10	300.85
430.47	304.33
430.85	307.88
431.22	311.70
431.59	315.71
431.96	319.54
432.33	323.75
432.70	327.89
433.08	332.68
433.45	337.16
433.82	341.70
434.19	346.70
434.56	351.55
434.93	356.19
435.30	360.88
435.68	365.87
436.05	370.90
436.42	375.87
436.79	380.51
437.16	385.52
437.53	390.65
437.90	395.65
438.27	400.61
438.64	405.80
439.01	410.60
439.38	414.91
439.75	419.09
440.13	423.79
440.50	428.10
440.87	431.69
441.24	435.45
441.61	439.67
441.98	442.68
442.35	446.15
442.72	449.70
443.09	453.05
443.46	455.21
443.83	456.52
444.20	457.58
444.57	459.34
444.94	459.90
445.31	460.79
445.68	461.67
446.05	461.81
446.42	461.17
446.79	460.36
447.16	459.46
447.53	458.85
447.90	456.80
448.27	454.82
448.64	452.01
449.01	449.90
449.37	446.31
449.74	442.89
450.11	439.00
450.48	434.61
450.85	430.19
451.22	426.28
451.59	422.75
451.96	419.36
452.33	414.67
452.70	410.65
453.07	405.55
453.43	400.39
453.80	395.65
454.17	391.05
454.54	386.69
454.91	382.04
455.28	377.49
455.65	373.20
456.02	369.01
456.38	365.46
456.75	360.95
457.12	357.22
457.49	353.47
457.86	349.76
458.23	346.69
458.59	343.29
458.96	339.91
459.33	336.87
459.70	333.77
460.07	331.40
460.43	328.52
460.80	325.97
461.17	323.71
461.54	321.31
461.91	319.03
462.27	316.80
462.64	314.76
463.01	312.58
463.38	310.55
463.74	308.38
464.11	306.50
464.48	304.99
464.85	303.20
465.21	301.96
465.58	300.60
465.95	298.88
466.32	297.46
466.68	296.05
467.05	294.67
467.42	293.39
467.78	291.98
468.15	290.77
468.52	289.80
468.88	288.55
469.25	287.42
469.62	286.58
469.98	285.66
470.35	284.80
470.72	283.90
471.08	283.00
471.45	282.18
471.82	281.51
472.18	280.67
472.55	280.12
472.92	279.46
473.28	278.78
473.65	278.22
474.02	277.76
474.38	277.47
474.75	277.13
475.11	276.78
475.48	276.47
475.85	276.22
476.21	276.03
476.58	275.91
476.94	275.93
477.31	275.92
477.67	275.88
478.04	276.02
478.41	276.23
478.77	276.57
479.14	276.73
479.50	276.94
479.87	277.35
480.23	277.78
480.60	278.19
480.96	278.67
481.33	279.30
481.69	279.83
482.06	280.35
482.42	281.01
482.79	281.83
483.15	282.74
483.52	283.79
483.88	284.70
484.25	285.70
484.61	286.72
484.98	287.71
485.34	288.97
485.71	290.19
486.07	291.51
486.44	292.77
486.80	294.40
487.17	296.03
487.53	297.80
487.90	299.60
488.26	301.43
488.62	303.49
488.99	305.51
489.35	307.69
489.72	310.01
490.08	312.34
490.44	314.65
490.81	317.22
491.17	319.78
491.54	322.63
491.90	325.65
492.26	328.85
492.63	332.27
492.99	335.62
493.36	339.38
493.72	343.34
494.08	347.28
494.45	351.59
494.81	356.17
495.17	360.69
495.54	365.56
495.90	370.65
496.26	375.76
496.63	381.25
496.99	387.00
497.35	392.99
497.72	399.33
498.08	405.90
498.44	412.64
498.80	419.72
499.17	427.20
499.53	434.79
499.89	442.75
500.26	450.80
500.62	459.14
500.98	467.74
501.34	476.74
501.71	486.20
502.07	495.71
502.43	505.48
502.79	515.56
503.16	526.07
503.52	536.78
503.88	547.95
504.24	559.34
504.60	571.08
504.97	583.23
505.33	595.55
505.69	608.58
506.05	621.79
506.41	635.24
506.78	648.79
507.14	662.66
507.50	676.94
507.86	691.68
508.22	706.95
508.59	722.32
508.95	737.92
509.31	753.71
509.67	769.96
510.03	786.62
510.39	803.82
510.75	821.38
511.12	839.14
511.48	857.23
511.84	875.54
512.20	893.84
512.56	912.83
512.92	932.18
513.28	951.57
513.64	971.20
514.00	990.97
514.37	1010.98
514.73	1031.58
515.09	1052.08
515.45	1072.49
515.81	1093.32
516.17	1114.31
516.53	1135.28
516.89	1156.57
517.25	1177.90
517.61	1199.02
517.97	1220.35
518.33	1241.18
518.69	1262.64
519.05	1284.39
519.41	1306.06
519.77	1328.31
520.13	1349.70
520.49	1371.13
520.85	1392.99
521.21	1414.90
521.57	1437.35
521.93	1458.68
522.29	1480.72
522.65	1502.75
523.01	1524.86
523.37	1546.27
523.73	1568.04
524.09	1590.07
524.45	1611.99
524.81	1633.88
525.17	1655.98
525.53	1677.90
525.89	1700.01
526.25	1721.33
526.61	1741.98
526.97	1763.44
527.33	1784.27
527.68	1805.28
528.04	1825.95
528.40	1845.83
528.76	1865.86
529.12	1885.68
529.48	1907.11
529.84	1927.39
530.20	1947.15
530.56	1966.89
530.91	1987.07
531.27	2006.63
531.63	2025.89
531.99	2045.00
532.35	2063.57
532.71	2081.58
533.07	2100.22
533.42	2118.04
533.78	2136.57
534.14	2154.52
534.50	2171.14
534.86	2188.36
535.21	2204.85
535.57	2221.89
535.93	2238.78
536.29	2255.12
536.65	2271.07
537.00	2285.63
537.36	2299.94
537.72	2314.93
538.08	2329.62
538.44	2344.27
538.79	2359.07
539.15	2373.25
539.51	2387.22
539.87	2401.74
540.22	2415.92
540.58	2430.05
540.94	2444.06
541.29	2456.16
541.65	2468.01
542.01	2480.58
542.37	2491.83
542.72	2503.35
543.08	2513.98
543.44	2525.07
543.79	2534.52
544.15	2544.27
544.51	2554.78
544.87	2565.19
545.22	2573.61
545.58	2581.71
545.94	2588.49
546.29	2594.66
546.65	2600.50
547.01	2606.41
547.36	2611.73
547.72	2616.91
548.07	2620.48
548.43	2623.41
548.79	2626.98
549.14	2631.05
549.50	2635.15
549.86	2638.80
550.21	2642.41
550.57	2646.18
550.92	2648.47
551.28	2651.43
551.64	2653.68
551.99	2655.63
552.35	2656.67
552.70	2658.85
553.06	2661.18
553.41	2663.98
553.77	2666.76
554.13	2668.57
554.48	2670.11
554.84	2671.25
555.19	2671.94
555.55	2672.09
555.90	2672.55
556.26	2672.88
556.61	2672.32
556.97	2670.53
557.32	2669.73
557.68	2667.79
558.03	2665.95
558.39	2664.23
558.74	2663.26
559.10	2661.72
559.45	2659.59
559.81	2658.63
560.16	2656.18
560.52	2653.62
560.87	2650.43
561.23	2646.32
561.58	2644.00
561.94	2640.60
562.29	2636.80
562.64	2634.11
563.00	2631.48
563.35	2629.38
563.71	2627.30
564.06	2625.34
564.42	2623.24
564.77	2620.60
565.12	2618.92
565.48	2615.56
565.83	2612.45
566.19	2609.00
566.54	2604.93
566.89	2601.01
567.25	2596.81
567.60	2593.36
567.96	2589.78
568.31	2586.25
568.66	2582.43
569.02	2577.55
569.37	2572.40
569.72	2568.49
570.08	2563.02
570.43	2557.66
570.78	2551.95
571.14	2545.86
571.49	2539.00
571.84	2533.31
572.20	2526.47
572.55	2519.80
572.90	2513.24
573.26	2506.43
573.61	2498.98
573.96	2492.42
574.31	2484.93
574.67	2476.94
575.02	2468.67
575.37	2459.97
575.72	2450.91
576.08	2443.36
576.43	2435.48
576.78	2427.88
577.13	2419.80
577.49	2411.54
577.84	2403.71
578.19	2396.15
578.54	2388.79
578.90	2382.29
579.25	2373.67
579.60	2365.27
579.95	2355.90
580.30	2348.17
580.66	2340.32
581.01	2332.10
581.36	2323.11
581.71	2315.34
582.06	2307.25
582.42	2299.22
582.77	2290.53
583.12	2282.03
583.47	2273.53
583.82	2264.95
584.17	2256.00
584.53	2247.23
584.88	2239.10
585.23	2230.36
585.58	2221.19
585.93	2211.66
586.28	2202.73
586.63	2194.32
586.98	2186.44
587.34	2178.57
587.69	2169.67
588.04	2160.65
588.39	2152.34
588.74	2143.63
589.09	2135.12
589.44	2126.01
589.79	2117.52
590.14	2109.86
590.49	2101.93
590.84	2093.44
591.19	2085.63
591.54	2077.77
591.89	2067.93
592.25	2058.81
592.60	2049.87
592.95	2040.98
593.30	2031.88
593.65	2022.29
594.00	2012.82
594.35	2004.40
594.70	1995.83
595.05	1987.27
595.40	1978.89
595.75	1969.82
596.10	1962.04
596.45	1953.66
596.80	1946.01
597.15	1938.00
597.50	1929.01
597.85	1920.95
598.19	1912.24
598.54	1904.05
598.89	1896.04
599.24	1889.53
599.59	1882.60
599.94	1875.69
600.29	1867.75
600.64	1860.45
600.99	1852.45
601.34	1845.57
601.69	1837.37
602.04	1829.34
602.39	1821.61
602.74	1814.06
603.08	1807.82
603.43	1800.85
603.78	1793.09
604.13	1785.19
604.48	1777.78
604.83	1771.44
605.18	1764.22
605.53	1757.10
605.87	1749.54
606.22	1742.64
606.57	1735.34
606.92	1727.48
607.27	1719.65
607.62	1712.97
607.96	1705.96
608.31	1700.28
608.66	1692.71
609.01	1685.24
609.36	1677.91
609.70	1670.33
610.05	1662.75
610.40	1654.53
610.75	1646.35
611.10	1638.81
611.44	1630.10
611.79	1621.13
612.14	1611.81
612.49	1602.77
612.83	1594.39
613.18	1585.18
613.53	1576.03
613.88	1566.66
614.22	1558.14
614.57	1549.11
614.92	1539.97
615.27	1531.00
615.61	1521.28
615.96	1512.49
616.31	1504.07
616.65	1496.24
617.00	1488.19
617.35	1479.93
617.70	1471.40
618.04	1462.69
618.39	1453.73
618.74	1445.79
619.08	1437.59
619.43	1429.70
619.78	1422.10
620.12	1414.18
620.47	1406.54
620.82	1398.28
621.16	1390.24
621.51	1381.91
621.85	1373.93
622.20	1365.75
622.55	1357.76
622.89	1349.55
623.24	1341.82
623.59	1333.65
623.93	1325.23
624.28	1317.11
624.62	1308.97
624.97	1300.95
625.32	1293.40
625.66	1286.25
626.01	1279.20
626.35	1272.13
626.70	1264.56
627.04	1257.31
627.39	1249.93
627.73	1242.70
628.08	1236.16
628.43	1229.14
628.77	1222.24
629.12	1214.95
629.46	1208.47
629.81	1201.45
630.15	1194.58
630.50	1187.32
630.84	1180.43
631.19	1173.74
631.53	1167.00
631.88	1159.80
632.22	1152.64
632.57	1145.90
632.91	1138.80
633.26	1131.59
633.60	1124.52
633.95	1118.09
634.29	1110.87
634.64	1104.11
634.98	1097.20
635.32	1090.16
635.67	1083.86
636.01	1077.12
636.36	1070.66
636.70	1064.18
637.05	1057.67
637.39	1051.31
637.73	1045.37
638.08	1039.62
638.42	1033.61
638.77	1027.31
639.11	1021.43
639.45	1015.49
639.80	1009.01
640.14	1002.68
640.49	996.60
640.83	990.48
641.17	984.32
641.52	978.57
641.86	972.42
642.20	966.60
642.55	960.17
642.89	953.64
643.23	947.42
643.58	941.65
643.92	935.18
644.26	929.11
644.61	923.29
644.95	917.36
645.29	911.09
645.64	904.66
645.98	898.73
646.32	892.70
646.66	886.73
647.01	880.95
647.35	875.30
647.69	869.04
648.04	863.31
648.38	857.36
648.72	851.45
649.06	845.65
649.41	839.58
649.75	833.93
650.09	828.32
650.43	822.60
650.78	816.73
651.12	810.88
651.46	805.26
651.80	799.41
652.14	793.59
652.49	787.86
652.83	782.39
653.17	776.65
653.51	771.22
653.85	765.61
654.20	759.94
654.54	754.24
654.88	749.24
655.22	743.63
655.56	738.16
655.90	732.52
656.25	726.96
656.59	721.69
656.93	716.59
657.27	711.55
657.61	706.28
657.95	701.19
658.29	696.28
658.64	691.51
658.98	686.53
659.32	681.29
659.66	676.31
660.00	671.14
660.34	665.93
660.68	660.70
661.02	655.86
661.36	651.29
661.70	646.61
662.05	641.63
662.39	637.52
662.73	633.18
663.07	629.00
663.41	624.72
663.75	620.29
664.09	615.79
664.43	611.20
664.77	606.88
665.11	602.60
665.45	598.25
665.79	593.71
666.13	589.44
666.47	585.31
666.81	581.31
667.15	577.41
667.49	573.69
667.83	569.78
668.17	566.02
668.51	562.26
668.85	558.48
669.19	555.11
669.53	550.97
669.87	546.90
670.21	543.15
670.55	539.39
670.89	536.09
671.23	532.76
671.57	529.41
671.91	526.05
672.25	522.64
672.58	519.40
672.92	516.08
673.26	512.96
673.60	509.90
673.94	506.58
674.28	503.37
674.62	500.29
674.96	497.51
675.30	494.45
675.64	491.25
675.97	488.16
676.31	485.18
676.65	482.40
676.99	479.87
677.33	476.95
677.67	474.16
678.01	471.04
678.34	468.14
678.68	465.26
679.02	462.50
679.36	459.64
679.70	456.93
680.04	454.27
680.37	451.39
680.71	448.70
681.05	446.24
681.39	443.58
681.73	440.96
682.06	438.37
682.40	435.89
682.74	433.47
683.08	431.01
683.42	428.50
683.75	426.09
684.09	423.45
684.43	421.01
684.77	418.45
685.10	416.01
685.44	413.55
685.78	411.20
686.12	408.93
686.45	406.71
686.79	404.35
687.13	402.10
687.46	400.04
687.80	397.97
688.14	395.54
688.48	393.49
688.81	391.29
689.15	389.10
689.49	386.91
689.82	384.67
690.16	382.43
690.50	380.21
690.83	378.00
691.17	375.91
691.51	373.90
691.84	371.92
692.18	370.03
692.52	368.19
692.85	366.42
693.19	364.53
693.52	362.77
693.86	360.81
694.20	359.04
694.53	357.25
694.87	355.33
695.21	353.54
695.54	351.57
695.88	349.68
696.21	347.92
696.55	346.20
696.88	344.59
697.22	342.98
697.56	341.45
697.89	339.84
698.23	338.38
698.56	336.87
698.90	335.41
699.23	333.83
699.57	332.27
699.90	330.60
700.24	329.03
700.58	327.40
700.91	326.00
701.25	324.66
701.58	323.19
701.92	321.78
702.25	320.47
702.59	319.23
702.92	317.97
703.26	316.67
703.59	315.57
703.93	314.43
704.26	313.29
704.60	312.01
704.93	310.87
705.26	309.63
705.60	308.34
705.93	307.10
706.27	306.02
706.60	304.97
706.94	303.93
707.27	302.78
707.61	301.75
707.94	300.70
708.27	299.46
708.61	298.37
708.94	297.27
709.28	296.20
709.61	294.99
709.94	294.02
710.28	292.97
710.61	291.86
710.95	290.66
711.28	289.73
711.61	288.77
711.95	287.76
712.28	286.71
712.61	285.77
712.95	284.92
713.28	284.15
713.61	283.13
713.95	282.23
714.28	281.35
714.61	280.35
714.95	279.46
715.28	278.55
715.61	277.62
715.95	276.71
716.28	275.83
716.61	275.12
716.95	274.26
717.28	273.38
717.61	272.55
717.94	271.85
718.28	270.95
718.61	270.14
718.94	269.38
719.27	268.62
719.61	267.89
719.94	267.17
720.27	266.28
720.60	265.54
720.94	264.84
721.27	264.23
721.60	263.58
721.93	262.92
722.27	262.35
722.60	261.75
722.93	261.15
723.26	260.58
723.59	259.95
723.93	259.30
724.26	258.80
724.59	258.20
724.92	257.57
725.25	256.98
725.59	256.39
725.92	255.88
726.25	255.35
726.58	254.86
726.91	254.29
727.24	253.74
727.57	253.30
727.91	252.77
728.24	252.30
728.57	251.85
728.90	251.41
729.23	250.87
729.56	250.54
729.89	250.09
730.22	249.65
730.55	249.20
730.89	248.77
731.22	248.33
731.55	247.91
731.88	247.41
732.21	247.08
732.54	246.64
732.87	246.20
733.20	245.84
733.53	245.47
733.86	245.08
734.19	244.74
734.52	244.32
734.85	244.03
735.18	243.53
735.51	243.19
735.84	242.82
736.17	242.49
736.50	242.00
736.83	241.85
737.16	241.47
737.49	241.19
737.82	240.87
738.15	240.47
738.48	240.11
738.81	239.86
739.14	239.45
739.47	239.06
739.80	238.77
740.13	238.40
740.46	238.01
740.79	237.70
741.12	237.38
741.45	237.06
741.78	236.65
742.11	236.47
742.44	236.19
742.77	235.90
743.10	235.62
743.43	235.33
743.75	234.81
744.08	234.77
744.41	234.40
744.74	234.13
745.07	233.84
745.40	233.64
745.73	233.56
746.06	233.34
746.39	233.21
746.71	232.92
747.04	232.72
747.37	232.40
747.70	232.16
748.03	231.92
748.36	231.73
748.68	231.50
749.01	231.25
749.34	231.01
749.67	230.77
750.00	230.63
750.33	230.55
750.65	230.45
750.98	230.03
751.31	229.84
751.64	229.59
751.97	229.49
752.29	229.23
752.62	228.79
752.95	228.52
753.28	228.24
753.60	227.98
753.93	227.81
754.26	227.63
754.59	227.46
754.91	227.22
755.24	227.04
755.57	226.94
755.90	226.72
756.22	226.51
756.55	226.31
756.88	226.02
757.20	225.71
757.53	225.46
757.86	225.25
758.19	225.10
758.51	224.97
758.84	224.77
759.17	224.65
759.49	224.57
759.82	224.50
760.15	224.35
760.47	224.21
760.80	223.95
761.13	223.88
761.45	223.71
761.78	223.60
762.11	223.35
762.43	223.10
762.76	222.97
763.08	222.86
763.41	222.74
763.74	222.62
764.06	222.46
764.39	222.23
764.71	222.12
765.04	221.92
765.37	221.82
765.69	221.65
766.02	221.45
766.34	221.30
766.67	221.16
767.00	221.10
767.32	221.10
767.65	221.14
767.97	220.95
768.30	220.78
768.62	220.64
768.95	220.60
769.27	220.54
769.60	220.41
769.92	220.22
770.25	220.13
770.57	219.95
770.90	219.89
771.22	219.84
771.55	219.78
771.87	219.72
772.20	219.50
772.52	219.52
772.85	219.68
773.17	219.59
773.50	219.41
773.82	219.35
774.15	219.14
774.47	218.93
774.80	218.84
775.12	218.75
775.45	218.64
775.77	218.48
776.09	218.34
776.42	218.25
776.74	218.28
777.07	218.18
777.39	218.11
777.72	218.00
778.04	217.86
778.36	217.75
778.69	217.65
779.01	217.68
779.33	217.44
779.66	217.20
779.98	217.17
780.31	217.15
780.63	217.11
780.95	217.12
781.28	217.03
781.60	216.96
781.92	216.98
782.25	216.91
782.57	216.90
782.89	216.85
783.22	216.82
783.54	216.62
783.86	216.54
784.19	216.59
784.51	216.58
784.83	216.58
785.16	216.54
785.48	216.54
785.80	216.45
786.12	216.46
786.45	216.37
786.77	216.28
787.09	216.24
787.42	216.16
787.74	216.12
788.06	216.09
788.38	216.06
788.71	215.99
789.03	216.04
789.35	215.98
789.67	215.92
789.99	215.88
790.32	215.86
790.64	215.89
790.96	215.92
791.28	215.84
791.61	215.81
791.93	215.72
792.25	215.62
792.57	215.73
792.89	215.62
793.21	215.55
793.54	215.51
793.86	215.40
794.18	215.38
794.50	215.27
794.82	215.24
795.14	215.21
795.47	215.20
795.79	215.11
796.11	215.07
796.43	214.99
796.75	214.88
797.07	214.86
797.39	214.74
797.71	214.58
798.04	214.50
798.36	214.45
798.68	214.45
799.00	214.45
799.32	214.30
799.64	214.26
799.96	214.28
800.28	214.27
800.60	214.23
800.92	214.11
801.24	214.10
801.56	214.12
801.89	214.00
802.21	213.94
802.53	213.92
802.85	213.98
803.17	214.14
803.49	214.11
803.81	214.08
804.13	214.09
804.45	214.03
804.77	214.05
805.09	214.03
805.41	213.92
805.73	213.87
806.05	213.81
806.37	213.83
806.69	213.81
807.01	213.77
807.33	213.83
807.65	213.77
807.97	213.80
808.28	213.73
808.60	213.77
808.92	213.78
809.24	213.80
809.56	213.71
809.88	213.56
810.20	213.53
810.52	213.52
810.84	213.42
811.16	213.37
811.48	213.33
811.80	213.36
812.12	213.42
812.43	213.42
812.75	213.42
813.07	213.37
813.39	213.31
813.71	213.22
814.03	213.15
814.35	213.14
814.67	213.03
814.98	212.92
815.30	212.94
815.62	212.81
815.94	212.71
816.26	212.65
816.58	212.58
816.89	212.64
817.21	212.58
817.53	212.64
817.85	212.69
818.17	212.75
818.48	212.66
818.80	212.64
819.12	212.59
819.44	212.50
819.76	212.48
820.07	212.51
820.39	212.54
820.71	212.60
821.03	212.58
821.34	212.55
821.66	212.61
821.98	212.66
822.30	212.71
822.61	212.77
822.93	212.80
823.25	212.80
823.57	212.76
823.88	212.83
824.20	212.80
824.52	212.75
824.83	212.68
825.15	212.65
825.47	212.65
825.79	212.74
826.10	212.70
826.42	212.75
826.74	212.78
827.05	212.76
827.37	212.71
827.69	212.75
828.00	212.83
828.32	212.80
828.64	212.71
828.95	212.80
829.27	212.76
829.58	212.75
829.90	212.78
830.22	212.79
830.53	212.72
830.85	212.68
831.17	212.65
831.48	212.62
831.80	212.70
832.11	212.61
832.43	212.53
832.75	212.58
833.06	212.63
833.38	212.50
833.69	212.50
834.01	212.46
834.32	212.47
834.64	212.37
834.96	212.36
835.27	212.37
835.59	212.31
835.90	212.25
836.22	212.20
836.53	212.17
836.85	212.11
837.16	212.28
837.48	212.31
837.79	212.34
838.11	212.40
838.42	212.36
838.74	212.40
839.05	212.41
839.37	212.40
839.68	212.24
840.00	212.21
840.31	212.19
840.63	212.16
840.94	212.09
841.26	212.14
841.57	212.16
841.88	212.20
842.20	212.15
842.51	212.15
842.83	212.24
843.14	212.38
843.46	212.42
843.77	212.37
844.08	212.37
844.40	212.31
844.71	212.29
845.03	212.27
845.34	212.30
845.65	212.28
845.97	212.33
846.28	212.34
846.60	212.37
846.91	212.41
847.22	212.42
847.54	212.52
847.85	212.50
848.16	212.47
848.48	212.43
848.79	212.43
849.10	212.45
849.42	212.41
849.73	212.28
850.04	212.28
850.36	212.15
850.67	212.16
850.98	212.19
851.30	212.16
851.61	212.15
851.92	212.09
852.23	212.08
852.55	212.05
852.86	212.04
853.17	212.15
853.49	212.16
853.80	212.19
854.11	212.19
854.42	212.17
854.74	212.27
855.05	212.30
855.36	212.19
855.67	212.24
855.99	212.20
856.30	212.40
856.61	212.41
856.92	212.45
857.23	212.41
857.55	212.37
857.86	212.34
858.17	212.37
858.48	212.37
858.79	212.42
859.11	212.40
859.42	212.42
859.73	212.35
860.04	212.34
860.35	212.22
860.66	212.13
860.98	212.09
861.29	211.96
861.60	211.89
861.91	211.97
862.22	211.92
862.53	211.87
862.84	211.60
863.16	211.61
863.47	211.54
863.78	211.49
864.09	211.50
864.40	211.47
864.71	211.46
865.02	211.42
865.33	211.27
865.64	211.27
865.95	211.25
866.27	211.32
866.58	211.26
866.89	211.32
867.20	211.26
867.51	211.25
867.82	211.22
868.13	211.27
868.44	211.21
868.75	211.23
869.06	211.26
869.37	211.31
869.68	211.25
869.99	211.27
870.30	211.29
870.61	211.32
870.92	211.32
871.23	211.29
871.54	211.36
871.85	211.44
872.16	211.46
872.47	211.50
872.78	211.39
873.09	211.37
873.40	211.34
873.71	211.38
874.02	211.42
874.33	211.43
874.64	211.34
874.95	211.47
875.26	211.43
875.56	211.38
875.87	211.34
876.18	211.28
876.49	211.45
876.80	211.47
877.11	211.43
877.42	211.43
877.73	211.39
878.04	211.35
878.35	211.36
878.66	211.31
878.96	211.25
879.27	211.20
879.58	211.20
879.89	211.20
880.20	211.25
880.51	211.25
880.82	211.27
881.12	211.27
881.43	211.17
881.74	211.13
882.05	211.15
882.36	211.22
882.67	211.33
882.97	211.12
883.28	211.13
883.59	211.08
883.90	211.12
884.21	211.20
884.51	211.22
884.82	211.19
885.13	211.24
885.44	211.20
885.74	211.30
886.05	211.35
886.36	211.34
886.67	211.29
886.98	211.37
887.28	211.35
887.59	211.43
887.90	211.47
888.20	211.50
888.51	211.58
888.82	211.52
889.13	211.50
889.43	211.65
889.74	211.60
890.05	211.62
890.35	211.61
890.66	211.54
890.97	211.46
891.28	211.44
891.58	211.39
891.89	211.48
892.20	211.45
892.50	211.39
892.81	211.30
893.12	211.26
893.42	211.15
893.73	211.15
894.04	211.07
894.34	211.02
894.65	211.02
894.95	211.00
895.26	211.01
895.57	211.08
895.87	210.90
896.18	210.95
896.48	210.99
896.79	210.95
897.10	210.99
897.40	211.02
897.71	211.06
898.01	211.01
898.32	211.02
898.63	210.96
898.93	211.00
899.24	211.09
899.54	211.12
899.85	211.15
900.15	211.18
900.46	211.22
900.76	211.30
901.07	211.25
901.38	211.25
901.68	211.24
901.99	211.14
902.29	211.22
902.60	211.27
902.90	211.26
903.21	211.28
903.51	211.28
903.82	211.31
904.12	211.34
904.43	211.47
904.73	211.35
905.03	211.39
905.34	211.54
905.64	211.50
905.95	211.49
906.25	211.49
906.56	211.51
906.86	211.56
907.17	211.51
907.47	211.53
907.77	211.54
908.08	211.52
908.38	211.50
908.69	211.51
908.99	211.55
909.30	211.49
909.60	211.51
909.90	211.54
910.21	211.54
910.51	211.42
910.81	211.35
911.12	211.46
911.42	211.46
911.73	211.30
912.03	211.35
912.33	211.34
912.64	211.34
912.94	211.29
913.24	211.25
913.55	211.32
913.85	211.29
914.15	211.23
914.46	211.29
914.76	211.29
915.06	211.30
915.37	211.22
915.67	211.30
915.97	211.30
916.27	211.30
916.58	211.31
916.88	211.37
917.18	211.30
917.49	211.42
917.79	211.48
918.09	211.53
918.39	211.60
918.70	211.65
919.00	211.65
919.30	211.73
919.60	211.72
919.91	211.68
920.21	211.82
920.51	211.80
920.81	211.81
921.12	211.80
921.42	211.79
921.72	211.84
922.02	211.78
922.32	211.75
922.63	211.74
922.93	211.85
923.23	211.81
923.53	211.86
923.83	211.74
924.13	211.74
924.44	211.73
924.74	211.72
925.04	211.78
925.34	211.78
925.64	211.70
925.94	211.64
926.24	211.66
926.55	211.57
926.85	211.61
927.15	211.55
927.45	211.57
927.75	211.54
928.05	211.46
928.35	211.45
928.65	211.47
928.95	211.47
929.26	211.35
929.56	211.43
929.86	211.49
930.16	211.46
930.46	211.38
930.76	211.37
931.06	211.33
931.36	211.27
931.66	211.30
931.96	211.30
932.26	211.31
932.56	211.26
932.86	211.18
933.16	211.18
933.46	211.16
933.76	211.16
934.06	211.19
934.36	211.23
934.66	211.25
934.96	211.28
935.26	211.28
935.56	211.33
935.86	211.37
936.16	211.29
936.46	211.23
936.76	211.24
937.06	211.24
937.36	211.19
937.66	211.20
937.96	211.12
938.26	211.16
938.56	211.13
938.86	211.15
939.16	211.24
939.46	211.23
939.76	211.23
940.06	211.22
940.35	211.18
940.65	211.13
940.95	211.14
941.25	211.05
941.55	211.04
941.85	210.96
942.15	210.92
942.45	210.92
942.75	210.91
943.04	210.94
943.34	210.95
943.64	210.96
943.94	210.89
944.24	210.91
944.54	210.89
944.84	210.95
945.13	210.90
945.43	210.90
945.73	210.93
946.03	210.94
946.33	210.90
946.62	210.91
946.92	210.89
947.22	210.91
947.52	210.94
947.82	210.95
948.11	210.97
948.41	210.90
948.71	210.97
949.01	211.03
949.31	211.02
949.60	210.94
949.90	210.97
950.20	211.01
950.50	211.05
950.79	210.97
951.09	210.94
951.39	210.99
951.69	210.90
951.98	210.92
952.28	210.90
952.58	210.95
952.87	210.91
953.17	210.96
953.47	210.90
953.76	210.89
954.06	210.86
954.36	210.84
954.66	210.88
954.95	210.86
955.25	210.85
955.55	210.82
955.84	210.87
956.14	210.86
956.44	210.84
956.73	210.83
957.03	210.90
957.32	210.92
957.62	210.95
957.92	211.00
958.21	210.95
958.51	211.13
958.81	211.10
959.10	211.13
959.40	211.14
959.69	211.15
959.99	211.18
960.29	211.17
960.58	211.21
960.88	211.23
961.17	211.17
961.47	211.20
961.76	211.14
962.06	211.16
962.36	211.16
962.65	211.19
962.95	211.19
963.24	211.10
963.54	211.06
963.83	210.97
964.13	210.98
964.42	210.91
964.72	210.81
965.01	210.85
965.31	210.85
965.60	210.77
965.90	210.84
966.19	210.87
966.49	210.88
966.78	210.80
967.08	210.80
967.37	210.81
967.67	210.80
967.96	210.87
968.26	210.84
968.55	210.84
968.85	210.84
969.14	210.77
969.43	210.84
969.73	210.82
970.02	210.82
970.32	210.80
970.61	210.89
970.91	210.72
971.20	210.62
971.49	210.57
971.79	210.72
972.08	210.62
972.38	210.57
972.67	210.53
972.96	210.58
973.26	210.61
973.55	210.63
973.85	210.60
974.14	210.55
974.43	210.55
974.73	210.55
975.02	210.50
975.31	210.54
975.61	210.49
975.90	210.53
976.19	210.51
976.49	210.52
976.78	210.52
977.07	210.60
977.37	210.66
977.66	210.72
977.95	210.64
978.24	210.70
978.54	210.74
978.83	210.71
979.12	210.72
979.42	210.71
979.71	210.64
980.00	210.63
980.29	210.69
980.59	210.68
980.88	210.64
981.17	210.65
981.46	210.66
981.76	210.67
982.05	210.68
982.34	210.75
982.63	210.72
982.93	210.72
983.22	210.78
983.51	210.85
983.80	210.91
984.09	210.97
984.39	211.00
984.68	210.96
984.97	210.98
985.26	210.91
985.55	210.88
985.85	210.95
986.14	210.99
986.43	210.98
986.72	210.97
987.01	210.92
987.30	210.93
987.59	210.86
987.89	210.86
988.18	210.82
988.47	210.73
988.76	210.77
989.05	210.68
989.34	210.65
989.63	210.65
989.92	210.55
990.22	210.48
990.51	210.42
990.80	210.40
991.09	210.47
991.38	210.53
991.67	210.48
991.96	210.49
992.25	210.50
992.54	210.44
992.83	210.47
993.12	210.50
993.41	210.54
993.70	210.65
993.99	210.75
994.28	210.77
994.58	210.87
994.87	210.82
995.16	210.87
995.45	210.81
995.74	210.75
996.03	210.87
996.32	210.88
996.61	210.90
996.90	210.90
997.19	210.90
997.48	210.90
997.77	210.94
998.06	210.90
998.34	210.85
998.63	210.89
998.92	210.90
999.21	210.91
999.50	210.97
999.79	210.92
1000.08	210.92
1000.37	210.91
1000.66	210.81
1000.95	210.88
1001.24	210.92
1001.53	210.95
1001.82	210.94
1002.11	210.86
1002.40	210.89
1002.68	210.93
1002.97	211.09
1003.26	211.12
1003.55	211.09
1003.84	211.08
1004.13	211.12
1004.42	211.16
1004.71	211.18
1004.99	211.19
1005.28	211.32
1005.57	211.28
1005.86	211.33
1006.15	211.35
1006.44	211.35
1006.72	211.44
1007.01	211.44
1007.30	211.48
1007.59	211.55
1007.88	211.53
1008.17	211.54
1008.45	211.51
1008.74	211.48
1009.03	211.40
1009.32	211.37
1009.60	211.39
1009.89	211.41
1010.18	211.45
1010.47	211.45
1010.76	211.39
1011.04	211.32
1011.33	211.49
1011.62	211.53
1011.91	211.48
1012.19	211.49
1012.48	211.45
1012.77	211.44
1013.05	211.62
1013.34	211.64
1013.63	211.60
1013.92	211.62
1014.20	211.65
1014.49	211.69
1014.78	211.74
1015.06	211.69
1015.35	211.68
1015.64	211.68
1015.92	211.67
1016.21	211.55
1016.50	211.55
1016.78	211.64
1017.07	211.75
1017.36	211.51
1017.64	211.43
1017.93	211.44
1018.22	211.34
1018.50	211.42
1018.79	211.38
1019.08	211.20
1019.36	211.12
1019.65	211.13
1019.93	211.14
1020.22	211.10
1020.51	211.15
1020.79	211.09
1021.08	210.20
1021.36	211.45
1021.65	210.30
1021.94	211.55
1022.22	210.30
1022.51	211.45
1022.79	210.70
1023.08	210.60
1023.36	213.30
1023.65	210.95
>>>>>End Processed Spectral Data<<<<<
