SpectraSuite Data File
++++++++++++++++++++++++++++++++++++
Date: Mon Feb 25 17:30:40 EST 2013
User: group
Dark Spectrum Present: No
Reference Spectrum Present: No
Number of Sampled Component Spectra: 1
Spectrometers: USB2E7196
Integration Time (usec): 52000 (USB2E7196)
Spectra Averaged: 20 (USB2E7196)
Boxcar Smoothing: 10 (USB2E7196)
Correct for Electrical Dark: No (USB2E7196)
Strobe/Lamp Enabled: No (USB2E7196)
Correct for Detector Non-linearity: No (USB2E7196)
Correct for Stray Light: No (USB2E7196)
Number of Pixels in Processed Spectrum: 2048
>>>>>Begin Processed Spectral Data<<<<<
339.09	0.00
339.48	198.75
339.86	199.60
340.24	201.65
340.63	202.80
341.01	207.45
341.39	206.15
341.78	207.05
342.16	208.05
342.54	208.05
342.93	197.65
343.31	207.64
343.69	208.15
344.07	208.62
344.46	209.03
344.84	209.44
345.22	209.55
345.60	209.74
345.99	209.93
346.37	210.14
346.75	210.25
347.13	210.33
347.52	210.38
347.90	210.54
348.28	210.55
348.66	210.60
349.05	210.61
349.43	210.75
349.81	210.83
350.19	210.91
350.57	211.04
350.96	211.21
351.34	211.30
351.72	211.45
352.10	211.59
352.48	211.71
352.87	211.74
353.25	211.89
353.63	211.98
354.01	212.04
354.39	212.08
354.77	212.19
355.15	212.40
355.54	212.50
355.92	212.46
356.30	212.56
356.68	212.76
357.06	212.84
357.44	212.89
357.82	212.93
358.20	213.02
358.58	213.06
358.97	213.18
359.35	213.36
359.73	213.48
360.11	213.52
360.49	213.60
360.87	213.70
361.25	213.75
361.63	213.95
362.01	214.10
362.39	214.18
362.77	214.26
363.15	214.28
363.53	214.29
363.91	214.37
364.29	214.42
364.67	214.32
365.05	214.36
365.43	214.46
365.81	214.51
366.19	214.61
366.57	214.73
366.95	214.69
367.33	214.59
367.71	214.52
368.09	214.60
368.47	214.61
368.85	214.60
369.23	214.70
369.61	214.57
369.99	214.54
370.37	214.50
370.75	214.60
371.13	214.53
371.51	214.52
371.89	214.56
372.27	214.56
372.65	214.54
373.03	214.53
373.41	214.40
373.78	214.40
374.16	214.26
374.54	214.18
374.92	214.16
375.30	214.21
375.68	214.19
376.06	214.13
376.44	214.05
376.82	214.04
377.19	213.93
377.57	213.88
377.95	213.85
378.33	213.74
378.71	213.48
379.09	213.50
379.47	213.44
379.84	213.32
380.22	213.21
380.60	213.13
380.98	213.05
381.36	213.02
381.73	212.95
382.11	212.93
382.49	212.95
382.87	212.88
383.25	212.83
383.62	213.00
384.00	212.91
384.38	212.86
384.76	212.82
385.13	212.86
385.51	212.85
385.89	212.67
386.27	212.65
386.64	212.76
387.02	212.66
387.40	212.59
387.78	212.56
388.15	212.63
388.53	212.51
388.91	212.49
389.29	212.37
389.66	212.41
390.04	212.39
390.42	212.25
390.79	212.28
391.17	212.15
391.55	211.81
391.92	211.77
392.30	211.76
392.68	211.65
393.05	211.61
393.43	211.55
393.81	211.60
394.18	211.55
394.56	211.52
394.94	211.54
395.31	211.51
395.69	211.60
396.06	211.57
396.44	211.60
396.82	211.60
397.19	211.71
397.57	211.65
397.95	211.72
398.32	211.78
398.70	211.78
399.07	211.90
399.45	211.96
399.82	212.07
400.20	212.09
400.58	212.13
400.95	212.06
401.33	212.20
401.70	212.42
402.08	212.52
402.45	212.60
402.83	212.73
403.20	212.84
403.58	212.86
403.95	212.95
404.33	213.15
404.71	213.22
405.08	213.45
405.46	213.55
405.83	213.68
406.21	213.79
406.58	213.99
406.96	214.11
407.33	214.35
407.70	214.54
408.08	214.88
408.45	215.15
408.83	215.43
409.20	215.62
409.58	215.75
409.95	216.08
410.33	216.30
410.70	216.49
411.08	216.79
411.45	217.19
411.82	217.45
412.20	217.89
412.57	218.42
412.95	218.74
413.32	219.24
413.69	219.70
414.07	220.24
414.44	220.75
414.82	221.37
415.19	222.00
415.56	222.71
415.94	223.34
416.31	224.19
416.68	224.98
417.06	225.95
417.43	226.92
417.81	227.99
418.18	229.07
418.55	230.25
418.93	231.49
419.30	232.69
419.67	234.15
420.04	235.41
420.42	236.79
420.79	238.52
421.16	240.20
421.54	241.97
421.91	243.73
422.28	245.70
422.66	247.67
423.03	249.67
423.40	251.66
423.77	253.89
424.15	256.06
424.52	258.35
424.89	260.81
425.26	263.16
425.64	265.30
426.01	267.86
426.38	270.59
426.75	273.33
427.13	276.12
427.50	278.96
427.87	282.08
428.24	285.15
428.61	287.90
428.99	291.05
429.36	294.49
429.73	297.94
430.10	301.25
430.47	304.70
430.85	308.31
431.22	312.06
431.59	316.14
431.96	320.00
432.33	324.20
432.70	328.21
433.08	332.96
433.45	337.62
433.82	342.12
434.19	346.96
434.56	351.79
434.93	356.38
435.30	361.06
435.68	366.15
436.05	371.15
436.42	376.26
436.79	380.88
437.16	385.75
437.53	390.97
437.90	396.17
438.27	401.30
438.64	406.58
439.01	411.50
439.38	415.63
439.75	419.80
440.13	424.46
440.50	428.97
440.87	432.55
441.24	436.24
441.61	440.34
441.98	443.42
442.35	446.86
442.72	450.44
443.09	453.82
443.46	455.76
443.83	457.15
444.20	458.35
444.57	460.16
444.94	460.92
445.31	461.75
445.68	462.42
446.05	462.70
446.42	461.99
446.79	461.24
447.16	460.34
447.53	459.71
447.90	457.82
448.27	455.81
448.64	452.93
449.01	450.88
449.37	447.38
449.74	443.97
450.11	440.06
450.48	435.65
450.85	431.20
451.22	427.32
451.59	423.65
451.96	420.15
452.33	415.43
452.70	411.32
453.07	406.34
453.43	401.20
453.80	396.33
454.17	391.61
454.54	387.10
454.91	382.48
455.28	377.83
455.65	373.55
456.02	369.31
456.38	365.79
456.75	361.30
457.12	357.54
457.49	353.79
457.86	350.13
458.23	347.05
458.59	343.65
458.96	340.30
459.33	337.23
459.70	334.11
460.07	331.62
460.43	328.71
460.80	326.01
461.17	323.75
461.54	321.18
461.91	318.97
462.27	316.75
462.64	314.91
463.01	312.76
463.38	310.61
463.74	308.47
464.11	306.62
464.48	304.97
464.85	303.24
465.21	301.89
465.58	300.46
465.95	298.80
466.32	297.48
466.68	296.13
467.05	294.80
467.42	293.48
467.78	292.13
468.15	290.84
468.52	289.92
468.88	288.63
469.25	287.57
469.62	286.68
469.98	285.68
470.35	284.70
470.72	283.84
471.08	282.96
471.45	282.20
471.82	281.52
472.18	280.74
472.55	280.10
472.92	279.53
473.28	278.89
473.65	278.44
474.02	277.84
474.38	277.45
474.75	277.09
475.11	276.70
475.48	276.54
475.85	276.35
476.21	276.10
476.58	276.00
476.94	276.06
477.31	276.00
477.67	275.96
478.04	275.96
478.41	276.17
478.77	276.49
479.14	276.61
479.50	276.85
479.87	277.15
480.23	277.70
480.60	278.01
480.96	278.49
481.33	278.99
481.69	279.61
482.06	280.29
482.42	280.97
482.79	281.75
483.15	282.60
483.52	283.60
483.88	284.52
484.25	285.55
484.61	286.56
484.98	287.65
485.34	288.92
485.71	290.34
486.07	291.73
486.44	293.07
486.80	294.72
487.17	296.33
487.53	298.12
487.90	299.84
488.26	301.85
488.62	303.91
488.99	305.96
489.35	308.06
489.72	310.29
490.08	312.63
490.44	315.11
490.81	317.66
491.17	320.27
491.54	323.08
491.90	325.97
492.26	329.14
492.63	332.40
492.99	335.92
493.36	339.56
493.72	343.43
494.08	347.43
494.45	351.59
494.81	356.03
495.17	360.54
495.54	365.41
495.90	370.32
496.26	375.54
496.63	381.04
496.99	386.70
497.35	392.63
497.72	398.87
498.08	405.33
498.44	411.90
498.80	419.11
499.17	426.51
499.53	434.24
499.89	442.15
500.26	450.40
500.62	458.65
500.98	467.45
501.34	476.54
501.71	485.92
502.07	495.56
502.43	505.38
502.79	515.55
503.16	526.09
503.52	536.99
503.88	548.09
504.24	559.55
504.60	571.35
504.97	583.61
505.33	596.16
505.69	609.26
506.05	622.80
506.41	636.10
506.78	649.95
507.14	664.02
507.50	678.56
507.86	693.36
508.22	708.54
508.59	723.78
508.95	739.61
509.31	755.68
509.67	772.12
510.03	788.95
510.39	806.48
510.75	823.86
511.12	841.63
511.48	859.62
511.84	878.18
512.20	896.57
512.56	915.42
512.92	934.49
513.28	953.65
513.64	973.00
514.00	992.77
514.37	1012.79
514.73	1033.08
515.09	1053.35
515.45	1073.74
515.81	1094.64
516.17	1115.51
516.53	1136.47
516.89	1157.69
517.25	1178.88
517.61	1200.28
517.97	1221.42
518.33	1242.79
518.69	1264.10
519.05	1286.05
519.41	1307.55
519.77	1330.08
520.13	1351.93
520.49	1373.60
520.85	1395.95
521.21	1418.35
521.57	1440.96
521.93	1462.19
522.29	1484.80
522.65	1507.02
523.01	1529.47
523.37	1551.20
523.73	1573.09
524.09	1594.75
524.45	1616.58
524.81	1638.55
525.17	1660.32
525.53	1682.31
525.89	1704.44
526.25	1726.17
526.61	1746.82
526.97	1768.39
527.33	1788.92
527.68	1809.94
528.04	1830.87
528.40	1850.71
528.76	1870.74
529.12	1890.62
529.48	1912.01
529.84	1931.74
530.20	1951.55
530.56	1971.12
530.91	1991.30
531.27	2011.29
531.63	2030.97
531.99	2050.29
532.35	2069.11
532.71	2087.82
533.07	2106.84
533.42	2124.59
533.78	2142.85
534.14	2161.03
534.50	2177.30
534.86	2194.76
535.21	2211.00
535.57	2228.53
535.93	2245.43
536.29	2261.80
536.65	2278.10
537.00	2293.06
537.36	2307.67
537.72	2322.36
538.08	2337.16
538.44	2352.09
538.79	2366.91
539.15	2381.07
539.51	2395.11
539.87	2409.68
540.22	2423.68
540.58	2437.84
540.94	2451.80
541.29	2464.51
541.65	2476.18
542.01	2489.34
542.37	2500.81
542.72	2512.86
543.08	2523.07
543.44	2534.22
543.79	2543.92
544.15	2553.77
544.51	2564.42
544.87	2575.10
545.22	2583.93
545.58	2592.24
545.94	2599.06
546.29	2604.95
546.65	2610.67
547.01	2616.36
547.36	2621.51
547.72	2626.62
548.07	2630.11
548.43	2633.61
548.79	2636.58
549.14	2640.87
549.50	2644.62
549.86	2648.39
550.21	2651.57
550.57	2655.09
550.92	2657.36
551.28	2659.99
551.64	2662.27
551.99	2664.45
552.35	2665.67
552.70	2667.94
553.06	2670.23
553.41	2672.67
553.77	2675.41
554.13	2677.85
554.48	2679.64
554.84	2680.97
555.19	2681.08
555.55	2681.13
555.90	2681.29
556.26	2681.86
556.61	2681.40
556.97	2679.82
557.32	2678.87
557.68	2677.35
558.03	2675.64
558.39	2674.11
558.74	2673.08
559.10	2671.39
559.45	2668.78
559.81	2667.27
560.16	2664.97
560.52	2662.28
560.87	2659.38
561.23	2655.50
561.58	2652.83
561.94	2649.56
562.29	2645.23
562.64	2642.80
563.00	2640.43
563.35	2637.94
563.71	2635.97
564.06	2633.82
564.42	2632.00
564.77	2629.52
565.12	2627.50
565.48	2624.33
565.83	2621.11
566.19	2618.15
566.54	2614.04
566.89	2610.41
567.25	2606.66
567.60	2602.80
567.96	2599.10
568.31	2595.23
568.66	2591.42
569.02	2586.66
569.37	2581.44
569.72	2577.82
570.08	2572.49
570.43	2566.69
570.78	2561.05
571.14	2554.55
571.49	2548.00
571.84	2541.76
572.20	2535.00
572.55	2528.53
572.90	2522.00
573.26	2514.89
573.61	2507.48
573.96	2501.01
574.31	2493.46
574.67	2485.56
575.02	2477.44
575.37	2468.95
575.72	2460.21
576.08	2452.69
576.43	2444.48
576.78	2436.92
577.13	2429.03
577.49	2421.36
577.84	2413.92
578.19	2406.69
578.54	2399.79
578.90	2392.85
579.25	2384.70
579.60	2375.97
579.95	2366.70
580.30	2358.81
580.66	2351.04
581.01	2342.52
581.36	2333.40
581.71	2325.24
582.06	2316.73
582.42	2308.79
582.77	2300.11
583.12	2291.34
583.47	2282.98
583.82	2274.83
584.17	2265.85
584.53	2257.20
584.88	2248.49
585.23	2239.43
585.58	2229.81
585.93	2220.17
586.28	2211.36
586.63	2202.91
586.98	2194.50
587.34	2186.62
587.69	2177.46
588.04	2168.64
588.39	2160.38
588.74	2151.27
589.09	2142.58
589.44	2133.48
589.79	2124.93
590.14	2117.07
590.49	2109.31
590.84	2100.52
591.19	2092.52
591.54	2084.18
591.89	2074.26
592.25	2065.26
592.60	2056.21
592.95	2047.16
593.30	2038.18
593.65	2028.34
594.00	2018.81
594.35	2010.95
594.70	2001.81
595.05	1993.61
595.40	1985.14
595.75	1975.75
596.10	1968.26
596.45	1960.15
596.80	1952.45
597.15	1944.43
597.50	1935.70
597.85	1927.14
598.19	1918.54
598.54	1910.04
598.89	1902.68
599.24	1896.04
599.59	1888.91
599.94	1882.14
600.29	1874.82
600.64	1867.08
600.99	1859.64
601.34	1852.74
601.69	1844.42
602.04	1836.80
602.39	1829.15
602.74	1821.52
603.08	1815.20
603.43	1808.36
603.78	1800.60
604.13	1792.79
604.48	1785.20
604.83	1778.59
605.18	1772.25
605.53	1764.89
605.87	1757.48
606.22	1750.27
606.57	1742.90
606.92	1735.15
607.27	1727.32
607.62	1720.19
607.96	1713.65
608.31	1707.27
608.66	1699.68
609.01	1692.20
609.36	1684.65
609.70	1676.66
610.05	1669.08
610.40	1661.16
610.75	1652.69
611.10	1645.06
611.44	1636.60
611.79	1627.85
612.14	1618.66
612.49	1609.06
612.83	1600.52
613.18	1591.17
613.53	1581.81
613.88	1572.08
614.22	1563.31
614.57	1554.27
614.92	1545.36
615.27	1536.22
615.61	1526.58
615.96	1517.62
616.31	1509.37
616.65	1501.59
617.00	1493.63
617.35	1485.11
617.70	1476.51
618.04	1467.61
618.39	1458.73
618.74	1450.74
619.08	1442.43
619.43	1434.35
619.78	1426.96
620.12	1419.24
620.47	1411.71
620.82	1403.75
621.16	1396.05
621.51	1387.79
621.85	1379.85
622.20	1371.55
622.55	1363.42
622.89	1355.62
623.24	1347.95
623.59	1339.58
623.93	1331.04
624.28	1322.95
624.62	1315.22
624.97	1307.24
625.32	1299.61
625.66	1292.26
626.01	1284.90
626.35	1277.67
626.70	1270.25
627.04	1262.85
627.39	1255.48
627.73	1248.18
628.08	1241.39
628.43	1234.16
628.77	1227.07
629.12	1219.80
629.46	1213.17
629.81	1205.97
630.15	1198.66
630.50	1191.42
630.84	1184.39
631.19	1177.50
631.53	1170.53
631.88	1163.05
632.22	1155.61
632.57	1148.91
632.91	1141.78
633.26	1134.50
633.60	1127.48
633.95	1121.03
634.29	1113.75
634.64	1107.17
634.98	1100.13
635.32	1093.07
635.67	1086.77
636.01	1080.22
636.36	1073.67
636.70	1067.18
637.05	1060.94
637.39	1054.86
637.73	1048.73
638.08	1043.08
638.42	1037.38
638.77	1031.29
639.11	1025.23
639.45	1019.40
639.80	1013.13
640.14	1006.73
640.49	1000.76
640.83	994.94
641.17	988.41
641.52	982.55
641.86	976.26
642.20	970.42
642.55	963.91
642.89	957.51
643.23	951.36
643.58	945.43
643.92	939.07
644.26	932.76
644.61	926.75
644.95	920.90
645.29	914.59
645.64	907.91
645.98	901.76
646.32	896.05
646.66	889.99
647.01	884.15
647.35	878.59
647.69	872.31
648.04	866.20
648.38	860.47
648.72	854.55
649.06	848.43
649.41	842.54
649.75	836.98
650.09	831.35
650.43	825.58
650.78	819.73
651.12	813.75
651.46	808.17
651.80	802.33
652.14	796.51
652.49	790.75
652.83	785.30
653.17	779.41
653.51	773.66
653.85	768.05
654.20	762.36
654.54	756.53
654.88	751.20
655.22	745.66
655.56	739.95
655.90	734.07
656.25	728.72
656.59	723.37
656.93	718.27
657.27	713.13
657.61	707.69
657.95	702.70
658.29	697.75
658.64	692.74
658.98	687.71
659.32	682.46
659.66	677.45
660.00	672.24
660.34	667.25
660.68	662.13
661.02	657.23
661.36	652.57
661.70	648.05
662.05	643.43
662.39	639.00
662.73	634.71
663.07	630.76
663.41	626.53
663.75	622.09
664.09	617.51
664.43	612.92
664.77	608.72
665.11	604.24
665.45	600.01
665.79	595.70
666.13	591.48
666.47	587.32
666.81	583.24
667.15	579.27
667.49	575.44
667.83	571.85
668.17	568.04
668.51	564.30
668.85	560.60
669.19	556.99
669.53	553.15
669.87	549.30
670.21	545.51
670.55	541.55
670.89	538.21
671.23	534.76
671.57	531.50
671.91	528.16
672.25	524.75
672.58	521.32
672.92	518.05
673.26	514.98
673.60	511.81
673.94	508.48
674.28	505.30
674.62	502.11
674.96	498.81
675.30	495.73
675.64	492.60
675.97	489.42
676.31	486.47
676.65	483.64
676.99	480.91
677.33	477.96
677.67	475.20
678.01	472.17
678.34	469.41
678.68	466.52
679.02	463.44
679.36	460.77
679.70	457.98
680.04	455.05
680.37	452.10
680.71	449.44
681.05	446.86
681.39	444.26
681.73	441.74
682.06	439.38
682.40	437.09
682.74	434.54
683.08	432.03
683.42	429.35
683.75	426.85
684.09	424.42
684.43	422.01
684.77	419.51
685.10	417.00
685.44	414.42
685.78	412.07
686.12	410.04
686.45	407.69
686.79	405.53
687.13	403.58
687.46	401.45
687.80	399.31
688.14	397.14
688.48	395.02
688.81	392.88
689.15	390.56
689.49	388.19
689.82	386.05
690.16	383.75
690.50	381.62
690.83	379.45
691.17	377.10
691.51	374.94
691.84	372.90
692.18	370.87
692.52	369.10
692.85	367.27
693.19	365.32
693.52	363.41
693.86	361.45
694.20	359.55
694.53	357.72
694.87	355.81
695.21	354.00
695.54	352.10
695.88	350.21
696.21	348.43
696.55	346.78
696.88	344.97
697.22	343.45
697.56	341.95
697.89	340.28
698.23	338.72
698.56	337.14
698.90	335.60
699.23	334.10
699.57	332.51
699.90	330.87
700.24	329.37
700.58	327.78
700.91	326.30
701.25	324.86
701.58	323.47
701.92	322.01
702.25	320.62
702.59	319.30
702.92	318.10
703.26	316.82
703.59	315.54
703.93	314.56
704.26	313.28
704.60	312.03
704.93	310.87
705.26	309.69
705.60	308.50
705.93	307.35
706.27	306.16
706.60	305.04
706.94	303.99
707.27	302.70
707.61	301.65
707.94	300.54
708.27	299.27
708.61	298.17
708.94	297.14
709.28	296.01
709.61	294.93
709.94	293.85
710.28	292.76
710.61	291.69
710.95	290.45
711.28	289.56
711.61	288.53
711.95	287.58
712.28	286.65
712.61	285.74
712.95	284.85
713.28	283.98
713.61	283.03
713.95	282.02
714.28	281.23
714.61	280.32
714.95	279.51
715.28	278.72
715.61	277.83
715.95	276.98
716.28	276.18
716.61	275.32
716.95	274.42
717.28	273.63
717.61	272.81
717.94	272.06
718.28	271.20
718.61	270.50
718.94	269.71
719.27	268.97
719.61	268.26
719.94	267.60
720.27	266.90
720.60	266.18
720.94	265.45
721.27	264.81
721.60	264.17
721.93	263.53
722.27	263.03
722.60	262.48
722.93	261.89
723.26	261.29
723.59	260.70
723.93	260.18
724.26	259.75
724.59	259.23
724.92	258.73
725.25	258.24
725.59	257.67
725.92	257.15
726.25	256.60
726.58	256.15
726.91	255.62
727.24	255.12
727.57	254.64
727.91	254.20
728.24	253.69
728.57	253.26
728.90	252.86
729.23	252.31
729.56	251.86
729.89	251.37
730.22	250.92
730.55	250.52
730.89	250.13
731.22	249.62
731.55	249.24
731.88	248.69
732.21	248.21
732.54	247.74
732.87	247.24
733.20	246.83
733.53	246.34
733.86	245.91
734.19	245.51
734.52	245.12
734.85	244.85
735.18	244.49
735.51	244.10
735.84	243.63
736.17	243.27
736.50	242.81
736.83	242.60
737.16	242.30
737.49	241.89
737.82	241.44
738.15	241.14
738.48	240.75
738.81	240.47
739.14	240.11
739.47	239.85
739.80	239.59
740.13	239.21
740.46	238.89
740.79	238.55
741.12	238.16
741.45	237.86
741.78	237.45
742.11	237.18
742.44	236.87
742.77	236.60
743.10	236.25
743.43	235.98
743.75	235.55
744.08	235.50
744.41	235.25
744.74	234.96
745.07	234.58
745.40	234.31
745.73	234.13
746.06	233.87
746.39	233.60
746.71	233.35
747.04	233.11
747.37	232.86
747.70	232.58
748.03	232.35
748.36	232.15
748.68	231.89
749.01	231.54
749.34	231.35
749.67	231.11
750.00	230.91
750.33	230.78
750.65	230.50
750.98	229.94
751.31	229.73
751.64	229.56
751.97	229.49
752.29	229.24
752.62	228.92
752.95	228.68
753.28	228.35
753.60	228.15
753.93	227.94
754.26	227.74
754.59	227.46
754.91	227.22
755.24	226.95
755.57	226.77
755.90	226.57
756.22	226.33
756.55	226.05
756.88	225.86
757.20	225.53
757.53	225.30
757.86	225.14
758.19	224.94
758.51	224.72
758.84	224.47
759.17	224.35
759.49	224.16
759.82	224.07
760.15	224.00
760.47	223.80
760.80	223.59
761.13	223.40
761.45	223.34
761.78	223.20
762.11	223.08
762.43	222.90
762.76	222.76
763.08	222.58
763.41	222.49
763.74	222.35
764.06	222.25
764.39	222.18
764.71	222.08
765.04	221.88
765.37	221.78
765.69	221.69
766.02	221.50
766.34	221.41
766.67	221.22
767.00	221.14
767.32	221.04
767.65	221.09
767.97	220.99
768.30	220.87
768.62	220.71
768.95	220.62
769.27	220.51
769.60	220.55
769.92	220.45
770.25	220.41
770.57	220.30
770.90	220.18
771.22	220.05
771.55	219.92
771.87	219.98
772.20	219.84
772.52	219.80
772.85	219.98
773.17	219.93
773.50	219.97
773.82	219.71
774.15	219.57
774.47	219.33
774.80	219.27
775.12	219.09
775.45	219.07
775.77	218.97
776.09	218.85
776.42	218.64
776.74	218.66
777.07	218.53
777.39	218.44
777.72	218.39
778.04	218.43
778.36	218.33
778.69	218.19
779.01	218.10
779.33	217.95
779.66	217.67
779.98	217.56
780.31	217.42
780.63	217.53
780.95	217.55
781.28	217.47
781.60	217.40
781.92	217.35
782.25	217.34
782.57	217.30
782.89	217.26
783.22	217.25
783.54	217.11
783.86	217.06
784.19	216.94
784.51	216.85
784.83	216.69
785.16	216.65
785.48	216.59
785.80	216.52
786.12	216.43
786.45	216.37
786.77	216.31
787.09	216.27
787.42	216.12
787.74	216.00
788.06	216.02
788.38	215.93
788.71	215.90
789.03	215.82
789.35	215.78
789.67	215.71
789.99	215.62
790.32	215.53
790.64	215.49
790.96	215.56
791.28	215.56
791.61	215.51
791.93	215.46
792.25	215.41
792.57	215.50
792.89	215.46
793.21	215.45
793.54	215.40
793.86	215.32
794.18	215.29
794.50	215.20
794.82	215.16
795.14	215.21
795.47	215.20
795.79	215.14
796.11	215.08
796.43	215.06
796.75	215.02
797.07	215.00
797.39	214.93
797.71	214.77
798.04	214.70
798.36	214.73
798.68	214.70
799.00	214.76
799.32	214.75
799.64	214.70
799.96	214.65
800.28	214.62
800.60	214.58
800.92	214.54
801.24	214.58
801.56	214.54
801.89	214.43
802.21	214.41
802.53	214.33
802.85	214.29
803.17	214.28
803.49	214.16
803.81	214.13
804.13	214.08
804.45	214.10
804.77	214.05
805.09	213.98
805.41	213.94
805.73	213.75
806.05	213.63
806.37	213.59
806.69	213.54
807.01	213.52
807.33	213.47
807.65	213.37
807.97	213.48
808.28	213.40
808.60	213.40
808.92	213.38
809.24	213.47
809.56	213.43
809.88	213.35
810.20	213.42
810.52	213.42
810.84	213.39
811.16	213.32
811.48	213.31
811.80	213.26
812.12	213.21
812.43	213.21
812.75	213.20
813.07	213.15
813.39	213.11
813.71	213.08
814.03	213.06
814.35	212.97
814.67	212.86
814.98	212.90
815.30	212.82
815.62	212.77
815.94	212.62
816.26	212.65
816.58	212.61
816.89	212.60
817.21	212.56
817.53	212.52
817.85	212.51
818.17	212.47
818.48	212.45
818.80	212.49
819.12	212.51
819.44	212.44
819.76	212.40
820.07	212.33
820.39	212.33
820.71	212.38
821.03	212.50
821.34	212.44
821.66	212.45
821.98	212.49
822.30	212.44
822.61	212.53
822.93	212.44
823.25	212.45
823.57	212.39
823.88	212.39
824.20	212.45
824.52	212.49
824.83	212.47
825.15	212.45
825.47	212.47
825.79	212.43
826.10	212.41
826.42	212.40
826.74	212.45
827.05	212.43
827.37	212.34
827.69	212.27
828.00	212.31
828.32	212.21
828.64	212.15
828.95	212.27
829.27	212.24
829.58	212.30
829.90	212.32
830.22	212.35
830.53	212.30
830.85	212.30
831.17	212.30
831.48	212.27
831.80	212.26
832.11	212.24
832.43	212.16
832.75	212.17
833.06	212.30
833.38	212.31
833.69	212.29
834.01	212.33
834.32	212.34
834.64	212.22
834.96	212.27
835.27	212.26
835.59	212.19
835.90	212.18
836.22	212.09
836.53	212.03
836.85	212.00
837.16	212.17
837.48	212.10
837.79	212.06
838.11	212.08
838.42	212.07
838.74	212.06
839.05	212.12
839.37	212.09
839.68	211.95
840.00	211.81
840.31	211.78
840.63	211.75
840.94	211.70
841.26	211.69
841.57	211.64
841.88	211.68
842.20	211.58
842.51	211.57
842.83	211.57
843.14	211.72
843.46	211.77
843.77	211.65
844.08	211.58
844.40	211.56
844.71	211.52
845.03	211.52
845.34	211.40
845.65	211.40
845.97	211.41
846.28	211.42
846.60	211.48
846.91	211.50
847.22	211.48
847.54	211.54
847.85	211.57
848.16	211.65
848.48	211.73
848.79	211.83
849.10	211.80
849.42	211.80
849.73	211.60
850.04	211.54
850.36	211.51
850.67	211.60
850.98	211.57
851.30	211.63
851.61	211.58
851.92	211.66
852.23	211.75
852.55	211.70
852.86	211.76
853.17	211.77
853.49	211.75
853.80	211.75
854.11	211.78
854.42	211.75
854.74	211.66
855.05	211.62
855.36	211.55
855.67	211.58
855.99	211.63
856.30	211.94
856.61	211.96
856.92	212.00
857.23	212.02
857.55	211.99
857.86	211.97
858.17	212.02
858.48	212.00
858.79	211.90
859.11	212.00
859.42	212.05
859.73	212.03
860.04	212.03
860.35	212.00
860.66	211.94
860.98	212.01
861.29	212.06
861.60	212.04
861.91	212.07
862.22	212.04
862.53	211.98
862.84	211.75
863.16	211.72
863.47	211.70
863.78	211.68
864.09	211.71
864.40	211.72
864.71	211.76
865.02	211.76
865.33	211.75
865.64	211.61
865.95	211.57
866.27	211.69
866.58	211.72
866.89	211.80
867.20	211.76
867.51	211.67
867.82	211.66
868.13	211.67
868.44	211.69
868.75	211.64
869.06	211.66
869.37	211.61
869.68	211.59
869.99	211.50
870.30	211.46
870.61	211.47
870.92	211.44
871.23	211.39
871.54	211.38
871.85	211.46
872.16	211.53
872.47	211.46
872.78	211.42
873.09	211.41
873.40	211.36
873.71	211.43
874.02	211.43
874.33	211.43
874.64	211.41
874.95	211.40
875.26	211.51
875.56	211.51
875.87	211.56
876.18	211.63
876.49	211.81
876.80	211.84
877.11	211.84
877.42	211.83
877.73	211.88
878.04	211.88
878.35	211.90
878.66	211.85
878.96	211.89
879.27	211.87
879.58	211.91
879.89	211.88
880.20	211.94
880.51	212.00
880.82	211.97
881.12	211.94
881.43	211.90
881.74	211.76
882.05	211.79
882.36	211.83
882.67	211.78
882.97	211.65
883.28	211.66
883.59	211.69
883.90	211.70
884.21	211.59
884.51	211.62
884.82	211.55
885.13	211.60
885.44	211.57
885.74	211.60
886.05	211.54
886.36	211.53
886.67	211.40
886.98	211.44
887.28	211.45
887.59	211.51
887.90	211.53
888.20	211.56
888.51	211.52
888.82	211.49
889.13	211.52
889.43	211.62
889.74	211.59
890.05	211.56
890.35	211.51
890.66	211.60
890.97	211.52
891.28	211.48
891.58	211.45
891.89	211.46
892.20	211.36
892.50	211.28
892.81	211.27
893.12	211.27
893.42	211.21
893.73	211.21
894.04	211.16
894.34	211.15
894.65	211.17
894.95	211.17
895.26	211.05
895.57	211.13
895.87	211.01
896.18	211.04
896.48	210.98
896.79	211.02
897.10	211.05
897.40	211.07
897.71	211.10
898.01	211.09
898.32	211.18
898.63	211.24
898.93	211.30
899.24	211.27
899.54	211.28
899.85	211.22
900.15	211.24
900.46	211.28
900.76	211.26
901.07	211.23
901.38	211.30
901.68	211.40
901.99	211.31
902.29	211.24
902.60	211.20
902.90	211.20
903.21	211.18
903.51	211.13
903.82	211.15
904.12	211.21
904.43	211.19
904.73	211.10
905.03	211.10
905.34	211.35
905.64	211.37
905.95	211.39
906.25	211.46
906.56	211.41
906.86	211.37
907.17	211.38
907.47	211.44
907.77	211.38
908.08	211.32
908.38	211.29
908.69	211.39
908.99	211.41
909.30	211.43
909.60	211.42
909.90	211.45
910.21	211.45
910.51	211.35
910.81	211.44
911.12	211.40
911.42	211.37
911.73	211.12
912.03	211.15
912.33	211.20
912.64	211.16
912.94	211.11
913.24	211.09
913.55	211.12
913.85	211.08
914.15	211.12
914.46	211.17
914.76	211.17
915.06	211.14
915.37	211.10
915.67	211.05
915.97	211.03
916.27	210.98
916.58	210.98
916.88	211.04
917.18	210.93
917.49	211.03
917.79	211.08
918.09	211.15
918.39	211.20
918.70	211.20
919.00	211.24
919.30	211.37
919.60	211.32
919.91	211.31
920.21	211.25
920.51	211.26
920.81	211.22
921.12	211.23
921.42	211.20
921.72	211.21
922.02	211.32
922.32	211.31
922.63	211.29
922.93	211.32
923.23	211.29
923.53	211.33
923.83	211.24
924.13	211.14
924.44	211.11
924.74	211.07
925.04	211.06
925.34	211.01
925.64	210.93
925.94	211.00
926.24	211.11
926.55	211.06
926.85	211.08
927.15	211.07
927.45	211.13
927.75	211.13
928.05	211.13
928.35	211.14
928.65	211.26
928.95	211.29
929.26	211.25
929.56	211.24
929.86	211.31
930.16	211.25
930.46	211.29
930.76	211.34
931.06	211.25
931.36	211.20
931.66	211.23
931.96	211.25
932.26	211.24
932.56	211.14
932.86	211.25
933.16	211.14
933.46	211.11
933.76	211.05
934.06	211.10
934.36	211.14
934.66	211.09
934.96	210.98
935.26	210.99
935.56	211.03
935.86	211.04
936.16	210.92
936.46	210.98
936.76	210.98
937.06	210.97
937.36	210.99
937.66	211.03
937.96	210.99
938.26	210.95
938.56	210.87
938.86	210.85
939.16	210.89
939.46	211.00
939.76	211.00
940.06	211.00
940.35	210.97
940.65	210.94
940.95	210.97
941.25	210.99
941.55	211.00
941.85	210.93
942.15	210.92
942.45	210.98
942.75	210.99
943.04	211.00
943.34	210.96
943.64	210.96
943.94	210.91
944.24	210.91
944.54	210.94
944.84	210.99
945.13	210.95
945.43	210.84
945.73	210.77
946.03	210.77
946.33	210.76
946.62	210.79
946.92	210.74
947.22	210.75
947.52	210.74
947.82	210.69
948.11	210.71
948.41	210.75
948.71	210.78
949.01	210.78
949.31	210.79
949.60	210.78
949.90	210.82
950.20	210.91
950.50	210.87
950.79	210.88
951.09	210.85
951.39	210.90
951.69	210.93
951.98	211.00
952.28	211.04
952.58	210.94
952.87	210.92
953.17	210.89
953.47	210.80
953.76	210.75
954.06	210.70
954.36	210.66
954.66	210.60
954.95	210.56
955.25	210.56
955.55	210.56
955.84	210.53
956.14	210.56
956.44	210.52
956.73	210.55
957.03	210.60
957.32	210.62
957.62	210.55
957.92	210.60
958.21	210.61
958.51	210.81
958.81	210.92
959.10	210.95
959.40	211.10
959.69	211.18
959.99	211.24
960.29	211.34
960.58	211.35
960.88	211.48
961.17	211.50
961.47	211.47
961.76	211.43
962.06	211.54
962.36	211.53
962.65	211.52
962.95	211.60
963.24	211.54
963.54	211.53
963.83	211.58
964.13	211.58
964.42	211.55
964.72	211.42
965.01	211.46
965.31	211.43
965.60	211.35
965.90	211.42
966.19	211.49
966.49	211.49
966.78	211.50
967.08	211.47
967.37	211.44
967.67	211.48
967.96	211.51
968.26	211.46
968.55	211.50
968.85	211.54
969.14	211.49
969.43	211.53
969.73	211.56
970.02	211.49
970.32	211.46
970.61	211.42
970.91	211.37
971.20	211.33
971.49	211.34
971.79	211.35
972.08	211.25
972.38	211.18
972.67	211.13
972.96	211.21
973.26	211.20
973.55	211.27
973.85	211.26
974.14	211.32
974.43	211.37
974.73	211.32
975.02	211.28
975.31	211.29
975.61	211.26
975.90	211.31
976.19	211.32
976.49	211.34
976.78	211.34
977.07	211.34
977.37	211.32
977.66	211.33
977.95	211.40
978.24	211.36
978.54	211.42
978.83	211.45
979.12	211.46
979.42	211.51
979.71	211.50
980.00	211.51
980.29	211.47
980.59	211.43
980.88	211.47
981.17	211.47
981.46	211.43
981.76	211.35
982.05	211.34
982.34	211.38
982.63	211.38
982.93	211.33
983.22	211.32
983.51	211.39
983.80	211.44
984.09	211.40
984.39	211.44
984.68	211.45
984.97	211.48
985.26	211.43
985.55	211.38
985.85	211.30
986.14	211.28
986.43	211.32
986.72	211.25
987.01	211.19
987.30	211.17
987.59	211.22
987.89	211.30
988.18	211.25
988.47	211.30
988.76	211.29
989.05	211.32
989.34	211.26
989.63	211.26
989.92	211.23
990.22	211.15
990.51	211.09
990.80	210.97
991.09	210.96
991.38	210.97
991.67	210.90
991.96	210.88
992.25	210.93
992.54	210.87
992.83	210.97
993.12	210.91
993.41	210.94
993.70	210.99
993.99	211.05
994.28	211.09
994.58	211.05
994.87	211.06
995.16	211.06
995.45	211.18
995.74	211.11
996.03	211.18
996.32	211.25
996.61	211.32
996.90	211.36
997.19	211.38
997.48	211.35
997.77	211.34
998.06	211.38
998.34	211.33
998.63	211.40
998.92	211.34
999.21	211.35
999.50	211.35
999.79	211.32
1000.08	211.28
1000.37	211.24
1000.66	211.22
1000.95	211.25
1001.24	211.24
1001.53	211.17
1001.82	211.18
1002.11	211.08
1002.40	211.15
1002.68	211.12
1002.97	211.25
1003.26	211.24
1003.55	211.25
1003.84	211.30
1004.13	211.36
1004.42	211.36
1004.71	211.29
1004.99	211.22
1005.28	211.32
1005.57	211.26
1005.86	211.18
1006.15	211.17
1006.44	211.13
1006.72	211.13
1007.01	211.11
1007.30	211.10
1007.59	211.09
1007.88	211.05
1008.17	211.07
1008.45	210.97
1008.74	210.96
1009.03	210.87
1009.32	210.84
1009.60	210.78
1009.89	210.76
1010.18	210.65
1010.47	210.62
1010.76	210.65
1011.04	210.77
1011.33	210.76
1011.62	210.82
1011.91	210.85
1012.19	210.86
1012.48	210.86
1012.77	210.89
1013.05	210.93
1013.34	210.99
1013.63	211.03
1013.92	211.10
1014.20	211.07
1014.49	211.07
1014.78	211.07
1015.06	211.01
1015.35	211.00
1015.64	211.09
1015.92	211.12
1016.21	211.20
1016.50	211.25
1016.78	211.20
1017.07	211.19
1017.36	211.14
1017.64	211.11
1017.93	211.16
1018.22	211.18
1018.50	211.21
1018.79	211.19
1019.08	211.12
1019.36	211.14
1019.65	211.09
1019.93	211.09
1020.22	211.10
1020.51	211.20
1020.79	211.17
1021.08	211.95
1021.36	210.60
1021.65	210.70
1021.94	210.75
1022.22	212.10
1022.51	210.75
1022.79	211.45
1023.08	210.70
1023.36	213.15
1023.65	209.80
>>>>>End Processed Spectral Data<<<<<
