SpectraSuite Data File
++++++++++++++++++++++++++++++++++++
Date: Mon Feb 25 17:33:08 EST 2013
User: group
Dark Spectrum Present: No
Reference Spectrum Present: No
Number of Sampled Component Spectra: 1
Spectrometers: USB2E7196
Integration Time (usec): 52000 (USB2E7196)
Spectra Averaged: 20 (USB2E7196)
Boxcar Smoothing: 10 (USB2E7196)
Correct for Electrical Dark: No (USB2E7196)
Strobe/Lamp Enabled: No (USB2E7196)
Correct for Detector Non-linearity: No (USB2E7196)
Correct for Stray Light: No (USB2E7196)
Number of Pixels in Processed Spectrum: 2048
>>>>>Begin Processed Spectral Data<<<<<
339.09	0.00
339.48	199.55
339.86	200.10
340.24	202.25
340.63	202.50
341.01	208.50
341.39	206.90
341.78	207.35
342.16	209.15
342.54	209.40
342.93	198.47
343.31	208.52
343.69	209.08
344.07	209.54
344.46	210.01
344.84	210.43
345.22	210.60
345.60	210.84
345.99	211.06
346.37	211.22
346.75	211.26
347.13	211.32
347.52	211.41
347.90	211.46
348.28	211.47
348.66	211.60
349.05	211.58
349.43	211.71
349.81	211.74
350.19	211.78
350.57	211.80
350.96	211.90
351.34	212.02
351.72	212.07
352.10	212.23
352.48	212.17
352.87	212.23
353.25	212.26
353.63	212.30
354.01	212.36
354.39	212.37
354.77	212.46
355.15	212.64
355.54	212.66
355.92	212.65
356.30	212.75
356.68	212.92
357.06	212.96
357.44	212.94
357.82	213.00
358.20	213.02
358.58	213.08
358.97	213.10
359.35	213.16
359.73	213.23
360.11	213.16
360.49	213.25
360.87	213.22
361.25	213.25
361.63	213.33
362.01	213.34
362.39	213.36
362.77	213.38
363.15	213.31
363.53	213.34
363.91	213.31
364.29	213.31
364.67	213.15
365.05	213.15
365.43	213.21
365.81	213.29
366.19	213.40
366.57	213.48
366.95	213.46
367.33	213.35
367.71	213.32
368.09	213.41
368.47	213.45
368.85	213.46
369.23	213.50
369.61	213.40
369.99	213.43
370.37	213.43
370.75	213.60
371.13	213.60
371.51	213.54
371.89	213.59
372.27	213.53
372.65	213.61
373.03	213.50
373.41	213.44
373.78	213.36
374.16	213.19
374.54	213.13
374.92	213.14
375.30	213.15
375.68	213.06
376.06	212.98
376.44	212.90
376.82	212.83
377.19	212.81
377.57	212.78
377.95	212.63
378.33	212.56
378.71	212.40
379.09	212.31
379.47	212.31
379.84	212.27
380.22	212.23
380.60	212.12
380.98	212.13
381.36	212.07
381.73	212.05
382.11	212.06
382.49	211.92
382.87	211.78
383.25	211.79
383.62	211.98
384.00	211.99
384.38	211.93
384.76	212.01
385.13	211.97
385.51	211.94
385.89	211.95
386.27	211.92
386.64	211.90
387.02	211.93
387.40	211.85
387.78	211.87
388.15	211.90
388.53	211.83
388.91	211.81
389.29	211.83
389.66	211.80
390.04	211.76
390.42	211.80
390.79	211.76
391.17	211.65
391.55	211.44
391.92	211.44
392.30	211.42
392.68	211.43
393.05	211.44
393.43	211.49
393.81	211.47
394.18	211.45
394.56	211.44
394.94	211.43
395.31	211.46
395.69	211.46
396.06	211.49
396.44	211.49
396.82	211.48
397.19	211.52
397.57	211.53
397.95	211.60
398.32	211.55
398.70	211.59
399.07	211.73
399.45	211.79
399.82	211.86
400.20	211.91
400.58	211.98
400.95	211.92
401.33	211.98
401.70	212.19
402.08	212.30
402.45	212.35
402.83	212.49
403.20	212.58
403.58	212.58
403.95	212.62
404.33	212.78
404.71	212.91
405.08	213.11
405.46	213.18
405.83	213.28
406.21	213.51
406.58	213.74
406.96	213.80
407.33	213.90
407.70	214.00
408.08	214.31
408.45	214.48
408.83	214.76
409.20	214.95
409.58	215.09
409.95	215.36
410.33	215.66
410.70	215.85
411.08	216.09
411.45	216.50
411.82	216.90
412.20	217.32
412.57	217.83
412.95	218.15
413.32	218.75
413.69	219.30
414.07	219.80
414.44	220.44
414.82	221.20
415.19	222.03
415.56	222.83
415.94	223.59
416.31	224.54
416.68	225.39
417.06	226.36
417.43	227.35
417.81	228.45
418.18	229.57
418.55	230.83
418.93	232.24
419.30	233.55
419.67	234.93
420.04	236.35
420.42	237.87
420.79	239.70
421.16	241.36
421.54	243.15
421.91	245.07
422.28	247.01
422.66	248.96
423.03	250.93
423.40	253.03
423.77	255.26
424.15	257.45
424.52	259.84
424.89	262.46
425.26	265.01
425.64	267.30
426.01	269.85
426.38	272.51
426.75	275.24
427.13	278.05
427.50	281.02
427.87	284.12
428.24	287.24
428.61	290.15
428.99	293.37
429.36	296.84
429.73	300.28
430.10	303.69
430.47	307.18
430.85	310.91
431.22	314.82
431.59	319.01
431.96	322.91
432.33	327.28
432.70	331.42
433.08	336.25
433.45	340.88
433.82	345.43
434.19	350.48
434.56	355.45
434.93	360.25
435.30	365.03
435.68	370.28
436.05	375.45
436.42	380.59
436.79	385.40
437.16	390.46
437.53	395.81
437.90	401.11
438.27	406.49
438.64	411.81
439.01	416.67
439.38	421.03
439.75	425.23
440.13	430.02
440.50	434.53
440.87	438.13
441.24	441.91
441.61	446.16
441.98	449.35
442.35	452.98
442.72	456.66
443.09	460.16
443.46	462.30
443.83	463.66
444.20	464.76
444.57	466.41
444.94	467.20
445.31	467.82
445.68	468.54
446.05	468.67
446.42	467.95
446.79	467.12
447.16	466.28
447.53	465.81
447.90	463.65
448.27	461.70
448.64	458.93
449.01	456.82
449.37	453.24
449.74	449.70
450.11	445.57
450.48	441.03
450.85	436.42
451.22	432.35
451.59	428.66
451.96	425.16
452.33	420.40
452.70	416.09
453.07	410.95
453.43	405.72
453.80	400.79
454.17	396.03
454.54	391.54
454.91	386.73
455.28	381.92
455.65	377.55
456.02	373.16
456.38	369.42
456.75	364.91
457.12	361.17
457.49	357.30
457.86	353.52
458.23	350.40
458.59	346.92
458.96	343.40
459.33	340.20
459.70	337.02
460.07	334.61
460.43	331.72
460.80	329.15
461.17	326.74
461.54	324.23
461.91	321.92
462.27	319.65
462.64	317.48
463.01	315.24
463.38	313.15
463.74	310.88
464.11	308.97
464.48	307.36
464.85	305.40
465.21	304.12
465.58	302.70
465.95	300.91
466.32	299.50
466.68	298.13
467.05	296.73
467.42	295.40
467.78	293.88
468.15	292.56
468.52	291.62
468.88	290.34
469.25	289.12
469.62	288.15
469.98	287.11
470.35	286.24
470.72	285.38
471.08	284.34
471.45	283.61
471.82	282.92
472.18	282.00
472.55	281.45
472.92	280.71
473.28	280.17
473.65	279.50
474.02	278.84
474.38	278.39
474.75	278.03
475.11	277.56
475.48	277.27
475.85	277.08
476.21	276.88
476.58	276.80
476.94	276.76
477.31	276.72
477.67	276.62
478.04	276.74
478.41	276.85
478.77	277.33
479.14	277.45
479.50	277.61
479.87	278.00
480.23	278.50
480.60	278.82
480.96	279.12
481.33	279.93
481.69	280.68
482.06	281.32
482.42	282.07
482.79	282.83
483.15	283.68
483.52	284.58
483.88	285.50
484.25	286.41
484.61	287.50
484.98	288.62
485.34	290.05
485.71	291.41
486.07	292.80
486.44	294.09
486.80	295.64
487.17	297.27
487.53	299.00
487.90	300.79
488.26	302.80
488.62	304.92
488.99	306.91
489.35	308.99
489.72	311.33
490.08	313.63
490.44	316.07
490.81	318.78
491.17	321.46
491.54	324.37
491.90	327.45
492.26	330.66
492.63	334.03
492.99	337.52
493.36	341.23
493.72	345.21
494.08	349.24
494.45	353.59
494.81	358.15
495.17	362.71
495.54	367.55
495.90	372.54
496.26	377.70
496.63	383.16
496.99	389.03
497.35	394.94
497.72	401.27
498.08	407.82
498.44	414.49
498.80	421.65
499.17	429.00
499.53	436.68
499.89	444.69
500.26	452.65
500.62	460.92
500.98	469.49
501.34	478.45
501.71	487.90
502.07	497.46
502.43	507.34
502.79	517.60
503.16	528.15
503.52	539.00
503.88	550.30
504.24	561.91
504.60	573.69
504.97	585.97
505.33	598.35
505.69	611.66
506.05	625.24
506.41	638.82
506.78	652.60
507.14	666.67
507.50	681.06
507.86	696.15
508.22	711.55
508.59	727.14
508.95	743.04
509.31	759.21
509.67	775.93
510.03	792.94
510.39	810.51
510.75	828.44
511.12	846.60
511.48	864.90
511.84	883.51
512.20	902.12
512.56	921.53
512.92	941.09
513.28	960.47
513.64	980.06
514.00	1000.05
514.37	1020.40
514.73	1041.35
515.09	1062.36
515.45	1083.19
515.81	1104.31
516.17	1125.65
516.53	1146.92
516.89	1168.50
517.25	1189.95
517.61	1211.61
517.97	1232.96
518.33	1254.41
518.69	1276.16
519.05	1298.31
519.41	1320.58
519.77	1343.12
520.13	1365.10
520.49	1387.04
520.85	1409.61
521.21	1432.09
521.57	1455.02
521.93	1476.99
522.29	1499.50
522.65	1521.90
523.01	1544.50
523.37	1566.55
523.73	1588.93
524.09	1611.29
524.45	1633.44
524.81	1656.02
525.17	1678.43
525.53	1700.84
525.89	1723.08
526.25	1745.18
526.61	1766.28
526.97	1787.82
527.33	1809.13
527.68	1830.39
528.04	1851.78
528.40	1872.16
528.76	1892.85
529.12	1913.26
529.48	1934.96
529.84	1955.49
530.20	1975.88
530.56	1996.40
530.91	2017.45
531.27	2037.87
531.63	2058.09
531.99	2078.19
532.35	2097.37
532.71	2116.33
533.07	2135.91
533.42	2154.53
533.78	2173.22
534.14	2191.81
534.50	2209.22
534.86	2227.56
535.21	2244.38
535.57	2262.01
535.93	2279.54
536.29	2296.37
536.65	2313.09
537.00	2328.79
537.36	2344.07
537.72	2359.43
538.08	2374.37
538.44	2389.09
538.79	2404.37
539.15	2419.22
539.51	2433.45
539.87	2448.51
540.22	2463.15
540.58	2477.98
540.94	2492.31
541.29	2505.54
541.65	2518.06
542.01	2531.19
542.37	2542.80
542.72	2555.31
543.08	2566.42
543.44	2578.34
543.79	2588.71
544.15	2599.23
544.51	2610.00
544.87	2620.95
545.22	2630.40
545.58	2638.97
545.94	2646.58
546.29	2652.66
546.65	2658.83
547.01	2665.42
547.36	2671.21
547.72	2676.80
548.07	2680.90
548.43	2684.77
548.79	2688.32
549.14	2693.12
549.50	2697.49
549.86	2701.82
550.21	2705.94
550.57	2710.30
550.92	2712.66
551.28	2715.15
551.64	2717.82
551.99	2720.11
552.35	2721.72
552.70	2724.30
553.06	2727.25
553.41	2730.30
553.77	2733.65
554.13	2735.80
554.48	2737.90
554.84	2739.15
555.19	2739.53
555.55	2740.13
555.90	2740.97
556.26	2741.79
556.61	2741.51
556.97	2740.23
557.32	2739.36
557.68	2737.54
558.03	2735.84
558.39	2734.38
558.74	2734.62
559.10	2732.96
559.45	2731.27
559.81	2730.31
560.16	2727.11
560.52	2724.65
560.87	2721.75
561.23	2718.03
561.58	2715.69
561.94	2712.23
562.29	2708.71
562.64	2706.91
563.00	2704.35
563.35	2702.13
563.71	2700.55
564.06	2698.26
564.42	2696.40
564.77	2694.18
565.12	2692.60
565.48	2689.40
565.83	2686.55
566.19	2682.98
566.54	2678.99
566.89	2675.20
567.25	2671.21
567.60	2668.35
567.96	2664.54
568.31	2661.11
568.66	2657.41
569.02	2652.95
569.37	2648.07
569.72	2644.24
570.08	2638.26
570.43	2632.41
570.78	2626.43
571.14	2619.80
571.49	2613.20
571.84	2607.36
572.20	2600.19
572.55	2593.35
572.90	2586.75
573.26	2579.84
573.61	2572.75
573.96	2565.89
574.31	2557.81
574.67	2549.86
575.02	2541.53
575.37	2532.83
575.72	2523.69
576.08	2515.86
576.43	2507.33
576.78	2499.22
577.13	2491.22
577.49	2483.49
577.84	2475.85
578.19	2468.28
578.54	2460.73
578.90	2454.17
579.25	2445.40
579.60	2436.57
579.95	2427.69
580.30	2419.61
580.66	2411.31
581.01	2402.09
581.36	2393.04
581.71	2384.90
582.06	2376.30
582.42	2367.89
582.77	2359.30
583.12	2350.31
583.47	2341.55
583.82	2333.20
584.17	2324.19
584.53	2314.97
584.88	2305.91
585.23	2297.06
585.58	2287.60
585.93	2277.96
586.28	2268.40
586.63	2259.53
586.98	2251.28
587.34	2242.78
587.69	2233.57
588.04	2224.38
588.39	2216.28
588.74	2207.41
589.09	2198.77
589.44	2189.00
589.79	2180.52
590.14	2172.28
590.49	2164.07
590.84	2155.27
591.19	2146.85
591.54	2138.24
591.89	2128.25
592.25	2119.43
592.60	2109.62
592.95	2100.19
593.30	2090.93
593.65	2081.13
594.00	2071.16
594.35	2063.00
594.70	2053.73
595.05	2044.86
595.40	2036.07
595.75	2026.31
596.10	2017.87
596.45	2009.31
596.80	2001.89
597.15	1993.70
597.50	1984.74
597.85	1976.31
598.19	1967.53
598.54	1958.92
598.89	1950.94
599.24	1944.19
599.59	1936.19
599.94	1929.22
600.29	1921.40
600.64	1913.28
600.99	1905.04
601.34	1898.11
601.69	1889.35
602.04	1881.16
602.39	1872.93
602.74	1865.27
603.08	1858.60
603.43	1851.48
603.78	1843.53
604.13	1835.21
604.48	1827.02
604.83	1820.18
605.18	1812.85
605.53	1805.26
605.87	1797.77
606.22	1790.71
606.57	1782.82
606.92	1775.02
607.27	1766.98
607.62	1759.79
607.96	1753.26
608.31	1746.83
608.66	1738.75
609.01	1731.12
609.36	1723.52
609.70	1715.51
610.05	1707.42
610.40	1698.74
610.75	1690.24
611.10	1682.46
611.44	1673.50
611.79	1664.64
612.14	1655.03
612.49	1645.61
612.83	1636.78
613.18	1626.99
613.53	1617.25
613.88	1607.48
614.22	1598.35
614.57	1589.11
614.92	1579.49
615.27	1569.77
615.61	1559.78
615.96	1551.04
616.31	1542.26
616.65	1534.08
617.00	1525.90
617.35	1517.47
617.70	1509.13
618.04	1500.04
618.39	1490.45
618.74	1482.07
619.08	1473.27
619.43	1465.08
619.78	1457.03
620.12	1449.07
620.47	1441.38
620.82	1433.02
621.16	1424.67
621.51	1416.24
621.85	1407.85
622.20	1399.51
622.55	1391.08
622.89	1382.95
623.24	1375.11
623.59	1366.39
623.93	1357.82
624.28	1349.80
624.62	1341.32
624.97	1332.96
625.32	1325.26
625.66	1318.03
626.01	1310.73
626.35	1303.47
626.70	1295.90
627.04	1288.52
627.39	1280.58
627.73	1273.05
628.08	1266.04
628.43	1258.73
628.77	1251.54
629.12	1244.08
629.46	1237.44
629.81	1230.31
630.15	1223.24
630.50	1215.59
630.84	1208.59
631.19	1201.47
631.53	1194.32
631.88	1187.13
632.22	1179.58
632.57	1172.57
632.91	1165.05
633.26	1157.51
633.60	1150.34
633.95	1143.52
634.29	1136.36
634.64	1129.77
634.98	1122.69
635.32	1115.85
635.67	1109.36
636.01	1102.77
636.36	1096.15
636.70	1089.53
637.05	1083.08
637.39	1076.83
637.73	1070.38
638.08	1064.63
638.42	1058.81
638.77	1052.33
639.11	1045.96
639.45	1040.00
639.80	1033.37
640.14	1026.96
640.49	1020.73
640.83	1014.47
641.17	1008.08
641.52	1001.90
641.86	995.43
642.20	989.08
642.55	982.03
642.89	975.52
643.23	968.96
643.58	962.94
643.92	956.43
644.26	950.12
644.61	943.75
644.95	937.83
645.29	931.35
645.64	924.67
645.98	918.57
646.32	912.71
646.66	906.47
647.01	900.54
647.35	894.89
647.69	888.57
648.04	882.55
648.38	876.36
648.72	870.33
649.06	864.39
649.41	858.63
649.75	853.00
650.09	847.27
650.43	841.43
650.78	835.42
651.12	829.32
651.46	823.29
651.80	817.50
652.14	811.59
652.49	805.64
652.83	799.75
653.17	793.49
653.51	787.50
653.85	781.91
654.20	776.08
654.54	770.13
654.88	764.94
655.22	759.08
655.56	753.35
655.90	747.47
656.25	741.65
656.59	736.15
656.93	731.09
657.27	725.82
657.61	720.33
657.95	715.09
658.29	709.96
658.64	704.92
658.98	699.72
659.32	694.40
659.66	689.21
660.00	683.87
660.34	678.90
660.68	673.83
661.02	668.94
661.36	664.24
661.70	659.45
662.05	654.64
662.39	650.37
662.73	646.11
663.07	641.90
663.41	637.68
663.75	632.90
664.09	628.13
664.43	623.46
664.77	619.30
665.11	614.83
665.45	610.58
665.79	606.16
666.13	601.82
666.47	597.53
666.81	593.63
667.15	589.62
667.49	585.77
667.83	581.85
668.17	577.85
668.51	573.97
668.85	570.20
669.19	566.39
669.53	562.51
669.87	558.31
670.21	554.40
670.55	550.37
670.89	547.02
671.23	543.64
671.57	540.03
671.91	536.39
672.25	532.90
672.58	529.25
672.92	525.84
673.26	522.68
673.60	519.52
673.94	515.94
674.28	512.77
674.62	509.53
674.96	506.33
675.30	503.09
675.64	499.99
675.97	496.70
676.31	493.68
676.65	490.64
676.99	488.00
677.33	485.08
677.67	482.34
678.01	479.28
678.34	476.14
678.68	473.31
679.02	470.34
679.36	467.38
679.70	464.52
680.04	461.65
680.37	458.61
680.71	455.70
681.05	453.09
681.39	450.29
681.73	447.68
682.06	445.16
682.40	442.70
682.74	440.10
683.08	437.65
683.42	434.93
683.75	432.36
684.09	429.68
684.43	427.11
684.77	424.44
685.10	421.93
685.44	419.51
685.78	417.08
686.12	414.74
686.45	412.51
686.79	410.24
687.13	408.11
687.46	405.97
687.80	403.80
688.14	401.55
688.48	399.55
688.81	397.27
689.15	394.97
689.49	392.64
689.82	390.36
690.16	388.04
690.50	385.74
690.83	383.53
691.17	381.32
691.51	379.13
691.84	377.09
692.18	375.09
692.52	373.18
692.85	371.27
693.19	369.52
693.52	367.52
693.86	365.53
694.20	363.62
694.53	361.66
694.87	359.66
695.21	357.66
695.54	355.70
695.88	353.82
696.21	351.97
696.55	350.32
696.88	348.55
697.22	346.87
697.56	345.49
697.89	343.81
698.23	342.22
698.56	340.63
698.90	339.10
699.23	337.47
699.57	335.84
699.90	334.12
700.24	332.38
700.58	330.88
700.91	329.58
701.25	328.23
701.58	326.79
701.92	325.38
702.25	323.96
702.59	322.52
702.92	321.14
703.26	319.79
703.59	318.45
703.93	317.35
704.26	316.10
704.60	314.65
704.93	313.41
705.26	312.15
705.60	310.93
705.93	309.63
706.27	308.40
706.60	307.29
706.94	306.23
707.27	305.04
707.61	303.83
707.94	302.54
708.27	301.22
708.61	300.03
708.94	298.96
709.28	297.91
709.61	296.78
709.94	295.76
710.28	294.74
710.61	293.75
710.95	292.54
711.28	291.58
711.61	290.56
711.95	289.66
712.28	288.61
712.61	287.58
712.95	286.70
713.28	285.92
713.61	284.85
713.95	283.99
714.28	283.07
714.61	282.15
714.95	281.33
715.28	280.42
715.61	279.55
715.95	278.71
716.28	277.80
716.61	276.97
716.95	276.08
717.28	275.31
717.61	274.39
717.94	273.61
718.28	272.68
718.61	271.94
718.94	271.07
719.27	270.40
719.61	269.76
719.94	269.05
720.27	268.20
720.60	267.57
720.94	266.88
721.27	266.19
721.60	265.56
721.93	264.84
722.27	264.28
722.60	263.72
722.93	263.05
723.26	262.42
723.59	261.79
723.93	261.23
724.26	260.62
724.59	260.12
724.92	259.55
725.25	259.12
725.59	258.57
725.92	258.04
726.25	257.48
726.58	256.96
726.91	256.38
727.24	255.89
727.57	255.41
727.91	254.82
728.24	254.42
728.57	253.90
728.90	253.49
729.23	252.99
729.56	252.57
729.89	252.07
730.22	251.65
730.55	251.23
730.89	250.80
731.22	250.30
731.55	249.88
731.88	249.45
732.21	248.92
732.54	248.37
732.87	247.96
733.20	247.53
733.53	247.03
733.86	246.68
734.19	246.20
734.52	245.82
734.85	245.50
735.18	245.07
735.51	244.73
735.84	244.35
736.17	243.91
736.50	243.47
736.83	243.37
737.16	242.98
737.49	242.62
737.82	242.20
738.15	241.84
738.48	241.41
738.81	241.04
739.14	240.66
739.47	240.40
739.80	240.12
740.13	239.79
740.46	239.49
740.79	239.10
741.12	238.74
741.45	238.33
741.78	237.98
742.11	237.68
742.44	237.32
742.77	236.98
743.10	236.76
743.43	236.35
743.75	235.81
744.08	235.74
744.41	235.51
744.74	235.17
745.07	234.88
745.40	234.64
745.73	234.44
746.06	234.19
746.39	233.92
746.71	233.58
747.04	233.26
747.37	232.94
747.70	232.70
748.03	232.49
748.36	232.30
748.68	232.02
749.01	231.72
749.34	231.53
749.67	231.37
750.00	231.06
750.33	231.04
750.65	230.77
750.98	230.28
751.31	229.95
751.64	229.80
751.97	229.70
752.29	229.44
752.62	229.13
752.95	228.97
753.28	228.71
753.60	228.44
753.93	228.27
754.26	228.03
754.59	227.79
754.91	227.50
755.24	227.28
755.57	227.06
755.90	226.88
756.22	226.65
756.55	226.36
756.88	226.18
757.20	225.84
757.53	225.69
757.86	225.55
758.19	225.42
758.51	225.21
758.84	224.88
759.17	224.73
759.49	224.52
759.82	224.39
760.15	224.29
760.47	224.19
760.80	224.02
761.13	224.02
761.45	223.86
761.78	223.74
762.11	223.60
762.43	223.42
762.76	223.22
763.08	223.05
763.41	222.91
763.74	222.77
764.06	222.59
764.39	222.40
764.71	222.28
765.04	222.11
765.37	221.93
765.69	221.86
766.02	221.72
766.34	221.60
766.67	221.39
767.00	221.24
767.32	221.19
767.65	221.15
767.97	220.92
768.30	220.83
768.62	220.69
768.95	220.50
769.27	220.42
769.60	220.36
769.92	220.27
770.25	220.12
770.57	219.97
770.90	219.91
771.22	219.85
771.55	219.76
771.87	219.61
772.20	219.50
772.52	219.60
772.85	219.72
773.17	219.64
773.50	219.54
773.82	219.45
774.15	219.24
774.47	219.13
774.80	219.07
775.12	218.97
775.45	218.93
775.77	218.88
776.09	218.80
776.42	218.87
776.74	218.83
777.07	218.79
777.39	218.73
777.72	218.73
778.04	218.65
778.36	218.53
778.69	218.58
779.01	218.61
779.33	218.27
779.66	218.01
779.98	217.99
780.31	217.95
780.63	217.89
780.95	217.90
781.28	217.76
781.60	217.59
781.92	217.50
782.25	217.40
782.57	217.34
782.89	217.22
783.22	217.02
783.54	216.90
783.86	216.82
784.19	216.73
784.51	216.54
784.83	216.48
785.16	216.42
785.48	216.26
785.80	216.14
786.12	216.19
786.45	216.10
786.77	216.08
787.09	215.96
787.42	215.92
787.74	215.84
788.06	215.76
788.38	215.80
788.71	215.76
789.03	215.73
789.35	215.70
789.67	215.70
789.99	215.57
790.32	215.51
790.64	215.53
790.96	215.64
791.28	215.61
791.61	215.53
791.93	215.47
792.25	215.50
792.57	215.56
792.89	215.42
793.21	215.41
793.54	215.29
793.86	215.24
794.18	215.24
794.50	215.19
794.82	215.16
795.14	215.12
795.47	215.12
795.79	215.07
796.11	214.99
796.43	214.87
796.75	214.93
797.07	214.96
797.39	214.91
797.71	214.78
798.04	214.79
798.36	214.80
798.68	214.82
799.00	214.72
799.32	214.64
799.64	214.64
799.96	214.60
800.28	214.63
800.60	214.62
800.92	214.60
801.24	214.57
801.56	214.58
801.89	214.49
802.21	214.48
802.53	214.42
802.85	214.47
803.17	214.60
803.49	214.54
803.81	214.45
804.13	214.38
804.45	214.31
804.77	214.30
805.09	214.22
805.41	214.14
805.73	214.14
806.05	214.05
806.37	214.03
806.69	213.93
807.01	213.94
807.33	213.86
807.65	213.71
807.97	213.81
808.28	213.77
808.60	213.75
808.92	213.69
809.24	213.84
809.56	213.79
809.88	213.67
810.20	213.70
810.52	213.72
810.84	213.70
811.16	213.67
811.48	213.64
811.80	213.73
812.12	213.79
812.43	213.74
812.75	213.71
813.07	213.69
813.39	213.75
813.71	213.65
814.03	213.67
814.35	213.67
814.67	213.46
814.98	213.47
815.30	213.44
815.62	213.40
815.94	213.21
816.26	213.18
816.58	213.14
816.89	213.10
817.21	213.06
817.53	213.00
817.85	212.97
818.17	212.90
818.48	212.73
818.80	212.65
819.12	212.59
819.44	212.56
819.76	212.50
820.07	212.46
820.39	212.47
820.71	212.47
821.03	212.50
821.34	212.50
821.66	212.45
821.98	212.44
822.30	212.41
822.61	212.51
822.93	212.47
823.25	212.42
823.57	212.34
823.88	212.36
824.20	212.35
824.52	212.41
824.83	212.45
825.15	212.51
825.47	212.48
825.79	212.56
826.10	212.56
826.42	212.58
826.74	212.56
827.05	212.55
827.37	212.53
827.69	212.42
828.00	212.44
828.32	212.44
828.64	212.41
828.95	212.49
829.27	212.43
829.58	212.40
829.90	212.43
830.22	212.50
830.53	212.39
830.85	212.34
831.17	212.22
831.48	212.15
831.80	212.13
832.11	212.18
832.43	212.12
832.75	212.09
833.06	212.16
833.38	212.08
833.69	212.02
834.01	212.03
834.32	212.04
834.64	211.95
834.96	211.96
835.27	211.97
835.59	211.88
835.90	211.85
836.22	211.89
836.53	211.87
836.85	211.78
837.16	212.02
837.48	212.07
837.79	212.18
838.11	212.22
838.42	212.20
838.74	212.17
839.05	212.17
839.37	212.17
839.68	212.00
840.00	212.01
840.31	212.05
840.63	212.06
840.94	212.05
841.26	212.12
841.57	212.11
841.88	212.09
842.20	212.08
842.51	212.07
842.83	212.00
843.14	212.18
843.46	212.18
843.77	212.09
844.08	212.01
844.40	211.99
844.71	212.02
845.03	211.95
845.34	211.91
845.65	211.87
845.97	211.82
846.28	211.88
846.60	211.92
846.91	211.86
847.22	211.84
847.54	211.87
847.85	211.87
848.16	211.80
848.48	211.78
848.79	211.82
849.10	211.82
849.42	211.83
849.73	211.56
850.04	211.56
850.36	211.47
850.67	211.49
850.98	211.41
851.30	211.36
851.61	211.40
851.92	211.39
852.23	211.46
852.55	211.50
852.86	211.45
853.17	211.43
853.49	211.43
853.80	211.41
854.11	211.46
854.42	211.45
854.74	211.44
855.05	211.47
855.36	211.39
855.67	211.43
855.99	211.40
856.30	211.67
856.61	211.67
856.92	211.60
857.23	211.66
857.55	211.63
857.86	211.61
858.17	211.63
858.48	211.62
858.79	211.57
859.11	211.56
859.42	211.66
859.73	211.68
860.04	211.73
860.35	211.70
860.66	211.58
860.98	211.55
861.29	211.62
861.60	211.61
861.91	211.65
862.22	211.58
862.53	211.61
862.84	211.36
863.16	211.38
863.47	211.40
863.78	211.40
864.09	211.42
864.40	211.42
864.71	211.49
865.02	211.46
865.33	211.46
865.64	211.47
865.95	211.39
866.27	211.43
866.58	211.41
866.89	211.49
867.20	211.50
867.51	211.48
867.82	211.49
868.13	211.54
868.44	211.46
868.75	211.41
869.06	211.49
869.37	211.61
869.68	211.59
869.99	211.62
870.30	211.50
870.61	211.52
870.92	211.52
871.23	211.43
871.54	211.53
871.85	211.52
872.16	211.44
872.47	211.47
872.78	211.42
873.09	211.42
873.40	211.35
873.71	211.37
874.02	211.38
874.33	211.36
874.64	211.33
874.95	211.40
875.26	211.47
875.56	211.40
875.87	211.31
876.18	211.30
876.49	211.54
876.80	211.59
877.11	211.58
877.42	211.63
877.73	211.62
878.04	211.53
878.35	211.65
878.66	211.72
878.96	211.69
879.27	211.74
879.58	211.76
879.89	211.76
880.20	211.80
880.51	211.85
880.82	211.79
881.12	211.84
881.43	211.81
881.74	211.73
882.05	211.71
882.36	211.78
882.67	211.78
882.97	211.53
883.28	211.54
883.59	211.55
883.90	211.59
884.21	211.66
884.51	211.66
884.82	211.53
885.13	211.59
885.44	211.56
885.74	211.57
886.05	211.55
886.36	211.50
886.67	211.46
886.98	211.53
887.28	211.62
887.59	211.58
887.90	211.58
888.20	211.65
888.51	211.69
888.82	211.63
889.13	211.65
889.43	211.89
889.74	211.87
890.05	211.85
890.35	211.86
890.66	211.81
890.97	211.90
891.28	211.93
891.58	211.86
891.89	211.84
892.20	211.73
892.50	211.71
892.81	211.72
893.12	211.75
893.42	211.67
893.73	211.61
894.04	211.60
894.34	211.61
894.65	211.59
894.95	211.53
895.26	211.53
895.57	211.53
895.87	211.28
896.18	211.32
896.48	211.29
896.79	211.16
897.10	211.13
897.40	211.10
897.71	211.14
898.01	211.17
898.32	211.19
898.63	211.21
898.93	211.20
899.24	211.21
899.54	211.21
899.85	211.19
900.15	211.21
900.46	211.26
900.76	211.21
901.07	211.20
901.38	211.22
901.68	211.29
901.99	211.24
902.29	211.26
902.60	211.26
902.90	211.34
903.21	211.40
903.51	211.42
903.82	211.42
904.12	211.38
904.43	211.41
904.73	211.45
905.03	211.46
905.34	211.64
905.64	211.66
905.95	211.64
906.25	211.62
906.56	211.57
906.86	211.52
907.17	211.59
907.47	211.63
907.77	211.65
908.08	211.57
908.38	211.59
908.69	211.58
908.99	211.51
909.30	211.50
909.60	211.51
909.90	211.49
910.21	211.43
910.51	211.42
910.81	211.38
911.12	211.37
911.42	211.38
911.73	211.14
912.03	211.19
912.33	211.19
912.64	211.17
912.94	211.18
913.24	211.12
913.55	211.06
913.85	211.03
914.15	211.05
914.46	211.12
914.76	211.14
915.06	211.15
915.37	211.19
915.67	211.12
915.97	211.08
916.27	211.09
916.58	211.12
916.88	211.07
917.18	211.10
917.49	211.24
917.79	211.19
918.09	211.25
918.39	211.26
918.70	211.29
919.00	211.32
919.30	211.35
919.60	211.40
919.91	211.41
920.21	211.38
920.51	211.32
920.81	211.35
921.12	211.36
921.42	211.33
921.72	211.39
922.02	211.45
922.32	211.43
922.63	211.46
922.93	211.57
923.23	211.60
923.53	211.62
923.83	211.47
924.13	211.54
924.44	211.54
924.74	211.55
925.04	211.50
925.34	211.51
925.64	211.46
925.94	211.43
926.24	211.58
926.55	211.53
926.85	211.53
927.15	211.47
927.45	211.51
927.75	211.42
928.05	211.37
928.35	211.27
928.65	211.30
928.95	211.30
929.26	211.19
929.56	211.21
929.86	211.20
930.16	211.20
930.46	211.12
930.76	211.20
931.06	211.12
931.36	211.15
931.66	211.08
931.96	211.07
932.26	211.11
932.56	210.95
932.86	211.07
933.16	211.05
933.46	210.98
933.76	210.90
934.06	211.05
934.36	211.06
934.66	211.07
934.96	211.06
935.26	210.97
935.56	210.99
935.86	210.92
936.16	210.92
936.46	210.88
936.76	210.94
937.06	210.87
937.36	210.92
937.66	210.93
937.96	211.00
938.26	210.96
938.56	210.92
938.86	211.00
939.16	210.93
939.46	210.96
939.76	211.04
940.06	211.01
940.35	210.91
940.65	210.86
940.95	210.94
941.25	210.91
941.55	210.93
941.85	210.96
942.15	211.04
942.45	211.04
942.75	211.04
943.04	211.00
943.34	211.03
943.64	211.00
943.94	210.95
944.24	210.92
944.54	210.97
944.84	211.05
945.13	210.98
945.43	211.00
945.73	211.04
946.03	210.99
946.33	211.05
946.62	211.12
946.92	211.13
947.22	211.16
947.52	211.20
947.82	211.22
948.11	211.13
948.41	211.05
948.71	211.03
949.01	211.13
949.31	211.10
949.60	211.07
949.90	211.05
950.20	210.96
950.50	211.01
950.79	210.99
951.09	210.94
951.39	210.91
951.69	210.88
951.98	210.95
952.28	211.04
952.58	210.99
952.87	210.95
953.17	210.96
953.47	210.95
953.76	210.95
954.06	210.98
954.36	211.00
954.66	211.03
954.95	211.04
955.25	210.98
955.55	211.05
955.84	211.01
956.14	211.04
956.44	211.18
956.73	211.14
957.03	211.15
957.32	211.19
957.62	211.22
957.92	211.30
958.21	211.20
958.51	211.33
958.81	211.37
959.10	211.41
959.40	211.47
959.69	211.41
959.99	211.40
960.29	211.43
960.58	211.38
960.88	211.46
961.17	211.58
961.47	211.60
961.76	211.59
962.06	211.69
962.36	211.64
962.65	211.60
962.95	211.58
963.24	211.64
963.54	211.64
963.83	211.62
964.13	211.53
964.42	211.50
964.72	211.38
965.01	211.30
965.31	211.27
965.60	211.20
965.90	211.32
966.19	211.24
966.49	211.23
966.78	211.23
967.08	211.14
967.37	211.01
967.67	210.95
967.96	210.93
968.26	210.90
968.55	211.00
968.85	211.03
969.14	211.08
969.43	211.04
969.73	211.02
970.02	211.03
970.32	211.09
970.61	211.10
970.91	211.10
971.20	211.15
971.49	211.15
971.79	211.19
972.08	211.03
972.38	211.03
972.67	211.02
972.96	211.08
973.26	211.10
973.55	211.14
973.85	211.13
974.14	211.14
974.43	211.14
974.73	211.10
975.02	211.05
975.31	211.12
975.61	211.07
975.90	211.03
976.19	210.99
976.49	210.99
976.78	210.97
977.07	210.94
977.37	210.93
977.66	210.92
977.95	210.87
978.24	211.01
978.54	211.15
978.83	211.11
979.12	211.12
979.42	211.15
979.71	211.19
980.00	211.20
980.29	211.23
980.59	211.20
980.88	211.20
981.17	211.19
981.46	211.12
981.76	211.20
982.05	211.26
982.34	211.27
982.63	211.18
982.93	211.19
983.22	211.18
983.51	211.25
983.80	211.31
984.09	211.32
984.39	211.24
984.68	211.17
984.97	211.18
985.26	211.13
985.55	211.15
985.85	211.04
986.14	211.08
986.43	211.11
986.72	211.11
987.01	211.07
987.30	211.04
987.59	211.01
987.89	211.03
988.18	210.96
988.47	210.91
988.76	210.96
989.05	210.97
989.34	210.95
989.63	210.90
989.92	210.80
990.22	210.79
990.51	210.74
990.80	210.75
991.09	210.75
991.38	210.81
991.67	210.80
991.96	210.80
992.25	210.79
992.54	210.75
992.83	210.71
993.12	210.71
993.41	210.76
993.70	210.83
993.99	210.81
994.28	210.82
994.58	210.90
994.87	210.89
995.16	210.87
995.45	210.86
995.74	210.93
996.03	211.02
996.32	211.12
996.61	211.19
996.90	211.16
997.19	211.19
997.48	211.19
997.77	211.17
998.06	211.19
998.34	211.23
998.63	211.19
998.92	211.24
999.21	211.31
999.50	211.34
999.79	211.29
1000.08	211.28
1000.37	211.26
1000.66	211.30
1000.95	211.35
1001.24	211.36
1001.53	211.40
1001.82	211.27
1002.11	211.23
1002.40	211.17
1002.68	211.22
1002.97	211.31
1003.26	211.29
1003.55	211.21
1003.84	211.22
1004.13	211.21
1004.42	211.16
1004.71	211.19
1004.99	211.20
1005.28	211.17
1005.57	211.14
1005.86	211.06
1006.15	211.10
1006.44	211.12
1006.72	211.05
1007.01	210.98
1007.30	211.02
1007.59	211.05
1007.88	211.04
1008.17	211.09
1008.45	211.01
1008.74	210.93
1009.03	210.86
1009.32	210.87
1009.60	210.90
1009.89	210.88
1010.18	210.87
1010.47	210.87
1010.76	210.82
1011.04	210.80
1011.33	210.83
1011.62	210.80
1011.91	210.96
1012.19	210.90
1012.48	210.94
1012.77	210.98
1013.05	211.05
1013.34	211.03
1013.63	210.98
1013.92	211.04
1014.20	210.93
1014.49	211.00
1014.78	211.02
1015.06	210.99
1015.35	210.94
1015.64	210.99
1015.92	210.98
1016.21	210.99
1016.50	210.98
1016.78	211.01
1017.07	211.00
1017.36	210.93
1017.64	211.00
1017.93	210.93
1018.22	210.89
1018.50	210.85
1018.79	210.87
1019.08	210.80
1019.36	210.80
1019.65	210.83
1019.93	210.85
1020.22	210.94
1020.51	210.98
1020.79	211.00
1021.08	210.20
1021.36	210.55
1021.65	211.40
1021.94	210.50
1022.22	210.80
1022.51	211.35
1022.79	211.35
1023.08	211.50
1023.36	212.50
1023.65	211.25
>>>>>End Processed Spectral Data<<<<<
