SpectraSuite Data File
++++++++++++++++++++++++++++++++++++
Date: Mon Feb 25 17:30:56 EST 2013
User: group
Dark Spectrum Present: No
Reference Spectrum Present: No
Number of Sampled Component Spectra: 1
Spectrometers: USB2E7196
Integration Time (usec): 52000 (USB2E7196)
Spectra Averaged: 20 (USB2E7196)
Boxcar Smoothing: 10 (USB2E7196)
Correct for Electrical Dark: No (USB2E7196)
Strobe/Lamp Enabled: No (USB2E7196)
Correct for Detector Non-linearity: No (USB2E7196)
Correct for Stray Light: No (USB2E7196)
Number of Pixels in Processed Spectrum: 2048
>>>>>Begin Processed Spectral Data<<<<<
339.09	0.00
339.48	198.85
339.86	200.20
340.24	201.55
340.63	203.20
341.01	208.15
341.39	205.95
341.78	206.50
342.16	209.25
342.54	209.65
342.93	198.41
343.31	208.47
343.69	209.06
344.07	209.58
344.46	210.09
344.84	210.47
345.22	210.63
345.60	210.93
345.99	211.20
346.37	211.34
346.75	211.41
347.13	211.57
347.52	211.65
347.90	211.76
348.28	211.87
348.66	211.94
349.05	211.95
349.43	212.13
349.81	212.15
350.19	212.27
350.57	212.36
350.96	212.43
351.34	212.45
351.72	212.50
352.10	212.56
352.48	212.62
352.87	212.73
353.25	212.84
353.63	212.83
354.01	212.89
354.39	212.97
354.77	213.05
355.15	213.08
355.54	213.08
355.92	213.06
356.30	213.11
356.68	213.21
357.06	213.30
357.44	213.33
357.82	213.47
358.20	213.53
358.58	213.48
358.97	213.48
359.35	213.57
359.73	213.65
360.11	213.68
360.49	213.67
360.87	213.71
361.25	213.68
361.63	213.86
362.01	213.85
362.39	213.83
362.77	213.88
363.15	213.88
363.53	213.95
363.91	213.96
364.29	213.93
364.67	213.81
365.05	213.79
365.43	213.74
365.81	213.70
366.19	213.70
366.57	213.82
366.95	213.82
367.33	213.78
367.71	213.70
368.09	213.74
368.47	213.70
368.85	213.60
369.23	213.63
369.61	213.54
369.99	213.59
370.37	213.56
370.75	213.59
371.13	213.49
371.51	213.38
371.89	213.39
372.27	213.33
372.65	213.31
373.03	213.23
373.41	213.19
373.78	213.16
374.16	213.09
374.54	212.96
374.92	212.87
375.30	212.87
375.68	212.86
376.06	212.84
376.44	212.83
376.82	212.85
377.19	212.85
377.57	212.68
377.95	212.59
378.33	212.58
378.71	212.44
379.09	212.48
379.47	212.50
379.84	212.43
380.22	212.44
380.60	212.34
380.98	212.33
381.36	212.25
381.73	212.11
382.11	212.14
382.49	212.10
382.87	212.08
383.25	212.03
383.62	212.21
384.00	212.15
384.38	212.12
384.76	212.13
385.13	212.12
385.51	212.20
385.89	212.14
386.27	212.09
386.64	212.10
387.02	212.03
387.40	211.98
387.78	211.99
388.15	211.91
388.53	211.99
388.91	211.95
389.29	211.96
389.66	212.03
390.04	211.90
390.42	211.90
390.79	211.84
391.17	211.82
391.55	211.65
391.92	211.60
392.30	211.59
392.68	211.52
393.05	211.50
393.43	211.45
393.81	211.44
394.18	211.45
394.56	211.43
394.94	211.46
395.31	211.50
395.69	211.55
396.06	211.62
396.44	211.50
396.82	211.55
397.19	211.67
397.57	211.71
397.95	211.72
398.32	211.74
398.70	211.87
399.07	211.94
399.45	211.92
399.82	211.95
400.20	211.98
400.58	212.00
400.95	211.94
401.33	211.99
401.70	212.22
402.08	212.29
402.45	212.26
402.83	212.39
403.20	212.39
403.58	212.41
403.95	212.50
404.33	212.68
404.71	212.72
405.08	212.91
405.46	212.98
405.83	213.22
406.21	213.38
406.58	213.47
406.96	213.59
407.33	213.78
407.70	213.94
408.08	214.28
408.45	214.50
408.83	214.81
409.20	215.07
409.58	215.20
409.95	215.48
410.33	215.85
410.70	216.10
411.08	216.54
411.45	216.90
411.82	217.26
412.20	217.69
412.57	218.20
412.95	218.48
413.32	219.02
413.69	219.49
414.07	220.03
414.44	220.58
414.82	221.20
415.19	221.96
415.56	222.68
415.94	223.30
416.31	224.17
416.68	224.96
417.06	225.90
417.43	226.86
417.81	227.97
418.18	229.07
418.55	230.25
418.93	231.45
419.30	232.70
419.67	234.08
420.04	235.43
420.42	236.93
420.79	238.74
421.16	240.41
421.54	242.18
421.91	243.93
422.28	245.88
422.66	247.86
423.03	249.75
423.40	251.78
423.77	253.95
424.15	256.08
424.52	258.37
424.89	260.90
425.26	263.25
425.64	265.45
426.01	268.00
426.38	270.66
426.75	273.26
427.13	276.02
427.50	278.95
427.87	281.99
428.24	284.99
428.61	287.76
428.99	290.92
429.36	294.36
429.73	297.80
430.10	301.15
430.47	304.66
430.85	308.14
431.22	311.93
431.59	316.11
431.96	320.00
432.33	324.27
432.70	328.42
433.08	333.27
433.45	337.78
433.82	342.29
434.19	347.18
434.56	352.09
434.93	356.85
435.30	361.46
435.68	366.59
436.05	371.79
436.42	376.84
436.79	381.48
437.16	386.46
437.53	391.71
437.90	396.89
438.27	402.02
438.64	407.36
439.01	412.29
439.38	416.51
439.75	420.77
440.13	425.44
440.50	429.89
440.87	433.50
441.24	437.30
441.61	441.40
441.98	444.57
442.35	448.25
442.72	451.86
443.09	455.37
443.46	457.34
443.83	458.57
444.20	459.72
444.57	461.40
444.94	462.09
445.31	462.73
445.68	463.48
446.05	463.60
446.42	463.00
446.79	462.26
447.16	461.27
447.53	460.65
447.90	458.67
448.27	456.53
448.64	453.64
449.01	451.67
449.37	448.15
449.74	444.62
450.11	440.49
450.48	436.00
450.85	431.40
451.22	427.50
451.59	423.82
451.96	420.27
452.33	415.59
452.70	411.37
453.07	406.43
453.43	401.36
453.80	396.52
454.17	391.90
454.54	387.48
454.91	382.83
455.28	378.11
455.65	373.79
456.02	369.57
456.38	365.97
456.75	361.35
457.12	357.60
457.49	353.82
457.86	350.16
458.23	346.92
458.59	343.47
458.96	340.19
459.33	337.11
459.70	334.02
460.07	331.57
460.43	328.78
460.80	326.15
461.17	323.70
461.54	321.20
461.91	318.75
462.27	316.39
462.64	314.47
463.01	312.23
463.38	310.25
463.74	308.03
464.11	306.22
464.48	304.57
464.85	302.70
465.21	301.37
465.58	299.91
465.95	298.35
466.32	297.07
466.68	295.60
467.05	294.23
467.42	292.97
467.78	291.52
468.15	290.24
468.52	289.30
468.88	288.11
469.25	287.05
469.62	286.29
469.98	285.33
470.35	284.45
470.72	283.79
471.08	282.79
471.45	282.05
471.82	281.23
472.18	280.46
472.55	279.92
472.92	279.29
473.28	278.78
473.65	278.26
474.02	277.69
474.38	277.33
474.75	277.03
475.11	276.56
475.48	276.32
475.85	276.05
476.21	275.74
476.58	275.68
476.94	275.61
477.31	275.58
477.67	275.59
478.04	275.61
478.41	275.70
478.77	276.01
479.14	276.19
479.50	276.51
479.87	276.87
480.23	277.31
480.60	277.71
480.96	278.06
481.33	278.64
481.69	279.30
482.06	279.85
482.42	280.43
482.79	281.35
483.15	282.25
483.52	283.20
483.88	284.21
484.25	285.19
484.61	286.27
484.98	287.22
485.34	288.49
485.71	289.90
486.07	291.25
486.44	292.60
486.80	294.20
487.17	295.85
487.53	297.76
487.90	299.63
488.26	301.49
488.62	303.51
488.99	305.58
489.35	307.64
489.72	310.00
490.08	312.44
490.44	314.83
490.81	317.47
491.17	320.17
491.54	323.06
491.90	326.03
492.26	329.35
492.63	332.78
492.99	336.26
493.36	339.84
493.72	343.70
494.08	347.66
494.45	351.83
494.81	356.25
495.17	360.63
495.54	365.36
495.90	370.51
496.26	375.86
496.63	381.31
496.99	387.13
497.35	393.14
497.72	399.36
498.08	405.93
498.44	412.65
498.80	419.78
499.17	427.11
499.53	434.79
499.89	442.60
500.26	450.62
500.62	458.91
500.98	467.59
501.34	476.66
501.71	486.18
502.07	495.89
502.43	505.85
502.79	516.10
503.16	526.86
503.52	537.77
503.88	548.92
504.24	560.39
504.60	572.15
504.97	584.34
505.33	596.72
505.69	609.83
506.05	623.18
506.41	636.74
506.78	650.52
507.14	664.65
507.50	679.18
507.86	694.15
508.22	709.31
508.59	724.67
508.95	740.43
509.31	756.29
509.67	772.76
510.03	789.60
510.39	807.05
510.75	824.49
511.12	842.36
511.48	860.50
511.84	878.91
512.20	897.55
512.56	916.66
512.92	935.98
513.28	955.07
513.64	974.66
514.00	994.39
514.37	1014.56
514.73	1035.00
515.09	1055.32
515.45	1075.87
515.81	1096.94
516.17	1118.18
516.53	1139.47
516.89	1160.87
517.25	1182.11
517.61	1203.45
517.97	1224.49
518.33	1245.85
518.69	1267.31
519.05	1289.04
519.41	1310.90
519.77	1333.29
520.13	1355.00
520.49	1376.69
520.85	1398.93
521.21	1420.96
521.57	1443.46
521.93	1465.20
522.29	1487.85
522.65	1510.12
523.01	1532.15
523.37	1553.96
523.73	1575.89
524.09	1597.82
524.45	1619.77
524.81	1641.76
525.17	1663.90
525.53	1686.00
525.89	1707.78
526.25	1729.38
526.61	1750.22
526.97	1771.75
527.33	1792.42
527.68	1813.48
528.04	1834.30
528.40	1854.47
528.76	1874.80
529.12	1895.05
529.48	1916.03
529.84	1935.67
530.20	1955.57
530.56	1975.88
530.91	1996.18
531.27	2016.15
531.63	2035.40
531.99	2054.38
532.35	2073.13
532.71	2091.52
533.07	2110.50
533.42	2128.74
533.78	2147.17
534.14	2165.57
534.50	2182.28
534.86	2199.62
535.21	2216.22
535.57	2233.79
535.93	2250.77
536.29	2267.25
536.65	2283.26
537.00	2298.59
537.36	2313.60
537.72	2328.61
538.08	2343.03
538.44	2357.38
538.79	2372.32
539.15	2387.05
539.51	2401.94
539.87	2416.65
540.22	2430.50
540.58	2445.05
540.94	2459.08
541.29	2471.50
541.65	2482.94
542.01	2495.70
542.37	2507.14
542.72	2518.77
543.08	2529.35
543.44	2540.35
543.79	2550.39
544.15	2560.35
544.51	2570.80
544.87	2581.02
545.22	2589.81
545.58	2598.14
545.94	2605.48
546.29	2611.53
546.65	2617.40
547.01	2623.27
547.36	2628.85
547.72	2634.36
548.07	2638.01
548.43	2641.59
548.79	2645.35
549.14	2650.29
549.50	2654.46
549.86	2658.47
550.21	2662.28
550.57	2666.22
550.92	2668.55
551.28	2670.56
551.64	2672.73
551.99	2674.79
552.35	2676.42
552.70	2678.93
553.06	2681.50
553.41	2684.12
553.77	2686.79
554.13	2688.58
554.48	2690.07
554.84	2691.02
555.19	2691.50
555.55	2691.98
555.90	2691.79
556.26	2692.00
556.61	2691.30
556.97	2689.30
557.32	2688.64
557.68	2686.69
558.03	2684.92
558.39	2683.60
558.74	2683.39
559.10	2681.99
559.45	2680.06
559.81	2678.82
560.16	2676.22
560.52	2673.46
560.87	2670.69
561.23	2666.76
561.58	2664.60
561.94	2661.40
562.29	2657.97
562.64	2655.39
563.00	2652.43
563.35	2650.43
563.71	2648.45
564.06	2646.05
564.42	2644.52
564.77	2642.00
565.12	2640.24
565.48	2636.64
565.83	2633.66
566.19	2630.08
566.54	2625.91
566.89	2621.78
567.25	2617.77
567.60	2614.25
567.96	2610.62
568.31	2606.57
568.66	2602.77
569.02	2598.04
569.37	2592.88
569.72	2589.00
570.08	2583.85
570.43	2578.25
570.78	2572.65
571.14	2566.32
571.49	2559.73
571.84	2553.71
572.20	2546.77
572.55	2540.47
572.90	2534.13
573.26	2527.09
573.61	2519.89
573.96	2513.49
574.31	2506.09
574.67	2498.20
575.02	2489.76
575.37	2481.36
575.72	2472.36
576.08	2464.87
576.43	2456.45
576.78	2448.60
577.13	2440.79
577.49	2433.02
577.84	2425.72
578.19	2418.25
578.54	2411.22
578.90	2404.56
579.25	2396.08
579.60	2387.05
579.95	2377.42
580.30	2369.59
580.66	2361.48
581.01	2353.10
581.36	2343.72
581.71	2335.54
582.06	2327.29
582.42	2319.45
582.77	2310.74
583.12	2302.37
583.47	2293.70
583.82	2285.32
584.17	2276.38
584.53	2267.14
584.88	2257.97
585.23	2248.93
585.58	2239.43
585.93	2229.66
586.28	2220.53
586.63	2211.71
586.98	2204.08
587.34	2196.13
587.69	2187.13
588.04	2178.44
588.39	2170.04
588.74	2161.50
589.09	2153.10
589.44	2143.54
589.79	2134.80
590.14	2126.80
590.49	2118.82
590.84	2109.88
591.19	2102.19
591.54	2094.09
591.89	2084.34
592.25	2075.69
592.60	2066.00
592.95	2056.92
593.30	2047.85
593.65	2038.26
594.00	2028.98
594.35	2020.67
594.70	2011.88
595.05	2003.07
595.40	1994.47
595.75	1985.22
596.10	1977.50
596.45	1968.92
596.80	1961.47
597.15	1953.76
597.50	1944.90
597.85	1936.49
598.19	1928.22
598.54	1919.50
598.89	1911.60
599.24	1904.99
599.59	1897.53
599.94	1891.14
600.29	1883.63
600.64	1875.82
600.99	1867.96
601.34	1860.91
601.69	1852.47
602.04	1844.22
602.39	1836.54
602.74	1828.62
603.08	1822.03
603.43	1814.90
603.78	1806.79
604.13	1798.87
604.48	1790.80
604.83	1784.05
605.18	1777.24
605.53	1770.05
605.87	1762.54
606.22	1755.60
606.57	1747.91
606.92	1740.26
607.27	1732.20
607.62	1725.15
607.96	1718.37
608.31	1712.43
608.66	1704.87
609.01	1697.10
609.36	1690.10
609.70	1682.35
610.05	1674.82
610.40	1666.77
610.75	1658.24
611.10	1651.18
611.44	1642.48
611.79	1633.68
612.14	1624.63
612.49	1614.99
612.83	1606.17
613.18	1596.79
613.53	1587.23
613.88	1577.55
614.22	1568.74
614.57	1559.64
614.92	1550.38
615.27	1541.28
615.61	1531.64
615.96	1522.92
616.31	1514.82
616.65	1506.63
617.00	1498.55
617.35	1490.12
617.70	1481.71
618.04	1473.15
618.39	1463.96
618.74	1455.58
619.08	1447.26
619.43	1439.19
619.78	1432.01
620.12	1424.16
620.47	1416.80
620.82	1408.80
621.16	1400.85
621.51	1392.55
621.85	1384.44
622.20	1376.10
622.55	1367.96
622.89	1359.77
623.24	1351.97
623.59	1343.52
623.93	1335.12
624.28	1326.93
624.62	1319.27
624.97	1311.08
625.32	1303.42
625.66	1296.07
626.01	1289.04
626.35	1281.94
626.70	1274.39
627.04	1266.85
627.39	1259.62
627.73	1252.10
628.08	1245.45
628.43	1238.17
628.77	1231.07
629.12	1223.74
629.46	1217.33
629.81	1210.35
630.15	1203.22
630.50	1195.87
630.84	1188.87
631.19	1181.73
631.53	1174.98
631.88	1167.40
632.22	1160.10
632.57	1153.24
632.91	1145.70
633.26	1138.34
633.60	1131.27
633.95	1124.84
634.29	1117.59
634.64	1111.08
634.98	1104.39
635.32	1097.39
635.67	1091.16
636.01	1084.63
636.36	1078.28
636.70	1071.65
637.05	1065.17
637.39	1058.92
637.73	1052.65
638.08	1046.88
638.42	1041.30
638.77	1034.84
639.11	1028.60
639.45	1022.65
639.80	1016.11
640.14	1010.19
640.49	1004.35
640.83	998.20
641.17	991.59
641.52	985.65
641.86	979.11
642.20	972.86
642.55	966.09
642.89	959.82
643.23	953.54
643.58	947.75
643.92	941.34
644.26	935.33
644.61	929.35
644.95	923.34
645.29	916.96
645.64	910.37
645.98	904.46
646.32	898.74
646.66	892.62
647.01	886.90
647.35	881.21
647.69	874.84
648.04	869.09
648.38	863.40
648.72	857.44
649.06	851.41
649.41	845.46
649.75	839.94
650.09	834.18
650.43	828.33
650.78	822.03
651.12	816.14
651.46	810.45
651.80	804.53
652.14	798.82
652.49	793.15
652.83	787.52
653.17	781.47
653.51	775.88
653.85	770.48
654.20	764.70
654.54	758.68
654.88	753.43
655.22	747.74
655.56	741.98
655.90	736.39
656.25	730.78
656.59	725.33
656.93	720.16
657.27	714.87
657.61	709.44
657.95	704.54
658.29	699.54
658.64	694.46
658.98	689.42
659.32	684.10
659.66	679.06
660.00	673.81
660.34	668.80
660.68	663.64
661.02	658.58
661.36	653.90
661.70	649.40
662.05	644.64
662.39	640.13
662.73	635.81
663.07	631.60
663.41	627.46
663.75	623.16
664.09	618.52
664.43	614.09
664.77	609.99
665.11	605.61
665.45	601.42
665.79	597.07
666.13	592.86
666.47	588.82
666.81	584.74
667.15	580.88
667.49	577.00
667.83	573.12
668.17	569.21
668.51	565.49
668.85	561.72
669.19	558.15
669.53	554.33
669.87	550.54
670.21	546.65
670.55	542.85
670.89	539.45
671.23	536.07
671.57	532.60
671.91	528.95
672.25	525.32
672.58	521.84
672.92	518.46
673.26	515.23
673.60	512.10
673.94	508.89
674.28	505.48
674.62	502.48
674.96	499.40
675.30	496.47
675.64	493.35
675.97	490.28
676.31	487.32
676.65	484.33
676.99	481.64
677.33	478.66
677.67	475.82
678.01	472.69
678.34	469.84
678.68	467.06
679.02	464.30
679.36	461.70
679.70	458.92
680.04	456.09
680.37	453.23
680.71	450.42
681.05	447.71
681.39	445.17
681.73	442.46
682.06	439.91
682.40	437.39
682.74	434.79
683.08	432.33
683.42	429.61
683.75	427.22
684.09	424.50
684.43	422.18
684.77	419.68
685.10	417.23
685.44	414.80
685.78	412.30
686.12	410.09
686.45	407.70
686.79	405.58
687.13	403.50
687.46	401.35
687.80	399.16
688.14	396.89
688.48	394.87
688.81	392.63
689.15	390.47
689.49	388.16
689.82	386.11
690.16	383.84
690.50	381.69
690.83	379.50
691.17	377.44
691.51	375.33
691.84	373.28
692.18	371.32
692.52	369.35
692.85	367.59
693.19	365.73
693.52	363.95
693.86	361.92
694.20	360.05
694.53	358.17
694.87	356.21
695.21	354.42
695.54	352.49
695.88	350.63
696.21	348.85
696.55	347.34
696.88	345.52
697.22	343.84
697.56	342.30
697.89	340.79
698.23	339.24
698.56	337.65
698.90	336.17
699.23	334.55
699.57	333.04
699.90	331.36
700.24	329.66
700.58	328.18
700.91	326.74
701.25	325.35
701.58	323.93
701.92	322.56
702.25	321.13
702.59	319.82
702.92	318.60
703.26	317.27
703.59	315.86
703.93	314.80
704.26	313.57
704.60	312.31
704.93	310.99
705.26	309.74
705.60	308.50
705.93	307.25
706.27	306.14
706.60	305.06
706.94	304.10
707.27	303.02
707.61	301.79
707.94	300.71
708.27	299.48
708.61	298.43
708.94	297.39
709.28	296.39
709.61	295.32
709.94	294.35
710.28	293.32
710.61	292.30
710.95	291.16
711.28	290.28
711.61	289.26
711.95	288.34
712.28	287.33
712.61	286.42
712.95	285.57
713.28	284.75
713.61	283.78
713.95	282.72
714.28	281.85
714.61	281.01
714.95	280.12
715.28	279.25
715.61	278.27
715.95	277.40
716.28	276.50
716.61	275.65
716.95	274.74
717.28	273.91
717.61	273.12
717.94	272.29
718.28	271.47
718.61	270.74
718.94	270.06
719.27	269.33
719.61	268.50
719.94	267.77
720.27	267.00
720.60	266.22
720.94	265.58
721.27	264.90
721.60	264.28
721.93	263.57
722.27	263.03
722.60	262.49
722.93	261.92
723.26	261.40
723.59	260.75
723.93	260.14
724.26	259.51
724.59	258.85
724.92	258.45
725.25	257.81
725.59	257.25
725.92	256.71
726.25	256.21
726.58	255.82
726.91	255.29
727.24	254.80
727.57	254.33
727.91	253.81
728.24	253.44
728.57	252.89
728.90	252.47
729.23	251.94
729.56	251.61
729.89	251.08
730.22	250.62
730.55	250.18
730.89	249.72
731.22	249.40
731.55	248.99
731.88	248.45
732.21	248.03
732.54	247.61
732.87	247.09
733.20	246.64
733.53	246.13
733.86	245.71
734.19	245.29
734.52	244.88
734.85	244.61
735.18	244.11
735.51	243.82
735.84	243.47
736.17	243.11
736.50	242.59
736.83	242.47
737.16	242.09
737.49	241.70
737.82	241.41
738.15	241.06
738.48	240.69
738.81	240.31
739.14	239.99
739.47	239.63
739.80	239.33
740.13	239.03
740.46	238.70
740.79	238.31
741.12	237.87
741.45	237.51
741.78	237.13
742.11	236.90
742.44	236.56
742.77	236.24
743.10	235.94
743.43	235.66
743.75	235.13
744.08	235.14
744.41	234.89
744.74	234.54
745.07	234.23
745.40	234.04
745.73	233.85
746.06	233.61
746.39	233.35
746.71	233.00
747.04	232.71
747.37	232.48
747.70	232.33
748.03	232.11
748.36	232.01
748.68	231.78
749.01	231.43
749.34	231.16
749.67	231.03
750.00	230.77
750.33	230.65
750.65	230.40
750.98	229.92
751.31	229.74
751.64	229.58
751.97	229.38
752.29	229.13
752.62	228.82
752.95	228.54
753.28	228.28
753.60	228.16
753.93	227.98
754.26	227.78
754.59	227.49
754.91	227.32
755.24	227.06
755.57	226.81
755.90	226.69
756.22	226.52
756.55	226.20
756.88	226.02
757.20	225.71
757.53	225.60
757.86	225.32
758.19	225.19
758.51	224.95
758.84	224.80
759.17	224.55
759.49	224.42
759.82	224.42
760.15	224.25
760.47	224.04
760.80	223.87
761.13	223.81
761.45	223.70
761.78	223.56
762.11	223.35
762.43	223.16
762.76	223.01
763.08	222.90
763.41	222.76
763.74	222.64
764.06	222.49
764.39	222.30
764.71	222.22
765.04	222.01
765.37	221.96
765.69	221.73
766.02	221.68
766.34	221.51
766.67	221.24
767.00	221.20
767.32	221.17
767.65	221.15
767.97	220.98
768.30	220.86
768.62	220.74
768.95	220.62
769.27	220.54
769.60	220.44
769.92	220.24
770.25	220.19
770.57	220.11
770.90	220.11
771.22	220.00
771.55	219.94
771.87	219.85
772.20	219.71
772.52	219.83
772.85	219.90
773.17	219.84
773.50	219.77
773.82	219.62
774.15	219.47
774.47	219.26
774.80	219.19
775.12	219.02
775.45	218.95
775.77	218.93
776.09	218.90
776.42	218.73
776.74	218.72
777.07	218.63
777.39	218.48
777.72	218.32
778.04	218.22
778.36	218.04
778.69	218.05
779.01	217.96
779.33	217.67
779.66	217.43
779.98	217.35
780.31	217.30
780.63	217.32
780.95	217.35
781.28	217.29
781.60	217.19
781.92	217.19
782.25	217.21
782.57	217.16
782.89	217.08
783.22	217.09
783.54	216.99
783.86	216.94
784.19	216.85
784.51	216.85
784.83	216.73
785.16	216.81
785.48	216.72
785.80	216.72
786.12	216.73
786.45	216.72
786.77	216.71
787.09	216.66
787.42	216.54
787.74	216.50
788.06	216.48
788.38	216.33
788.71	216.24
789.03	216.14
789.35	216.10
789.67	215.98
789.99	215.95
790.32	215.91
790.64	215.88
790.96	216.02
791.28	215.95
791.61	215.94
791.93	215.84
792.25	215.82
792.57	215.85
792.89	215.77
793.21	215.70
793.54	215.63
793.86	215.57
794.18	215.52
794.50	215.37
794.82	215.26
795.14	215.30
795.47	215.32
795.79	215.27
796.11	215.17
796.43	215.18
796.75	215.13
797.07	215.13
797.39	215.06
797.71	214.91
798.04	214.87
798.36	214.88
798.68	214.80
799.00	214.64
799.32	214.52
799.64	214.54
799.96	214.43
800.28	214.38
800.60	214.36
800.92	214.31
801.24	214.32
801.56	214.35
801.89	214.30
802.21	214.25
802.53	214.25
802.85	214.29
803.17	214.35
803.49	214.31
803.81	214.24
804.13	214.17
804.45	214.08
804.77	214.05
805.09	213.99
805.41	213.99
805.73	214.03
806.05	213.97
806.37	213.89
806.69	213.89
807.01	213.80
807.33	213.73
807.65	213.60
807.97	213.61
808.28	213.60
808.60	213.56
808.92	213.54
809.24	213.53
809.56	213.54
809.88	213.44
810.20	213.43
810.52	213.44
810.84	213.42
811.16	213.44
811.48	213.41
811.80	213.55
812.12	213.44
812.43	213.42
812.75	213.39
813.07	213.33
813.39	213.29
813.71	213.33
814.03	213.35
814.35	213.36
814.67	213.28
814.98	213.18
815.30	213.16
815.62	213.15
815.94	213.03
816.26	212.91
816.58	212.88
816.89	212.87
817.21	212.82
817.53	212.81
817.85	212.67
818.17	212.68
818.48	212.51
818.80	212.56
819.12	212.48
819.44	212.44
819.76	212.43
820.07	212.44
820.39	212.38
820.71	212.39
821.03	212.41
821.34	212.35
821.66	212.43
821.98	212.38
822.30	212.30
822.61	212.41
822.93	212.44
823.25	212.41
823.57	212.37
823.88	212.36
824.20	212.38
824.52	212.45
824.83	212.32
825.15	212.30
825.47	212.29
825.79	212.37
826.10	212.35
826.42	212.37
826.74	212.42
827.05	212.49
827.37	212.50
827.69	212.52
828.00	212.62
828.32	212.60
828.64	212.66
828.95	212.81
829.27	212.75
829.58	212.68
829.90	212.67
830.22	212.67
830.53	212.60
830.85	212.57
831.17	212.53
831.48	212.61
831.80	212.66
832.11	212.69
832.43	212.63
832.75	212.69
833.06	212.76
833.38	212.72
833.69	212.65
834.01	212.62
834.32	212.59
834.64	212.50
834.96	212.53
835.27	212.48
835.59	212.37
835.90	212.37
836.22	212.43
836.53	212.44
836.85	212.40
837.16	212.65
837.48	212.66
837.79	212.70
838.11	212.72
838.42	212.68
838.74	212.76
839.05	212.71
839.37	212.67
839.68	212.62
840.00	212.60
840.31	212.69
840.63	212.64
840.94	212.66
841.26	212.62
841.57	212.57
841.88	212.55
842.20	212.55
842.51	212.52
842.83	212.50
843.14	212.65
843.46	212.66
843.77	212.52
844.08	212.43
844.40	212.37
844.71	212.30
845.03	212.32
845.34	212.26
845.65	212.25
845.97	212.17
846.28	212.10
846.60	212.07
846.91	211.96
847.22	211.93
847.54	211.97
847.85	212.02
848.16	211.99
848.48	212.00
848.79	212.10
849.10	212.08
849.42	212.07
849.73	211.85
850.04	211.88
850.36	211.79
850.67	211.94
850.98	211.92
851.30	211.98
851.61	211.87
851.92	211.79
852.23	211.87
852.55	211.93
852.86	211.97
853.17	211.99
853.49	212.01
853.80	212.03
854.11	211.97
854.42	211.96
854.74	211.97
855.05	212.05
855.36	211.85
855.67	211.81
855.99	211.89
856.30	212.12
856.61	212.08
856.92	212.09
857.23	212.01
857.55	212.00
857.86	211.98
858.17	212.05
858.48	212.08
858.79	212.03
859.11	212.00
859.42	212.00
859.73	211.97
860.04	212.00
860.35	212.00
860.66	211.92
860.98	211.91
861.29	211.87
861.60	211.69
861.91	211.84
862.22	211.82
862.53	211.68
862.84	211.42
863.16	211.43
863.47	211.41
863.78	211.45
864.09	211.47
864.40	211.42
864.71	211.42
865.02	211.38
865.33	211.36
865.64	211.39
865.95	211.32
866.27	211.43
866.58	211.47
866.89	211.49
867.20	211.61
867.51	211.51
867.82	211.50
868.13	211.59
868.44	211.48
868.75	211.50
869.06	211.50
869.37	211.55
869.68	211.50
869.99	211.49
870.30	211.41
870.61	211.43
870.92	211.43
871.23	211.47
871.54	211.51
871.85	211.53
872.16	211.45
872.47	211.48
872.78	211.37
873.09	211.29
873.40	211.18
873.71	211.12
874.02	211.18
874.33	211.21
874.64	211.22
874.95	211.23
875.26	211.19
875.56	211.22
875.87	211.15
876.18	211.13
876.49	211.26
876.80	211.24
877.11	211.21
877.42	211.24
877.73	211.23
878.04	211.24
878.35	211.27
878.66	211.35
878.96	211.31
879.27	211.32
879.58	211.31
879.89	211.38
880.20	211.39
880.51	211.37
880.82	211.38
881.12	211.29
881.43	211.26
881.74	211.25
882.05	211.25
882.36	211.40
882.67	211.43
882.97	211.30
883.28	211.34
883.59	211.39
883.90	211.40
884.21	211.39
884.51	211.36
884.82	211.30
885.13	211.30
885.44	211.30
885.74	211.33
886.05	211.37
886.36	211.37
886.67	211.33
886.98	211.35
887.28	211.40
887.59	211.45
887.90	211.50
888.20	211.53
888.51	211.56
888.82	211.44
889.13	211.45
889.43	211.60
889.74	211.51
890.05	211.49
890.35	211.41
890.66	211.44
890.97	211.41
891.28	211.42
891.58	211.40
891.89	211.42
892.20	211.39
892.50	211.36
892.81	211.29
893.12	211.29
893.42	211.27
893.73	211.20
894.04	211.20
894.34	211.16
894.65	211.17
894.95	211.14
895.26	211.12
895.57	211.21
895.87	211.01
896.18	211.12
896.48	211.13
896.79	211.14
897.10	211.12
897.40	211.10
897.71	211.12
898.01	211.06
898.32	211.07
898.63	211.03
898.93	211.03
899.24	211.10
899.54	211.08
899.85	211.10
900.15	211.06
900.46	211.06
900.76	211.06
901.07	211.01
901.38	211.04
901.68	211.07
901.99	210.96
902.29	211.02
902.60	210.98
902.90	210.91
903.21	210.92
903.51	210.88
903.82	211.00
904.12	210.97
904.43	210.96
904.73	210.85
905.03	210.89
905.34	211.06
905.64	211.03
905.95	211.01
906.25	210.97
906.56	210.99
906.86	210.90
907.17	210.96
907.47	210.92
907.77	210.87
908.08	210.85
908.38	210.83
908.69	210.81
908.99	210.85
909.30	210.92
909.60	210.93
909.90	210.96
910.21	210.78
910.51	210.78
910.81	210.85
911.12	210.95
911.42	210.99
911.73	210.79
912.03	210.79
912.33	210.85
912.64	210.92
912.94	210.97
913.24	211.03
913.55	210.97
913.85	211.00
914.15	211.05
914.46	211.18
914.76	211.20
915.06	211.20
915.37	211.16
915.67	211.20
915.97	211.19
916.27	211.12
916.58	211.21
916.88	211.17
917.18	211.13
917.49	211.27
917.79	211.20
918.09	211.15
918.39	211.20
918.70	211.23
919.00	211.18
919.30	211.25
919.60	211.19
919.91	211.15
920.21	211.21
920.51	211.17
920.81	211.03
921.12	211.06
921.42	211.09
921.72	211.17
922.02	211.14
922.32	211.20
922.63	211.21
922.93	211.28
923.23	211.28
923.53	211.27
923.83	211.08
924.13	211.12
924.44	211.15
924.74	211.17
925.04	211.20
925.34	211.17
925.64	211.10
925.94	211.18
926.24	211.33
926.55	211.26
926.85	211.33
927.15	211.31
927.45	211.29
927.75	211.21
928.05	211.16
928.35	211.14
928.65	211.17
928.95	211.20
929.26	211.12
929.56	211.18
929.86	211.26
930.16	211.31
930.46	211.28
930.76	211.33
931.06	211.27
931.36	211.22
931.66	211.29
931.96	211.29
932.26	211.31
932.56	211.22
932.86	211.25
933.16	211.18
933.46	211.23
933.76	211.25
934.06	211.32
934.36	211.38
934.66	211.37
934.96	211.33
935.26	211.36
935.56	211.41
935.86	211.37
936.16	211.34
936.46	211.29
936.76	211.34
937.06	211.29
937.36	211.27
937.66	211.28
937.96	211.24
938.26	211.18
938.56	211.16
938.86	211.17
939.16	211.22
939.46	211.20
939.76	211.21
940.06	211.16
940.35	211.14
940.65	211.03
940.95	211.01
941.25	210.93
941.55	210.89
941.85	210.97
942.15	211.03
942.45	211.11
942.75	211.11
943.04	211.09
943.34	211.24
943.64	211.23
943.94	211.18
944.24	211.21
944.54	211.32
944.84	211.31
945.13	211.25
945.43	211.17
945.73	211.26
946.03	211.18
946.33	211.20
946.62	211.13
946.92	211.16
947.22	211.20
947.52	211.22
947.82	211.20
948.11	211.10
948.41	211.06
948.71	210.98
949.01	210.96
949.31	210.93
949.60	210.78
949.90	210.82
950.20	210.82
950.50	210.83
950.79	210.79
951.09	210.81
951.39	210.83
951.69	210.92
951.98	210.95
952.28	211.00
952.58	211.06
952.87	211.14
953.17	211.13
953.47	211.06
953.76	211.06
954.06	211.02
954.36	211.03
954.66	211.02
954.95	211.01
955.25	211.09
955.55	211.17
955.84	211.16
956.14	211.20
956.44	211.21
956.73	211.14
957.03	211.00
957.32	210.95
957.62	210.97
957.92	210.91
958.21	210.80
958.51	211.01
958.81	210.94
959.10	210.95
959.40	211.01
959.69	210.99
959.99	211.05
960.29	211.09
960.58	211.07
960.88	211.15
961.17	211.15
961.47	211.09
961.76	210.98
962.06	211.04
962.36	211.00
962.65	210.99
962.95	210.96
963.24	211.05
963.54	211.15
963.83	211.10
964.13	211.11
964.42	211.11
964.72	210.92
965.01	210.91
965.31	210.92
965.60	210.88
965.90	211.04
966.19	210.99
966.49	210.98
966.78	210.94
967.08	210.91
967.37	210.92
967.67	210.92
967.96	211.02
968.26	210.99
968.55	210.99
968.85	211.00
969.14	211.00
969.43	211.02
969.73	210.91
970.02	210.97
970.32	210.96
970.61	210.95
970.91	210.93
971.20	210.90
971.49	210.85
971.79	210.80
972.08	210.60
972.38	210.59
972.67	210.64
972.96	210.65
973.26	210.58
973.55	210.61
973.85	210.60
974.14	210.60
974.43	210.66
974.73	210.58
975.02	210.60
975.31	210.62
975.61	210.57
975.90	210.64
976.19	210.61
976.49	210.64
976.78	210.68
977.07	210.76
977.37	210.75
977.66	210.78
977.95	210.82
978.24	210.92
978.54	211.00
978.83	210.92
979.12	210.90
979.42	210.96
979.71	210.90
980.00	210.93
980.29	210.94
980.59	210.86
980.88	210.93
981.17	210.90
981.46	210.92
981.76	210.96
982.05	210.98
982.34	211.01
982.63	211.05
982.93	211.08
983.22	211.05
983.51	211.16
983.80	211.22
984.09	211.23
984.39	211.18
984.68	211.10
984.97	211.15
985.26	211.22
985.55	211.25
985.85	211.29
986.14	211.33
986.43	211.34
986.72	211.32
987.01	211.27
987.30	211.30
987.59	211.26
987.89	211.25
988.18	211.21
988.47	211.20
988.76	211.20
989.05	211.16
989.34	211.17
989.63	211.12
989.92	211.11
990.22	211.10
990.51	211.14
990.80	211.15
991.09	211.13
991.38	211.10
991.67	211.09
991.96	211.01
992.25	211.01
992.54	210.89
992.83	210.94
993.12	210.97
993.41	211.01
993.70	211.10
993.99	211.12
994.28	211.15
994.58	211.16
994.87	211.10
995.16	211.08
995.45	211.03
995.74	211.00
996.03	210.94
996.32	210.99
996.61	211.01
996.90	210.99
997.19	211.01
997.48	211.03
997.77	211.01
998.06	211.07
998.34	211.03
998.63	211.09
998.92	211.09
999.21	211.13
999.50	211.09
999.79	211.01
1000.08	211.02
1000.37	210.97
1000.66	210.91
1000.95	210.97
1001.24	210.95
1001.53	210.92
1001.82	210.91
1002.11	210.84
1002.40	210.87
1002.68	210.97
1002.97	211.09
1003.26	211.02
1003.55	211.00
1003.84	211.03
1004.13	211.02
1004.42	211.06
1004.71	211.01
1004.99	211.02
1005.28	211.06
1005.57	211.09
1005.86	211.11
1006.15	211.07
1006.44	211.04
1006.72	211.07
1007.01	211.02
1007.30	211.07
1007.59	211.11
1007.88	211.15
1008.17	211.20
1008.45	211.13
1008.74	210.98
1009.03	210.96
1009.32	211.09
1009.60	211.07
1009.89	210.96
1010.18	210.97
1010.47	210.84
1010.76	210.86
1011.04	210.81
1011.33	210.99
1011.62	210.99
1011.91	211.03
1012.19	211.08
1012.48	211.10
1012.77	211.17
1013.05	211.25
1013.34	211.20
1013.63	211.15
1013.92	211.10
1014.20	211.15
1014.49	211.14
1014.78	211.16
1015.06	211.13
1015.35	211.07
1015.64	211.06
1015.92	211.09
1016.21	211.13
1016.50	211.17
1016.78	211.20
1017.07	211.24
1017.36	211.05
1017.64	211.06
1017.93	210.99
1018.22	210.89
1018.50	210.87
1018.79	210.77
1019.08	210.71
1019.36	210.77
1019.65	210.79
1019.93	210.85
1020.22	210.83
1020.51	210.96
1020.79	210.99
1021.08	209.15
1021.36	210.35
1021.65	210.15
1021.94	211.00
1022.22	211.40
1022.51	210.55
1022.79	211.50
1023.08	211.05
1023.36	213.60
1023.65	211.10
>>>>>End Processed Spectral Data<<<<<
