SpectraSuite Data File
++++++++++++++++++++++++++++++++++++
Date: Mon Feb 25 17:32:18 EST 2013
User: group
Dark Spectrum Present: No
Reference Spectrum Present: No
Number of Sampled Component Spectra: 1
Spectrometers: USB2E7196
Integration Time (usec): 52000 (USB2E7196)
Spectra Averaged: 20 (USB2E7196)
Boxcar Smoothing: 10 (USB2E7196)
Correct for Electrical Dark: No (USB2E7196)
Strobe/Lamp Enabled: No (USB2E7196)
Correct for Detector Non-linearity: No (USB2E7196)
Correct for Stray Light: No (USB2E7196)
Number of Pixels in Processed Spectrum: 2048
>>>>>Begin Processed Spectral Data<<<<<
339.09	0.00
339.48	199.50
339.86	200.15
340.24	202.45
340.63	204.50
341.01	206.55
341.39	206.00
341.78	207.95
342.16	210.35
342.54	208.60
342.93	198.49
343.31	208.45
343.69	208.95
344.07	209.40
344.46	209.83
344.84	210.15
345.22	210.39
345.60	210.72
345.99	210.93
346.37	211.01
346.75	211.16
347.13	211.29
347.52	211.35
347.90	211.57
348.28	211.53
348.66	211.61
349.05	211.60
349.43	211.69
349.81	211.66
350.19	211.72
350.57	211.83
350.96	211.95
351.34	212.08
351.72	212.15
352.10	212.27
352.48	212.36
352.87	212.49
353.25	212.54
353.63	212.61
354.01	212.65
354.39	212.73
354.77	212.85
355.15	212.97
355.54	213.07
355.92	213.00
356.30	213.10
356.68	213.30
357.06	213.35
357.44	213.41
357.82	213.43
358.20	213.57
358.58	213.66
358.97	213.70
359.35	213.80
359.73	213.94
360.11	214.09
360.49	214.08
360.87	214.04
361.25	214.08
361.63	214.11
362.01	214.15
362.39	214.15
362.77	214.16
363.15	214.10
363.53	214.09
363.91	214.10
364.29	214.19
364.67	214.10
365.05	214.19
365.43	214.29
365.81	214.39
366.19	214.48
366.57	214.50
366.95	214.47
367.33	214.40
367.71	214.37
368.09	214.38
368.47	214.38
368.85	214.41
369.23	214.43
369.61	214.36
369.99	214.38
370.37	214.43
370.75	214.42
371.13	214.43
371.51	214.36
371.89	214.38
372.27	214.30
372.65	214.28
373.03	214.13
373.41	213.99
373.78	213.95
374.16	213.83
374.54	213.75
374.92	213.67
375.30	213.66
375.68	213.58
376.06	213.49
376.44	213.49
376.82	213.50
377.19	213.53
377.57	213.47
377.95	213.37
378.33	213.26
378.71	213.18
379.09	213.13
379.47	213.10
379.84	213.03
380.22	212.91
380.60	212.85
380.98	212.83
381.36	212.81
381.73	212.70
382.11	212.68
382.49	212.61
382.87	212.62
383.25	212.57
383.62	212.77
384.00	212.66
384.38	212.64
384.76	212.54
385.13	212.45
385.51	212.44
385.89	212.37
386.27	212.32
386.64	212.29
387.02	212.27
387.40	212.25
387.78	212.21
388.15	212.28
388.53	212.09
388.91	212.03
389.29	211.98
389.66	212.08
390.04	211.98
390.42	211.96
390.79	211.92
391.17	211.97
391.55	211.75
391.92	211.81
392.30	211.83
392.68	211.76
393.05	211.78
393.43	211.76
393.81	211.81
394.18	211.82
394.56	211.79
394.94	211.79
395.31	211.75
395.69	211.82
396.06	211.82
396.44	211.96
396.82	212.00
397.19	212.06
397.57	212.05
397.95	212.08
398.32	212.05
398.70	212.11
399.07	212.09
399.45	212.14
399.82	212.11
400.20	212.08
400.58	212.07
400.95	212.11
401.33	212.13
401.70	212.30
402.08	212.35
402.45	212.48
402.83	212.57
403.20	212.67
403.58	212.73
403.95	212.86
404.33	212.92
404.71	213.02
405.08	213.28
405.46	213.26
405.83	213.35
406.21	213.49
406.58	213.64
406.96	213.81
407.33	213.92
407.70	214.13
408.08	214.48
408.45	214.78
408.83	214.99
409.20	215.21
409.58	215.25
409.95	215.52
410.33	215.80
410.70	216.00
411.08	216.33
411.45	216.72
411.82	217.08
412.20	217.53
412.57	218.10
412.95	218.40
413.32	219.05
413.69	219.64
414.07	220.23
414.44	220.79
414.82	221.42
415.19	222.13
415.56	222.86
415.94	223.50
416.31	224.35
416.68	225.26
417.06	226.27
417.43	227.33
417.81	228.44
418.18	229.51
418.55	230.67
418.93	231.93
419.30	233.21
419.67	234.60
420.04	235.95
420.42	237.35
420.79	239.13
421.16	240.86
421.54	242.60
421.91	244.39
422.28	246.30
422.66	248.26
423.03	250.39
423.40	252.46
423.77	254.75
424.15	257.02
424.52	259.32
424.89	261.83
425.26	264.25
425.64	266.60
426.01	269.25
426.38	272.05
426.75	274.70
427.13	277.42
427.50	280.24
427.87	283.34
428.24	286.41
428.61	289.33
428.99	292.45
429.36	295.94
429.73	299.42
430.10	302.85
430.47	306.40
430.85	309.93
431.22	313.77
431.59	317.87
431.96	321.71
432.33	325.92
432.70	330.08
433.08	334.97
433.45	339.53
433.82	344.12
434.19	349.09
434.56	354.13
434.93	358.87
435.30	363.80
435.68	368.95
436.05	374.15
436.42	379.29
436.79	383.98
437.16	388.96
437.53	394.25
437.90	399.40
438.27	404.49
438.64	409.92
439.01	414.94
439.38	419.25
439.75	423.57
440.13	428.45
440.50	433.10
440.87	436.92
441.24	440.71
441.61	444.80
441.98	447.94
442.35	451.55
442.72	455.24
443.09	458.61
443.46	460.80
443.83	462.15
444.20	463.23
444.57	465.00
444.94	465.79
445.31	466.59
445.68	467.44
446.05	467.79
446.42	467.10
446.79	466.23
447.16	465.41
447.53	464.68
447.90	462.60
448.27	460.53
448.64	457.54
449.01	455.50
449.37	451.90
449.74	448.36
450.11	444.28
450.48	439.82
450.85	435.18
451.22	431.16
451.59	427.49
451.96	423.91
452.33	419.14
452.70	414.87
453.07	409.68
453.43	404.42
453.80	399.54
454.17	394.79
454.54	390.35
454.91	385.58
455.28	380.93
455.65	376.47
456.02	372.10
456.38	368.39
456.75	363.80
457.12	360.00
457.49	356.25
457.86	352.49
458.23	349.35
458.59	346.00
458.96	342.53
459.33	339.35
459.70	336.25
460.07	333.78
460.43	330.90
460.80	328.38
461.17	326.07
461.54	323.49
461.91	321.11
462.27	318.65
462.64	316.62
463.01	314.43
463.38	312.40
463.74	310.21
464.11	308.35
464.48	306.68
464.85	304.96
465.21	303.65
465.58	302.28
465.95	300.54
466.32	299.13
466.68	297.74
467.05	296.33
467.42	294.90
467.78	293.42
468.15	292.12
468.52	291.11
468.88	289.82
469.25	288.64
469.62	287.72
469.98	286.84
470.35	285.89
470.72	285.05
471.08	284.11
471.45	283.34
471.82	282.57
472.18	281.69
472.55	281.09
472.92	280.30
473.28	279.71
473.65	279.10
474.02	278.53
474.38	278.07
474.75	277.72
475.11	277.40
475.48	277.26
475.85	277.04
476.21	276.81
476.58	276.73
476.94	276.76
477.31	276.67
477.67	276.61
478.04	276.70
478.41	276.78
478.77	277.01
479.14	277.16
479.50	277.42
479.87	277.89
480.23	278.25
480.60	278.68
480.96	279.05
481.33	279.71
481.69	280.30
482.06	280.93
482.42	281.59
482.79	282.27
483.15	283.07
483.52	284.03
483.88	284.96
484.25	285.82
484.61	286.91
484.98	288.16
485.34	289.52
485.71	290.81
486.07	292.18
486.44	293.59
486.80	295.07
487.17	296.64
487.53	298.33
487.90	300.16
488.26	302.02
488.62	304.18
488.99	306.28
489.35	308.40
489.72	310.75
490.08	313.20
490.44	315.69
490.81	318.33
491.17	320.94
491.54	323.97
491.90	327.12
492.26	330.19
492.63	333.40
492.99	336.66
493.36	340.26
493.72	344.23
494.08	348.33
494.45	352.62
494.81	357.00
495.17	361.52
495.54	366.40
495.90	371.54
496.26	376.46
496.63	381.93
496.99	387.71
497.35	393.63
497.72	399.81
498.08	406.29
498.44	413.04
498.80	420.31
499.17	427.52
499.53	435.07
499.89	443.06
500.26	451.10
500.62	459.54
500.98	468.38
501.34	477.24
501.71	486.56
502.07	496.21
502.43	506.31
502.79	516.54
503.16	527.08
503.52	537.83
503.88	549.15
504.24	560.60
504.60	572.35
504.97	584.75
505.33	597.39
505.69	610.70
506.05	624.20
506.41	637.62
506.78	651.30
507.14	665.41
507.50	679.91
507.86	694.93
508.22	710.33
508.59	725.69
508.95	741.69
509.31	757.95
509.67	774.66
510.03	791.51
510.39	809.03
510.75	826.87
511.12	844.98
511.48	863.53
511.84	882.17
512.20	900.96
512.56	919.85
512.92	939.34
513.28	958.66
513.64	978.36
514.00	998.25
514.37	1018.64
514.73	1039.66
515.09	1060.32
515.45	1080.98
515.81	1101.99
516.17	1123.45
516.53	1144.90
516.89	1166.34
517.25	1187.80
517.61	1209.38
517.97	1230.77
518.33	1252.17
518.69	1273.73
519.05	1295.28
519.41	1317.33
519.77	1339.93
520.13	1362.04
520.49	1383.84
520.85	1406.58
521.21	1428.63
521.57	1451.47
521.93	1473.45
522.29	1496.01
522.65	1518.61
523.01	1541.37
523.37	1563.37
523.73	1585.65
524.09	1607.54
524.45	1629.77
524.81	1651.81
525.17	1674.22
525.53	1696.78
525.89	1719.06
526.25	1741.00
526.61	1762.08
526.97	1783.37
527.33	1804.25
527.68	1825.65
528.04	1846.97
528.40	1866.99
528.76	1888.02
529.12	1908.54
529.48	1930.19
529.84	1950.23
530.20	1970.45
530.56	1990.64
530.91	2011.41
531.27	2031.46
531.63	2051.26
531.99	2070.87
532.35	2090.16
532.71	2109.00
533.07	2128.38
533.42	2146.83
533.78	2165.78
534.14	2184.58
534.50	2201.93
534.86	2219.97
535.21	2236.68
535.57	2254.21
535.93	2271.70
536.29	2288.47
536.65	2304.80
537.00	2319.99
537.36	2335.20
537.72	2350.24
538.08	2365.11
538.44	2380.33
538.79	2395.60
539.15	2410.79
539.51	2425.38
539.87	2440.50
540.22	2454.83
540.58	2469.24
540.94	2483.52
541.29	2495.90
541.65	2508.06
542.01	2521.36
542.37	2533.12
542.72	2545.31
543.08	2556.07
543.44	2567.51
543.79	2577.47
544.15	2587.44
544.51	2598.12
544.87	2609.33
545.22	2618.63
545.58	2627.35
545.94	2634.38
546.29	2640.76
546.65	2646.88
547.01	2653.10
547.36	2658.85
547.72	2664.33
548.07	2668.27
548.43	2671.98
548.79	2676.35
549.14	2681.16
549.50	2685.36
549.86	2689.16
550.21	2693.33
550.57	2697.35
550.92	2700.10
551.28	2702.60
551.64	2705.45
551.99	2707.96
552.35	2709.21
552.70	2711.69
553.06	2714.20
553.41	2717.13
553.77	2719.98
554.13	2721.76
554.48	2723.45
554.84	2724.67
555.19	2725.27
555.55	2725.77
555.90	2726.19
556.26	2726.78
556.61	2726.57
556.97	2725.16
557.32	2724.62
557.68	2722.72
558.03	2721.37
558.39	2719.85
558.74	2719.70
559.10	2718.46
559.45	2716.66
559.81	2715.64
560.16	2713.26
560.52	2710.75
560.87	2707.81
561.23	2704.10
561.58	2702.20
561.94	2698.87
562.29	2695.03
562.64	2692.94
563.00	2690.30
563.35	2688.26
563.71	2686.21
564.06	2683.83
564.42	2682.13
564.77	2679.86
565.12	2678.24
565.48	2674.92
565.83	2671.32
566.19	2667.94
566.54	2664.05
566.89	2660.24
567.25	2656.48
567.60	2652.95
567.96	2649.62
568.31	2646.07
568.66	2642.16
569.02	2637.20
569.37	2632.36
569.72	2628.58
570.08	2622.96
570.43	2617.45
570.78	2611.35
571.14	2604.70
571.49	2598.19
571.84	2592.05
572.20	2585.57
572.55	2578.85
572.90	2572.16
573.26	2565.66
573.61	2558.40
573.96	2551.76
574.31	2543.80
574.67	2535.52
575.02	2527.17
575.37	2518.26
575.72	2509.37
576.08	2501.76
576.43	2493.30
576.78	2485.50
577.13	2477.67
577.49	2469.44
577.84	2461.99
578.19	2454.66
578.54	2447.44
578.90	2440.45
579.25	2431.84
579.60	2422.51
579.95	2413.18
580.30	2405.21
580.66	2397.40
581.01	2388.47
581.36	2378.99
581.71	2370.75
582.06	2362.39
582.42	2354.28
582.77	2345.47
583.12	2336.50
583.47	2327.96
583.82	2319.56
584.17	2310.44
584.53	2301.01
584.88	2292.29
585.23	2282.86
585.58	2272.98
585.93	2263.27
586.28	2253.90
586.63	2245.16
586.98	2237.03
587.34	2228.78
587.69	2219.72
588.04	2210.36
588.39	2202.26
588.74	2193.47
589.09	2184.85
589.44	2175.17
589.79	2166.59
590.14	2158.76
590.49	2150.51
590.84	2141.38
591.19	2133.43
591.54	2124.73
591.89	2114.95
592.25	2105.92
592.60	2096.76
592.95	2087.75
593.30	2078.38
593.65	2068.87
594.00	2059.09
594.35	2050.62
594.70	2041.37
595.05	2032.64
595.40	2024.12
595.75	2014.56
596.10	2006.53
596.45	1997.97
596.80	1990.42
597.15	1982.18
597.50	1973.01
597.85	1964.54
598.19	1955.96
598.54	1947.26
598.89	1939.41
599.24	1932.75
599.59	1925.39
599.94	1918.32
600.29	1910.70
600.64	1903.10
600.99	1894.66
601.34	1887.70
601.69	1878.99
602.04	1870.89
602.39	1862.62
602.74	1854.49
603.08	1847.62
603.43	1840.45
603.78	1832.47
604.13	1824.42
604.48	1816.48
604.83	1809.78
605.18	1802.77
605.53	1795.23
605.87	1787.83
606.22	1780.81
606.57	1772.85
606.92	1764.76
607.27	1756.65
607.62	1749.39
607.96	1742.61
608.31	1736.72
608.66	1728.96
609.01	1721.59
609.36	1714.04
609.70	1706.33
610.05	1698.84
610.40	1690.83
610.75	1682.04
611.10	1674.46
611.44	1665.46
611.79	1656.42
612.14	1646.93
612.49	1637.50
612.83	1629.04
613.18	1619.60
613.53	1610.21
613.88	1600.64
614.22	1591.84
614.57	1582.63
614.92	1573.15
615.27	1563.72
615.61	1553.69
615.96	1544.63
616.31	1536.12
616.65	1528.20
617.00	1520.10
617.35	1511.68
617.70	1502.69
618.04	1493.94
618.39	1484.58
618.74	1476.17
619.08	1467.71
619.43	1459.51
619.78	1451.76
620.12	1443.56
620.47	1435.69
620.82	1427.09
621.16	1419.02
621.51	1410.61
621.85	1402.34
622.20	1394.15
622.55	1385.66
622.89	1377.45
623.24	1369.65
623.59	1361.03
623.93	1352.57
624.28	1344.16
624.62	1335.78
624.97	1327.67
625.32	1319.79
625.66	1312.47
626.01	1305.25
626.35	1298.14
626.70	1290.57
627.04	1282.98
627.39	1275.25
627.73	1267.85
628.08	1261.16
628.43	1253.55
628.77	1246.07
629.12	1238.90
629.46	1232.17
629.81	1225.10
630.15	1218.14
630.50	1210.75
630.84	1203.54
631.19	1196.24
631.53	1189.51
631.88	1181.80
632.22	1174.31
632.57	1167.44
632.91	1160.06
633.26	1152.61
633.60	1145.36
633.95	1138.63
634.29	1131.30
634.64	1124.90
634.98	1117.70
635.32	1110.50
635.67	1104.26
636.01	1097.84
636.36	1090.99
636.70	1084.29
637.05	1077.83
637.39	1071.41
637.73	1065.02
638.08	1059.20
638.42	1053.33
638.77	1046.79
639.11	1040.97
639.45	1035.14
639.80	1028.44
640.14	1022.15
640.49	1016.02
640.83	1009.84
641.17	1003.44
641.52	997.50
641.86	990.91
642.20	984.80
642.55	978.23
642.89	971.63
643.23	965.35
643.58	959.51
643.92	952.98
644.26	946.65
644.61	940.70
644.95	934.55
645.29	928.21
645.64	921.71
645.98	915.50
646.32	909.28
646.66	902.92
647.01	897.10
647.35	891.23
647.69	884.84
648.04	878.77
648.38	872.70
648.72	866.62
649.06	860.61
649.41	854.70
649.75	848.99
650.09	843.24
650.43	837.29
650.78	831.13
651.12	825.19
651.46	819.57
651.80	813.49
652.14	807.75
652.49	801.82
652.83	796.11
653.17	789.96
653.51	784.35
653.85	778.75
654.20	773.08
654.54	767.29
654.88	761.95
655.22	756.22
655.56	750.45
655.90	744.69
656.25	738.92
656.59	733.26
656.93	727.89
657.27	722.80
657.61	717.31
657.95	712.21
658.29	707.29
658.64	701.99
658.98	696.70
659.32	691.28
659.66	686.22
660.00	680.85
660.34	675.79
660.68	670.50
661.02	665.54
661.36	660.76
661.70	655.87
662.05	651.20
662.39	646.77
662.73	642.37
663.07	638.06
663.41	633.78
663.75	629.23
664.09	624.64
664.43	619.80
664.77	615.57
665.11	611.04
665.45	606.74
665.79	602.29
666.13	597.99
666.47	593.86
666.81	589.62
667.15	585.68
667.49	581.97
667.83	578.11
668.17	574.20
668.51	570.29
668.85	566.57
669.19	562.84
669.53	558.88
669.87	554.91
670.21	551.18
670.55	547.16
670.89	543.85
671.23	540.59
671.57	537.25
671.91	533.56
672.25	530.15
672.58	526.61
672.92	523.26
673.26	520.16
673.60	516.96
673.94	513.71
674.28	510.45
674.62	507.21
674.96	504.12
675.30	501.21
675.64	498.10
675.97	494.86
676.31	491.87
676.65	489.05
676.99	486.50
677.33	483.42
677.67	480.79
678.01	477.69
678.34	474.59
678.68	471.65
679.02	468.64
679.36	465.73
679.70	462.86
680.04	460.14
680.37	457.22
680.71	454.58
681.05	451.91
681.39	449.30
681.73	446.65
682.06	444.14
682.40	441.50
682.74	438.92
683.08	436.60
683.42	433.98
683.75	431.40
684.09	428.63
684.43	426.22
684.77	423.66
685.10	421.23
685.44	418.75
685.78	416.34
686.12	414.25
686.45	411.93
686.79	409.70
687.13	407.56
687.46	405.40
687.80	403.11
688.14	400.80
688.48	398.54
688.81	396.25
689.15	393.97
689.49	391.65
689.82	389.45
690.16	387.05
690.50	384.80
690.83	382.56
691.17	380.40
691.51	378.27
691.84	376.15
692.18	374.12
692.52	372.28
692.85	370.49
693.19	368.61
693.52	366.66
693.86	364.63
694.20	362.63
694.53	360.66
694.87	358.65
695.21	356.83
695.54	354.95
695.88	353.08
696.21	351.21
696.55	349.58
696.88	347.75
697.22	346.09
697.56	344.53
697.89	342.83
698.23	341.25
698.56	339.65
698.90	338.22
699.23	336.54
699.57	334.81
699.90	333.07
700.24	331.40
700.58	329.81
700.91	328.32
701.25	326.89
701.58	325.42
701.92	324.00
702.25	322.60
702.59	321.20
702.92	319.89
703.26	318.64
703.59	317.34
703.93	316.26
704.26	314.98
704.60	313.75
704.93	312.44
705.26	311.21
705.60	309.98
705.93	308.61
706.27	307.48
706.60	306.44
706.94	305.44
707.27	304.30
707.61	303.20
707.94	302.02
708.27	300.77
708.61	299.66
708.94	298.55
709.28	297.40
709.61	296.33
709.94	295.30
710.28	294.20
710.61	293.12
710.95	291.95
711.28	291.02
711.61	289.96
711.95	289.16
712.28	288.17
712.61	287.16
712.95	286.35
713.28	285.49
713.61	284.52
713.95	283.59
714.28	282.67
714.61	281.79
714.95	280.98
715.28	280.14
715.61	279.24
715.95	278.40
716.28	277.57
716.61	276.73
716.95	275.84
717.28	275.04
717.61	274.24
717.94	273.48
718.28	272.63
718.61	271.88
718.94	271.03
719.27	270.25
719.61	269.59
719.94	268.86
720.27	268.02
720.60	267.26
720.94	266.50
721.27	265.88
721.60	265.25
721.93	264.52
722.27	263.90
722.60	263.34
722.93	262.69
723.26	262.08
723.59	261.51
723.93	260.97
724.26	260.34
724.59	259.79
724.92	259.18
725.25	258.62
725.59	258.00
725.92	257.55
726.25	257.02
726.58	256.49
726.91	255.95
727.24	255.50
727.57	255.03
727.91	254.42
728.24	253.85
728.57	253.45
728.90	253.06
729.23	252.63
729.56	252.20
729.89	251.70
730.22	251.19
730.55	250.71
730.89	250.24
731.22	249.74
731.55	249.20
731.88	248.79
732.21	248.31
732.54	247.83
732.87	247.33
733.20	246.88
733.53	246.39
733.86	245.95
734.19	245.49
734.52	245.16
734.85	244.94
735.18	244.59
735.51	244.17
735.84	243.78
736.17	243.37
736.50	242.95
736.83	242.80
737.16	242.51
737.49	242.13
737.82	241.76
738.15	241.50
738.48	241.21
738.81	240.85
739.14	240.49
739.47	240.15
739.80	239.77
740.13	239.45
740.46	239.10
740.79	238.74
741.12	238.44
741.45	238.04
741.78	237.65
742.11	237.35
742.44	236.97
742.77	236.71
743.10	236.33
743.43	236.04
743.75	235.59
744.08	235.47
744.41	235.08
744.74	234.88
745.07	234.57
745.40	234.29
745.73	234.16
746.06	233.92
746.39	233.68
746.71	233.45
747.04	233.19
747.37	232.95
747.70	232.71
748.03	232.52
748.36	232.33
748.68	232.06
749.01	231.81
749.34	231.51
749.67	231.26
750.00	231.10
750.33	230.94
750.65	230.66
750.98	230.25
751.31	230.09
751.64	229.79
751.97	229.64
752.29	229.35
752.62	228.97
752.95	228.76
753.28	228.55
753.60	228.31
753.93	228.11
754.26	227.88
754.59	227.59
754.91	227.29
755.24	226.99
755.57	226.86
755.90	226.61
756.22	226.48
756.55	226.27
756.88	226.04
757.20	225.72
757.53	225.54
757.86	225.34
758.19	225.25
758.51	225.04
758.84	224.77
759.17	224.63
759.49	224.40
759.82	224.35
760.15	224.19
760.47	224.00
760.80	223.74
761.13	223.63
761.45	223.49
761.78	223.33
762.11	223.21
762.43	222.97
762.76	222.88
763.08	222.74
763.41	222.57
763.74	222.41
764.06	222.25
764.39	222.09
764.71	221.94
765.04	221.80
765.37	221.65
765.69	221.52
766.02	221.39
766.34	221.33
766.67	221.13
767.00	221.02
767.32	220.99
767.65	220.99
767.97	220.89
768.30	220.79
768.62	220.70
768.95	220.56
769.27	220.43
769.60	220.33
769.92	220.12
770.25	219.99
770.57	219.85
770.90	219.76
771.22	219.57
771.55	219.50
771.87	219.30
772.20	219.25
772.52	219.27
772.85	219.43
773.17	219.40
773.50	219.30
773.82	219.18
774.15	219.01
774.47	218.82
774.80	218.77
775.12	218.64
775.45	218.58
775.77	218.57
776.09	218.55
776.42	218.46
776.74	218.51
777.07	218.45
777.39	218.48
777.72	218.51
778.04	218.54
778.36	218.44
778.69	218.46
779.01	218.26
779.33	218.05
779.66	217.74
779.98	217.59
780.31	217.42
780.63	217.47
780.95	217.45
781.28	217.44
781.60	217.28
781.92	217.25
782.25	217.19
782.57	217.13
782.89	217.04
783.22	216.93
783.54	216.80
783.86	216.76
784.19	216.65
784.51	216.57
784.83	216.53
785.16	216.47
785.48	216.34
785.80	216.36
786.12	216.36
786.45	216.30
786.77	216.18
787.09	216.19
787.42	216.05
787.74	216.00
788.06	215.94
788.38	215.87
788.71	215.80
789.03	215.67
789.35	215.59
789.67	215.50
789.99	215.52
790.32	215.43
790.64	215.38
790.96	215.50
791.28	215.34
791.61	215.27
791.93	215.26
792.25	215.32
792.57	215.41
792.89	215.39
793.21	215.32
793.54	215.38
793.86	215.35
794.18	215.30
794.50	215.25
794.82	215.22
795.14	215.31
795.47	215.35
795.79	215.38
796.11	215.30
796.43	215.29
796.75	215.22
797.07	215.28
797.39	215.21
797.71	215.07
798.04	215.06
798.36	215.02
798.68	214.95
799.00	214.85
799.32	214.70
799.64	214.65
799.96	214.65
800.28	214.61
800.60	214.52
800.92	214.46
801.24	214.42
801.56	214.41
801.89	214.28
802.21	214.26
802.53	214.26
802.85	214.34
803.17	214.39
803.49	214.36
803.81	214.31
804.13	214.22
804.45	214.11
804.77	214.16
805.09	214.13
805.41	214.09
805.73	214.08
806.05	214.08
806.37	214.08
806.69	214.04
807.01	214.06
807.33	214.10
807.65	214.03
807.97	214.12
808.28	214.05
808.60	214.01
808.92	213.95
809.24	214.02
809.56	213.87
809.88	213.81
810.20	213.79
810.52	213.83
810.84	213.81
811.16	213.82
811.48	213.78
811.80	213.79
812.12	213.71
812.43	213.69
812.75	213.66
813.07	213.62
813.39	213.61
813.71	213.54
814.03	213.48
814.35	213.55
814.67	213.36
814.98	213.35
815.30	213.36
815.62	213.31
815.94	213.12
816.26	213.10
816.58	213.02
816.89	213.01
817.21	212.91
817.53	212.95
817.85	212.91
818.17	212.79
818.48	212.75
818.80	212.84
819.12	212.85
819.44	212.78
819.76	212.70
820.07	212.70
820.39	212.65
820.71	212.70
821.03	212.59
821.34	212.55
821.66	212.55
821.98	212.52
822.30	212.50
822.61	212.66
822.93	212.67
823.25	212.68
823.57	212.64
823.88	212.66
824.20	212.57
824.52	212.57
824.83	212.65
825.15	212.60
825.47	212.53
825.79	212.47
826.10	212.43
826.42	212.46
826.74	212.40
827.05	212.43
827.37	212.38
827.69	212.37
828.00	212.38
828.32	212.34
828.64	212.32
828.95	212.43
829.27	212.35
829.58	212.40
829.90	212.44
830.22	212.49
830.53	212.43
830.85	212.51
831.17	212.45
831.48	212.37
831.80	212.39
832.11	212.31
832.43	212.35
832.75	212.37
833.06	212.41
833.38	212.39
833.69	212.34
834.01	212.37
834.32	212.29
834.64	212.28
834.96	212.25
835.27	212.19
835.59	212.11
835.90	211.99
836.22	211.97
836.53	211.90
836.85	211.88
837.16	212.10
837.48	212.06
837.79	212.15
838.11	212.18
838.42	212.18
838.74	212.21
839.05	212.18
839.37	212.10
839.68	212.01
840.00	212.02
840.31	212.05
840.63	211.96
840.94	212.01
841.26	211.99
841.57	212.04
841.88	212.09
842.20	212.05
842.51	212.10
842.83	212.04
843.14	212.18
843.46	212.14
843.77	211.89
844.08	211.87
844.40	211.85
844.71	211.89
845.03	211.84
845.34	211.87
845.65	211.93
845.97	212.00
846.28	212.03
846.60	212.03
846.91	212.02
847.22	212.00
847.54	212.04
847.85	212.12
848.16	212.04
848.48	212.03
848.79	212.10
849.10	212.12
849.42	212.16
849.73	211.97
850.04	211.95
850.36	211.96
850.67	211.95
850.98	211.90
851.30	211.88
851.61	211.87
851.92	211.87
852.23	211.84
852.55	211.83
852.86	211.78
853.17	211.78
853.49	211.81
853.80	211.87
854.11	211.92
854.42	211.89
854.74	211.88
855.05	211.86
855.36	211.77
855.67	211.77
855.99	211.78
856.30	211.96
856.61	211.96
856.92	211.96
857.23	211.97
857.55	211.92
857.86	211.89
858.17	211.89
858.48	211.84
858.79	211.82
859.11	211.85
859.42	211.86
859.73	211.91
860.04	211.88
860.35	211.81
860.66	211.66
860.98	211.66
861.29	211.73
861.60	211.72
861.91	211.69
862.22	211.60
862.53	211.49
862.84	211.32
863.16	211.39
863.47	211.30
863.78	211.24
864.09	211.21
864.40	211.23
864.71	211.23
865.02	211.20
865.33	211.14
865.64	211.12
865.95	211.08
866.27	211.10
866.58	211.05
866.89	211.04
867.20	211.07
867.51	211.01
867.82	210.99
868.13	211.06
868.44	211.03
868.75	211.10
869.06	211.18
869.37	211.18
869.68	211.11
869.99	211.14
870.30	211.25
870.61	211.28
870.92	211.24
871.23	211.22
871.54	211.26
871.85	211.26
872.16	211.26
872.47	211.32
872.78	211.25
873.09	211.27
873.40	211.33
873.71	211.35
874.02	211.33
874.33	211.29
874.64	211.27
874.95	211.35
875.26	211.27
875.56	211.21
875.87	211.23
876.18	211.17
876.49	211.45
876.80	211.43
877.11	211.39
877.42	211.38
877.73	211.42
878.04	211.40
878.35	211.43
878.66	211.45
878.96	211.42
879.27	211.39
879.58	211.44
879.89	211.34
880.20	211.40
880.51	211.49
880.82	211.47
881.12	211.41
881.43	211.32
881.74	211.33
882.05	211.37
882.36	211.38
882.67	211.38
882.97	211.11
883.28	211.02
883.59	211.05
883.90	211.06
884.21	211.06
884.51	211.10
884.82	211.09
885.13	211.00
885.44	210.92
885.74	210.93
886.05	210.89
886.36	210.93
886.67	210.83
886.98	210.88
887.28	210.97
887.59	211.00
887.90	211.01
888.20	211.00
888.51	211.04
888.82	210.94
889.13	211.01
889.43	211.20
889.74	211.21
890.05	211.22
890.35	211.18
890.66	211.16
890.97	211.06
891.28	211.00
891.58	211.01
891.89	211.11
892.20	211.12
892.50	211.09
892.81	211.09
893.12	211.14
893.42	211.06
893.73	211.04
894.04	210.95
894.34	211.04
894.65	211.04
894.95	211.03
895.26	211.12
895.57	211.15
895.87	211.02
896.18	211.09
896.48	211.06
896.79	211.03
897.10	211.03
897.40	211.12
897.71	211.19
898.01	211.25
898.32	211.24
898.63	211.24
898.93	211.33
899.24	211.33
899.54	211.33
899.85	211.34
900.15	211.28
900.46	211.38
900.76	211.32
901.07	211.35
901.38	211.36
901.68	211.36
901.99	211.30
902.29	211.22
902.60	211.15
902.90	211.18
903.21	211.23
903.51	211.30
903.82	211.27
904.12	211.28
904.43	211.28
904.73	211.27
905.03	211.31
905.34	211.44
905.64	211.39
905.95	211.31
906.25	211.31
906.56	211.31
906.86	211.34
907.17	211.39
907.47	211.35
907.77	211.28
908.08	211.26
908.38	211.21
908.69	211.28
908.99	211.35
909.30	211.33
909.60	211.36
909.90	211.31
910.21	211.27
910.51	211.23
910.81	211.25
911.12	211.21
911.42	211.18
911.73	210.95
912.03	211.00
912.33	211.15
912.64	211.15
912.94	211.19
913.24	211.07
913.55	211.08
913.85	211.09
914.15	211.13
914.46	211.14
914.76	211.21
915.06	211.21
915.37	211.21
915.67	211.25
915.97	211.24
916.27	211.17
916.58	211.15
916.88	211.18
917.18	211.20
917.49	211.38
917.79	211.40
918.09	211.47
918.39	211.50
918.70	211.36
919.00	211.37
919.30	211.42
919.60	211.45
919.91	211.35
920.21	211.36
920.51	211.35
920.81	211.37
921.12	211.38
921.42	211.24
921.72	211.21
922.02	211.22
922.32	211.28
922.63	211.34
922.93	211.47
923.23	211.49
923.53	211.40
923.83	211.27
924.13	211.27
924.44	211.21
924.74	211.25
925.04	211.34
925.34	211.34
925.64	211.34
925.94	211.29
926.24	211.44
926.55	211.45
926.85	211.47
927.15	211.42
927.45	211.42
927.75	211.52
928.05	211.56
928.35	211.52
928.65	211.53
928.95	211.53
929.26	211.51
929.56	211.54
929.86	211.58
930.16	211.54
930.46	211.55
930.76	211.60
931.06	211.54
931.36	211.48
931.66	211.52
931.96	211.47
932.26	211.55
932.56	211.39
932.86	211.42
933.16	211.39
933.46	211.39
933.76	211.37
934.06	211.39
934.36	211.44
934.66	211.45
934.96	211.34
935.26	211.29
935.56	211.27
935.86	211.20
936.16	211.15
936.46	211.13
936.76	211.08
937.06	211.06
937.36	211.10
937.66	211.11
937.96	211.05
938.26	211.05
938.56	211.06
938.86	211.09
939.16	211.06
939.46	211.10
939.76	211.10
940.06	211.05
940.35	211.03
940.65	211.01
940.95	210.99
941.25	210.99
941.55	210.90
941.85	210.89
942.15	210.90
942.45	210.94
942.75	210.91
943.04	210.86
943.34	210.91
943.64	210.86
943.94	210.82
944.24	210.87
944.54	210.89
944.84	210.84
945.13	210.83
945.43	210.79
945.73	210.78
946.03	210.81
946.33	210.77
946.62	210.74
946.92	210.66
947.22	210.69
947.52	210.73
947.82	210.81
948.11	210.80
948.41	210.82
948.71	210.78
949.01	210.86
949.31	210.89
949.60	210.76
949.90	210.71
950.20	210.70
950.50	210.61
950.79	210.56
951.09	210.60
951.39	210.61
951.69	210.64
951.98	210.67
952.28	210.68
952.58	210.75
952.87	210.77
953.17	210.79
953.47	210.75
953.76	210.70
954.06	210.74
954.36	210.69
954.66	210.70
954.95	210.71
955.25	210.71
955.55	210.70
955.84	210.68
956.14	210.75
956.44	210.80
956.73	210.81
957.03	210.87
957.32	210.89
957.62	210.85
957.92	210.88
958.21	210.86
958.51	211.00
958.81	211.04
959.10	211.05
959.40	211.10
959.69	211.12
959.99	211.20
960.29	211.21
960.58	211.26
960.88	211.28
961.17	211.29
961.47	211.31
961.76	211.36
962.06	211.51
962.36	211.55
962.65	211.50
962.95	211.55
963.24	211.45
963.54	211.40
963.83	211.46
964.13	211.47
964.42	211.47
964.72	211.32
965.01	211.25
965.31	211.19
965.60	211.07
965.90	211.15
966.19	211.10
966.49	211.11
966.78	211.10
967.08	211.07
967.37	211.07
967.67	211.04
967.96	211.04
968.26	210.97
968.55	211.00
968.85	211.04
969.14	211.03
969.43	211.00
969.73	211.06
970.02	210.99
970.32	211.01
970.61	210.97
970.91	210.97
971.20	210.99
971.49	211.12
971.79	211.20
972.08	211.16
972.38	211.20
972.67	211.16
972.96	211.14
973.26	211.13
973.55	211.19
973.85	211.17
974.14	211.20
974.43	211.19
974.73	211.15
975.02	211.18
975.31	211.15
975.61	211.21
975.90	211.19
976.19	211.19
976.49	211.15
976.78	211.22
977.07	211.19
977.37	211.26
977.66	211.22
977.95	211.10
978.24	211.10
978.54	211.08
978.83	211.02
979.12	211.10
979.42	211.10
979.71	211.07
980.00	211.08
980.29	211.03
980.59	210.99
980.88	210.95
981.17	210.97
981.46	210.98
981.76	210.93
982.05	211.01
982.34	211.07
982.63	211.12
982.93	211.12
983.22	211.20
983.51	211.14
983.80	211.15
984.09	211.24
984.39	211.20
984.68	211.25
984.97	211.26
985.26	211.20
985.55	211.19
985.85	211.14
986.14	211.21
986.43	211.24
986.72	211.25
987.01	211.20
987.30	211.13
987.59	211.11
987.89	211.17
988.18	211.05
988.47	210.99
988.76	210.96
989.05	210.92
989.34	210.87
989.63	210.94
989.92	210.93
990.22	210.94
990.51	210.98
990.80	210.96
991.09	211.00
991.38	211.04
991.67	211.09
991.96	211.08
992.25	211.02
992.54	211.01
992.83	211.01
993.12	211.00
993.41	211.08
993.70	211.12
993.99	211.18
994.28	211.22
994.58	211.29
994.87	211.21
995.16	211.21
995.45	211.16
995.74	211.08
996.03	211.08
996.32	211.14
996.61	211.11
996.90	211.08
997.19	211.04
997.48	211.01
997.77	210.95
998.06	210.91
998.34	210.85
998.63	210.80
998.92	210.86
999.21	210.93
999.50	210.89
999.79	210.91
1000.08	210.81
1000.37	210.86
1000.66	210.83
1000.95	210.90
1001.24	210.89
1001.53	210.93
1001.82	210.92
1002.11	210.89
1002.40	210.87
1002.68	210.87
1002.97	210.95
1003.26	210.96
1003.55	210.92
1003.84	210.94
1004.13	211.04
1004.42	211.07
1004.71	211.15
1004.99	211.11
1005.28	211.11
1005.57	211.12
1005.86	211.02
1006.15	211.06
1006.44	210.98
1006.72	210.99
1007.01	210.97
1007.30	210.98
1007.59	210.95
1007.88	210.95
1008.17	210.89
1008.45	210.79
1008.74	210.78
1009.03	210.70
1009.32	210.70
1009.60	210.77
1009.89	210.71
1010.18	210.61
1010.47	210.63
1010.76	210.61
1011.04	210.58
1011.33	210.60
1011.62	210.57
1011.91	210.61
1012.19	210.58
1012.48	210.60
1012.77	210.59
1013.05	210.66
1013.34	210.63
1013.63	210.62
1013.92	210.56
1014.20	210.59
1014.49	210.60
1014.78	210.55
1015.06	210.47
1015.35	210.45
1015.64	210.39
1015.92	210.47
1016.21	210.54
1016.50	210.57
1016.78	210.55
1017.07	210.55
1017.36	210.52
1017.64	210.51
1017.93	210.50
1018.22	210.55
1018.50	210.57
1018.79	210.54
1019.08	210.48
1019.36	210.51
1019.65	210.50
1019.93	210.57
1020.22	210.63
1020.51	210.68
1020.79	210.65
1021.08	210.95
1021.36	211.25
1021.65	210.05
1021.94	211.25
1022.22	211.10
1022.51	210.55
1022.79	210.85
1023.08	211.05
1023.36	211.30
1023.65	209.35
>>>>>End Processed Spectral Data<<<<<
