SpectraSuite Data File
++++++++++++++++++++++++++++++++++++
Date: Mon Feb 25 17:35:47 EST 2013
User: group
Dark Spectrum Present: No
Reference Spectrum Present: No
Number of Sampled Component Spectra: 1
Spectrometers: USB2E7196
Integration Time (usec): 52000 (USB2E7196)
Spectra Averaged: 20 (USB2E7196)
Boxcar Smoothing: 10 (USB2E7196)
Correct for Electrical Dark: No (USB2E7196)
Strobe/Lamp Enabled: No (USB2E7196)
Correct for Detector Non-linearity: No (USB2E7196)
Correct for Stray Light: No (USB2E7196)
Number of Pixels in Processed Spectrum: 2048
>>>>>Begin Processed Spectral Data<<<<<
339.09	0.00
339.48	199.10
339.86	200.10
340.24	202.05
340.63	202.80
341.01	206.55
341.39	205.60
341.78	207.20
342.16	209.10
342.54	209.10
342.93	198.10
343.31	208.15
343.69	208.68
344.07	209.18
344.46	209.58
344.84	209.94
345.22	210.13
345.60	210.45
345.99	210.63
346.37	210.67
346.75	210.77
347.13	210.83
347.52	210.81
347.90	210.97
348.28	211.05
348.66	211.17
349.05	211.13
349.43	211.23
349.81	211.26
350.19	211.36
350.57	211.32
350.96	211.37
351.34	211.42
351.72	211.52
352.10	211.60
352.48	211.67
352.87	211.84
353.25	211.98
353.63	211.93
354.01	212.01
354.39	212.12
354.77	212.18
355.15	212.36
355.54	212.43
355.92	212.39
356.30	212.44
356.68	212.63
357.06	212.74
357.44	212.75
357.82	212.88
358.20	212.90
358.58	213.08
358.97	213.21
359.35	213.32
359.73	213.48
360.11	213.52
360.49	213.63
360.87	213.61
361.25	213.63
361.63	213.80
362.01	213.89
362.39	214.04
362.77	214.11
363.15	214.19
363.53	214.25
363.91	214.33
364.29	214.41
364.67	214.23
365.05	214.28
365.43	214.38
365.81	214.40
366.19	214.62
366.57	214.67
366.95	214.66
367.33	214.61
367.71	214.62
368.09	214.71
368.47	214.66
368.85	214.62
369.23	214.64
369.61	214.56
369.99	214.57
370.37	214.43
370.75	214.48
371.13	214.40
371.51	214.41
371.89	214.44
372.27	214.34
372.65	214.34
373.03	214.30
373.41	214.20
373.78	214.16
374.16	214.02
374.54	213.84
374.92	213.77
375.30	213.69
375.68	213.52
376.06	213.44
376.44	213.39
376.82	213.43
377.19	213.38
377.57	213.37
377.95	213.23
378.33	213.23
378.71	213.12
379.09	213.04
379.47	212.94
379.84	212.81
380.22	212.75
380.60	212.70
380.98	212.62
381.36	212.63
381.73	212.53
382.11	212.40
382.49	212.37
382.87	212.33
383.25	212.35
383.62	212.49
384.00	212.37
384.38	212.37
384.76	212.37
385.13	212.45
385.51	212.41
385.89	212.40
386.27	212.30
386.64	212.30
387.02	212.23
387.40	212.25
387.78	212.20
388.15	212.21
388.53	212.14
388.91	212.07
389.29	211.96
389.66	211.92
390.04	211.93
390.42	211.98
390.79	211.98
391.17	211.96
391.55	211.77
391.92	211.79
392.30	211.74
392.68	211.62
393.05	211.59
393.43	211.60
393.81	211.54
394.18	211.56
394.56	211.55
394.94	211.61
395.31	211.53
395.69	211.65
396.06	211.73
396.44	211.78
396.82	211.78
397.19	211.90
397.57	211.88
397.95	211.89
398.32	211.79
398.70	211.76
399.07	211.84
399.45	211.84
399.82	211.88
400.20	211.97
400.58	212.01
400.95	211.95
401.33	212.01
401.70	212.23
402.08	212.33
402.45	212.40
402.83	212.49
403.20	212.60
403.58	212.61
403.95	212.71
404.33	212.79
404.71	212.97
405.08	213.12
405.46	213.25
405.83	213.44
406.21	213.62
406.58	213.80
406.96	213.92
407.33	214.10
407.70	214.33
408.08	214.64
408.45	214.86
408.83	215.07
409.20	215.24
409.58	215.42
409.95	215.71
410.33	215.99
410.70	216.21
411.08	216.57
411.45	216.88
411.82	217.24
412.20	217.73
412.57	218.22
412.95	218.54
413.32	219.07
413.69	219.55
414.07	220.15
414.44	220.81
414.82	221.40
415.19	222.18
415.56	222.85
415.94	223.52
416.31	224.37
416.68	225.27
417.06	226.33
417.43	227.32
417.81	228.49
418.18	229.64
418.55	230.89
418.93	232.14
419.30	233.51
419.67	234.92
420.04	236.30
420.42	237.77
420.79	239.59
421.16	241.38
421.54	243.16
421.91	245.01
422.28	246.90
422.66	249.07
423.03	251.10
423.40	253.27
423.77	255.57
424.15	257.86
424.52	260.31
424.89	262.94
425.26	265.40
425.64	267.75
426.01	270.29
426.38	273.01
426.75	275.81
427.13	278.73
427.50	281.63
427.87	284.76
428.24	287.97
428.61	290.88
428.99	294.18
429.36	297.81
429.73	301.38
430.10	304.84
430.47	308.37
430.85	312.15
431.22	316.08
431.59	320.22
431.96	324.17
432.33	328.46
432.70	332.60
433.08	337.54
433.45	342.15
433.82	346.83
434.19	352.02
434.56	357.04
434.93	361.80
435.30	366.68
435.68	371.90
436.05	377.07
436.42	382.23
436.79	386.89
437.16	392.04
437.53	397.38
437.90	402.80
438.27	408.02
438.64	413.50
439.01	418.57
439.38	422.96
439.75	427.27
440.13	432.24
440.50	436.79
440.87	440.62
441.24	444.50
441.61	448.80
441.98	451.83
442.35	455.37
442.72	459.17
443.09	462.74
443.46	464.83
443.83	466.26
444.20	467.57
444.57	469.38
444.94	470.17
445.31	470.97
445.68	471.70
446.05	471.92
446.42	471.21
446.79	470.39
447.16	469.51
447.53	468.96
447.90	466.81
448.27	464.68
448.64	461.72
449.01	459.54
449.37	455.84
449.74	452.28
450.11	448.30
450.48	443.68
450.85	438.95
451.22	434.99
451.59	431.19
451.96	427.50
452.33	422.77
452.70	418.32
453.07	413.07
453.43	407.83
453.80	402.85
454.17	397.85
454.54	393.20
454.91	388.40
455.28	383.59
455.65	379.07
456.02	374.69
456.38	370.82
456.75	366.11
457.12	362.18
457.49	358.42
457.86	354.51
458.23	351.28
458.59	347.75
458.96	344.22
459.33	341.02
459.70	337.86
460.07	335.24
460.43	332.30
460.80	329.62
461.17	327.14
461.54	324.59
461.91	322.30
462.27	319.92
462.64	317.88
463.01	315.60
463.38	313.49
463.74	311.33
464.11	309.44
464.48	307.90
464.85	306.14
465.21	304.78
465.58	303.34
465.95	301.48
466.32	299.97
466.68	298.53
467.05	297.12
467.42	295.70
467.78	294.23
468.15	292.90
468.52	291.97
468.88	290.65
469.25	289.46
469.62	288.58
469.98	287.56
470.35	286.55
470.72	285.70
471.08	284.73
471.45	283.94
471.82	283.24
472.18	282.28
472.55	281.62
472.92	280.87
473.28	280.33
473.65	279.91
474.02	279.45
474.38	279.07
474.75	278.65
475.11	278.16
475.48	277.94
475.85	277.74
476.21	277.47
476.58	277.37
476.94	277.32
477.31	277.22
477.67	277.21
478.04	277.37
478.41	277.46
478.77	277.85
479.14	277.92
479.50	278.11
479.87	278.41
480.23	278.91
480.60	279.27
480.96	279.64
481.33	280.15
481.69	280.76
482.06	281.37
482.42	282.01
482.79	282.82
483.15	283.63
483.52	284.50
483.88	285.39
484.25	286.31
484.61	287.37
484.98	288.39
485.34	289.57
485.71	290.78
486.07	292.18
486.44	293.43
486.80	295.03
487.17	296.61
487.53	298.46
487.90	300.18
488.26	302.09
488.62	304.10
488.99	306.21
489.35	308.29
489.72	310.52
490.08	312.95
490.44	315.50
490.81	318.12
491.17	320.83
491.54	323.72
491.90	326.86
492.26	330.03
492.63	333.35
492.99	336.91
493.36	340.57
493.72	344.39
494.08	348.47
494.45	352.79
494.81	357.25
495.17	361.91
495.54	366.77
495.90	371.84
496.26	377.10
496.63	382.61
496.99	388.38
497.35	394.43
497.72	400.77
498.08	407.35
498.44	414.12
498.80	421.35
499.17	428.79
499.53	436.35
499.89	444.41
500.26	452.69
500.62	460.98
500.98	469.79
501.34	478.93
501.71	488.29
502.07	497.91
502.43	508.00
502.79	518.18
503.16	528.90
503.52	539.82
503.88	551.09
504.24	562.60
504.60	574.53
504.97	586.93
505.33	599.47
505.69	612.82
506.05	626.42
506.41	640.09
506.78	654.02
507.14	668.25
507.50	682.73
507.86	697.64
508.22	713.07
508.59	728.75
508.95	744.72
509.31	760.95
509.67	777.67
510.03	794.62
510.39	812.26
510.75	830.10
511.12	848.08
511.48	866.52
511.84	885.15
512.20	904.02
512.56	923.24
512.92	942.83
513.28	962.24
513.64	981.87
514.00	1001.97
514.37	1022.34
514.73	1043.14
515.09	1064.17
515.45	1085.22
515.81	1106.60
516.17	1128.07
516.53	1149.82
516.89	1171.45
517.25	1193.03
517.61	1214.85
517.97	1236.50
518.33	1258.02
518.69	1280.10
519.05	1302.35
519.41	1324.75
519.77	1347.39
520.13	1369.61
520.49	1391.81
520.85	1414.68
521.21	1437.75
521.57	1460.68
521.93	1482.89
522.29	1505.95
522.65	1528.49
523.01	1551.25
523.37	1573.51
523.73	1595.84
524.09	1617.84
524.45	1640.51
524.81	1663.20
525.17	1686.00
525.53	1708.70
525.89	1731.37
526.25	1753.70
526.61	1775.14
526.97	1796.98
527.33	1818.52
527.68	1840.25
528.04	1861.73
528.40	1882.12
528.76	1902.64
529.12	1923.63
529.48	1945.58
529.84	1966.25
530.20	1986.99
530.56	2007.68
530.91	2028.42
531.27	2048.86
531.63	2069.44
531.99	2089.44
532.35	2108.95
532.71	2127.96
533.07	2147.49
533.42	2166.48
533.78	2185.41
534.14	2204.18
534.50	2221.63
534.86	2240.07
535.21	2257.33
535.57	2275.60
535.93	2293.30
536.29	2310.62
536.65	2327.33
537.00	2342.79
537.36	2358.20
537.72	2373.61
538.08	2388.82
538.44	2404.75
538.79	2420.54
539.15	2435.74
539.51	2450.67
539.87	2466.26
540.22	2481.17
540.58	2496.20
540.94	2510.90
541.29	2523.86
541.65	2536.44
542.01	2550.00
542.37	2562.20
542.72	2574.67
543.08	2585.63
543.44	2597.66
543.79	2608.16
544.15	2618.89
544.51	2630.69
544.87	2641.97
545.22	2651.50
545.58	2660.70
545.94	2667.94
546.29	2674.68
546.65	2680.99
547.01	2687.43
547.36	2693.29
547.72	2698.87
548.07	2703.18
548.43	2707.17
548.79	2711.58
549.14	2716.45
549.50	2720.83
549.86	2724.95
550.21	2729.21
550.57	2733.50
550.92	2736.45
551.28	2739.40
551.64	2742.01
551.99	2744.25
552.35	2746.20
552.70	2749.24
553.06	2752.15
553.41	2755.56
553.77	2758.62
554.13	2761.36
554.48	2763.51
554.84	2765.28
555.19	2765.96
555.55	2767.08
555.90	2768.08
556.26	2768.83
556.61	2769.10
556.97	2767.89
557.32	2767.77
557.68	2766.19
558.03	2764.80
558.39	2763.02
558.74	2762.51
559.10	2761.33
559.45	2759.44
559.81	2758.16
560.16	2755.75
560.52	2753.18
560.87	2750.25
561.23	2746.53
561.58	2744.02
561.94	2740.96
562.29	2737.49
562.64	2735.50
563.00	2732.68
563.35	2730.16
563.71	2728.54
564.06	2726.56
564.42	2725.34
564.77	2722.75
565.12	2721.17
565.48	2718.00
565.83	2715.67
566.19	2712.51
566.54	2708.59
566.89	2705.23
567.25	2701.59
567.60	2698.23
567.96	2694.47
568.31	2690.92
568.66	2687.41
569.02	2683.06
569.37	2678.09
569.72	2674.00
570.08	2668.82
570.43	2663.46
570.78	2657.79
571.14	2651.20
571.49	2644.29
571.84	2638.21
572.20	2631.06
572.55	2624.57
572.90	2617.82
573.26	2610.88
573.61	2603.65
573.96	2596.77
574.31	2588.69
574.67	2580.38
575.02	2571.88
575.37	2563.46
575.72	2554.39
576.08	2546.69
576.43	2537.70
576.78	2529.62
577.13	2521.40
577.49	2512.92
577.84	2504.86
578.19	2497.02
578.54	2489.76
578.90	2482.97
579.25	2473.89
579.60	2464.88
579.95	2455.16
580.30	2447.08
580.66	2438.58
581.01	2429.52
581.36	2420.09
581.71	2411.65
582.06	2403.41
582.42	2394.88
582.77	2385.47
583.12	2376.69
583.47	2367.76
583.82	2359.09
584.17	2350.10
584.53	2340.78
584.88	2331.95
585.23	2322.42
585.58	2312.69
585.93	2302.75
586.28	2293.05
586.63	2284.25
586.98	2275.83
587.34	2267.13
587.69	2258.10
588.04	2248.67
588.39	2240.70
588.74	2231.87
589.09	2222.85
589.44	2212.98
589.79	2204.49
590.14	2196.63
590.49	2187.78
590.84	2178.63
591.19	2170.56
591.54	2161.56
591.89	2151.40
592.25	2142.00
592.60	2132.69
592.95	2123.37
593.30	2113.64
593.65	2103.71
594.00	2094.08
594.35	2085.69
594.70	2076.77
595.05	2067.82
595.40	2058.66
595.75	2048.41
596.10	2039.96
596.45	2031.30
596.80	2023.30
597.15	2014.80
597.50	2005.37
597.85	1997.09
598.19	1988.28
598.54	1979.33
598.89	1971.31
599.24	1964.52
599.59	1957.05
599.94	1949.80
600.29	1941.85
600.64	1933.87
600.99	1925.32
601.34	1917.80
601.69	1908.79
602.04	1900.36
602.39	1892.12
602.74	1884.57
603.08	1877.94
603.43	1870.57
603.78	1862.36
604.13	1854.21
604.48	1845.77
604.83	1838.80
605.18	1831.62
605.53	1823.95
605.87	1816.26
606.22	1808.82
606.57	1800.46
606.92	1792.23
607.27	1783.92
607.62	1776.59
607.96	1769.60
608.31	1763.28
608.66	1755.08
609.01	1747.44
609.36	1739.43
609.70	1731.13
610.05	1723.11
610.40	1714.57
610.75	1705.69
611.10	1697.73
611.44	1688.18
611.79	1679.18
612.14	1669.66
612.49	1659.70
612.83	1650.75
613.18	1641.06
613.53	1631.49
613.88	1621.75
614.22	1612.70
614.57	1603.35
614.92	1593.45
615.27	1583.96
615.61	1573.95
615.96	1564.94
616.31	1556.11
616.65	1548.26
617.00	1539.99
617.35	1531.15
617.70	1522.23
618.04	1513.39
618.39	1504.11
618.74	1496.15
619.08	1487.35
619.43	1479.04
619.78	1470.99
620.12	1462.65
620.47	1454.91
620.82	1446.29
621.16	1437.90
621.51	1429.31
621.85	1421.17
622.20	1412.93
622.55	1404.55
622.89	1396.30
623.24	1388.28
623.59	1379.72
623.93	1370.81
624.28	1362.39
624.62	1354.40
624.97	1345.93
625.32	1338.05
625.66	1330.67
626.01	1322.88
626.35	1315.64
626.70	1307.89
627.04	1300.29
627.39	1292.65
627.73	1284.89
628.08	1277.96
628.43	1270.69
628.77	1263.24
629.12	1255.45
629.46	1248.62
629.81	1241.17
630.15	1233.75
630.50	1226.32
630.84	1218.94
631.19	1211.87
631.53	1204.97
631.88	1197.20
632.22	1189.78
632.57	1182.69
632.91	1175.26
633.26	1167.89
633.60	1160.76
633.95	1153.96
634.29	1146.89
634.64	1140.25
634.98	1133.12
635.32	1125.88
635.67	1119.50
636.01	1112.81
636.36	1106.24
636.70	1099.47
637.05	1092.86
637.39	1086.65
637.73	1080.38
638.08	1074.44
638.42	1068.52
638.77	1061.73
639.11	1055.39
639.45	1049.28
639.80	1042.55
640.14	1036.03
640.49	1029.83
640.83	1023.49
641.17	1017.02
641.52	1010.65
641.86	1004.03
642.20	997.78
642.55	991.00
642.89	984.30
643.23	977.86
643.58	971.80
643.92	965.18
644.26	958.82
644.61	952.55
644.95	946.39
645.29	940.04
645.64	933.26
645.98	927.07
646.32	921.25
646.66	915.06
647.01	909.04
647.35	902.95
647.69	896.50
648.04	890.43
648.38	884.25
648.72	878.21
649.06	871.85
649.41	865.87
649.75	860.19
650.09	854.30
650.43	848.40
650.78	842.11
651.12	835.99
651.46	830.19
651.80	824.26
652.14	818.08
652.49	812.11
652.83	806.30
653.17	800.25
653.51	794.07
653.85	788.31
654.20	782.57
654.54	776.71
654.88	771.19
655.22	765.34
655.56	759.49
655.90	753.54
656.25	748.03
656.59	742.49
656.93	737.24
657.27	731.95
657.61	726.40
657.95	721.25
658.29	716.30
658.64	710.97
658.98	705.64
659.32	700.21
659.66	695.12
660.00	689.69
660.34	684.50
660.68	679.45
661.02	674.19
661.36	669.33
661.70	664.55
662.05	659.80
662.39	655.34
662.73	651.03
663.07	646.75
663.41	642.19
663.75	637.55
664.09	632.67
664.43	627.88
664.77	623.60
665.11	619.12
665.45	614.56
665.79	610.21
666.13	605.90
666.47	601.76
666.81	597.49
667.15	593.37
667.49	589.41
667.83	585.28
668.17	581.39
668.51	577.65
668.85	573.87
669.19	570.05
669.53	565.96
669.87	561.73
670.21	557.73
670.55	553.82
670.89	550.35
671.23	547.00
671.57	543.60
671.91	539.86
672.25	536.29
672.58	532.79
672.92	529.31
673.26	526.00
673.60	522.62
673.94	519.21
674.28	515.94
674.62	512.74
674.96	509.62
675.30	506.55
675.64	503.07
675.97	499.94
676.31	497.01
676.65	494.01
676.99	491.41
677.33	488.42
677.67	485.65
678.01	482.51
678.34	479.46
678.68	476.51
679.02	473.53
679.36	470.74
679.70	467.73
680.04	464.82
680.37	461.79
680.71	459.03
681.05	456.32
681.39	453.68
681.73	450.88
682.06	448.26
682.40	445.61
682.74	442.98
683.08	440.23
683.42	437.48
683.75	434.94
684.09	432.24
684.43	429.78
684.77	427.08
685.10	424.45
685.44	421.88
685.78	419.29
686.12	416.94
686.45	414.52
686.79	412.30
687.13	410.17
687.46	408.02
687.80	405.83
688.14	403.47
688.48	401.18
688.81	398.88
689.15	396.71
689.49	394.42
689.82	392.13
690.16	389.79
690.50	387.50
690.83	385.30
691.17	383.01
691.51	380.85
691.84	378.86
692.18	376.95
692.52	374.95
692.85	373.10
693.19	371.23
693.52	369.15
693.86	367.13
694.20	365.17
694.53	363.25
694.87	361.21
695.21	359.22
695.54	357.26
695.88	355.44
696.21	353.47
696.55	351.73
696.88	350.10
697.22	348.44
697.56	346.75
697.89	345.04
698.23	343.46
698.56	341.84
698.90	340.21
699.23	338.52
699.57	336.94
699.90	335.22
700.24	333.48
700.58	331.96
700.91	330.52
701.25	329.03
701.58	327.60
701.92	326.16
702.25	324.90
702.59	323.50
702.92	322.08
703.26	320.68
703.59	319.43
703.93	318.29
704.26	317.04
704.60	315.70
704.93	314.37
705.26	313.03
705.60	311.78
705.93	310.57
706.27	309.36
706.60	308.26
706.94	307.06
707.27	305.90
707.61	304.70
707.94	303.46
708.27	302.19
708.61	301.04
708.94	300.01
709.28	298.82
709.61	297.77
709.94	296.75
710.28	295.75
710.61	294.68
710.95	293.42
711.28	292.46
711.61	291.49
711.95	290.49
712.28	289.53
712.61	288.49
712.95	287.51
713.28	286.59
713.61	285.60
713.95	284.68
714.28	283.75
714.61	282.77
714.95	281.90
715.28	281.07
715.61	279.96
715.95	278.98
716.28	278.12
716.61	277.32
716.95	276.44
717.28	275.66
717.61	274.81
717.94	274.08
718.28	273.14
718.61	272.33
718.94	271.61
719.27	270.79
719.61	270.09
719.94	269.30
720.27	268.50
720.60	267.72
720.94	267.08
721.27	266.51
721.60	265.92
721.93	265.28
722.27	264.70
722.60	264.20
722.93	263.58
723.26	262.98
723.59	262.25
723.93	261.63
724.26	261.04
724.59	260.40
724.92	259.76
725.25	259.22
725.59	258.66
725.92	258.14
726.25	257.66
726.58	257.04
726.91	256.51
727.24	255.98
727.57	255.48
727.91	254.95
728.24	254.43
728.57	253.94
728.90	253.47
729.23	252.91
729.56	252.51
729.89	252.00
730.22	251.50
730.55	251.00
730.89	250.58
731.22	250.05
731.55	249.57
731.88	249.13
732.21	248.70
732.54	248.30
732.87	247.84
733.20	247.44
733.53	247.11
733.86	246.70
734.19	246.29
734.52	245.89
734.85	245.57
735.18	245.15
735.51	244.77
735.84	244.37
736.17	244.04
736.50	243.64
736.83	243.53
737.16	243.20
737.49	242.86
737.82	242.49
738.15	242.21
738.48	241.88
738.81	241.46
739.14	241.08
739.47	240.62
739.80	240.29
740.13	239.98
740.46	239.57
740.79	239.23
741.12	238.88
741.45	238.56
741.78	238.19
742.11	237.89
742.44	237.53
742.77	237.31
743.10	237.00
743.43	236.61
743.75	236.09
744.08	236.05
744.41	235.78
744.74	235.44
745.07	235.05
745.40	234.87
745.73	234.72
746.06	234.42
746.39	234.20
746.71	233.90
747.04	233.56
747.37	233.33
747.70	233.05
748.03	232.82
748.36	232.61
748.68	232.31
749.01	231.96
749.34	231.70
749.67	231.40
750.00	231.21
750.33	231.12
750.65	230.89
750.98	230.36
751.31	230.11
751.64	229.92
751.97	229.84
752.29	229.51
752.62	229.23
752.95	229.03
753.28	228.82
753.60	228.58
753.93	228.36
754.26	228.11
754.59	227.94
754.91	227.64
755.24	227.41
755.57	227.22
755.90	227.12
756.22	226.96
756.55	226.73
756.88	226.46
757.20	226.09
757.53	225.85
757.86	225.66
758.19	225.50
758.51	225.35
758.84	225.04
759.17	224.92
759.49	224.83
759.82	224.79
760.15	224.72
760.47	224.64
760.80	224.50
761.13	224.31
761.45	224.12
761.78	224.01
762.11	223.92
762.43	223.75
762.76	223.53
763.08	223.35
763.41	223.21
763.74	223.05
764.06	222.97
764.39	222.85
764.71	222.66
765.04	222.56
765.37	222.38
765.69	222.26
766.02	222.12
766.34	221.92
766.67	221.74
767.00	221.59
767.32	221.53
767.65	221.52
767.97	221.45
768.30	221.40
768.62	221.27
768.95	221.05
769.27	220.97
769.60	220.93
769.92	220.80
770.25	220.68
770.57	220.53
770.90	220.40
771.22	220.30
771.55	220.25
771.87	220.17
772.20	220.09
772.52	220.10
772.85	220.16
773.17	219.96
773.50	219.81
773.82	219.63
774.15	219.46
774.47	219.26
774.80	219.03
775.12	218.88
775.45	218.79
775.77	218.80
776.09	218.70
776.42	218.62
776.74	218.67
777.07	218.54
777.39	218.41
777.72	218.30
778.04	218.30
778.36	218.17
778.69	218.08
779.01	218.00
779.33	217.84
779.66	217.58
779.98	217.53
780.31	217.45
780.63	217.45
780.95	217.38
781.28	217.30
781.60	217.32
781.92	217.24
782.25	217.18
782.57	217.02
782.89	216.95
783.22	216.85
783.54	216.67
783.86	216.67
784.19	216.59
784.51	216.63
784.83	216.53
785.16	216.47
785.48	216.33
785.80	216.24
786.12	216.19
786.45	216.13
786.77	216.06
787.09	215.98
787.42	215.94
787.74	215.88
788.06	215.83
788.38	215.83
788.71	215.75
789.03	215.73
789.35	215.70
789.67	215.67
789.99	215.66
790.32	215.66
790.64	215.58
790.96	215.70
791.28	215.55
791.61	215.47
791.93	215.49
792.25	215.47
792.57	215.57
792.89	215.44
793.21	215.39
793.54	215.42
793.86	215.37
794.18	215.30
794.50	215.19
794.82	215.21
795.14	215.16
795.47	215.16
795.79	215.06
796.11	214.94
796.43	214.88
796.75	214.81
797.07	214.74
797.39	214.70
797.71	214.56
798.04	214.57
798.36	214.61
798.68	214.54
799.00	214.52
799.32	214.42
799.64	214.45
799.96	214.52
800.28	214.49
800.60	214.40
800.92	214.35
801.24	214.38
801.56	214.36
801.89	214.26
802.21	214.27
802.53	214.25
802.85	214.38
803.17	214.47
803.49	214.43
803.81	214.35
804.13	214.34
804.45	214.28
804.77	214.22
805.09	214.15
805.41	214.15
805.73	214.07
806.05	214.02
806.37	213.96
806.69	213.90
807.01	213.89
807.33	213.94
807.65	213.89
807.97	213.94
808.28	213.83
808.60	213.85
808.92	213.83
809.24	213.94
809.56	213.87
809.88	213.74
810.20	213.71
810.52	213.76
810.84	213.77
811.16	213.77
811.48	213.79
811.80	213.80
812.12	213.76
812.43	213.83
812.75	213.84
813.07	213.80
813.39	213.65
813.71	213.56
814.03	213.48
814.35	213.47
814.67	213.39
814.98	213.29
815.30	213.23
815.62	213.10
815.94	212.94
816.26	212.87
816.58	212.82
816.89	212.90
817.21	212.82
817.53	212.75
817.85	212.75
818.17	212.72
818.48	212.65
818.80	212.56
819.12	212.54
819.44	212.44
819.76	212.41
820.07	212.49
820.39	212.50
820.71	212.50
821.03	212.50
821.34	212.43
821.66	212.50
821.98	212.47
822.30	212.48
822.61	212.58
822.93	212.51
823.25	212.50
823.57	212.37
823.88	212.41
824.20	212.40
824.52	212.41
824.83	212.34
825.15	212.35
825.47	212.40
825.79	212.33
826.10	212.33
826.42	212.32
826.74	212.39
827.05	212.38
827.37	212.37
827.69	212.40
828.00	212.47
828.32	212.51
828.64	212.51
828.95	212.64
829.27	212.59
829.58	212.68
829.90	212.70
830.22	212.67
830.53	212.65
830.85	212.65
831.17	212.60
831.48	212.62
831.80	212.52
832.11	212.52
832.43	212.46
832.75	212.46
833.06	212.61
833.38	212.53
833.69	212.48
834.01	212.60
834.32	212.50
834.64	212.44
834.96	212.42
835.27	212.44
835.59	212.40
835.90	212.41
836.22	212.36
836.53	212.36
836.85	212.38
837.16	212.60
837.48	212.62
837.79	212.65
838.11	212.72
838.42	212.75
838.74	212.75
839.05	212.80
839.37	212.77
839.68	212.62
840.00	212.55
840.31	212.57
840.63	212.49
840.94	212.49
841.26	212.50
841.57	212.46
841.88	212.42
842.20	212.38
842.51	212.35
842.83	212.34
843.14	212.46
843.46	212.44
843.77	212.28
844.08	212.19
844.40	212.18
844.71	212.09
845.03	212.09
845.34	212.05
845.65	212.03
845.97	212.01
846.28	211.97
846.60	212.05
846.91	212.08
847.22	212.01
847.54	212.00
847.85	211.93
848.16	211.90
848.48	211.87
848.79	211.89
849.10	211.88
849.42	211.88
849.73	211.66
850.04	211.69
850.36	211.61
850.67	211.67
850.98	211.66
851.30	211.66
851.61	211.66
851.92	211.69
852.23	211.69
852.55	211.69
852.86	211.64
853.17	211.64
853.49	211.63
853.80	211.73
854.11	211.79
854.42	211.76
854.74	211.75
855.05	211.80
855.36	211.70
855.67	211.69
855.99	211.61
856.30	211.82
856.61	211.78
856.92	211.78
857.23	211.78
857.55	211.66
857.86	211.66
858.17	211.68
858.48	211.61
858.79	211.65
859.11	211.68
859.42	211.74
859.73	211.70
860.04	211.68
860.35	211.61
860.66	211.51
860.98	211.52
861.29	211.56
861.60	211.56
861.91	211.55
862.22	211.47
862.53	211.46
862.84	211.24
863.16	211.32
863.47	211.28
863.78	211.21
864.09	211.31
864.40	211.28
864.71	211.23
865.02	211.28
865.33	211.18
865.64	211.10
865.95	211.07
866.27	211.17
866.58	211.14
866.89	211.09
867.20	211.11
867.51	211.15
867.82	211.14
868.13	211.18
868.44	211.17
868.75	211.23
869.06	211.30
869.37	211.32
869.68	211.20
869.99	211.22
870.30	211.25
870.61	211.22
870.92	211.21
871.23	211.15
871.54	211.15
871.85	211.23
872.16	211.29
872.47	211.25
872.78	211.21
873.09	211.20
873.40	211.18
873.71	211.19
874.02	211.21
874.33	211.17
874.64	211.09
874.95	211.11
875.26	211.05
875.56	210.99
875.87	211.02
876.18	211.03
876.49	211.28
876.80	211.30
877.11	211.34
877.42	211.34
877.73	211.38
878.04	211.36
878.35	211.43
878.66	211.46
878.96	211.46
879.27	211.39
879.58	211.38
879.89	211.45
880.20	211.52
880.51	211.42
880.82	211.46
881.12	211.48
881.43	211.46
881.74	211.41
882.05	211.46
882.36	211.40
882.67	211.41
882.97	211.11
883.28	210.99
883.59	210.95
883.90	211.00
884.21	211.02
884.51	211.06
884.82	210.91
885.13	210.90
885.44	210.89
885.74	210.91
886.05	210.90
886.36	210.87
886.67	210.81
886.98	210.95
887.28	210.90
887.59	210.94
887.90	210.94
888.20	210.95
888.51	210.94
888.82	210.97
889.13	210.97
889.43	211.21
889.74	211.25
890.05	211.20
890.35	211.19
890.66	211.14
890.97	211.05
891.28	211.08
891.58	211.11
891.89	211.16
892.20	211.15
892.50	211.14
892.81	211.15
893.12	211.20
893.42	211.06
893.73	211.09
894.04	211.13
894.34	211.20
894.65	211.23
894.95	211.17
895.26	211.17
895.57	211.28
895.87	211.05
896.18	211.09
896.48	211.12
896.79	211.11
897.10	211.15
897.40	211.18
897.71	211.20
898.01	211.15
898.32	211.15
898.63	211.14
898.93	211.19
899.24	211.19
899.54	211.08
899.85	211.10
900.15	211.07
900.46	211.07
900.76	210.99
901.07	210.95
901.38	211.05
901.68	211.07
901.99	210.97
902.29	210.98
902.60	210.94
902.90	210.93
903.21	210.97
903.51	210.96
903.82	211.00
904.12	210.96
904.43	210.93
904.73	210.87
905.03	210.88
905.34	211.06
905.64	211.04
905.95	211.10
906.25	211.06
906.56	211.02
906.86	210.96
907.17	210.99
907.47	211.06
907.77	211.05
908.08	211.01
908.38	210.99
908.69	211.02
908.99	211.10
909.30	211.09
909.60	211.07
909.90	211.05
910.21	210.97
910.51	210.96
910.81	211.03
911.12	211.07
911.42	211.04
911.73	210.86
912.03	210.87
912.33	210.90
912.64	210.87
912.94	210.99
913.24	210.90
913.55	210.84
913.85	210.81
914.15	210.81
914.46	210.84
914.76	210.91
915.06	210.88
915.37	210.82
915.67	210.84
915.97	210.80
916.27	210.78
916.58	210.77
916.88	210.74
917.18	210.67
917.49	210.85
917.79	210.88
918.09	210.87
918.39	210.91
918.70	210.87
919.00	210.95
919.30	210.96
919.60	210.91
919.91	210.93
920.21	210.92
920.51	210.82
920.81	210.74
921.12	210.74
921.42	210.75
921.72	210.76
922.02	210.75
922.32	210.83
922.63	210.82
922.93	210.95
923.23	211.03
923.53	211.08
923.83	210.88
924.13	210.88
924.44	210.86
924.74	210.93
925.04	210.99
925.34	210.92
925.64	210.88
925.94	210.98
926.24	211.12
926.55	211.16
926.85	211.22
927.15	211.27
927.45	211.23
927.75	211.26
928.05	211.22
928.35	211.20
928.65	211.14
928.95	211.16
929.26	211.07
929.56	211.05
929.86	211.04
930.16	211.04
930.46	211.02
930.76	211.01
931.06	210.87
931.36	210.80
931.66	210.89
931.96	210.85
932.26	210.81
932.56	210.76
932.86	210.74
933.16	210.78
933.46	210.75
933.76	210.67
934.06	210.70
934.36	210.81
934.66	210.78
934.96	210.80
935.26	210.77
935.56	210.82
935.86	210.80
936.16	210.78
936.46	210.81
936.76	210.80
937.06	210.77
937.36	210.83
937.66	210.88
937.96	210.86
938.26	210.89
938.56	210.91
938.86	210.86
939.16	210.95
939.46	210.97
939.76	210.96
940.06	211.02
940.35	210.97
940.65	210.90
940.95	210.92
941.25	210.89
941.55	210.93
941.85	210.92
942.15	210.94
942.45	211.09
942.75	211.02
943.04	211.10
943.34	211.12
943.64	211.10
943.94	211.08
944.24	211.07
944.54	211.08
944.84	211.06
945.13	211.06
945.43	210.96
945.73	210.93
946.03	210.95
946.33	210.98
946.62	210.94
946.92	210.97
947.22	210.98
947.52	210.97
947.82	210.95
948.11	210.91
948.41	210.90
948.71	210.71
949.01	210.83
949.31	210.79
949.60	210.76
949.90	210.70
950.20	210.63
950.50	210.64
950.79	210.57
951.09	210.58
951.39	210.56
951.69	210.56
951.98	210.55
952.28	210.55
952.58	210.52
952.87	210.53
953.17	210.48
953.47	210.49
953.76	210.53
954.06	210.50
954.36	210.50
954.66	210.46
954.95	210.57
955.25	210.53
955.55	210.55
955.84	210.58
956.14	210.66
956.44	210.69
956.73	210.65
957.03	210.64
957.32	210.66
957.62	210.65
957.92	210.72
958.21	210.69
958.51	210.94
958.81	210.88
959.10	210.96
959.40	210.97
959.69	211.03
959.99	211.01
960.29	211.04
960.58	211.07
960.88	211.13
961.17	211.06
961.47	211.07
961.76	211.04
962.06	211.06
962.36	211.03
962.65	211.04
962.95	211.08
963.24	211.13
963.54	211.14
963.83	211.21
964.13	211.18
964.42	211.11
964.72	210.91
965.01	210.96
965.31	210.92
965.60	210.89
965.90	210.94
966.19	210.91
966.49	210.94
966.78	210.94
967.08	210.95
967.37	210.98
967.67	210.94
967.96	210.94
968.26	210.92
968.55	210.93
968.85	210.92
969.14	210.91
969.43	210.90
969.73	210.85
970.02	210.79
970.32	210.69
970.61	210.75
970.91	210.69
971.20	210.67
971.49	210.66
971.79	210.71
972.08	210.58
972.38	210.57
972.67	210.59
972.96	210.60
973.26	210.61
973.55	210.65
973.85	210.68
974.14	210.72
974.43	210.77
974.73	210.78
975.02	210.74
975.31	210.70
975.61	210.63
975.90	210.71
976.19	210.72
976.49	210.77
976.78	210.81
977.07	210.81
977.37	210.83
977.66	210.81
977.95	210.81
978.24	210.85
978.54	210.99
978.83	210.93
979.12	210.89
979.42	210.87
979.71	210.81
980.00	210.71
980.29	210.68
980.59	210.58
980.88	210.60
981.17	210.65
981.46	210.65
981.76	210.68
982.05	210.68
982.34	210.66
982.63	210.69
982.93	210.66
983.22	210.77
983.51	210.79
983.80	210.80
984.09	210.83
984.39	210.89
984.68	210.78
984.97	210.80
985.26	210.82
985.55	210.85
985.85	210.88
986.14	211.02
986.43	211.10
986.72	211.14
987.01	211.07
987.30	211.09
987.59	211.09
987.89	211.16
988.18	211.14
988.47	211.20
988.76	211.20
989.05	211.27
989.34	211.16
989.63	211.18
989.92	211.20
990.22	211.10
990.51	211.04
990.80	211.10
991.09	211.11
991.38	211.08
991.67	211.05
991.96	211.06
992.25	211.04
992.54	210.96
992.83	210.97
993.12	210.98
993.41	211.00
993.70	211.08
993.99	211.10
994.28	211.10
994.58	211.11
994.87	211.13
995.16	211.03
995.45	211.07
995.74	211.04
996.03	211.08
996.32	211.20
996.61	211.23
996.90	211.18
997.19	211.19
997.48	211.22
997.77	211.22
998.06	211.20
998.34	211.21
998.63	211.16
998.92	211.12
999.21	211.17
999.50	211.11
999.79	211.09
1000.08	211.05
1000.37	211.01
1000.66	210.96
1000.95	210.95
1001.24	210.99
1001.53	210.98
1001.82	210.92
1002.11	210.85
1002.40	210.87
1002.68	210.87
1002.97	211.03
1003.26	210.95
1003.55	210.90
1003.84	210.85
1004.13	210.86
1004.42	210.77
1004.71	210.82
1004.99	210.88
1005.28	210.96
1005.57	211.00
1005.86	210.96
1006.15	210.98
1006.44	210.95
1006.72	210.98
1007.01	210.96
1007.30	210.91
1007.59	210.92
1007.88	210.98
1008.17	210.95
1008.45	210.85
1008.74	210.77
1009.03	210.73
1009.32	210.81
1009.60	210.78
1009.89	210.77
1010.18	210.65
1010.47	210.67
1010.76	210.60
1011.04	210.59
1011.33	210.53
1011.62	210.51
1011.91	210.45
1012.19	210.43
1012.48	210.54
1012.77	210.51
1013.05	210.60
1013.34	210.66
1013.63	210.64
1013.92	210.59
1014.20	210.65
1014.49	210.74
1014.78	210.82
1015.06	210.75
1015.35	210.72
1015.64	210.78
1015.92	210.84
1016.21	210.91
1016.50	210.98
1016.78	211.09
1017.07	211.14
1017.36	211.09
1017.64	211.10
1017.93	211.16
1018.22	211.20
1018.50	211.12
1018.79	211.13
1019.08	211.00
1019.36	210.96
1019.65	210.92
1019.93	211.09
1020.22	211.16
1020.51	211.20
1020.79	211.17
1021.08	211.30
1021.36	210.50
1021.65	210.95
1021.94	209.75
1022.22	209.90
1022.51	209.95
1022.79	213.50
1023.08	212.45
1023.36	213.05
1023.65	211.05
>>>>>End Processed Spectral Data<<<<<
