SpectraSuite Data File
++++++++++++++++++++++++++++++++++++
Date: Mon Feb 25 17:31:09 EST 2013
User: group
Dark Spectrum Present: No
Reference Spectrum Present: No
Number of Sampled Component Spectra: 1
Spectrometers: USB2E7196
Integration Time (usec): 52000 (USB2E7196)
Spectra Averaged: 20 (USB2E7196)
Boxcar Smoothing: 10 (USB2E7196)
Correct for Electrical Dark: No (USB2E7196)
Strobe/Lamp Enabled: No (USB2E7196)
Correct for Detector Non-linearity: No (USB2E7196)
Correct for Stray Light: No (USB2E7196)
Number of Pixels in Processed Spectrum: 2048
>>>>>Begin Processed Spectral Data<<<<<
339.09	0.00
339.48	198.75
339.86	201.10
340.24	202.65
340.63	203.30
341.01	207.45
341.39	206.85
341.78	208.20
342.16	208.40
342.54	209.95
342.93	198.56
343.31	208.58
343.69	209.18
344.07	209.61
344.46	210.04
344.84	210.42
345.22	210.61
345.60	210.85
345.99	211.07
346.37	211.25
346.75	211.36
347.13	211.38
347.52	211.37
347.90	211.50
348.28	211.53
348.66	211.57
349.05	211.54
349.43	211.59
349.81	211.63
350.19	211.70
350.57	211.81
350.96	211.85
351.34	211.97
351.72	211.96
352.10	212.06
352.48	212.05
352.87	212.09
353.25	212.15
353.63	212.15
354.01	212.14
354.39	212.11
354.77	212.13
355.15	212.30
355.54	212.38
355.92	212.31
356.30	212.35
356.68	212.50
357.06	212.53
357.44	212.50
357.82	212.54
358.20	212.63
358.58	212.65
358.97	212.76
359.35	212.83
359.73	212.94
360.11	212.96
360.49	213.03
360.87	213.12
361.25	213.16
361.63	213.31
362.01	213.32
362.39	213.45
362.77	213.50
363.15	213.53
363.53	213.57
363.91	213.69
364.29	213.71
364.67	213.60
365.05	213.70
365.43	213.81
365.81	213.79
366.19	213.85
366.57	213.93
366.95	213.93
367.33	213.92
367.71	213.92
368.09	213.97
368.47	213.96
368.85	213.97
369.23	214.00
369.61	213.92
369.99	214.02
370.37	213.93
370.75	213.98
371.13	213.91
371.51	213.91
371.89	213.92
372.27	213.93
372.65	213.87
373.03	213.79
373.41	213.70
373.78	213.74
374.16	213.68
374.54	213.56
374.92	213.55
375.30	213.44
375.68	213.35
376.06	213.29
376.44	213.19
376.82	213.13
377.19	213.09
377.57	213.00
377.95	212.86
378.33	212.88
378.71	212.74
379.09	212.70
379.47	212.65
379.84	212.56
380.22	212.44
380.60	212.37
380.98	212.29
381.36	212.30
381.73	212.23
382.11	212.16
382.49	212.20
382.87	212.13
383.25	212.10
383.62	212.39
384.00	212.29
384.38	212.35
384.76	212.37
385.13	212.32
385.51	212.27
385.89	212.24
386.27	212.19
386.64	212.21
387.02	212.15
387.40	212.07
387.78	212.04
388.15	212.03
388.53	212.05
388.91	212.04
389.29	211.98
389.66	211.92
390.04	211.95
390.42	211.95
390.79	211.97
391.17	212.05
391.55	211.72
391.92	211.72
392.30	211.79
392.68	211.72
393.05	211.77
393.43	211.80
393.81	211.86
394.18	211.78
394.56	211.72
394.94	211.73
395.31	211.73
395.69	211.73
396.06	211.80
396.44	211.78
396.82	211.77
397.19	211.86
397.57	211.86
397.95	211.81
398.32	211.72
398.70	211.68
399.07	211.69
399.45	211.79
399.82	211.86
400.20	211.80
400.58	211.82
400.95	211.75
401.33	211.91
401.70	212.02
402.08	212.09
402.45	212.13
402.83	212.23
403.20	212.35
403.58	212.44
403.95	212.52
404.33	212.66
404.71	212.70
405.08	212.80
405.46	212.95
405.83	213.09
406.21	213.26
406.58	213.40
406.96	213.46
407.33	213.60
407.70	213.79
408.08	214.11
408.45	214.38
408.83	214.63
409.20	214.79
409.58	214.87
409.95	215.17
410.33	215.59
410.70	215.83
411.08	216.18
411.45	216.53
411.82	216.86
412.20	217.31
412.57	217.89
412.95	218.22
413.32	218.72
413.69	219.21
414.07	219.72
414.44	220.30
414.82	220.98
415.19	221.73
415.56	222.44
415.94	223.11
416.31	223.95
416.68	224.77
417.06	225.75
417.43	226.74
417.81	227.80
418.18	228.81
418.55	230.05
418.93	231.33
419.30	232.63
419.67	234.04
420.04	235.43
420.42	236.95
420.79	238.77
421.16	240.50
421.54	242.37
421.91	244.15
422.28	246.04
422.66	248.05
423.03	250.02
423.40	252.04
423.77	254.18
424.15	256.40
424.52	258.74
424.89	261.31
425.26	263.77
425.64	266.10
426.01	268.65
426.38	271.30
426.75	273.82
427.13	276.52
427.50	279.31
427.87	282.34
428.24	285.25
428.61	288.08
428.99	291.13
429.36	294.44
429.73	297.93
430.10	301.30
430.47	304.82
430.85	308.42
431.22	312.25
431.59	316.28
431.96	320.09
432.33	324.48
432.70	328.53
433.08	333.44
433.45	337.95
433.82	342.48
434.19	347.39
434.56	352.42
434.93	357.21
435.30	361.99
435.68	367.09
436.05	372.30
436.42	377.38
436.79	382.02
437.16	387.05
437.53	392.24
437.90	397.56
438.27	402.60
438.64	407.74
439.01	412.73
439.38	417.05
439.75	421.33
440.13	426.02
440.50	430.50
440.87	434.09
441.24	437.94
441.61	442.07
441.98	445.08
442.35	448.59
442.72	452.10
443.09	455.52
443.46	457.57
443.83	458.88
444.20	459.98
444.57	461.73
444.94	462.46
445.31	463.20
445.68	463.91
446.05	463.98
446.42	463.40
446.79	462.49
447.16	461.63
447.53	460.93
447.90	458.90
448.27	456.80
448.64	453.88
449.01	451.80
449.37	448.29
449.74	444.96
450.11	440.97
450.48	436.52
450.85	432.00
451.22	428.19
451.59	424.47
451.96	420.90
452.33	416.21
452.70	412.02
453.07	406.93
453.43	401.61
453.80	396.73
454.17	392.03
454.54	387.68
454.91	383.00
455.28	378.32
455.65	373.92
456.02	369.72
456.38	366.13
456.75	361.51
457.12	357.65
457.49	353.88
457.86	350.16
458.23	347.04
458.59	343.70
458.96	340.20
459.33	337.14
459.70	334.03
460.07	331.65
460.43	328.83
460.80	326.29
461.17	324.00
461.54	321.74
461.91	319.56
462.27	317.17
462.64	315.15
463.01	313.02
463.38	311.00
463.74	308.78
464.11	306.87
464.48	305.33
464.85	303.62
465.21	302.31
465.58	300.91
465.95	299.33
466.32	297.83
466.68	296.47
467.05	295.02
467.42	293.78
467.78	292.42
468.15	291.10
468.52	290.14
468.88	289.01
469.25	288.00
469.62	287.06
469.98	286.15
470.35	285.25
470.72	284.37
471.08	283.42
471.45	282.69
471.82	282.04
472.18	281.20
472.55	280.73
472.92	279.96
473.28	279.40
473.65	278.81
474.02	278.35
474.38	277.87
474.75	277.59
475.11	277.17
475.48	276.95
475.85	276.68
476.21	276.47
476.58	276.30
476.94	276.14
477.31	276.12
477.67	276.08
478.04	276.19
478.41	276.34
478.77	276.67
479.14	276.83
479.50	277.08
479.87	277.49
480.23	277.84
480.60	278.31
480.96	278.66
481.33	279.28
481.69	279.86
482.06	280.47
482.42	281.18
482.79	281.95
483.15	282.68
483.52	283.73
483.88	284.66
484.25	285.66
484.61	286.72
484.98	287.81
485.34	289.10
485.71	290.46
486.07	291.82
486.44	293.06
486.80	294.55
487.17	296.08
487.53	297.85
487.90	299.56
488.26	301.45
488.62	303.57
488.99	305.59
489.35	307.71
489.72	310.00
490.08	312.38
490.44	314.85
490.81	317.56
491.17	320.14
491.54	322.93
491.90	325.83
492.26	329.03
492.63	332.31
492.99	335.77
493.36	339.40
493.72	343.24
494.08	347.25
494.45	351.46
494.81	355.93
495.17	360.40
495.54	365.30
495.90	370.24
496.26	375.40
496.63	380.89
496.99	386.70
497.35	392.67
497.72	398.91
498.08	405.32
498.44	411.92
498.80	419.14
499.17	426.56
499.53	434.21
499.89	442.07
500.26	450.08
500.62	458.42
500.98	467.14
501.34	476.27
501.71	485.67
502.07	495.38
502.43	505.29
502.79	515.63
503.16	526.23
503.52	537.20
503.88	548.48
504.24	560.01
504.60	571.75
504.97	584.10
505.33	596.54
505.69	609.80
506.05	623.24
506.41	636.71
506.78	650.48
507.14	664.54
507.50	679.05
507.86	694.05
508.22	709.49
508.59	724.92
508.95	740.65
509.31	756.90
509.67	773.27
510.03	789.88
510.39	807.01
510.75	824.71
511.12	842.70
511.48	860.83
511.84	879.18
512.20	897.85
512.56	916.85
512.92	936.20
513.28	955.66
513.64	975.06
514.00	994.82
514.37	1015.07
514.73	1035.76
515.09	1056.31
515.45	1076.92
515.81	1097.70
516.17	1118.98
516.53	1140.19
516.89	1161.44
517.25	1182.88
517.61	1204.64
517.97	1226.00
518.33	1247.22
518.69	1268.48
519.05	1290.50
519.41	1312.46
519.77	1334.61
520.13	1356.25
520.49	1377.96
520.85	1400.15
521.21	1422.54
521.57	1445.06
521.93	1466.78
522.29	1489.25
522.65	1511.55
523.01	1533.82
523.37	1555.52
523.73	1577.34
524.09	1599.37
524.45	1621.45
524.81	1643.60
525.17	1665.70
525.53	1687.91
525.89	1709.69
526.25	1731.80
526.61	1752.48
526.97	1773.99
527.33	1794.95
527.68	1816.29
528.04	1837.45
528.40	1857.45
528.76	1877.76
529.12	1897.96
529.48	1919.24
529.84	1939.18
530.20	1959.02
530.56	1978.96
530.91	1999.54
531.27	2019.63
531.63	2039.00
531.99	2058.31
532.35	2076.98
532.71	2095.80
533.07	2114.83
533.42	2133.27
533.78	2151.58
534.14	2169.74
534.50	2186.26
534.86	2203.64
535.21	2220.01
535.57	2237.34
535.93	2254.31
536.29	2270.86
536.65	2287.20
537.00	2302.30
537.36	2317.34
537.72	2332.39
538.08	2347.36
538.44	2362.10
538.79	2376.86
539.15	2391.65
539.51	2406.17
539.87	2421.43
540.22	2435.11
540.58	2449.57
540.94	2463.94
541.29	2476.53
541.65	2488.57
542.01	2501.71
542.37	2513.58
542.72	2525.33
543.08	2535.75
543.44	2547.23
543.79	2557.12
544.15	2567.25
544.51	2577.90
544.87	2588.67
545.22	2597.54
545.58	2605.56
545.94	2612.44
546.29	2618.78
546.65	2624.94
547.01	2630.47
547.36	2635.74
547.72	2641.47
548.07	2645.11
548.43	2648.15
548.79	2651.69
549.14	2655.99
549.50	2659.96
549.86	2663.78
550.21	2667.50
550.57	2671.36
550.92	2673.62
551.28	2676.05
551.64	2678.18
551.99	2680.46
552.35	2681.57
552.70	2684.01
553.06	2686.69
553.41	2689.61
553.77	2692.32
554.13	2694.32
554.48	2695.81
554.84	2696.81
555.19	2696.69
555.55	2696.69
555.90	2697.23
556.26	2697.39
556.61	2697.25
556.97	2695.88
557.32	2695.03
557.68	2693.39
558.03	2691.56
558.39	2690.01
558.74	2689.67
559.10	2688.54
559.45	2686.30
559.81	2685.05
560.16	2682.08
560.52	2679.68
560.87	2676.60
561.23	2672.58
561.58	2669.93
561.94	2666.97
562.29	2662.92
562.64	2660.56
563.00	2658.35
563.35	2655.87
563.71	2654.18
564.06	2651.98
564.42	2650.24
564.77	2647.67
565.12	2646.01
565.48	2642.99
565.83	2640.00
566.19	2636.40
566.54	2632.17
566.89	2628.18
567.25	2624.36
567.60	2621.25
567.96	2617.52
568.31	2614.17
568.66	2610.47
569.02	2605.85
569.37	2600.73
569.72	2597.20
570.08	2592.17
570.43	2586.40
570.78	2580.94
571.14	2574.39
571.49	2567.99
571.84	2561.94
572.20	2554.95
572.55	2548.16
572.90	2541.41
573.26	2534.47
573.61	2527.36
573.96	2520.50
574.31	2512.87
574.67	2504.58
575.02	2496.31
575.37	2487.70
575.72	2478.51
576.08	2471.00
576.43	2462.33
576.78	2454.59
577.13	2446.62
577.49	2438.69
577.84	2431.18
578.19	2423.72
578.54	2416.72
578.90	2409.57
579.25	2400.96
579.60	2392.18
579.95	2383.15
580.30	2375.42
580.66	2367.50
581.01	2358.85
581.36	2349.80
581.71	2341.63
582.06	2333.41
582.42	2325.47
582.77	2316.49
583.12	2307.82
583.47	2299.14
583.82	2291.19
584.17	2282.10
584.53	2273.08
584.88	2264.45
585.23	2255.55
585.58	2245.71
585.93	2235.99
586.28	2226.98
586.63	2218.22
586.98	2210.59
587.34	2202.41
587.69	2193.54
588.04	2184.33
588.39	2175.94
588.74	2167.16
589.09	2158.45
589.44	2149.17
589.79	2140.50
590.14	2132.80
590.49	2124.59
590.84	2115.82
591.19	2107.52
591.54	2099.25
591.89	2089.42
592.25	2080.24
592.60	2070.85
592.95	2061.90
593.30	2052.78
593.65	2043.30
594.00	2033.99
594.35	2025.59
594.70	2016.58
595.05	2008.09
595.40	1999.62
595.75	1990.41
596.10	1982.47
596.45	1974.46
596.80	1967.03
597.15	1958.88
597.50	1949.83
597.85	1941.61
598.19	1932.97
598.54	1924.32
598.89	1916.64
599.24	1910.10
599.59	1902.92
599.94	1895.97
600.29	1888.45
600.64	1880.69
600.99	1872.37
601.34	1865.17
601.69	1856.62
602.04	1848.79
602.39	1840.67
602.74	1833.10
603.08	1826.85
603.43	1819.76
603.78	1811.70
604.13	1803.81
604.48	1795.90
604.83	1789.14
605.18	1782.11
605.53	1774.85
605.87	1767.95
606.22	1761.25
606.57	1753.47
606.92	1745.45
607.27	1737.70
607.62	1730.61
607.96	1723.74
608.31	1717.81
608.66	1710.36
609.01	1702.90
609.36	1695.17
609.70	1687.04
610.05	1679.36
610.40	1671.13
610.75	1662.88
611.10	1655.45
611.44	1646.31
611.79	1637.65
612.14	1628.69
612.49	1619.37
612.83	1611.20
613.18	1601.47
613.53	1591.90
613.88	1582.26
614.22	1573.65
614.57	1564.51
614.92	1555.37
615.27	1546.11
615.61	1536.37
615.96	1527.51
616.31	1519.34
616.65	1511.82
617.00	1504.05
617.35	1495.76
617.70	1486.79
618.04	1478.03
618.39	1468.77
618.74	1460.50
619.08	1452.05
619.43	1443.87
619.78	1436.24
620.12	1427.92
620.47	1420.53
620.82	1412.03
621.16	1403.93
621.51	1395.51
621.85	1387.54
622.20	1379.32
622.55	1371.18
622.89	1363.16
623.24	1355.19
623.59	1346.61
623.93	1337.81
624.28	1329.56
624.62	1321.60
624.97	1313.69
625.32	1305.83
625.66	1298.65
626.01	1291.68
626.35	1284.66
626.70	1277.33
627.04	1269.93
627.39	1262.66
627.73	1255.00
628.08	1248.33
628.43	1241.31
628.77	1234.25
629.12	1226.90
629.46	1220.21
629.81	1213.43
630.15	1206.22
630.50	1199.21
630.84	1192.12
631.19	1185.37
631.53	1178.66
631.88	1170.89
632.22	1163.60
632.57	1156.73
632.91	1149.37
633.26	1141.99
633.60	1134.78
633.95	1127.92
634.29	1120.48
634.64	1113.77
634.98	1106.91
635.32	1100.00
635.67	1093.79
636.01	1087.15
636.36	1080.43
636.70	1073.69
637.05	1067.12
637.39	1060.94
637.73	1054.48
638.08	1048.65
638.42	1042.63
638.77	1036.34
639.11	1030.35
639.45	1024.50
639.80	1018.25
640.14	1011.85
640.49	1005.79
640.83	999.82
641.17	993.50
641.52	987.79
641.86	981.32
642.20	975.35
642.55	968.61
642.89	962.13
643.23	955.84
643.58	950.21
643.92	943.89
644.26	937.73
644.61	931.56
644.95	925.55
645.29	919.28
645.64	912.87
645.98	906.71
646.32	900.97
646.66	894.77
647.01	888.85
647.35	883.31
647.69	877.14
648.04	871.40
648.38	865.68
648.72	859.68
649.06	853.81
649.41	847.78
649.75	842.35
650.09	836.63
650.43	830.75
650.78	824.58
651.12	818.73
651.46	813.14
651.80	807.37
652.14	801.65
652.49	795.92
652.83	790.18
653.17	784.16
653.51	778.24
653.85	772.71
654.20	767.05
654.54	761.14
654.88	755.66
655.22	749.81
655.56	744.01
655.90	738.39
656.25	732.70
656.59	727.43
656.93	722.25
657.27	717.22
657.61	711.95
657.95	706.80
658.29	701.87
658.64	696.74
658.98	691.61
659.32	686.19
659.66	681.01
660.00	675.74
660.34	670.75
660.68	665.81
661.02	660.74
661.36	655.98
661.70	651.39
662.05	646.84
662.39	642.40
662.73	638.02
663.07	633.71
663.41	629.51
663.75	624.95
664.09	620.23
664.43	615.40
664.77	611.04
665.11	606.72
665.45	602.32
665.79	597.89
666.13	593.67
666.47	589.55
666.81	585.62
667.15	581.66
667.49	577.82
667.83	573.90
668.17	570.16
668.51	566.43
668.85	562.76
669.19	559.23
669.53	555.28
669.87	551.30
670.21	547.45
670.55	543.59
670.89	540.17
671.23	536.80
671.57	533.46
671.91	529.90
672.25	526.50
672.58	523.01
672.92	519.74
673.26	516.61
673.60	513.55
673.94	510.16
674.28	507.03
674.62	503.99
674.96	500.93
675.30	497.70
675.64	494.53
675.97	491.37
676.31	488.17
676.65	485.40
676.99	482.82
677.33	479.99
677.67	477.15
678.01	474.28
678.34	471.37
678.68	468.50
679.02	465.58
679.36	462.85
679.70	460.24
680.04	457.26
680.37	454.21
680.71	451.37
681.05	448.78
681.39	446.11
681.73	443.41
682.06	440.86
682.40	438.49
682.74	435.88
683.08	433.40
683.42	430.88
683.75	428.34
684.09	425.72
684.43	423.35
684.77	420.74
685.10	418.11
685.44	415.68
685.78	413.15
686.12	411.03
686.45	408.52
686.79	406.25
687.13	404.13
687.46	402.05
687.80	399.83
688.14	397.57
688.48	395.40
688.81	393.09
689.15	390.95
689.49	388.70
689.82	386.48
690.16	384.20
690.50	381.91
690.83	379.76
691.17	377.62
691.51	375.43
691.84	373.42
692.18	371.46
692.52	369.61
692.85	367.90
693.19	366.10
693.52	364.30
693.86	362.21
694.20	360.42
694.53	358.57
694.87	356.76
695.21	354.95
695.54	353.07
695.88	351.25
696.21	349.37
696.55	347.65
696.88	345.99
697.22	344.27
697.56	342.81
697.89	341.20
698.23	339.64
698.56	338.00
698.90	336.52
699.23	334.93
699.57	333.31
699.90	331.66
700.24	329.91
700.58	328.29
700.91	326.88
701.25	325.49
701.58	324.13
701.92	322.77
702.25	321.32
702.59	320.01
702.92	318.77
703.26	317.40
703.59	316.20
703.93	315.10
704.26	313.90
704.60	312.56
704.93	311.30
705.26	310.05
705.60	308.85
705.93	307.60
706.27	306.39
706.60	305.26
706.94	304.24
707.27	303.17
707.61	302.18
707.94	300.99
708.27	299.77
708.61	298.65
708.94	297.49
709.28	296.42
709.61	295.26
709.94	294.24
710.28	293.34
710.61	292.27
710.95	291.14
711.28	290.14
711.61	289.18
711.95	288.23
712.28	287.18
712.61	286.20
712.95	285.36
713.28	284.55
713.61	283.52
713.95	282.57
714.28	281.71
714.61	280.65
714.95	279.87
715.28	278.97
715.61	278.07
715.95	277.25
716.28	276.41
716.61	275.66
716.95	274.78
717.28	273.96
717.61	273.11
717.94	272.33
718.28	271.55
718.61	270.82
718.94	270.06
719.27	269.37
719.61	268.75
719.94	267.96
720.27	267.20
720.60	266.57
720.94	265.82
721.27	265.12
721.60	264.65
721.93	264.00
722.27	263.43
722.60	262.80
722.93	262.17
723.26	261.59
723.59	261.00
723.93	260.37
724.26	259.77
724.59	259.27
724.92	258.72
725.25	258.25
725.59	257.71
725.92	257.15
726.25	256.67
726.58	256.12
726.91	255.63
727.24	255.16
727.57	254.61
727.91	254.10
728.24	253.65
728.57	253.07
728.90	252.60
729.23	252.10
729.56	251.69
729.89	251.24
730.22	250.81
730.55	250.31
730.89	249.90
731.22	249.33
731.55	248.74
731.88	248.25
732.21	247.74
732.54	247.28
732.87	246.85
733.20	246.39
733.53	246.02
733.86	245.69
734.19	245.18
734.52	244.91
734.85	244.70
735.18	244.28
735.51	244.00
735.84	243.65
736.17	243.33
736.50	242.89
736.83	242.70
737.16	242.33
737.49	241.97
737.82	241.60
738.15	241.39
738.48	241.10
738.81	240.79
739.14	240.38
739.47	240.01
739.80	239.73
740.13	239.33
740.46	238.91
740.79	238.49
741.12	238.22
741.45	237.77
741.78	237.33
742.11	237.02
742.44	236.72
742.77	236.53
743.10	236.15
743.43	235.82
743.75	235.38
744.08	235.28
744.41	235.01
744.74	234.74
745.07	234.41
745.40	234.25
745.73	234.04
746.06	233.83
746.39	233.48
746.71	233.18
747.04	232.94
747.37	232.75
747.70	232.55
748.03	232.24
748.36	232.15
748.68	231.90
749.01	231.65
749.34	231.33
749.67	231.02
750.00	230.78
750.33	230.73
750.65	230.37
750.98	229.94
751.31	229.71
751.64	229.45
751.97	229.36
752.29	229.07
752.62	228.77
752.95	228.50
753.28	228.44
753.60	228.23
753.93	228.10
754.26	227.84
754.59	227.59
754.91	227.41
755.24	227.14
755.57	226.92
755.90	226.75
756.22	226.54
756.55	226.32
756.88	226.16
757.20	225.87
757.53	225.71
757.86	225.57
758.19	225.32
758.51	225.17
758.84	224.86
759.17	224.72
759.49	224.51
759.82	224.46
760.15	224.27
760.47	224.13
760.80	223.88
761.13	223.76
761.45	223.59
761.78	223.47
762.11	223.32
762.43	223.19
762.76	223.06
763.08	222.98
763.41	222.88
763.74	222.72
764.06	222.49
764.39	222.46
764.71	222.26
765.04	222.15
765.37	222.03
765.69	221.90
766.02	221.70
766.34	221.63
766.67	221.40
767.00	221.30
767.32	221.18
767.65	221.24
767.97	221.11
768.30	220.97
768.62	220.83
768.95	220.67
769.27	220.60
769.60	220.51
769.92	220.34
770.25	220.19
770.57	220.03
770.90	219.95
771.22	219.80
771.55	219.69
771.87	219.57
772.20	219.43
772.52	219.40
772.85	219.50
773.17	219.35
773.50	219.20
773.82	219.12
774.15	219.03
774.47	218.72
774.80	218.65
775.12	218.59
775.45	218.51
775.77	218.40
776.09	218.26
776.42	218.19
776.74	218.15
777.07	218.11
777.39	218.12
777.72	218.03
778.04	217.95
778.36	217.85
778.69	217.86
779.01	217.81
779.33	217.65
779.66	217.38
779.98	217.26
780.31	217.21
780.63	217.22
780.95	217.08
781.28	217.05
781.60	216.96
781.92	216.94
782.25	216.90
782.57	216.85
782.89	216.74
783.22	216.63
783.54	216.53
783.86	216.40
784.19	216.29
784.51	216.34
784.83	216.25
785.16	216.27
785.48	216.23
785.80	216.21
786.12	216.19
786.45	216.22
786.77	216.24
787.09	216.23
787.42	216.14
787.74	216.14
788.06	216.10
788.38	216.01
788.71	216.01
789.03	215.90
789.35	215.94
789.67	215.93
789.99	215.94
790.32	215.92
790.64	215.90
790.96	215.98
791.28	215.87
791.61	215.87
791.93	215.80
792.25	215.74
792.57	215.78
792.89	215.73
793.21	215.70
793.54	215.64
793.86	215.62
794.18	215.54
794.50	215.52
794.82	215.58
795.14	215.60
795.47	215.51
795.79	215.51
796.11	215.38
796.43	215.37
796.75	215.30
797.07	215.24
797.39	215.29
797.71	215.16
798.04	215.11
798.36	215.02
798.68	215.03
799.00	214.94
799.32	214.83
799.64	214.76
799.96	214.74
800.28	214.73
800.60	214.67
800.92	214.61
801.24	214.60
801.56	214.51
801.89	214.45
802.21	214.44
802.53	214.33
802.85	214.35
803.17	214.43
803.49	214.36
803.81	214.31
804.13	214.26
804.45	214.21
804.77	214.18
805.09	214.20
805.41	214.06
805.73	214.03
806.05	213.97
806.37	213.92
806.69	213.84
807.01	213.85
807.33	213.83
807.65	213.83
807.97	213.82
808.28	213.80
808.60	213.78
808.92	213.78
809.24	213.91
809.56	213.85
809.88	213.68
810.20	213.68
810.52	213.71
810.84	213.62
811.16	213.54
811.48	213.54
811.80	213.58
812.12	213.62
812.43	213.58
812.75	213.51
813.07	213.50
813.39	213.50
813.71	213.40
814.03	213.32
814.35	213.25
814.67	213.16
814.98	213.16
815.30	213.08
815.62	212.94
815.94	212.81
816.26	212.83
816.58	212.81
816.89	212.79
817.21	212.65
817.53	212.64
817.85	212.72
818.17	212.70
818.48	212.59
818.80	212.63
819.12	212.62
819.44	212.61
819.76	212.61
820.07	212.57
820.39	212.59
820.71	212.55
821.03	212.53
821.34	212.55
821.66	212.53
821.98	212.57
822.30	212.55
822.61	212.66
822.93	212.58
823.25	212.60
823.57	212.54
823.88	212.69
824.20	212.67
824.52	212.65
824.83	212.61
825.15	212.55
825.47	212.53
825.79	212.59
826.10	212.59
826.42	212.53
826.74	212.52
827.05	212.56
827.37	212.62
827.69	212.66
828.00	212.60
828.32	212.61
828.64	212.52
828.95	212.65
829.27	212.55
829.58	212.54
829.90	212.53
830.22	212.62
830.53	212.40
830.85	212.40
831.17	212.27
831.48	212.23
831.80	212.29
832.11	212.23
832.43	212.20
832.75	212.21
833.06	212.33
833.38	212.27
833.69	212.21
834.01	212.20
834.32	212.08
834.64	212.04
834.96	212.00
835.27	211.99
835.59	211.92
835.90	211.90
836.22	211.97
836.53	211.94
836.85	211.83
837.16	212.08
837.48	212.02
837.79	212.15
838.11	212.21
838.42	212.17
838.74	212.11
839.05	212.10
839.37	212.09
839.68	211.97
840.00	212.00
840.31	211.99
840.63	211.97
840.94	211.97
841.26	212.01
841.57	212.05
841.88	212.10
842.20	212.04
842.51	212.02
842.83	212.00
843.14	212.19
843.46	212.20
843.77	212.10
844.08	212.08
844.40	212.06
844.71	212.00
845.03	212.02
845.34	212.07
845.65	212.02
845.97	211.97
846.28	211.95
846.60	211.91
846.91	211.91
847.22	211.91
847.54	211.95
847.85	211.91
848.16	211.80
848.48	211.74
848.79	211.76
849.10	211.77
849.42	211.74
849.73	211.47
850.04	211.42
850.36	211.40
850.67	211.41
850.98	211.34
851.30	211.29
851.61	211.23
851.92	211.21
852.23	211.26
852.55	211.27
852.86	211.35
853.17	211.35
853.49	211.33
853.80	211.32
854.11	211.33
854.42	211.35
854.74	211.38
855.05	211.43
855.36	211.39
855.67	211.44
855.99	211.43
856.30	211.65
856.61	211.70
856.92	211.73
857.23	211.73
857.55	211.73
857.86	211.74
858.17	211.78
858.48	211.76
858.79	211.72
859.11	211.79
859.42	211.72
859.73	211.70
860.04	211.73
860.35	211.72
860.66	211.65
860.98	211.62
861.29	211.62
861.60	211.54
861.91	211.59
862.22	211.47
862.53	211.44
862.84	211.30
863.16	211.34
863.47	211.30
863.78	211.33
864.09	211.36
864.40	211.42
864.71	211.41
865.02	211.44
865.33	211.45
865.64	211.44
865.95	211.43
866.27	211.55
866.58	211.54
866.89	211.52
867.20	211.50
867.51	211.57
867.82	211.53
868.13	211.67
868.44	211.65
868.75	211.65
869.06	211.67
869.37	211.65
869.68	211.56
869.99	211.58
870.30	211.56
870.61	211.51
870.92	211.46
871.23	211.44
871.54	211.43
871.85	211.42
872.16	211.38
872.47	211.37
872.78	211.34
873.09	211.31
873.40	211.27
873.71	211.30
874.02	211.23
874.33	211.26
874.64	211.18
874.95	211.21
875.26	211.21
875.56	211.23
875.87	211.18
876.18	211.20
876.49	211.39
876.80	211.38
877.11	211.40
877.42	211.39
877.73	211.38
878.04	211.33
878.35	211.31
878.66	211.32
878.96	211.29
879.27	211.19
879.58	211.18
879.89	211.20
880.20	211.24
880.51	211.28
880.82	211.29
881.12	211.29
881.43	211.23
881.74	211.21
882.05	211.15
882.36	211.16
882.67	211.16
882.97	210.92
883.28	210.92
883.59	210.91
883.90	210.91
884.21	210.92
884.51	210.97
884.82	210.97
885.13	211.01
885.44	211.15
885.74	211.18
886.05	211.25
886.36	211.29
886.67	211.27
886.98	211.37
887.28	211.38
887.59	211.37
887.90	211.37
888.20	211.40
888.51	211.44
888.82	211.39
889.13	211.38
889.43	211.50
889.74	211.45
890.05	211.48
890.35	211.48
890.66	211.55
890.97	211.50
891.28	211.53
891.58	211.49
891.89	211.39
892.20	211.36
892.50	211.35
892.81	211.33
893.12	211.34
893.42	211.21
893.73	211.25
894.04	211.28
894.34	211.33
894.65	211.38
894.95	211.38
895.26	211.40
895.57	211.49
895.87	211.34
896.18	211.43
896.48	211.42
896.79	211.45
897.10	211.38
897.40	211.44
897.71	211.47
898.01	211.44
898.32	211.44
898.63	211.51
898.93	211.53
899.24	211.55
899.54	211.53
899.85	211.59
900.15	211.54
900.46	211.56
900.76	211.55
901.07	211.47
901.38	211.49
901.68	211.53
901.99	211.54
902.29	211.53
902.60	211.55
902.90	211.46
903.21	211.48
903.51	211.54
903.82	211.52
904.12	211.57
904.43	211.61
904.73	211.64
905.03	211.58
905.34	211.74
905.64	211.72
905.95	211.75
906.25	211.70
906.56	211.70
906.86	211.65
907.17	211.63
907.47	211.69
907.77	211.69
908.08	211.71
908.38	211.74
908.69	211.82
908.99	211.82
909.30	211.88
909.60	211.90
909.90	211.82
910.21	211.78
910.51	211.74
910.81	211.71
911.12	211.68
911.42	211.70
911.73	211.51
912.03	211.57
912.33	211.54
912.64	211.53
912.94	211.46
913.24	211.43
913.55	211.45
913.85	211.45
914.15	211.46
914.46	211.36
914.76	211.28
915.06	211.25
915.37	211.20
915.67	211.19
915.97	211.10
916.27	211.17
916.58	211.19
916.88	211.12
917.18	211.15
917.49	211.25
917.79	211.22
918.09	211.31
918.39	211.26
918.70	211.23
919.00	211.25
919.30	211.44
919.60	211.45
919.91	211.40
920.21	211.39
920.51	211.38
920.81	211.41
921.12	211.39
921.42	211.37
921.72	211.35
922.02	211.37
922.32	211.37
922.63	211.31
922.93	211.35
923.23	211.38
923.53	211.39
923.83	211.26
924.13	211.28
924.44	211.17
924.74	211.24
925.04	211.29
925.34	211.23
925.64	211.08
925.94	211.05
926.24	211.12
926.55	211.03
926.85	210.97
927.15	211.03
927.45	211.06
927.75	210.98
928.05	210.93
928.35	210.92
928.65	211.01
928.95	211.02
929.26	210.99
929.56	211.05
929.86	211.02
930.16	211.10
930.46	211.14
930.76	211.13
931.06	211.11
931.36	211.07
931.66	211.11
931.96	211.09
932.26	211.09
932.56	211.08
932.86	211.18
933.16	211.22
933.46	211.13
933.76	211.05
934.06	211.19
934.36	211.33
934.66	211.34
934.96	211.32
935.26	211.29
935.56	211.32
935.86	211.23
936.16	211.27
936.46	211.21
936.76	211.16
937.06	211.12
937.36	211.04
937.66	211.09
937.96	211.04
938.26	211.08
938.56	211.05
938.86	211.04
939.16	211.00
939.46	211.01
939.76	211.02
940.06	211.02
940.35	210.97
940.65	210.85
940.95	210.87
941.25	210.88
941.55	210.96
941.85	210.96
942.15	211.02
942.45	210.98
942.75	210.91
943.04	210.95
943.34	210.95
943.64	210.97
943.94	210.92
944.24	210.97
944.54	210.93
944.84	210.95
945.13	210.94
945.43	210.88
945.73	210.85
946.03	210.81
946.33	210.83
946.62	210.80
946.92	210.79
947.22	210.83
947.52	210.76
947.82	210.63
948.11	210.55
948.41	210.49
948.71	210.50
949.01	210.55
949.31	210.48
949.60	210.49
949.90	210.47
950.20	210.42
950.50	210.44
950.79	210.43
951.09	210.46
951.39	210.45
951.69	210.44
951.98	210.49
952.28	210.51
952.58	210.48
952.87	210.50
953.17	210.45
953.47	210.34
953.76	210.33
954.06	210.42
954.36	210.44
954.66	210.44
954.95	210.46
955.25	210.45
955.55	210.53
955.84	210.51
956.14	210.47
956.44	210.50
956.73	210.38
957.03	210.40
957.32	210.37
957.62	210.35
957.92	210.45
958.21	210.38
958.51	210.56
958.81	210.61
959.10	210.62
959.40	210.73
959.69	210.77
959.99	210.76
960.29	210.79
960.58	210.77
960.88	210.75
961.17	210.78
961.47	210.77
961.76	210.75
962.06	210.77
962.36	210.84
962.65	210.83
962.95	210.91
963.24	210.88
963.54	210.89
963.83	210.99
964.13	210.95
964.42	210.92
964.72	210.82
965.01	210.83
965.31	210.83
965.60	210.79
965.90	210.92
966.19	210.86
966.49	210.84
966.78	210.81
967.08	210.94
967.37	210.92
967.67	210.93
967.96	210.90
968.26	210.94
968.55	210.97
968.85	211.05
969.14	211.07
969.43	211.11
969.73	211.11
970.02	211.07
970.32	211.10
970.61	211.16
970.91	211.10
971.20	211.12
971.49	211.08
971.79	211.09
972.08	210.92
972.38	211.03
972.67	211.00
972.96	211.06
973.26	210.90
973.55	210.93
973.85	210.89
974.14	210.92
974.43	210.97
974.73	210.90
975.02	210.82
975.31	210.82
975.61	210.82
975.90	210.84
976.19	210.78
976.49	210.77
976.78	210.71
977.07	210.73
977.37	210.65
977.66	210.63
977.95	210.71
978.24	210.79
978.54	210.78
978.83	210.73
979.12	210.65
979.42	210.68
979.71	210.63
980.00	210.67
980.29	210.67
980.59	210.56
980.88	210.61
981.17	210.63
981.46	210.64
981.76	210.64
982.05	210.67
982.34	210.69
982.63	210.70
982.93	210.75
983.22	210.81
983.51	210.90
983.80	210.96
984.09	210.91
984.39	210.87
984.68	210.85
984.97	210.90
985.26	210.99
985.55	211.05
985.85	211.05
986.14	211.09
986.43	211.10
986.72	211.16
987.01	211.14
987.30	211.16
987.59	211.13
987.89	211.21
988.18	211.13
988.47	211.10
988.76	211.02
989.05	210.95
989.34	210.91
989.63	211.00
989.92	210.92
990.22	210.84
990.51	210.85
990.80	210.88
991.09	210.88
991.38	210.92
991.67	210.92
991.96	210.80
992.25	210.78
992.54	210.73
992.83	210.72
993.12	210.70
993.41	210.74
993.70	210.82
993.99	210.74
994.28	210.73
994.58	210.82
994.87	210.88
995.16	210.95
995.45	210.95
995.74	210.83
996.03	210.94
996.32	210.99
996.61	211.05
996.90	211.04
997.19	211.08
997.48	211.02
997.77	210.95
998.06	211.03
998.34	211.01
998.63	211.03
998.92	210.97
999.21	211.04
999.50	211.00
999.79	210.96
1000.08	210.97
1000.37	210.98
1000.66	210.92
1000.95	210.95
1001.24	210.99
1001.53	210.92
1001.82	210.92
1002.11	210.88
1002.40	210.92
1002.68	210.89
1002.97	211.05
1003.26	210.97
1003.55	210.91
1003.84	211.05
1004.13	211.06
1004.42	211.10
1004.71	211.07
1004.99	211.08
1005.28	211.04
1005.57	211.11
1005.86	211.10
1006.15	211.09
1006.44	211.10
1006.72	211.12
1007.01	211.10
1007.30	211.06
1007.59	211.11
1007.88	211.09
1008.17	211.07
1008.45	211.05
1008.74	211.08
1009.03	211.00
1009.32	211.03
1009.60	211.03
1009.89	211.01
1010.18	210.92
1010.47	210.88
1010.76	210.89
1011.04	210.91
1011.33	210.89
1011.62	210.81
1011.91	210.82
1012.19	210.86
1012.48	210.88
1012.77	210.87
1013.05	210.99
1013.34	211.04
1013.63	210.99
1013.92	211.08
1014.20	211.07
1014.49	211.07
1014.78	211.01
1015.06	210.90
1015.35	210.87
1015.64	210.91
1015.92	210.86
1016.21	210.94
1016.50	210.93
1016.78	210.96
1017.07	211.00
1017.36	211.04
1017.64	211.02
1017.93	211.03
1018.22	210.97
1018.50	210.94
1018.79	211.02
1019.08	210.90
1019.36	210.90
1019.65	210.92
1019.93	210.92
1020.22	210.97
1020.51	211.04
1020.79	211.00
1021.08	209.85
1021.36	210.70
1021.65	212.10
1021.94	211.25
1022.22	211.90
1022.51	210.50
1022.79	211.80
1023.08	211.50
1023.36	212.80
1023.65	210.10
>>>>>End Processed Spectral Data<<<<<
