SpectraSuite Data File
++++++++++++++++++++++++++++++++++++
Date: Mon Feb 25 17:29:38 EST 2013
User: group
Dark Spectrum Present: No
Reference Spectrum Present: No
Number of Sampled Component Spectra: 1
Spectrometers: USB2E7196
Integration Time (usec): 52000 (USB2E7196)
Spectra Averaged: 20 (USB2E7196)
Boxcar Smoothing: 10 (USB2E7196)
Correct for Electrical Dark: No (USB2E7196)
Strobe/Lamp Enabled: No (USB2E7196)
Correct for Detector Non-linearity: No (USB2E7196)
Correct for Stray Light: No (USB2E7196)
Number of Pixels in Processed Spectrum: 2048
>>>>>Begin Processed Spectral Data<<<<<
339.09	0.00
339.48	197.60
339.86	198.95
340.24	201.30
340.63	203.10
341.01	207.15
341.39	206.00
341.78	206.70
342.16	207.45
342.54	208.45
342.93	197.84
343.31	207.89
343.69	208.52
344.07	209.02
344.46	209.51
344.84	209.83
345.22	209.98
345.60	210.25
345.99	210.42
346.37	210.66
346.75	210.83
347.13	210.93
347.52	210.90
347.90	211.08
348.28	211.16
348.66	211.19
349.05	211.25
349.43	211.35
349.81	211.30
350.19	211.30
350.57	211.36
350.96	211.52
351.34	211.58
351.72	211.64
352.10	211.80
352.48	211.88
352.87	211.99
353.25	212.11
353.63	212.14
354.01	212.20
354.39	212.20
354.77	212.20
355.15	212.28
355.54	212.35
355.92	212.35
356.30	212.41
356.68	212.61
357.06	212.68
357.44	212.65
357.82	212.76
358.20	212.77
358.58	212.82
358.97	212.88
359.35	212.95
359.73	213.04
360.11	213.10
360.49	213.13
360.87	213.21
361.25	213.23
361.63	213.38
362.01	213.45
362.39	213.50
362.77	213.56
363.15	213.65
363.53	213.73
363.91	213.77
364.29	213.86
364.67	213.76
365.05	213.82
365.43	213.88
365.81	213.93
366.19	214.06
366.57	214.18
366.95	214.15
367.33	214.10
367.71	214.10
368.09	214.22
368.47	214.18
368.85	214.16
369.23	214.25
369.61	214.18
369.99	214.23
370.37	214.25
370.75	214.34
371.13	214.27
371.51	214.24
371.89	214.21
372.27	214.09
372.65	214.07
373.03	214.01
373.41	213.92
373.78	213.91
374.16	213.77
374.54	213.63
374.92	213.65
375.30	213.66
375.68	213.63
376.06	213.45
376.44	213.44
376.82	213.45
377.19	213.37
377.57	213.25
377.95	213.19
378.33	213.08
378.71	212.98
379.09	212.89
379.47	212.85
379.84	212.77
380.22	212.69
380.60	212.61
380.98	212.53
381.36	212.46
381.73	212.34
382.11	212.37
382.49	212.30
382.87	212.16
383.25	212.14
383.62	212.30
384.00	212.28
384.38	212.25
384.76	212.24
385.13	212.25
385.51	212.22
385.89	212.26
386.27	212.27
386.64	212.24
387.02	212.25
387.40	212.16
387.78	212.18
388.15	212.20
388.53	212.17
388.91	212.18
389.29	212.18
389.66	212.24
390.04	212.25
390.42	212.32
390.79	212.34
391.17	212.32
391.55	212.13
391.92	212.12
392.30	212.04
392.68	212.00
393.05	211.98
393.43	212.00
393.81	211.85
394.18	211.78
394.56	211.75
394.94	211.78
395.31	211.75
395.69	211.77
396.06	211.82
396.44	211.80
396.82	211.83
397.19	211.90
397.57	211.86
397.95	211.84
398.32	211.77
398.70	211.74
399.07	211.77
399.45	211.72
399.82	211.70
400.20	211.75
400.58	211.75
400.95	211.65
401.33	211.80
401.70	212.04
402.08	212.14
402.45	212.20
402.83	212.25
403.20	212.38
403.58	212.42
403.95	212.49
404.33	212.63
404.71	212.66
405.08	212.80
405.46	212.92
405.83	213.00
406.21	213.08
406.58	213.33
406.96	213.44
407.33	213.56
407.70	213.80
408.08	214.14
408.45	214.33
408.83	214.63
409.20	214.72
409.58	214.71
409.95	214.98
410.33	215.17
410.70	215.42
411.08	215.62
411.45	215.94
411.82	216.22
412.20	216.52
412.57	216.99
412.95	217.33
413.32	217.76
413.69	218.23
414.07	218.82
414.44	219.21
414.82	219.74
415.19	220.42
415.56	221.03
415.94	221.59
416.31	222.35
416.68	223.07
417.06	223.96
417.43	224.95
417.81	225.86
418.18	226.87
418.55	227.86
418.93	229.02
419.30	230.13
419.67	231.36
420.04	232.60
420.42	233.85
420.79	235.42
421.16	236.89
421.54	238.45
421.91	240.02
422.28	241.75
422.66	243.50
423.03	245.22
423.40	247.02
423.77	248.95
424.15	250.86
424.52	252.92
424.89	255.11
425.26	257.18
425.64	259.20
426.01	261.49
426.38	263.78
426.75	266.11
427.13	268.54
427.50	271.12
427.87	273.82
428.24	276.49
428.61	278.86
428.99	281.70
429.36	284.74
429.73	287.72
430.10	290.73
430.47	293.88
430.85	296.98
431.22	300.34
431.59	303.86
431.96	307.30
432.33	311.12
432.70	314.80
433.08	319.04
433.45	323.09
433.82	326.97
434.19	331.42
434.56	335.84
434.93	340.05
435.30	344.20
435.68	348.66
436.05	353.22
436.42	357.84
436.79	361.92
437.16	366.34
437.53	371.13
437.90	375.64
438.27	380.06
438.64	384.78
439.01	389.11
439.38	393.05
439.75	396.72
440.13	400.96
440.50	404.94
440.87	408.17
441.24	411.50
441.61	415.18
441.98	418.00
442.35	421.21
442.72	424.40
443.09	427.49
443.46	429.46
443.83	430.65
444.20	431.62
444.57	433.19
444.94	433.87
445.31	434.50
445.68	435.26
446.05	435.62
446.42	435.23
446.79	434.65
447.16	433.86
447.53	433.36
447.90	431.45
448.27	429.61
448.64	427.16
449.01	425.38
449.37	422.35
449.74	419.32
450.11	415.66
450.48	411.84
450.85	407.85
451.22	404.47
451.59	401.38
451.96	398.39
452.33	394.35
452.70	390.71
453.07	386.16
453.43	381.65
453.80	377.31
454.17	373.07
454.54	369.19
454.91	365.06
455.28	361.07
455.65	357.28
456.02	353.59
456.38	350.40
456.75	346.34
457.12	343.15
457.49	339.95
457.86	336.67
458.23	333.90
458.59	330.95
458.96	327.81
459.33	325.01
459.70	322.26
460.07	320.01
460.43	317.53
460.80	315.35
461.17	313.35
461.54	311.22
461.91	309.24
462.27	307.10
462.64	305.39
463.01	303.43
463.38	301.69
463.74	299.75
464.11	298.14
464.48	296.83
464.85	295.20
465.21	294.04
465.58	292.96
465.95	291.40
466.32	290.19
466.68	289.02
467.05	287.90
467.42	286.68
467.78	285.46
468.15	284.25
468.52	283.35
468.88	282.25
469.25	281.31
469.62	280.57
469.98	279.72
470.35	278.95
470.72	278.22
471.08	277.39
471.45	276.81
471.82	276.26
472.18	275.54
472.55	275.04
472.92	274.40
473.28	273.90
473.65	273.49
474.02	273.06
474.38	272.73
474.75	272.48
475.11	272.35
475.48	272.25
475.85	272.24
476.21	272.14
476.58	272.03
476.94	272.03
477.31	272.05
477.67	272.16
478.04	272.30
478.41	272.55
478.77	272.95
479.14	273.15
479.50	273.38
479.87	273.89
480.23	274.42
480.60	274.83
480.96	275.25
481.33	275.90
481.69	276.45
482.06	277.21
482.42	277.81
482.79	278.53
483.15	279.42
483.52	280.38
483.88	281.36
484.25	282.43
484.61	283.62
484.98	284.75
485.34	286.05
485.71	287.40
486.07	288.79
486.44	290.15
486.80	291.62
487.17	293.20
487.53	294.91
487.90	296.66
488.26	298.60
488.62	300.77
488.99	302.89
489.35	305.15
489.72	307.52
490.08	309.89
490.44	312.36
490.81	314.88
491.17	317.51
491.54	320.50
491.90	323.54
492.26	326.60
492.63	329.90
492.99	333.31
493.36	336.92
493.72	340.76
494.08	344.63
494.45	348.87
494.81	353.32
495.17	357.79
495.54	362.58
495.90	367.62
496.26	372.73
496.63	378.19
496.99	383.88
497.35	389.70
497.72	395.77
498.08	402.08
498.44	408.70
498.80	415.72
499.17	422.92
499.53	430.40
499.89	438.10
500.26	445.94
500.62	454.10
500.98	462.77
501.34	471.61
501.71	480.83
502.07	490.23
502.43	499.92
502.79	509.79
503.16	520.06
503.52	530.64
503.88	541.45
504.24	552.53
504.60	563.81
504.97	575.55
505.33	587.62
505.69	600.35
506.05	613.20
506.41	626.09
506.78	639.21
507.14	652.54
507.50	666.40
507.86	680.60
508.22	695.21
508.59	709.87
508.95	725.00
509.31	740.34
509.67	756.10
510.03	771.97
510.39	788.46
510.75	805.14
511.12	822.08
511.48	839.17
511.84	856.48
512.20	874.07
512.56	891.95
512.92	910.17
513.28	928.26
513.64	946.53
514.00	965.02
514.37	983.75
514.73	1002.79
515.09	1022.00
515.45	1041.23
515.81	1060.64
516.17	1079.98
516.53	1099.51
516.89	1119.09
517.25	1138.66
517.61	1158.44
517.97	1177.93
518.33	1197.41
518.69	1216.84
519.05	1237.03
519.41	1256.90
519.77	1277.27
520.13	1297.17
520.49	1317.12
520.85	1337.40
521.21	1357.31
521.57	1378.07
521.93	1397.89
522.29	1418.31
522.65	1438.51
523.01	1458.55
523.37	1478.15
523.73	1498.13
524.09	1517.55
524.45	1537.42
524.81	1557.17
525.17	1577.21
525.53	1596.95
525.89	1616.45
526.25	1635.77
526.61	1653.89
526.97	1673.39
527.33	1691.90
527.68	1710.53
528.04	1728.75
528.40	1746.33
528.76	1764.78
529.12	1782.08
529.48	1800.68
529.84	1818.00
530.20	1835.29
530.56	1852.79
530.91	1870.29
531.27	1887.42
531.63	1904.51
531.99	1921.24
532.35	1937.90
532.71	1953.82
533.07	1970.28
533.42	1985.93
533.78	2001.91
534.14	2017.57
534.50	2031.41
534.86	2046.02
535.21	2059.64
535.57	2074.58
535.93	2088.85
536.29	2102.54
536.65	2116.34
537.00	2128.45
537.36	2141.22
537.72	2153.50
538.08	2165.82
538.44	2178.30
538.79	2190.83
539.15	2202.66
539.51	2214.34
539.87	2225.86
540.22	2237.34
540.58	2249.07
540.94	2260.88
541.29	2270.71
541.65	2280.45
542.01	2290.75
542.37	2299.95
542.72	2309.67
543.08	2317.53
543.44	2326.32
543.79	2333.95
544.15	2341.79
544.51	2350.31
544.87	2358.30
545.22	2365.17
545.58	2371.19
545.94	2376.24
546.29	2380.34
546.65	2384.75
547.01	2388.79
547.36	2392.40
547.72	2395.78
548.07	2397.96
548.43	2399.87
548.79	2401.88
549.14	2404.57
549.50	2407.16
549.86	2409.57
550.21	2411.89
550.57	2414.39
550.92	2415.93
551.28	2416.89
551.64	2417.57
551.99	2418.76
552.35	2418.83
552.70	2419.93
553.06	2421.40
553.41	2422.56
553.77	2424.21
554.13	2424.95
554.48	2425.39
554.84	2425.65
555.19	2424.84
555.55	2424.25
555.90	2423.58
556.26	2423.19
556.61	2421.86
556.97	2419.47
557.32	2417.88
557.68	2415.13
558.03	2412.72
558.39	2410.23
558.74	2408.84
559.10	2406.76
559.45	2403.80
559.81	2402.06
560.16	2398.67
560.52	2395.26
560.87	2391.96
561.23	2387.32
561.58	2384.36
561.94	2380.50
562.29	2375.98
562.64	2373.29
563.00	2370.12
563.35	2367.32
563.71	2364.86
564.06	2362.22
564.42	2360.04
564.77	2357.11
565.12	2355.11
565.48	2351.34
565.83	2347.97
566.19	2344.69
566.54	2340.38
566.89	2336.15
567.25	2331.97
567.60	2328.51
567.96	2324.81
568.31	2321.08
568.66	2317.44
569.02	2312.71
569.37	2307.91
569.72	2304.54
570.08	2299.21
570.43	2293.89
570.78	2288.13
571.14	2282.01
571.49	2275.75
571.84	2269.78
572.20	2263.28
572.55	2256.78
572.90	2250.66
573.26	2243.86
573.61	2237.10
573.96	2231.13
574.31	2224.34
574.67	2216.81
575.02	2208.96
575.37	2201.27
575.72	2193.08
576.08	2186.12
576.43	2178.66
576.78	2171.74
577.13	2164.66
577.49	2157.51
577.84	2150.19
578.19	2143.38
578.54	2136.85
578.90	2130.47
579.25	2122.67
579.60	2114.52
579.95	2106.31
580.30	2099.38
580.66	2092.43
581.01	2084.66
581.36	2076.33
581.71	2068.90
582.06	2061.74
582.42	2054.90
582.77	2046.56
583.12	2038.73
583.47	2031.18
583.82	2023.66
584.17	2015.67
584.53	2007.45
584.88	1999.81
585.23	1992.06
585.58	1983.74
585.93	1975.43
586.28	1967.45
586.63	1959.93
586.98	1953.41
587.34	1946.61
587.69	1938.74
588.04	1930.90
588.39	1923.21
588.74	1915.64
589.09	1908.10
589.44	1899.74
589.79	1892.31
590.14	1885.89
590.49	1879.06
590.84	1871.44
591.19	1864.65
591.54	1857.46
591.89	1849.03
592.25	1841.22
592.60	1833.25
592.95	1825.46
593.30	1817.49
593.65	1809.15
594.00	1801.00
594.35	1793.73
594.70	1785.91
595.05	1778.49
595.40	1770.96
595.75	1763.26
596.10	1756.42
596.45	1749.18
596.80	1742.61
597.15	1735.40
597.50	1727.43
597.85	1720.06
598.19	1712.86
598.54	1705.17
598.89	1698.40
599.24	1692.72
599.59	1686.35
599.94	1680.60
600.29	1674.05
600.64	1667.10
600.99	1660.06
601.34	1654.29
601.69	1646.83
602.04	1639.86
602.39	1632.95
602.74	1626.37
603.08	1620.79
603.43	1614.72
603.78	1608.09
604.13	1601.46
604.48	1594.87
604.83	1589.28
605.18	1583.41
605.53	1576.97
605.87	1570.76
606.22	1564.59
606.57	1557.71
606.92	1550.69
607.27	1543.44
607.62	1537.25
607.96	1531.55
608.31	1526.52
608.66	1519.41
609.01	1512.77
609.36	1506.42
609.70	1499.71
610.05	1493.03
610.40	1485.82
610.75	1478.66
611.10	1472.08
611.44	1464.47
611.79	1456.83
612.14	1448.79
612.49	1440.35
612.83	1432.83
613.18	1424.74
613.53	1416.60
613.88	1408.32
614.22	1400.68
614.57	1392.86
614.92	1384.65
615.27	1376.71
615.61	1368.25
615.96	1360.86
616.31	1353.69
616.65	1346.70
617.00	1339.83
617.35	1332.61
617.70	1325.00
618.04	1317.10
618.39	1309.22
618.74	1302.05
619.08	1294.50
619.43	1287.58
619.78	1281.14
620.12	1274.07
620.47	1267.37
620.82	1260.19
621.16	1253.25
621.51	1246.40
621.85	1239.57
622.20	1232.53
622.55	1225.39
622.89	1218.65
623.24	1211.95
623.59	1204.75
623.93	1197.34
624.28	1190.16
624.62	1183.20
624.97	1176.42
625.32	1169.76
625.66	1163.40
626.01	1157.01
626.35	1151.06
626.70	1144.42
627.04	1138.05
627.39	1131.62
627.73	1124.96
628.08	1119.19
628.43	1112.97
628.77	1106.57
629.12	1100.21
629.46	1094.72
629.81	1088.42
630.15	1082.10
630.50	1075.80
630.84	1069.74
631.19	1063.83
631.53	1058.04
631.88	1051.61
632.22	1045.01
632.57	1039.20
632.91	1032.76
633.26	1026.39
633.60	1020.05
633.95	1014.11
634.29	1007.79
634.64	1001.85
634.98	995.97
635.32	989.81
635.67	984.32
636.01	978.86
636.36	972.94
636.70	967.18
637.05	961.68
637.39	955.97
637.73	950.48
638.08	945.37
638.42	940.02
638.77	934.15
639.11	928.65
639.45	923.58
639.80	917.79
640.14	912.53
640.49	907.13
640.83	901.78
641.17	896.43
641.52	891.31
641.86	885.96
642.20	880.73
642.55	874.96
642.89	869.16
643.23	863.44
643.58	858.43
643.92	852.58
644.26	847.33
644.61	842.24
644.95	837.04
645.29	831.60
645.64	826.12
645.98	820.95
646.32	815.80
646.66	810.51
647.01	805.42
647.35	800.22
647.69	794.90
648.04	789.85
648.38	784.64
648.72	779.39
649.06	774.11
649.41	768.86
649.75	763.99
650.09	759.01
650.43	754.04
650.78	748.80
651.12	743.79
651.46	738.66
651.80	733.50
652.14	728.40
652.49	723.19
652.83	718.07
653.17	712.84
653.51	707.96
653.85	703.17
654.20	698.10
654.54	692.97
654.88	688.30
655.22	683.30
655.56	678.28
655.90	673.21
656.25	668.34
656.59	663.50
656.93	658.98
657.27	654.53
657.61	649.85
657.95	645.44
658.29	640.93
658.64	636.72
658.98	632.24
659.32	627.54
659.66	623.18
660.00	618.71
660.34	614.27
660.68	609.78
661.02	605.22
661.36	601.09
661.70	596.95
662.05	592.85
662.39	589.16
662.73	585.42
663.07	581.83
663.41	578.08
663.75	574.27
664.09	570.09
664.43	566.02
664.77	562.28
665.11	558.40
665.45	554.78
665.79	550.80
666.13	547.11
666.47	543.59
666.81	539.84
667.15	536.24
667.49	532.88
667.83	529.61
668.17	526.37
668.51	523.08
668.85	519.98
669.19	516.81
669.53	513.18
669.87	509.66
670.21	506.25
670.55	502.91
670.89	499.96
671.23	497.06
671.57	494.25
671.91	491.07
672.25	488.03
672.58	484.93
672.92	481.98
673.26	479.22
673.60	476.28
673.94	473.42
674.28	470.56
674.62	467.79
674.96	464.89
675.30	462.26
675.64	459.60
675.97	456.85
676.31	454.26
676.65	451.83
676.99	449.61
677.33	447.06
677.67	444.49
678.01	441.74
678.34	439.23
678.68	436.57
679.02	434.09
679.36	431.63
679.70	429.18
680.04	426.71
680.37	424.21
680.71	421.87
681.05	419.72
681.39	417.45
681.73	415.24
682.06	413.18
682.40	410.94
682.74	408.68
683.08	406.50
683.42	404.26
683.75	402.03
684.09	399.74
684.43	397.57
684.77	395.48
685.10	393.31
685.44	391.02
685.78	388.87
686.12	386.85
686.45	384.84
686.79	382.91
687.13	381.04
687.46	379.13
687.80	377.20
688.14	375.13
688.48	373.28
688.81	371.34
689.15	369.34
689.49	367.35
689.82	365.41
690.16	363.43
690.50	361.43
690.83	359.46
691.17	357.58
691.51	355.72
691.84	353.83
692.18	352.08
692.52	350.52
692.85	348.93
693.19	347.41
693.52	345.76
693.86	344.00
694.20	342.37
694.53	340.68
694.87	339.04
695.21	337.44
695.54	335.79
695.88	334.14
696.21	332.52
696.55	331.00
696.88	329.56
697.22	328.08
697.56	326.67
697.89	325.34
698.23	323.85
698.56	322.42
698.90	321.18
699.23	319.87
699.57	318.47
699.90	317.03
700.24	315.49
700.58	314.04
700.91	312.75
701.25	311.51
701.58	310.33
701.92	309.15
702.25	307.97
702.59	306.80
702.92	305.66
703.26	304.51
703.59	303.35
703.93	302.40
704.26	301.34
704.60	300.25
704.93	299.13
705.26	298.09
705.60	297.05
705.93	295.93
706.27	294.86
706.60	293.95
706.94	293.11
707.27	292.05
707.61	291.04
707.94	290.10
708.27	288.97
708.61	287.91
708.94	286.86
709.28	285.87
709.61	284.92
709.94	284.00
710.28	283.04
710.61	282.27
710.95	281.16
711.28	280.33
711.61	279.49
711.95	278.70
712.28	277.85
712.61	277.12
712.95	276.31
713.28	275.54
713.61	274.69
713.95	273.85
714.28	273.21
714.61	272.43
714.95	271.65
715.28	270.86
715.61	270.05
715.95	269.34
716.28	268.62
716.61	267.82
716.95	267.12
717.28	266.45
717.61	265.65
717.94	264.97
718.28	264.21
718.61	263.51
718.94	262.75
719.27	262.15
719.61	261.47
719.94	260.89
720.27	260.14
720.60	259.54
720.94	258.90
721.27	258.29
721.60	257.85
721.93	257.32
722.27	256.86
722.60	256.36
722.93	255.89
723.26	255.37
723.59	255.00
723.93	254.43
724.26	254.00
724.59	253.56
724.92	253.15
725.25	252.73
725.59	252.33
725.92	251.92
726.25	251.48
726.58	251.03
726.91	250.56
727.24	250.23
727.57	249.82
727.91	249.31
728.24	248.93
728.57	248.50
728.90	248.00
729.23	247.50
729.56	247.27
729.89	246.83
730.22	246.51
730.55	246.01
730.89	245.64
731.22	245.24
731.55	244.79
731.88	244.41
732.21	244.00
732.54	243.53
732.87	243.14
733.20	242.83
733.53	242.55
733.86	242.18
734.19	241.80
734.52	241.45
734.85	241.26
735.18	240.85
735.51	240.48
735.84	240.26
736.17	240.01
736.50	239.52
736.83	239.37
737.16	238.92
737.49	238.61
737.82	238.27
738.15	237.99
738.48	237.69
738.81	237.36
739.14	236.97
739.47	236.64
739.80	236.34
740.13	235.90
740.46	235.46
740.79	235.17
741.12	234.91
741.45	234.61
741.78	234.25
742.11	234.09
742.44	233.82
742.77	233.55
743.10	233.25
743.43	233.00
743.75	232.53
744.08	232.58
744.41	232.32
744.74	232.12
745.07	231.73
745.40	231.55
745.73	231.39
746.06	231.17
746.39	230.99
746.71	230.75
747.04	230.54
747.37	230.30
747.70	230.08
748.03	229.83
748.36	229.62
748.68	229.40
749.01	229.08
749.34	228.81
749.67	228.67
750.00	228.45
750.33	228.36
750.65	228.17
750.98	227.68
751.31	227.45
751.64	227.22
751.97	227.12
752.29	226.82
752.62	226.56
752.95	226.37
753.28	226.19
753.60	225.98
753.93	225.83
754.26	225.68
754.59	225.36
754.91	225.16
755.24	224.99
755.57	224.84
755.90	224.63
756.22	224.52
756.55	224.26
756.88	224.13
757.20	223.87
757.53	223.61
757.86	223.50
758.19	223.32
758.51	223.19
758.84	223.01
759.17	222.92
759.49	222.73
759.82	222.66
760.15	222.50
760.47	222.40
760.80	222.15
761.13	222.11
761.45	222.06
761.78	221.91
762.11	221.77
762.43	221.66
762.76	221.55
763.08	221.44
763.41	221.30
763.74	221.21
764.06	221.09
764.39	220.98
764.71	220.93
765.04	220.84
765.37	220.68
765.69	220.60
766.02	220.38
766.34	220.33
766.67	220.16
767.00	220.14
767.32	220.13
767.65	220.16
767.97	219.99
768.30	219.89
768.62	219.84
768.95	219.67
769.27	219.55
769.60	219.50
769.92	219.41
770.25	219.22
770.57	219.06
770.90	218.95
771.22	218.88
771.55	218.70
771.87	218.72
772.20	218.63
772.52	218.61
772.85	218.86
773.17	218.71
773.50	218.61
773.82	218.48
774.15	218.26
774.47	218.19
774.80	218.09
775.12	218.04
775.45	218.04
775.77	218.04
776.09	218.02
776.42	217.89
776.74	217.78
777.07	217.79
777.39	217.73
777.72	217.59
778.04	217.51
778.36	217.39
778.69	217.27
779.01	217.19
779.33	217.00
779.66	216.68
779.98	216.56
780.31	216.50
780.63	216.51
780.95	216.53
781.28	216.35
781.60	216.34
781.92	216.26
782.25	216.10
782.57	215.99
782.89	215.88
783.22	215.86
783.54	215.79
783.86	215.71
784.19	215.63
784.51	215.66
784.83	215.62
785.16	215.59
785.48	215.50
785.80	215.52
786.12	215.54
786.45	215.53
786.77	215.55
787.09	215.46
787.42	215.37
787.74	215.30
788.06	215.33
788.38	215.29
788.71	215.21
789.03	215.12
789.35	215.18
789.67	215.11
789.99	215.03
790.32	215.01
790.64	214.98
790.96	215.10
791.28	215.02
791.61	215.01
791.93	215.01
792.25	215.05
792.57	215.07
792.89	214.93
793.21	214.92
793.54	214.89
793.86	214.86
794.18	214.84
794.50	214.81
794.82	214.73
795.14	214.67
795.47	214.73
795.79	214.77
796.11	214.63
796.43	214.54
796.75	214.54
797.07	214.50
797.39	214.50
797.71	214.31
798.04	214.27
798.36	214.26
798.68	214.26
799.00	214.19
799.32	214.13
799.64	214.23
799.96	214.23
800.28	214.20
800.60	214.15
800.92	214.17
801.24	214.12
801.56	214.07
801.89	214.06
802.21	213.99
802.53	213.95
802.85	213.94
803.17	214.06
803.49	214.05
803.81	213.99
804.13	213.90
804.45	213.90
804.77	213.89
805.09	213.83
805.41	213.82
805.73	213.78
806.05	213.72
806.37	213.63
806.69	213.54
807.01	213.61
807.33	213.62
807.65	213.46
807.97	213.51
808.28	213.52
808.60	213.45
808.92	213.44
809.24	213.51
809.56	213.50
809.88	213.42
810.20	213.33
810.52	213.40
810.84	213.46
811.16	213.46
811.48	213.41
811.80	213.45
812.12	213.44
812.43	213.47
812.75	213.48
813.07	213.51
813.39	213.51
813.71	213.45
814.03	213.37
814.35	213.45
814.67	213.29
814.98	213.27
815.30	213.29
815.62	213.22
815.94	212.99
816.26	212.98
816.58	212.92
816.89	213.00
817.21	212.93
817.53	212.90
817.85	212.81
818.17	212.83
818.48	212.80
818.80	212.75
819.12	212.65
819.44	212.66
819.76	212.56
820.07	212.52
820.39	212.45
820.71	212.53
821.03	212.47
821.34	212.49
821.66	212.50
821.98	212.47
822.30	212.46
822.61	212.66
822.93	212.62
823.25	212.62
823.57	212.52
823.88	212.56
824.20	212.53
824.52	212.60
824.83	212.64
825.15	212.59
825.47	212.58
825.79	212.60
826.10	212.48
826.42	212.47
826.74	212.50
827.05	212.47
827.37	212.47
827.69	212.41
828.00	212.36
828.32	212.31
828.64	212.31
828.95	212.38
829.27	212.31
829.58	212.29
829.90	212.32
830.22	212.30
830.53	212.22
830.85	212.21
831.17	212.22
831.48	212.15
831.80	212.15
832.11	212.19
832.43	212.16
832.75	212.15
833.06	212.25
833.38	212.14
833.69	212.14
834.01	212.11
834.32	212.07
834.64	212.13
834.96	212.12
835.27	212.08
835.59	212.09
835.90	211.97
836.22	211.95
836.53	211.86
836.85	211.93
837.16	212.11
837.48	212.09
837.79	212.16
838.11	212.15
838.42	212.17
838.74	212.10
839.05	212.10
839.37	212.16
839.68	212.00
840.00	211.96
840.31	211.96
840.63	211.94
840.94	211.98
841.26	211.90
841.57	211.91
841.88	211.91
842.20	211.80
842.51	211.81
842.83	211.85
843.14	212.06
843.46	212.05
843.77	211.89
844.08	211.86
844.40	211.71
844.71	211.74
845.03	211.66
845.34	211.65
845.65	211.66
845.97	211.65
846.28	211.73
846.60	211.83
846.91	211.82
847.22	211.74
847.54	211.78
847.85	211.81
848.16	211.78
848.48	211.73
848.79	211.85
849.10	211.90
849.42	211.85
849.73	211.69
850.04	211.62
850.36	211.61
850.67	211.70
850.98	211.71
851.30	211.74
851.61	211.74
851.92	211.78
852.23	211.78
852.55	211.73
852.86	211.70
853.17	211.65
853.49	211.71
853.80	211.87
854.11	211.83
854.42	211.91
854.74	211.87
855.05	211.91
855.36	211.79
855.67	211.80
855.99	211.79
856.30	212.04
856.61	212.07
856.92	212.02
857.23	211.96
857.55	211.95
857.86	211.90
858.17	211.91
858.48	211.90
858.79	211.85
859.11	211.93
859.42	211.84
859.73	211.89
860.04	211.82
860.35	211.75
860.66	211.75
860.98	211.70
861.29	211.76
861.60	211.72
861.91	211.76
862.22	211.72
862.53	211.74
862.84	211.52
863.16	211.59
863.47	211.61
863.78	211.62
864.09	211.71
864.40	211.67
864.71	211.71
865.02	211.74
865.33	211.74
865.64	211.70
865.95	211.73
866.27	211.79
866.58	211.79
866.89	211.81
867.20	211.81
867.51	211.75
867.82	211.81
868.13	211.92
868.44	211.87
868.75	211.89
869.06	211.87
869.37	211.81
869.68	211.78
869.99	211.75
870.30	211.75
870.61	211.68
870.92	211.71
871.23	211.66
871.54	211.63
871.85	211.65
872.16	211.63
872.47	211.67
872.78	211.63
873.09	211.63
873.40	211.58
873.71	211.58
874.02	211.58
874.33	211.52
874.64	211.43
874.95	211.48
875.26	211.43
875.56	211.42
875.87	211.43
876.18	211.40
876.49	211.62
876.80	211.55
877.11	211.53
877.42	211.56
877.73	211.55
878.04	211.56
878.35	211.55
878.66	211.55
878.96	211.51
879.27	211.48
879.58	211.44
879.89	211.42
880.20	211.43
880.51	211.45
880.82	211.46
881.12	211.48
881.43	211.42
881.74	211.37
882.05	211.37
882.36	211.41
882.67	211.40
882.97	211.14
883.28	211.16
883.59	211.16
883.90	211.18
884.21	211.30
884.51	211.27
884.82	211.26
885.13	211.23
885.44	211.20
885.74	211.12
886.05	211.12
886.36	211.14
886.67	211.11
886.98	211.16
887.28	211.17
887.59	211.11
887.90	211.19
888.20	211.20
888.51	211.23
888.82	211.20
889.13	211.20
889.43	211.34
889.74	211.29
890.05	211.36
890.35	211.28
890.66	211.17
890.97	211.15
891.28	211.14
891.58	211.21
891.89	211.27
892.20	211.30
892.50	211.27
892.81	211.30
893.12	211.30
893.42	211.24
893.73	211.15
894.04	211.22
894.34	211.17
894.65	211.21
894.95	211.16
895.26	211.19
895.57	211.34
895.87	211.18
896.18	211.29
896.48	211.19
896.79	211.27
897.10	211.29
897.40	211.32
897.71	211.30
898.01	211.26
898.32	211.24
898.63	211.25
898.93	211.32
899.24	211.23
899.54	211.20
899.85	211.21
900.15	211.23
900.46	211.19
900.76	211.22
901.07	211.20
901.38	211.25
901.68	211.23
901.99	211.20
902.29	211.24
902.60	211.10
902.90	211.11
903.21	211.06
903.51	211.09
903.82	211.13
904.12	211.19
904.43	211.20
904.73	211.16
905.03	211.24
905.34	211.37
905.64	211.40
905.95	211.49
906.25	211.45
906.56	211.48
906.86	211.50
907.17	211.50
907.47	211.54
907.77	211.54
908.08	211.53
908.38	211.43
908.69	211.49
908.99	211.58
909.30	211.60
909.60	211.64
909.90	211.65
910.21	211.57
910.51	211.57
910.81	211.52
911.12	211.59
911.42	211.50
911.73	211.31
912.03	211.40
912.33	211.43
912.64	211.47
912.94	211.48
913.24	211.54
913.55	211.49
913.85	211.56
914.15	211.52
914.46	211.51
914.76	211.50
915.06	211.48
915.37	211.46
915.67	211.40
915.97	211.34
916.27	211.30
916.58	211.29
916.88	211.28
917.18	211.28
917.49	211.35
917.79	211.41
918.09	211.46
918.39	211.37
918.70	211.30
919.00	211.32
919.30	211.41
919.60	211.37
919.91	211.42
920.21	211.27
920.51	211.24
920.81	211.32
921.12	211.29
921.42	211.27
921.72	211.34
922.02	211.42
922.32	211.47
922.63	211.46
922.93	211.55
923.23	211.52
923.53	211.43
923.83	211.33
924.13	211.35
924.44	211.36
924.74	211.47
925.04	211.47
925.34	211.36
925.64	211.39
925.94	211.32
926.24	211.37
926.55	211.42
926.85	211.49
927.15	211.41
927.45	211.44
927.75	211.40
928.05	211.43
928.35	211.44
928.65	211.44
928.95	211.45
929.26	211.42
929.56	211.46
929.86	211.57
930.16	211.58
930.46	211.50
930.76	211.40
931.06	211.26
931.36	211.24
931.66	211.35
931.96	211.25
932.26	211.27
932.56	211.22
932.86	211.28
933.16	211.23
933.46	211.30
933.76	211.28
934.06	211.40
934.36	211.45
934.66	211.42
934.96	211.45
935.26	211.41
935.56	211.39
935.86	211.34
936.16	211.31
936.46	211.23
936.76	211.21
937.06	211.24
937.36	211.29
937.66	211.28
937.96	211.24
938.26	211.23
938.56	211.23
938.86	211.17
939.16	211.17
939.46	211.20
939.76	211.17
940.06	211.20
940.35	211.15
940.65	211.04
940.95	211.06
941.25	210.95
941.55	210.92
941.85	210.94
942.15	210.95
942.45	211.05
942.75	211.08
943.04	211.04
943.34	211.18
943.64	211.17
943.94	211.16
944.24	211.23
944.54	211.29
944.84	211.31
945.13	211.31
945.43	211.20
945.73	211.16
946.03	211.10
946.33	210.99
946.62	210.90
946.92	210.91
947.22	210.90
947.52	210.96
947.82	210.99
948.11	210.94
948.41	210.94
948.71	210.83
949.01	210.86
949.31	210.88
949.60	210.80
949.90	210.81
950.20	210.77
950.50	210.67
950.79	210.66
951.09	210.66
951.39	210.69
951.69	210.66
951.98	210.71
952.28	210.65
952.58	210.69
952.87	210.76
953.17	210.79
953.47	210.74
953.76	210.76
954.06	210.73
954.36	210.70
954.66	210.71
954.95	210.80
955.25	210.86
955.55	210.87
955.84	210.78
956.14	210.78
956.44	210.82
956.73	210.90
957.03	210.76
957.32	210.72
957.62	210.73
957.92	210.79
958.21	210.78
958.51	211.06
958.81	211.10
959.10	211.07
959.40	211.01
959.69	211.08
959.99	211.14
960.29	211.18
960.58	211.15
960.88	211.19
961.17	211.15
961.47	211.11
961.76	211.10
962.06	211.20
962.36	211.22
962.65	211.18
962.95	211.14
963.24	211.15
963.54	211.19
963.83	211.25
964.13	211.31
964.42	211.28
964.72	211.13
965.01	211.10
965.31	211.15
965.60	211.15
965.90	211.21
966.19	211.16
966.49	211.16
966.78	211.18
967.08	211.17
967.37	211.14
967.67	211.17
967.96	211.26
968.26	211.19
968.55	211.20
968.85	211.21
969.14	211.16
969.43	211.25
969.73	211.22
970.02	211.23
970.32	211.16
970.61	211.13
970.91	211.04
971.20	211.06
971.49	211.01
971.79	211.02
972.08	210.87
972.38	210.83
972.67	210.83
972.96	210.92
973.26	210.91
973.55	210.99
973.85	210.92
974.14	210.89
974.43	210.95
974.73	210.89
975.02	210.84
975.31	210.87
975.61	210.84
975.90	210.85
976.19	210.76
976.49	210.78
976.78	210.78
977.07	210.81
977.37	210.82
977.66	210.87
977.95	210.85
978.24	210.88
978.54	210.91
978.83	210.87
979.12	210.80
979.42	210.77
979.71	210.70
980.00	210.73
980.29	210.76
980.59	210.70
980.88	210.73
981.17	210.74
981.46	210.74
981.76	210.73
982.05	210.77
982.34	210.76
982.63	210.81
982.93	210.88
983.22	210.92
983.51	210.97
983.80	210.97
984.09	210.95
984.39	210.96
984.68	210.92
984.97	210.92
985.26	210.94
985.55	210.99
985.85	210.94
986.14	210.95
986.43	210.93
986.72	210.95
987.01	210.95
987.30	210.95
987.59	211.00
987.89	211.01
988.18	210.96
988.47	210.96
988.76	210.96
989.05	210.86
989.34	210.85
989.63	210.83
989.92	210.86
990.22	210.83
990.51	210.84
990.80	210.82
991.09	210.85
991.38	210.90
991.67	210.89
991.96	210.86
992.25	210.91
992.54	210.86
992.83	210.86
993.12	210.84
993.41	210.91
993.70	210.95
993.99	210.98
994.28	211.05
994.58	211.10
994.87	210.98
995.16	211.02
995.45	211.05
995.74	210.98
996.03	210.97
996.32	211.02
996.61	211.07
996.90	211.10
997.19	211.13
997.48	211.14
997.77	211.06
998.06	211.15
998.34	211.06
998.63	211.10
998.92	211.11
999.21	211.11
999.50	211.07
999.79	210.99
1000.08	210.98
1000.37	210.93
1000.66	210.89
1000.95	211.01
1001.24	211.02
1001.53	211.01
1001.82	210.97
1002.11	210.83
1002.40	210.91
1002.68	210.93
1002.97	211.07
1003.26	211.06
1003.55	210.98
1003.84	211.00
1004.13	211.09
1004.42	211.19
1004.71	211.17
1004.99	211.18
1005.28	211.22
1005.57	211.27
1005.86	211.33
1006.15	211.30
1006.44	211.28
1006.72	211.34
1007.01	211.24
1007.30	211.26
1007.59	211.20
1007.88	211.24
1008.17	211.26
1008.45	211.19
1008.74	211.09
1009.03	210.96
1009.32	210.93
1009.60	210.94
1009.89	210.93
1010.18	210.82
1010.47	210.75
1010.76	210.77
1011.04	210.80
1011.33	210.82
1011.62	210.75
1011.91	210.66
1012.19	210.69
1012.48	210.64
1012.77	210.62
1013.05	210.78
1013.34	210.80
1013.63	210.77
1013.92	210.75
1014.20	210.78
1014.49	210.75
1014.78	210.80
1015.06	210.78
1015.35	210.81
1015.64	210.79
1015.92	210.81
1016.21	210.82
1016.50	210.82
1016.78	210.81
1017.07	210.83
1017.36	210.83
1017.64	210.83
1017.93	210.86
1018.22	210.82
1018.50	210.84
1018.79	210.82
1019.08	210.69
1019.36	210.68
1019.65	210.68
1019.93	210.76
1020.22	210.78
1020.51	210.89
1020.79	210.86
1021.08	210.35
1021.36	209.80
1021.65	211.20
1021.94	210.50
1022.22	211.05
1022.51	209.85
1022.79	211.70
1023.08	210.40
1023.36	213.10
1023.65	210.95
>>>>>End Processed Spectral Data<<<<<
