SpectraSuite Data File
++++++++++++++++++++++++++++++++++++
Date: Mon Feb 25 17:34:09 EST 2013
User: group
Dark Spectrum Present: No
Reference Spectrum Present: No
Number of Sampled Component Spectra: 1
Spectrometers: USB2E7196
Integration Time (usec): 52000 (USB2E7196)
Spectra Averaged: 20 (USB2E7196)
Boxcar Smoothing: 10 (USB2E7196)
Correct for Electrical Dark: No (USB2E7196)
Strobe/Lamp Enabled: No (USB2E7196)
Correct for Detector Non-linearity: No (USB2E7196)
Correct for Stray Light: No (USB2E7196)
Number of Pixels in Processed Spectrum: 2048
>>>>>Begin Processed Spectral Data<<<<<
339.09	0.00
339.48	200.45
339.86	200.95
340.24	203.10
340.63	203.15
341.01	207.70
341.39	208.05
341.78	207.90
342.16	208.80
342.54	210.40
342.93	198.91
343.31	208.95
343.69	209.45
344.07	209.90
344.46	210.32
344.84	210.72
345.22	210.91
345.60	211.04
345.99	211.26
346.37	211.46
346.75	211.46
347.13	211.53
347.52	211.56
347.90	211.54
348.28	211.63
348.66	211.78
349.05	211.85
349.43	211.92
349.81	211.90
350.19	211.90
350.57	211.91
350.96	211.91
351.34	211.97
351.72	212.07
352.10	212.15
352.48	212.15
352.87	212.19
353.25	212.28
353.63	212.34
354.01	212.34
354.39	212.35
354.77	212.44
355.15	212.59
355.54	212.66
355.92	212.66
356.30	212.64
356.68	212.80
357.06	212.74
357.44	212.74
357.82	212.79
358.20	212.89
358.58	212.94
358.97	213.03
359.35	213.06
359.73	213.09
360.11	213.13
360.49	213.18
360.87	213.28
361.25	213.28
361.63	213.37
362.01	213.44
362.39	213.43
362.77	213.51
363.15	213.56
363.53	213.61
363.91	213.68
364.29	213.69
364.67	213.45
365.05	213.59
365.43	213.67
365.81	213.69
366.19	213.74
366.57	213.77
366.95	213.74
367.33	213.76
367.71	213.76
368.09	213.81
368.47	213.85
368.85	213.76
369.23	213.79
369.61	213.76
369.99	213.80
370.37	213.82
370.75	213.90
371.13	213.80
371.51	213.75
371.89	213.77
372.27	213.82
372.65	213.89
373.03	213.82
373.41	213.72
373.78	213.64
374.16	213.53
374.54	213.45
374.92	213.40
375.30	213.37
375.68	213.31
376.06	213.21
376.44	213.24
376.82	213.17
377.19	213.13
377.57	213.00
377.95	212.79
378.33	212.71
378.71	212.54
379.09	212.63
379.47	212.64
379.84	212.56
380.22	212.51
380.60	212.39
380.98	212.33
381.36	212.30
381.73	212.26
382.11	212.23
382.49	212.26
382.87	212.25
383.25	212.15
383.62	212.36
384.00	212.32
384.38	212.20
384.76	212.25
385.13	212.31
385.51	212.29
385.89	212.35
386.27	212.34
386.64	212.31
387.02	212.12
387.40	212.06
387.78	212.07
388.15	211.99
388.53	211.90
388.91	211.88
389.29	211.81
389.66	211.84
390.04	211.83
390.42	211.77
390.79	211.70
391.17	211.71
391.55	211.48
391.92	211.42
392.30	211.34
392.68	211.31
393.05	211.24
393.43	211.30
393.81	211.24
394.18	211.21
394.56	211.20
394.94	211.23
395.31	211.22
395.69	211.19
396.06	211.25
396.44	211.33
396.82	211.30
397.19	211.46
397.57	211.40
397.95	211.47
398.32	211.46
398.70	211.51
399.07	211.62
399.45	211.64
399.82	211.72
400.20	211.84
400.58	211.89
400.95	211.88
401.33	211.98
401.70	212.20
402.08	212.20
402.45	212.31
402.83	212.44
403.20	212.48
403.58	212.51
403.95	212.63
404.33	212.69
404.71	212.87
405.08	213.08
405.46	213.25
405.83	213.35
406.21	213.47
406.58	213.63
406.96	213.72
407.33	213.87
407.70	214.09
408.08	214.40
408.45	214.61
408.83	214.89
409.20	215.09
409.58	215.19
409.95	215.58
410.33	215.89
410.70	216.23
411.08	216.63
411.45	217.09
411.82	217.51
412.20	218.01
412.57	218.47
412.95	218.77
413.32	219.23
413.69	219.78
414.07	220.40
414.44	221.03
414.82	221.70
415.19	222.43
415.56	223.17
415.94	223.89
416.31	224.83
416.68	225.74
417.06	226.77
417.43	227.80
417.81	228.89
418.18	229.97
418.55	231.09
418.93	232.34
419.30	233.69
419.67	234.93
420.04	236.35
420.42	237.90
420.79	239.74
421.16	241.55
421.54	243.40
421.91	245.20
422.28	247.16
422.66	249.21
423.03	251.31
423.40	253.30
423.77	255.56
424.15	257.75
424.52	260.05
424.89	262.55
425.26	265.06
425.64	267.44
426.01	270.10
426.38	272.82
426.75	275.59
427.13	278.35
427.50	281.40
427.87	284.50
428.24	287.53
428.61	290.38
428.99	293.66
429.36	297.14
429.73	300.70
430.10	304.18
430.47	307.74
430.85	311.35
431.22	315.38
431.59	319.52
431.96	323.50
432.33	327.87
432.70	332.00
433.08	336.83
433.45	341.39
433.82	346.04
434.19	351.17
434.56	356.15
434.93	360.95
435.30	365.60
435.68	370.83
436.05	376.07
436.42	381.22
436.79	385.86
437.16	391.00
437.53	396.33
437.90	401.73
438.27	406.97
438.64	412.39
439.01	417.38
439.38	421.80
439.75	425.94
440.13	430.78
440.50	435.44
440.87	439.21
441.24	443.12
441.61	447.37
441.98	450.44
442.35	454.03
442.72	457.70
443.09	461.35
443.46	463.57
443.83	464.90
444.20	466.06
444.57	467.85
444.94	468.55
445.31	469.30
445.68	469.88
446.05	470.04
446.42	469.42
446.79	468.64
447.16	467.79
447.53	467.31
447.90	465.15
448.27	463.01
448.64	460.22
449.01	458.01
449.37	454.34
449.74	450.94
450.11	446.91
450.48	442.42
450.85	437.77
451.22	433.72
451.59	429.95
451.96	426.37
452.33	421.53
452.70	417.22
453.07	412.05
453.43	406.81
453.80	401.89
454.17	397.06
454.54	392.47
454.91	387.63
455.28	382.85
455.65	378.45
456.02	374.16
456.38	370.28
456.75	365.75
457.12	361.78
457.49	357.93
457.86	354.15
458.23	350.94
458.59	347.49
458.96	343.97
459.33	340.82
459.70	337.78
460.07	335.37
460.43	332.51
460.80	329.85
461.17	327.48
461.54	324.86
461.91	322.50
462.27	320.11
462.64	318.04
463.01	315.84
463.38	313.81
463.74	311.50
464.11	309.67
464.48	307.97
464.85	306.23
465.21	304.87
465.58	303.43
465.95	301.73
466.32	300.26
466.68	298.82
467.05	297.38
467.42	295.89
467.78	294.30
468.15	292.86
468.52	291.84
468.88	290.55
469.25	289.43
469.62	288.41
469.98	287.47
470.35	286.46
470.72	285.55
471.08	284.50
471.45	283.74
471.82	282.93
472.18	282.04
472.55	281.48
472.92	280.62
473.28	279.99
473.65	279.40
474.02	278.83
474.38	278.34
474.75	278.01
475.11	277.62
475.48	277.49
475.85	277.28
476.21	277.10
476.58	276.93
476.94	276.88
477.31	276.85
477.67	276.74
478.04	276.88
478.41	277.02
478.77	277.37
479.14	277.56
479.50	277.90
479.87	278.27
480.23	278.62
480.60	278.99
480.96	279.38
481.33	280.04
481.69	280.65
482.06	281.32
482.42	281.94
482.79	282.72
483.15	283.52
483.52	284.46
483.88	285.24
484.25	286.27
484.61	287.29
484.98	288.44
485.34	289.66
485.71	290.95
486.07	292.28
486.44	293.52
486.80	295.11
487.17	296.63
487.53	298.39
487.90	300.19
488.26	302.19
488.62	304.18
488.99	306.12
489.35	308.32
489.72	310.60
490.08	313.05
490.44	315.38
490.81	317.94
491.17	320.70
491.54	323.67
491.90	326.64
492.26	329.92
492.63	333.27
492.99	336.77
493.36	340.46
493.72	344.38
494.08	348.33
494.45	352.53
494.81	356.93
495.17	361.52
495.54	366.47
495.90	371.50
496.26	376.80
496.63	382.31
496.99	388.05
497.35	394.09
497.72	400.42
498.08	407.00
498.44	413.80
498.80	420.88
499.17	428.34
499.53	435.97
499.89	444.02
500.26	452.17
500.62	460.51
500.98	469.35
501.34	478.45
501.71	488.14
502.07	497.85
502.43	507.77
502.79	517.97
503.16	528.52
503.52	539.53
503.88	550.78
504.24	562.43
504.60	574.36
504.97	586.56
505.33	599.07
505.69	612.47
506.05	625.92
506.41	639.57
506.78	653.25
507.14	667.42
507.50	681.85
507.86	696.92
508.22	712.55
508.59	728.11
508.95	743.93
509.31	760.18
509.67	776.92
510.03	794.00
510.39	811.74
510.75	829.76
511.12	847.92
511.48	866.19
511.84	884.81
512.20	903.36
512.56	922.62
512.92	942.25
513.28	961.74
513.64	981.35
514.00	1001.31
514.37	1021.80
514.73	1042.83
515.09	1063.56
515.45	1084.33
515.81	1105.42
516.17	1126.79
516.53	1148.32
516.89	1169.90
517.25	1191.41
517.61	1213.12
517.97	1234.50
518.33	1255.94
518.69	1277.44
519.05	1299.81
519.41	1322.35
519.77	1345.23
520.13	1367.52
520.49	1389.71
520.85	1412.48
521.21	1435.50
521.57	1458.49
521.93	1480.57
522.29	1503.22
522.65	1526.20
523.01	1548.89
523.37	1571.15
523.73	1593.40
524.09	1615.80
524.45	1638.07
524.81	1660.56
525.17	1683.05
525.53	1705.61
525.89	1728.04
526.25	1750.31
526.61	1771.65
526.97	1793.18
527.33	1814.57
527.68	1835.91
528.04	1857.13
528.40	1877.65
528.76	1898.28
529.12	1919.08
529.48	1941.13
529.84	1961.95
530.20	1982.39
530.56	2003.08
530.91	2024.18
531.27	2044.63
531.63	2064.97
531.99	2085.29
532.35	2104.75
532.71	2124.05
533.07	2143.93
533.42	2162.62
533.78	2181.94
534.14	2200.59
534.50	2217.66
534.86	2235.75
535.21	2252.74
535.57	2270.61
535.93	2288.22
536.29	2305.26
536.65	2321.91
537.00	2337.30
537.36	2352.43
537.72	2367.60
538.08	2382.79
538.44	2398.02
538.79	2413.71
539.15	2428.77
539.51	2443.11
539.87	2458.32
540.22	2472.99
540.58	2487.95
540.94	2502.45
541.29	2515.32
541.65	2527.76
542.01	2541.58
542.37	2553.55
542.72	2566.18
543.08	2577.29
543.44	2589.17
543.79	2599.32
544.15	2609.89
544.51	2621.06
544.87	2632.56
545.22	2641.94
545.58	2650.58
545.94	2657.67
546.29	2663.98
546.65	2670.32
547.01	2677.03
547.36	2683.12
547.72	2688.71
548.07	2692.59
548.43	2696.40
548.79	2700.67
549.14	2705.59
549.50	2709.86
549.86	2713.96
550.21	2718.49
550.57	2722.68
550.92	2725.36
551.28	2728.65
551.64	2731.41
551.99	2734.18
552.35	2735.62
552.70	2738.37
553.06	2741.26
553.41	2744.92
553.77	2748.28
554.13	2750.27
554.48	2752.03
554.84	2753.18
555.19	2753.72
555.55	2754.38
555.90	2755.25
556.26	2755.51
556.61	2755.34
556.97	2754.19
557.32	2753.77
557.68	2751.64
558.03	2750.31
558.39	2748.78
558.74	2748.22
559.10	2747.31
559.45	2745.36
559.81	2744.29
560.16	2741.73
560.52	2739.42
560.87	2735.82
561.23	2731.93
561.58	2729.74
561.94	2726.36
562.29	2722.72
562.64	2720.68
563.00	2718.02
563.35	2715.75
563.71	2714.36
564.06	2712.39
564.42	2710.46
564.77	2708.42
565.12	2706.49
565.48	2703.29
565.83	2700.36
566.19	2697.02
566.54	2692.65
566.89	2688.65
567.25	2684.88
567.60	2681.54
567.96	2677.87
568.31	2675.01
568.66	2671.29
569.02	2666.84
569.37	2662.01
569.72	2658.53
570.08	2652.86
570.43	2647.31
570.78	2641.52
571.14	2634.80
571.49	2628.05
571.84	2621.99
572.20	2614.61
572.55	2608.30
572.90	2601.44
573.26	2594.11
573.61	2587.13
573.96	2580.42
574.31	2572.55
574.67	2564.33
575.02	2556.40
575.37	2547.64
575.72	2538.28
576.08	2530.47
576.43	2521.45
576.78	2513.78
577.13	2505.59
577.49	2497.82
577.84	2490.37
578.19	2482.77
578.54	2475.51
578.90	2468.38
579.25	2459.75
579.60	2450.75
579.95	2441.25
580.30	2433.40
580.66	2425.67
581.01	2416.24
581.36	2406.72
581.71	2398.26
582.06	2389.90
582.42	2381.22
582.77	2372.18
583.12	2363.36
583.47	2354.88
583.82	2346.72
584.17	2337.26
584.53	2327.69
584.88	2318.72
585.23	2309.15
585.58	2299.50
585.93	2289.65
586.28	2280.55
586.63	2271.78
586.98	2263.64
587.34	2255.48
587.69	2246.07
588.04	2236.46
588.39	2228.16
588.74	2219.51
589.09	2210.95
589.44	2201.01
589.79	2192.44
590.14	2184.39
590.49	2175.84
590.84	2166.40
591.19	2158.05
591.54	2149.41
591.89	2139.44
592.25	2130.14
592.60	2120.58
592.95	2111.54
593.30	2101.90
593.65	2091.82
594.00	2081.86
594.35	2073.49
594.70	2063.98
595.05	2055.23
595.40	2046.59
595.75	2036.88
596.10	2028.28
596.45	2019.29
596.80	2011.79
597.15	2003.21
597.50	1994.00
597.85	1985.23
598.19	1976.74
598.54	1968.13
598.89	1960.05
599.24	1953.42
599.59	1946.01
599.94	1939.02
600.29	1930.73
600.64	1922.92
600.99	1914.66
601.34	1907.39
601.69	1898.35
602.04	1890.13
602.39	1882.24
602.74	1874.43
603.08	1867.88
603.43	1860.50
603.78	1852.75
604.13	1844.41
604.48	1836.55
604.83	1829.46
605.18	1822.81
605.53	1815.20
605.87	1807.36
606.22	1800.18
606.57	1792.26
606.92	1784.11
607.27	1776.10
607.62	1769.09
607.96	1761.94
608.31	1755.59
608.66	1747.76
609.01	1740.25
609.36	1732.75
609.70	1724.48
610.05	1716.59
610.40	1708.39
610.75	1699.94
611.10	1691.99
611.44	1682.80
611.79	1673.73
612.14	1664.42
612.49	1654.47
612.83	1645.78
613.18	1636.01
613.53	1626.36
613.88	1616.38
614.22	1607.03
614.57	1597.47
614.92	1587.85
615.27	1578.45
615.61	1568.70
615.96	1559.81
616.31	1551.18
616.65	1542.94
617.00	1534.48
617.35	1525.74
617.70	1516.46
618.04	1507.31
618.39	1498.01
618.74	1489.63
619.08	1481.05
619.43	1472.76
619.78	1464.92
620.12	1456.46
620.47	1448.92
620.82	1440.34
621.16	1432.05
621.51	1423.85
621.85	1415.55
622.20	1406.98
622.55	1398.54
622.89	1390.02
623.24	1381.95
623.59	1373.28
623.93	1364.77
624.28	1356.42
624.62	1348.21
624.97	1340.15
625.32	1332.31
625.66	1325.00
626.01	1317.67
626.35	1310.43
626.70	1302.83
627.04	1295.39
627.39	1287.91
627.73	1280.34
628.08	1273.53
628.43	1266.26
628.77	1258.76
629.12	1251.49
629.46	1244.94
629.81	1237.78
630.15	1230.43
630.50	1223.12
630.84	1215.80
631.19	1208.68
631.53	1202.00
631.88	1194.24
632.22	1186.61
632.57	1179.62
632.91	1171.98
633.26	1164.33
633.60	1156.74
633.95	1149.72
634.29	1142.25
634.64	1135.40
634.98	1128.05
635.32	1120.94
635.67	1114.33
636.01	1107.76
636.36	1101.04
636.70	1094.09
637.05	1087.48
637.39	1081.18
637.73	1074.81
638.08	1068.95
638.42	1062.91
638.77	1056.02
639.11	1049.92
639.45	1043.97
639.80	1037.16
640.14	1030.79
640.49	1024.50
640.83	1018.28
641.17	1011.85
641.52	1005.75
641.86	999.22
642.20	993.11
642.55	986.29
642.89	979.81
643.23	973.37
643.58	967.17
643.92	960.70
644.26	954.39
644.61	948.13
644.95	941.91
645.29	935.44
645.64	928.67
645.98	922.54
646.32	916.65
646.66	910.49
647.01	904.74
647.35	898.85
647.69	892.54
648.04	886.56
648.38	880.63
648.72	874.51
649.06	868.43
649.41	862.49
649.75	856.73
650.09	850.93
650.43	844.99
650.78	838.71
651.12	832.66
651.46	826.90
651.80	821.08
652.14	815.00
652.49	809.24
652.83	803.36
653.17	797.14
653.51	791.03
653.85	785.30
654.20	779.31
654.54	773.33
654.88	767.83
655.22	762.09
655.56	756.09
655.90	750.29
656.25	744.60
656.59	738.91
656.93	733.75
657.27	728.51
657.61	722.88
657.95	717.90
658.29	712.82
658.64	707.64
658.98	702.49
659.32	697.03
659.66	691.66
660.00	686.40
660.34	681.51
660.68	676.39
661.02	671.28
661.36	666.74
661.70	661.94
662.05	657.28
662.39	652.83
662.73	648.51
663.07	644.11
663.41	639.72
663.75	635.13
664.09	630.40
664.43	625.66
664.77	621.59
665.11	617.08
665.45	612.55
665.79	607.89
666.13	603.40
666.47	599.18
666.81	595.20
667.15	591.16
667.49	587.23
667.83	583.33
668.17	579.41
668.51	575.44
668.85	571.68
669.19	567.98
669.53	563.92
669.87	559.91
670.21	556.17
670.55	552.18
670.89	548.84
671.23	545.37
671.57	541.76
671.91	537.97
672.25	534.31
672.58	530.85
672.92	527.49
673.26	524.21
673.60	521.07
673.94	517.63
674.28	514.43
674.62	511.20
674.96	507.89
675.30	504.72
675.64	501.46
675.97	498.15
676.31	495.07
676.65	492.08
676.99	489.37
677.33	486.26
677.67	483.37
678.01	480.25
678.34	477.22
678.68	474.42
679.02	471.33
679.36	468.58
679.70	465.75
680.04	462.96
680.37	460.05
680.71	457.25
681.05	454.54
681.39	451.80
681.73	449.14
682.06	446.65
682.40	444.12
682.74	441.56
683.08	439.10
683.42	436.36
683.75	433.89
684.09	431.24
684.43	428.72
684.77	426.25
685.10	423.72
685.44	421.16
685.78	418.59
686.12	416.45
686.45	414.02
686.79	411.70
687.13	409.48
687.46	407.38
687.80	405.05
688.14	402.72
688.48	400.55
688.81	398.35
689.15	396.18
689.49	393.94
689.82	391.79
690.16	389.43
690.50	387.28
690.83	384.95
691.17	382.68
691.51	380.54
691.84	378.35
692.18	376.28
692.52	374.40
692.85	372.47
693.19	370.54
693.52	368.69
693.86	366.77
694.20	364.83
694.53	362.81
694.87	360.87
695.21	359.03
695.54	357.00
695.88	354.90
696.21	352.93
696.55	351.12
696.88	349.23
697.22	347.57
697.56	346.03
697.89	344.42
698.23	342.79
698.56	341.19
698.90	339.75
699.23	338.13
699.57	336.51
699.90	334.81
700.24	333.08
700.58	331.47
700.91	329.93
701.25	328.51
701.58	327.02
701.92	325.52
702.25	324.07
702.59	322.73
702.92	321.51
703.26	320.21
703.59	318.97
703.93	317.84
704.26	316.63
704.60	315.22
704.93	313.99
705.26	312.76
705.60	311.54
705.93	310.18
706.27	309.01
706.60	307.98
706.94	306.98
707.27	305.89
707.61	304.67
707.94	303.51
708.27	302.25
708.61	301.09
708.94	300.00
709.28	298.86
709.61	297.73
709.94	296.64
710.28	295.56
710.61	294.52
710.95	293.31
711.28	292.22
711.61	291.18
711.95	290.12
712.28	289.10
712.61	288.00
712.95	287.11
713.28	286.26
713.61	285.26
713.95	284.27
714.28	283.38
714.61	282.44
714.95	281.51
715.28	280.57
715.61	279.73
715.95	278.81
716.28	277.94
716.61	277.15
716.95	276.30
717.28	275.39
717.61	274.47
717.94	273.67
718.28	272.80
718.61	272.03
718.94	271.35
719.27	270.66
719.61	270.02
719.94	269.26
720.27	268.41
720.60	267.64
720.94	266.98
721.27	266.25
721.60	265.67
721.93	265.02
722.27	264.43
722.60	263.77
722.93	263.21
723.26	262.63
723.59	261.94
723.93	261.29
724.26	260.77
724.59	260.17
724.92	259.64
725.25	259.16
725.59	258.61
725.92	258.04
726.25	257.53
726.58	257.04
726.91	256.45
727.24	255.98
727.57	255.43
727.91	254.86
728.24	254.42
728.57	253.89
728.90	253.47
729.23	253.03
729.56	252.64
729.89	252.11
730.22	251.65
730.55	251.13
730.89	250.62
731.22	250.07
731.55	249.65
731.88	249.23
732.21	248.78
732.54	248.35
732.87	247.89
733.20	247.39
733.53	246.89
733.86	246.58
734.19	246.25
734.52	245.83
734.85	245.59
735.18	245.10
735.51	244.74
735.84	244.33
736.17	243.90
736.50	243.46
736.83	243.30
737.16	242.94
737.49	242.71
737.82	242.38
738.15	242.15
738.48	241.73
738.81	241.35
739.14	240.90
739.47	240.54
739.80	240.16
740.13	239.79
740.46	239.38
740.79	238.96
741.12	238.51
741.45	238.11
741.78	237.72
742.11	237.51
742.44	237.21
742.77	236.92
743.10	236.60
743.43	236.29
743.75	235.81
744.08	235.71
744.41	235.32
744.74	235.13
745.07	234.78
745.40	234.56
745.73	234.32
746.06	234.12
746.39	233.88
746.71	233.59
747.04	233.34
747.37	233.12
747.70	232.88
748.03	232.64
748.36	232.47
748.68	232.20
749.01	231.89
749.34	231.61
749.67	231.35
750.00	231.20
750.33	231.08
750.65	230.88
750.98	230.43
751.31	230.20
751.64	229.93
751.97	229.78
752.29	229.58
752.62	229.31
752.95	229.07
753.28	228.82
753.60	228.65
753.93	228.50
754.26	228.27
754.59	228.07
754.91	227.85
755.24	227.64
755.57	227.44
755.90	227.17
756.22	226.94
756.55	226.72
756.88	226.39
757.20	226.06
757.53	225.85
757.86	225.73
758.19	225.60
758.51	225.44
758.84	225.21
759.17	224.98
759.49	224.88
759.82	224.76
760.15	224.53
760.47	224.29
760.80	224.05
761.13	223.96
761.45	223.78
761.78	223.61
762.11	223.48
762.43	223.18
762.76	223.03
763.08	222.90
763.41	222.80
763.74	222.73
764.06	222.66
764.39	222.54
764.71	222.28
765.04	222.12
765.37	222.00
765.69	221.83
766.02	221.70
766.34	221.54
766.67	221.38
767.00	221.38
767.32	221.44
767.65	221.43
767.97	221.35
768.30	221.25
768.62	221.20
768.95	221.08
769.27	221.13
769.60	221.14
769.92	221.01
770.25	220.88
770.57	220.80
770.90	220.64
771.22	220.44
771.55	220.43
771.87	220.33
772.20	220.20
772.52	220.34
772.85	220.45
773.17	220.30
773.50	220.16
773.82	220.06
774.15	219.85
774.47	219.61
774.80	219.44
775.12	219.31
775.45	219.21
775.77	219.15
776.09	218.99
776.42	218.85
776.74	218.85
777.07	218.77
777.39	218.66
777.72	218.60
778.04	218.63
778.36	218.53
778.69	218.49
779.01	218.44
779.33	218.16
779.66	217.89
779.98	217.80
780.31	217.84
780.63	217.78
780.95	217.78
781.28	217.79
781.60	217.66
781.92	217.64
782.25	217.58
782.57	217.49
782.89	217.43
783.22	217.35
783.54	217.29
783.86	217.18
784.19	217.12
784.51	217.07
784.83	216.94
785.16	216.90
785.48	216.83
785.80	216.74
786.12	216.73
786.45	216.69
786.77	216.69
787.09	216.55
787.42	216.42
787.74	216.35
788.06	216.25
788.38	216.28
788.71	216.14
789.03	216.03
789.35	216.01
789.67	215.96
789.99	215.98
790.32	215.90
790.64	215.92
790.96	216.01
791.28	215.96
791.61	215.96
791.93	215.90
792.25	215.84
792.57	215.93
792.89	215.80
793.21	215.76
793.54	215.68
793.86	215.69
794.18	215.61
794.50	215.59
794.82	215.58
795.14	215.59
795.47	215.58
795.79	215.59
796.11	215.46
796.43	215.44
796.75	215.35
797.07	215.34
797.39	215.27
797.71	215.11
798.04	215.04
798.36	214.97
798.68	214.90
799.00	214.80
799.32	214.74
799.64	214.76
799.96	214.74
800.28	214.80
800.60	214.75
800.92	214.80
801.24	214.70
801.56	214.69
801.89	214.69
802.21	214.66
802.53	214.60
802.85	214.65
803.17	214.71
803.49	214.69
803.81	214.65
804.13	214.70
804.45	214.60
804.77	214.61
805.09	214.58
805.41	214.57
805.73	214.61
806.05	214.50
806.37	214.50
806.69	214.45
807.01	214.38
807.33	214.32
807.65	214.24
807.97	214.31
808.28	214.30
808.60	214.21
808.92	214.22
809.24	214.27
809.56	214.17
809.88	214.06
810.20	214.06
810.52	214.04
810.84	213.84
811.16	213.88
811.48	213.85
811.80	213.88
812.12	213.80
812.43	213.76
812.75	213.74
813.07	213.64
813.39	213.60
813.71	213.51
814.03	213.47
814.35	213.40
814.67	213.28
814.98	213.19
815.30	213.17
815.62	213.12
815.94	212.97
816.26	212.99
816.58	212.90
816.89	212.87
817.21	212.77
817.53	212.82
817.85	212.81
818.17	212.71
818.48	212.59
818.80	212.66
819.12	212.60
819.44	212.54
819.76	212.54
820.07	212.51
820.39	212.52
820.71	212.54
821.03	212.50
821.34	212.52
821.66	212.50
821.98	212.53
822.30	212.46
822.61	212.59
822.93	212.55
823.25	212.59
823.57	212.56
823.88	212.66
824.20	212.63
824.52	212.59
824.83	212.60
825.15	212.58
825.47	212.57
825.79	212.63
826.10	212.57
826.42	212.52
826.74	212.49
827.05	212.46
827.37	212.45
827.69	212.47
828.00	212.41
828.32	212.41
828.64	212.30
828.95	212.40
829.27	212.36
829.58	212.31
829.90	212.33
830.22	212.27
830.53	212.18
830.85	212.14
831.17	212.08
831.48	212.05
831.80	212.12
832.11	212.08
832.43	212.03
832.75	212.04
833.06	212.20
833.38	212.20
833.69	212.21
834.01	212.25
834.32	212.29
834.64	212.27
834.96	212.29
835.27	212.27
835.59	212.21
835.90	212.16
836.22	212.19
836.53	212.12
836.85	212.10
837.16	212.29
837.48	212.37
837.79	212.40
838.11	212.49
838.42	212.47
838.74	212.48
839.05	212.45
839.37	212.50
839.68	212.35
840.00	212.29
840.31	212.32
840.63	212.30
840.94	212.21
841.26	212.22
841.57	212.26
841.88	212.36
842.20	212.29
842.51	212.28
842.83	212.21
843.14	212.37
843.46	212.45
843.77	212.39
844.08	212.33
844.40	212.32
844.71	212.24
845.03	212.18
845.34	212.12
845.65	212.08
845.97	212.03
846.28	212.10
846.60	212.13
846.91	212.08
847.22	212.05
847.54	212.22
847.85	212.23
848.16	212.16
848.48	212.09
848.79	212.23
849.10	212.29
849.42	212.40
849.73	212.19
850.04	212.14
850.36	212.03
850.67	212.10
850.98	212.09
851.30	212.19
851.61	212.20
851.92	212.23
852.23	212.22
852.55	212.24
852.86	212.23
853.17	212.24
853.49	212.29
853.80	212.31
854.11	212.24
854.42	212.29
854.74	212.32
855.05	212.32
855.36	212.15
855.67	212.05
855.99	212.04
856.30	212.32
856.61	212.35
856.92	212.38
857.23	212.36
857.55	212.37
857.86	212.28
858.17	212.30
858.48	212.29
858.79	212.31
859.11	212.28
859.42	212.20
859.73	212.22
860.04	212.12
860.35	212.10
860.66	212.07
860.98	211.98
861.29	211.92
861.60	211.89
861.91	211.93
862.22	211.94
862.53	211.88
862.84	211.67
863.16	211.65
863.47	211.59
863.78	211.55
864.09	211.55
864.40	211.65
864.71	211.57
865.02	211.58
865.33	211.55
865.64	211.57
865.95	211.59
866.27	211.65
866.58	211.71
866.89	211.72
867.20	211.68
867.51	211.70
867.82	211.67
868.13	211.68
868.44	211.67
868.75	211.67
869.06	211.70
869.37	211.70
869.68	211.64
869.99	211.66
870.30	211.65
870.61	211.64
870.92	211.56
871.23	211.67
871.54	211.69
871.85	211.70
872.16	211.66
872.47	211.64
872.78	211.53
873.09	211.58
873.40	211.49
873.71	211.49
874.02	211.52
874.33	211.55
874.64	211.58
874.95	211.58
875.26	211.56
875.56	211.54
875.87	211.55
876.18	211.60
876.49	211.68
876.80	211.66
877.11	211.60
877.42	211.55
877.73	211.56
878.04	211.48
878.35	211.58
878.66	211.68
878.96	211.64
879.27	211.61
879.58	211.55
879.89	211.58
880.20	211.66
880.51	211.64
880.82	211.60
881.12	211.64
881.43	211.59
881.74	211.58
882.05	211.53
882.36	211.43
882.67	211.37
882.97	211.30
883.28	211.27
883.59	211.32
883.90	211.33
884.21	211.30
884.51	211.32
884.82	211.21
885.13	211.17
885.44	211.24
885.74	211.29
886.05	211.25
886.36	211.26
886.67	211.20
886.98	211.23
887.28	211.26
887.59	211.10
887.90	211.17
888.20	211.20
888.51	211.30
888.82	211.29
889.13	211.32
889.43	211.46
889.74	211.49
890.05	211.45
890.35	211.45
890.66	211.39
890.97	211.35
891.28	211.38
891.58	211.28
891.89	211.29
892.20	211.22
892.50	211.22
892.81	211.15
893.12	211.15
893.42	211.11
893.73	211.12
894.04	211.19
894.34	211.20
894.65	211.15
894.95	211.06
895.26	211.16
895.57	211.23
895.87	211.01
896.18	211.02
896.48	211.03
896.79	211.06
897.10	211.14
897.40	211.24
897.71	211.21
898.01	211.25
898.32	211.27
898.63	211.28
898.93	211.30
899.24	211.33
899.54	211.36
899.85	211.34
900.15	211.32
900.46	211.38
900.76	211.42
901.07	211.42
901.38	211.44
901.68	211.42
901.99	211.38
902.29	211.47
902.60	211.53
902.90	211.57
903.21	211.50
903.51	211.45
903.82	211.43
904.12	211.43
904.43	211.46
904.73	211.42
905.03	211.44
905.34	211.63
905.64	211.65
905.95	211.64
906.25	211.67
906.56	211.69
906.86	211.63
907.17	211.55
907.47	211.65
907.77	211.62
908.08	211.52
908.38	211.48
908.69	211.41
908.99	211.39
909.30	211.34
909.60	211.32
909.90	211.30
910.21	211.29
910.51	211.25
910.81	211.28
911.12	211.30
911.42	211.35
911.73	211.15
912.03	211.10
912.33	211.12
912.64	211.05
912.94	210.99
913.24	211.05
913.55	211.09
913.85	210.99
914.15	211.02
914.46	211.18
914.76	211.17
915.06	211.19
915.37	211.17
915.67	211.21
915.97	211.26
916.27	211.25
916.58	211.20
916.88	211.27
917.18	211.21
917.49	211.30
917.79	211.24
918.09	211.27
918.39	211.36
918.70	211.33
919.00	211.38
919.30	211.44
919.60	211.41
919.91	211.34
920.21	211.35
920.51	211.32
920.81	211.22
921.12	211.25
921.42	211.19
921.72	211.18
922.02	211.16
922.32	211.19
922.63	211.20
922.93	211.32
923.23	211.29
923.53	211.32
923.83	211.20
924.13	211.23
924.44	211.19
924.74	211.18
925.04	211.19
925.34	211.18
925.64	211.18
925.94	211.11
926.24	211.23
926.55	211.23
926.85	211.24
927.15	211.27
927.45	211.27
927.75	211.29
928.05	211.28
928.35	211.25
928.65	211.33
928.95	211.39
929.26	211.30
929.56	211.32
929.86	211.30
930.16	211.22
930.46	211.24
930.76	211.36
931.06	211.31
931.36	211.24
931.66	211.29
931.96	211.27
932.26	211.29
932.56	211.25
932.86	211.33
933.16	211.36
933.46	211.32
933.76	211.31
934.06	211.31
934.36	211.38
934.66	211.31
934.96	211.30
935.26	211.24
935.56	211.34
935.86	211.32
936.16	211.30
936.46	211.35
936.76	211.23
937.06	211.13
937.36	211.09
937.66	211.14
937.96	211.10
938.26	211.09
938.56	211.10
938.86	211.04
939.16	210.94
939.46	210.99
939.76	210.95
940.06	210.88
940.35	210.93
940.65	210.86
940.95	210.93
941.25	210.84
941.55	210.86
941.85	210.84
942.15	210.83
942.45	210.88
942.75	210.89
943.04	210.96
943.34	211.00
943.64	210.98
943.94	210.93
944.24	210.90
944.54	210.90
944.84	210.92
945.13	210.93
945.43	211.01
945.73	211.00
946.03	211.06
946.33	211.12
946.62	211.11
946.92	211.08
947.22	211.14
947.52	211.13
947.82	211.11
948.11	211.11
948.41	211.11
948.71	211.14
949.01	211.16
949.31	211.16
949.60	211.16
949.90	211.28
950.20	211.30
950.50	211.32
950.79	211.31
951.09	211.35
951.39	211.33
951.69	211.25
951.98	211.23
952.28	211.21
952.58	211.17
952.87	211.15
953.17	211.14
953.47	211.09
953.76	211.13
954.06	211.16
954.36	211.01
954.66	210.99
954.95	210.94
955.25	210.93
955.55	210.97
955.84	210.89
956.14	210.85
956.44	210.88
956.73	210.83
957.03	210.90
957.32	210.88
957.62	210.90
957.92	210.92
958.21	210.91
958.51	211.13
958.81	211.19
959.10	211.17
959.40	211.27
959.69	211.32
959.99	211.33
960.29	211.35
960.58	211.41
960.88	211.59
961.17	211.62
961.47	211.62
961.76	211.61
962.06	211.67
962.36	211.58
962.65	211.55
962.95	211.52
963.24	211.47
963.54	211.50
963.83	211.48
964.13	211.49
964.42	211.48
964.72	211.29
965.01	211.28
965.31	211.30
965.60	211.28
965.90	211.36
966.19	211.33
966.49	211.26
966.78	211.30
967.08	211.22
967.37	211.20
967.67	211.20
967.96	211.26
968.26	211.21
968.55	211.27
968.85	211.18
969.14	211.23
969.43	211.22
969.73	211.17
970.02	211.21
970.32	211.18
970.61	211.12
970.91	211.05
971.20	210.99
971.49	211.04
971.79	211.03
972.08	210.89
972.38	210.84
972.67	210.84
972.96	210.87
973.26	210.85
973.55	210.85
973.85	210.90
974.14	210.83
974.43	210.91
974.73	210.96
975.02	211.07
975.31	211.12
975.61	211.14
975.90	211.13
976.19	211.04
976.49	211.14
976.78	211.16
977.07	211.23
977.37	211.26
977.66	211.27
977.95	211.24
978.24	211.23
978.54	211.30
978.83	211.30
979.12	211.23
979.42	211.24
979.71	211.21
980.00	211.09
980.29	211.15
980.59	211.10
980.88	211.13
981.17	211.10
981.46	211.08
981.76	211.05
982.05	211.06
982.34	211.03
982.63	210.95
982.93	210.95
983.22	211.00
983.51	211.00
983.80	210.99
984.09	211.05
984.39	211.08
984.68	211.07
984.97	211.08
985.26	211.06
985.55	210.99
985.85	211.00
986.14	211.11
986.43	211.05
986.72	211.04
987.01	210.96
987.30	211.01
987.59	210.97
987.89	210.97
988.18	210.95
988.47	211.03
988.76	211.13
989.05	211.11
989.34	211.09
989.63	211.14
989.92	211.11
990.22	211.12
990.51	211.09
990.80	211.05
991.09	211.02
991.38	211.04
991.67	210.99
991.96	211.01
992.25	210.99
992.54	210.94
992.83	210.91
993.12	210.87
993.41	210.86
993.70	210.99
993.99	210.98
994.28	211.02
994.58	211.06
994.87	210.94
995.16	210.98
995.45	211.03
995.74	211.00
996.03	210.96
996.32	210.95
996.61	211.02
996.90	211.02
997.19	211.04
997.48	211.07
997.77	211.12
998.06	211.06
998.34	211.04
998.63	211.10
998.92	211.17
999.21	211.26
999.50	211.26
999.79	211.20
1000.08	211.26
1000.37	211.25
1000.66	211.17
1000.95	211.21
1001.24	211.21
1001.53	211.15
1001.82	211.10
1002.11	211.10
1002.40	211.01
1002.68	211.00
1002.97	211.16
1003.26	211.16
1003.55	211.09
1003.84	211.17
1004.13	211.29
1004.42	211.25
1004.71	211.20
1004.99	211.18
1005.28	211.18
1005.57	211.16
1005.86	211.07
1006.15	211.05
1006.44	211.02
1006.72	211.07
1007.01	211.10
1007.30	211.10
1007.59	211.05
1007.88	211.08
1008.17	211.04
1008.45	211.05
1008.74	210.98
1009.03	210.85
1009.32	210.78
1009.60	210.80
1009.89	210.71
1010.18	210.64
1010.47	210.69
1010.76	210.75
1011.04	210.75
1011.33	210.77
1011.62	210.77
1011.91	210.81
1012.19	210.81
1012.48	210.80
1012.77	210.81
1013.05	210.79
1013.34	210.78
1013.63	210.77
1013.92	210.77
1014.20	210.81
1014.49	210.77
1014.78	210.79
1015.06	210.74
1015.35	210.75
1015.64	210.79
1015.92	210.77
1016.21	210.71
1016.50	210.67
1016.78	210.61
1017.07	210.65
1017.36	210.58
1017.64	210.52
1017.93	210.50
1018.22	210.45
1018.50	210.48
1018.79	210.45
1019.08	210.44
1019.36	210.45
1019.65	210.54
1019.93	210.62
1020.22	210.69
1020.51	210.91
1020.79	210.92
1021.08	210.25
1021.36	210.95
1021.65	210.35
1021.94	211.70
1022.22	211.30
1022.51	211.85
1022.79	211.95
1023.08	212.05
1023.36	214.50
1023.65	210.40
>>>>>End Processed Spectral Data<<<<<
