SpectraSuite Data File
++++++++++++++++++++++++++++++++++++
Date: Mon Feb 25 17:30:05 EST 2013
User: group
Dark Spectrum Present: No
Reference Spectrum Present: No
Number of Sampled Component Spectra: 1
Spectrometers: USB2E7196
Integration Time (usec): 52000 (USB2E7196)
Spectra Averaged: 20 (USB2E7196)
Boxcar Smoothing: 10 (USB2E7196)
Correct for Electrical Dark: No (USB2E7196)
Strobe/Lamp Enabled: No (USB2E7196)
Correct for Detector Non-linearity: No (USB2E7196)
Correct for Stray Light: No (USB2E7196)
Number of Pixels in Processed Spectrum: 2048
>>>>>Begin Processed Spectral Data<<<<<
339.09	0.00
339.48	198.30
339.86	201.15
340.24	202.25
340.63	204.25
341.01	207.60
341.39	206.65
341.78	207.65
342.16	208.65
342.54	208.45
342.93	198.66
343.31	208.74
343.69	209.34
344.07	209.80
344.46	210.22
344.84	210.60
345.22	210.72
345.60	211.00
345.99	211.22
346.37	211.35
346.75	211.52
347.13	211.61
347.52	211.69
347.90	211.80
348.28	211.75
348.66	211.87
349.05	211.82
349.43	211.86
349.81	211.89
350.19	211.92
350.57	211.97
350.96	212.03
351.34	212.08
351.72	212.20
352.10	212.24
352.48	212.31
352.87	212.29
353.25	212.40
353.63	212.39
354.01	212.37
354.39	212.46
354.77	212.51
355.15	212.65
355.54	212.67
355.92	212.70
356.30	212.80
356.68	212.92
357.06	212.98
357.44	212.97
357.82	213.01
358.20	213.09
358.58	213.14
358.97	213.14
359.35	213.18
359.73	213.20
360.11	213.24
360.49	213.23
360.87	213.30
361.25	213.34
361.63	213.46
362.01	213.56
362.39	213.60
362.77	213.61
363.15	213.58
363.53	213.63
363.91	213.68
364.29	213.61
364.67	213.45
365.05	213.45
365.43	213.51
365.81	213.57
366.19	213.70
366.57	213.75
366.95	213.75
367.33	213.71
367.71	213.72
368.09	213.75
368.47	213.87
368.85	213.89
369.23	213.92
369.61	213.83
369.99	213.85
370.37	213.82
370.75	213.90
371.13	213.77
371.51	213.69
371.89	213.65
372.27	213.65
372.65	213.66
373.03	213.65
373.41	213.60
373.78	213.47
374.16	213.25
374.54	213.18
374.92	213.12
375.30	213.12
375.68	213.04
376.06	212.99
376.44	212.88
376.82	212.84
377.19	212.79
377.57	212.69
377.95	212.49
378.33	212.44
378.71	212.27
379.09	212.26
379.47	212.22
379.84	212.09
380.22	211.97
380.60	211.83
380.98	211.81
381.36	211.77
381.73	211.77
382.11	211.83
382.49	211.83
382.87	211.79
383.25	211.73
383.62	211.89
384.00	211.82
384.38	211.74
384.76	211.70
385.13	211.75
385.51	211.74
385.89	211.77
386.27	211.73
386.64	211.69
387.02	211.68
387.40	211.65
387.78	211.65
388.15	211.68
388.53	211.68
388.91	211.66
389.29	211.56
389.66	211.53
390.04	211.36
390.42	211.33
390.79	211.29
391.17	211.23
391.55	211.01
391.92	211.00
392.30	210.96
392.68	210.90
393.05	210.86
393.43	210.86
393.81	210.90
394.18	210.87
394.56	210.89
394.94	210.93
395.31	210.99
395.69	211.10
396.06	211.12
396.44	211.20
396.82	211.19
397.19	211.36
397.57	211.46
397.95	211.56
398.32	211.51
398.70	211.55
399.07	211.61
399.45	211.66
399.82	211.65
400.20	211.75
400.58	211.81
400.95	211.87
401.33	212.00
401.70	212.19
402.08	212.25
402.45	212.34
402.83	212.43
403.20	212.49
403.58	212.54
403.95	212.67
404.33	212.77
404.71	212.96
405.08	213.08
405.46	213.21
405.83	213.38
406.21	213.57
406.58	213.73
406.96	213.87
407.33	214.03
407.70	214.30
408.08	214.58
408.45	214.79
408.83	214.97
409.20	215.08
409.58	215.22
409.95	215.58
410.33	215.87
410.70	216.15
411.08	216.54
411.45	216.82
411.82	217.15
412.20	217.60
412.57	218.07
412.95	218.43
413.32	218.93
413.69	219.43
414.07	219.92
414.44	220.56
414.82	221.26
415.19	222.01
415.56	222.77
415.94	223.45
416.31	224.40
416.68	225.24
417.06	226.27
417.43	227.16
417.81	228.19
418.18	229.35
418.55	230.50
418.93	231.68
419.30	232.99
419.67	234.35
420.04	235.65
420.42	236.97
420.79	238.67
421.16	240.28
421.54	242.05
421.91	243.90
422.28	245.76
422.66	247.72
423.03	249.73
423.40	251.72
423.77	253.83
424.15	255.93
424.52	258.20
424.89	260.68
425.26	263.15
425.64	265.44
426.01	267.92
426.38	270.49
426.75	273.17
427.13	275.74
427.50	278.50
427.87	281.48
428.24	284.54
428.61	287.30
428.99	290.43
429.36	293.72
429.73	297.06
430.10	300.37
430.47	303.73
430.85	307.17
431.22	310.86
431.59	314.89
431.96	318.59
432.33	322.75
432.70	326.77
433.08	331.45
433.45	335.75
433.82	340.13
434.19	345.15
434.56	350.04
434.93	354.74
435.30	359.28
435.68	364.38
436.05	369.21
436.42	374.31
436.79	378.77
437.16	383.78
437.53	388.84
437.90	393.84
438.27	398.87
438.64	404.02
439.01	408.68
439.38	412.91
439.75	417.13
440.13	421.88
440.50	426.31
440.87	429.93
441.24	433.73
441.61	437.80
441.98	440.65
442.35	443.98
442.72	447.43
443.09	451.15
443.46	453.13
443.83	454.65
444.20	455.72
444.57	457.49
444.94	458.14
445.31	458.97
445.68	459.89
446.05	460.14
446.42	459.50
446.79	458.96
447.16	458.15
447.53	457.53
447.90	455.34
448.27	453.31
448.64	450.45
449.01	448.47
449.37	445.02
449.74	441.74
450.11	437.88
450.48	433.70
450.85	429.01
451.22	425.18
451.59	421.50
451.96	418.11
452.33	413.45
452.70	409.33
453.07	404.45
453.43	399.24
453.80	394.50
454.17	389.89
454.54	385.43
454.91	380.76
455.28	376.18
455.65	371.95
456.02	367.92
456.38	364.37
456.75	359.78
457.12	356.04
457.49	352.30
457.86	348.70
458.23	345.48
458.59	342.24
458.96	338.91
459.33	335.92
459.70	332.79
460.07	330.46
460.43	327.57
460.80	324.95
461.17	322.63
461.54	320.18
461.91	318.02
462.27	315.66
462.64	313.77
463.01	311.63
463.38	309.69
463.74	307.42
464.11	305.56
464.48	304.10
464.85	302.45
465.21	301.10
465.58	299.64
465.95	298.12
466.32	296.72
466.68	295.33
467.05	294.00
467.42	292.63
467.78	291.23
468.15	290.00
468.52	289.03
468.88	287.77
469.25	286.60
469.62	285.65
469.98	284.81
470.35	283.92
470.72	283.19
471.08	282.24
471.45	281.49
471.82	280.74
472.18	279.95
472.55	279.35
472.92	278.71
473.28	278.18
473.65	277.53
474.02	276.94
474.38	276.62
474.75	276.26
475.11	275.94
475.48	275.67
475.85	275.45
476.21	275.20
476.58	275.16
476.94	275.15
477.31	275.09
477.67	275.09
478.04	275.11
478.41	275.15
478.77	275.44
479.14	275.60
479.50	275.88
479.87	276.16
480.23	276.59
480.60	276.96
480.96	277.35
481.33	277.98
481.69	278.61
482.06	279.12
482.42	279.77
482.79	280.50
483.15	281.37
483.52	282.30
483.88	283.25
484.25	284.16
484.61	285.16
484.98	286.26
485.34	287.50
485.71	288.84
486.07	290.29
486.44	291.61
486.80	293.17
487.17	294.81
487.53	296.62
487.90	298.33
488.26	300.24
488.62	302.33
488.99	304.33
489.35	306.50
489.72	308.85
490.08	311.21
490.44	313.72
490.81	316.29
491.17	319.00
491.54	321.91
491.90	325.02
492.26	328.23
492.63	331.66
492.99	335.15
493.36	338.83
493.72	342.52
494.08	346.54
494.45	350.84
494.81	355.30
495.17	359.82
495.54	364.76
495.90	369.80
496.26	374.90
496.63	380.40
496.99	386.14
497.35	392.06
497.72	398.39
498.08	404.81
498.44	411.63
498.80	418.86
499.17	426.14
499.53	433.68
499.89	441.57
500.26	449.65
500.62	457.86
500.98	466.35
501.34	475.45
501.71	484.89
502.07	494.30
502.43	504.21
502.79	514.33
503.16	524.82
503.52	535.53
503.88	546.67
504.24	558.05
504.60	569.76
504.97	581.91
505.33	594.26
505.69	607.44
506.05	620.57
506.41	633.69
506.78	647.29
507.14	661.20
507.50	675.59
507.86	690.24
508.22	705.30
508.59	720.81
508.95	736.40
509.31	752.19
509.67	768.47
510.03	785.02
510.39	802.30
510.75	819.78
511.12	837.60
511.48	855.56
511.84	874.16
512.20	892.62
512.56	911.31
512.92	930.45
513.28	949.53
513.64	968.97
514.00	988.57
514.37	1008.60
514.73	1029.07
515.09	1049.61
515.45	1069.79
515.81	1090.43
516.17	1111.05
516.53	1132.04
516.89	1153.09
517.25	1174.38
517.61	1195.60
517.97	1216.45
518.33	1237.44
518.69	1258.45
519.05	1279.97
519.41	1301.38
519.77	1323.35
520.13	1345.02
520.49	1366.52
520.85	1388.72
521.21	1410.62
521.57	1432.88
521.93	1454.04
522.29	1475.95
522.65	1497.80
523.01	1519.96
523.37	1541.67
523.73	1563.47
524.09	1585.05
524.45	1606.64
524.81	1628.22
525.17	1649.96
525.53	1671.87
525.89	1693.67
526.25	1715.12
526.61	1735.85
526.97	1756.71
527.33	1776.91
527.68	1797.75
528.04	1818.28
528.40	1837.32
528.76	1857.46
529.12	1877.59
529.48	1898.86
529.84	1918.42
530.20	1937.97
530.56	1957.48
530.91	1977.38
531.27	1997.16
531.63	2016.54
531.99	2035.40
532.35	2053.68
532.71	2071.85
533.07	2090.55
533.42	2108.13
533.78	2126.20
534.14	2143.97
534.50	2160.41
534.86	2177.55
535.21	2193.39
535.57	2210.15
535.93	2227.12
536.29	2242.95
536.65	2258.57
537.00	2273.08
537.36	2287.83
537.72	2302.14
538.08	2316.19
538.44	2330.21
538.79	2344.40
539.15	2358.13
539.51	2372.16
539.87	2386.49
540.22	2400.03
540.58	2413.29
540.94	2426.62
541.29	2438.53
541.65	2449.58
542.01	2461.80
542.37	2473.12
542.72	2484.45
543.08	2494.61
543.44	2505.39
543.79	2515.11
544.15	2524.42
544.51	2534.43
544.87	2544.30
545.22	2552.61
545.58	2560.70
545.94	2567.28
546.29	2573.30
546.65	2579.10
547.01	2584.38
547.36	2589.39
547.72	2594.21
548.07	2597.87
548.43	2601.28
548.79	2604.62
549.14	2608.65
549.50	2612.57
549.86	2616.20
550.21	2619.88
550.57	2623.77
550.92	2625.97
551.28	2627.68
551.64	2629.78
551.99	2631.95
552.35	2633.25
552.70	2635.65
553.06	2638.00
553.41	2640.66
553.77	2643.07
554.13	2644.86
554.48	2646.93
554.84	2648.20
555.19	2648.11
555.55	2648.41
555.90	2648.60
556.26	2648.89
556.61	2648.59
556.97	2646.86
557.32	2645.65
557.68	2643.62
558.03	2641.55
558.39	2639.56
558.74	2639.05
559.10	2637.66
559.45	2635.34
559.81	2634.02
560.16	2631.24
560.52	2628.11
560.87	2625.14
561.23	2620.86
561.58	2618.39
561.94	2614.49
562.29	2610.41
562.64	2608.36
563.00	2605.57
563.35	2602.75
563.71	2600.60
564.06	2598.44
564.42	2596.49
564.77	2594.15
565.12	2591.87
565.48	2588.29
565.83	2585.37
566.19	2581.99
566.54	2577.65
566.89	2573.54
567.25	2569.59
567.60	2566.18
567.96	2562.96
568.31	2559.20
568.66	2555.42
569.02	2550.46
569.37	2545.71
569.72	2542.30
570.08	2536.80
570.43	2531.46
570.78	2526.17
571.14	2519.96
571.49	2513.41
571.84	2507.20
572.20	2500.21
572.55	2493.77
572.90	2487.24
573.26	2480.25
573.61	2473.23
573.96	2466.75
574.31	2459.39
574.67	2451.15
575.02	2442.81
575.37	2434.14
575.72	2425.27
576.08	2417.94
576.43	2409.60
576.78	2401.85
577.13	2393.63
577.49	2385.99
577.84	2378.34
578.19	2371.02
578.54	2364.07
578.90	2357.09
579.25	2348.75
579.60	2340.25
579.95	2331.30
580.30	2323.80
580.66	2316.17
581.01	2307.56
581.36	2298.37
581.71	2290.29
582.06	2282.39
582.42	2274.65
582.77	2266.00
583.12	2257.61
583.47	2249.35
583.82	2241.36
584.17	2232.40
584.53	2223.39
584.88	2214.87
585.23	2206.06
585.58	2196.77
585.93	2187.46
586.28	2178.83
586.63	2170.53
586.98	2162.60
587.34	2155.01
587.69	2146.07
588.04	2137.15
588.39	2129.09
588.74	2120.86
589.09	2112.27
589.44	2102.80
589.79	2094.15
590.14	2086.64
590.49	2078.75
590.84	2069.95
591.19	2062.22
591.54	2054.15
591.89	2044.79
592.25	2035.91
592.60	2026.95
592.95	2017.88
593.30	2008.80
593.65	1999.44
594.00	1990.21
594.35	1982.48
594.70	1973.65
595.05	1965.41
595.40	1957.13
595.75	1947.87
596.10	1940.12
596.45	1932.22
596.80	1924.90
597.15	1917.13
597.50	1908.54
597.85	1900.65
598.19	1892.53
598.54	1884.34
598.89	1876.80
599.24	1870.49
599.59	1863.41
599.94	1856.74
600.29	1849.58
600.64	1841.91
600.99	1834.00
601.34	1827.47
601.69	1818.87
602.04	1810.95
602.39	1803.24
602.74	1795.84
603.08	1789.64
603.43	1782.90
603.78	1775.22
604.13	1767.75
604.48	1760.40
604.83	1753.99
605.18	1747.21
605.53	1740.04
605.87	1732.70
606.22	1726.02
606.57	1718.43
606.92	1710.66
607.27	1702.77
607.62	1695.65
607.96	1688.83
608.31	1682.79
608.66	1675.15
609.01	1668.13
609.36	1661.04
609.70	1653.29
610.05	1645.67
610.40	1637.71
610.75	1629.43
611.10	1621.88
611.44	1613.36
611.79	1604.72
612.14	1595.64
612.49	1586.28
612.83	1577.96
613.18	1568.57
613.53	1559.30
613.88	1550.05
614.22	1541.92
614.57	1533.19
614.92	1524.47
615.27	1515.70
615.61	1506.33
615.96	1497.67
616.31	1489.46
616.65	1481.93
617.00	1474.40
617.35	1466.51
617.70	1458.22
618.04	1449.65
618.39	1440.97
618.74	1432.88
619.08	1424.59
619.43	1416.74
619.78	1409.47
620.12	1401.59
620.47	1394.23
620.82	1386.27
621.16	1378.42
621.51	1370.17
621.85	1362.34
622.20	1354.10
622.55	1346.20
622.89	1338.35
623.24	1330.74
623.59	1322.36
623.93	1313.77
624.28	1305.56
624.62	1297.86
624.97	1289.83
625.32	1282.11
625.66	1275.31
626.01	1268.38
626.35	1261.44
626.70	1254.08
627.04	1246.64
627.39	1239.48
627.73	1232.62
628.08	1226.13
628.43	1219.13
628.77	1212.25
629.12	1205.30
629.46	1199.07
629.81	1192.28
630.15	1185.31
630.50	1178.39
630.84	1171.44
631.19	1164.80
631.53	1158.30
631.88	1150.58
632.22	1143.40
632.57	1136.79
632.91	1129.39
633.26	1122.15
633.60	1115.26
633.95	1108.81
634.29	1101.93
634.64	1095.38
634.98	1088.39
635.32	1081.47
635.67	1075.29
636.01	1068.69
636.36	1061.95
636.70	1055.40
637.05	1048.97
637.39	1042.81
637.73	1036.57
638.08	1031.03
638.42	1025.18
638.77	1018.90
639.11	1013.04
639.45	1007.32
639.80	1001.13
640.14	995.05
640.49	989.03
640.83	983.09
641.17	976.88
641.52	971.04
641.86	964.76
642.20	959.06
642.55	952.54
642.89	946.13
643.23	939.97
643.58	934.49
643.92	928.21
644.26	922.25
644.61	916.50
644.95	910.59
645.29	904.53
645.64	898.26
645.98	892.30
646.32	886.83
646.66	880.90
647.01	875.14
647.35	869.36
647.69	863.30
648.04	857.45
648.38	851.73
648.72	845.98
649.06	840.14
649.41	834.13
649.75	828.68
650.09	823.07
650.43	817.45
650.78	811.43
651.12	805.67
651.46	800.11
651.80	794.42
652.14	788.76
652.49	782.96
652.83	777.43
653.17	771.60
653.51	765.68
653.85	760.28
654.20	754.68
654.54	748.97
654.88	743.74
655.22	738.22
655.56	732.51
655.90	726.71
656.25	721.24
656.59	715.91
656.93	710.97
657.27	706.00
657.61	700.79
657.95	695.76
658.29	690.79
658.64	685.86
658.98	680.73
659.32	675.40
659.66	670.57
660.00	665.40
660.34	660.41
660.68	655.42
661.02	650.47
661.36	645.93
661.70	641.48
662.05	636.88
662.39	632.59
662.73	628.45
663.07	624.50
663.41	620.43
663.75	616.17
664.09	611.50
664.43	607.01
664.77	602.81
665.11	598.51
665.45	594.35
665.79	590.05
666.13	585.91
666.47	582.05
666.81	577.93
667.15	574.07
667.49	570.35
667.83	566.70
668.17	563.05
668.51	559.33
668.85	555.60
669.19	552.21
669.53	548.44
669.87	544.44
670.21	540.62
670.55	536.81
670.89	533.37
671.23	530.10
671.57	526.77
671.91	523.38
672.25	519.99
672.58	516.62
672.92	513.31
673.26	510.21
673.60	507.18
673.94	503.83
674.28	500.57
674.62	497.45
674.96	494.35
675.30	491.22
675.64	488.04
675.97	485.13
676.31	482.04
676.65	479.18
676.99	476.73
677.33	473.98
677.67	471.30
678.01	468.30
678.34	465.48
678.68	462.65
679.02	459.75
679.36	457.06
679.70	454.39
680.04	451.69
680.37	448.92
680.71	446.21
681.05	443.86
681.39	441.48
681.73	438.91
682.06	436.45
682.40	434.03
682.74	431.69
683.08	429.14
683.42	426.66
683.75	424.11
684.09	421.50
684.43	419.07
684.77	416.55
685.10	414.17
685.44	411.72
685.78	409.18
686.12	406.92
686.45	404.67
686.79	402.54
687.13	400.54
687.46	398.35
687.80	396.17
688.14	393.92
688.48	391.67
688.81	389.55
689.15	387.42
689.49	385.17
689.82	383.02
690.16	380.81
690.50	378.62
690.83	376.53
691.17	374.44
691.51	372.27
691.84	370.30
692.18	368.40
692.52	366.56
692.85	364.86
693.19	363.03
693.52	361.14
693.86	359.16
694.20	357.28
694.53	355.51
694.87	353.67
695.21	351.84
695.54	350.08
695.88	348.32
696.21	346.43
696.55	344.77
696.88	343.11
697.22	341.47
697.56	339.90
697.89	338.44
698.23	336.85
698.56	335.31
698.90	333.81
699.23	332.22
699.57	330.69
699.90	329.15
700.24	327.57
700.58	326.02
700.91	324.57
701.25	323.14
701.58	321.80
701.92	320.40
702.25	319.03
702.59	317.77
702.92	316.39
703.26	315.13
703.59	313.95
703.93	312.85
704.26	311.69
704.60	310.51
704.93	309.26
705.26	308.09
705.60	306.97
705.93	305.73
706.27	304.65
706.60	303.56
706.94	302.45
707.27	301.40
707.61	300.23
707.94	299.13
708.27	297.87
708.61	296.75
708.94	295.61
709.28	294.50
709.61	293.28
709.94	292.31
710.28	291.34
710.61	290.35
710.95	289.14
711.28	288.24
711.61	287.20
711.95	286.23
712.28	285.22
712.61	284.28
712.95	283.44
713.28	282.55
713.61	281.64
713.95	280.77
714.28	279.95
714.61	279.16
714.95	278.28
715.28	277.39
715.61	276.43
715.95	275.63
716.28	274.80
716.61	274.06
716.95	273.23
717.28	272.38
717.61	271.54
717.94	270.84
718.28	270.03
718.61	269.39
718.94	268.61
719.27	267.93
719.61	267.20
719.94	266.51
720.27	265.75
720.60	265.03
720.94	264.33
721.27	263.62
721.60	263.03
721.93	262.43
722.27	261.92
722.60	261.36
722.93	260.82
723.26	260.34
723.59	259.70
723.93	259.10
724.26	258.56
724.59	257.98
724.92	257.36
725.25	256.82
725.59	256.27
725.92	255.76
726.25	255.25
726.58	254.80
726.91	254.25
727.24	253.76
727.57	253.28
727.91	252.78
728.24	252.34
728.57	251.90
728.90	251.51
729.23	251.01
729.56	250.64
729.89	250.15
730.22	249.65
730.55	249.23
730.89	248.85
731.22	248.39
731.55	247.99
731.88	247.59
732.21	247.10
732.54	246.57
732.87	246.17
733.20	245.67
733.53	245.21
733.86	244.85
734.19	244.47
734.52	244.13
734.85	243.88
735.18	243.46
735.51	243.08
735.84	242.60
736.17	242.28
736.50	241.84
736.83	241.68
737.16	241.34
737.49	241.04
737.82	240.63
738.15	240.30
738.48	239.97
738.81	239.70
739.14	239.38
739.47	239.09
739.80	238.80
740.13	238.57
740.46	238.26
740.79	237.85
741.12	237.50
741.45	237.17
741.78	236.69
742.11	236.51
742.44	236.16
742.77	235.92
743.10	235.68
743.43	235.35
743.75	234.85
744.08	234.74
744.41	234.38
744.74	234.13
745.07	233.85
745.40	233.59
745.73	233.38
746.06	233.11
746.39	232.88
746.71	232.48
747.04	232.20
747.37	231.94
747.70	231.75
748.03	231.55
748.36	231.28
748.68	231.06
749.01	230.68
749.34	230.41
749.67	230.21
750.00	229.96
750.33	229.88
750.65	229.69
750.98	229.23
751.31	229.04
751.64	228.78
751.97	228.66
752.29	228.44
752.62	228.17
752.95	227.98
753.28	227.73
753.60	227.63
753.93	227.50
754.26	227.30
754.59	227.07
754.91	226.78
755.24	226.58
755.57	226.39
755.90	226.22
756.22	226.07
756.55	225.91
756.88	225.61
757.20	225.27
757.53	225.05
757.86	224.98
758.19	224.81
758.51	224.75
758.84	224.48
759.17	224.31
759.49	224.08
759.82	223.98
760.15	223.84
760.47	223.59
760.80	223.34
761.13	223.16
761.45	222.97
761.78	222.92
762.11	222.78
762.43	222.61
762.76	222.44
763.08	222.23
763.41	222.05
763.74	221.98
764.06	221.85
764.39	221.70
764.71	221.51
765.04	221.36
765.37	221.18
765.69	221.08
766.02	220.92
766.34	220.80
766.67	220.68
767.00	220.58
767.32	220.66
767.65	220.57
767.97	220.50
768.30	220.43
768.62	220.26
768.95	220.10
769.27	220.05
769.60	220.01
769.92	219.93
770.25	219.78
770.57	219.57
770.90	219.50
771.22	219.43
771.55	219.37
771.87	219.26
772.20	219.12
772.52	219.16
772.85	219.27
773.17	219.21
773.50	219.07
773.82	218.95
774.15	218.69
774.47	218.59
774.80	218.45
775.12	218.29
775.45	218.15
775.77	218.15
776.09	218.03
776.42	217.98
776.74	217.83
777.07	217.78
777.39	217.83
777.72	217.73
778.04	217.75
778.36	217.65
778.69	217.60
779.01	217.63
779.33	217.38
779.66	217.08
779.98	217.02
780.31	216.95
780.63	216.95
780.95	216.93
781.28	216.86
781.60	216.81
781.92	216.77
782.25	216.75
782.57	216.65
782.89	216.63
783.22	216.54
783.54	216.57
783.86	216.50
784.19	216.39
784.51	216.47
784.83	216.28
785.16	216.22
785.48	216.17
785.80	216.07
786.12	216.05
786.45	216.08
786.77	216.06
787.09	216.04
787.42	215.94
787.74	215.98
788.06	215.92
788.38	215.94
788.71	215.91
789.03	215.92
789.35	215.92
789.67	215.89
789.99	215.95
790.32	215.96
790.64	215.91
790.96	216.03
791.28	215.90
791.61	215.92
791.93	215.93
792.25	215.92
792.57	216.00
792.89	215.94
793.21	215.92
793.54	215.89
793.86	215.86
794.18	215.84
794.50	215.73
794.82	215.66
795.14	215.59
795.47	215.59
795.79	215.58
796.11	215.53
796.43	215.40
796.75	215.27
797.07	215.22
797.39	215.20
797.71	214.99
798.04	214.97
798.36	214.93
798.68	214.84
799.00	214.77
799.32	214.62
799.64	214.61
799.96	214.51
800.28	214.43
800.60	214.35
800.92	214.35
801.24	214.29
801.56	214.32
801.89	214.39
802.21	214.36
802.53	214.23
802.85	214.19
803.17	214.37
803.49	214.28
803.81	214.22
804.13	214.24
804.45	214.26
804.77	214.28
805.09	214.23
805.41	214.23
805.73	214.13
806.05	214.09
806.37	214.15
806.69	214.16
807.01	214.11
807.33	214.11
807.65	213.98
807.97	214.03
808.28	213.93
808.60	213.79
808.92	213.73
809.24	213.84
809.56	213.74
809.88	213.61
810.20	213.58
810.52	213.61
810.84	213.57
811.16	213.56
811.48	213.53
811.80	213.53
812.12	213.40
812.43	213.45
812.75	213.47
813.07	213.32
813.39	213.23
813.71	213.17
814.03	213.12
814.35	213.07
814.67	212.97
814.98	212.95
815.30	212.97
815.62	212.95
815.94	212.77
816.26	212.79
816.58	212.73
816.89	212.77
817.21	212.70
817.53	212.65
817.85	212.55
818.17	212.40
818.48	212.38
818.80	212.48
819.12	212.50
819.44	212.48
819.76	212.49
820.07	212.47
820.39	212.49
820.71	212.49
821.03	212.52
821.34	212.50
821.66	212.59
821.98	212.58
822.30	212.52
822.61	212.64
822.93	212.60
823.25	212.58
823.57	212.50
823.88	212.52
824.20	212.54
824.52	212.62
824.83	212.62
825.15	212.57
825.47	212.51
825.79	212.51
826.10	212.39
826.42	212.45
826.74	212.48
827.05	212.45
827.37	212.43
827.69	212.46
828.00	212.44
828.32	212.37
828.64	212.34
828.95	212.40
829.27	212.37
829.58	212.35
829.90	212.33
830.22	212.40
830.53	212.35
830.85	212.23
831.17	212.14
831.48	212.23
831.80	212.27
832.11	212.25
832.43	212.20
832.75	212.24
833.06	212.27
833.38	212.22
833.69	212.19
834.01	212.18
834.32	212.13
834.64	212.13
834.96	212.15
835.27	212.16
835.59	212.14
835.90	212.10
836.22	212.10
836.53	212.07
836.85	211.99
837.16	212.14
837.48	212.18
837.79	212.28
838.11	212.31
838.42	212.25
838.74	212.26
839.05	212.25
839.37	212.27
839.68	212.17
840.00	212.19
840.31	212.19
840.63	212.13
840.94	212.12
841.26	212.13
841.57	212.17
841.88	212.19
842.20	212.18
842.51	212.16
842.83	212.19
843.14	212.40
843.46	212.42
843.77	212.40
844.08	212.45
844.40	212.37
844.71	212.30
845.03	212.28
845.34	212.33
845.65	212.31
845.97	212.27
846.28	212.25
846.60	212.32
846.91	212.36
847.22	212.38
847.54	212.43
847.85	212.41
848.16	212.33
848.48	212.29
848.79	212.34
849.10	212.43
849.42	212.42
849.73	212.19
850.04	212.19
850.36	212.09
850.67	212.08
850.98	212.05
851.30	212.07
851.61	212.09
851.92	212.00
852.23	212.10
852.55	212.13
852.86	212.12
853.17	212.08
853.49	212.09
853.80	212.14
854.11	212.16
854.42	212.21
854.74	212.15
855.05	212.07
855.36	211.89
855.67	211.85
855.99	211.85
856.30	212.02
856.61	212.02
856.92	212.03
857.23	211.98
857.55	211.99
857.86	211.84
858.17	211.97
858.48	211.99
858.79	211.89
859.11	211.89
859.42	211.84
859.73	211.77
860.04	211.72
860.35	211.64
860.66	211.56
860.98	211.53
861.29	211.60
861.60	211.66
861.91	211.73
862.22	211.67
862.53	211.64
862.84	211.40
863.16	211.43
863.47	211.36
863.78	211.35
864.09	211.37
864.40	211.43
864.71	211.35
865.02	211.36
865.33	211.29
865.64	211.21
865.95	211.23
866.27	211.35
866.58	211.39
866.89	211.38
867.20	211.42
867.51	211.40
867.82	211.36
868.13	211.35
868.44	211.32
868.75	211.36
869.06	211.40
869.37	211.50
869.68	211.44
869.99	211.43
870.30	211.42
870.61	211.35
870.92	211.36
871.23	211.33
871.54	211.31
871.85	211.32
872.16	211.37
872.47	211.34
872.78	211.24
873.09	211.19
873.40	211.15
873.71	211.07
874.02	211.08
874.33	211.03
874.64	210.98
874.95	211.03
875.26	210.97
875.56	210.88
875.87	210.79
876.18	210.78
876.49	210.97
876.80	210.94
877.11	210.97
877.42	210.95
877.73	210.97
878.04	210.92
878.35	210.98
878.66	210.96
878.96	210.97
879.27	210.95
879.58	210.97
879.89	211.00
880.20	211.09
880.51	211.04
880.82	211.06
881.12	211.13
881.43	211.10
881.74	211.01
882.05	211.02
882.36	211.07
882.67	211.08
882.97	210.95
883.28	211.02
883.59	211.01
883.90	211.13
884.21	211.11
884.51	211.14
884.82	211.12
885.13	211.15
885.44	211.23
885.74	211.28
886.05	211.33
886.36	211.30
886.67	211.33
886.98	211.49
887.28	211.46
887.59	211.40
887.90	211.42
888.20	211.51
888.51	211.53
888.82	211.55
889.13	211.58
889.43	211.69
889.74	211.65
890.05	211.68
890.35	211.64
890.66	211.64
890.97	211.67
891.28	211.68
891.58	211.71
891.89	211.68
892.20	211.69
892.50	211.73
892.81	211.75
893.12	211.66
893.42	211.50
893.73	211.57
894.04	211.64
894.34	211.64
894.65	211.65
894.95	211.70
895.26	211.78
895.57	211.83
895.87	211.65
896.18	211.68
896.48	211.66
896.79	211.71
897.10	211.76
897.40	211.75
897.71	211.63
898.01	211.55
898.32	211.55
898.63	211.46
898.93	211.36
899.24	211.34
899.54	211.40
899.85	211.46
900.15	211.46
900.46	211.42
900.76	211.37
901.07	211.34
901.38	211.30
901.68	211.33
901.99	211.20
902.29	211.19
902.60	211.15
902.90	211.13
903.21	211.03
903.51	211.06
903.82	211.11
904.12	211.15
904.43	211.16
904.73	211.21
905.03	211.22
905.34	211.48
905.64	211.41
905.95	211.34
906.25	211.35
906.56	211.34
906.86	211.37
907.17	211.50
907.47	211.53
907.77	211.51
908.08	211.33
908.38	211.39
908.69	211.40
908.99	211.41
909.30	211.42
909.60	211.42
909.90	211.31
910.21	211.26
910.51	211.24
910.81	211.27
911.12	211.24
911.42	211.24
911.73	210.98
912.03	210.93
912.33	210.96
912.64	210.93
912.94	210.90
913.24	210.89
913.55	210.75
913.85	210.77
914.15	210.79
914.46	210.90
914.76	210.92
915.06	210.92
915.37	210.93
915.67	210.93
915.97	210.98
916.27	210.97
916.58	210.89
916.88	210.94
917.18	210.89
917.49	210.96
917.79	211.03
918.09	211.04
918.39	211.13
918.70	211.17
919.00	211.21
919.30	211.30
919.60	211.26
919.91	211.28
920.21	211.24
920.51	211.17
920.81	211.03
921.12	210.99
921.42	210.95
921.72	210.89
922.02	210.88
922.32	210.88
922.63	210.90
922.93	211.11
923.23	211.11
923.53	211.06
923.83	211.04
924.13	211.01
924.44	211.04
924.74	211.09
925.04	211.09
925.34	210.98
925.64	210.88
925.94	210.87
926.24	211.01
926.55	211.03
926.85	211.08
927.15	211.13
927.45	211.11
927.75	211.14
928.05	211.20
928.35	211.13
928.65	211.16
928.95	211.21
929.26	211.01
929.56	211.07
929.86	211.15
930.16	211.05
930.46	210.99
930.76	210.99
931.06	210.92
931.36	210.96
931.66	210.99
931.96	211.05
932.26	211.07
932.56	210.97
932.86	210.91
933.16	210.93
933.46	210.96
933.76	210.95
934.06	210.99
934.36	210.99
934.66	211.05
934.96	210.95
935.26	210.90
935.56	211.00
935.86	210.92
936.16	210.85
936.46	210.85
936.76	210.92
937.06	210.94
937.36	210.95
937.66	210.87
937.96	210.95
938.26	210.85
938.56	210.84
938.86	210.82
939.16	210.87
939.46	210.93
939.76	210.93
940.06	210.85
940.35	210.77
940.65	210.75
940.95	210.76
941.25	210.72
941.55	210.62
941.85	210.56
942.15	210.65
942.45	210.70
942.75	210.69
943.04	210.66
943.34	210.67
943.64	210.68
943.94	210.74
944.24	210.65
944.54	210.63
944.84	210.58
945.13	210.52
945.43	210.51
945.73	210.44
946.03	210.34
946.33	210.42
946.62	210.40
946.92	210.40
947.22	210.45
947.52	210.49
947.82	210.53
948.11	210.53
948.41	210.42
948.71	210.48
949.01	210.52
949.31	210.54
949.60	210.52
949.90	210.49
950.20	210.47
950.50	210.41
950.79	210.43
951.09	210.51
951.39	210.57
951.69	210.56
951.98	210.60
952.28	210.69
952.58	210.70
952.87	210.79
953.17	210.80
953.47	210.71
953.76	210.80
954.06	210.82
954.36	210.86
954.66	210.95
954.95	210.97
955.25	210.95
955.55	210.92
955.84	210.92
956.14	211.00
956.44	210.96
956.73	210.96
957.03	211.04
957.32	211.03
957.62	210.97
957.92	211.01
958.21	211.01
958.51	211.22
958.81	211.26
959.10	211.33
959.40	211.36
959.69	211.34
959.99	211.30
960.29	211.31
960.58	211.25
960.88	211.26
961.17	211.17
961.47	211.17
961.76	211.17
962.06	211.22
962.36	211.19
962.65	211.21
962.95	211.31
963.24	211.24
963.54	211.23
963.83	211.30
964.13	211.30
964.42	211.19
964.72	211.05
965.01	211.00
965.31	210.93
965.60	210.92
965.90	211.05
966.19	211.02
966.49	211.05
966.78	211.11
967.08	211.13
967.37	211.24
967.67	211.29
967.96	211.25
968.26	211.22
968.55	211.20
968.85	211.24
969.14	211.23
969.43	211.25
969.73	211.21
970.02	211.18
970.32	211.19
970.61	211.25
970.91	211.15
971.20	211.18
971.49	211.14
971.79	211.15
972.08	211.15
972.38	211.19
972.67	211.22
972.96	211.27
973.26	211.17
973.55	211.15
973.85	211.11
974.14	211.19
974.43	211.12
974.73	211.19
975.02	211.11
975.31	211.11
975.61	211.09
975.90	211.11
976.19	211.04
976.49	211.11
976.78	211.15
977.07	211.20
977.37	211.25
977.66	211.23
977.95	211.22
978.24	211.14
978.54	211.08
978.83	211.07
979.12	211.01
979.42	211.02
979.71	211.00
980.00	211.00
980.29	210.99
980.59	211.02
980.88	211.02
981.17	211.02
981.46	210.99
981.76	211.00
982.05	211.09
982.34	211.16
982.63	211.11
982.93	211.08
983.22	211.09
983.51	211.05
983.80	211.10
984.09	211.10
984.39	211.07
984.68	211.16
984.97	211.12
985.26	211.18
985.55	211.16
985.85	211.06
986.14	211.03
986.43	211.07
986.72	211.01
987.01	210.97
987.30	210.95
987.59	210.98
987.89	210.97
988.18	210.92
988.47	210.91
988.76	210.84
989.05	210.76
989.34	210.74
989.63	210.73
989.92	210.68
990.22	210.72
990.51	210.70
990.80	210.65
991.09	210.64
991.38	210.57
991.67	210.65
991.96	210.66
992.25	210.71
992.54	210.61
992.83	210.63
993.12	210.62
993.41	210.66
993.70	210.76
993.99	210.76
994.28	210.77
994.58	210.75
994.87	210.73
995.16	210.78
995.45	210.77
995.74	210.74
996.03	210.74
996.32	210.74
996.61	210.79
996.90	210.84
997.19	210.84
997.48	210.85
997.77	210.81
998.06	210.82
998.34	210.80
998.63	210.78
998.92	210.77
999.21	210.74
999.50	210.75
999.79	210.64
1000.08	210.64
1000.37	210.67
1000.66	210.61
1000.95	210.64
1001.24	210.63
1001.53	210.65
1001.82	210.58
1002.11	210.67
1002.40	210.62
1002.68	210.67
1002.97	210.71
1003.26	210.68
1003.55	210.67
1003.84	210.60
1004.13	210.70
1004.42	210.67
1004.71	210.73
1004.99	210.75
1005.28	210.83
1005.57	210.75
1005.86	210.73
1006.15	210.72
1006.44	210.61
1006.72	210.70
1007.01	210.70
1007.30	210.75
1007.59	210.69
1007.88	210.77
1008.17	210.71
1008.45	210.67
1008.74	210.60
1009.03	210.50
1009.32	210.53
1009.60	210.51
1009.89	210.53
1010.18	210.47
1010.47	210.48
1010.76	210.46
1011.04	210.40
1011.33	210.40
1011.62	210.49
1011.91	210.49
1012.19	210.55
1012.48	210.51
1012.77	210.50
1013.05	210.56
1013.34	210.53
1013.63	210.57
1013.92	210.57
1014.20	210.59
1014.49	210.59
1014.78	210.60
1015.06	210.57
1015.35	210.56
1015.64	210.61
1015.92	210.64
1016.21	210.58
1016.50	210.59
1016.78	210.60
1017.07	210.65
1017.36	210.59
1017.64	210.61
1017.93	210.59
1018.22	210.56
1018.50	210.54
1018.79	210.49
1019.08	210.42
1019.36	210.43
1019.65	210.42
1019.93	210.44
1020.22	210.45
1020.51	210.51
1020.79	210.48
1021.08	210.75
1021.36	208.60
1021.65	209.55
1021.94	210.35
1022.22	210.90
1022.51	210.20
1022.79	210.90
1023.08	211.05
1023.36	212.10
1023.65	209.95
>>>>>End Processed Spectral Data<<<<<
