SpectraSuite Data File
++++++++++++++++++++++++++++++++++++
Date: Mon Feb 25 17:35:59 EST 2013
User: group
Dark Spectrum Present: No
Reference Spectrum Present: No
Number of Sampled Component Spectra: 1
Spectrometers: USB2E7196
Integration Time (usec): 52000 (USB2E7196)
Spectra Averaged: 20 (USB2E7196)
Boxcar Smoothing: 10 (USB2E7196)
Correct for Electrical Dark: No (USB2E7196)
Strobe/Lamp Enabled: No (USB2E7196)
Correct for Detector Non-linearity: No (USB2E7196)
Correct for Stray Light: No (USB2E7196)
Number of Pixels in Processed Spectrum: 2048
>>>>>Begin Processed Spectral Data<<<<<
339.09	0.00
339.48	197.55
339.86	198.75
340.24	200.30
340.63	202.90
341.01	206.85
341.39	205.90
341.78	206.30
342.16	209.40
342.54	208.05
342.93	197.85
343.31	207.84
343.69	208.45
344.07	209.02
344.46	209.60
344.84	210.11
345.22	210.39
345.60	210.78
345.99	211.11
346.37	211.29
346.75	211.50
347.13	211.78
347.52	211.99
347.90	212.24
348.28	212.40
348.66	212.59
349.05	212.74
349.43	212.92
349.81	213.10
350.19	213.31
350.57	213.52
350.96	213.78
351.34	213.98
351.72	214.21
352.10	214.38
352.48	214.52
352.87	214.60
353.25	214.71
353.63	214.75
354.01	214.87
354.39	215.06
354.77	215.23
355.15	215.41
355.54	215.49
355.92	215.42
356.30	215.49
356.68	215.67
357.06	215.78
357.44	215.80
357.82	215.81
358.20	215.87
358.58	215.87
358.97	215.87
359.35	215.97
359.73	216.01
360.11	216.09
360.49	216.10
360.87	216.10
361.25	216.18
361.63	216.26
362.01	216.33
362.39	216.31
362.77	216.30
363.15	216.21
363.53	216.24
363.91	216.30
364.29	216.26
364.67	216.09
365.05	216.12
365.43	216.12
365.81	216.13
366.19	216.18
366.57	216.32
366.95	216.25
367.33	216.18
367.71	216.19
368.09	216.14
368.47	216.12
368.85	216.12
369.23	216.09
369.61	216.03
369.99	216.05
370.37	216.04
370.75	216.12
371.13	216.11
371.51	216.02
371.89	216.02
372.27	216.03
372.65	216.00
373.03	215.95
373.41	215.94
373.78	215.92
374.16	215.82
374.54	215.67
374.92	215.69
375.30	215.70
375.68	215.65
376.06	215.68
376.44	215.62
376.82	215.57
377.19	215.51
377.57	215.44
377.95	215.31
378.33	215.20
378.71	215.06
379.09	215.02
379.47	215.05
379.84	215.01
380.22	214.95
380.60	214.87
380.98	214.88
381.36	214.85
381.73	214.74
382.11	214.70
382.49	214.68
382.87	214.63
383.25	214.65
383.62	214.78
384.00	214.71
384.38	214.71
384.76	214.75
385.13	214.83
385.51	214.90
385.89	214.92
386.27	214.91
386.64	214.94
387.02	214.85
387.40	214.78
387.78	214.72
388.15	214.75
388.53	214.77
388.91	214.77
389.29	214.77
389.66	214.82
390.04	214.87
390.42	214.94
390.79	214.96
391.17	214.98
391.55	214.85
391.92	214.90
392.30	214.96
392.68	215.04
393.05	215.09
393.43	215.13
393.81	215.14
394.18	215.21
394.56	215.31
394.94	215.50
395.31	215.51
395.69	215.74
396.06	215.85
396.44	215.98
396.82	216.03
397.19	216.22
397.57	216.32
397.95	216.49
398.32	216.52
398.70	216.71
399.07	216.90
399.45	217.07
399.82	217.27
400.20	217.47
400.58	217.70
400.95	217.82
401.33	218.20
401.70	218.65
402.08	219.01
402.45	219.39
402.83	219.81
403.20	220.31
403.58	220.77
403.95	221.38
404.33	221.92
404.71	222.51
405.08	223.22
405.46	223.96
405.83	224.71
406.21	225.64
406.58	226.68
406.96	227.65
407.33	228.70
407.70	229.97
408.08	231.33
408.45	232.67
408.83	234.16
409.20	235.55
409.58	237.06
409.95	238.86
410.33	240.80
410.70	242.73
411.08	244.82
411.45	247.05
411.82	249.46
412.20	252.06
412.57	255.18
412.95	258.08
413.32	261.30
413.69	264.73
414.07	268.42
414.44	272.33
414.82	276.48
415.19	281.21
415.56	286.11
415.94	291.46
416.31	297.17
416.68	303.03
417.06	309.65
417.43	315.97
417.81	323.16
418.18	330.57
418.55	338.70
418.93	347.33
419.30	356.22
419.67	365.46
420.04	375.42
420.42	385.69
420.79	397.05
421.16	409.02
421.54	421.14
421.91	433.87
422.28	447.20
422.66	461.49
423.03	475.10
423.40	489.69
423.77	505.29
424.15	521.34
424.52	538.02
424.89	556.10
425.26	573.95
425.64	590.98
426.01	609.81
426.38	629.50
426.75	649.26
427.13	669.88
427.50	692.01
427.87	714.97
428.24	738.30
428.61	760.97
428.99	784.77
429.36	811.52
429.73	837.51
430.10	863.63
430.47	890.45
430.85	918.90
431.22	948.50
431.59	979.37
431.96	1009.55
432.33	1043.37
432.70	1075.84
433.08	1114.28
433.45	1150.38
433.82	1186.85
434.19	1226.73
434.56	1266.24
434.93	1304.77
435.30	1342.77
435.68	1384.93
436.05	1427.10
436.42	1469.25
436.79	1507.99
437.16	1549.87
437.53	1594.44
437.90	1638.22
438.27	1681.23
438.64	1726.39
439.01	1768.07
439.38	1806.89
439.75	1844.11
440.13	1885.61
440.50	1925.92
440.87	1959.08
441.24	1993.99
441.61	2032.06
441.98	2061.83
442.35	2095.68
442.72	2129.14
443.09	2161.39
443.46	2182.86
443.83	2198.37
444.20	2212.47
444.57	2231.85
444.94	2242.51
445.31	2253.70
445.68	2263.39
446.05	2270.90
446.42	2271.18
446.79	2270.26
447.16	2268.32
447.53	2267.90
447.90	2256.45
448.27	2244.44
448.64	2226.04
449.01	2213.59
449.37	2188.11
449.74	2163.55
450.11	2132.85
450.48	2101.02
450.85	2068.72
451.22	2040.74
451.59	2013.46
451.96	1987.70
452.33	1952.06
452.70	1920.20
453.07	1881.26
453.43	1842.90
453.80	1804.50
454.17	1767.54
454.54	1733.20
454.91	1695.86
455.28	1659.41
455.65	1625.34
456.02	1588.97
456.38	1559.62
456.75	1522.35
457.12	1492.03
457.49	1461.89
457.86	1433.70
458.23	1407.51
458.59	1379.23
458.96	1350.79
459.33	1326.00
459.70	1300.68
460.07	1280.72
460.43	1257.61
460.80	1235.43
461.17	1216.00
461.54	1195.80
461.91	1176.48
462.27	1157.01
462.64	1140.39
463.01	1121.81
463.38	1103.32
463.74	1087.24
464.11	1071.63
464.48	1058.13
464.85	1042.91
465.21	1031.01
465.58	1018.14
465.95	1003.67
466.32	991.24
466.68	978.87
467.05	966.38
467.42	954.10
467.78	941.22
468.15	929.10
468.52	920.08
468.88	908.71
469.25	898.50
469.62	890.19
469.98	881.21
470.35	872.87
470.72	864.97
471.08	856.76
471.45	849.17
471.82	841.45
472.18	833.11
472.55	827.44
472.92	820.61
473.28	814.81
473.65	809.10
474.02	803.38
474.38	798.48
474.75	794.25
475.11	789.87
475.48	786.38
475.85	783.38
476.21	780.34
476.58	777.78
476.94	776.01
477.31	773.60
477.67	771.38
478.04	769.60
478.41	768.57
478.77	767.74
479.14	766.89
479.50	766.77
479.87	767.31
480.23	767.82
480.60	767.99
480.96	768.31
481.33	769.72
481.69	771.37
482.06	772.74
482.42	773.67
482.79	775.23
483.15	778.02
483.52	781.62
483.88	784.65
484.25	787.88
484.61	790.94
484.98	794.37
485.34	798.71
485.71	803.46
486.07	808.51
486.44	813.64
486.80	819.41
487.17	825.49
487.53	832.44
487.90	839.47
488.26	847.04
488.62	854.98
488.99	862.93
489.35	870.95
489.72	880.26
490.08	890.40
490.44	900.41
490.81	910.35
491.17	920.14
491.54	931.35
491.90	942.30
492.26	954.41
492.63	966.96
492.99	979.87
493.36	993.01
493.72	1006.72
494.08	1020.92
494.45	1036.05
494.81	1051.53
495.17	1067.13
495.54	1083.61
495.90	1100.88
496.26	1118.41
496.63	1136.25
496.99	1154.33
497.35	1172.73
497.72	1191.68
498.08	1210.88
498.44	1230.46
498.80	1251.05
499.17	1271.57
499.53	1292.84
499.89	1314.64
500.26	1336.10
500.62	1357.59
500.98	1380.44
501.34	1403.12
501.71	1426.28
502.07	1449.64
502.43	1473.26
502.79	1496.73
503.16	1520.34
503.52	1543.73
503.88	1566.91
504.24	1590.54
504.60	1615.15
504.97	1640.07
505.33	1664.57
505.69	1690.20
506.05	1715.74
506.41	1740.53
506.78	1765.63
507.14	1790.75
507.50	1815.70
507.86	1841.22
508.22	1867.01
508.59	1891.93
508.95	1917.57
509.31	1942.92
509.67	1968.53
510.03	1993.96
510.39	2020.01
510.75	2045.28
511.12	2070.14
511.48	2095.21
511.84	2119.96
512.20	2144.15
512.56	2168.69
512.92	2193.61
513.28	2218.03
513.64	2242.17
514.00	2265.84
514.37	2289.46
514.73	2312.92
515.09	2336.00
515.45	2358.92
515.81	2381.45
516.17	2404.52
516.53	2426.37
516.89	2448.38
517.25	2468.60
517.61	2488.68
517.97	2508.10
518.33	2526.96
518.69	2546.78
519.05	2566.66
519.41	2586.24
519.77	2605.68
520.13	2623.85
520.49	2640.98
520.85	2657.84
521.21	2674.55
521.57	2693.20
521.93	2709.38
522.29	2727.19
522.65	2744.08
523.01	2760.51
523.37	2775.90
523.73	2790.70
524.09	2805.30
524.45	2819.44
524.81	2833.83
525.17	2848.82
525.53	2863.59
525.89	2878.91
526.25	2893.22
526.61	2905.90
526.97	2919.41
527.33	2932.71
527.68	2946.00
528.04	2959.02
528.40	2971.16
528.76	2983.39
529.12	2993.79
529.48	3006.28
529.84	3015.57
530.20	3025.71
530.56	3036.37
530.91	3047.84
531.27	3058.72
531.63	3069.83
531.99	3080.28
532.35	3089.82
532.71	3099.27
533.07	3110.15
533.42	3119.38
533.78	3129.80
534.14	3139.63
534.50	3148.05
534.86	3157.55
535.21	3165.06
535.57	3173.94
535.93	3182.10
536.29	3189.32
536.65	3198.11
537.00	3205.13
537.36	3212.92
537.72	3219.95
538.08	3226.98
538.44	3233.48
538.79	3240.23
539.15	3246.46
539.51	3253.64
539.87	3262.33
540.22	3268.55
540.58	3274.93
540.94	3281.88
541.29	3286.42
541.65	3289.84
542.01	3294.05
542.37	3297.37
542.72	3301.96
543.08	3305.35
543.44	3309.85
543.79	3313.84
544.15	3316.53
544.51	3321.05
544.87	3325.60
545.22	3328.96
545.58	3330.64
545.94	3332.52
546.29	3334.08
546.65	3335.49
547.01	3336.00
547.36	3336.66
547.72	3338.16
548.07	3337.06
548.43	3336.05
548.79	3335.54
549.14	3337.63
549.50	3338.92
549.86	3339.93
550.21	3339.92
550.57	3340.89
550.92	3340.49
551.28	3339.75
551.64	3338.36
551.99	3336.76
552.35	3335.26
552.70	3334.90
553.06	3335.70
553.41	3336.05
553.77	3335.63
554.13	3335.40
554.48	3336.73
554.84	3336.49
555.19	3335.77
555.55	3336.47
555.90	3336.10
556.26	3335.95
556.61	3334.83
556.97	3332.73
557.32	3329.97
557.68	3328.20
558.03	3325.30
558.39	3323.11
558.74	3322.77
559.10	3323.27
559.45	3323.21
559.81	3322.80
560.16	3320.85
560.52	3319.16
560.87	3317.17
561.23	3313.95
561.58	3311.53
561.94	3307.16
562.29	3303.18
562.64	3300.37
563.00	3296.39
563.35	3293.16
563.71	3290.26
564.06	3287.79
564.42	3285.48
564.77	3283.45
565.12	3280.81
565.48	3278.45
565.83	3276.15
566.19	3274.14
566.54	3270.99
566.89	3266.44
567.25	3262.32
567.60	3259.61
567.96	3254.90
568.31	3250.51
568.66	3247.35
569.02	3243.61
569.37	3239.66
569.72	3236.09
570.08	3231.98
570.43	3227.40
570.78	3224.06
571.14	3220.39
571.49	3216.24
571.84	3213.29
572.20	3209.02
572.55	3205.61
572.90	3200.33
573.26	3195.09
573.61	3187.98
573.96	3180.50
574.31	3174.48
574.67	3168.61
575.02	3161.22
575.37	3154.37
575.72	3147.80
576.08	3141.16
576.43	3133.84
576.78	3126.86
577.13	3120.00
577.49	3113.05
577.84	3106.52
578.19	3098.44
578.54	3090.93
578.90	3083.39
579.25	3073.75
579.60	3064.72
579.95	3055.45
580.30	3048.15
580.66	3040.34
581.01	3032.71
581.36	3023.90
581.71	3015.09
582.06	3006.79
582.42	2999.49
582.77	2991.35
583.12	2982.85
583.47	2973.89
583.82	2965.51
584.17	2956.74
584.53	2947.88
584.88	2938.30
585.23	2929.21
585.58	2920.84
585.93	2911.48
586.28	2902.84
586.63	2895.07
586.98	2887.40
587.34	2879.09
587.69	2869.53
588.04	2860.33
588.39	2851.43
588.74	2841.94
589.09	2833.23
589.44	2822.43
589.79	2812.57
590.14	2803.43
590.49	2792.77
590.84	2784.19
591.19	2775.37
591.54	2765.96
591.89	2755.46
592.25	2746.19
592.60	2735.19
592.95	2723.35
593.30	2711.99
593.65	2700.71
594.00	2689.86
594.35	2679.71
594.70	2668.75
595.05	2658.52
595.40	2647.68
595.75	2635.73
596.10	2625.96
596.45	2614.98
596.80	2605.65
597.15	2595.05
597.50	2584.74
597.85	2575.10
598.19	2562.95
598.54	2551.89
598.89	2541.49
599.24	2532.08
599.59	2520.89
599.94	2510.98
600.29	2500.62
600.64	2490.42
600.99	2478.48
601.34	2467.94
601.69	2455.72
602.04	2444.85
602.39	2434.06
602.74	2424.63
603.08	2416.07
603.43	2407.34
603.78	2397.77
604.13	2386.91
604.48	2376.01
604.83	2366.04
605.18	2356.05
605.53	2346.55
605.87	2335.15
606.22	2324.97
606.57	2313.51
606.92	2301.94
607.27	2290.95
607.62	2281.59
607.96	2271.82
608.31	2263.20
608.66	2252.24
609.01	2241.91
609.36	2231.21
609.70	2219.76
610.05	2207.08
610.40	2194.44
610.75	2181.79
611.10	2169.84
611.44	2157.43
611.79	2146.17
612.14	2133.20
612.49	2120.43
612.83	2108.79
613.18	2096.95
613.53	2084.53
613.88	2071.52
614.22	2060.08
614.57	2047.59
614.92	2034.62
615.27	2021.95
615.61	2008.14
615.96	1995.67
616.31	1983.64
616.65	1972.39
617.00	1961.41
617.35	1950.21
617.70	1938.48
618.04	1926.91
618.39	1915.51
618.74	1904.64
619.08	1892.21
619.43	1880.51
619.78	1869.73
620.12	1858.88
620.47	1848.31
620.82	1836.78
621.16	1826.65
621.51	1815.89
621.85	1805.51
622.20	1794.47
622.55	1782.72
622.89	1772.48
623.24	1761.83
623.59	1751.00
623.93	1740.14
624.28	1729.38
624.62	1718.65
624.97	1707.97
625.32	1697.31
625.66	1686.45
626.01	1675.98
626.35	1666.92
626.70	1657.48
627.04	1647.33
627.39	1636.29
627.73	1626.11
628.08	1616.64
628.43	1606.79
628.77	1597.58
629.12	1587.68
629.46	1578.49
629.81	1569.08
630.15	1558.65
630.50	1548.53
630.84	1538.08
631.19	1527.10
631.53	1516.67
631.88	1506.26
632.22	1496.72
632.57	1487.24
632.91	1477.59
633.26	1468.15
633.60	1457.89
633.95	1448.18
634.29	1438.81
634.64	1429.90
634.98	1420.27
635.32	1411.13
635.67	1402.28
636.01	1393.20
636.36	1384.31
636.70	1375.17
637.05	1366.34
637.39	1358.24
637.73	1350.08
638.08	1342.55
638.42	1335.00
638.77	1327.20
639.11	1319.35
639.45	1311.42
639.80	1302.58
640.14	1294.03
640.49	1285.19
640.83	1276.55
641.17	1268.51
641.52	1260.03
641.86	1251.26
642.20	1243.06
642.55	1233.79
642.89	1224.67
643.23	1215.46
643.58	1206.83
643.92	1197.80
644.26	1188.91
644.61	1180.22
644.95	1171.43
645.29	1162.53
645.64	1153.46
645.98	1144.87
646.32	1136.86
646.66	1128.08
647.01	1120.32
647.35	1112.25
647.69	1104.02
648.04	1096.01
648.38	1087.55
648.72	1079.47
649.06	1071.53
649.41	1063.22
649.75	1055.18
650.09	1047.66
650.43	1040.23
650.78	1032.58
651.12	1025.11
651.46	1018.03
651.80	1011.00
652.14	1003.89
652.49	996.68
652.83	989.34
653.17	981.36
653.51	973.42
653.85	966.30
654.20	959.04
654.54	951.92
654.88	945.03
655.22	937.90
655.56	930.56
655.90	923.03
656.25	915.82
656.59	909.11
656.93	902.56
657.27	895.66
657.61	888.75
657.95	882.18
658.29	875.65
658.64	869.25
658.98	862.67
659.32	855.88
659.66	849.48
660.00	843.16
660.34	837.41
660.68	831.28
661.02	824.88
661.36	818.76
661.70	812.79
662.05	806.98
662.39	801.34
662.73	795.75
663.07	790.44
663.41	785.16
663.75	779.72
664.09	774.24
664.43	768.42
664.77	762.85
665.11	757.26
665.45	752.00
665.79	746.70
666.13	741.28
666.47	736.20
666.81	731.03
667.15	725.74
667.49	720.59
667.83	715.76
668.17	711.07
668.51	706.13
668.85	701.20
669.19	696.02
669.53	690.96
669.87	686.21
670.21	681.63
670.55	676.58
670.89	671.72
671.23	667.06
671.57	662.52
671.91	657.99
672.25	653.55
672.58	648.99
672.92	644.29
673.26	640.07
673.60	635.84
673.94	631.87
674.28	628.21
674.62	624.20
674.96	619.94
675.30	615.93
675.64	612.02
675.97	608.35
676.31	605.00
676.65	601.47
676.99	597.95
677.33	594.18
677.67	590.58
678.01	586.78
678.34	583.14
678.68	579.65
679.02	576.05
679.36	572.30
679.70	568.65
680.04	565.09
680.37	561.40
680.71	557.83
681.05	554.18
681.39	550.65
681.73	547.15
682.06	544.01
682.40	540.50
682.74	537.02
683.08	533.43
683.42	529.82
683.75	526.45
684.09	523.02
684.43	519.60
684.77	516.40
685.10	513.26
685.44	509.83
685.78	506.56
686.12	503.43
686.45	500.40
686.79	497.57
687.13	494.87
687.46	492.00
687.80	489.15
688.14	486.19
688.48	483.24
688.81	480.30
689.15	477.51
689.49	474.70
689.82	471.91
690.16	468.91
690.50	466.07
690.83	463.23
691.17	460.30
691.51	457.52
691.84	454.76
692.18	452.21
692.52	449.76
692.85	447.26
693.19	444.61
693.52	442.05
693.86	439.30
694.20	436.54
694.53	433.88
694.87	431.13
695.21	428.44
695.54	425.79
695.88	423.19
696.21	420.50
696.55	418.10
696.88	415.76
697.22	413.56
697.56	411.46
697.89	409.16
698.23	407.03
698.56	404.77
698.90	402.67
699.23	400.32
699.57	398.10
699.90	395.94
700.24	393.87
700.58	391.75
700.91	389.72
701.25	387.83
701.58	386.00
701.92	384.23
702.25	382.50
702.59	380.80
702.92	379.03
703.26	377.25
703.59	375.64
703.93	374.04
704.26	372.37
704.60	370.53
704.93	368.79
705.26	366.97
705.60	365.38
705.93	363.78
706.27	362.36
706.60	360.90
706.94	359.23
707.27	357.50
707.61	355.88
707.94	354.27
708.27	352.48
708.61	350.93
708.94	349.26
709.28	347.66
709.61	346.14
709.94	344.59
710.28	342.95
710.61	341.16
710.95	339.43
711.28	337.79
711.61	336.16
711.95	334.75
712.28	333.38
712.61	332.03
712.95	330.62
713.28	329.15
713.61	327.61
713.95	326.36
714.28	325.10
714.61	323.87
714.95	322.73
715.28	321.45
715.61	319.99
715.95	318.76
716.28	317.56
716.61	316.23
716.95	315.03
717.28	313.98
717.61	312.80
717.94	311.73
718.28	310.52
718.61	309.44
718.94	308.28
719.27	307.20
719.61	306.05
719.94	304.92
720.27	303.83
720.60	302.86
720.94	301.81
721.27	300.95
721.60	300.15
721.93	299.24
722.27	298.45
722.60	297.64
722.93	296.74
723.26	295.87
723.59	295.05
723.93	294.14
724.26	293.21
724.59	292.40
724.92	291.49
725.25	290.84
725.59	290.17
725.92	289.43
726.25	288.63
726.58	287.81
726.91	286.99
727.24	286.18
727.57	285.31
727.91	284.44
728.24	283.54
728.57	282.53
728.90	281.65
729.23	280.83
729.56	280.20
729.89	279.36
730.22	278.59
730.55	277.80
730.89	277.16
731.22	276.50
731.55	275.79
731.88	275.13
732.21	274.32
732.54	273.55
732.87	272.83
733.20	272.26
733.53	271.74
733.86	271.13
734.19	270.60
734.52	270.20
734.85	269.77
735.18	269.17
735.51	268.63
735.84	268.08
736.17	267.54
736.50	266.81
736.83	266.46
737.16	265.85
737.49	265.38
737.82	264.76
738.15	264.15
738.48	263.59
738.81	262.98
739.14	262.49
739.47	261.93
739.80	261.42
740.13	260.93
740.46	260.35
740.79	259.82
741.12	259.21
741.45	258.62
741.78	257.95
742.11	257.42
742.44	256.91
742.77	256.41
743.10	255.85
743.43	255.27
743.75	254.55
744.08	254.29
744.41	253.70
744.74	253.18
745.07	252.72
745.40	252.26
745.73	251.86
746.06	251.35
746.39	250.93
746.71	250.41
747.04	249.81
747.37	249.35
747.70	249.00
748.03	248.55
748.36	248.05
748.68	247.72
749.01	247.28
749.34	246.88
749.67	246.37
750.00	246.05
750.33	245.81
750.65	245.51
750.98	244.97
751.31	244.60
751.64	244.23
751.97	243.93
752.29	243.60
752.62	243.22
752.95	242.91
753.28	242.45
753.60	242.05
753.93	241.83
754.26	241.43
754.59	240.98
754.91	240.64
755.24	240.37
755.57	239.94
755.90	239.65
756.22	239.35
756.55	239.09
756.88	238.70
757.20	238.31
757.53	237.90
757.86	237.57
758.19	237.36
758.51	237.04
758.84	236.70
759.17	236.36
759.49	236.05
759.82	235.76
760.15	235.60
760.47	235.36
760.80	234.97
761.13	234.76
761.45	234.45
761.78	234.23
762.11	233.92
762.43	233.71
762.76	233.43
763.08	233.23
763.41	232.96
763.74	232.70
764.06	232.40
764.39	232.21
764.71	232.00
765.04	231.74
765.37	231.55
765.69	231.35
766.02	231.18
766.34	231.02
766.67	230.87
767.00	230.60
767.32	230.56
767.65	230.48
767.97	230.33
768.30	230.14
768.62	229.93
768.95	229.78
769.27	229.60
769.60	229.43
769.92	229.10
770.25	228.94
770.57	228.73
770.90	228.62
771.22	228.46
771.55	228.19
771.87	227.97
772.20	227.74
772.52	227.65
772.85	227.58
773.17	227.40
773.50	227.11
773.82	226.98
774.15	226.75
774.47	226.51
774.80	226.28
775.12	226.15
775.45	225.95
775.77	225.77
776.09	225.66
776.42	225.54
776.74	225.51
777.07	225.26
777.39	225.13
777.72	224.91
778.04	224.73
778.36	224.67
778.69	224.58
779.01	224.53
779.33	224.26
779.66	223.97
779.98	223.83
780.31	223.77
780.63	223.70
780.95	223.57
781.28	223.46
781.60	223.37
781.92	223.26
782.25	223.26
782.57	223.09
782.89	222.98
783.22	222.79
783.54	222.70
783.86	222.70
784.19	222.60
784.51	222.62
784.83	222.50
785.16	222.38
785.48	222.24
785.80	222.15
786.12	222.00
786.45	221.89
786.77	221.79
787.09	221.68
787.42	221.58
787.74	221.51
788.06	221.38
788.38	221.25
788.71	221.15
789.03	221.02
789.35	221.03
789.67	220.90
789.99	220.89
790.32	220.83
790.64	220.73
790.96	220.79
791.28	220.63
791.61	220.57
791.93	220.53
792.25	220.39
792.57	220.39
792.89	220.40
793.21	220.40
793.54	220.26
793.86	220.09
794.18	219.95
794.50	219.81
794.82	219.78
795.14	219.68
795.47	219.65
795.79	219.55
796.11	219.39
796.43	219.21
796.75	219.13
797.07	218.94
797.39	218.92
797.71	218.70
798.04	218.56
798.36	218.58
798.68	218.48
799.00	218.45
799.32	218.34
799.64	218.23
799.96	218.11
800.28	218.04
800.60	218.08
800.92	218.02
801.24	217.94
801.56	217.84
801.89	217.75
802.21	217.63
802.53	217.54
802.85	217.50
803.17	217.60
803.49	217.46
803.81	217.39
804.13	217.26
804.45	217.16
804.77	217.16
805.09	217.00
805.41	216.82
805.73	216.79
806.05	216.62
806.37	216.47
806.69	216.43
807.01	216.47
807.33	216.29
807.65	216.17
807.97	216.18
808.28	216.10
808.60	216.10
808.92	216.02
809.24	216.11
809.56	216.04
809.88	215.92
810.20	215.95
810.52	215.92
810.84	215.83
811.16	215.77
811.48	215.81
811.80	215.81
812.12	215.75
812.43	215.67
812.75	215.66
813.07	215.66
813.39	215.64
813.71	215.51
814.03	215.50
814.35	215.47
814.67	215.36
814.98	215.30
815.30	215.28
815.62	215.21
815.94	215.01
816.26	214.96
816.58	214.91
816.89	214.85
817.21	214.82
817.53	214.83
817.85	214.76
818.17	214.65
818.48	214.55
818.80	214.66
819.12	214.63
819.44	214.55
819.76	214.50
820.07	214.40
820.39	214.38
820.71	214.40
821.03	214.32
821.34	214.24
821.66	214.29
821.98	214.20
822.30	214.17
822.61	214.23
822.93	214.21
823.25	214.14
823.57	214.13
823.88	214.10
824.20	214.04
824.52	214.06
824.83	214.00
825.15	213.93
825.47	213.86
825.79	213.84
826.10	213.86
826.42	213.87
826.74	213.91
827.05	213.89
827.37	213.80
827.69	213.76
828.00	213.74
828.32	213.64
828.64	213.65
828.95	213.65
829.27	213.62
829.58	213.55
829.90	213.57
830.22	213.57
830.53	213.52
830.85	213.55
831.17	213.46
831.48	213.40
831.80	213.35
832.11	213.29
832.43	213.23
832.75	213.19
833.06	213.23
833.38	213.18
833.69	213.15
834.01	213.15
834.32	213.17
834.64	213.14
834.96	213.19
835.27	213.16
835.59	213.14
835.90	213.06
836.22	213.07
836.53	213.00
836.85	212.89
837.16	213.04
837.48	212.96
837.79	213.00
838.11	213.06
838.42	213.10
838.74	213.12
839.05	213.06
839.37	212.95
839.68	212.81
840.00	212.77
840.31	212.73
840.63	212.73
840.94	212.78
841.26	212.83
841.57	212.76
841.88	212.73
842.20	212.68
842.51	212.68
842.83	212.61
843.14	212.75
843.46	212.74
843.77	212.59
844.08	212.67
844.40	212.62
844.71	212.60
845.03	212.64
845.34	212.64
845.65	212.67
845.97	212.74
846.28	212.80
846.60	212.80
846.91	212.82
847.22	212.81
847.54	212.78
847.85	212.74
848.16	212.80
848.48	212.72
848.79	212.78
849.10	212.75
849.42	212.85
849.73	212.74
850.04	212.71
850.36	212.63
850.67	212.57
850.98	212.50
851.30	212.42
851.61	212.35
851.92	212.33
852.23	212.43
852.55	212.43
852.86	212.39
853.17	212.33
853.49	212.37
853.80	212.36
854.11	212.31
854.42	212.33
854.74	212.22
855.05	212.27
855.36	212.20
855.67	212.22
855.99	212.17
856.30	212.39
856.61	212.43
856.92	212.51
857.23	212.43
857.55	212.42
857.86	212.48
858.17	212.52
858.48	212.51
858.79	212.41
859.11	212.45
859.42	212.47
859.73	212.50
860.04	212.49
860.35	212.41
860.66	212.36
860.98	212.36
861.29	212.45
861.60	212.44
861.91	212.48
862.22	212.44
862.53	212.42
862.84	212.16
863.16	212.18
863.47	212.07
863.78	212.14
864.09	212.20
864.40	212.18
864.71	212.18
865.02	212.19
865.33	212.21
865.64	212.16
865.95	212.24
866.27	212.35
866.58	212.30
866.89	212.47
867.20	212.58
867.51	212.51
867.82	212.38
868.13	212.49
868.44	212.44
868.75	212.48
869.06	212.40
869.37	212.37
869.68	212.29
869.99	212.39
870.30	212.37
870.61	212.44
870.92	212.40
871.23	212.35
871.54	212.36
871.85	212.35
872.16	212.35
872.47	212.30
872.78	212.20
873.09	212.17
873.40	212.00
873.71	211.97
874.02	211.98
874.33	212.00
874.64	211.88
874.95	211.92
875.26	211.93
875.56	212.00
875.87	212.06
876.18	212.07
876.49	212.20
876.80	212.18
877.11	212.07
877.42	212.09
877.73	212.07
878.04	212.00
878.35	212.05
878.66	212.07
878.96	212.01
879.27	212.02
879.58	212.06
879.89	212.06
880.20	212.01
880.51	212.04
880.82	212.04
881.12	212.02
881.43	212.03
881.74	211.97
882.05	211.98
882.36	211.91
882.67	211.97
882.97	211.79
883.28	211.85
883.59	211.91
883.90	211.94
884.21	212.05
884.51	212.08
884.82	212.05
885.13	212.00
885.44	211.95
885.74	211.94
886.05	211.89
886.36	211.93
886.67	211.94
886.98	211.96
887.28	211.92
887.59	211.96
887.90	211.90
888.20	211.88
888.51	211.86
888.82	211.83
889.13	211.75
889.43	211.87
889.74	211.77
890.05	211.79
890.35	211.81
890.66	211.75
890.97	211.79
891.28	211.73
891.58	211.75
891.89	211.80
892.20	211.72
892.50	211.76
892.81	211.74
893.12	211.73
893.42	211.68
893.73	211.81
894.04	211.81
894.34	211.83
894.65	211.86
894.95	211.87
895.26	211.92
895.57	212.01
895.87	211.84
896.18	211.83
896.48	211.76
896.79	211.70
897.10	211.74
897.40	211.74
897.71	211.75
898.01	211.69
898.32	211.76
898.63	211.72
898.93	211.67
899.24	211.65
899.54	211.64
899.85	211.60
900.15	211.57
900.46	211.53
900.76	211.58
901.07	211.55
901.38	211.54
901.68	211.53
901.99	211.39
902.29	211.41
902.60	211.50
902.90	211.49
903.21	211.45
903.51	211.34
903.82	211.35
904.12	211.33
904.43	211.36
904.73	211.24
905.03	211.31
905.34	211.43
905.64	211.46
905.95	211.41
906.25	211.38
906.56	211.33
906.86	211.34
907.17	211.28
907.47	211.30
907.77	211.34
908.08	211.31
908.38	211.36
908.69	211.34
908.99	211.30
909.30	211.34
909.60	211.38
909.90	211.48
910.21	211.31
910.51	211.33
910.81	211.33
911.12	211.31
911.42	211.34
911.73	211.20
912.03	211.16
912.33	211.21
912.64	211.27
912.94	211.23
913.24	211.18
913.55	211.17
913.85	211.11
914.15	211.11
914.46	211.14
914.76	211.20
915.06	211.23
915.37	211.20
915.67	211.22
915.97	211.22
916.27	211.15
916.58	211.17
916.88	211.13
917.18	211.11
917.49	211.33
917.79	211.36
918.09	211.36
918.39	211.49
918.70	211.46
919.00	211.43
919.30	211.46
919.60	211.48
919.91	211.50
920.21	211.59
920.51	211.53
920.81	211.50
921.12	211.50
921.42	211.45
921.72	211.50
922.02	211.50
922.32	211.47
922.63	211.48
922.93	211.52
923.23	211.55
923.53	211.58
923.83	211.39
924.13	211.32
924.44	211.36
924.74	211.28
925.04	211.36
925.34	211.38
925.64	211.36
925.94	211.38
926.24	211.48
926.55	211.35
926.85	211.35
927.15	211.36
927.45	211.38
927.75	211.40
928.05	211.39
928.35	211.40
928.65	211.48
928.95	211.42
929.26	211.47
929.56	211.47
929.86	211.45
930.16	211.49
930.46	211.49
930.76	211.55
931.06	211.54
931.36	211.50
931.66	211.55
931.96	211.53
932.26	211.49
932.56	211.42
932.86	211.45
933.16	211.43
933.46	211.40
933.76	211.32
934.06	211.36
934.36	211.41
934.66	211.39
934.96	211.40
935.26	211.47
935.56	211.49
935.86	211.45
936.16	211.40
936.46	211.35
936.76	211.38
937.06	211.25
937.36	211.23
937.66	211.30
937.96	211.32
938.26	211.32
938.56	211.32
938.86	211.27
939.16	211.28
939.46	211.37
939.76	211.36
940.06	211.40
940.35	211.35
940.65	211.21
940.95	211.18
941.25	211.11
941.55	211.06
941.85	210.97
942.15	211.01
942.45	211.11
942.75	211.09
943.04	211.13
943.34	211.18
943.64	211.18
943.94	211.10
944.24	211.10
944.54	211.10
944.84	211.10
945.13	211.13
945.43	211.16
945.73	211.10
946.03	211.13
946.33	211.11
946.62	211.09
946.92	211.10
947.22	211.10
947.52	211.11
947.82	211.12
948.11	211.18
948.41	211.20
948.71	211.06
949.01	211.04
949.31	210.98
949.60	210.97
949.90	211.00
950.20	210.94
950.50	210.87
950.79	210.89
951.09	210.97
951.39	210.92
951.69	210.83
951.98	210.90
952.28	210.92
952.58	210.88
952.87	210.90
953.17	210.96
953.47	210.93
953.76	210.89
954.06	210.87
954.36	210.79
954.66	210.73
954.95	210.85
955.25	211.00
955.55	211.05
955.84	211.03
956.14	210.96
956.44	211.00
956.73	211.01
957.03	211.03
957.32	210.92
957.62	210.99
957.92	211.10
958.21	211.05
958.51	211.20
958.81	211.31
959.10	211.33
959.40	211.30
959.69	211.31
959.99	211.36
960.29	211.34
960.58	211.33
960.88	211.43
961.17	211.38
961.47	211.32
961.76	211.25
962.06	211.33
962.36	211.40
962.65	211.42
962.95	211.39
963.24	211.30
963.54	211.39
963.83	211.31
964.13	211.25
964.42	211.22
964.72	211.08
965.01	211.01
965.31	210.95
965.60	210.93
965.90	211.04
966.19	210.99
966.49	211.11
966.78	211.12
967.08	211.10
967.37	211.10
967.67	211.09
967.96	211.11
968.26	211.06
968.55	211.06
968.85	211.09
969.14	211.10
969.43	211.08
969.73	211.02
970.02	211.03
970.32	211.01
970.61	211.00
970.91	210.91
971.20	210.94
971.49	210.96
971.79	211.04
972.08	210.90
972.38	210.90
972.67	210.82
972.96	210.82
973.26	210.80
973.55	210.84
973.85	210.82
974.14	210.84
974.43	210.90
974.73	210.85
975.02	210.80
975.31	210.83
975.61	210.91
975.90	210.93
976.19	210.98
976.49	211.02
976.78	211.05
977.07	211.10
977.37	211.13
977.66	211.13
977.95	211.03
978.24	211.16
978.54	211.15
978.83	211.14
979.12	211.23
979.42	211.25
979.71	211.22
980.00	211.29
980.29	211.26
980.59	211.18
980.88	211.24
981.17	211.24
981.46	211.17
981.76	211.15
982.05	211.16
982.34	211.16
982.63	211.16
982.93	211.12
983.22	211.15
983.51	211.13
983.80	211.16
984.09	211.25
984.39	211.21
984.68	211.25
984.97	211.28
985.26	211.22
985.55	211.16
985.85	211.14
986.14	211.08
986.43	211.10
986.72	211.11
987.01	211.06
987.30	211.02
987.59	211.02
987.89	211.02
988.18	211.02
988.47	211.01
988.76	211.03
989.05	210.95
989.34	210.93
989.63	210.95
989.92	210.94
990.22	210.81
990.51	210.73
990.80	210.70
991.09	210.65
991.38	210.65
991.67	210.65
991.96	210.65
992.25	210.65
992.54	210.57
992.83	210.52
993.12	210.49
993.41	210.55
993.70	210.61
993.99	210.59
994.28	210.57
994.58	210.57
994.87	210.43
995.16	210.44
995.45	210.41
995.74	210.32
996.03	210.43
996.32	210.49
996.61	210.56
996.90	210.56
997.19	210.56
997.48	210.60
997.77	210.58
998.06	210.53
998.34	210.45
998.63	210.53
998.92	210.57
999.21	210.53
999.50	210.49
999.79	210.46
1000.08	210.51
1000.37	210.51
1000.66	210.48
1000.95	210.62
1001.24	210.70
1001.53	210.68
1001.82	210.66
1002.11	210.59
1002.40	210.61
1002.68	210.63
1002.97	210.82
1003.26	210.83
1003.55	210.82
1003.84	210.87
1004.13	210.94
1004.42	210.96
1004.71	210.97
1004.99	210.99
1005.28	211.08
1005.57	211.14
1005.86	211.08
1006.15	210.98
1006.44	210.91
1006.72	210.97
1007.01	210.94
1007.30	210.94
1007.59	210.95
1007.88	210.99
1008.17	210.92
1008.45	210.82
1008.74	210.77
1009.03	210.57
1009.32	210.56
1009.60	210.49
1009.89	210.45
1010.18	210.41
1010.47	210.41
1010.76	210.38
1011.04	210.39
1011.33	210.43
1011.62	210.44
1011.91	210.46
1012.19	210.57
1012.48	210.62
1012.77	210.62
1013.05	210.71
1013.34	210.77
1013.63	210.75
1013.92	210.77
1014.20	210.78
1014.49	210.86
1014.78	210.90
1015.06	210.89
1015.35	210.93
1015.64	210.98
1015.92	211.05
1016.21	211.01
1016.50	211.03
1016.78	211.06
1017.07	211.04
1017.36	211.00
1017.64	211.00
1017.93	211.04
1018.22	210.98
1018.50	211.00
1018.79	210.97
1019.08	210.90
1019.36	210.89
1019.65	210.97
1019.93	211.03
1020.22	211.10
1020.51	211.22
1020.79	211.24
1021.08	210.15
1021.36	210.95
1021.65	210.75
1021.94	211.65
1022.22	212.00
1022.51	212.00
1022.79	211.90
1023.08	211.80
1023.36	213.60
1023.65	211.70
>>>>>End Processed Spectral Data<<<<<
