SpectraSuite Data File
++++++++++++++++++++++++++++++++++++
Date: Mon Feb 25 17:34:43 EST 2013
User: group
Dark Spectrum Present: No
Reference Spectrum Present: No
Number of Sampled Component Spectra: 1
Spectrometers: USB2E7196
Integration Time (usec): 52000 (USB2E7196)
Spectra Averaged: 20 (USB2E7196)
Boxcar Smoothing: 10 (USB2E7196)
Correct for Electrical Dark: No (USB2E7196)
Strobe/Lamp Enabled: No (USB2E7196)
Correct for Detector Non-linearity: No (USB2E7196)
Correct for Stray Light: No (USB2E7196)
Number of Pixels in Processed Spectrum: 2048
>>>>>Begin Processed Spectral Data<<<<<
339.09	0.00
339.48	198.00
339.86	200.15
340.24	200.70
340.63	202.15
341.01	206.60
341.39	206.60
341.78	207.35
342.16	208.00
342.54	208.90
342.93	197.86
343.31	207.90
343.69	208.49
344.07	209.02
344.46	209.56
344.84	210.01
345.22	210.29
345.60	210.54
345.99	210.80
346.37	211.07
346.75	211.21
347.13	211.35
347.52	211.44
347.90	211.61
348.28	211.63
348.66	211.72
349.05	211.79
349.43	211.87
349.81	211.90
350.19	212.01
350.57	212.13
350.96	212.25
351.34	212.35
351.72	212.41
352.10	212.45
352.48	212.52
352.87	212.58
353.25	212.62
353.63	212.72
354.01	212.74
354.39	212.78
354.77	212.81
355.15	212.85
355.54	212.87
355.92	212.91
356.30	213.04
356.68	213.17
357.06	213.19
357.44	213.25
357.82	213.30
358.20	213.41
358.58	213.48
358.97	213.54
359.35	213.65
359.73	213.80
360.11	213.86
360.49	213.86
360.87	213.90
361.25	213.91
361.63	213.96
362.01	214.05
362.39	214.02
362.77	214.13
363.15	214.16
363.53	214.23
363.91	214.16
364.29	214.21
364.67	214.09
365.05	214.05
365.43	214.04
365.81	214.09
366.19	214.14
366.57	214.15
366.95	214.06
367.33	213.95
367.71	213.83
368.09	213.90
368.47	213.89
368.85	213.92
369.23	213.92
369.61	213.85
369.99	213.84
370.37	213.80
370.75	213.79
371.13	213.73
371.51	213.60
371.89	213.65
372.27	213.59
372.65	213.55
373.03	213.62
373.41	213.55
373.78	213.50
374.16	213.35
374.54	213.34
374.92	213.29
375.30	213.23
375.68	213.22
376.06	213.17
376.44	213.14
376.82	213.00
377.19	212.91
377.57	212.90
377.95	212.79
378.33	212.71
378.71	212.55
379.09	212.60
379.47	212.60
379.84	212.51
380.22	212.48
380.60	212.40
380.98	212.30
381.36	212.27
381.73	212.23
382.11	212.21
382.49	212.15
382.87	212.13
383.25	212.17
383.62	212.28
384.00	212.11
384.38	212.07
384.76	212.07
385.13	212.16
385.51	212.05
385.89	211.95
386.27	212.07
386.64	212.10
387.02	211.96
387.40	211.99
387.78	212.04
388.15	211.98
388.53	211.96
388.91	211.95
389.29	211.95
389.66	211.91
390.04	211.88
390.42	211.95
390.79	212.01
391.17	211.94
391.55	211.80
391.92	211.95
392.30	211.91
392.68	211.93
393.05	211.89
393.43	211.95
393.81	211.98
394.18	211.82
394.56	211.80
394.94	211.90
395.31	211.86
395.69	211.90
396.06	211.95
396.44	211.90
396.82	211.95
397.19	212.06
397.57	212.09
397.95	212.12
398.32	212.05
398.70	211.96
399.07	212.08
399.45	212.05
399.82	212.00
400.20	212.06
400.58	212.12
400.95	212.11
401.33	212.05
401.70	212.25
402.08	212.35
402.45	212.44
402.83	212.51
403.20	212.58
403.58	212.61
403.95	212.68
404.33	212.85
404.71	212.89
405.08	213.11
405.46	213.20
405.83	213.35
406.21	213.48
406.58	213.66
406.96	213.76
407.33	214.01
407.70	214.20
408.08	214.50
408.45	214.73
408.83	214.99
409.20	215.36
409.58	215.44
409.95	215.70
410.33	215.98
410.70	216.27
411.08	216.64
411.45	216.99
411.82	217.36
412.20	217.80
412.57	218.42
412.95	218.63
413.32	219.21
413.69	219.70
414.07	220.29
414.44	220.90
414.82	221.56
415.19	222.25
415.56	223.04
415.94	223.80
416.31	224.68
416.68	225.61
417.06	226.59
417.43	227.68
417.81	228.81
418.18	229.89
418.55	231.08
418.93	232.36
419.30	233.64
419.67	235.00
420.04	236.39
420.42	237.79
420.79	239.58
421.16	241.28
421.54	243.21
421.91	245.05
422.28	247.01
422.66	249.06
423.03	251.09
423.40	253.16
423.77	255.36
424.15	257.57
424.52	259.88
424.89	262.41
425.26	264.84
425.64	267.24
426.01	269.86
426.38	272.52
426.75	275.28
427.13	278.17
427.50	281.16
427.87	284.32
428.24	287.44
428.61	290.42
428.99	293.73
429.36	297.27
429.73	300.70
430.10	304.23
430.47	307.79
430.85	311.49
431.22	315.39
431.59	319.60
431.96	323.54
432.33	327.97
432.70	332.20
433.08	337.16
433.45	341.71
433.82	346.30
434.19	351.52
434.56	356.55
434.93	361.38
435.30	366.20
435.68	371.51
436.05	376.74
436.42	381.97
436.79	386.75
437.16	391.67
437.53	397.10
437.90	402.41
438.27	407.64
438.64	413.08
439.01	418.15
439.38	422.47
439.75	426.79
440.13	431.62
440.50	436.05
440.87	439.70
441.24	443.64
441.61	447.89
441.98	451.00
442.35	454.57
442.72	458.27
443.09	461.78
443.46	463.85
443.83	465.25
444.20	466.44
444.57	468.22
444.94	469.00
445.31	469.75
445.68	470.58
446.05	470.80
446.42	470.11
446.79	469.25
447.16	468.50
447.53	467.87
447.90	465.81
448.27	463.89
448.64	461.10
449.01	458.98
449.37	455.48
449.74	451.96
450.11	447.85
450.48	443.30
450.85	438.75
451.22	434.75
451.59	430.98
451.96	427.40
452.33	422.59
452.70	418.35
453.07	413.32
453.43	407.89
453.80	402.86
454.17	398.05
454.54	393.58
454.91	388.71
455.28	383.90
455.65	379.42
456.02	375.06
456.38	371.25
456.75	366.54
457.12	362.58
457.49	358.59
457.86	354.74
458.23	351.48
458.59	347.90
458.96	344.35
459.33	341.14
459.70	337.85
460.07	335.22
460.43	332.21
460.80	329.35
461.17	327.04
461.54	324.52
461.91	322.15
462.27	319.70
462.64	317.60
463.01	315.41
463.38	313.20
463.74	310.88
464.11	309.00
464.48	307.39
464.85	305.62
465.21	304.43
465.58	303.09
465.95	301.37
466.32	300.01
466.68	298.57
467.05	297.14
467.42	295.81
467.78	294.33
468.15	293.09
468.52	292.13
468.88	290.82
469.25	289.65
469.62	288.81
469.98	287.75
470.35	286.82
470.72	285.92
471.08	285.01
471.45	284.22
471.82	283.46
472.18	282.56
472.55	282.01
472.92	281.21
473.28	280.47
473.65	279.96
474.02	279.35
474.38	278.98
474.75	278.61
475.11	278.20
475.48	277.96
475.85	277.76
476.21	277.58
476.58	277.40
476.94	277.41
477.31	277.19
477.67	277.16
478.04	277.31
478.41	277.54
478.77	277.86
479.14	277.96
479.50	278.23
479.87	278.60
480.23	278.95
480.60	279.31
480.96	279.76
481.33	280.32
481.69	280.95
482.06	281.55
482.42	282.17
482.79	282.91
483.15	283.90
483.52	284.77
483.88	285.79
484.25	286.82
484.61	287.88
484.98	289.14
485.34	290.48
485.71	291.67
486.07	292.96
486.44	294.24
486.80	295.86
487.17	297.36
487.53	299.18
487.90	300.90
488.26	302.87
488.62	304.92
488.99	306.95
489.35	309.10
489.72	311.35
490.08	313.79
490.44	316.24
490.81	318.79
491.17	321.49
491.54	324.32
491.90	327.25
492.26	330.39
492.63	333.64
492.99	337.02
493.36	340.76
493.72	344.70
494.08	348.67
494.45	352.96
494.81	357.50
495.17	362.07
495.54	366.96
495.90	371.96
496.26	377.31
496.63	382.85
496.99	388.56
497.35	394.64
497.72	400.98
498.08	407.48
498.44	414.15
498.80	421.27
499.17	428.68
499.53	436.39
499.89	444.50
500.26	452.60
500.62	461.00
500.98	469.75
501.34	478.67
501.71	488.14
502.07	497.80
502.43	507.76
502.79	518.00
503.16	528.76
503.52	539.72
503.88	550.87
504.24	562.45
504.60	574.39
504.97	586.70
505.33	599.13
505.69	612.50
506.05	625.99
506.41	639.57
506.78	653.41
507.14	667.59
507.50	682.10
507.86	697.05
508.22	712.39
508.59	727.90
508.95	744.02
509.31	760.41
509.67	777.03
510.03	794.04
510.39	811.64
510.75	829.54
511.12	847.66
511.48	866.11
511.84	884.88
512.20	903.67
512.56	923.03
512.92	942.61
513.28	962.21
513.64	982.06
514.00	1002.01
514.37	1022.39
514.73	1043.16
515.09	1063.81
515.45	1084.71
515.81	1106.18
516.17	1127.63
516.53	1149.01
516.89	1170.43
517.25	1192.18
517.61	1213.88
517.97	1235.28
518.33	1256.88
518.69	1278.76
519.05	1300.95
519.41	1323.05
519.77	1345.82
520.13	1367.98
520.49	1390.26
520.85	1412.79
521.21	1435.63
521.57	1458.73
521.93	1481.00
522.29	1504.15
522.65	1527.18
523.01	1549.99
523.37	1572.14
523.73	1594.62
524.09	1617.10
524.45	1639.80
524.81	1662.40
525.17	1685.04
525.53	1707.85
525.89	1730.43
526.25	1752.41
526.61	1773.78
526.97	1795.59
527.33	1817.00
527.68	1838.78
528.04	1860.35
528.40	1880.99
528.76	1901.52
529.12	1922.29
529.48	1944.12
529.84	1964.53
530.20	1984.70
530.56	2005.37
530.91	2026.42
531.27	2046.98
531.63	2067.42
531.99	2087.34
532.35	2106.45
532.71	2125.42
533.07	2144.99
533.42	2163.53
533.78	2183.08
534.14	2201.97
534.50	2219.40
534.86	2237.28
535.21	2254.11
535.57	2271.91
535.93	2289.79
536.29	2307.25
536.65	2324.31
537.00	2339.83
537.36	2355.15
537.72	2370.74
538.08	2386.04
538.44	2401.47
538.79	2416.78
539.15	2431.53
539.51	2446.23
539.87	2461.95
540.22	2476.87
540.58	2492.10
540.94	2506.76
541.29	2519.92
541.65	2532.07
542.01	2545.55
542.37	2558.05
542.72	2570.42
543.08	2581.37
543.44	2593.06
543.79	2603.12
544.15	2613.47
544.51	2624.44
544.87	2635.72
545.22	2645.28
545.58	2653.90
545.94	2661.26
546.29	2668.09
546.65	2674.52
547.01	2680.93
547.36	2686.52
547.72	2692.19
548.07	2695.88
548.43	2699.70
548.79	2703.24
549.14	2708.19
549.50	2712.48
549.86	2716.52
550.21	2720.96
550.57	2725.27
550.92	2727.84
551.28	2730.55
551.64	2733.22
551.99	2735.94
552.35	2737.80
552.70	2740.59
553.06	2743.67
553.41	2746.46
553.77	2749.86
554.13	2752.37
554.48	2754.73
554.84	2756.46
555.19	2757.16
555.55	2758.24
555.90	2759.31
556.26	2760.18
556.61	2760.18
556.97	2758.85
557.32	2758.45
557.68	2756.99
558.03	2755.60
558.39	2754.53
558.74	2754.66
559.10	2753.17
559.45	2751.47
559.81	2750.26
560.16	2747.55
560.52	2744.86
560.87	2742.18
561.23	2738.23
561.58	2735.99
561.94	2732.74
562.29	2729.01
562.64	2726.98
563.00	2724.19
563.35	2722.02
563.71	2720.13
564.06	2718.27
564.42	2716.81
564.77	2714.34
565.12	2712.33
565.48	2709.11
565.83	2705.87
566.19	2702.07
566.54	2698.16
566.89	2694.05
567.25	2690.42
567.60	2687.24
567.96	2683.66
568.31	2680.00
568.66	2676.02
569.02	2671.47
569.37	2666.27
569.72	2662.79
570.08	2657.30
570.43	2651.71
570.78	2645.68
571.14	2639.52
571.49	2632.59
571.84	2626.71
572.20	2619.75
572.55	2613.02
572.90	2606.55
573.26	2599.93
573.61	2593.18
573.96	2586.62
574.31	2579.03
574.67	2570.70
575.02	2562.07
575.37	2553.53
575.72	2544.55
576.08	2536.94
576.43	2527.79
576.78	2520.04
577.13	2511.51
577.49	2503.51
577.84	2496.08
578.19	2488.24
578.54	2480.75
578.90	2474.06
579.25	2465.12
579.60	2455.92
579.95	2446.74
580.30	2438.91
580.66	2430.35
581.01	2421.20
581.36	2412.07
581.71	2403.64
582.06	2395.04
582.42	2386.84
582.77	2377.75
583.12	2368.80
583.47	2360.09
583.82	2351.65
584.17	2342.53
584.53	2333.33
584.88	2324.00
585.23	2314.45
585.58	2304.77
585.93	2294.93
586.28	2285.63
586.63	2276.95
586.98	2268.83
587.34	2260.30
587.69	2250.71
588.04	2241.68
588.39	2233.07
588.74	2223.80
589.09	2214.78
589.44	2205.45
589.79	2197.03
590.14	2189.00
590.49	2180.72
590.84	2171.61
591.19	2163.67
591.54	2154.70
591.89	2144.63
592.25	2135.58
592.60	2126.47
592.95	2117.05
593.30	2107.58
593.65	2097.39
594.00	2087.52
594.35	2079.11
594.70	2069.76
595.05	2060.79
595.40	2051.58
595.75	2041.84
596.10	2033.58
596.45	2025.12
596.80	2017.00
597.15	2008.44
597.50	1999.18
597.85	1990.90
598.19	1982.09
598.54	1973.52
598.89	1965.40
599.24	1958.79
599.59	1951.20
599.94	1943.69
600.29	1935.95
600.64	1927.91
600.99	1919.68
601.34	1912.04
601.69	1903.11
602.04	1894.71
602.39	1886.55
602.74	1878.64
603.08	1872.14
603.43	1864.73
603.78	1856.73
604.13	1848.60
604.48	1840.63
604.83	1833.81
605.18	1826.11
605.53	1818.64
605.87	1810.98
606.22	1803.69
606.57	1795.46
606.92	1787.16
607.27	1778.85
607.62	1771.49
607.96	1764.48
608.31	1758.17
608.66	1750.68
609.01	1743.17
609.36	1735.54
609.70	1727.56
610.05	1719.80
610.40	1711.27
610.75	1702.90
611.10	1694.90
611.44	1685.77
611.79	1676.37
612.14	1666.64
612.49	1656.95
612.83	1648.04
613.18	1638.01
613.53	1628.67
613.88	1618.84
614.22	1610.11
614.57	1600.91
614.92	1591.55
615.27	1581.79
615.61	1571.64
615.96	1562.45
616.31	1553.85
616.65	1545.88
617.00	1537.50
617.35	1528.73
617.70	1519.81
618.04	1510.50
618.39	1501.18
618.74	1492.67
619.08	1484.10
619.43	1476.06
619.78	1468.36
620.12	1460.37
620.47	1452.52
620.82	1443.75
621.16	1435.52
621.51	1426.88
621.85	1418.51
622.20	1409.92
622.55	1401.73
622.89	1393.40
623.24	1385.34
623.59	1376.33
623.93	1367.68
624.28	1359.27
624.62	1351.18
624.97	1343.10
625.32	1335.22
625.66	1327.77
626.01	1320.27
626.35	1313.21
626.70	1305.38
627.04	1297.89
627.39	1289.85
627.73	1282.25
628.08	1275.22
628.43	1267.71
628.77	1260.23
629.12	1252.68
629.46	1246.04
629.81	1238.71
630.15	1231.35
630.50	1223.80
630.84	1216.73
631.19	1209.62
631.53	1202.66
631.88	1195.09
632.22	1187.45
632.57	1180.48
632.91	1173.14
633.26	1165.82
633.60	1158.35
633.95	1151.44
634.29	1144.04
634.64	1137.44
634.98	1130.23
635.32	1123.33
635.67	1117.16
636.01	1110.61
636.36	1103.68
636.70	1096.79
637.05	1090.24
637.39	1083.83
637.73	1077.58
638.08	1071.69
638.42	1065.56
638.77	1059.11
639.11	1052.67
639.45	1046.69
639.80	1040.00
640.14	1033.39
640.49	1027.15
640.83	1020.89
641.17	1014.44
641.52	1008.38
641.86	1001.85
642.20	995.73
642.55	988.89
642.89	981.93
643.23	975.42
643.58	969.69
643.92	963.08
644.26	956.80
644.61	950.84
644.95	944.65
645.29	938.19
645.64	931.61
645.98	925.21
646.32	919.37
646.66	913.10
647.01	907.29
647.35	901.35
647.69	894.91
648.04	888.87
648.38	882.85
648.72	876.67
649.06	870.32
649.41	864.30
649.75	858.50
650.09	852.75
650.43	847.03
650.78	840.75
651.12	834.78
651.46	828.88
651.80	822.86
652.14	816.82
652.49	810.73
652.83	804.79
653.17	798.82
653.51	792.80
653.85	786.98
654.20	780.97
654.54	775.01
654.88	769.64
655.22	763.87
655.56	757.85
655.90	752.02
656.25	746.38
656.59	740.82
656.93	735.46
657.27	730.15
657.61	724.38
657.95	719.19
658.29	714.06
658.64	708.82
658.98	703.67
659.32	698.21
659.66	693.07
660.00	687.75
660.34	682.35
660.68	677.14
661.02	672.21
661.36	667.39
661.70	662.59
662.05	657.62
662.39	653.09
662.73	648.57
663.07	644.22
663.41	639.84
663.75	635.35
664.09	630.73
664.43	625.86
664.77	621.70
665.11	617.34
665.45	612.93
665.79	608.39
666.13	603.90
666.47	599.72
666.81	595.62
667.15	591.55
667.49	587.92
667.83	584.01
668.17	580.11
668.51	576.25
668.85	572.47
669.19	568.82
669.53	564.80
669.87	560.90
670.21	556.96
670.55	553.05
670.89	549.74
671.23	546.32
671.57	543.06
671.91	539.34
672.25	535.58
672.58	531.99
672.92	528.73
673.26	525.55
673.60	522.32
673.94	518.84
674.28	515.52
674.62	512.21
674.96	508.99
675.30	505.80
675.64	502.65
675.97	499.41
676.31	496.35
676.65	493.41
676.99	490.78
677.33	487.82
677.67	484.90
678.01	481.54
678.34	478.49
678.68	475.43
679.02	472.50
679.36	469.68
679.70	466.90
680.04	463.95
680.37	460.94
680.71	458.16
681.05	455.66
681.39	452.99
681.73	450.23
682.06	447.75
682.40	445.14
682.74	442.53
683.08	439.97
683.42	437.34
683.75	434.83
684.09	432.15
684.43	429.72
684.77	427.24
685.10	424.73
685.44	422.25
685.78	419.88
686.12	417.50
686.45	415.15
686.79	412.79
687.13	410.65
687.46	408.43
687.80	406.22
688.14	403.78
688.48	401.58
688.81	399.27
689.15	396.97
689.49	394.60
689.82	392.23
690.16	389.93
690.50	387.60
690.83	385.33
691.17	383.06
691.51	380.81
691.84	378.57
692.18	376.47
692.52	374.47
692.85	372.44
693.19	370.65
693.52	368.73
693.86	366.69
694.20	364.73
694.53	362.80
694.87	360.74
695.21	358.74
695.54	356.76
695.88	354.94
696.21	353.04
696.55	351.22
696.88	349.52
697.22	347.85
697.56	346.30
697.89	344.64
698.23	343.03
698.56	341.35
698.90	339.87
699.23	338.29
699.57	336.65
699.90	335.05
700.24	333.30
700.58	331.58
700.91	330.19
701.25	328.76
701.58	327.28
701.92	325.91
702.25	324.56
702.59	323.20
702.92	321.75
703.26	320.37
703.59	319.18
703.93	318.14
704.26	316.87
704.60	315.46
704.93	314.14
705.26	312.88
705.60	311.72
705.93	310.41
706.27	309.23
706.60	308.07
706.94	307.00
707.27	305.86
707.61	304.74
707.94	303.50
708.27	302.27
708.61	301.19
708.94	300.05
709.28	298.95
709.61	297.83
709.94	296.89
710.28	295.81
710.61	294.69
710.95	293.43
711.28	292.48
711.61	291.46
711.95	290.45
712.28	289.37
712.61	288.30
712.95	287.45
713.28	286.53
713.61	285.56
713.95	284.51
714.28	283.67
714.61	282.80
714.95	281.90
715.28	280.89
715.61	280.00
715.95	278.98
716.28	278.14
716.61	277.31
716.95	276.35
717.28	275.56
717.61	274.80
717.94	273.95
718.28	273.01
718.61	272.26
718.94	271.54
719.27	270.79
719.61	270.07
719.94	269.25
720.27	268.46
720.60	267.70
720.94	266.97
721.27	266.19
721.60	265.48
721.93	264.91
722.27	264.31
722.60	263.70
722.93	263.22
723.26	262.69
723.59	262.05
723.93	261.49
724.26	260.94
724.59	260.29
724.92	259.75
725.25	259.27
725.59	258.72
725.92	258.16
726.25	257.72
726.58	257.24
726.91	256.67
727.24	256.24
727.57	255.69
727.91	255.24
728.24	254.78
728.57	254.33
728.90	253.76
729.23	253.26
729.56	252.78
729.89	252.22
730.22	251.61
730.55	251.15
730.89	250.67
731.22	250.06
731.55	249.54
731.88	249.08
732.21	248.56
732.54	248.10
732.87	247.58
733.20	247.12
733.53	246.70
733.86	246.34
734.19	245.78
734.52	245.48
734.85	245.21
735.18	244.76
735.51	244.33
735.84	243.93
736.17	243.65
736.50	243.14
736.83	243.04
737.16	242.68
737.49	242.34
737.82	241.95
738.15	241.73
738.48	241.44
738.81	241.08
739.14	240.72
739.47	240.35
739.80	240.02
740.13	239.61
740.46	239.21
740.79	238.93
741.12	238.66
741.45	238.24
741.78	237.85
742.11	237.54
742.44	237.27
742.77	237.05
743.10	236.74
743.43	236.53
743.75	235.99
744.08	235.92
744.41	235.57
744.74	235.27
745.07	234.93
745.40	234.69
745.73	234.48
746.06	234.26
746.39	234.04
746.71	233.78
747.04	233.54
747.37	233.31
747.70	233.03
748.03	232.77
748.36	232.60
748.68	232.32
749.01	232.07
749.34	231.86
749.67	231.64
750.00	231.39
750.33	231.23
750.65	231.02
750.98	230.62
751.31	230.39
751.64	230.26
751.97	230.13
752.29	229.95
752.62	229.63
752.95	229.39
753.28	229.08
753.60	228.90
753.93	228.69
754.26	228.49
754.59	228.23
754.91	228.04
755.24	227.85
755.57	227.57
755.90	227.37
756.22	227.17
756.55	226.97
756.88	226.67
757.20	226.38
757.53	226.11
757.86	225.88
758.19	225.72
758.51	225.45
758.84	225.17
759.17	224.91
759.49	224.79
759.82	224.69
760.15	224.60
760.47	224.42
760.80	224.19
761.13	224.04
761.45	223.85
761.78	223.67
762.11	223.44
762.43	223.40
762.76	223.22
763.08	223.03
763.41	222.84
763.74	222.77
764.06	222.69
764.39	222.61
764.71	222.47
765.04	222.37
765.37	222.30
765.69	222.18
766.02	222.00
766.34	221.93
766.67	221.65
767.00	221.56
767.32	221.51
767.65	221.56
767.97	221.39
768.30	221.27
768.62	221.18
768.95	221.12
769.27	220.97
769.60	220.95
769.92	220.86
770.25	220.74
770.57	220.63
770.90	220.45
771.22	220.30
771.55	220.16
771.87	220.05
772.20	219.85
772.52	219.91
772.85	220.00
773.17	219.83
773.50	219.79
773.82	219.68
774.15	219.55
774.47	219.30
774.80	219.19
775.12	219.16
775.45	219.01
775.77	218.88
776.09	218.79
776.42	218.64
776.74	218.61
777.07	218.45
777.39	218.40
777.72	218.31
778.04	218.31
778.36	218.25
778.69	218.13
779.01	218.08
779.33	217.81
779.66	217.58
779.98	217.52
780.31	217.42
780.63	217.39
780.95	217.33
781.28	217.32
781.60	217.18
781.92	217.12
782.25	217.06
782.57	217.10
782.89	216.96
783.22	216.93
783.54	216.76
783.86	216.73
784.19	216.56
784.51	216.55
784.83	216.40
785.16	216.38
785.48	216.36
785.80	216.35
786.12	216.30
786.45	216.22
786.77	216.15
787.09	216.03
787.42	215.92
787.74	215.83
788.06	215.77
788.38	215.84
788.71	215.70
789.03	215.70
789.35	215.62
789.67	215.58
789.99	215.53
790.32	215.56
790.64	215.58
790.96	215.72
791.28	215.60
791.61	215.57
791.93	215.53
792.25	215.45
792.57	215.54
792.89	215.52
793.21	215.53
793.54	215.50
793.86	215.54
794.18	215.47
794.50	215.42
794.82	215.34
795.14	215.29
795.47	215.33
795.79	215.27
796.11	215.20
796.43	215.19
796.75	215.18
797.07	215.09
797.39	215.02
797.71	214.88
798.04	214.88
798.36	214.85
798.68	214.83
799.00	214.77
799.32	214.64
799.64	214.60
799.96	214.56
800.28	214.59
800.60	214.64
800.92	214.70
801.24	214.71
801.56	214.73
801.89	214.69
802.21	214.65
802.53	214.55
802.85	214.60
803.17	214.66
803.49	214.60
803.81	214.57
804.13	214.51
804.45	214.40
804.77	214.39
805.09	214.40
805.41	214.32
805.73	214.33
806.05	214.24
806.37	214.28
806.69	214.28
807.01	214.24
807.33	214.14
807.65	214.03
807.97	214.05
808.28	213.98
808.60	213.99
808.92	213.93
809.24	214.06
809.56	214.02
809.88	213.94
810.20	213.93
810.52	213.96
810.84	214.00
811.16	213.97
811.48	213.92
811.80	213.96
812.12	213.97
812.43	213.96
812.75	213.98
813.07	213.90
813.39	213.85
813.71	213.79
814.03	213.71
814.35	213.74
814.67	213.61
814.98	213.65
815.30	213.55
815.62	213.55
815.94	213.41
816.26	213.37
816.58	213.34
816.89	213.24
817.21	213.13
817.53	213.07
817.85	213.11
818.17	213.08
818.48	213.00
818.80	212.99
819.12	212.99
819.44	212.97
819.76	212.93
820.07	212.96
820.39	212.91
820.71	212.92
821.03	212.84
821.34	212.81
821.66	212.68
821.98	212.73
822.30	212.69
822.61	212.74
822.93	212.65
823.25	212.57
823.57	212.56
823.88	212.60
824.20	212.58
824.52	212.53
824.83	212.50
825.15	212.50
825.47	212.53
825.79	212.50
826.10	212.49
826.42	212.43
826.74	212.35
827.05	212.37
827.37	212.35
827.69	212.35
828.00	212.40
828.32	212.47
828.64	212.40
828.95	212.45
829.27	212.52
829.58	212.54
829.90	212.57
830.22	212.61
830.53	212.55
830.85	212.55
831.17	212.54
831.48	212.57
831.80	212.51
832.11	212.41
832.43	212.38
832.75	212.32
833.06	212.45
833.38	212.41
833.69	212.41
834.01	212.44
834.32	212.39
834.64	212.35
834.96	212.34
835.27	212.33
835.59	212.25
835.90	212.05
836.22	212.08
836.53	212.00
836.85	212.00
837.16	212.15
837.48	212.09
837.79	212.10
838.11	212.07
838.42	212.07
838.74	212.10
839.05	212.03
839.37	212.03
839.68	211.91
840.00	211.93
840.31	211.96
840.63	211.97
840.94	211.94
841.26	211.88
841.57	211.80
841.88	211.86
842.20	211.92
842.51	211.93
842.83	211.90
843.14	212.07
843.46	212.05
843.77	211.94
844.08	211.95
844.40	211.93
844.71	211.88
845.03	211.79
845.34	211.80
845.65	211.79
845.97	211.81
846.28	211.87
846.60	211.85
846.91	211.76
847.22	211.66
847.54	211.66
847.85	211.76
848.16	211.80
848.48	211.73
848.79	211.78
849.10	211.78
849.42	211.73
849.73	211.55
850.04	211.51
850.36	211.57
850.67	211.63
850.98	211.58
851.30	211.58
851.61	211.58
851.92	211.52
852.23	211.64
852.55	211.58
852.86	211.52
853.17	211.52
853.49	211.56
853.80	211.64
854.11	211.66
854.42	211.65
854.74	211.60
855.05	211.61
855.36	211.49
855.67	211.48
855.99	211.53
856.30	211.80
856.61	211.79
856.92	211.73
857.23	211.76
857.55	211.82
857.86	211.89
858.17	211.90
858.48	211.88
858.79	211.79
859.11	211.92
859.42	211.92
859.73	211.88
860.04	211.90
860.35	211.80
860.66	211.71
860.98	211.60
861.29	211.64
861.60	211.64
861.91	211.73
862.22	211.71
862.53	211.66
862.84	211.46
863.16	211.55
863.47	211.51
863.78	211.41
864.09	211.38
864.40	211.40
864.71	211.42
865.02	211.44
865.33	211.47
865.64	211.36
865.95	211.38
866.27	211.53
866.58	211.47
866.89	211.55
867.20	211.61
867.51	211.75
867.82	211.75
868.13	211.78
868.44	211.70
868.75	211.76
869.06	211.79
869.37	211.72
869.68	211.61
869.99	211.59
870.30	211.63
870.61	211.68
870.92	211.63
871.23	211.67
871.54	211.71
871.85	211.81
872.16	211.83
872.47	211.78
872.78	211.65
873.09	211.69
873.40	211.61
873.71	211.59
874.02	211.51
874.33	211.48
874.64	211.44
874.95	211.46
875.26	211.45
875.56	211.40
875.87	211.44
876.18	211.48
876.49	211.66
876.80	211.64
877.11	211.61
877.42	211.63
877.73	211.66
878.04	211.63
878.35	211.55
878.66	211.61
878.96	211.62
879.27	211.65
879.58	211.68
879.89	211.77
880.20	211.77
880.51	211.81
880.82	211.79
881.12	211.81
881.43	211.72
881.74	211.68
882.05	211.68
882.36	211.71
882.67	211.66
882.97	211.45
883.28	211.39
883.59	211.30
883.90	211.26
884.21	211.28
884.51	211.27
884.82	211.18
885.13	211.14
885.44	211.16
885.74	211.07
886.05	210.89
886.36	210.85
886.67	210.91
886.98	210.92
887.28	210.96
887.59	210.93
887.90	210.95
888.20	210.95
888.51	210.95
888.82	210.86
889.13	210.86
889.43	211.07
889.74	211.10
890.05	211.09
890.35	211.11
890.66	211.02
890.97	210.92
891.28	210.97
891.58	210.95
891.89	210.89
892.20	210.96
892.50	211.07
892.81	211.09
893.12	211.03
893.42	210.98
893.73	210.90
894.04	210.86
894.34	210.90
894.65	210.88
894.95	210.88
895.26	210.90
895.57	210.98
895.87	210.75
896.18	210.80
896.48	210.88
896.79	210.90
897.10	211.00
897.40	211.06
897.71	211.09
898.01	211.06
898.32	211.09
898.63	211.15
898.93	211.15
899.24	211.15
899.54	211.13
899.85	211.11
900.15	211.21
900.46	211.22
900.76	211.21
901.07	211.31
901.38	211.32
901.68	211.38
901.99	211.35
902.29	211.44
902.60	211.38
902.90	211.41
903.21	211.37
903.51	211.32
903.82	211.42
904.12	211.45
904.43	211.46
904.73	211.43
905.03	211.40
905.34	211.62
905.64	211.61
905.95	211.66
906.25	211.67
906.56	211.68
906.86	211.71
907.17	211.72
907.47	211.68
907.77	211.63
908.08	211.58
908.38	211.60
908.69	211.61
908.99	211.66
909.30	211.59
909.60	211.64
909.90	211.64
910.21	211.60
910.51	211.54
910.81	211.64
911.12	211.69
911.42	211.69
911.73	211.43
912.03	211.44
912.33	211.46
912.64	211.53
912.94	211.46
913.24	211.49
913.55	211.47
913.85	211.36
914.15	211.43
914.46	211.47
914.76	211.42
915.06	211.41
915.37	211.36
915.67	211.34
915.97	211.30
916.27	211.27
916.58	211.22
916.88	211.20
917.18	211.14
917.49	211.29
917.79	211.24
918.09	211.29
918.39	211.32
918.70	211.26
919.00	211.27
919.30	211.35
919.60	211.31
919.91	211.30
920.21	211.44
920.51	211.37
920.81	211.36
921.12	211.38
921.42	211.28
921.72	211.32
922.02	211.39
922.32	211.39
922.63	211.35
922.93	211.40
923.23	211.40
923.53	211.32
923.83	211.15
924.13	211.20
924.44	211.17
924.74	211.10
925.04	211.10
925.34	210.99
925.64	210.91
925.94	210.98
926.24	211.00
926.55	210.85
926.85	210.88
927.15	210.80
927.45	210.79
927.75	210.83
928.05	210.80
928.35	210.78
928.65	210.79
928.95	210.79
929.26	210.75
929.56	210.77
929.86	210.80
930.16	210.74
930.46	210.82
930.76	210.91
931.06	210.98
931.36	211.00
931.66	211.08
931.96	211.21
932.26	211.22
932.56	211.18
932.86	211.25
933.16	211.26
933.46	211.29
933.76	211.30
934.06	211.36
934.36	211.50
934.66	211.46
934.96	211.45
935.26	211.51
935.56	211.60
935.86	211.52
936.16	211.54
936.46	211.58
936.76	211.44
937.06	211.35
937.36	211.30
937.66	211.35
937.96	211.33
938.26	211.29
938.56	211.24
938.86	211.27
939.16	211.36
939.46	211.39
939.76	211.46
940.06	211.42
940.35	211.37
940.65	211.26
940.95	211.26
941.25	211.24
941.55	211.19
941.85	211.16
942.15	211.26
942.45	211.32
942.75	211.37
943.04	211.42
943.34	211.45
943.64	211.43
943.94	211.40
944.24	211.36
944.54	211.37
944.84	211.38
945.13	211.34
945.43	211.33
945.73	211.32
946.03	211.26
946.33	211.30
946.62	211.31
946.92	211.24
947.22	211.31
947.52	211.34
947.82	211.34
948.11	211.31
948.41	211.26
948.71	211.17
949.01	211.17
949.31	211.17
949.60	211.14
949.90	211.17
950.20	211.06
950.50	211.03
950.79	210.98
951.09	210.97
951.39	210.94
951.69	210.85
951.98	210.84
952.28	210.87
952.58	210.91
952.87	210.91
953.17	210.96
953.47	210.90
953.76	210.87
954.06	210.86
954.36	210.80
954.66	210.81
954.95	210.88
955.25	210.87
955.55	210.88
955.84	210.85
956.14	210.90
956.44	211.05
956.73	211.04
957.03	211.00
957.32	211.02
957.62	211.05
957.92	211.11
958.21	211.14
958.51	211.33
958.81	211.26
959.10	211.26
959.40	211.35
959.69	211.33
959.99	211.40
960.29	211.46
960.58	211.46
960.88	211.52
961.17	211.48
961.47	211.50
961.76	211.39
962.06	211.45
962.36	211.36
962.65	211.32
962.95	211.30
963.24	211.35
963.54	211.35
963.83	211.33
964.13	211.30
964.42	211.21
964.72	211.08
965.01	211.06
965.31	211.06
965.60	210.95
965.90	211.10
966.19	211.04
966.49	211.01
966.78	211.04
967.08	211.04
967.37	211.02
967.67	210.96
967.96	211.00
968.26	210.97
968.55	211.09
968.85	211.11
969.14	211.15
969.43	211.11
969.73	211.16
970.02	211.13
970.32	211.11
970.61	211.16
970.91	211.10
971.20	211.07
971.49	211.00
971.79	211.01
972.08	210.86
972.38	210.81
972.67	210.83
972.96	210.88
973.26	210.80
973.55	210.83
973.85	210.84
974.14	210.91
974.43	210.82
974.73	210.76
975.02	210.72
975.31	210.75
975.61	210.68
975.90	210.61
976.19	210.65
976.49	210.65
976.78	210.64
977.07	210.63
977.37	210.72
977.66	210.80
977.95	210.79
978.24	210.76
978.54	210.79
978.83	210.82
979.12	210.85
979.42	210.87
979.71	210.87
980.00	210.91
980.29	210.92
980.59	211.00
980.88	211.00
981.17	211.00
981.46	210.96
981.76	211.01
982.05	211.08
982.34	211.13
982.63	211.12
982.93	211.12
983.22	211.16
983.51	211.17
983.80	211.24
984.09	211.24
984.39	211.30
984.68	211.30
984.97	211.27
985.26	211.22
985.55	211.19
985.85	211.11
986.14	211.08
986.43	211.11
986.72	211.10
987.01	211.04
987.30	211.05
987.59	211.04
987.89	211.03
988.18	210.98
988.47	210.96
988.76	210.94
989.05	210.94
989.34	210.90
989.63	210.85
989.92	210.68
990.22	210.65
990.51	210.58
990.80	210.60
991.09	210.57
991.38	210.60
991.67	210.61
991.96	210.68
992.25	210.70
992.54	210.59
992.83	210.59
993.12	210.63
993.41	210.64
993.70	210.74
993.99	210.79
994.28	210.76
994.58	210.73
994.87	210.72
995.16	210.71
995.45	210.75
995.74	210.74
996.03	210.87
996.32	210.91
996.61	210.98
996.90	211.06
997.19	211.05
997.48	210.96
997.77	210.97
998.06	210.94
998.34	210.87
998.63	210.88
998.92	210.86
999.21	210.90
999.50	210.89
999.79	210.82
1000.08	210.83
1000.37	210.89
1000.66	210.91
1000.95	211.04
1001.24	211.06
1001.53	211.05
1001.82	211.03
1002.11	210.94
1002.40	211.03
1002.68	211.03
1002.97	211.08
1003.26	211.15
1003.55	211.20
1003.84	211.16
1004.13	211.21
1004.42	211.24
1004.71	211.20
1004.99	211.14
1005.28	211.17
1005.57	211.14
1005.86	211.09
1006.15	211.09
1006.44	211.06
1006.72	211.02
1007.01	210.95
1007.30	210.92
1007.59	210.90
1007.88	210.91
1008.17	210.97
1008.45	210.94
1008.74	210.93
1009.03	210.86
1009.32	210.80
1009.60	210.83
1009.89	210.88
1010.18	210.82
1010.47	210.84
1010.76	210.84
1011.04	210.91
1011.33	210.89
1011.62	210.92
1011.91	210.94
1012.19	210.93
1012.48	210.94
1012.77	210.96
1013.05	210.99
1013.34	211.02
1013.63	211.02
1013.92	211.05
1014.20	211.04
1014.49	210.97
1014.78	210.95
1015.06	210.90
1015.35	210.90
1015.64	210.90
1015.92	210.92
1016.21	210.98
1016.50	211.03
1016.78	211.05
1017.07	211.08
1017.36	211.08
1017.64	211.00
1017.93	211.11
1018.22	211.10
1018.50	211.14
1018.79	211.15
1019.08	211.06
1019.36	211.05
1019.65	211.00
1019.93	211.03
1020.22	211.08
1020.51	211.24
1020.79	211.19
1021.08	211.35
1021.36	211.75
1021.65	210.80
1021.94	209.90
1022.22	210.50
1022.51	210.05
1022.79	211.70
1023.08	212.30
1023.36	213.60
1023.65	210.10
>>>>>End Processed Spectral Data<<<<<
