SpectraSuite Data File
++++++++++++++++++++++++++++++++++++
Date: Mon Feb 25 17:35:15 EST 2013
User: group
Dark Spectrum Present: No
Reference Spectrum Present: No
Number of Sampled Component Spectra: 1
Spectrometers: USB2E7196
Integration Time (usec): 52000 (USB2E7196)
Spectra Averaged: 20 (USB2E7196)
Boxcar Smoothing: 10 (USB2E7196)
Correct for Electrical Dark: No (USB2E7196)
Strobe/Lamp Enabled: No (USB2E7196)
Correct for Detector Non-linearity: No (USB2E7196)
Correct for Stray Light: No (USB2E7196)
Number of Pixels in Processed Spectrum: 2048
>>>>>Begin Processed Spectral Data<<<<<
339.09	0.00
339.48	198.70
339.86	200.90
340.24	201.90
340.63	202.25
341.01	207.95
341.39	205.35
341.78	206.10
342.16	209.50
342.54	208.95
342.93	198.01
343.31	208.02
343.69	208.57
344.07	208.97
344.46	209.35
344.84	209.81
345.22	210.00
345.60	210.31
345.99	210.60
346.37	210.69
346.75	210.73
347.13	210.84
347.52	210.96
347.90	211.13
348.28	211.12
348.66	211.20
349.05	211.18
349.43	211.19
349.81	211.18
350.19	211.17
350.57	211.33
350.96	211.46
351.34	211.57
351.72	211.66
352.10	211.78
352.48	211.89
352.87	211.86
353.25	211.91
353.63	211.95
354.01	211.90
354.39	211.97
354.77	212.06
355.15	212.17
355.54	212.22
355.92	212.16
356.30	212.26
356.68	212.43
357.06	212.48
357.44	212.51
357.82	212.76
358.20	212.89
358.58	212.91
358.97	212.91
359.35	212.95
359.73	213.03
360.11	213.14
360.49	213.15
360.87	213.27
361.25	213.30
361.63	213.40
362.01	213.53
362.39	213.53
362.77	213.62
363.15	213.63
363.53	213.66
363.91	213.73
364.29	213.68
364.67	213.57
365.05	213.62
365.43	213.71
365.81	213.60
366.19	213.68
366.57	213.72
366.95	213.73
367.33	213.74
367.71	213.81
368.09	213.83
368.47	213.90
368.85	213.92
369.23	213.90
369.61	213.81
369.99	213.81
370.37	213.86
370.75	214.04
371.13	213.94
371.51	213.88
371.89	213.86
372.27	213.87
372.65	213.83
373.03	213.80
373.41	213.76
373.78	213.80
374.16	213.65
374.54	213.57
374.92	213.50
375.30	213.44
375.68	213.30
376.06	213.18
376.44	213.16
376.82	213.07
377.19	213.03
377.57	213.08
377.95	212.96
378.33	212.88
378.71	212.58
379.09	212.54
379.47	212.50
379.84	212.50
380.22	212.49
380.60	212.44
380.98	212.35
381.36	212.31
381.73	212.19
382.11	212.24
382.49	212.19
382.87	212.18
383.25	212.14
383.62	212.29
384.00	212.23
384.38	212.12
384.76	212.14
385.13	212.20
385.51	212.09
385.89	212.09
386.27	212.10
386.64	212.18
387.02	212.20
387.40	212.12
387.78	212.09
388.15	212.06
388.53	211.97
388.91	211.97
389.29	211.92
389.66	211.87
390.04	211.76
390.42	211.76
390.79	211.76
391.17	211.71
391.55	211.53
391.92	211.60
392.30	211.62
392.68	211.58
393.05	211.57
393.43	211.55
393.81	211.61
394.18	211.50
394.56	211.49
394.94	211.52
395.31	211.56
395.69	211.59
396.06	211.61
396.44	211.70
396.82	211.66
397.19	211.73
397.57	211.79
397.95	211.86
398.32	211.88
398.70	211.95
399.07	212.06
399.45	212.03
399.82	212.02
400.20	212.08
400.58	212.15
400.95	212.05
401.33	212.21
401.70	212.33
402.08	212.40
402.45	212.42
402.83	212.51
403.20	212.56
403.58	212.59
403.95	212.76
404.33	212.78
404.71	212.94
405.08	213.10
405.46	213.22
405.83	213.31
406.21	213.41
406.58	213.54
406.96	213.74
407.33	213.90
407.70	214.04
408.08	214.33
408.45	214.54
408.83	214.83
409.20	214.96
409.58	215.04
409.95	215.43
410.33	215.78
410.70	216.01
411.08	216.40
411.45	216.86
411.82	217.21
412.20	217.66
412.57	218.24
412.95	218.62
413.32	219.14
413.69	219.78
414.07	220.44
414.44	220.98
414.82	221.52
415.19	222.30
415.56	223.01
415.94	223.73
416.31	224.57
416.68	225.44
417.06	226.51
417.43	227.50
417.81	228.57
418.18	229.63
418.55	230.88
418.93	232.13
419.30	233.38
419.67	234.76
420.04	236.22
420.42	237.67
420.79	239.46
421.16	241.09
421.54	242.87
421.91	244.66
422.28	246.62
422.66	248.67
423.03	250.76
423.40	252.87
423.77	255.18
424.15	257.48
424.52	259.89
424.89	262.38
425.26	264.87
425.64	267.25
426.01	269.90
426.38	272.55
426.75	275.27
427.13	278.15
427.50	281.10
427.87	284.19
428.24	287.25
428.61	290.11
428.99	293.44
429.36	296.95
429.73	300.50
430.10	304.09
430.47	307.68
430.85	311.41
431.22	315.44
431.59	319.54
431.96	323.48
432.33	327.86
432.70	332.19
433.08	337.20
433.45	341.84
433.82	346.44
434.19	351.66
434.56	356.75
434.93	361.53
435.30	366.32
435.68	371.65
436.05	376.91
436.42	382.20
436.79	387.04
437.16	392.13
437.53	397.53
437.90	402.85
438.27	408.04
438.64	413.43
439.01	418.46
439.38	422.85
439.75	427.14
440.13	432.07
440.50	436.69
440.87	440.44
441.24	444.38
441.61	448.63
441.98	451.69
442.35	455.34
442.72	458.94
443.09	462.57
443.46	464.68
443.83	466.03
444.20	467.20
444.57	468.89
444.94	469.79
445.31	470.51
445.68	471.10
446.05	471.47
446.42	470.74
446.79	469.93
447.16	469.11
447.53	468.46
447.90	466.23
448.27	464.08
448.64	461.15
449.01	459.00
449.37	455.40
449.74	451.91
450.11	447.65
450.48	443.17
450.85	438.42
451.22	434.46
451.59	430.73
451.96	427.14
452.33	422.30
452.70	417.89
453.07	412.73
453.43	407.48
453.80	402.32
454.17	397.51
454.54	392.93
454.91	388.02
455.28	383.31
455.65	378.95
456.02	374.50
456.38	370.74
456.75	366.01
457.12	362.11
457.49	358.21
457.86	354.49
458.23	351.28
458.59	347.81
458.96	344.22
459.33	340.86
459.70	337.59
460.07	335.07
460.43	332.11
460.80	329.35
461.17	327.02
461.54	324.57
461.91	322.20
462.27	319.78
462.64	317.76
463.01	315.50
463.38	313.26
463.74	311.00
464.11	309.05
464.48	307.38
464.85	305.61
465.21	304.28
465.58	302.88
465.95	301.08
466.32	299.65
466.68	298.26
467.05	296.97
467.42	295.63
467.78	294.14
468.15	292.82
468.52	291.93
468.88	290.62
469.25	289.42
469.62	288.48
469.98	287.53
470.35	286.66
470.72	285.80
471.08	284.94
471.45	284.15
471.82	283.46
472.18	282.57
472.55	281.99
472.92	281.20
473.28	280.55
473.65	279.97
474.02	279.39
474.38	278.91
474.75	278.57
475.11	278.17
475.48	278.03
475.85	277.73
476.21	277.51
476.58	277.33
476.94	277.31
477.31	277.24
477.67	277.07
478.04	277.08
478.41	277.18
478.77	277.46
479.14	277.68
479.50	277.89
479.87	278.26
480.23	278.57
480.60	279.01
480.96	279.42
481.33	280.19
481.69	280.81
482.06	281.48
482.42	282.21
482.79	282.95
483.15	283.77
483.52	284.74
483.88	285.67
484.25	286.77
484.61	287.82
484.98	289.01
485.34	290.38
485.71	291.67
486.07	293.14
486.44	294.47
486.80	295.98
487.17	297.51
487.53	299.30
487.90	301.13
488.26	303.03
488.62	305.14
488.99	307.12
489.35	309.20
489.72	311.47
490.08	313.78
490.44	316.31
490.81	318.99
491.17	321.75
491.54	324.63
491.90	327.58
492.26	330.74
492.63	334.04
492.99	337.53
493.36	341.23
493.72	345.11
494.08	349.13
494.45	353.48
494.81	358.02
495.17	362.57
495.54	367.43
495.90	372.51
496.26	377.64
496.63	383.14
496.99	389.02
497.35	395.08
497.72	401.44
498.08	407.96
498.44	414.56
498.80	421.69
499.17	429.18
499.53	436.95
499.89	444.97
500.26	453.04
500.62	461.33
500.98	470.07
501.34	479.09
501.71	488.51
502.07	498.12
502.43	508.10
502.79	518.38
503.16	529.12
503.52	540.07
503.88	551.28
504.24	562.94
504.60	574.80
504.97	587.08
505.33	599.55
505.69	612.90
506.05	626.44
506.41	640.00
506.78	653.78
507.14	667.85
507.50	682.42
507.86	697.59
508.22	713.07
508.59	728.56
508.95	744.65
509.31	760.79
509.67	777.52
510.03	794.44
510.39	812.01
510.75	829.59
511.12	847.89
511.48	866.50
511.84	885.01
512.20	903.76
512.56	922.92
512.92	942.50
513.28	962.07
513.64	981.83
514.00	1001.98
514.37	1022.50
514.73	1043.39
515.09	1064.42
515.45	1085.33
515.81	1106.66
516.17	1128.04
516.53	1149.60
516.89	1171.64
517.25	1193.26
517.61	1215.36
517.97	1237.18
518.33	1259.03
518.69	1280.69
519.05	1302.71
519.41	1325.10
519.77	1347.87
520.13	1370.27
520.49	1392.56
520.85	1415.03
521.21	1437.95
521.57	1460.89
521.93	1483.02
522.29	1506.02
522.65	1528.68
523.01	1551.30
523.37	1573.40
523.73	1596.12
524.09	1618.43
524.45	1640.39
524.81	1663.18
525.17	1685.64
525.53	1708.06
525.89	1730.63
526.25	1752.99
526.61	1774.49
526.97	1796.28
527.33	1817.80
527.68	1839.46
528.04	1860.88
528.40	1881.60
528.76	1902.26
529.12	1923.10
529.48	1945.13
529.84	1965.78
530.20	1986.30
530.56	2007.11
530.91	2028.32
531.27	2048.80
531.63	2069.15
531.99	2089.62
532.35	2108.89
532.71	2128.03
533.07	2147.66
533.42	2166.40
533.78	2185.35
534.14	2204.22
534.50	2221.79
534.86	2240.22
535.21	2256.97
535.57	2274.86
535.93	2292.31
536.29	2309.51
536.65	2326.55
537.00	2342.15
537.36	2357.47
537.72	2372.97
538.08	2388.23
538.44	2403.47
538.79	2419.42
539.15	2434.53
539.51	2449.21
539.87	2464.70
540.22	2479.43
540.58	2494.66
540.94	2509.00
541.29	2522.49
541.65	2535.08
542.01	2548.90
542.37	2560.66
542.72	2573.50
543.08	2584.89
543.44	2597.30
543.79	2608.01
544.15	2618.64
544.51	2629.94
544.87	2640.92
545.22	2650.46
545.58	2659.09
545.94	2666.52
546.29	2672.98
546.65	2679.12
547.01	2685.88
547.36	2691.86
547.72	2697.48
548.07	2701.68
548.43	2706.19
548.79	2709.94
549.14	2714.86
549.50	2719.01
549.86	2723.31
550.21	2727.42
550.57	2731.69
550.92	2734.49
551.28	2737.25
551.64	2739.82
551.99	2742.10
552.35	2744.15
552.70	2746.94
553.06	2750.10
553.41	2753.50
553.77	2756.60
554.13	2759.12
554.48	2760.86
554.84	2762.24
555.19	2763.08
555.55	2763.87
555.90	2764.33
556.26	2765.12
556.61	2765.11
556.97	2763.51
557.32	2763.46
557.68	2761.99
558.03	2760.58
558.39	2759.28
558.74	2758.91
559.10	2757.68
559.45	2755.73
559.81	2754.80
560.16	2752.30
560.52	2749.80
560.87	2746.68
561.23	2742.62
561.58	2740.34
561.94	2737.16
562.29	2733.73
562.64	2731.58
563.00	2728.85
563.35	2726.72
563.71	2725.27
564.06	2723.02
564.42	2721.56
564.77	2718.97
565.12	2716.92
565.48	2713.44
565.83	2710.15
566.19	2706.56
566.54	2702.38
566.89	2698.88
567.25	2694.78
567.60	2691.28
567.96	2687.76
568.31	2684.28
568.66	2681.01
569.02	2676.32
569.37	2671.73
569.72	2667.76
570.08	2662.35
570.43	2656.63
570.78	2650.81
571.14	2644.09
571.49	2637.36
571.84	2631.29
572.20	2624.55
572.55	2618.23
572.90	2611.75
573.26	2604.90
573.61	2598.10
573.96	2591.48
574.31	2583.60
574.67	2575.72
575.02	2567.26
575.37	2558.47
575.72	2549.50
576.08	2541.61
576.43	2533.02
576.78	2524.94
577.13	2516.57
577.49	2508.42
577.84	2500.87
578.19	2493.25
578.54	2485.73
578.90	2478.94
579.25	2470.48
579.60	2461.01
579.95	2451.59
580.30	2443.40
580.66	2435.01
581.01	2425.82
581.36	2416.44
581.71	2408.18
582.06	2399.48
582.42	2391.21
582.77	2382.12
583.12	2373.08
583.47	2364.41
583.82	2356.02
584.17	2346.58
584.53	2337.74
584.88	2328.87
585.23	2319.60
585.58	2309.81
585.93	2299.92
586.28	2290.67
586.63	2281.66
586.98	2273.28
587.34	2264.80
587.69	2255.62
588.04	2246.42
588.39	2238.00
588.74	2229.26
589.09	2220.35
589.44	2210.76
589.79	2202.05
590.14	2193.99
590.49	2185.70
590.84	2176.51
591.19	2168.32
591.54	2159.59
591.89	2149.15
592.25	2139.82
592.60	2130.03
592.95	2120.59
593.30	2111.15
593.65	2100.99
594.00	2091.01
594.35	2082.58
594.70	2073.34
595.05	2064.42
595.40	2055.38
595.75	2045.68
596.10	2037.01
596.45	2028.15
596.80	2020.25
597.15	2011.70
597.50	2002.46
597.85	1993.85
598.19	1984.95
598.54	1976.13
598.89	1967.89
599.24	1961.18
599.59	1953.66
599.94	1946.52
600.29	1938.66
600.64	1930.77
600.99	1922.47
601.34	1915.29
601.69	1906.23
602.04	1897.81
602.39	1889.78
602.74	1881.97
603.08	1875.24
603.43	1868.08
603.78	1860.30
604.13	1851.97
604.48	1844.10
604.83	1837.22
605.18	1830.06
605.53	1822.39
605.87	1814.60
606.22	1807.45
606.57	1799.46
606.92	1791.13
607.27	1782.95
607.62	1775.76
607.96	1768.77
608.31	1762.40
608.66	1754.23
609.01	1746.93
609.36	1739.49
609.70	1731.28
610.05	1723.42
610.40	1715.02
610.75	1706.48
611.10	1698.22
611.44	1688.88
611.79	1679.51
612.14	1669.97
612.49	1660.11
612.83	1651.40
613.18	1641.70
613.53	1632.21
613.88	1622.20
614.22	1613.20
614.57	1603.78
614.92	1594.20
615.27	1584.65
615.61	1574.67
615.96	1565.79
616.31	1557.28
616.65	1548.98
617.00	1540.55
617.35	1531.70
617.70	1522.55
618.04	1513.20
618.39	1503.84
618.74	1495.71
619.08	1487.17
619.43	1478.77
619.78	1470.89
620.12	1462.47
620.47	1454.76
620.82	1446.11
621.16	1437.98
621.51	1429.47
621.85	1421.40
622.20	1412.75
622.55	1404.27
622.89	1395.86
623.24	1387.80
623.59	1378.74
623.93	1370.13
624.28	1361.57
624.62	1353.28
624.97	1345.16
625.32	1337.29
625.66	1330.06
626.01	1322.39
626.35	1315.14
626.70	1307.40
627.04	1299.87
627.39	1292.44
627.73	1284.49
628.08	1277.48
628.43	1269.88
628.77	1262.40
629.12	1254.66
629.46	1248.03
629.81	1240.79
630.15	1233.35
630.50	1225.87
630.84	1218.81
631.19	1211.34
631.53	1204.33
631.88	1196.79
632.22	1189.15
632.57	1182.02
632.91	1174.23
633.26	1166.85
633.60	1159.66
633.95	1152.77
634.29	1145.42
634.64	1138.51
634.98	1131.56
635.32	1124.37
635.67	1117.80
636.01	1111.16
636.36	1104.33
636.70	1097.60
637.05	1090.96
637.39	1084.60
637.73	1078.36
638.08	1072.35
638.42	1066.52
638.77	1060.20
639.11	1053.83
639.45	1047.62
639.80	1041.19
640.14	1034.80
640.49	1028.40
640.83	1021.87
641.17	1015.08
641.52	1009.02
641.86	1002.39
642.20	996.10
642.55	989.45
642.89	983.00
643.23	976.55
643.58	970.64
643.92	963.88
644.26	957.45
644.61	951.34
644.95	945.10
645.29	938.61
645.64	931.91
645.98	925.46
646.32	919.60
646.66	913.61
647.01	907.51
647.35	901.74
647.69	895.50
648.04	889.57
648.38	883.80
648.72	877.58
649.06	871.24
649.41	865.12
649.75	859.15
650.09	853.40
650.43	847.51
650.78	841.25
651.12	835.34
651.46	829.42
651.80	823.52
652.14	817.32
652.49	811.34
652.83	805.55
653.17	799.52
653.51	793.58
653.85	787.60
654.20	781.63
654.54	775.70
654.88	770.13
655.22	764.15
655.56	758.23
655.90	752.37
656.25	746.66
656.59	741.15
656.93	735.99
657.27	730.61
657.61	725.02
657.95	719.61
658.29	714.52
658.64	709.45
658.98	704.15
659.32	698.90
659.66	693.70
660.00	688.26
660.34	683.22
660.68	678.05
661.02	673.10
661.36	668.32
661.70	663.42
662.05	658.66
662.39	654.19
662.73	649.79
663.07	645.45
663.41	641.22
663.75	636.58
664.09	631.77
664.43	626.86
664.77	622.60
665.11	618.39
665.45	613.91
665.79	609.38
666.13	604.92
666.47	600.65
666.81	596.43
667.15	592.42
667.49	588.40
667.83	584.51
668.17	580.50
668.51	576.50
668.85	572.85
669.19	569.20
669.53	565.44
669.87	561.37
670.21	557.43
670.55	553.57
670.89	550.13
671.23	546.83
671.57	543.53
671.91	539.79
672.25	536.24
672.58	532.65
672.92	529.26
673.26	526.07
673.60	522.81
673.94	519.40
674.28	516.07
674.62	512.87
674.96	509.51
675.30	506.58
675.64	503.43
675.97	500.00
676.31	496.75
676.65	493.83
676.99	491.12
677.33	488.13
677.67	485.08
678.01	481.96
678.34	478.91
678.68	475.86
679.02	472.87
679.36	469.98
679.70	467.12
680.04	464.22
680.37	461.17
680.71	458.30
681.05	455.63
681.39	452.88
681.73	450.30
682.06	447.70
682.40	445.00
682.74	442.35
683.08	439.84
683.42	437.27
683.75	434.64
684.09	432.00
684.43	429.53
684.77	426.94
685.10	424.39
685.44	421.88
685.78	419.36
686.12	417.08
686.45	414.69
686.79	412.37
687.13	410.17
687.46	408.00
687.80	405.79
688.14	403.50
688.48	401.42
688.81	399.08
689.15	396.75
689.49	394.47
689.82	392.29
690.16	389.91
690.50	387.64
690.83	385.32
691.17	383.11
691.51	380.87
691.84	378.78
692.18	376.80
692.52	374.74
692.85	372.77
693.19	370.91
693.52	368.94
693.86	366.93
694.20	364.95
694.53	362.95
694.87	360.93
695.21	358.92
695.54	356.89
695.88	354.90
696.21	353.09
696.55	351.41
696.88	349.62
697.22	347.91
697.56	346.25
697.89	344.56
698.23	342.75
698.56	341.15
698.90	339.54
699.23	337.80
699.57	336.30
699.90	334.72
700.24	333.01
700.58	331.39
700.91	329.88
701.25	328.51
701.58	327.15
701.92	325.78
702.25	324.43
702.59	323.09
702.92	321.76
703.26	320.39
703.59	319.05
703.93	317.90
704.26	316.72
704.60	315.47
704.93	314.26
705.26	313.06
705.60	311.92
705.93	310.74
706.27	309.58
706.60	308.31
706.94	307.25
707.27	305.98
707.61	304.77
707.94	303.56
708.27	302.21
708.61	301.04
708.94	299.92
709.28	298.77
709.61	297.59
709.94	296.54
710.28	295.49
710.61	294.37
710.95	293.23
711.28	292.20
711.61	291.15
711.95	290.16
712.28	289.15
712.61	288.06
712.95	287.15
713.28	286.22
713.61	285.25
713.95	284.30
714.28	283.45
714.61	282.64
714.95	281.77
715.28	280.88
715.61	279.88
715.95	278.98
716.28	278.15
716.61	277.30
716.95	276.50
717.28	275.66
717.61	274.87
717.94	274.05
718.28	273.28
718.61	272.50
718.94	271.71
719.27	270.92
719.61	270.14
719.94	269.38
720.27	268.62
720.60	267.92
720.94	267.16
721.27	266.52
721.60	265.84
721.93	265.24
722.27	264.75
722.60	264.20
722.93	263.55
723.26	262.92
723.59	262.32
723.93	261.68
724.26	261.10
724.59	260.47
724.92	259.85
725.25	259.23
725.59	258.60
725.92	258.15
726.25	257.70
726.58	257.20
726.91	256.65
727.24	256.20
727.57	255.75
727.91	255.25
728.24	254.78
728.57	254.24
728.90	253.80
729.23	253.17
729.56	252.79
729.89	252.32
730.22	251.87
730.55	251.41
730.89	250.94
731.22	250.49
731.55	249.99
731.88	249.54
732.21	249.02
732.54	248.65
732.87	248.08
733.20	247.65
733.53	247.26
733.86	246.85
734.19	246.33
734.52	245.84
734.85	245.59
735.18	245.20
735.51	244.96
735.84	244.54
736.17	244.20
736.50	243.70
736.83	243.52
737.16	243.13
737.49	242.78
737.82	242.41
738.15	242.11
738.48	241.81
738.81	241.49
739.14	241.24
739.47	240.85
739.80	240.59
740.13	240.11
740.46	239.73
740.79	239.30
741.12	238.95
741.45	238.62
741.78	238.12
742.11	237.78
742.44	237.37
742.77	237.10
743.10	236.68
743.43	236.42
743.75	235.87
744.08	235.80
744.41	235.45
744.74	235.19
745.07	234.87
745.40	234.55
745.73	234.35
746.06	233.99
746.39	233.80
746.71	233.44
747.04	233.21
747.37	232.94
747.70	232.80
748.03	232.60
748.36	232.38
748.68	232.13
749.01	231.83
749.34	231.56
749.67	231.21
750.00	231.02
750.33	230.91
750.65	230.79
750.98	230.28
751.31	230.08
751.64	229.82
751.97	229.66
752.29	229.39
752.62	229.07
752.95	228.83
753.28	228.51
753.60	228.36
753.93	228.29
754.26	228.00
754.59	227.68
754.91	227.36
755.24	227.18
755.57	226.98
755.90	226.76
756.22	226.55
756.55	226.40
756.88	226.23
757.20	225.86
757.53	225.53
757.86	225.32
758.19	225.11
758.51	224.97
758.84	224.66
759.17	224.54
759.49	224.39
759.82	224.37
760.15	224.25
760.47	224.04
760.80	223.76
761.13	223.67
761.45	223.52
761.78	223.45
762.11	223.34
762.43	223.19
762.76	223.10
763.08	223.00
763.41	222.83
763.74	222.73
764.06	222.63
764.39	222.57
764.71	222.50
765.04	222.37
765.37	222.19
765.69	222.06
766.02	221.95
766.34	221.85
766.67	221.60
767.00	221.51
767.32	221.49
767.65	221.45
767.97	221.36
768.30	221.29
768.62	221.16
768.95	220.98
769.27	220.87
769.60	220.78
769.92	220.66
770.25	220.56
770.57	220.42
770.90	220.29
771.22	220.18
771.55	220.07
771.87	219.99
772.20	219.92
772.52	220.00
772.85	220.08
773.17	220.02
773.50	219.92
773.82	219.75
774.15	219.57
774.47	219.37
774.80	219.26
775.12	219.20
775.45	219.12
775.77	219.09
776.09	219.02
776.42	218.91
776.74	218.83
777.07	218.70
777.39	218.70
777.72	218.68
778.04	218.60
778.36	218.54
778.69	218.51
779.01	218.39
779.33	218.12
779.66	217.87
779.98	217.72
780.31	217.65
780.63	217.67
780.95	217.66
781.28	217.60
781.60	217.50
781.92	217.42
782.25	217.40
782.57	217.28
782.89	217.22
783.22	217.10
783.54	217.01
783.86	216.95
784.19	216.83
784.51	216.76
784.83	216.65
785.16	216.60
785.48	216.50
785.80	216.46
786.12	216.44
786.45	216.44
786.77	216.36
787.09	216.36
787.42	216.23
787.74	216.10
788.06	216.11
788.38	216.10
788.71	215.94
789.03	215.81
789.35	215.74
789.67	215.61
789.99	215.62
790.32	215.55
790.64	215.50
790.96	215.61
791.28	215.54
791.61	215.54
791.93	215.50
792.25	215.41
792.57	215.46
792.89	215.35
793.21	215.22
793.54	215.20
793.86	215.17
794.18	215.18
794.50	215.12
794.82	215.06
795.14	215.03
795.47	215.06
795.79	215.12
796.11	215.03
796.43	215.05
796.75	215.00
797.07	215.00
797.39	214.99
797.71	214.81
798.04	214.76
798.36	214.68
798.68	214.63
799.00	214.56
799.32	214.48
799.64	214.56
799.96	214.47
800.28	214.49
800.60	214.37
800.92	214.35
801.24	214.40
801.56	214.41
801.89	214.33
802.21	214.31
802.53	214.21
802.85	214.26
803.17	214.33
803.49	214.23
803.81	214.22
804.13	214.18
804.45	214.08
804.77	214.03
805.09	214.04
805.41	213.96
805.73	214.00
806.05	213.90
806.37	213.88
806.69	213.90
807.01	213.88
807.33	213.90
807.65	213.86
807.97	213.94
808.28	213.88
808.60	213.95
808.92	213.85
809.24	213.94
809.56	213.96
809.88	213.88
810.20	213.89
810.52	213.88
810.84	213.80
811.16	213.79
811.48	213.77
811.80	213.81
812.12	213.87
812.43	213.90
812.75	213.87
813.07	213.75
813.39	213.75
813.71	213.60
814.03	213.55
814.35	213.47
814.67	213.34
814.98	213.29
815.30	213.15
815.62	213.15
815.94	212.99
816.26	212.87
816.58	212.81
816.89	212.75
817.21	212.69
817.53	212.68
817.85	212.66
818.17	212.68
818.48	212.52
818.80	212.48
819.12	212.40
819.44	212.33
819.76	212.33
820.07	212.26
820.39	212.26
820.71	212.18
821.03	212.18
821.34	212.14
821.66	212.15
821.98	212.20
822.30	212.19
822.61	212.35
822.93	212.35
823.25	212.33
823.57	212.36
823.88	212.30
824.20	212.27
824.52	212.24
824.83	212.19
825.15	212.25
825.47	212.27
825.79	212.23
826.10	212.26
826.42	212.22
826.74	212.32
827.05	212.31
827.37	212.37
827.69	212.32
828.00	212.34
828.32	212.28
828.64	212.24
828.95	212.26
829.27	212.19
829.58	212.20
829.90	212.17
830.22	212.16
830.53	212.21
830.85	212.27
831.17	212.25
831.48	212.17
831.80	212.19
832.11	212.09
832.43	212.10
832.75	212.14
833.06	212.28
833.38	212.23
833.69	212.22
834.01	212.18
834.32	212.21
834.64	212.14
834.96	212.14
835.27	212.11
835.59	212.11
835.90	212.04
836.22	212.02
836.53	212.01
836.85	211.95
837.16	212.12
837.48	212.08
837.79	212.20
838.11	212.24
838.42	212.20
838.74	212.25
839.05	212.26
839.37	212.25
839.68	212.07
840.00	212.03
840.31	212.02
840.63	212.08
840.94	212.00
841.26	211.98
841.57	212.01
841.88	212.03
842.20	211.93
842.51	211.91
842.83	211.93
843.14	212.08
843.46	212.16
843.77	212.03
844.08	212.03
844.40	211.89
844.71	211.89
845.03	211.87
845.34	211.86
845.65	211.82
845.97	211.76
846.28	211.79
846.60	211.80
846.91	211.83
847.22	211.77
847.54	211.82
847.85	211.83
848.16	211.80
848.48	211.81
848.79	211.93
849.10	211.93
849.42	211.93
849.73	211.79
850.04	211.75
850.36	211.74
850.67	211.80
850.98	211.86
851.30	211.85
851.61	211.83
851.92	211.82
852.23	211.88
852.55	211.94
852.86	211.98
853.17	212.02
853.49	212.06
853.80	212.06
854.11	212.11
854.42	212.14
854.74	212.15
855.05	212.09
855.36	212.02
855.67	212.05
855.99	212.02
856.30	212.17
856.61	212.21
856.92	212.20
857.23	212.15
857.55	212.13
857.86	212.06
858.17	212.05
858.48	212.11
858.79	212.05
859.11	212.03
859.42	212.02
859.73	211.97
860.04	211.92
860.35	211.94
860.66	211.88
860.98	211.92
861.29	211.90
861.60	211.92
861.91	211.97
862.22	211.95
862.53	211.90
862.84	211.70
863.16	211.75
863.47	211.67
863.78	211.66
864.09	211.65
864.40	211.78
864.71	211.78
865.02	211.72
865.33	211.66
865.64	211.62
865.95	211.64
866.27	211.68
866.58	211.65
866.89	211.63
867.20	211.59
867.51	211.46
867.82	211.41
868.13	211.46
868.44	211.41
868.75	211.45
869.06	211.49
869.37	211.52
869.68	211.42
869.99	211.43
870.30	211.44
870.61	211.44
870.92	211.33
871.23	211.31
871.54	211.36
871.85	211.43
872.16	211.49
872.47	211.44
872.78	211.41
873.09	211.43
873.40	211.46
873.71	211.50
874.02	211.58
874.33	211.57
874.64	211.51
874.95	211.48
875.26	211.42
875.56	211.39
875.87	211.43
876.18	211.45
876.49	211.66
876.80	211.64
877.11	211.56
877.42	211.58
877.73	211.59
878.04	211.51
878.35	211.59
878.66	211.53
878.96	211.53
879.27	211.52
879.58	211.49
879.89	211.46
880.20	211.42
880.51	211.40
880.82	211.48
881.12	211.46
881.43	211.43
881.74	211.39
882.05	211.33
882.36	211.28
882.67	211.22
882.97	210.99
883.28	210.91
883.59	210.98
883.90	211.03
884.21	211.07
884.51	211.01
884.82	210.92
885.13	210.95
885.44	210.91
885.74	210.82
886.05	210.85
886.36	210.80
886.67	210.78
886.98	210.84
887.28	210.86
887.59	210.92
887.90	210.94
888.20	210.90
888.51	211.00
888.82	210.97
889.13	210.96
889.43	211.12
889.74	211.19
890.05	211.16
890.35	211.10
890.66	211.05
890.97	211.09
891.28	211.08
891.58	211.05
891.89	211.08
892.20	211.12
892.50	211.09
892.81	211.09
893.12	211.14
893.42	211.15
893.73	211.10
894.04	211.09
894.34	211.02
894.65	211.05
894.95	210.99
895.26	211.01
895.57	211.12
895.87	210.97
896.18	210.94
896.48	210.90
896.79	210.90
897.10	210.96
897.40	211.03
897.71	211.05
898.01	211.05
898.32	211.05
898.63	211.07
898.93	211.06
899.24	211.09
899.54	211.06
899.85	210.94
900.15	211.02
900.46	211.03
900.76	211.15
901.07	211.14
901.38	211.20
901.68	211.23
901.99	211.12
902.29	211.09
902.60	211.06
902.90	211.11
903.21	211.16
903.51	211.16
903.82	211.15
904.12	211.18
904.43	211.25
904.73	211.20
905.03	211.20
905.34	211.40
905.64	211.39
905.95	211.45
906.25	211.49
906.56	211.40
906.86	211.43
907.17	211.35
907.47	211.42
907.77	211.43
908.08	211.35
908.38	211.39
908.69	211.44
908.99	211.54
909.30	211.59
909.60	211.56
909.90	211.54
910.21	211.52
910.51	211.42
910.81	211.34
911.12	211.39
911.42	211.39
911.73	211.21
912.03	211.18
912.33	211.10
912.64	211.09
912.94	211.09
913.24	210.95
913.55	210.97
913.85	210.91
914.15	210.82
914.46	210.84
914.76	210.82
915.06	210.76
915.37	210.70
915.67	210.61
915.97	210.63
916.27	210.58
916.58	210.54
916.88	210.59
917.18	210.65
917.49	210.81
917.79	210.83
918.09	210.81
918.39	210.91
918.70	210.88
919.00	210.88
919.30	210.89
919.60	210.92
919.91	210.88
920.21	210.92
920.51	210.85
920.81	210.88
921.12	210.90
921.42	210.97
921.72	210.98
922.02	211.01
922.32	210.97
922.63	211.02
922.93	211.09
923.23	211.03
923.53	210.91
923.83	210.75
924.13	210.71
924.44	210.76
924.74	210.73
925.04	210.84
925.34	210.89
925.64	210.91
925.94	210.91
926.24	211.00
926.55	210.96
926.85	211.05
927.15	210.99
927.45	211.02
927.75	210.98
928.05	211.05
928.35	210.97
928.65	211.13
928.95	211.12
929.26	211.10
929.56	211.17
929.86	211.24
930.16	211.28
930.46	211.26
930.76	211.26
931.06	211.20
931.36	211.10
931.66	211.09
931.96	211.09
932.26	211.13
932.56	211.12
932.86	211.17
933.16	211.18
933.46	211.24
933.76	211.14
934.06	211.19
934.36	211.22
934.66	211.28
934.96	211.15
935.26	211.22
935.56	211.22
935.86	211.19
936.16	211.21
936.46	211.17
936.76	211.18
937.06	211.14
937.36	211.17
937.66	211.25
937.96	211.28
938.26	211.20
938.56	211.15
938.86	211.16
939.16	211.23
939.46	211.34
939.76	211.39
940.06	211.45
940.35	211.40
940.65	211.32
940.95	211.30
941.25	211.30
941.55	211.31
941.85	211.29
942.15	211.33
942.45	211.36
942.75	211.38
943.04	211.43
943.34	211.49
943.64	211.51
943.94	211.50
944.24	211.46
944.54	211.57
944.84	211.62
945.13	211.57
945.43	211.51
945.73	211.45
946.03	211.45
946.33	211.43
946.62	211.37
946.92	211.36
947.22	211.47
947.52	211.49
947.82	211.42
948.11	211.44
948.41	211.46
948.71	211.49
949.01	211.50
949.31	211.49
949.60	211.42
949.90	211.43
950.20	211.34
950.50	211.34
950.79	211.27
951.09	211.30
951.39	211.35
951.69	211.36
951.98	211.34
952.28	211.31
952.58	211.34
952.87	211.41
953.17	211.40
953.47	211.30
953.76	211.32
954.06	211.29
954.36	211.25
954.66	211.23
954.95	211.16
955.25	211.11
955.55	211.10
955.84	211.09
956.14	211.07
956.44	211.19
956.73	211.14
957.03	211.13
957.32	211.13
957.62	211.10
957.92	211.11
958.21	211.12
958.51	211.33
958.81	211.29
959.10	211.28
959.40	211.30
959.69	211.32
959.99	211.33
960.29	211.35
960.58	211.30
960.88	211.36
961.17	211.39
961.47	211.45
961.76	211.39
962.06	211.41
962.36	211.45
962.65	211.41
962.95	211.42
963.24	211.44
963.54	211.37
963.83	211.34
964.13	211.30
964.42	211.25
964.72	211.00
965.01	211.00
965.31	211.02
965.60	210.96
965.90	211.09
966.19	211.00
966.49	210.90
966.78	210.89
967.08	210.89
967.37	210.84
967.67	210.79
967.96	210.85
968.26	210.85
968.55	210.86
968.85	210.81
969.14	210.77
969.43	210.74
969.73	210.77
970.02	210.76
970.32	210.72
970.61	210.75
970.91	210.77
971.20	210.74
971.49	210.67
971.79	210.72
972.08	210.52
972.38	210.57
972.67	210.62
972.96	210.62
973.26	210.50
973.55	210.50
973.85	210.46
974.14	210.44
974.43	210.50
974.73	210.42
975.02	210.44
975.31	210.47
975.61	210.48
975.90	210.48
976.19	210.50
976.49	210.52
976.78	210.53
977.07	210.54
977.37	210.57
977.66	210.63
977.95	210.59
978.24	210.67
978.54	210.68
978.83	210.67
979.12	210.71
979.42	210.72
979.71	210.72
980.00	210.80
980.29	210.83
980.59	210.76
980.88	210.80
981.17	210.80
981.46	210.78
981.76	210.81
982.05	210.85
982.34	210.86
982.63	210.83
982.93	210.86
983.22	210.90
983.51	210.96
983.80	211.00
984.09	210.97
984.39	210.98
984.68	211.00
984.97	211.14
985.26	211.16
985.55	211.29
985.85	211.32
986.14	211.30
986.43	211.38
986.72	211.35
987.01	211.34
987.30	211.34
987.59	211.40
987.89	211.44
988.18	211.40
988.47	211.37
988.76	211.46
989.05	211.35
989.34	211.33
989.63	211.38
989.92	211.35
990.22	211.40
990.51	211.36
990.80	211.28
991.09	211.26
991.38	211.28
991.67	211.24
991.96	211.25
992.25	211.28
992.54	211.20
992.83	211.23
993.12	211.26
993.41	211.29
993.70	211.28
993.99	211.30
994.28	211.33
994.58	211.40
994.87	211.34
995.16	211.40
995.45	211.40
995.74	211.24
996.03	211.25
996.32	211.29
996.61	211.33
996.90	211.37
997.19	211.35
997.48	211.29
997.77	211.21
998.06	211.24
998.34	211.23
998.63	211.18
998.92	211.21
999.21	211.17
999.50	211.16
999.79	211.14
1000.08	211.10
1000.37	211.07
1000.66	210.97
1000.95	210.99
1001.24	210.98
1001.53	211.04
1001.82	211.10
1002.11	211.01
1002.40	211.07
1002.68	211.17
1002.97	211.23
1003.26	211.14
1003.55	211.14
1003.84	211.17
1004.13	211.20
1004.42	211.19
1004.71	211.23
1004.99	211.14
1005.28	211.25
1005.57	211.18
1005.86	211.13
1006.15	211.11
1006.44	211.08
1006.72	211.13
1007.01	211.16
1007.30	211.14
1007.59	211.09
1007.88	211.01
1008.17	211.07
1008.45	210.96
1008.74	210.80
1009.03	210.78
1009.32	210.80
1009.60	210.79
1009.89	210.80
1010.18	210.71
1010.47	210.65
1010.76	210.62
1011.04	210.66
1011.33	210.55
1011.62	210.60
1011.91	210.59
1012.19	210.57
1012.48	210.56
1012.77	210.52
1013.05	210.52
1013.34	210.56
1013.63	210.46
1013.92	210.52
1014.20	210.46
1014.49	210.46
1014.78	210.51
1015.06	210.44
1015.35	210.46
1015.64	210.52
1015.92	210.53
1016.21	210.54
1016.50	210.50
1016.78	210.50
1017.07	210.53
1017.36	210.47
1017.64	210.44
1017.93	210.50
1018.22	210.48
1018.50	210.52
1018.79	210.51
1019.08	210.47
1019.36	210.45
1019.65	210.48
1019.93	210.53
1020.22	210.59
1020.51	210.67
1020.79	210.61
1021.08	210.05
1021.36	210.75
1021.65	209.75
1021.94	210.75
1022.22	210.70
1022.51	209.95
1022.79	211.60
1023.08	211.05
1023.36	212.30
1023.65	209.85
>>>>>End Processed Spectral Data<<<<<
