SpectraSuite Data File
++++++++++++++++++++++++++++++++++++
Date: Mon Feb 25 17:30:17 EST 2013
User: group
Dark Spectrum Present: No
Reference Spectrum Present: No
Number of Sampled Component Spectra: 1
Spectrometers: USB2E7196
Integration Time (usec): 52000 (USB2E7196)
Spectra Averaged: 20 (USB2E7196)
Boxcar Smoothing: 10 (USB2E7196)
Correct for Electrical Dark: No (USB2E7196)
Strobe/Lamp Enabled: No (USB2E7196)
Correct for Detector Non-linearity: No (USB2E7196)
Correct for Stray Light: No (USB2E7196)
Number of Pixels in Processed Spectrum: 2048
>>>>>Begin Processed Spectral Data<<<<<
339.09	0.00
339.48	198.20
339.86	199.40
340.24	199.25
340.63	202.25
341.01	206.25
341.39	204.65
341.78	206.50
342.16	208.10
342.54	208.30
342.93	197.37
343.31	207.35
343.69	207.93
344.07	208.39
344.46	208.92
344.84	209.37
345.22	209.59
345.60	209.90
345.99	210.15
346.37	210.31
346.75	210.45
347.13	210.63
347.52	210.73
347.90	210.89
348.28	211.04
348.66	211.15
349.05	211.25
349.43	211.29
349.81	211.42
350.19	211.56
350.57	211.70
350.96	211.77
351.34	211.95
351.72	212.05
352.10	212.20
352.48	212.29
352.87	212.38
353.25	212.48
353.63	212.56
354.01	212.64
354.39	212.77
354.77	212.92
355.15	212.99
355.54	213.07
355.92	213.05
356.30	213.13
356.68	213.35
357.06	213.40
357.44	213.43
357.82	213.47
358.20	213.55
358.58	213.60
358.97	213.66
359.35	213.74
359.73	213.92
360.11	214.01
360.49	214.12
360.87	214.12
361.25	214.26
361.63	214.39
362.01	214.45
362.39	214.44
362.77	214.42
363.15	214.49
363.53	214.50
363.91	214.51
364.29	214.55
364.67	214.42
365.05	214.44
365.43	214.52
365.81	214.57
366.19	214.71
366.57	214.80
366.95	214.77
367.33	214.76
367.71	214.68
368.09	214.73
368.47	214.69
368.85	214.69
369.23	214.64
369.61	214.51
369.99	214.57
370.37	214.61
370.75	214.65
371.13	214.56
371.51	214.54
371.89	214.51
372.27	214.45
372.65	214.38
373.03	214.27
373.41	214.25
373.78	214.16
374.16	213.96
374.54	213.85
374.92	213.89
375.30	213.76
375.68	213.65
376.06	213.61
376.44	213.43
376.82	213.39
377.19	213.30
377.57	213.26
377.95	213.09
378.33	212.97
378.71	212.82
379.09	212.80
379.47	212.76
379.84	212.69
380.22	212.61
380.60	212.50
380.98	212.47
381.36	212.38
381.73	212.37
382.11	212.35
382.49	212.23
382.87	212.09
383.25	212.06
383.62	212.19
384.00	212.03
384.38	212.11
384.76	212.09
385.13	212.15
385.51	212.05
385.89	212.02
386.27	211.98
386.64	211.99
387.02	211.87
387.40	211.80
387.78	211.74
388.15	211.74
388.53	211.74
388.91	211.72
389.29	211.66
389.66	211.59
390.04	211.57
390.42	211.63
390.79	211.71
391.17	211.74
391.55	211.59
391.92	211.64
392.30	211.64
392.68	211.59
393.05	211.56
393.43	211.61
393.81	211.58
394.18	211.58
394.56	211.58
394.94	211.72
395.31	211.72
395.69	211.85
396.06	211.85
396.44	211.85
396.82	211.85
397.19	212.00
397.57	212.05
397.95	212.08
398.32	212.03
398.70	212.02
399.07	212.04
399.45	212.10
399.82	212.15
400.20	212.19
400.58	212.25
400.95	212.20
401.33	212.31
401.70	212.48
402.08	212.61
402.45	212.66
402.83	212.72
403.20	212.82
403.58	212.87
403.95	213.01
404.33	213.12
404.71	213.22
405.08	213.36
405.46	213.51
405.83	213.59
406.21	213.70
406.58	213.84
406.96	214.04
407.33	214.12
407.70	214.24
408.08	214.52
408.45	214.79
408.83	215.07
409.20	215.23
409.58	215.37
409.95	215.57
410.33	215.82
410.70	216.08
411.08	216.45
411.45	216.80
411.82	217.06
412.20	217.48
412.57	218.02
412.95	218.40
413.32	218.80
413.69	219.36
414.07	219.96
414.44	220.54
414.82	221.12
415.19	221.85
415.56	222.56
415.94	223.23
416.31	224.03
416.68	224.80
417.06	225.76
417.43	226.71
417.81	227.78
418.18	228.89
418.55	229.99
418.93	231.20
419.30	232.51
419.67	233.90
420.04	235.35
420.42	236.85
420.79	238.55
421.16	240.27
421.54	241.90
421.91	243.64
422.28	245.50
422.66	247.46
423.03	249.49
423.40	251.60
423.77	253.76
424.15	255.88
424.52	258.15
424.89	260.67
425.26	263.03
425.64	265.30
426.01	267.81
426.38	270.47
426.75	273.17
427.13	275.81
427.50	278.65
427.87	281.46
428.24	284.42
428.61	287.18
428.99	290.37
429.36	293.81
429.73	297.18
430.10	300.61
430.47	304.00
430.85	307.44
431.22	311.09
431.59	315.13
431.96	318.86
432.33	323.14
432.70	327.09
433.08	331.86
433.45	336.39
433.82	340.85
434.19	345.79
434.56	350.57
434.93	355.23
435.30	359.87
435.68	365.04
436.05	369.92
436.42	374.96
436.79	379.53
437.16	384.42
437.53	389.61
437.90	394.61
438.27	399.73
438.64	405.01
439.01	410.00
439.38	414.23
439.75	418.50
440.13	423.21
440.50	427.70
440.87	431.26
441.24	435.01
441.61	439.05
441.98	442.11
442.35	445.70
442.72	449.20
443.09	452.63
443.46	454.60
443.83	456.14
444.20	457.33
444.57	458.99
444.94	459.71
445.31	460.47
445.68	461.42
446.05	461.55
446.42	460.84
446.79	460.00
447.16	459.15
447.53	458.58
447.90	456.45
448.27	454.48
448.64	451.82
449.01	449.62
449.37	446.11
449.74	442.57
450.11	438.55
450.48	434.23
450.85	429.82
451.22	426.02
451.59	422.29
451.96	418.77
452.33	414.25
452.70	410.12
453.07	405.17
453.43	399.93
453.80	395.10
454.17	390.45
454.54	386.03
454.91	381.38
455.28	376.75
455.65	372.63
456.02	368.44
456.38	364.71
456.75	360.32
457.12	356.60
457.49	353.10
457.86	349.47
458.23	346.35
458.59	342.92
458.96	339.59
459.33	336.54
459.70	333.46
460.07	330.98
460.43	328.24
460.80	325.64
461.17	323.39
461.54	321.00
461.91	318.85
462.27	316.55
462.64	314.56
463.01	312.42
463.38	310.35
463.74	308.10
464.11	306.31
464.48	304.76
464.85	303.03
465.21	301.67
465.58	300.28
465.95	298.64
466.32	297.31
466.68	295.84
467.05	294.46
467.42	293.10
467.78	291.67
468.15	290.31
468.52	289.28
468.88	288.03
469.25	286.97
469.62	286.06
469.98	285.04
470.35	284.16
470.72	283.31
471.08	282.28
471.45	281.63
471.82	280.90
472.18	280.13
472.55	279.60
472.92	278.84
473.28	278.27
473.65	277.79
474.02	277.16
474.38	276.85
474.75	276.49
475.11	276.22
475.48	275.90
475.85	275.74
476.21	275.65
476.58	275.61
476.94	275.59
477.31	275.54
477.67	275.59
478.04	275.67
478.41	275.81
478.77	276.19
479.14	276.28
479.50	276.55
479.87	276.90
480.23	277.35
480.60	277.71
480.96	278.15
481.33	278.84
481.69	279.52
482.06	280.10
482.42	280.75
482.79	281.46
483.15	282.37
483.52	283.35
483.88	284.16
484.25	285.16
484.61	286.16
484.98	287.24
485.34	288.55
485.71	289.89
486.07	291.28
486.44	292.65
486.80	294.31
487.17	295.83
487.53	297.54
487.90	299.30
488.26	301.26
488.62	303.18
488.99	305.10
489.35	307.23
489.72	309.53
490.08	311.93
490.44	314.41
490.81	317.01
491.17	319.68
491.54	322.56
491.90	325.48
492.26	328.60
492.63	332.02
492.99	335.49
493.36	339.03
493.72	342.91
494.08	346.96
494.45	351.28
494.81	355.85
495.17	360.47
495.54	365.36
495.90	370.40
496.26	375.64
496.63	381.25
496.99	387.00
497.35	392.90
497.72	399.11
498.08	405.51
498.44	412.20
498.80	419.38
499.17	426.74
499.53	434.34
499.89	442.32
500.26	450.40
500.62	458.55
500.98	467.29
501.34	476.29
501.71	485.49
502.07	494.90
502.43	504.68
502.79	514.71
503.16	525.28
503.52	536.08
503.88	547.16
504.24	558.50
504.60	570.16
504.97	582.40
505.33	594.94
505.69	608.07
506.05	621.34
506.41	634.71
506.78	648.44
507.14	662.29
507.50	676.63
507.86	691.18
508.22	706.56
508.59	721.77
508.95	737.57
509.31	753.62
509.67	770.14
510.03	786.82
510.39	804.11
510.75	821.42
511.12	839.26
511.48	857.21
511.84	875.59
512.20	893.99
512.56	912.90
512.92	931.98
513.28	951.13
513.64	970.65
514.00	990.22
514.37	1010.17
514.73	1030.66
515.09	1051.13
515.45	1071.70
515.81	1092.34
516.17	1113.56
516.53	1134.36
516.89	1155.48
517.25	1176.50
517.61	1197.78
517.97	1218.88
518.33	1240.15
518.69	1261.37
519.05	1283.21
519.41	1305.04
519.77	1327.03
520.13	1348.60
520.49	1370.27
520.85	1392.27
521.21	1413.99
521.57	1436.29
521.93	1457.61
522.29	1479.76
522.65	1501.68
523.01	1523.67
523.37	1545.09
523.73	1566.78
524.09	1588.34
524.45	1610.31
524.81	1632.21
525.17	1654.24
525.53	1676.16
525.89	1697.80
526.25	1719.42
526.61	1739.98
526.97	1760.97
527.33	1781.70
527.68	1802.60
528.04	1823.15
528.40	1843.10
528.76	1863.18
529.12	1883.13
529.48	1904.46
529.84	1924.31
530.20	1944.03
530.56	1963.86
530.91	1983.77
531.27	2003.54
531.63	2023.02
531.99	2041.99
532.35	2060.24
532.71	2078.44
533.07	2097.14
533.42	2114.93
533.78	2132.78
534.14	2150.65
534.50	2166.93
534.86	2184.48
535.21	2200.68
535.57	2217.58
535.93	2234.14
536.29	2250.57
536.65	2266.65
537.00	2281.22
537.36	2296.03
537.72	2310.70
538.08	2325.25
538.44	2339.96
538.79	2354.47
539.15	2368.98
539.51	2382.80
539.87	2397.58
540.22	2411.57
540.58	2425.65
540.94	2439.53
541.29	2452.25
541.65	2463.99
542.01	2476.76
542.37	2487.88
542.72	2499.47
543.08	2510.10
543.44	2521.29
543.79	2530.71
544.15	2540.61
544.51	2551.14
544.87	2560.93
545.22	2569.57
545.58	2577.28
545.94	2584.14
546.29	2590.15
546.65	2595.46
547.01	2601.03
547.36	2606.04
547.72	2610.74
548.07	2614.35
548.43	2617.52
548.79	2620.71
549.14	2624.57
549.50	2628.20
549.86	2631.67
550.21	2634.94
550.57	2638.04
550.92	2640.45
551.28	2643.24
551.64	2644.81
551.99	2646.66
552.35	2648.32
552.70	2650.50
553.06	2652.89
553.41	2655.58
553.77	2657.85
554.13	2659.76
554.48	2661.50
554.84	2662.46
555.19	2662.51
555.55	2662.12
555.90	2662.24
556.26	2662.29
556.61	2662.11
556.97	2661.10
557.32	2660.37
557.68	2658.55
558.03	2657.11
558.39	2654.95
558.74	2653.92
559.10	2652.61
559.45	2650.68
559.81	2648.93
560.16	2646.00
560.52	2643.41
560.87	2640.43
561.23	2636.54
561.58	2634.30
561.94	2630.88
562.29	2627.02
562.64	2624.84
563.00	2622.36
563.35	2620.06
563.71	2618.22
564.06	2615.86
564.42	2613.48
564.77	2610.65
565.12	2608.88
565.48	2605.43
565.83	2602.50
566.19	2598.97
566.54	2594.67
566.89	2590.46
567.25	2586.77
567.60	2583.48
567.96	2579.72
568.31	2575.56
568.66	2572.10
569.02	2566.96
569.37	2561.97
569.72	2558.34
570.08	2552.85
570.43	2547.71
570.78	2542.15
571.14	2535.60
571.49	2529.14
571.84	2523.16
572.20	2516.61
572.55	2509.90
572.90	2503.18
573.26	2496.05
573.61	2489.15
573.96	2482.87
574.31	2475.27
574.67	2467.15
575.02	2458.86
575.37	2450.26
575.72	2441.42
576.08	2433.89
576.43	2425.97
576.78	2418.39
577.13	2410.12
577.49	2402.31
577.84	2394.36
578.19	2386.65
578.54	2379.76
578.90	2372.87
579.25	2364.49
579.60	2355.50
579.95	2346.64
580.30	2339.14
580.66	2331.53
581.01	2322.87
581.36	2313.89
581.71	2306.00
582.06	2297.84
582.42	2290.31
582.77	2281.70
583.12	2273.37
583.47	2264.68
583.82	2256.35
584.17	2247.35
584.53	2239.12
584.88	2230.51
585.23	2221.89
585.58	2212.84
585.93	2203.34
586.28	2194.55
586.63	2186.13
586.98	2178.62
587.34	2170.81
587.69	2161.88
588.04	2153.14
588.39	2144.93
588.74	2136.19
589.09	2127.67
589.44	2118.53
589.79	2109.78
590.14	2102.41
590.49	2094.55
590.84	2085.83
591.19	2078.16
591.54	2069.94
591.89	2060.20
592.25	2051.66
592.60	2042.66
592.95	2033.85
593.30	2024.66
593.65	2015.29
594.00	2005.77
594.35	1997.85
594.70	1988.83
595.05	1980.55
595.40	1971.87
595.75	1963.01
596.10	1955.36
596.45	1947.15
596.80	1939.78
597.15	1931.99
597.50	1923.14
597.85	1915.15
598.19	1906.95
598.54	1898.50
598.89	1891.01
599.24	1884.44
599.59	1877.21
599.94	1870.21
600.29	1862.80
600.64	1855.27
600.99	1847.20
601.34	1840.44
601.69	1831.77
602.04	1823.70
602.39	1815.86
602.74	1808.64
603.08	1801.90
603.43	1794.69
603.78	1787.18
604.13	1779.20
604.48	1771.48
604.83	1764.92
605.18	1757.79
605.53	1750.55
605.87	1743.19
606.22	1736.41
606.57	1728.70
606.92	1721.08
607.27	1713.55
607.62	1706.46
607.96	1699.92
608.31	1694.10
608.66	1686.54
609.01	1679.51
609.36	1672.43
609.70	1664.84
610.05	1657.07
610.40	1649.50
610.75	1641.75
611.10	1634.30
611.44	1625.95
611.79	1617.31
612.14	1608.26
612.49	1599.24
612.83	1590.96
613.18	1581.66
613.53	1572.06
613.88	1562.73
614.22	1553.96
614.57	1544.84
614.92	1535.62
615.27	1526.76
615.61	1517.04
615.96	1508.40
616.31	1500.05
616.65	1492.51
617.00	1484.58
617.35	1476.43
617.70	1467.77
618.04	1458.95
618.39	1449.68
618.74	1441.53
619.08	1433.37
619.43	1425.72
619.78	1418.40
620.12	1410.55
620.47	1402.93
620.82	1395.14
621.16	1387.38
621.51	1379.25
621.85	1371.57
622.20	1363.74
622.55	1355.55
622.89	1347.72
623.24	1339.88
623.59	1331.37
623.93	1322.87
624.28	1314.81
624.62	1307.04
624.97	1299.06
625.32	1291.38
625.66	1284.54
626.01	1277.54
626.35	1270.49
626.70	1262.56
627.04	1255.18
627.39	1247.63
627.73	1240.55
628.08	1233.76
628.43	1226.54
628.77	1219.48
629.12	1212.08
629.46	1205.58
629.81	1198.65
630.15	1191.72
630.50	1184.66
630.84	1177.54
631.19	1170.52
631.53	1163.88
631.88	1156.44
632.22	1148.82
632.57	1142.11
632.91	1134.66
633.26	1127.47
633.60	1120.38
633.95	1113.98
634.29	1106.68
634.64	1100.26
634.98	1093.44
635.32	1086.71
635.67	1080.43
636.01	1073.82
636.36	1067.43
636.70	1060.87
637.05	1054.39
637.39	1048.19
637.73	1042.12
638.08	1036.59
638.42	1031.13
638.77	1024.80
639.11	1018.73
639.45	1013.23
639.80	1006.86
640.14	1000.70
640.49	994.55
640.83	988.34
641.17	982.12
641.52	976.26
641.86	969.92
642.20	964.14
642.55	957.51
642.89	951.22
643.23	945.22
643.58	939.54
643.92	933.31
644.26	927.36
644.61	921.27
644.95	915.28
645.29	909.22
645.64	902.58
645.98	896.48
646.32	890.76
646.66	884.70
647.01	878.85
647.35	873.19
647.69	867.05
648.04	861.35
648.38	855.51
648.72	849.68
649.06	843.76
649.41	837.76
649.75	832.28
650.09	826.59
650.43	820.85
650.78	814.72
651.12	808.74
651.46	803.00
651.80	797.46
652.14	791.65
652.49	785.74
652.83	780.10
653.17	774.24
653.51	768.67
653.85	763.11
654.20	757.41
654.54	751.82
654.88	746.70
655.22	741.34
655.56	735.71
655.90	730.22
656.25	724.76
656.59	719.34
656.93	714.24
657.27	709.29
657.61	703.98
657.95	699.02
658.29	694.23
658.64	689.27
658.98	684.15
659.32	679.22
659.66	674.34
660.00	669.25
660.34	664.32
660.68	659.23
661.02	654.35
661.36	649.83
661.70	645.21
662.05	640.70
662.39	636.15
662.73	631.93
663.07	627.74
663.41	623.58
663.75	619.29
664.09	614.64
664.43	609.94
664.77	605.66
665.11	601.35
665.45	596.94
665.79	592.67
666.13	588.50
666.47	584.20
666.81	580.16
667.15	576.32
667.49	572.70
667.83	568.81
668.17	565.07
668.51	561.40
668.85	557.67
669.19	553.88
669.53	550.13
669.87	546.25
670.21	542.47
670.55	538.68
670.89	535.32
671.23	532.15
671.57	528.76
671.91	525.46
672.25	522.08
672.58	518.74
672.92	515.29
673.26	512.12
673.60	509.00
673.94	505.66
674.28	502.54
674.62	499.25
674.96	496.25
675.30	493.34
675.64	490.15
675.97	487.10
676.31	484.20
676.65	481.38
676.99	478.75
677.33	475.82
677.67	472.96
678.01	469.90
678.34	466.90
678.68	464.22
679.02	461.29
679.36	458.48
679.70	455.73
680.04	453.09
680.37	450.25
680.71	447.58
681.05	445.08
681.39	442.47
681.73	439.92
682.06	437.53
682.40	435.13
682.74	432.52
683.08	430.19
683.42	427.60
683.75	425.05
684.09	422.54
684.43	420.18
684.77	417.80
685.10	415.39
685.44	412.89
685.78	410.47
686.12	408.20
686.45	406.03
686.79	403.95
687.13	401.90
687.46	399.86
687.80	397.83
688.14	395.61
688.48	393.54
688.81	391.52
689.15	389.30
689.49	386.94
689.82	384.93
690.16	382.62
690.50	380.45
690.83	378.36
691.17	376.13
691.51	373.94
691.84	371.92
692.18	370.00
692.52	368.19
692.85	366.45
693.19	364.71
693.52	362.77
693.86	360.66
694.20	358.78
694.53	356.84
694.87	354.95
695.21	353.12
695.54	351.24
695.88	349.38
696.21	347.64
696.55	345.99
696.88	344.26
697.22	342.56
697.56	341.02
697.89	339.50
698.23	337.92
698.56	336.45
698.90	334.96
699.23	333.33
699.57	331.80
699.90	330.13
700.24	328.45
700.58	326.94
700.91	325.62
701.25	324.27
701.58	322.88
701.92	321.42
702.25	320.03
702.59	318.66
702.92	317.23
703.26	315.81
703.59	314.52
703.93	313.51
704.26	312.38
704.60	311.13
704.93	309.87
705.26	308.74
705.60	307.55
705.93	306.33
706.27	305.30
706.60	304.27
706.94	303.19
707.27	302.04
707.61	300.94
707.94	299.79
708.27	298.57
708.61	297.53
708.94	296.48
709.28	295.37
709.61	294.20
709.94	293.25
710.28	292.31
710.61	291.30
710.95	290.02
711.28	289.14
711.61	288.05
711.95	287.06
712.28	286.05
712.61	285.10
712.95	284.17
713.28	283.23
713.61	282.24
713.95	281.40
714.28	280.66
714.61	279.73
714.95	278.82
715.28	277.89
715.61	276.96
715.95	276.06
716.28	275.27
716.61	274.53
716.95	273.68
717.28	272.89
717.61	272.11
717.94	271.39
718.28	270.47
718.61	269.78
718.94	269.06
719.27	268.32
719.61	267.68
719.94	267.03
720.27	266.26
720.60	265.48
720.94	264.76
721.27	264.04
721.60	263.50
721.93	262.92
722.27	262.43
722.60	261.85
722.93	261.25
723.26	260.73
723.59	260.18
723.93	259.62
724.26	258.97
724.59	258.36
724.92	257.86
725.25	257.44
725.59	256.90
725.92	256.38
726.25	255.91
726.58	255.45
726.91	254.99
727.24	254.60
727.57	254.19
727.91	253.62
728.24	253.18
728.57	252.72
728.90	252.30
729.23	251.72
729.56	251.39
729.89	250.98
730.22	250.53
730.55	250.05
730.89	249.64
731.22	249.20
731.55	248.88
731.88	248.43
732.21	247.90
732.54	247.48
732.87	247.10
733.20	246.69
733.53	246.19
733.86	245.70
734.19	245.19
734.52	244.88
734.85	244.71
735.18	244.29
735.51	243.85
735.84	243.46
736.17	243.12
736.50	242.65
736.83	242.51
737.16	242.18
737.49	241.87
737.82	241.56
738.15	241.33
738.48	240.88
738.81	240.51
739.14	240.18
739.47	239.87
739.80	239.48
740.13	239.11
740.46	238.79
740.79	238.37
741.12	238.00
741.45	237.65
741.78	237.21
742.11	236.93
742.44	236.64
742.77	236.33
743.10	236.06
743.43	235.80
743.75	235.36
744.08	235.22
744.41	234.91
744.74	234.52
745.07	234.18
745.40	234.05
745.73	233.94
746.06	233.69
746.39	233.42
746.71	233.14
747.04	232.86
747.37	232.56
747.70	232.43
748.03	232.25
748.36	232.00
748.68	231.74
749.01	231.52
749.34	231.26
749.67	231.09
750.00	230.87
750.33	230.65
750.65	230.40
750.98	230.03
751.31	229.82
751.64	229.65
751.97	229.50
752.29	229.23
752.62	228.78
752.95	228.54
753.28	228.25
753.60	228.03
753.93	227.96
754.26	227.80
754.59	227.55
754.91	227.37
755.24	227.20
755.57	227.11
755.90	226.83
756.22	226.65
756.55	226.45
756.88	226.20
757.20	225.96
757.53	225.74
757.86	225.49
758.19	225.25
758.51	225.10
758.84	224.89
759.17	224.72
759.49	224.51
759.82	224.43
760.15	224.31
760.47	224.15
760.80	223.90
761.13	223.75
761.45	223.56
761.78	223.27
762.11	223.09
762.43	222.85
762.76	222.70
763.08	222.64
763.41	222.44
763.74	222.35
764.06	222.20
764.39	222.03
764.71	221.90
765.04	221.77
765.37	221.65
765.69	221.43
766.02	221.34
766.34	221.30
766.67	221.12
767.00	221.03
767.32	221.05
767.65	220.90
767.97	220.78
768.30	220.66
768.62	220.70
768.95	220.58
769.27	220.42
769.60	220.35
769.92	220.13
770.25	220.00
770.57	219.83
770.90	219.71
771.22	219.58
771.55	219.51
771.87	219.45
772.20	219.30
772.52	219.30
772.85	219.35
773.17	219.28
773.50	219.18
773.82	219.07
774.15	218.86
774.47	218.74
774.80	218.64
775.12	218.57
775.45	218.47
775.77	218.37
776.09	218.32
776.42	218.19
776.74	218.11
777.07	218.05
777.39	218.03
777.72	217.93
778.04	217.83
778.36	217.73
778.69	217.67
779.01	217.60
779.33	217.37
779.66	217.07
779.98	217.00
780.31	216.90
780.63	216.94
780.95	216.87
781.28	216.82
781.60	216.72
781.92	216.65
782.25	216.57
782.57	216.55
782.89	216.45
783.22	216.41
783.54	216.36
783.86	216.30
784.19	216.16
784.51	216.18
784.83	216.14
785.16	216.05
785.48	215.99
785.80	215.92
786.12	215.96
786.45	215.93
786.77	215.89
787.09	215.88
787.42	215.77
787.74	215.73
788.06	215.71
788.38	215.68
788.71	215.57
789.03	215.53
789.35	215.48
789.67	215.50
789.99	215.49
790.32	215.44
790.64	215.42
790.96	215.54
791.28	215.44
791.61	215.44
791.93	215.39
792.25	215.34
792.57	215.51
792.89	215.49
793.21	215.43
793.54	215.36
793.86	215.30
794.18	215.24
794.50	215.22
794.82	215.20
795.14	215.21
795.47	215.26
795.79	215.18
796.11	215.11
796.43	215.06
796.75	215.04
797.07	215.02
797.39	214.95
797.71	214.83
798.04	214.75
798.36	214.73
798.68	214.73
799.00	214.70
799.32	214.54
799.64	214.53
799.96	214.55
800.28	214.55
800.60	214.46
800.92	214.42
801.24	214.33
801.56	214.26
801.89	214.19
802.21	214.10
802.53	214.07
802.85	214.07
803.17	214.05
803.49	213.99
803.81	213.90
804.13	213.87
804.45	213.80
804.77	213.85
805.09	213.82
805.41	213.79
805.73	213.67
806.05	213.57
806.37	213.41
806.69	213.37
807.01	213.33
807.33	213.38
807.65	213.32
807.97	213.39
808.28	213.31
808.60	213.30
808.92	213.29
809.24	213.33
809.56	213.30
809.88	213.27
810.20	213.22
810.52	213.27
810.84	213.20
811.16	213.15
811.48	213.08
811.80	213.09
812.12	213.04
812.43	213.13
812.75	213.19
813.07	213.23
813.39	213.23
813.71	213.17
814.03	213.12
814.35	213.12
814.67	213.04
814.98	213.03
815.30	213.01
815.62	212.99
815.94	212.93
816.26	212.86
816.58	212.74
816.89	212.76
817.21	212.67
817.53	212.69
817.85	212.68
818.17	212.65
818.48	212.53
818.80	212.59
819.12	212.59
819.44	212.51
819.76	212.49
820.07	212.44
820.39	212.48
820.71	212.41
821.03	212.38
821.34	212.32
821.66	212.34
821.98	212.31
822.30	212.27
822.61	212.31
822.93	212.38
823.25	212.45
823.57	212.38
823.88	212.45
824.20	212.39
824.52	212.40
824.83	212.44
825.15	212.38
825.47	212.32
825.79	212.25
826.10	212.26
826.42	212.27
826.74	212.26
827.05	212.11
827.37	212.11
827.69	212.07
828.00	212.12
828.32	212.09
828.64	212.03
828.95	212.13
829.27	212.11
829.58	212.07
829.90	212.07
830.22	212.10
830.53	212.03
830.85	212.08
831.17	212.05
831.48	212.02
831.80	212.17
832.11	212.16
832.43	212.11
832.75	212.04
833.06	212.10
833.38	212.02
833.69	212.07
834.01	212.09
834.32	212.07
834.64	212.06
834.96	212.10
835.27	212.10
835.59	212.07
835.90	212.00
836.22	211.97
836.53	211.99
836.85	211.96
837.16	212.17
837.48	212.17
837.79	212.23
838.11	212.23
838.42	212.17
838.74	212.21
839.05	212.22
839.37	212.29
839.68	212.22
840.00	212.20
840.31	212.30
840.63	212.31
840.94	212.35
841.26	212.30
841.57	212.25
841.88	212.30
842.20	212.26
842.51	212.20
842.83	212.23
843.14	212.34
843.46	212.31
843.77	212.16
844.08	212.12
844.40	212.06
844.71	212.07
845.03	212.05
845.34	212.03
845.65	211.98
845.97	211.93
846.28	211.92
846.60	211.99
846.91	211.94
847.22	211.92
847.54	211.95
847.85	211.99
848.16	212.07
848.48	212.02
848.79	212.07
849.10	212.11
849.42	212.15
849.73	211.92
850.04	211.86
850.36	211.82
850.67	211.87
850.98	211.86
851.30	211.85
851.61	211.83
851.92	211.79
852.23	211.87
852.55	211.88
852.86	211.84
853.17	211.88
853.49	211.87
853.80	211.90
854.11	211.93
854.42	211.91
854.74	211.84
855.05	211.92
855.36	211.81
855.67	211.82
855.99	211.81
856.30	212.04
856.61	212.06
856.92	212.04
857.23	212.06
857.55	212.07
857.86	212.06
858.17	212.07
858.48	212.09
858.79	212.04
859.11	212.10
859.42	212.13
859.73	212.04
860.04	212.07
860.35	212.05
860.66	211.88
860.98	211.85
861.29	211.87
861.60	211.86
861.91	211.98
862.22	212.03
862.53	212.00
862.84	211.78
863.16	211.91
863.47	211.91
863.78	211.90
864.09	211.88
864.40	211.88
864.71	211.87
865.02	211.85
865.33	211.88
865.64	211.88
865.95	211.87
866.27	212.02
866.58	212.00
866.89	211.95
867.20	212.01
867.51	212.02
867.82	211.95
868.13	211.94
868.44	211.87
868.75	211.85
869.06	211.84
869.37	211.86
869.68	211.76
869.99	211.77
870.30	211.74
870.61	211.71
870.92	211.72
871.23	211.76
871.54	211.73
871.85	211.70
872.16	211.63
872.47	211.59
872.78	211.50
873.09	211.47
873.40	211.45
873.71	211.45
874.02	211.43
874.33	211.49
874.64	211.38
874.95	211.34
875.26	211.26
875.56	211.21
875.87	211.18
876.18	211.16
876.49	211.30
876.80	211.36
877.11	211.39
877.42	211.35
877.73	211.31
878.04	211.31
878.35	211.33
878.66	211.37
878.96	211.33
879.27	211.27
879.58	211.20
879.89	211.23
880.20	211.28
880.51	211.28
880.82	211.24
881.12	211.32
881.43	211.30
881.74	211.29
882.05	211.21
882.36	211.21
882.67	211.25
882.97	211.10
883.28	211.00
883.59	210.95
883.90	210.97
884.21	211.03
884.51	211.02
884.82	210.93
885.13	210.95
885.44	210.94
885.74	211.01
886.05	211.11
886.36	211.09
886.67	211.06
886.98	211.21
887.28	211.26
887.59	211.29
887.90	211.34
888.20	211.30
888.51	211.39
888.82	211.37
889.13	211.35
889.43	211.45
889.74	211.53
890.05	211.54
890.35	211.60
890.66	211.52
890.97	211.55
891.28	211.61
891.58	211.57
891.89	211.68
892.20	211.62
892.50	211.60
892.81	211.58
893.12	211.59
893.42	211.50
893.73	211.46
894.04	211.40
894.34	211.40
894.65	211.46
894.95	211.52
895.26	211.58
895.57	211.70
895.87	211.62
896.18	211.64
896.48	211.68
896.79	211.64
897.10	211.69
897.40	211.62
897.71	211.68
898.01	211.73
898.32	211.72
898.63	211.76
898.93	211.76
899.24	211.78
899.54	211.83
899.85	211.72
900.15	211.79
900.46	211.78
900.76	211.89
901.07	211.82
901.38	211.80
901.68	211.87
901.99	211.77
902.29	211.74
902.60	211.67
902.90	211.62
903.21	211.55
903.51	211.52
903.82	211.62
904.12	211.61
904.43	211.59
904.73	211.54
905.03	211.55
905.34	211.75
905.64	211.78
905.95	211.68
906.25	211.78
906.56	211.69
906.86	211.72
907.17	211.65
907.47	211.74
907.77	211.72
908.08	211.61
908.38	211.58
908.69	211.56
908.99	211.59
909.30	211.64
909.60	211.68
909.90	211.73
910.21	211.70
910.51	211.65
910.81	211.57
911.12	211.62
911.42	211.62
911.73	211.37
912.03	211.37
912.33	211.48
912.64	211.48
912.94	211.52
913.24	211.48
913.55	211.48
913.85	211.34
914.15	211.30
914.46	211.37
914.76	211.37
915.06	211.40
915.37	211.39
915.67	211.27
915.97	211.30
916.27	211.16
916.58	211.09
916.88	211.08
917.18	211.15
917.49	211.22
917.79	211.19
918.09	211.28
918.39	211.35
918.70	211.27
919.00	211.21
919.30	211.27
919.60	211.31
919.91	211.30
920.21	211.34
920.51	211.35
920.81	211.32
921.12	211.39
921.42	211.38
921.72	211.35
922.02	211.41
922.32	211.40
922.63	211.45
922.93	211.62
923.23	211.63
923.53	211.60
923.83	211.49
924.13	211.54
924.44	211.49
924.74	211.46
925.04	211.49
925.34	211.46
925.64	211.42
925.94	211.33
926.24	211.35
926.55	211.39
926.85	211.41
927.15	211.44
927.45	211.44
927.75	211.44
928.05	211.53
928.35	211.62
928.65	211.67
928.95	211.72
929.26	211.65
929.56	211.69
929.86	211.76
930.16	211.75
930.46	211.68
930.76	211.62
931.06	211.52
931.36	211.45
931.66	211.47
931.96	211.43
932.26	211.46
932.56	211.41
932.86	211.42
933.16	211.37
933.46	211.30
933.76	211.23
934.06	211.24
934.36	211.24
934.66	211.21
934.96	211.18
935.26	211.17
935.56	211.13
935.86	211.06
936.16	210.99
936.46	210.94
936.76	210.95
937.06	210.94
937.36	211.04
937.66	211.11
937.96	211.16
938.26	211.13
938.56	211.16
938.86	211.15
939.16	211.18
939.46	211.18
939.76	211.17
940.06	211.14
940.35	211.09
940.65	211.01
940.95	210.97
941.25	210.95
941.55	210.94
941.85	210.96
942.15	210.96
942.45	211.00
942.75	210.96
943.04	210.94
943.34	210.96
943.64	210.87
943.94	210.85
944.24	210.78
944.54	210.80
944.84	210.75
945.13	210.75
945.43	210.66
945.73	210.69
946.03	210.71
946.33	210.75
946.62	210.72
946.92	210.69
947.22	210.71
947.52	210.63
947.82	210.57
948.11	210.48
948.41	210.46
948.71	210.36
949.01	210.40
949.31	210.40
949.60	210.40
949.90	210.47
950.20	210.41
950.50	210.44
950.79	210.45
951.09	210.42
951.39	210.44
951.69	210.44
951.98	210.45
952.28	210.51
952.58	210.46
952.87	210.48
953.17	210.48
953.47	210.44
953.76	210.41
954.06	210.42
954.36	210.41
954.66	210.41
954.95	210.50
955.25	210.55
955.55	210.56
955.84	210.56
956.14	210.55
956.44	210.51
956.73	210.43
957.03	210.41
957.32	210.52
957.62	210.46
957.92	210.55
958.21	210.53
958.51	210.64
958.81	210.66
959.10	210.70
959.40	210.72
959.69	210.80
959.99	210.90
960.29	210.92
960.58	210.90
960.88	210.95
961.17	210.89
961.47	210.95
961.76	210.92
962.06	210.91
962.36	210.89
962.65	210.93
962.95	211.04
963.24	211.08
963.54	211.05
963.83	211.10
964.13	211.05
964.42	210.97
964.72	210.88
965.01	210.86
965.31	210.74
965.60	210.75
965.90	210.76
966.19	210.68
966.49	210.65
966.78	210.72
967.08	210.78
967.37	210.84
967.67	210.73
967.96	210.80
968.26	210.75
968.55	210.82
968.85	210.84
969.14	210.80
969.43	210.77
969.73	210.70
970.02	210.64
970.32	210.65
970.61	210.70
970.91	210.63
971.20	210.69
971.49	210.83
971.79	210.89
972.08	210.78
972.38	210.86
972.67	210.92
972.96	210.96
973.26	210.92
973.55	210.91
973.85	210.92
974.14	210.82
974.43	210.94
974.73	210.82
975.02	210.81
975.31	210.83
975.61	210.82
975.90	210.80
976.19	210.80
976.49	210.86
976.78	210.93
977.07	210.91
977.37	210.88
977.66	210.86
977.95	210.70
978.24	210.78
978.54	210.86
978.83	210.86
979.12	210.85
979.42	210.81
979.71	210.90
980.00	210.90
980.29	211.02
980.59	211.01
980.88	211.10
981.17	211.13
981.46	211.15
981.76	211.12
982.05	211.22
982.34	211.28
982.63	211.23
982.93	211.18
983.22	211.27
983.51	211.27
983.80	211.35
984.09	211.51
984.39	211.45
984.68	211.33
984.97	211.29
985.26	211.20
985.55	211.24
985.85	211.12
986.14	211.10
986.43	211.08
986.72	211.02
987.01	210.99
987.30	210.99
987.59	210.94
987.89	210.98
988.18	210.96
988.47	210.95
988.76	210.99
989.05	210.99
989.34	210.97
989.63	211.01
989.92	210.99
990.22	210.87
990.51	210.95
990.80	210.96
991.09	210.99
991.38	211.05
991.67	211.07
991.96	211.12
992.25	211.07
992.54	211.01
992.83	210.98
993.12	210.94
993.41	210.90
993.70	210.92
993.99	211.01
994.28	210.98
994.58	210.93
994.87	210.84
995.16	210.80
995.45	210.71
995.74	210.71
996.03	210.67
996.32	210.76
996.61	210.70
996.90	210.69
997.19	210.62
997.48	210.59
997.77	210.51
998.06	210.45
998.34	210.52
998.63	210.56
998.92	210.60
999.21	210.65
999.50	210.69
999.79	210.64
1000.08	210.58
1000.37	210.61
1000.66	210.61
1000.95	210.65
1001.24	210.68
1001.53	210.71
1001.82	210.75
1002.11	210.68
1002.40	210.66
1002.68	210.68
1002.97	210.80
1003.26	210.83
1003.55	210.86
1003.84	210.87
1004.13	210.93
1004.42	210.90
1004.71	210.90
1004.99	210.87
1005.28	210.85
1005.57	210.85
1005.86	210.88
1006.15	210.87
1006.44	210.89
1006.72	210.93
1007.01	211.00
1007.30	211.01
1007.59	210.99
1007.88	210.92
1008.17	210.95
1008.45	210.90
1008.74	210.85
1009.03	210.78
1009.32	210.76
1009.60	210.75
1009.89	210.74
1010.18	210.68
1010.47	210.77
1010.76	210.76
1011.04	210.84
1011.33	210.90
1011.62	210.89
1011.91	210.87
1012.19	210.85
1012.48	210.78
1012.77	210.74
1013.05	210.81
1013.34	210.80
1013.63	210.86
1013.92	210.86
1014.20	210.84
1014.49	210.91
1014.78	210.95
1015.06	210.88
1015.35	210.90
1015.64	210.86
1015.92	210.86
1016.21	210.88
1016.50	210.85
1016.78	210.88
1017.07	210.84
1017.36	210.77
1017.64	210.75
1017.93	210.78
1018.22	210.78
1018.50	210.80
1018.79	210.83
1019.08	210.70
1019.36	210.66
1019.65	210.55
1019.93	210.58
1020.22	210.69
1020.51	210.76
1020.79	210.76
1021.08	210.10
1021.36	210.05
1021.65	211.00
1021.94	210.90
1022.22	209.75
1022.51	209.35
1022.79	211.25
1023.08	212.00
1023.36	213.35
1023.65	210.75
>>>>>End Processed Spectral Data<<<<<
