SpectraSuite Data File
++++++++++++++++++++++++++++++++++++
Date: Mon Feb 25 17:33:45 EST 2013
User: group
Dark Spectrum Present: No
Reference Spectrum Present: No
Number of Sampled Component Spectra: 1
Spectrometers: USB2E7196
Integration Time (usec): 52000 (USB2E7196)
Spectra Averaged: 20 (USB2E7196)
Boxcar Smoothing: 10 (USB2E7196)
Correct for Electrical Dark: No (USB2E7196)
Strobe/Lamp Enabled: No (USB2E7196)
Correct for Detector Non-linearity: No (USB2E7196)
Correct for Stray Light: No (USB2E7196)
Number of Pixels in Processed Spectrum: 2048
>>>>>Begin Processed Spectral Data<<<<<
339.09	0.00
339.48	199.00
339.86	200.70
340.24	202.75
340.63	203.05
341.01	207.55
341.39	207.70
341.78	207.90
342.16	209.55
342.54	209.80
342.93	198.72
343.31	208.76
343.69	209.32
344.07	209.80
344.46	210.23
344.84	210.66
345.22	210.83
345.60	211.01
345.99	211.16
346.37	211.21
346.75	211.31
347.13	211.38
347.52	211.43
347.90	211.58
348.28	211.65
348.66	211.74
349.05	211.70
349.43	211.76
349.81	211.77
350.19	211.78
350.57	211.83
350.96	211.82
351.34	211.93
351.72	212.04
352.10	212.12
352.48	212.12
352.87	212.12
353.25	212.16
353.63	212.23
354.01	212.33
354.39	212.45
354.77	212.44
355.15	212.51
355.54	212.54
355.92	212.56
356.30	212.62
356.68	212.73
357.06	212.77
357.44	212.71
357.82	212.76
358.20	212.82
358.58	212.83
358.97	212.88
359.35	212.89
359.73	212.89
360.11	212.90
360.49	213.05
360.87	213.05
361.25	213.15
361.63	213.20
362.01	213.20
362.39	213.20
362.77	213.28
363.15	213.31
363.53	213.34
363.91	213.32
364.29	213.37
364.67	213.22
365.05	213.29
365.43	213.37
365.81	213.37
366.19	213.52
366.57	213.59
366.95	213.61
367.33	213.62
367.71	213.64
368.09	213.68
368.47	213.58
368.85	213.63
369.23	213.61
369.61	213.63
369.99	213.69
370.37	213.74
370.75	213.79
371.13	213.77
371.51	213.70
371.89	213.73
372.27	213.67
372.65	213.72
373.03	213.64
373.41	213.62
373.78	213.61
374.16	213.45
374.54	213.40
374.92	213.42
375.30	213.41
375.68	213.38
376.06	213.37
376.44	213.35
376.82	213.28
377.19	213.22
377.57	213.07
377.95	212.99
378.33	212.89
378.71	212.79
379.09	212.85
379.47	212.80
379.84	212.77
380.22	212.71
380.60	212.61
380.98	212.59
381.36	212.53
381.73	212.49
382.11	212.53
382.49	212.56
382.87	212.40
383.25	212.35
383.62	212.52
384.00	212.45
384.38	212.42
384.76	212.47
385.13	212.55
385.51	212.63
385.89	212.56
386.27	212.64
386.64	212.59
387.02	212.43
387.40	212.46
387.78	212.47
388.15	212.50
388.53	212.50
388.91	212.47
389.29	212.42
389.66	212.40
390.04	212.33
390.42	212.23
390.79	212.26
391.17	212.24
391.55	212.00
391.92	211.96
392.30	212.00
392.68	211.91
393.05	211.85
393.43	211.79
393.81	211.75
394.18	211.55
394.56	211.59
394.94	211.68
395.31	211.59
395.69	211.57
396.06	211.54
396.44	211.50
396.82	211.47
397.19	211.59
397.57	211.63
397.95	211.63
398.32	211.63
398.70	211.59
399.07	211.64
399.45	211.67
399.82	211.74
400.20	211.68
400.58	211.74
400.95	211.78
401.33	211.80
401.70	212.05
402.08	212.20
402.45	212.27
402.83	212.31
403.20	212.46
403.58	212.54
403.95	212.63
404.33	212.80
404.71	212.88
405.08	213.08
405.46	213.13
405.83	213.23
406.21	213.34
406.58	213.55
406.96	213.60
407.33	213.77
407.70	213.90
408.08	214.21
408.45	214.44
408.83	214.67
409.20	214.95
409.58	215.05
409.95	215.39
410.33	215.66
410.70	215.94
411.08	216.26
411.45	216.65
411.82	217.07
412.20	217.48
412.57	218.09
412.95	218.40
413.32	219.03
413.69	219.65
414.07	220.27
414.44	220.91
414.82	221.66
415.19	222.43
415.56	223.19
415.94	224.00
416.31	224.95
416.68	225.78
417.06	226.83
417.43	227.82
417.81	228.86
418.18	230.01
418.55	231.21
418.93	232.53
419.30	233.82
419.67	235.22
420.04	236.60
420.42	238.02
420.79	239.87
421.16	241.56
421.54	243.34
421.91	245.15
422.28	247.10
422.66	249.10
423.03	251.17
423.40	253.31
423.77	255.43
424.15	257.65
424.52	260.04
424.89	262.51
425.26	264.93
425.64	267.25
426.01	269.86
426.38	272.57
426.75	275.29
427.13	278.10
427.50	280.96
427.87	284.16
428.24	287.22
428.61	290.06
428.99	293.31
429.36	296.80
429.73	300.26
430.10	303.69
430.47	307.23
430.85	310.78
431.22	314.68
431.59	318.86
431.96	322.82
432.33	327.20
432.70	331.42
433.08	336.42
433.45	341.16
433.82	345.70
434.19	350.91
434.56	355.86
434.93	360.68
435.30	365.43
435.68	370.57
436.05	375.87
436.42	380.93
436.79	385.63
437.16	390.77
437.53	396.17
437.90	401.43
438.27	406.64
438.64	412.02
439.01	416.98
439.38	421.38
439.75	425.56
440.13	430.44
440.50	434.97
440.87	438.70
441.24	442.44
441.61	446.68
441.98	449.67
442.35	453.35
442.72	457.02
443.09	460.55
443.46	462.68
443.83	464.07
444.20	465.31
444.57	467.02
444.94	467.79
445.31	468.58
445.68	469.48
446.05	469.76
446.42	469.09
446.79	468.19
447.16	467.32
447.53	466.79
447.90	464.63
448.27	462.53
448.64	459.58
449.01	457.60
449.37	454.01
449.74	450.46
450.11	446.30
450.48	441.85
450.85	437.20
451.22	433.20
451.59	429.33
451.96	425.78
452.33	421.02
452.70	416.65
453.07	411.43
453.43	406.00
453.80	400.91
454.17	396.23
454.54	391.80
454.91	386.92
455.28	382.02
455.65	377.62
456.02	373.32
456.38	369.61
456.75	364.87
457.12	360.97
457.49	357.15
457.86	353.36
458.23	350.11
458.59	346.70
458.96	343.20
459.33	340.09
459.70	336.86
460.07	334.36
460.43	331.47
460.80	328.78
461.17	326.47
461.54	324.08
461.91	321.69
462.27	319.26
462.64	317.29
463.01	315.19
463.38	313.04
463.74	310.73
464.11	308.76
464.48	307.23
464.85	305.40
465.21	304.05
465.58	302.59
465.95	300.78
466.32	299.41
466.68	297.94
467.05	296.54
467.42	295.23
467.78	293.73
468.15	292.35
468.52	291.38
468.88	290.05
469.25	288.84
469.62	287.91
469.98	286.89
470.35	285.98
470.72	285.15
471.08	284.19
471.45	283.45
471.82	282.69
472.18	281.73
472.55	281.20
472.92	280.49
473.28	279.90
473.65	279.32
474.02	278.68
474.38	278.26
474.75	277.98
475.11	277.56
475.48	277.28
475.85	277.11
476.21	276.85
476.58	276.69
476.94	276.68
477.31	276.59
477.67	276.63
478.04	276.70
478.41	276.74
478.77	277.05
479.14	277.22
479.50	277.52
479.87	277.80
480.23	278.17
480.60	278.55
480.96	279.00
481.33	279.64
481.69	280.15
482.06	280.85
482.42	281.38
482.79	282.16
483.15	283.05
483.52	284.02
483.88	285.00
484.25	286.02
484.61	286.97
484.98	288.09
485.34	289.40
485.71	290.66
486.07	292.16
486.44	293.49
486.80	294.99
487.17	296.49
487.53	298.38
487.90	300.17
488.26	302.10
488.62	304.12
488.99	306.16
489.35	308.49
489.72	310.80
490.08	313.29
490.44	315.72
490.81	318.35
491.17	321.00
491.54	323.85
491.90	326.86
492.26	330.08
492.63	333.38
492.99	336.78
493.36	340.47
493.72	344.27
494.08	348.26
494.45	352.58
494.81	357.15
495.17	361.60
495.54	366.56
495.90	371.71
496.26	376.92
496.63	382.38
496.99	388.09
497.35	394.09
497.72	400.21
498.08	406.65
498.44	413.34
498.80	420.55
499.17	428.04
499.53	435.89
499.89	443.79
500.26	452.00
500.62	460.24
500.98	469.03
501.34	478.10
501.71	487.32
502.07	497.09
502.43	507.12
502.79	517.44
503.16	528.06
503.52	538.80
503.88	550.14
504.24	561.68
504.60	573.37
504.97	585.59
505.33	598.31
505.69	611.69
506.05	625.36
506.41	638.89
506.78	652.72
507.14	666.76
507.50	681.49
507.86	696.58
508.22	712.08
508.59	727.67
508.95	743.76
509.31	760.31
509.67	776.87
510.03	794.00
510.39	811.50
510.75	829.22
511.12	847.33
511.48	865.66
511.84	884.43
512.20	903.28
512.56	922.57
512.92	942.05
513.28	961.49
513.64	981.18
514.00	1001.27
514.37	1021.51
514.73	1042.31
515.09	1063.05
515.45	1084.00
515.81	1105.05
516.17	1126.37
516.53	1147.36
516.89	1168.93
517.25	1190.39
517.61	1211.77
517.97	1233.25
518.33	1254.96
518.69	1276.96
519.05	1299.01
519.41	1321.10
519.77	1343.76
520.13	1366.01
520.49	1387.95
520.85	1410.51
521.21	1433.13
521.57	1455.94
521.93	1478.22
522.29	1501.21
522.65	1523.84
523.01	1546.27
523.37	1568.48
523.73	1591.06
524.09	1613.55
524.45	1636.05
524.81	1658.66
525.17	1681.16
525.53	1703.74
525.89	1726.20
526.25	1748.27
526.61	1769.69
526.97	1791.68
527.33	1813.10
527.68	1834.85
528.04	1856.27
528.40	1876.91
528.76	1897.58
529.12	1918.34
529.48	1940.10
529.84	1960.32
530.20	1980.44
530.56	2001.35
530.91	2022.52
531.27	2042.66
531.63	2062.88
531.99	2082.42
532.35	2101.73
532.71	2121.00
533.07	2140.64
533.42	2159.28
533.78	2178.31
534.14	2197.03
534.50	2214.24
534.86	2232.32
535.21	2249.12
535.57	2266.86
535.93	2284.21
536.29	2301.15
536.65	2317.77
537.00	2333.21
537.36	2348.60
537.72	2364.00
538.08	2379.19
538.44	2394.28
538.79	2409.84
539.15	2424.79
539.51	2439.84
539.87	2455.43
540.22	2469.90
540.58	2485.00
540.94	2499.38
541.29	2512.25
541.65	2524.69
542.01	2537.99
542.37	2549.96
542.72	2562.15
543.08	2572.95
543.44	2585.21
543.79	2595.73
544.15	2606.25
544.51	2617.43
544.87	2628.58
545.22	2638.14
545.58	2646.35
545.94	2653.72
546.29	2660.14
546.65	2666.59
547.01	2672.69
547.36	2678.20
547.72	2684.10
548.07	2687.82
548.43	2691.88
548.79	2695.91
549.14	2700.57
549.50	2705.24
549.86	2709.44
550.21	2713.78
550.57	2718.48
550.92	2721.06
551.28	2723.68
551.64	2726.09
551.99	2728.83
552.35	2730.32
552.70	2732.94
553.06	2735.91
553.41	2739.31
553.77	2742.35
554.13	2744.68
554.48	2746.98
554.84	2748.40
555.19	2748.83
555.55	2749.50
555.90	2750.15
556.26	2750.83
556.61	2750.72
556.97	2749.00
557.32	2748.62
557.68	2746.80
558.03	2745.27
558.39	2743.48
558.74	2743.68
559.10	2742.82
559.45	2740.66
559.81	2739.67
560.16	2737.23
560.52	2734.43
560.87	2731.34
561.23	2727.67
561.58	2725.41
561.94	2722.16
562.29	2718.48
562.64	2716.20
563.00	2713.70
563.35	2711.64
563.71	2709.82
564.06	2707.87
564.42	2706.36
564.77	2704.03
565.12	2702.22
565.48	2699.15
565.83	2696.27
566.19	2692.63
566.54	2688.21
566.89	2684.22
567.25	2680.50
567.60	2677.38
567.96	2674.67
568.31	2671.00
568.66	2667.25
569.02	2662.62
569.37	2657.38
569.72	2653.61
570.08	2648.43
570.43	2642.69
570.78	2636.78
571.14	2630.39
571.49	2623.55
571.84	2617.59
572.20	2610.63
572.55	2603.98
572.90	2597.10
573.26	2590.10
573.61	2582.87
573.96	2576.29
574.31	2568.48
574.67	2560.24
575.02	2551.65
575.37	2542.25
575.72	2533.04
576.08	2525.24
576.43	2516.67
576.78	2509.07
577.13	2500.67
577.49	2492.45
577.84	2484.85
578.19	2477.20
578.54	2469.86
578.90	2462.96
579.25	2454.31
579.60	2445.01
579.95	2435.54
580.30	2427.65
580.66	2419.65
581.01	2410.16
581.36	2400.75
581.71	2392.37
582.06	2384.22
582.42	2376.09
582.77	2367.17
583.12	2358.79
583.47	2350.35
583.82	2341.92
584.17	2332.70
584.53	2323.90
584.88	2315.06
585.23	2305.85
585.58	2296.19
585.93	2286.15
586.28	2276.81
586.63	2267.51
586.98	2259.25
587.34	2250.94
587.69	2241.58
588.04	2232.28
588.39	2224.28
588.74	2215.63
589.09	2206.78
589.44	2196.86
589.79	2188.20
590.14	2180.46
590.49	2171.74
590.84	2162.40
591.19	2153.80
591.54	2144.74
591.89	2134.63
592.25	2125.38
592.60	2115.85
592.95	2106.45
593.30	2097.06
593.65	2087.19
594.00	2077.99
594.35	2069.60
594.70	2060.40
595.05	2051.53
595.40	2042.56
595.75	2033.00
596.10	2024.50
596.45	2015.95
596.80	2008.17
597.15	1999.61
597.50	1990.52
597.85	1981.95
598.19	1973.47
598.54	1964.85
598.89	1957.16
599.24	1950.42
599.59	1942.84
599.94	1935.76
600.29	1927.88
600.64	1920.08
600.99	1911.50
601.34	1904.24
601.69	1895.43
602.04	1887.49
602.39	1879.38
602.74	1871.96
603.08	1865.26
603.43	1858.05
603.78	1850.00
604.13	1841.87
604.48	1834.18
604.83	1826.93
605.18	1819.82
605.53	1812.09
605.87	1804.79
606.22	1797.45
606.57	1789.34
606.92	1781.25
607.27	1772.90
607.62	1765.47
607.96	1758.54
608.31	1752.59
608.66	1744.38
609.01	1736.99
609.36	1728.92
609.70	1721.08
610.05	1713.04
610.40	1704.66
610.75	1695.95
611.10	1688.42
611.44	1679.14
611.79	1669.88
612.14	1660.51
612.49	1651.04
612.83	1642.28
613.18	1632.21
613.53	1622.63
613.88	1612.88
614.22	1604.05
614.57	1594.97
614.92	1585.62
615.27	1575.99
615.61	1566.01
615.96	1557.10
616.31	1548.28
616.65	1540.67
617.00	1532.15
617.35	1523.24
617.70	1514.28
618.04	1505.33
618.39	1495.77
618.74	1487.61
619.08	1478.82
619.43	1470.56
619.78	1462.74
620.12	1454.40
620.47	1447.11
620.82	1438.84
621.16	1430.60
621.51	1421.91
621.85	1413.74
622.20	1405.23
622.55	1396.98
622.89	1388.89
623.24	1381.07
623.59	1372.52
623.93	1363.61
624.28	1355.42
624.62	1347.33
624.97	1339.37
625.32	1331.61
625.66	1324.17
626.01	1316.66
626.35	1309.47
626.70	1301.50
627.04	1293.74
627.39	1286.18
627.73	1278.30
628.08	1271.14
628.43	1263.64
628.77	1256.20
629.12	1248.61
629.46	1241.89
629.81	1234.58
630.15	1226.96
630.50	1219.19
630.84	1211.93
631.19	1204.89
631.53	1197.94
631.88	1190.24
632.22	1182.44
632.57	1175.40
632.91	1167.99
633.26	1160.65
633.60	1153.28
633.95	1146.65
634.29	1139.33
634.64	1132.67
634.98	1125.64
635.32	1118.56
635.67	1112.20
636.01	1105.80
636.36	1099.09
636.70	1092.47
637.05	1085.70
637.39	1079.52
637.73	1073.36
638.08	1067.43
638.42	1061.50
638.77	1054.84
639.11	1048.58
639.45	1042.65
639.80	1036.07
640.14	1029.60
640.49	1023.45
640.83	1017.31
641.17	1010.85
641.52	1004.77
641.86	998.08
642.20	991.71
642.55	984.99
642.89	978.26
643.23	971.84
643.58	965.91
643.92	959.25
644.26	953.06
644.61	946.93
644.95	940.80
645.29	934.47
645.64	927.64
645.98	921.61
646.32	915.78
646.66	909.56
647.01	903.72
647.35	897.76
647.69	891.21
648.04	885.15
648.38	879.31
648.72	873.20
649.06	867.15
649.41	861.17
649.75	855.38
650.09	849.69
650.43	843.71
650.78	837.58
651.12	831.65
651.46	825.88
651.80	820.03
652.14	813.98
652.49	807.91
652.83	801.99
653.17	795.80
653.51	789.77
653.85	783.99
654.20	777.99
654.54	772.19
654.88	766.78
655.22	760.96
655.56	754.94
655.90	749.33
656.25	743.58
656.59	738.12
656.93	733.10
657.27	727.93
657.61	722.34
657.95	717.17
658.29	711.98
658.64	706.95
658.98	701.62
659.32	696.40
659.66	691.34
660.00	686.19
660.34	681.15
660.68	675.93
661.02	670.88
661.36	666.22
661.70	661.45
662.05	656.70
662.39	652.31
662.73	648.02
663.07	643.45
663.41	639.34
663.75	634.70
664.09	629.76
664.43	624.97
664.77	620.65
665.11	616.12
665.45	611.75
665.79	607.21
666.13	602.75
666.47	598.45
666.81	594.39
667.15	590.38
667.49	586.49
667.83	582.67
668.17	578.76
668.51	574.89
668.85	571.25
669.19	567.59
669.53	563.68
669.87	559.49
670.21	555.65
670.55	551.55
670.89	548.17
671.23	544.89
671.57	541.42
671.91	537.77
672.25	534.16
672.58	530.65
672.92	527.20
673.26	524.14
673.60	520.83
673.94	517.37
674.28	513.97
674.62	510.73
674.96	507.63
675.30	504.50
675.64	501.25
675.97	498.00
676.31	494.82
676.65	491.89
676.99	489.35
677.33	486.48
677.67	483.62
678.01	480.45
678.34	477.36
678.68	474.39
679.02	471.46
679.36	468.66
679.70	465.87
680.04	463.02
680.37	459.92
680.71	457.14
681.05	454.42
681.39	451.79
681.73	449.07
682.06	446.62
682.40	444.01
682.74	441.25
683.08	438.57
683.42	435.83
683.75	433.18
684.09	430.41
684.43	427.90
684.77	425.31
685.10	422.83
685.44	420.27
685.78	417.80
686.12	415.49
686.45	413.03
686.79	410.73
687.13	408.46
687.46	406.30
687.80	404.13
688.14	401.78
688.48	399.61
688.81	397.39
689.15	395.00
689.49	392.68
689.82	390.63
690.16	388.27
690.50	386.19
690.83	384.04
691.17	381.88
691.51	379.66
691.84	377.51
692.18	375.48
692.52	373.55
692.85	371.66
693.19	369.87
693.52	368.04
693.86	366.05
694.20	364.13
694.53	362.27
694.87	360.23
695.21	358.28
695.54	356.31
695.88	354.36
696.21	352.51
696.55	350.81
696.88	349.03
697.22	347.46
697.56	345.82
697.89	344.07
698.23	342.45
698.56	340.84
698.90	339.36
699.23	337.74
699.57	336.09
699.90	334.43
700.24	332.74
700.58	331.01
700.91	329.45
701.25	328.08
701.58	326.72
701.92	325.41
702.25	324.13
702.59	322.72
702.92	321.49
703.26	320.15
703.59	318.90
703.93	317.70
704.26	316.44
704.60	315.13
704.93	313.95
705.26	312.64
705.60	311.43
705.93	310.20
706.27	309.03
706.60	307.86
706.94	306.78
707.27	305.66
707.61	304.67
707.94	303.47
708.27	302.21
708.61	300.90
708.94	299.75
709.28	298.66
709.61	297.54
709.94	296.43
710.28	295.30
710.61	294.21
710.95	293.06
711.28	292.06
711.61	290.99
711.95	289.94
712.28	288.96
712.61	287.93
712.95	287.02
713.28	286.10
713.61	285.17
713.95	284.20
714.28	283.22
714.61	282.30
714.95	281.47
715.28	280.52
715.61	279.64
715.95	278.72
716.28	277.74
716.61	276.95
716.95	275.96
717.28	275.18
717.61	274.36
717.94	273.56
718.28	272.70
718.61	272.00
718.94	271.26
719.27	270.56
719.61	269.83
719.94	269.22
720.27	268.47
720.60	267.73
720.94	267.03
721.27	266.33
721.60	265.58
721.93	264.94
722.27	264.32
722.60	263.73
722.93	263.08
723.26	262.55
723.59	261.90
723.93	261.40
724.26	260.85
724.59	260.30
724.92	259.74
725.25	259.31
725.59	258.71
725.92	258.20
726.25	257.65
726.58	257.15
726.91	256.45
727.24	255.87
727.57	255.33
727.91	254.82
728.24	254.39
728.57	253.93
728.90	253.42
729.23	252.92
729.56	252.54
729.89	252.11
730.22	251.52
730.55	251.11
730.89	250.62
731.22	250.07
731.55	249.57
731.88	249.14
732.21	248.64
732.54	248.26
732.87	247.76
733.20	247.33
733.53	246.90
733.86	246.55
734.19	246.13
734.52	245.80
734.85	245.56
735.18	245.13
735.51	244.81
735.84	244.45
736.17	244.22
736.50	243.74
736.83	243.53
737.16	243.29
737.49	242.93
737.82	242.61
738.15	242.36
738.48	242.00
738.81	241.59
739.14	241.25
739.47	240.88
739.80	240.50
740.13	240.14
740.46	239.70
740.79	239.35
741.12	239.00
741.45	238.68
741.78	238.18
742.11	237.93
742.44	237.56
742.77	237.28
743.10	236.87
743.43	236.57
743.75	236.07
744.08	235.95
744.41	235.56
744.74	235.23
745.07	234.82
745.40	234.57
745.73	234.35
746.06	234.02
746.39	233.66
746.71	233.38
747.04	233.12
747.37	232.87
747.70	232.56
748.03	232.34
748.36	232.07
748.68	231.92
749.01	231.60
749.34	231.36
749.67	231.12
750.00	230.90
750.33	230.71
750.65	230.46
750.98	229.95
751.31	229.79
751.64	229.51
751.97	229.48
752.29	229.27
752.62	228.98
752.95	228.79
753.28	228.61
753.60	228.43
753.93	228.21
754.26	228.02
754.59	227.78
754.91	227.50
755.24	227.28
755.57	227.04
755.90	226.86
756.22	226.62
756.55	226.35
756.88	226.07
757.20	225.78
757.53	225.55
757.86	225.53
758.19	225.36
758.51	225.25
758.84	224.91
759.17	224.62
759.49	224.50
759.82	224.28
760.15	224.13
760.47	223.92
760.80	223.79
761.13	223.63
761.45	223.51
761.78	223.36
762.11	223.20
762.43	223.03
762.76	222.76
763.08	222.67
763.41	222.59
763.74	222.51
764.06	222.42
764.39	222.31
764.71	222.03
765.04	221.88
765.37	221.71
765.69	221.66
766.02	221.64
766.34	221.50
766.67	221.47
767.00	221.35
767.32	221.38
767.65	221.32
767.97	221.20
768.30	221.07
768.62	221.06
768.95	220.97
769.27	220.86
769.60	220.85
769.92	220.67
770.25	220.54
770.57	220.41
770.90	220.29
771.22	220.23
771.55	220.09
771.87	219.93
772.20	219.85
772.52	219.82
772.85	219.97
773.17	219.83
773.50	219.60
773.82	219.50
774.15	219.28
774.47	219.11
774.80	219.08
775.12	219.00
775.45	218.91
775.77	218.81
776.09	218.73
776.42	218.69
776.74	218.67
777.07	218.62
777.39	218.57
777.72	218.45
778.04	218.29
778.36	218.34
778.69	218.38
779.01	218.34
779.33	218.20
779.66	217.90
779.98	217.87
780.31	217.90
780.63	217.90
780.95	217.87
781.28	217.73
781.60	217.59
781.92	217.50
782.25	217.47
782.57	217.38
782.89	217.27
783.22	217.23
783.54	217.14
783.86	217.08
784.19	216.95
784.51	216.97
784.83	216.93
785.16	216.80
785.48	216.69
785.80	216.62
786.12	216.51
786.45	216.46
786.77	216.43
787.09	216.31
787.42	216.18
787.74	216.19
788.06	216.16
788.38	216.12
788.71	216.14
789.03	216.01
789.35	215.98
789.67	215.94
789.99	215.86
790.32	215.81
790.64	215.76
790.96	215.83
791.28	215.71
791.61	215.71
791.93	215.73
792.25	215.63
792.57	215.72
792.89	215.66
793.21	215.65
793.54	215.60
793.86	215.54
794.18	215.52
794.50	215.40
794.82	215.31
795.14	215.35
795.47	215.28
795.79	215.24
796.11	215.17
796.43	215.22
796.75	215.18
797.07	215.18
797.39	215.10
797.71	214.97
798.04	214.96
798.36	214.93
798.68	214.81
799.00	214.84
799.32	214.63
799.64	214.63
799.96	214.52
800.28	214.41
800.60	214.39
800.92	214.34
801.24	214.34
801.56	214.34
801.89	214.25
802.21	214.30
802.53	214.24
802.85	214.31
803.17	214.22
803.49	214.14
803.81	214.07
804.13	214.04
804.45	214.05
804.77	214.06
805.09	214.02
805.41	214.06
805.73	214.04
806.05	213.94
806.37	213.91
806.69	213.90
807.01	213.86
807.33	213.87
807.65	213.80
807.97	213.85
808.28	213.85
808.60	213.80
808.92	213.70
809.24	213.80
809.56	213.69
809.88	213.63
810.20	213.59
810.52	213.65
810.84	213.67
811.16	213.63
811.48	213.57
811.80	213.63
812.12	213.62
812.43	213.62
812.75	213.69
813.07	213.63
813.39	213.59
813.71	213.58
814.03	213.51
814.35	213.56
814.67	213.48
814.98	213.43
815.30	213.45
815.62	213.43
815.94	213.21
816.26	213.20
816.58	213.20
816.89	213.27
817.21	213.07
817.53	213.04
817.85	212.98
818.17	212.95
818.48	212.81
818.80	212.82
819.12	212.69
819.44	212.71
819.76	212.65
820.07	212.64
820.39	212.69
820.71	212.72
821.03	212.68
821.34	212.54
821.66	212.55
821.98	212.52
822.30	212.44
822.61	212.61
822.93	212.59
823.25	212.54
823.57	212.40
823.88	212.57
824.20	212.54
824.52	212.58
824.83	212.58
825.15	212.52
825.47	212.45
825.79	212.47
826.10	212.41
826.42	212.41
826.74	212.45
827.05	212.35
827.37	212.32
827.69	212.29
828.00	212.31
828.32	212.31
828.64	212.30
828.95	212.39
829.27	212.31
829.58	212.32
829.90	212.33
830.22	212.42
830.53	212.27
830.85	212.26
831.17	212.21
831.48	212.09
831.80	212.08
832.11	212.04
832.43	211.98
832.75	211.92
833.06	212.05
833.38	211.92
833.69	211.94
834.01	211.92
834.32	211.87
834.64	211.95
834.96	211.94
835.27	211.85
835.59	211.74
835.90	211.69
836.22	211.66
836.53	211.66
836.85	211.64
837.16	211.81
837.48	211.79
837.79	211.84
838.11	211.93
838.42	211.96
838.74	212.00
839.05	212.02
839.37	212.03
839.68	211.90
840.00	211.95
840.31	211.97
840.63	211.93
840.94	211.97
841.26	211.78
841.57	211.79
841.88	211.82
842.20	211.86
842.51	211.86
842.83	211.86
843.14	211.97
843.46	211.91
843.77	211.84
844.08	211.82
844.40	211.76
844.71	211.73
845.03	211.75
845.34	211.79
845.65	211.76
845.97	211.68
846.28	211.71
846.60	211.68
846.91	211.63
847.22	211.64
847.54	211.64
847.85	211.71
848.16	211.73
848.48	211.68
848.79	211.74
849.10	211.74
849.42	211.73
849.73	211.62
850.04	211.61
850.36	211.55
850.67	211.56
850.98	211.55
851.30	211.57
851.61	211.57
851.92	211.54
852.23	211.59
852.55	211.66
852.86	211.65
853.17	211.65
853.49	211.74
853.80	211.87
854.11	211.89
854.42	211.84
854.74	211.77
855.05	211.83
855.36	211.74
855.67	211.67
855.99	211.71
856.30	211.85
856.61	211.86
856.92	211.87
857.23	211.92
857.55	211.86
857.86	211.80
858.17	211.76
858.48	211.79
858.79	211.78
859.11	211.82
859.42	211.81
859.73	211.84
860.04	211.81
860.35	211.68
860.66	211.64
860.98	211.71
861.29	211.76
861.60	211.64
861.91	211.66
862.22	211.75
862.53	211.74
862.84	211.55
863.16	211.62
863.47	211.59
863.78	211.52
864.09	211.56
864.40	211.60
864.71	211.60
865.02	211.59
865.33	211.55
865.64	211.49
865.95	211.45
866.27	211.53
866.58	211.47
866.89	211.42
867.20	211.32
867.51	211.34
867.82	211.27
868.13	211.46
868.44	211.43
868.75	211.44
869.06	211.37
869.37	211.41
869.68	211.35
869.99	211.35
870.30	211.40
870.61	211.44
870.92	211.42
871.23	211.38
871.54	211.40
871.85	211.43
872.16	211.47
872.47	211.42
872.78	211.39
873.09	211.44
873.40	211.47
873.71	211.55
874.02	211.55
874.33	211.58
874.64	211.49
874.95	211.51
875.26	211.44
875.56	211.43
875.87	211.38
876.18	211.41
876.49	211.60
876.80	211.54
877.11	211.50
877.42	211.44
877.73	211.50
878.04	211.40
878.35	211.40
878.66	211.38
878.96	211.43
879.27	211.38
879.58	211.38
879.89	211.32
880.20	211.38
880.51	211.38
880.82	211.42
881.12	211.37
881.43	211.37
881.74	211.40
882.05	211.43
882.36	211.50
882.67	211.50
882.97	211.30
883.28	211.30
883.59	211.34
883.90	211.46
884.21	211.43
884.51	211.43
884.82	211.39
885.13	211.42
885.44	211.40
885.74	211.40
886.05	211.31
886.36	211.40
886.67	211.35
886.98	211.42
887.28	211.35
887.59	211.38
887.90	211.32
888.20	211.27
888.51	211.32
888.82	211.24
889.13	211.22
889.43	211.33
889.74	211.38
890.05	211.28
890.35	211.28
890.66	211.25
890.97	211.31
891.28	211.32
891.58	211.31
891.89	211.33
892.20	211.29
892.50	211.31
892.81	211.23
893.12	211.19
893.42	211.14
893.73	211.16
894.04	211.19
894.34	211.20
894.65	211.23
894.95	211.19
895.26	211.20
895.57	211.21
895.87	211.07
896.18	211.04
896.48	211.09
896.79	210.99
897.10	211.00
897.40	211.01
897.71	211.05
898.01	211.07
898.32	211.12
898.63	211.20
898.93	211.24
899.24	211.32
899.54	211.32
899.85	211.28
900.15	211.26
900.46	211.32
900.76	211.39
901.07	211.41
901.38	211.38
901.68	211.49
901.99	211.51
902.29	211.47
902.60	211.48
902.90	211.47
903.21	211.45
903.51	211.49
903.82	211.45
904.12	211.45
904.43	211.35
904.73	211.36
905.03	211.32
905.34	211.46
905.64	211.43
905.95	211.48
906.25	211.50
906.56	211.56
906.86	211.49
907.17	211.51
907.47	211.52
907.77	211.47
908.08	211.40
908.38	211.38
908.69	211.43
908.99	211.49
909.30	211.52
909.60	211.50
909.90	211.52
910.21	211.46
910.51	211.40
910.81	211.49
911.12	211.46
911.42	211.49
911.73	211.28
912.03	211.17
912.33	211.19
912.64	211.16
912.94	211.11
913.24	211.16
913.55	211.09
913.85	211.03
914.15	211.06
914.46	211.09
914.76	211.10
915.06	211.15
915.37	211.15
915.67	211.18
915.97	211.25
916.27	211.28
916.58	211.34
916.88	211.39
917.18	211.38
917.49	211.45
917.79	211.41
918.09	211.50
918.39	211.63
918.70	211.56
919.00	211.56
919.30	211.60
919.60	211.52
919.91	211.55
920.21	211.62
920.51	211.56
920.81	211.45
921.12	211.40
921.42	211.40
921.72	211.32
922.02	211.31
922.32	211.29
922.63	211.22
922.93	211.28
923.23	211.25
923.53	211.18
923.83	211.06
924.13	211.06
924.44	210.99
924.74	211.03
925.04	211.07
925.34	211.10
925.64	210.98
925.94	210.95
926.24	211.05
926.55	211.00
926.85	211.08
927.15	211.08
927.45	211.10
927.75	211.04
928.05	211.08
928.35	211.07
928.65	211.10
928.95	211.10
929.26	211.05
929.56	211.06
929.86	211.14
930.16	211.10
930.46	211.12
930.76	211.16
931.06	211.04
931.36	210.94
931.66	211.00
931.96	211.04
932.26	211.09
932.56	211.00
932.86	211.07
933.16	211.07
933.46	211.10
933.76	211.08
934.06	211.14
934.36	211.18
934.66	211.12
934.96	211.05
935.26	211.05
935.56	211.09
935.86	211.02
936.16	210.99
936.46	211.04
936.76	211.03
937.06	211.02
937.36	211.05
937.66	211.13
937.96	211.08
938.26	211.10
938.56	211.09
938.86	211.12
939.16	211.10
939.46	211.07
939.76	211.11
940.06	211.12
940.35	211.06
940.65	210.97
940.95	210.93
941.25	211.00
941.55	211.05
941.85	210.98
942.15	211.06
942.45	211.07
942.75	211.04
943.04	211.09
943.34	211.12
943.64	211.11
943.94	211.07
944.24	211.07
944.54	211.00
944.84	211.02
945.13	210.92
945.43	210.89
945.73	210.90
946.03	210.86
946.33	210.82
946.62	210.82
946.92	210.82
947.22	210.92
947.52	210.91
947.82	210.89
948.11	210.90
948.41	210.89
948.71	210.90
949.01	210.93
949.31	210.83
949.60	210.78
949.90	210.76
950.20	210.73
950.50	210.80
950.79	210.87
951.09	210.84
951.39	210.88
951.69	210.89
951.98	210.95
952.28	211.00
952.58	210.98
952.87	211.02
953.17	211.08
953.47	211.00
953.76	210.99
954.06	211.03
954.36	211.06
954.66	211.06
954.95	211.03
955.25	211.06
955.55	211.06
955.84	211.11
956.14	211.13
956.44	211.17
956.73	211.05
957.03	211.04
957.32	211.03
957.62	210.95
957.92	210.99
958.21	210.88
958.51	211.08
958.81	211.12
959.10	211.12
959.40	211.05
959.69	211.13
959.99	211.12
960.29	211.15
960.58	211.11
960.88	211.15
961.17	211.19
961.47	211.19
961.76	211.19
962.06	211.14
962.36	211.16
962.65	211.17
962.95	211.23
963.24	211.24
963.54	211.31
963.83	211.37
964.13	211.32
964.42	211.33
964.72	211.15
965.01	211.16
965.31	211.14
965.60	211.11
965.90	211.19
966.19	211.19
966.49	211.09
966.78	211.10
967.08	211.08
967.37	211.06
967.67	210.99
967.96	211.11
968.26	211.13
968.55	211.18
968.85	211.17
969.14	211.12
969.43	211.10
969.73	211.06
970.02	211.09
970.32	211.05
970.61	211.05
970.91	211.01
971.20	210.97
971.49	210.93
971.79	210.95
972.08	210.86
972.38	210.82
972.67	210.85
972.96	210.85
973.26	210.82
973.55	210.89
973.85	210.92
974.14	210.84
974.43	210.81
974.73	210.72
975.02	210.71
975.31	210.72
975.61	210.72
975.90	210.69
976.19	210.69
976.49	210.71
976.78	210.73
977.07	210.72
977.37	210.77
977.66	210.80
977.95	210.82
978.24	210.77
978.54	210.82
978.83	210.79
979.12	210.79
979.42	210.76
979.71	210.70
980.00	210.70
980.29	210.66
980.59	210.62
980.88	210.70
981.17	210.69
981.46	210.69
981.76	210.68
982.05	210.70
982.34	210.74
982.63	210.79
982.93	210.80
983.22	210.88
983.51	210.86
983.80	210.89
984.09	210.84
984.39	210.87
984.68	210.89
984.97	210.86
985.26	210.90
985.55	210.90
985.85	210.89
986.14	210.94
986.43	210.98
986.72	211.04
987.01	210.97
987.30	211.06
987.59	211.07
987.89	211.06
988.18	211.06
988.47	211.00
988.76	210.98
989.05	210.97
989.34	210.90
989.63	211.00
989.92	210.94
990.22	211.05
990.51	211.08
990.80	211.05
991.09	211.13
991.38	211.13
991.67	211.24
991.96	211.24
992.25	211.30
992.54	211.34
992.83	211.41
993.12	211.41
993.41	211.38
993.70	211.47
993.99	211.52
994.28	211.49
994.58	211.49
994.87	211.47
995.16	211.46
995.45	211.50
995.74	211.49
996.03	211.47
996.32	211.40
996.61	211.36
996.90	211.42
997.19	211.38
997.48	211.25
997.77	211.12
998.06	211.11
998.34	211.09
998.63	211.09
998.92	211.03
999.21	211.18
999.50	211.21
999.79	211.11
1000.08	211.13
1000.37	211.24
1000.66	211.21
1000.95	211.24
1001.24	211.29
1001.53	211.24
1001.82	211.08
1002.11	211.17
1002.40	211.25
1002.68	211.35
1002.97	211.43
1003.26	211.42
1003.55	211.45
1003.84	211.51
1004.13	211.55
1004.42	211.53
1004.71	211.43
1004.99	211.34
1005.28	211.26
1005.57	211.20
1005.86	211.24
1006.15	211.13
1006.44	211.01
1006.72	211.08
1007.01	211.09
1007.30	211.08
1007.59	211.07
1007.88	211.14
1008.17	211.06
1008.45	211.00
1008.74	210.90
1009.03	210.82
1009.32	210.87
1009.60	210.88
1009.89	210.83
1010.18	210.75
1010.47	210.71
1010.76	210.74
1011.04	210.84
1011.33	210.84
1011.62	210.85
1011.91	210.91
1012.19	211.05
1012.48	211.07
1012.77	211.07
1013.05	211.14
1013.34	211.13
1013.63	211.13
1013.92	211.07
1014.20	211.12
1014.49	211.14
1014.78	211.12
1015.06	211.11
1015.35	211.02
1015.64	211.07
1015.92	211.18
1016.21	211.16
1016.50	211.20
1016.78	211.20
1017.07	211.19
1017.36	211.17
1017.64	211.20
1017.93	211.11
1018.22	211.06
1018.50	211.04
1018.79	211.00
1019.08	210.90
1019.36	210.84
1019.65	210.85
1019.93	210.91
1020.22	210.92
1020.51	211.04
1020.79	211.03
1021.08	211.05
1021.36	210.20
1021.65	210.40
1021.94	210.90
1022.22	209.85
1022.51	210.75
1022.79	210.80
1023.08	211.55
1023.36	213.45
1023.65	210.70
>>>>>End Processed Spectral Data<<<<<
