SpectraSuite Data File
++++++++++++++++++++++++++++++++++++
Date: Mon Feb 25 17:33:46 EST 2013
User: group
Dark Spectrum Present: No
Reference Spectrum Present: No
Number of Sampled Component Spectra: 1
Spectrometers: USB2E7196
Integration Time (usec): 52000 (USB2E7196)
Spectra Averaged: 20 (USB2E7196)
Boxcar Smoothing: 10 (USB2E7196)
Correct for Electrical Dark: No (USB2E7196)
Strobe/Lamp Enabled: No (USB2E7196)
Correct for Detector Non-linearity: No (USB2E7196)
Correct for Stray Light: No (USB2E7196)
Number of Pixels in Processed Spectrum: 2048
>>>>>Begin Processed Spectral Data<<<<<
339.09	0.00
339.48	198.20
339.86	199.65
340.24	201.35
340.63	201.55
341.01	206.70
341.39	205.70
341.78	206.70
342.16	208.10
342.54	207.00
342.93	197.42
343.31	207.40
343.69	207.98
344.07	208.46
344.46	208.93
344.84	209.38
345.22	209.54
345.60	209.76
345.99	209.98
346.37	210.15
346.75	210.40
347.13	210.55
347.52	210.75
347.90	210.83
348.28	210.93
348.66	210.98
349.05	210.92
349.43	210.93
349.81	211.02
350.19	211.21
350.57	211.36
350.96	211.49
351.34	211.61
351.72	211.72
352.10	211.81
352.48	211.93
352.87	212.03
353.25	212.13
353.63	212.23
354.01	212.28
354.39	212.37
354.77	212.44
355.15	212.57
355.54	212.67
355.92	212.75
356.30	212.86
356.68	213.08
357.06	213.28
357.44	213.35
357.82	213.42
358.20	213.49
358.58	213.57
358.97	213.60
359.35	213.78
359.73	213.91
360.11	213.97
360.49	213.99
360.87	214.03
361.25	214.14
361.63	214.25
362.01	214.32
362.39	214.43
362.77	214.46
363.15	214.47
363.53	214.47
363.91	214.49
364.29	214.50
364.67	214.34
365.05	214.38
365.43	214.49
365.81	214.49
366.19	214.58
366.57	214.65
366.95	214.68
367.33	214.64
367.71	214.64
368.09	214.70
368.47	214.71
368.85	214.69
369.23	214.75
369.61	214.74
369.99	214.77
370.37	214.76
370.75	214.81
371.13	214.71
371.51	214.66
371.89	214.65
372.27	214.58
372.65	214.60
373.03	214.43
373.41	214.37
373.78	214.37
374.16	214.24
374.54	214.18
374.92	214.14
375.30	214.03
375.68	213.88
376.06	213.84
376.44	213.75
376.82	213.74
377.19	213.60
377.57	213.57
377.95	213.48
378.33	213.35
378.71	213.23
379.09	213.26
379.47	213.29
379.84	213.24
380.22	213.17
380.60	213.13
380.98	213.15
381.36	213.06
381.73	212.89
382.11	212.83
382.49	212.79
382.87	212.75
383.25	212.69
383.62	212.83
384.00	212.72
384.38	212.72
384.76	212.69
385.13	212.74
385.51	212.63
385.89	212.52
386.27	212.46
386.64	212.40
387.02	212.24
387.40	212.13
387.78	212.06
388.15	212.03
388.53	212.00
388.91	211.97
389.29	211.95
389.66	212.03
390.04	212.02
390.42	212.01
390.79	211.93
391.17	211.95
391.55	211.81
391.92	211.82
392.30	211.76
392.68	211.74
393.05	211.64
393.43	211.60
393.81	211.71
394.18	211.71
394.56	211.65
394.94	211.77
395.31	211.70
395.69	211.72
396.06	211.80
396.44	211.80
396.82	211.79
397.19	211.84
397.57	211.89
397.95	211.93
398.32	211.90
398.70	211.93
399.07	211.99
399.45	211.99
399.82	211.98
400.20	212.05
400.58	212.03
400.95	212.06
401.33	212.20
401.70	212.25
402.08	212.34
402.45	212.48
402.83	212.56
403.20	212.71
403.58	212.81
403.95	212.85
404.33	212.96
404.71	213.07
405.08	213.25
405.46	213.33
405.83	213.39
406.21	213.54
406.58	213.64
406.96	213.78
407.33	214.01
407.70	214.22
408.08	214.53
408.45	214.80
408.83	215.07
409.20	215.27
409.58	215.37
409.95	215.64
410.33	215.93
410.70	216.17
411.08	216.51
411.45	216.88
411.82	217.24
412.20	217.56
412.57	218.13
412.95	218.47
413.32	218.95
413.69	219.47
414.07	219.96
414.44	220.66
414.82	221.25
415.19	221.93
415.56	222.72
415.94	223.40
416.31	224.26
416.68	225.15
417.06	226.15
417.43	227.23
417.81	228.28
418.18	229.40
418.55	230.64
418.93	231.91
419.30	233.28
419.67	234.71
420.04	236.13
420.42	237.60
420.79	239.41
421.16	241.17
421.54	243.04
421.91	244.92
422.28	246.82
422.66	248.92
423.03	251.04
423.40	253.14
423.77	255.42
424.15	257.71
424.52	260.02
424.89	262.61
425.26	265.04
425.64	267.42
426.01	269.94
426.38	272.58
426.75	275.30
427.13	278.11
427.50	280.99
427.87	284.11
428.24	287.13
428.61	289.98
428.99	293.26
429.36	296.78
429.73	300.29
430.10	303.75
430.47	307.20
430.85	310.89
431.22	314.78
431.59	318.97
431.96	322.94
432.33	327.30
432.70	331.46
433.08	336.50
433.45	341.15
433.82	345.96
434.19	350.97
434.56	356.02
434.93	360.80
435.30	365.67
435.68	370.93
436.05	376.17
436.42	381.36
436.79	386.09
437.16	391.15
437.53	396.48
437.90	401.75
438.27	406.98
438.64	412.36
439.01	417.21
439.38	421.53
439.75	425.76
440.13	430.77
440.50	435.35
440.87	439.00
441.24	442.76
441.61	446.89
441.98	450.16
442.35	453.73
442.72	457.40
443.09	460.99
443.46	463.27
443.83	464.71
444.20	465.95
444.57	467.67
444.94	468.34
445.31	469.11
445.68	469.90
446.05	470.15
446.42	469.40
446.79	468.71
447.16	467.73
447.53	467.07
447.90	464.75
448.27	462.61
448.64	459.68
449.01	457.57
449.37	453.92
449.74	450.38
450.11	446.14
450.48	441.56
450.85	436.85
451.22	432.78
451.59	428.97
451.96	425.28
452.33	420.45
452.70	416.19
453.07	411.02
453.43	405.76
453.80	400.69
454.17	395.92
454.54	391.38
454.91	386.65
455.28	381.97
455.65	377.65
456.02	373.33
456.38	369.60
456.75	364.98
457.12	361.06
457.49	357.21
457.86	353.52
458.23	350.35
458.59	346.82
458.96	343.21
459.33	340.05
459.70	336.90
460.07	334.39
460.43	331.51
460.80	328.93
461.17	326.56
461.54	324.15
461.91	321.73
462.27	319.39
462.64	317.32
463.01	315.03
463.38	312.90
463.74	310.65
464.11	308.78
464.48	307.26
464.85	305.54
465.21	304.16
465.58	302.75
465.95	300.98
466.32	299.59
466.68	298.27
467.05	296.74
467.42	295.34
467.78	293.91
468.15	292.55
468.52	291.51
468.88	290.24
469.25	289.08
469.62	288.21
469.98	287.18
470.35	286.24
470.72	285.36
471.08	284.36
471.45	283.59
471.82	282.82
472.18	281.93
472.55	281.37
472.92	280.72
473.28	280.22
473.65	279.70
474.02	279.11
474.38	278.59
474.75	278.34
475.11	277.96
475.48	277.63
475.85	277.38
476.21	277.18
476.58	276.99
476.94	276.86
477.31	276.70
477.67	276.69
478.04	276.75
478.41	276.86
478.77	277.18
479.14	277.36
479.50	277.62
479.87	277.92
480.23	278.23
480.60	278.61
480.96	278.93
481.33	279.61
481.69	280.20
482.06	280.86
482.42	281.35
482.79	282.15
483.15	283.15
483.52	284.16
483.88	285.09
484.25	286.15
484.61	287.30
484.98	288.53
485.34	289.81
485.71	291.17
486.07	292.65
486.44	293.92
486.80	295.48
487.17	297.11
487.53	298.95
487.90	300.79
488.26	302.66
488.62	304.67
488.99	306.59
489.35	308.83
489.72	311.06
490.08	313.60
490.44	316.07
490.81	318.64
491.17	321.30
491.54	324.16
491.90	327.08
492.26	330.30
492.63	333.57
492.99	337.05
493.36	340.58
493.72	344.39
494.08	348.42
494.45	352.62
494.81	357.07
495.17	361.57
495.54	366.48
495.90	371.56
496.26	376.83
496.63	382.44
496.99	388.06
497.35	394.04
497.72	400.33
498.08	406.91
498.44	413.59
498.80	420.91
499.17	428.28
499.53	435.95
499.89	443.92
500.26	451.93
500.62	460.21
500.98	469.14
501.34	478.27
501.71	487.69
502.07	497.28
502.43	507.34
502.79	517.60
503.16	528.20
503.52	539.02
503.88	550.21
504.24	561.72
504.60	573.64
504.97	585.85
505.33	598.39
505.69	611.61
506.05	625.03
506.41	638.31
506.78	652.25
507.14	666.46
507.50	681.24
507.86	696.42
508.22	711.92
508.59	727.65
508.95	743.75
509.31	760.02
509.67	776.90
510.03	794.03
510.39	811.55
510.75	829.35
511.12	847.61
511.48	865.95
511.84	884.68
512.20	903.39
512.56	922.76
512.92	942.09
513.28	961.44
513.64	981.13
514.00	1001.36
514.37	1021.77
514.73	1042.64
515.09	1062.98
515.45	1083.79
515.81	1105.12
516.17	1126.23
516.53	1147.52
516.89	1169.17
517.25	1190.57
517.61	1212.07
517.97	1233.47
518.33	1254.96
518.69	1276.84
519.05	1299.01
519.41	1321.09
519.77	1343.73
520.13	1365.63
520.49	1387.92
520.85	1410.83
521.21	1433.50
521.57	1456.37
521.93	1478.36
522.29	1501.32
522.65	1524.09
523.01	1546.65
523.37	1568.74
523.73	1591.38
524.09	1613.75
524.45	1636.09
524.81	1658.40
525.17	1680.71
525.53	1703.45
525.89	1725.70
526.25	1747.50
526.61	1768.97
526.97	1790.80
527.33	1812.31
527.68	1834.28
528.04	1855.75
528.40	1876.01
528.76	1896.93
529.12	1917.62
529.48	1939.56
529.84	1959.92
530.20	1980.32
530.56	2000.94
530.91	2021.75
531.27	2041.95
531.63	2062.29
531.99	2082.23
532.35	2101.86
532.71	2121.19
533.07	2140.52
533.42	2159.39
533.78	2178.52
534.14	2197.11
534.50	2214.27
534.86	2232.34
535.21	2249.19
535.57	2266.96
535.93	2284.35
536.29	2301.20
536.65	2317.77
537.00	2333.03
537.36	2348.30
537.72	2363.94
538.08	2379.31
538.44	2394.47
538.79	2409.87
539.15	2424.73
539.51	2439.56
539.87	2454.90
540.22	2469.23
540.58	2484.55
540.94	2499.22
541.29	2512.16
541.65	2524.46
542.01	2538.00
542.37	2549.83
542.72	2562.39
543.08	2573.36
543.44	2585.48
543.79	2595.83
544.15	2606.50
544.51	2617.62
544.87	2628.77
545.22	2637.95
545.58	2646.36
545.94	2653.71
546.29	2660.38
546.65	2666.56
547.01	2672.91
547.36	2678.58
547.72	2684.38
548.07	2688.33
548.43	2692.06
548.79	2696.11
549.14	2700.81
549.50	2704.98
549.86	2709.21
550.21	2713.12
550.57	2717.32
550.92	2719.88
551.28	2722.82
551.64	2725.50
551.99	2728.12
552.35	2730.06
552.70	2732.71
553.06	2735.78
553.41	2739.07
553.77	2742.05
554.13	2744.21
554.48	2746.28
554.84	2747.88
555.19	2748.32
555.55	2748.81
555.90	2749.51
556.26	2750.05
556.61	2750.04
556.97	2749.07
557.32	2748.69
557.68	2747.08
558.03	2745.64
558.39	2744.31
558.74	2744.18
559.10	2742.83
559.45	2740.99
559.81	2739.55
560.16	2737.42
560.52	2734.89
560.87	2731.74
561.23	2728.28
561.58	2726.50
561.94	2723.14
562.29	2719.17
562.64	2717.07
563.00	2714.29
563.35	2712.41
563.71	2710.93
564.06	2708.98
564.42	2707.31
564.77	2705.05
565.12	2703.13
565.48	2699.76
565.83	2696.71
566.19	2693.17
566.54	2689.03
566.89	2685.08
567.25	2681.34
567.60	2677.63
567.96	2674.09
568.31	2670.65
568.66	2666.80
569.02	2661.62
569.37	2656.47
569.72	2652.87
570.08	2647.60
570.43	2642.52
570.78	2636.35
571.14	2629.85
571.49	2623.06
571.84	2617.07
572.20	2609.86
572.55	2603.35
572.90	2596.95
573.26	2590.18
573.61	2583.09
573.96	2576.63
574.31	2568.76
574.67	2560.59
575.02	2552.20
575.37	2543.49
575.72	2534.69
576.08	2526.86
576.43	2518.20
576.78	2510.30
577.13	2502.32
577.49	2494.18
577.84	2486.14
578.19	2478.67
578.54	2471.00
578.90	2464.11
579.25	2455.06
579.60	2446.18
579.95	2436.89
580.30	2428.57
580.66	2420.03
581.01	2410.68
581.36	2401.05
581.71	2392.81
582.06	2384.14
582.42	2375.59
582.77	2366.51
583.12	2357.26
583.47	2348.63
583.82	2340.60
584.17	2331.49
584.53	2322.44
584.88	2313.71
585.23	2304.30
585.58	2294.35
585.93	2284.69
586.28	2275.54
586.63	2266.63
586.98	2257.97
587.34	2249.65
587.69	2240.39
588.04	2231.38
588.39	2223.36
588.74	2214.64
589.09	2205.88
589.44	2196.46
589.79	2188.18
590.14	2180.14
590.49	2171.84
590.84	2162.71
591.19	2154.19
591.54	2145.35
591.89	2134.88
592.25	2125.49
592.60	2116.08
592.95	2106.86
593.30	2097.78
593.65	2087.55
594.00	2078.05
594.35	2069.98
594.70	2060.49
595.05	2052.00
595.40	2043.15
595.75	2033.17
596.10	2024.76
596.45	2015.98
596.80	2008.31
597.15	2000.00
597.50	1990.62
597.85	1982.13
598.19	1973.20
598.54	1964.73
598.89	1956.81
599.24	1950.38
599.59	1943.00
599.94	1935.97
600.29	1928.10
600.64	1919.78
600.99	1911.67
601.34	1904.28
601.69	1895.49
602.04	1887.65
602.39	1879.18
602.74	1871.24
603.08	1864.73
603.43	1857.46
603.78	1849.47
604.13	1841.16
604.48	1833.00
604.83	1826.29
605.18	1819.21
605.53	1811.59
605.87	1803.94
606.22	1796.97
606.57	1788.58
606.92	1780.43
607.27	1772.35
607.62	1765.05
607.96	1758.48
608.31	1752.12
608.66	1744.21
609.01	1736.79
609.36	1729.01
609.70	1721.37
610.05	1713.61
610.40	1705.12
610.75	1696.65
611.10	1689.12
611.44	1680.11
611.79	1671.10
612.14	1661.52
612.49	1651.70
612.83	1643.04
613.18	1633.26
613.53	1623.61
613.88	1614.00
614.22	1605.00
614.57	1595.69
614.92	1586.40
615.27	1576.80
615.61	1566.90
615.96	1557.84
616.31	1549.06
616.65	1540.75
617.00	1532.22
617.35	1523.51
617.70	1514.69
618.04	1505.36
618.39	1495.89
618.74	1487.47
619.08	1478.87
619.43	1470.70
619.78	1463.19
620.12	1454.96
620.47	1447.20
620.82	1438.63
621.16	1430.35
621.51	1421.73
621.85	1413.59
622.20	1405.06
622.55	1396.45
622.89	1388.18
623.24	1380.45
623.59	1371.66
623.93	1363.20
624.28	1354.95
624.62	1346.87
624.97	1338.60
625.32	1330.94
625.66	1323.40
626.01	1315.94
626.35	1308.59
626.70	1300.91
627.04	1293.22
627.39	1285.56
627.73	1277.86
628.08	1270.75
628.43	1263.33
628.77	1255.95
629.12	1248.24
629.46	1241.45
629.81	1234.12
630.15	1226.92
630.50	1219.14
630.84	1212.10
631.19	1204.78
631.53	1197.71
631.88	1190.07
632.22	1182.59
632.57	1175.70
632.91	1168.24
633.26	1160.61
633.60	1153.48
633.95	1146.82
634.29	1139.46
634.64	1132.79
634.98	1125.98
635.32	1118.89
635.67	1112.55
636.01	1105.88
636.36	1099.39
636.70	1092.81
637.05	1086.39
637.39	1079.96
637.73	1073.82
638.08	1067.80
638.42	1061.91
638.77	1055.44
639.11	1049.11
639.45	1042.99
639.80	1036.32
640.14	1029.85
640.49	1023.69
640.83	1017.42
641.17	1010.65
641.52	1004.68
641.86	998.30
642.20	991.88
642.55	985.30
642.89	978.64
643.23	972.45
643.58	966.41
643.92	959.95
644.26	953.56
644.61	947.56
644.95	941.48
645.29	935.20
645.64	928.60
645.98	922.52
646.32	916.59
646.66	910.48
647.01	904.43
647.35	898.65
647.69	892.38
648.04	886.19
648.38	880.50
648.72	874.44
649.06	868.23
649.41	862.35
649.75	856.62
650.09	850.94
650.43	844.83
650.78	838.52
651.12	832.38
651.46	826.79
651.80	820.70
652.14	814.71
652.49	808.62
652.83	802.92
653.17	796.70
653.51	790.92
653.85	785.17
654.20	779.35
654.54	773.49
654.88	768.14
655.22	762.42
655.56	756.35
655.90	750.33
656.25	744.55
656.59	738.82
656.93	733.66
657.27	728.31
657.61	722.83
657.95	717.74
658.29	712.60
658.64	707.34
658.98	702.06
659.32	696.69
659.66	691.44
660.00	686.08
660.34	680.95
660.68	675.84
661.02	670.78
661.36	665.95
661.70	661.07
662.05	656.36
662.39	651.92
662.73	647.53
663.07	643.27
663.41	638.99
663.75	634.45
664.09	629.51
664.43	624.83
664.77	620.62
665.11	616.02
665.45	611.60
665.79	606.97
666.13	602.63
666.47	598.29
666.81	594.30
667.15	590.04
667.49	586.17
667.83	582.09
668.17	578.07
668.51	574.34
668.85	570.60
669.19	566.69
669.53	562.70
669.87	558.65
670.21	554.77
670.55	550.77
670.89	547.32
671.23	543.97
671.57	540.47
671.91	536.77
672.25	533.25
672.58	529.64
672.92	526.30
673.26	523.16
673.60	519.87
673.94	516.32
674.28	513.16
674.62	510.01
674.96	506.84
675.30	503.90
675.64	500.57
675.97	497.38
676.31	494.34
676.65	491.43
676.99	488.75
677.33	485.72
677.67	482.90
678.01	479.79
678.34	476.90
678.68	473.91
679.02	470.96
679.36	468.18
679.70	465.45
680.04	462.55
680.37	459.42
680.71	456.65
681.05	454.03
681.39	451.37
681.73	448.64
682.06	446.05
682.40	443.43
682.74	440.84
683.08	438.21
683.42	435.59
683.75	432.93
684.09	430.34
684.43	427.83
684.77	425.30
685.10	422.76
685.44	420.14
685.78	417.70
686.12	415.50
686.45	413.10
686.79	410.76
687.13	408.65
687.46	406.56
687.80	404.36
688.14	402.10
688.48	399.80
688.81	397.47
689.15	395.22
689.49	392.91
689.82	390.75
690.16	388.46
690.50	386.13
690.83	383.98
691.17	381.65
691.51	379.50
691.84	377.43
692.18	375.39
692.52	373.47
692.85	371.56
693.19	369.56
693.52	367.73
693.86	365.72
694.20	363.84
694.53	361.91
694.87	359.97
695.21	358.08
695.54	356.22
695.88	354.43
696.21	352.60
696.55	350.98
696.88	349.27
697.22	347.54
697.56	346.07
697.89	344.40
698.23	342.75
698.56	341.17
698.90	339.50
699.23	337.90
699.57	336.25
699.90	334.56
700.24	332.83
700.58	331.11
700.91	329.58
701.25	328.15
701.58	326.56
701.92	325.17
702.25	323.71
702.59	322.31
702.92	320.94
703.26	319.65
703.59	318.27
703.93	317.07
704.26	315.85
704.60	314.52
704.93	313.24
705.26	312.04
705.60	310.90
705.93	309.75
706.27	308.57
706.60	307.55
706.94	306.52
707.27	305.42
707.61	304.31
707.94	303.20
708.27	301.85
708.61	300.81
708.94	299.73
709.28	298.72
709.61	297.57
709.94	296.43
710.28	295.22
710.61	294.15
710.95	292.98
711.28	292.05
711.61	290.92
711.95	290.02
712.28	288.93
712.61	287.73
712.95	286.67
713.28	285.79
713.61	284.70
713.95	283.72
714.28	282.84
714.61	281.90
714.95	281.04
715.28	280.19
715.61	279.30
715.95	278.33
716.28	277.35
716.61	276.50
716.95	275.75
717.28	274.96
717.61	274.14
717.94	273.33
718.28	272.40
718.61	271.70
718.94	270.83
719.27	270.20
719.61	269.53
719.94	268.86
720.27	268.05
720.60	267.34
720.94	266.65
721.27	265.99
721.60	265.35
721.93	264.67
722.27	264.09
722.60	263.47
722.93	262.88
723.26	262.30
723.59	261.70
723.93	261.11
724.26	260.55
724.59	259.86
724.92	259.27
725.25	258.73
725.59	258.19
725.92	257.64
726.25	257.03
726.58	256.57
726.91	255.98
727.24	255.51
727.57	255.06
727.91	254.54
728.24	254.06
728.57	253.56
728.90	253.10
729.23	252.55
729.56	252.17
729.89	251.61
730.22	251.21
730.55	250.78
730.89	250.35
731.22	249.91
731.55	249.48
731.88	249.00
732.21	248.56
732.54	248.04
732.87	247.64
733.20	247.27
733.53	246.85
733.86	246.51
734.19	246.02
734.52	245.61
734.85	245.33
735.18	244.93
735.51	244.55
735.84	244.15
736.17	243.86
736.50	243.42
736.83	243.32
737.16	242.95
737.49	242.58
737.82	242.17
738.15	241.78
738.48	241.47
738.81	241.13
739.14	240.81
739.47	240.46
739.80	240.05
740.13	239.75
740.46	239.38
740.79	238.98
741.12	238.73
741.45	238.35
741.78	237.92
742.11	237.56
742.44	237.29
742.77	237.01
743.10	236.65
743.43	236.27
743.75	235.73
744.08	235.57
744.41	235.29
744.74	234.95
745.07	234.72
745.40	234.46
745.73	234.26
746.06	234.01
746.39	233.84
746.71	233.57
747.04	233.28
747.37	232.99
747.70	232.76
748.03	232.46
748.36	232.30
748.68	231.98
749.01	231.73
749.34	231.41
749.67	231.10
750.00	230.83
750.33	230.70
750.65	230.49
750.98	229.98
751.31	229.72
751.64	229.55
751.97	229.37
752.29	229.06
752.62	228.73
752.95	228.43
753.28	228.16
753.60	227.95
753.93	227.74
754.26	227.54
754.59	227.30
754.91	227.07
755.24	226.82
755.57	226.68
755.90	226.50
756.22	226.25
756.55	226.10
756.88	225.90
757.20	225.68
757.53	225.46
757.86	225.40
758.19	225.20
758.51	225.06
758.84	224.75
759.17	224.63
759.49	224.43
759.82	224.38
760.15	224.22
760.47	224.07
760.80	223.90
761.13	223.79
761.45	223.60
761.78	223.52
762.11	223.44
762.43	223.24
762.76	223.08
763.08	223.05
763.41	222.92
763.74	222.80
764.06	222.60
764.39	222.47
764.71	222.29
765.04	222.13
765.37	221.90
765.69	221.76
766.02	221.65
766.34	221.53
766.67	221.36
767.00	221.25
767.32	221.24
767.65	221.20
767.97	221.05
768.30	220.96
768.62	220.84
768.95	220.70
769.27	220.63
769.60	220.60
769.92	220.50
770.25	220.37
770.57	220.18
770.90	220.05
771.22	219.99
771.55	219.97
771.87	219.89
772.20	219.85
772.52	219.94
772.85	220.06
773.17	220.09
773.50	219.93
773.82	219.78
774.15	219.57
774.47	219.36
774.80	219.20
775.12	219.07
775.45	218.89
775.77	218.74
776.09	218.62
776.42	218.39
776.74	218.35
777.07	218.30
777.39	218.28
777.72	218.22
778.04	218.15
778.36	217.96
778.69	217.85
779.01	217.82
779.33	217.68
779.66	217.34
779.98	217.16
780.31	217.14
780.63	217.16
780.95	217.14
781.28	217.07
781.60	217.05
781.92	217.06
782.25	217.02
782.57	216.95
782.89	216.86
783.22	216.86
783.54	216.71
783.86	216.60
784.19	216.57
784.51	216.58
784.83	216.46
785.16	216.44
785.48	216.49
785.80	216.41
786.12	216.24
786.45	216.28
786.77	216.27
787.09	216.18
787.42	216.04
787.74	216.03
788.06	216.06
788.38	216.03
788.71	216.00
789.03	216.04
789.35	216.10
789.67	216.14
789.99	216.11
790.32	216.07
790.64	216.10
790.96	216.24
791.28	216.13
791.61	216.10
791.93	216.00
792.25	216.01
792.57	216.04
792.89	216.01
793.21	215.92
793.54	215.83
793.86	215.81
794.18	215.77
794.50	215.56
794.82	215.44
795.14	215.42
795.47	215.36
795.79	215.25
796.11	215.18
796.43	215.13
796.75	215.12
797.07	215.11
797.39	215.03
797.71	214.86
798.04	214.84
798.36	214.85
798.68	214.82
799.00	214.70
799.32	214.64
799.64	214.68
799.96	214.66
800.28	214.69
800.60	214.62
800.92	214.63
801.24	214.64
801.56	214.62
801.89	214.53
802.21	214.50
802.53	214.50
802.85	214.41
803.17	214.44
803.49	214.36
803.81	214.32
804.13	214.33
804.45	214.21
804.77	214.22
805.09	214.19
805.41	214.18
805.73	214.17
806.05	214.07
806.37	214.02
806.69	213.98
807.01	213.95
807.33	214.04
807.65	213.98
807.97	214.11
808.28	214.09
808.60	214.05
808.92	214.01
809.24	214.05
809.56	214.02
809.88	213.92
810.20	213.81
810.52	213.84
810.84	213.76
811.16	213.73
811.48	213.67
811.80	213.70
812.12	213.70
812.43	213.65
812.75	213.66
813.07	213.67
813.39	213.64
813.71	213.55
814.03	213.45
814.35	213.45
814.67	213.34
814.98	213.30
815.30	213.34
815.62	213.25
815.94	213.06
816.26	213.03
816.58	212.97
816.89	213.05
817.21	212.94
817.53	212.89
817.85	212.98
818.17	212.95
818.48	212.90
818.80	212.92
819.12	212.90
819.44	212.86
819.76	212.75
820.07	212.83
820.39	212.89
820.71	212.91
821.03	212.81
821.34	212.79
821.66	212.88
821.98	212.87
822.30	212.95
822.61	213.10
822.93	213.11
823.25	213.16
823.57	213.12
823.88	213.19
824.20	213.21
824.52	213.09
824.83	213.09
825.15	213.02
825.47	212.92
825.79	212.90
826.10	212.86
826.42	212.86
826.74	212.79
827.05	212.73
827.37	212.64
827.69	212.68
828.00	212.65
828.32	212.49
828.64	212.39
828.95	212.40
829.27	212.30
829.58	212.30
829.90	212.30
830.22	212.25
830.53	212.20
830.85	212.15
831.17	212.20
831.48	212.17
831.80	212.18
832.11	212.21
832.43	212.20
832.75	212.14
833.06	212.18
833.38	212.06
833.69	212.04
834.01	212.10
834.32	212.14
834.64	212.13
834.96	212.19
835.27	212.20
835.59	212.15
835.90	212.16
836.22	212.19
836.53	212.16
836.85	212.09
837.16	212.24
837.48	212.24
837.79	212.28
838.11	212.29
838.42	212.22
838.74	212.19
839.05	212.19
839.37	212.20
839.68	212.13
840.00	212.14
840.31	212.16
840.63	212.06
840.94	211.97
841.26	212.02
841.57	212.04
841.88	212.04
842.20	211.98
842.51	211.93
842.83	211.89
843.14	211.97
843.46	212.06
843.77	211.90
844.08	211.90
844.40	211.76
844.71	211.68
845.03	211.69
845.34	211.74
845.65	211.69
845.97	211.67
846.28	211.70
846.60	211.70
846.91	211.67
847.22	211.75
847.54	211.74
847.85	211.66
848.16	211.62
848.48	211.62
848.79	211.66
849.10	211.65
849.42	211.63
849.73	211.51
850.04	211.49
850.36	211.45
850.67	211.46
850.98	211.45
851.30	211.50
851.61	211.46
851.92	211.44
852.23	211.51
852.55	211.53
852.86	211.50
853.17	211.57
853.49	211.50
853.80	211.49
854.11	211.57
854.42	211.54
854.74	211.47
855.05	211.52
855.36	211.50
855.67	211.50
855.99	211.53
856.30	211.73
856.61	211.73
856.92	211.76
857.23	211.75
857.55	211.83
857.86	211.79
858.17	211.84
858.48	211.81
858.79	211.77
859.11	211.82
859.42	211.86
859.73	211.82
860.04	211.87
860.35	211.80
860.66	211.71
860.98	211.70
861.29	211.72
861.60	211.63
861.91	211.65
862.22	211.64
862.53	211.61
862.84	211.38
863.16	211.37
863.47	211.33
863.78	211.32
864.09	211.32
864.40	211.38
864.71	211.39
865.02	211.39
865.33	211.38
865.64	211.35
865.95	211.32
866.27	211.42
866.58	211.36
866.89	211.37
867.20	211.38
867.51	211.47
867.82	211.49
868.13	211.57
868.44	211.53
868.75	211.62
869.06	211.57
869.37	211.60
869.68	211.53
869.99	211.55
870.30	211.57
870.61	211.55
870.92	211.50
871.23	211.46
871.54	211.49
871.85	211.48
872.16	211.48
872.47	211.47
872.78	211.37
873.09	211.45
873.40	211.45
873.71	211.52
874.02	211.49
874.33	211.47
874.64	211.47
874.95	211.52
875.26	211.49
875.56	211.47
875.87	211.37
876.18	211.41
876.49	211.56
876.80	211.54
877.11	211.50
877.42	211.53
877.73	211.55
878.04	211.49
878.35	211.53
878.66	211.52
878.96	211.55
879.27	211.57
879.58	211.56
879.89	211.62
880.20	211.58
880.51	211.52
880.82	211.58
881.12	211.56
881.43	211.48
881.74	211.49
882.05	211.52
882.36	211.56
882.67	211.59
882.97	211.36
883.28	211.28
883.59	211.26
883.90	211.34
884.21	211.41
884.51	211.39
884.82	211.31
885.13	211.35
885.44	211.36
885.74	211.37
886.05	211.42
886.36	211.40
886.67	211.34
886.98	211.48
887.28	211.45
887.59	211.35
887.90	211.39
888.20	211.38
888.51	211.45
888.82	211.53
889.13	211.48
889.43	211.64
889.74	211.70
890.05	211.75
890.35	211.66
890.66	211.62
890.97	211.60
891.28	211.63
891.58	211.57
891.89	211.55
892.20	211.44
892.50	211.35
892.81	211.33
893.12	211.36
893.42	211.20
893.73	211.20
894.04	211.24
894.34	211.18
894.65	211.10
894.95	211.01
895.26	210.96
895.57	211.11
895.87	210.89
896.18	210.90
896.48	210.89
896.79	210.85
897.10	210.82
897.40	210.89
897.71	210.88
898.01	210.90
898.32	210.87
898.63	210.91
898.93	210.93
899.24	210.89
899.54	210.89
899.85	210.96
900.15	210.96
900.46	210.94
900.76	210.96
901.07	210.98
901.38	211.03
901.68	211.03
901.99	210.89
902.29	211.04
902.60	211.04
902.90	210.95
903.21	210.98
903.51	210.94
903.82	210.95
904.12	210.92
904.43	210.95
904.73	210.93
905.03	210.94
905.34	211.10
905.64	211.14
905.95	211.11
906.25	211.04
906.56	211.05
906.86	211.13
907.17	211.11
907.47	211.13
907.77	211.10
908.08	211.05
908.38	211.08
908.69	211.01
908.99	211.06
909.30	211.15
909.60	211.17
909.90	211.25
910.21	211.14
910.51	211.20
910.81	211.12
911.12	211.11
911.42	211.10
911.73	210.86
912.03	210.78
912.33	210.79
912.64	210.90
912.94	210.81
913.24	210.83
913.55	210.78
913.85	210.73
914.15	210.75
914.46	210.84
914.76	210.82
915.06	210.89
915.37	210.87
915.67	210.81
915.97	210.75
916.27	210.70
916.58	210.84
916.88	210.83
917.18	210.91
917.49	211.10
917.79	211.15
918.09	211.28
918.39	211.40
918.70	211.47
919.00	211.38
919.30	211.48
919.60	211.34
919.91	211.38
920.21	211.42
920.51	211.37
920.81	211.30
921.12	211.29
921.42	211.24
921.72	211.29
922.02	211.42
922.32	211.52
922.63	211.55
922.93	211.56
923.23	211.50
923.53	211.41
923.83	211.31
924.13	211.35
924.44	211.33
924.74	211.41
925.04	211.47
925.34	211.54
925.64	211.47
925.94	211.53
926.24	211.65
926.55	211.68
926.85	211.69
927.15	211.68
927.45	211.75
927.75	211.77
928.05	211.76
928.35	211.65
928.65	211.62
928.95	211.68
929.26	211.66
929.56	211.77
929.86	211.83
930.16	211.83
930.46	211.74
930.76	211.73
931.06	211.60
931.36	211.59
931.66	211.58
931.96	211.65
932.26	211.69
932.56	211.61
932.86	211.58
933.16	211.65
933.46	211.73
933.76	211.68
934.06	211.69
934.36	211.69
934.66	211.72
934.96	211.74
935.26	211.69
935.56	211.70
935.86	211.65
936.16	211.55
936.46	211.50
936.76	211.51
937.06	211.51
937.36	211.49
937.66	211.44
937.96	211.45
938.26	211.42
938.56	211.38
938.86	211.45
939.16	211.45
939.46	211.41
939.76	211.37
940.06	211.38
940.35	211.37
940.65	211.32
940.95	211.36
941.25	211.29
941.55	211.25
941.85	211.20
942.15	211.17
942.45	211.29
942.75	211.25
943.04	211.31
943.34	211.31
943.64	211.28
943.94	211.24
944.24	211.20
944.54	211.18
944.84	211.21
945.13	211.16
945.43	211.18
945.73	211.19
946.03	211.17
946.33	211.12
946.62	211.11
946.92	211.08
947.22	211.09
947.52	211.14
947.82	211.15
948.11	211.14
948.41	211.16
948.71	211.18
949.01	211.25
949.31	211.18
949.60	211.17
949.90	211.20
950.20	211.25
950.50	211.25
950.79	211.28
951.09	211.32
951.39	211.25
951.69	211.26
951.98	211.27
952.28	211.31
952.58	211.37
952.87	211.39
953.17	211.38
953.47	211.36
953.76	211.27
954.06	211.25
954.36	211.24
954.66	211.25
954.95	211.24
955.25	211.18
955.55	211.27
955.84	211.24
956.14	211.32
956.44	211.27
956.73	211.24
957.03	211.23
957.32	211.16
957.62	211.17
957.92	211.17
958.21	211.21
958.51	211.40
958.81	211.42
959.10	211.34
959.40	211.43
959.69	211.42
959.99	211.47
960.29	211.54
960.58	211.57
960.88	211.61
961.17	211.48
961.47	211.52
961.76	211.42
962.06	211.38
962.36	211.32
962.65	211.40
962.95	211.41
963.24	211.35
963.54	211.36
963.83	211.37
964.13	211.32
964.42	211.20
964.72	210.99
965.01	210.94
965.31	210.97
965.60	210.84
965.90	210.98
966.19	210.94
966.49	210.86
966.78	210.79
967.08	210.74
967.37	210.84
967.67	210.80
967.96	210.83
968.26	210.85
968.55	210.84
968.85	210.71
969.14	210.68
969.43	210.74
969.73	210.72
970.02	210.81
970.32	210.83
970.61	210.82
970.91	210.78
971.20	210.74
971.49	210.75
971.79	210.86
972.08	210.67
972.38	210.64
972.67	210.63
972.96	210.70
973.26	210.68
973.55	210.68
973.85	210.68
974.14	210.75
974.43	210.76
974.73	210.75
975.02	210.75
975.31	210.74
975.61	210.77
975.90	210.79
976.19	210.73
976.49	210.76
976.78	210.78
977.07	210.78
977.37	210.79
977.66	210.80
977.95	210.74
978.24	210.76
978.54	210.84
978.83	210.78
979.12	210.78
979.42	210.78
979.71	210.74
980.00	210.70
980.29	210.66
980.59	210.71
980.88	210.73
981.17	210.70
981.46	210.68
981.76	210.61
982.05	210.65
982.34	210.59
982.63	210.53
982.93	210.52
983.22	210.55
983.51	210.58
983.80	210.56
984.09	210.58
984.39	210.59
984.68	210.60
984.97	210.64
985.26	210.57
985.55	210.61
985.85	210.65
986.14	210.72
986.43	210.72
986.72	210.72
987.01	210.69
987.30	210.74
987.59	210.80
987.89	210.85
988.18	210.75
988.47	210.72
988.76	210.77
989.05	210.79
989.34	210.80
989.63	210.79
989.92	210.78
990.22	210.75
990.51	210.71
990.80	210.67
991.09	210.70
991.38	210.78
991.67	210.72
991.96	210.66
992.25	210.67
992.54	210.66
992.83	210.63
993.12	210.63
993.41	210.66
993.70	210.73
993.99	210.67
994.28	210.75
994.58	210.79
994.87	210.74
995.16	210.71
995.45	210.72
995.74	210.71
996.03	210.69
996.32	210.70
996.61	210.80
996.90	210.85
997.19	210.79
997.48	210.79
997.77	210.76
998.06	210.76
998.34	210.68
998.63	210.65
998.92	210.63
999.21	210.61
999.50	210.61
999.79	210.56
1000.08	210.65
1000.37	210.64
1000.66	210.64
1000.95	210.68
1001.24	210.73
1001.53	210.74
1001.82	210.77
1002.11	210.81
1002.40	210.74
1002.68	210.72
1002.97	210.81
1003.26	210.87
1003.55	210.85
1003.84	210.89
1004.13	210.94
1004.42	210.99
1004.71	210.96
1004.99	210.95
1005.28	211.02
1005.57	210.98
1005.86	210.89
1006.15	210.80
1006.44	210.75
1006.72	210.77
1007.01	210.81
1007.30	210.80
1007.59	210.74
1007.88	210.64
1008.17	210.59
1008.45	210.58
1008.74	210.54
1009.03	210.40
1009.32	210.36
1009.60	210.31
1009.89	210.28
1010.18	210.17
1010.47	210.14
1010.76	210.18
1011.04	210.23
1011.33	210.25
1011.62	210.27
1011.91	210.33
1012.19	210.35
1012.48	210.36
1012.77	210.35
1013.05	210.33
1013.34	210.26
1013.63	210.30
1013.92	210.33
1014.20	210.37
1014.49	210.46
1014.78	210.41
1015.06	210.40
1015.35	210.40
1015.64	210.48
1015.92	210.52
1016.21	210.57
1016.50	210.59
1016.78	210.59
1017.07	210.52
1017.36	210.41
1017.64	210.40
1017.93	210.37
1018.22	210.37
1018.50	210.42
1018.79	210.44
1019.08	210.45
1019.36	210.56
1019.65	210.57
1019.93	210.65
1020.22	210.63
1020.51	210.65
1020.79	210.68
1021.08	210.40
1021.36	211.40
1021.65	211.10
1021.94	211.35
1022.22	211.95
1022.51	210.60
1022.79	211.45
1023.08	210.00
1023.36	211.80
1023.65	210.35
>>>>>End Processed Spectral Data<<<<<
