SpectraSuite Data File
++++++++++++++++++++++++++++++++++++
Date: Mon Feb 25 17:36:04 EST 2013
User: group
Dark Spectrum Present: No
Reference Spectrum Present: No
Number of Sampled Component Spectra: 1
Spectrometers: USB2E7196
Integration Time (usec): 52000 (USB2E7196)
Spectra Averaged: 20 (USB2E7196)
Boxcar Smoothing: 10 (USB2E7196)
Correct for Electrical Dark: No (USB2E7196)
Strobe/Lamp Enabled: No (USB2E7196)
Correct for Detector Non-linearity: No (USB2E7196)
Correct for Stray Light: No (USB2E7196)
Number of Pixels in Processed Spectrum: 2048
>>>>>Begin Processed Spectral Data<<<<<
339.09	0.00
339.48	198.70
339.86	200.00
340.24	201.25
340.63	203.50
341.01	207.15
341.39	207.45
341.78	207.35
342.16	208.60
342.54	209.90
342.93	198.29
343.31	208.31
343.69	208.87
344.07	209.30
344.46	209.78
344.84	210.24
345.22	210.50
345.60	210.81
345.99	211.15
346.37	211.37
346.75	211.58
347.13	211.72
347.52	211.83
347.90	212.10
348.28	212.16
348.66	212.34
349.05	212.40
349.43	212.53
349.81	212.77
350.19	212.94
350.57	213.19
350.96	213.30
351.34	213.55
351.72	213.71
352.10	213.95
352.48	214.09
352.87	214.19
353.25	214.27
353.63	214.37
354.01	214.37
354.39	214.50
354.77	214.53
355.15	214.65
355.54	214.75
355.92	214.82
356.30	214.90
356.68	215.15
357.06	215.23
357.44	215.31
357.82	215.42
358.20	215.46
358.58	215.55
358.97	215.70
359.35	215.75
359.73	215.92
360.11	215.99
360.49	216.09
360.87	216.11
361.25	216.21
361.63	216.24
362.01	216.36
362.39	216.37
362.77	216.49
363.15	216.51
363.53	216.57
363.91	216.54
364.29	216.55
364.67	216.33
365.05	216.41
365.43	216.51
365.81	216.52
366.19	216.64
366.57	216.70
366.95	216.67
367.33	216.61
367.71	216.58
368.09	216.62
368.47	216.66
368.85	216.73
369.23	216.70
369.61	216.67
369.99	216.63
370.37	216.57
370.75	216.56
371.13	216.49
371.51	216.37
371.89	216.36
372.27	216.37
372.65	216.45
373.03	216.35
373.41	216.28
373.78	216.25
374.16	216.16
374.54	216.06
374.92	216.05
375.30	216.02
375.68	215.92
376.06	215.89
376.44	215.78
376.82	215.68
377.19	215.73
377.57	215.71
377.95	215.68
378.33	215.72
378.71	215.59
379.09	215.60
379.47	215.64
379.84	215.59
380.22	215.52
380.60	215.39
380.98	215.34
381.36	215.34
381.73	215.26
382.11	215.22
382.49	215.09
382.87	215.05
383.25	215.06
383.62	215.28
384.00	215.28
384.38	215.27
384.76	215.31
385.13	215.35
385.51	215.22
385.89	215.13
386.27	215.17
386.64	215.23
387.02	215.21
387.40	215.19
387.78	215.19
388.15	215.18
388.53	215.19
388.91	215.31
389.29	215.26
389.66	215.30
390.04	215.33
390.42	215.45
390.79	215.40
391.17	215.42
391.55	215.17
391.92	215.15
392.30	215.24
392.68	215.20
393.05	215.14
393.43	215.21
393.81	215.32
394.18	215.29
394.56	215.25
394.94	215.35
395.31	215.39
395.69	215.57
396.06	215.71
396.44	215.82
396.82	215.85
397.19	216.10
397.57	216.18
397.95	216.37
398.32	216.48
398.70	216.69
399.07	216.93
399.45	217.13
399.82	217.27
400.20	217.44
400.58	217.73
400.95	217.94
401.33	218.28
401.70	218.69
402.08	219.05
402.45	219.47
402.83	219.90
403.20	220.34
403.58	220.71
403.95	221.23
404.33	221.86
404.71	222.44
405.08	223.07
405.46	223.78
405.83	224.44
406.21	225.20
406.58	226.11
406.96	226.99
407.33	228.07
407.70	229.27
408.08	230.71
408.45	232.04
408.83	233.50
409.20	234.93
409.58	236.41
409.95	238.18
410.33	240.04
410.70	241.89
411.08	244.01
411.45	246.30
411.82	248.74
412.20	251.28
412.57	254.26
412.95	257.13
413.32	260.33
413.69	263.77
414.07	267.39
414.44	271.40
414.82	275.60
415.19	280.28
415.56	285.08
415.94	290.25
416.31	295.89
416.68	301.54
417.06	308.02
417.43	314.18
417.81	321.32
418.18	328.63
418.55	336.60
418.93	344.99
419.30	353.73
419.67	362.82
420.04	372.35
420.42	382.40
420.79	393.52
421.16	405.29
421.54	417.00
421.91	429.57
422.28	442.66
422.66	456.45
423.03	469.64
423.40	483.80
423.77	498.83
424.15	514.30
424.52	530.60
424.89	548.20
425.26	565.55
425.64	582.06
426.01	600.20
426.38	619.24
426.75	638.46
427.13	658.55
427.50	680.06
427.87	702.48
428.24	724.95
428.61	746.69
428.99	769.68
429.36	795.53
429.73	820.69
430.10	845.62
430.47	871.53
430.85	898.99
431.22	927.72
431.59	957.66
431.96	987.15
432.33	1019.59
432.70	1051.15
433.08	1088.24
433.45	1123.29
433.82	1158.16
434.19	1196.72
434.56	1234.70
434.93	1271.69
435.30	1308.18
435.68	1348.85
436.05	1389.21
436.42	1429.89
436.79	1466.98
437.16	1507.29
437.53	1549.90
437.90	1592.16
438.27	1633.65
438.64	1677.53
439.01	1717.88
439.38	1755.08
439.75	1790.37
440.13	1830.59
440.50	1868.91
440.87	1900.72
441.24	1934.08
441.61	1970.76
441.98	1999.52
442.35	2032.07
442.72	2064.19
443.09	2095.55
443.46	2116.45
443.83	2131.85
444.20	2145.70
444.57	2164.32
444.94	2174.99
445.31	2185.99
445.68	2195.42
446.05	2202.77
446.42	2202.84
446.79	2201.73
447.16	2200.29
447.53	2200.37
447.90	2189.08
448.27	2178.03
448.64	2160.41
449.01	2148.34
449.37	2124.13
449.74	2100.35
450.11	2070.97
450.48	2040.23
450.85	2008.50
451.22	1981.41
451.59	1954.97
451.96	1929.95
452.33	1895.51
452.70	1864.48
453.07	1826.90
453.43	1789.61
453.80	1752.56
454.17	1716.66
454.54	1683.48
454.91	1646.85
455.28	1611.46
455.65	1578.71
456.02	1543.13
456.38	1514.61
456.75	1478.32
457.12	1448.82
457.49	1419.58
457.86	1391.99
458.23	1366.69
458.59	1339.54
458.96	1311.76
459.33	1287.74
459.70	1263.23
460.07	1243.90
460.43	1221.51
460.80	1200.06
461.17	1181.63
461.54	1162.04
461.91	1143.53
462.27	1124.88
462.64	1109.37
463.01	1091.45
463.38	1073.53
463.74	1058.30
464.11	1043.77
464.48	1031.22
464.85	1016.88
465.21	1005.37
465.58	993.32
465.95	979.48
466.32	967.61
466.68	955.80
467.05	943.93
467.42	932.13
467.78	920.02
468.15	908.51
468.52	899.76
468.88	888.88
469.25	879.05
469.62	870.88
469.98	862.06
470.35	853.83
470.72	846.20
471.08	838.42
471.45	831.30
471.82	823.40
472.18	815.37
472.55	809.85
472.92	803.46
473.28	797.75
473.65	792.23
474.02	786.67
474.38	782.18
474.75	778.35
475.11	774.27
475.48	770.99
475.85	768.13
476.21	765.50
476.58	762.99
476.94	761.26
477.31	759.24
477.67	757.24
478.04	755.50
478.41	754.66
478.77	753.73
479.14	752.83
479.50	752.89
479.87	753.49
480.23	754.09
480.60	754.35
480.96	754.80
481.33	756.25
481.69	757.99
482.06	759.05
482.42	760.01
482.79	761.50
483.15	764.21
483.52	767.61
483.88	770.54
484.25	773.76
484.61	777.05
484.98	780.50
485.34	785.02
485.71	789.96
486.07	794.89
486.44	800.28
486.80	805.72
487.17	811.89
487.53	818.54
487.90	825.30
488.26	832.66
488.62	840.54
488.99	848.27
489.35	856.35
489.72	865.80
490.08	875.80
490.44	885.55
490.81	895.53
491.17	905.59
491.54	916.44
491.90	927.28
492.26	939.01
492.63	951.42
492.99	963.92
493.36	976.96
493.72	990.60
494.08	1004.51
494.45	1019.27
494.81	1034.50
495.17	1050.05
495.54	1066.48
495.90	1083.67
496.26	1100.92
496.63	1118.60
496.99	1136.70
497.35	1154.44
497.72	1172.95
498.08	1191.75
498.44	1210.74
498.80	1230.94
499.17	1251.26
499.53	1271.98
499.89	1293.46
500.26	1314.78
500.62	1335.83
500.98	1358.23
501.34	1380.63
501.71	1403.45
502.07	1426.77
502.43	1449.79
502.79	1473.03
503.16	1496.28
503.52	1519.28
503.88	1542.08
504.24	1565.51
504.60	1589.38
504.97	1614.32
505.33	1638.55
505.69	1664.34
506.05	1689.45
506.41	1714.04
506.78	1738.63
507.14	1763.50
507.50	1788.02
507.86	1812.67
508.22	1838.16
508.59	1862.75
508.95	1887.80
509.31	1912.61
509.67	1937.63
510.03	1962.84
510.39	1988.63
510.75	2013.61
511.12	2037.84
511.48	2062.64
511.84	2087.34
512.20	2111.40
512.56	2135.85
512.92	2160.30
513.28	2183.81
513.64	2207.61
514.00	2230.50
514.37	2253.87
514.73	2277.11
515.09	2299.18
515.45	2321.56
515.81	2343.31
516.17	2365.39
516.53	2386.68
516.89	2408.17
517.25	2427.55
517.61	2446.75
517.97	2465.61
518.33	2483.84
518.69	2503.32
519.05	2522.70
519.41	2541.36
519.77	2560.29
520.13	2577.74
520.49	2594.65
520.85	2611.25
521.21	2627.77
521.57	2645.28
521.93	2661.04
522.29	2677.45
522.65	2694.03
523.01	2710.13
523.37	2725.41
523.73	2740.26
524.09	2754.66
524.45	2768.89
524.81	2783.42
525.17	2798.00
525.53	2811.93
525.89	2826.69
526.25	2840.48
526.61	2852.34
526.97	2864.98
527.33	2876.40
527.68	2888.54
528.04	2901.01
528.40	2912.70
528.76	2924.37
529.12	2935.34
529.48	2946.80
529.84	2956.02
530.20	2966.11
530.56	2975.90
530.91	2987.07
531.27	2997.23
531.63	3007.36
531.99	3016.54
532.35	3025.91
532.71	3034.88
533.07	3045.26
533.42	3054.38
533.78	3064.19
534.14	3073.11
534.50	3081.51
534.86	3091.41
535.21	3098.67
535.57	3106.70
535.93	3114.24
536.29	3120.98
536.65	3128.63
537.00	3135.42
537.36	3143.26
537.72	3149.60
538.08	3156.17
538.44	3161.84
538.79	3167.46
539.15	3173.66
539.51	3180.03
539.87	3186.65
540.22	3192.84
540.58	3197.86
540.94	3203.04
541.29	3206.39
541.65	3209.26
542.01	3212.85
542.37	3215.80
542.72	3219.90
543.08	3222.20
543.44	3225.74
543.79	3228.34
544.15	3229.97
544.51	3233.77
544.87	3236.95
545.22	3239.11
545.58	3240.69
545.94	3241.89
546.29	3242.95
546.65	3242.78
547.01	3242.85
547.36	3243.44
547.72	3243.92
548.07	3243.52
548.43	3242.66
548.79	3241.52
549.14	3242.61
549.50	3242.80
549.86	3242.17
550.21	3240.95
550.57	3241.29
550.92	3240.03
551.28	3238.71
551.64	3237.32
551.99	3235.31
552.35	3234.14
552.70	3233.11
553.06	3232.47
553.41	3232.22
553.77	3231.55
554.13	3231.45
554.48	3232.42
554.84	3231.07
555.19	3229.15
555.55	3228.33
555.90	3228.16
556.26	3228.41
556.61	3227.67
556.97	3225.28
557.32	3223.12
557.68	3221.36
558.03	3218.56
558.39	3216.10
558.74	3215.73
559.10	3215.51
559.45	3214.86
559.81	3213.38
560.16	3211.69
560.52	3209.96
560.87	3207.75
561.23	3204.60
561.58	3201.82
561.94	3197.37
562.29	3193.77
562.64	3190.58
563.00	3186.50
563.35	3181.56
563.71	3177.62
564.06	3174.38
564.42	3172.30
564.77	3169.91
565.12	3167.27
565.48	3164.62
565.83	3162.77
566.19	3160.08
566.54	3156.50
566.89	3151.58
567.25	3146.82
567.60	3144.01
567.96	3139.46
568.31	3134.33
568.66	3130.80
569.02	3127.40
569.37	3124.01
569.72	3121.36
570.08	3118.37
570.43	3114.05
570.78	3111.35
571.14	3108.36
571.49	3104.45
571.84	3101.13
572.20	3096.56
572.55	3092.64
572.90	3087.12
573.26	3081.29
573.61	3074.81
573.96	3068.33
574.31	3062.59
574.67	3056.64
575.02	3049.23
575.37	3042.44
575.72	3036.19
576.08	3029.60
576.43	3022.09
576.78	3014.71
577.13	3007.88
577.49	3000.89
577.84	2994.50
578.19	2986.40
578.54	2977.83
578.90	2970.25
579.25	2960.66
579.60	2951.59
579.95	2942.65
580.30	2935.54
580.66	2927.71
581.01	2919.19
581.36	2909.86
581.71	2901.61
582.06	2893.78
582.42	2886.78
582.77	2878.26
583.12	2870.05
583.47	2861.42
583.82	2852.89
584.17	2843.67
584.53	2834.70
584.88	2825.47
585.23	2816.22
585.58	2807.98
585.93	2799.10
586.28	2790.25
586.63	2782.54
586.98	2774.65
587.34	2766.67
587.69	2757.10
588.04	2748.32
588.39	2740.32
588.74	2731.76
589.09	2722.66
589.44	2712.08
589.79	2701.78
590.14	2693.56
590.49	2683.52
590.84	2674.51
591.19	2665.92
591.54	2656.60
591.89	2645.40
592.25	2635.80
592.60	2625.42
592.95	2614.45
593.30	2603.95
593.65	2593.44
594.00	2583.45
594.35	2574.42
594.70	2564.42
595.05	2555.00
595.40	2544.48
595.75	2533.19
596.10	2523.43
596.45	2513.30
596.80	2504.29
597.15	2494.62
597.50	2484.27
597.85	2475.48
598.19	2464.30
598.54	2452.99
598.89	2442.84
599.24	2433.53
599.59	2422.70
599.94	2412.81
600.29	2402.71
600.64	2392.78
600.99	2381.90
601.34	2371.64
601.69	2359.56
602.04	2348.01
602.39	2337.88
602.74	2328.88
603.08	2320.74
603.43	2312.04
603.78	2302.32
604.13	2292.31
604.48	2281.88
604.83	2272.53
605.18	2262.05
605.53	2253.31
605.87	2244.07
606.22	2235.06
606.57	2225.12
606.92	2214.89
607.27	2204.88
607.62	2196.29
607.96	2187.35
608.31	2179.03
608.66	2168.45
609.01	2159.17
609.36	2149.69
609.70	2139.47
610.05	2128.24
610.40	2116.67
610.75	2105.01
611.10	2094.35
611.44	2082.59
611.79	2072.35
612.14	2061.16
612.49	2049.47
612.83	2037.78
613.18	2025.94
613.53	2014.00
613.88	2001.75
614.22	1990.77
614.57	1979.15
614.92	1966.95
615.27	1955.49
615.61	1942.71
615.96	1931.24
616.31	1920.36
616.65	1910.12
617.00	1899.01
617.35	1888.16
617.70	1876.99
618.04	1866.10
618.39	1855.25
618.74	1844.98
619.08	1833.00
619.43	1821.24
619.78	1810.74
620.12	1800.84
620.47	1790.81
620.82	1780.13
621.16	1770.56
621.51	1759.97
621.85	1749.94
622.20	1739.29
622.55	1727.73
622.89	1717.74
623.24	1707.54
623.59	1696.65
623.93	1685.78
624.28	1675.45
624.62	1665.20
624.97	1655.01
625.32	1645.06
625.66	1635.19
626.01	1625.59
626.35	1617.24
626.70	1608.53
627.04	1599.47
627.39	1589.22
627.73	1579.85
628.08	1571.15
628.43	1561.74
628.77	1553.19
629.12	1543.62
629.46	1534.33
629.81	1524.94
630.15	1515.06
630.50	1505.24
630.84	1495.70
631.19	1485.67
631.53	1476.14
631.88	1466.49
632.22	1457.14
632.57	1448.07
632.91	1438.63
633.26	1429.16
633.60	1418.93
633.95	1409.63
634.29	1400.70
634.64	1392.43
634.98	1383.08
635.32	1373.79
635.67	1365.31
636.01	1356.40
636.36	1347.73
636.70	1339.31
637.05	1331.49
637.39	1323.61
637.73	1315.54
638.08	1307.79
638.42	1300.11
638.77	1292.09
639.11	1284.32
639.45	1276.46
639.80	1267.91
640.14	1259.49
640.49	1251.22
640.83	1243.25
641.17	1234.80
641.52	1226.35
641.86	1217.53
642.20	1209.68
642.55	1201.34
642.89	1192.51
643.23	1183.88
643.58	1176.06
643.92	1167.78
644.26	1159.26
644.61	1150.73
644.95	1142.37
645.29	1134.11
645.64	1125.59
645.98	1117.52
646.32	1109.58
646.66	1101.87
647.01	1094.21
647.35	1086.45
647.69	1078.43
648.04	1070.78
648.38	1062.78
648.72	1055.02
649.06	1047.44
649.41	1039.53
649.75	1031.56
650.09	1024.30
650.43	1017.25
650.78	1010.00
651.12	1002.51
651.46	995.52
651.80	988.85
652.14	982.32
652.49	975.40
652.83	968.32
653.17	960.64
653.51	953.15
653.85	945.89
654.20	939.11
654.54	932.26
654.88	925.59
655.22	918.48
655.56	911.39
655.90	904.03
656.25	896.85
656.59	890.25
656.93	883.93
657.27	877.35
657.61	870.27
657.95	863.69
658.29	857.21
658.64	850.77
658.98	844.53
659.32	837.84
659.66	831.34
660.00	825.29
660.34	819.73
660.68	813.70
661.02	807.37
661.36	801.23
661.70	795.36
662.05	789.90
662.39	784.53
662.73	779.70
663.07	774.71
663.41	769.75
663.75	764.35
664.09	758.96
664.43	753.29
664.77	748.22
665.11	742.84
665.45	737.90
665.79	732.94
666.13	727.85
666.47	723.01
666.81	718.38
667.15	713.60
667.49	708.78
667.83	704.10
668.17	699.71
668.51	695.23
668.85	690.60
669.19	685.74
669.53	680.78
669.87	675.70
670.21	671.13
670.55	666.29
670.89	661.68
671.23	657.30
671.57	653.06
671.91	648.61
672.25	644.30
672.58	639.99
672.92	635.37
673.26	631.11
673.60	626.99
673.94	622.89
674.28	619.09
674.62	615.02
674.96	610.96
675.30	606.99
675.64	602.97
675.97	599.41
676.31	596.02
676.65	592.66
676.99	589.43
677.33	585.95
677.67	582.61
678.01	578.94
678.34	575.26
678.68	571.90
679.02	568.27
679.36	564.61
679.70	561.15
680.04	557.90
680.37	554.43
680.71	550.97
681.05	547.74
681.39	544.21
681.73	541.03
682.06	537.99
682.40	534.93
682.74	531.64
683.08	528.16
683.42	524.62
683.75	521.19
684.09	517.63
684.43	514.24
684.77	510.88
685.10	507.62
685.44	504.44
685.78	501.28
686.12	498.25
686.45	495.34
686.79	492.40
687.13	489.69
687.46	486.81
687.80	483.94
688.14	480.90
688.48	478.05
688.81	475.09
689.15	472.20
689.49	469.14
689.82	466.37
690.16	463.47
690.50	460.58
690.83	457.92
691.17	455.35
691.51	452.68
691.84	450.11
692.18	447.59
692.52	445.22
692.85	442.69
693.19	440.23
693.52	437.63
693.86	434.93
694.20	432.15
694.53	429.62
694.87	426.89
695.21	424.25
695.54	421.70
695.88	419.16
696.21	416.70
696.55	414.37
696.88	412.15
697.22	410.03
697.56	408.10
697.89	405.94
698.23	403.75
698.56	401.51
698.90	399.34
699.23	397.21
699.57	395.03
699.90	392.86
700.24	390.78
700.58	388.70
700.91	386.67
701.25	384.82
701.58	383.04
701.92	381.43
702.25	379.79
702.59	378.04
702.92	376.30
703.26	374.58
703.59	372.98
703.93	371.29
704.26	369.39
704.60	367.58
704.93	365.79
705.26	363.99
705.60	362.36
705.93	360.84
706.27	359.29
706.60	357.76
706.94	356.31
707.27	354.65
707.61	353.08
707.94	351.63
708.27	349.97
708.61	348.37
708.94	346.71
709.28	345.05
709.61	343.42
709.94	341.86
710.28	340.19
710.61	338.69
710.95	336.93
711.28	335.61
711.61	334.00
711.95	332.57
712.28	331.08
712.61	329.68
712.95	328.24
713.28	326.99
713.61	325.50
713.95	324.11
714.28	322.95
714.61	321.74
714.95	320.51
715.28	319.27
715.61	317.84
715.95	316.59
716.28	315.27
716.61	314.04
716.95	312.81
717.28	311.71
717.61	310.38
717.94	309.34
718.28	308.07
718.61	307.05
718.94	305.95
719.27	304.95
719.61	303.93
719.94	302.90
720.27	301.67
720.60	300.77
720.94	299.74
721.27	298.82
721.60	298.00
721.93	297.07
722.27	296.21
722.60	295.45
722.93	294.63
723.26	293.85
723.59	293.03
723.93	292.23
724.26	291.36
724.59	290.56
724.92	289.70
725.25	288.88
725.59	288.06
725.92	287.34
726.25	286.58
726.58	285.75
726.91	284.90
727.24	284.21
727.57	283.44
727.91	282.61
728.24	281.74
728.57	280.87
728.90	280.15
729.23	279.39
729.56	278.70
729.89	277.88
730.22	277.16
730.55	276.46
730.89	275.77
731.22	275.11
731.55	274.45
731.88	273.82
732.21	273.17
732.54	272.49
732.87	271.92
733.20	271.29
733.53	270.70
733.86	270.10
734.19	269.48
734.52	268.87
734.85	268.50
735.18	267.95
735.51	267.40
735.84	266.73
736.17	266.17
736.50	265.55
736.83	265.27
737.16	264.63
737.49	264.05
737.82	263.48
738.15	262.96
738.48	262.38
738.81	261.85
739.14	261.30
739.47	260.76
739.80	260.14
740.13	259.56
740.46	258.96
740.79	258.52
741.12	257.96
741.45	257.47
741.78	256.78
742.11	256.23
742.44	255.56
742.77	255.02
743.10	254.42
743.43	253.85
743.75	253.17
744.08	252.95
744.41	252.52
744.74	251.99
745.07	251.46
745.40	251.05
745.73	250.62
746.06	250.18
746.39	249.70
746.71	249.13
747.04	248.72
747.37	248.35
747.70	247.88
748.03	247.48
748.36	247.05
748.68	246.62
749.01	246.20
749.34	245.79
749.67	245.39
750.00	245.04
750.33	244.78
750.65	244.41
750.98	243.84
751.31	243.42
751.64	243.07
751.97	242.74
752.29	242.40
752.62	241.99
752.95	241.54
753.28	241.20
753.60	240.90
753.93	240.60
754.26	240.24
754.59	239.85
754.91	239.47
755.24	239.09
755.57	238.78
755.90	238.47
756.22	238.25
756.55	237.94
756.88	237.68
757.20	237.22
757.53	236.88
757.86	236.53
758.19	236.29
758.51	236.05
758.84	235.71
759.17	235.45
759.49	235.21
759.82	235.08
760.15	234.84
760.47	234.60
760.80	234.28
761.13	234.04
761.45	233.78
761.78	233.63
762.11	233.34
762.43	233.05
762.76	232.82
763.08	232.58
763.41	232.38
763.74	232.13
764.06	232.00
764.39	231.73
764.71	231.48
765.04	231.18
765.37	230.90
765.69	230.63
766.02	230.39
766.34	230.12
766.67	229.90
767.00	229.79
767.32	229.71
767.65	229.69
767.97	229.46
768.30	229.24
768.62	228.93
768.95	228.80
769.27	228.66
769.60	228.45
769.92	228.21
770.25	227.95
770.57	227.71
770.90	227.50
771.22	227.38
771.55	227.27
771.87	227.13
772.20	226.95
772.52	226.98
772.85	226.99
773.17	226.84
773.50	226.63
773.82	226.41
774.15	226.20
774.47	225.90
774.80	225.77
775.12	225.71
775.45	225.64
775.77	225.50
776.09	225.32
776.42	225.25
776.74	225.19
777.07	225.07
777.39	224.88
777.72	224.75
778.04	224.49
778.36	224.25
778.69	224.10
779.01	224.00
779.33	223.74
779.66	223.43
779.98	223.21
780.31	223.14
780.63	223.08
780.95	222.93
781.28	222.74
781.60	222.64
781.92	222.52
782.25	222.37
782.57	222.16
782.89	222.07
783.22	221.92
783.54	221.80
783.86	221.74
784.19	221.70
784.51	221.63
784.83	221.58
785.16	221.51
785.48	221.48
785.80	221.29
786.12	221.15
786.45	220.99
786.77	221.00
787.09	220.85
787.42	220.72
787.74	220.62
788.06	220.53
788.38	220.41
788.71	220.28
789.03	220.17
789.35	220.17
789.67	220.04
789.99	219.91
790.32	219.74
790.64	219.62
790.96	219.69
791.28	219.56
791.61	219.42
791.93	219.40
792.25	219.23
792.57	219.35
792.89	219.32
793.21	219.22
793.54	219.09
793.86	218.99
794.18	218.89
794.50	218.80
794.82	218.73
795.14	218.68
795.47	218.60
795.79	218.52
796.11	218.38
796.43	218.29
796.75	218.27
797.07	218.25
797.39	218.23
797.71	218.04
798.04	217.90
798.36	217.90
798.68	217.82
799.00	217.84
799.32	217.65
799.64	217.61
799.96	217.59
800.28	217.57
800.60	217.46
800.92	217.42
801.24	217.28
801.56	217.24
801.89	217.17
802.21	217.11
802.53	217.02
802.85	217.10
803.17	217.09
803.49	217.00
803.81	216.99
804.13	216.90
804.45	216.80
804.77	216.84
805.09	216.79
805.41	216.66
805.73	216.58
806.05	216.58
806.37	216.49
806.69	216.35
807.01	216.21
807.33	216.23
807.65	216.12
807.97	216.24
808.28	216.18
808.60	216.13
808.92	216.07
809.24	216.16
809.56	215.97
809.88	215.94
810.20	215.82
810.52	215.80
810.84	215.68
811.16	215.63
811.48	215.58
811.80	215.53
812.12	215.49
812.43	215.50
812.75	215.47
813.07	215.40
813.39	215.47
813.71	215.53
814.03	215.48
814.35	215.47
814.67	215.38
814.98	215.31
815.30	215.28
815.62	215.20
815.94	215.05
816.26	215.07
816.58	215.04
816.89	215.03
817.21	214.98
817.53	215.04
817.85	215.06
818.17	215.04
818.48	214.99
818.80	215.00
819.12	214.90
819.44	214.83
819.76	214.81
820.07	214.80
820.39	214.66
820.71	214.66
821.03	214.65
821.34	214.54
821.66	214.56
821.98	214.51
822.30	214.52
822.61	214.61
822.93	214.55
823.25	214.50
823.57	214.48
823.88	214.42
824.20	214.32
824.52	214.35
824.83	214.28
825.15	214.20
825.47	214.17
825.79	214.17
826.10	214.11
826.42	214.03
826.74	214.02
827.05	214.03
827.37	213.96
827.69	213.90
828.00	213.90
828.32	213.86
828.64	213.85
828.95	213.89
829.27	213.81
829.58	213.79
829.90	213.80
830.22	213.78
830.53	213.73
830.85	213.70
831.17	213.63
831.48	213.62
831.80	213.66
832.11	213.60
832.43	213.54
832.75	213.50
833.06	213.64
833.38	213.59
833.69	213.56
834.01	213.58
834.32	213.53
834.64	213.55
834.96	213.52
835.27	213.43
835.59	213.34
835.90	213.22
836.22	213.22
836.53	213.18
836.85	213.13
837.16	213.32
837.48	213.32
837.79	213.34
838.11	213.31
838.42	213.28
838.74	213.36
839.05	213.36
839.37	213.37
839.68	213.23
840.00	213.15
840.31	213.14
840.63	213.09
840.94	213.13
841.26	213.08
841.57	213.04
841.88	213.13
842.20	213.12
842.51	213.16
842.83	213.13
843.14	213.27
843.46	213.32
843.77	213.15
844.08	213.09
844.40	213.03
844.71	213.05
845.03	212.93
845.34	212.81
845.65	212.78
845.97	212.73
846.28	212.70
846.60	212.80
846.91	212.74
847.22	212.80
847.54	212.78
847.85	212.80
848.16	212.80
848.48	212.72
848.79	212.73
849.10	212.80
849.42	212.84
849.73	212.66
850.04	212.62
850.36	212.52
850.67	212.59
850.98	212.53
851.30	212.48
851.61	212.59
851.92	212.64
852.23	212.65
852.55	212.72
852.86	212.73
853.17	212.61
853.49	212.69
853.80	212.64
854.11	212.61
854.42	212.60
854.74	212.59
855.05	212.54
855.36	212.49
855.67	212.46
855.99	212.48
856.30	212.67
856.61	212.59
856.92	212.67
857.23	212.66
857.55	212.70
857.86	212.65
858.17	212.63
858.48	212.65
858.79	212.64
859.11	212.59
859.42	212.62
859.73	212.67
860.04	212.66
860.35	212.58
860.66	212.57
860.98	212.55
861.29	212.57
861.60	212.65
861.91	212.67
862.22	212.60
862.53	212.51
862.84	212.30
863.16	212.47
863.47	212.41
863.78	212.38
864.09	212.39
864.40	212.43
864.71	212.41
865.02	212.43
865.33	212.37
865.64	212.31
865.95	212.25
866.27	212.25
866.58	212.23
866.89	212.20
867.20	212.21
867.51	212.16
867.82	212.17
868.13	212.14
868.44	212.03
868.75	212.03
869.06	212.01
869.37	212.00
869.68	211.87
869.99	211.88
870.30	211.90
870.61	211.82
870.92	211.77
871.23	211.75
871.54	211.76
871.85	211.80
872.16	211.84
872.47	211.82
872.78	211.82
873.09	211.80
873.40	211.85
873.71	211.85
874.02	211.89
874.33	211.89
874.64	211.83
874.95	211.92
875.26	211.93
875.56	211.94
875.87	211.95
876.18	212.00
876.49	212.22
876.80	212.20
877.11	212.22
877.42	212.24
877.73	212.22
878.04	212.10
878.35	212.07
878.66	212.00
878.96	212.08
879.27	212.00
879.58	212.00
879.89	211.96
880.20	212.00
880.51	211.95
880.82	211.94
881.12	212.04
881.43	212.00
881.74	211.94
882.05	211.98
882.36	211.99
882.67	211.90
882.97	211.70
883.28	211.65
883.59	211.61
883.90	211.65
884.21	211.67
884.51	211.66
884.82	211.68
885.13	211.78
885.44	211.68
885.74	211.69
886.05	211.71
886.36	211.75
886.67	211.72
886.98	211.81
887.28	211.81
887.59	211.72
887.90	211.75
888.20	211.77
888.51	211.77
888.82	211.80
889.13	211.79
889.43	211.88
889.74	211.90
890.05	211.91
890.35	211.90
890.66	211.90
890.97	211.94
891.28	211.91
891.58	211.92
891.89	211.93
892.20	211.93
892.50	211.87
892.81	211.89
893.12	211.78
893.42	211.65
893.73	211.63
894.04	211.67
894.34	211.74
894.65	211.73
894.95	211.73
895.26	211.71
895.57	211.86
895.87	211.70
896.18	211.70
896.48	211.75
896.79	211.73
897.10	211.77
897.40	211.77
897.71	211.78
898.01	211.70
898.32	211.72
898.63	211.66
898.93	211.70
899.24	211.64
899.54	211.71
899.85	211.70
900.15	211.72
900.46	211.75
900.76	211.72
901.07	211.75
901.38	211.74
901.68	211.75
901.99	211.59
902.29	211.63
902.60	211.64
902.90	211.62
903.21	211.64
903.51	211.57
903.82	211.66
904.12	211.75
904.43	211.82
904.73	211.82
905.03	211.93
905.34	212.05
905.64	212.03
905.95	211.98
906.25	212.02
906.56	212.04
906.86	212.02
907.17	211.96
907.47	211.99
907.77	211.95
908.08	211.96
908.38	211.97
908.69	211.98
908.99	211.99
909.30	211.91
909.60	211.92
909.90	211.91
910.21	211.81
910.51	211.66
910.81	211.70
911.12	211.74
911.42	211.73
911.73	211.61
912.03	211.65
912.33	211.79
912.64	211.76
912.94	211.70
913.24	211.69
913.55	211.65
913.85	211.57
914.15	211.64
914.46	211.59
914.76	211.56
915.06	211.58
915.37	211.53
915.67	211.58
915.97	211.61
916.27	211.60
916.58	211.55
916.88	211.61
917.18	211.58
917.49	211.63
917.79	211.58
918.09	211.55
918.39	211.55
918.70	211.54
919.00	211.53
919.30	211.70
919.60	211.69
919.91	211.73
920.21	211.74
920.51	211.74
920.81	211.78
921.12	211.80
921.42	211.74
921.72	211.77
922.02	211.69
922.32	211.61
922.63	211.56
922.93	211.68
923.23	211.64
923.53	211.56
923.83	211.45
924.13	211.45
924.44	211.43
924.74	211.53
925.04	211.51
925.34	211.47
925.64	211.30
925.94	211.28
926.24	211.25
926.55	211.27
926.85	211.16
927.15	211.04
927.45	211.13
927.75	211.11
928.05	211.07
928.35	211.12
928.65	211.20
928.95	211.25
929.26	211.19
929.56	211.18
929.86	211.21
930.16	211.25
930.46	211.23
930.76	211.19
931.06	211.06
931.36	210.95
931.66	211.02
931.96	211.02
932.26	211.03
932.56	210.97
932.86	210.94
933.16	210.93
933.46	211.03
933.76	210.93
934.06	210.97
934.36	211.03
934.66	211.04
934.96	210.97
935.26	210.96
935.56	210.97
935.86	210.99
936.16	210.94
936.46	210.86
936.76	210.89
937.06	210.89
937.36	210.89
937.66	210.92
937.96	210.87
938.26	210.93
938.56	210.91
938.86	210.92
939.16	210.92
939.46	210.96
939.76	210.90
940.06	210.89
940.35	210.79
940.65	210.75
940.95	210.72
941.25	210.70
941.55	210.68
941.85	210.68
942.15	210.69
942.45	210.72
942.75	210.80
943.04	210.78
943.34	210.79
943.64	210.78
943.94	210.76
944.24	210.78
944.54	210.77
944.84	210.78
945.13	210.79
945.43	210.83
945.73	210.82
946.03	210.85
946.33	210.79
946.62	210.79
946.92	210.73
947.22	210.74
947.52	210.74
947.82	210.76
948.11	210.74
948.41	210.70
948.71	210.64
949.01	210.62
949.31	210.60
949.60	210.58
949.90	210.61
950.20	210.58
950.50	210.62
950.79	210.52
951.09	210.54
951.39	210.55
951.69	210.53
951.98	210.57
952.28	210.57
952.58	210.66
952.87	210.72
953.17	210.79
953.47	210.85
953.76	210.88
954.06	210.80
954.36	210.82
954.66	210.75
954.95	210.79
955.25	210.76
955.55	210.78
955.84	210.81
956.14	210.75
956.44	210.79
956.73	210.72
957.03	210.81
957.32	210.71
957.62	210.74
957.92	210.73
958.21	210.68
958.51	210.84
958.81	210.83
959.10	210.86
959.40	210.89
959.69	210.87
959.99	210.83
960.29	210.93
960.58	210.82
960.88	210.97
961.17	211.00
961.47	210.98
961.76	210.94
962.06	210.96
962.36	210.95
962.65	210.98
962.95	210.98
963.24	210.94
963.54	211.01
963.83	210.96
964.13	210.95
964.42	210.89
964.72	210.72
965.01	210.71
965.31	210.69
965.60	210.65
965.90	210.74
966.19	210.76
966.49	210.77
966.78	210.85
967.08	210.80
967.37	210.74
967.67	210.77
967.96	210.84
968.26	210.85
968.55	210.87
968.85	210.87
969.14	210.85
969.43	210.88
969.73	210.87
970.02	210.92
970.32	210.90
970.61	210.94
970.91	210.95
971.20	210.90
971.49	210.87
971.79	210.87
972.08	210.69
972.38	210.72
972.67	210.74
972.96	210.71
973.26	210.69
973.55	210.76
973.85	210.81
974.14	210.72
974.43	210.72
974.73	210.70
975.02	210.70
975.31	210.75
975.61	210.72
975.90	210.70
976.19	210.64
976.49	210.69
976.78	210.68
977.07	210.68
977.37	210.75
977.66	210.73
977.95	210.70
978.24	210.84
978.54	210.85
978.83	210.73
979.12	210.79
979.42	210.82
979.71	210.79
980.00	210.72
980.29	210.80
980.59	210.74
980.88	210.82
981.17	210.78
981.46	210.72
981.76	210.76
982.05	210.87
982.34	210.91
982.63	210.89
982.93	210.90
983.22	210.90
983.51	210.93
983.80	210.97
984.09	210.98
984.39	210.90
984.68	210.92
984.97	211.00
985.26	210.95
985.55	210.93
985.85	210.87
986.14	210.91
986.43	210.88
986.72	210.88
987.01	210.75
987.30	210.72
987.59	210.76
987.89	210.74
988.18	210.59
988.47	210.59
988.76	210.52
989.05	210.54
989.34	210.52
989.63	210.54
989.92	210.62
990.22	210.66
990.51	210.71
990.80	210.73
991.09	210.71
991.38	210.75
991.67	210.75
991.96	210.78
992.25	210.80
992.54	210.80
992.83	210.88
993.12	210.96
993.41	211.04
993.70	211.13
993.99	211.19
994.28	211.21
994.58	211.21
994.87	211.25
995.16	211.21
995.45	211.26
995.74	211.15
996.03	211.10
996.32	211.09
996.61	211.09
996.90	211.03
997.19	211.04
997.48	211.04
997.77	211.03
998.06	211.08
998.34	211.01
998.63	211.04
998.92	211.03
999.21	211.07
999.50	211.06
999.79	210.96
1000.08	210.89
1000.37	210.94
1000.66	210.94
1000.95	211.00
1001.24	211.10
1001.53	211.15
1001.82	211.21
1002.11	211.11
1002.40	211.18
1002.68	211.23
1002.97	211.33
1003.26	211.35
1003.55	211.33
1003.84	211.34
1004.13	211.39
1004.42	211.42
1004.71	211.50
1004.99	211.50
1005.28	211.48
1005.57	211.51
1005.86	211.51
1006.15	211.50
1006.44	211.48
1006.72	211.48
1007.01	211.51
1007.30	211.44
1007.59	211.34
1007.88	211.25
1008.17	211.33
1008.45	211.22
1008.74	211.17
1009.03	211.14
1009.32	211.10
1009.60	211.07
1009.89	211.06
1010.18	211.00
1010.47	210.98
1010.76	210.93
1011.04	210.85
1011.33	210.86
1011.62	210.88
1011.91	210.91
1012.19	210.90
1012.48	210.92
1012.77	210.94
1013.05	210.95
1013.34	210.95
1013.63	210.97
1013.92	211.05
1014.20	211.01
1014.49	211.04
1014.78	211.04
1015.06	210.94
1015.35	210.94
1015.64	210.97
1015.92	210.95
1016.21	210.89
1016.50	210.89
1016.78	210.89
1017.07	210.96
1017.36	210.90
1017.64	210.83
1017.93	210.80
1018.22	210.87
1018.50	210.81
1018.79	210.79
1019.08	210.70
1019.36	210.77
1019.65	210.78
1019.93	210.86
1020.22	210.90
1020.51	211.02
1020.79	210.95
1021.08	211.70
1021.36	209.70
1021.65	211.00
1021.94	210.50
1022.22	212.10
1022.51	211.20
1022.79	212.20
1023.08	210.95
1023.36	213.35
1023.65	210.45
>>>>>End Processed Spectral Data<<<<<
