SpectraSuite Data File
++++++++++++++++++++++++++++++++++++
Date: Mon Feb 25 17:35:48 EST 2013
User: group
Dark Spectrum Present: No
Reference Spectrum Present: No
Number of Sampled Component Spectra: 1
Spectrometers: USB2E7196
Integration Time (usec): 52000 (USB2E7196)
Spectra Averaged: 20 (USB2E7196)
Boxcar Smoothing: 10 (USB2E7196)
Correct for Electrical Dark: No (USB2E7196)
Strobe/Lamp Enabled: No (USB2E7196)
Correct for Detector Non-linearity: No (USB2E7196)
Correct for Stray Light: No (USB2E7196)
Number of Pixels in Processed Spectrum: 2048
>>>>>Begin Processed Spectral Data<<<<<
339.09	0.00
339.48	198.45
339.86	201.30
340.24	201.30
340.63	202.45
341.01	207.10
341.39	205.10
341.78	207.95
342.16	207.45
342.54	208.50
342.93	197.93
343.31	208.01
343.69	208.61
344.07	209.02
344.46	209.41
344.84	209.85
345.22	210.05
345.60	210.32
345.99	210.49
346.37	210.78
346.75	210.95
347.13	210.98
347.52	211.13
347.90	211.23
348.28	211.30
348.66	211.38
349.05	211.36
349.43	211.45
349.81	211.52
350.19	211.57
350.57	211.58
350.96	211.70
351.34	211.74
351.72	211.80
352.10	211.87
352.48	212.05
352.87	212.09
353.25	212.12
353.63	212.20
354.01	212.25
354.39	212.22
354.77	212.26
355.15	212.43
355.54	212.43
355.92	212.44
356.30	212.47
356.68	212.63
357.06	212.78
357.44	212.79
357.82	212.82
358.20	212.92
358.58	213.07
358.97	213.13
359.35	213.20
359.73	213.29
360.11	213.39
360.49	213.40
360.87	213.45
361.25	213.47
361.63	213.52
362.01	213.57
362.39	213.53
362.77	213.57
363.15	213.55
363.53	213.58
363.91	213.69
364.29	213.73
364.67	213.55
365.05	213.43
365.43	213.45
365.81	213.53
366.19	213.55
366.57	213.60
366.95	213.59
367.33	213.54
367.71	213.49
368.09	213.48
368.47	213.45
368.85	213.37
369.23	213.40
369.61	213.43
369.99	213.47
370.37	213.55
370.75	213.68
371.13	213.64
371.51	213.54
371.89	213.49
372.27	213.52
372.65	213.56
373.03	213.60
373.41	213.59
373.78	213.52
374.16	213.41
374.54	213.29
374.92	213.23
375.30	213.19
375.68	213.15
376.06	213.14
376.44	213.14
376.82	213.20
377.19	213.22
377.57	213.14
377.95	213.08
378.33	212.95
378.71	212.77
379.09	212.77
379.47	212.81
379.84	212.73
380.22	212.69
380.60	212.64
380.98	212.59
381.36	212.48
381.73	212.45
382.11	212.47
382.49	212.40
382.87	212.27
383.25	212.22
383.62	212.39
384.00	212.28
384.38	212.20
384.76	212.15
385.13	212.24
385.51	212.13
385.89	212.04
386.27	212.05
386.64	212.07
387.02	211.99
387.40	211.89
387.78	211.91
388.15	211.81
388.53	211.77
388.91	211.71
389.29	211.75
389.66	211.76
390.04	211.71
390.42	211.77
390.79	211.76
391.17	211.79
391.55	211.63
391.92	211.69
392.30	211.72
392.68	211.63
393.05	211.52
393.43	211.57
393.81	211.60
394.18	211.60
394.56	211.56
394.94	211.62
395.31	211.64
395.69	211.70
396.06	211.77
396.44	211.80
396.82	211.86
397.19	212.00
397.57	212.00
397.95	212.03
398.32	211.98
398.70	212.05
399.07	212.09
399.45	212.10
399.82	212.11
400.20	212.14
400.58	212.33
400.95	212.27
401.33	212.34
401.70	212.45
402.08	212.51
402.45	212.53
402.83	212.59
403.20	212.66
403.58	212.70
403.95	212.77
404.33	212.83
404.71	212.88
405.08	213.03
405.46	213.16
405.83	213.24
406.21	213.47
406.58	213.68
406.96	213.86
407.33	213.98
407.70	214.17
408.08	214.51
408.45	214.70
408.83	215.02
409.20	215.25
409.58	215.43
409.95	215.74
410.33	216.03
410.70	216.31
411.08	216.70
411.45	217.03
411.82	217.38
412.20	217.90
412.57	218.47
412.95	218.80
413.32	219.34
413.69	219.88
414.07	220.33
414.44	220.98
414.82	221.61
415.19	222.43
415.56	223.21
415.94	223.97
416.31	224.79
416.68	225.68
417.06	226.70
417.43	227.65
417.81	228.76
418.18	229.94
418.55	231.23
418.93	232.45
419.30	233.81
419.67	235.18
420.04	236.69
420.42	238.23
420.79	240.04
421.16	241.82
421.54	243.69
421.91	245.58
422.28	247.40
422.66	249.47
423.03	251.48
423.40	253.60
423.77	255.79
424.15	258.14
424.52	260.56
424.89	263.15
425.26	265.61
425.64	268.01
426.01	270.59
426.38	273.22
426.75	276.05
427.13	278.94
427.50	281.95
427.87	285.00
428.24	288.04
428.61	291.01
428.99	294.20
429.36	297.73
429.73	301.27
430.10	304.84
430.47	308.32
430.85	312.01
431.22	315.80
431.59	320.04
431.96	324.00
432.33	328.25
432.70	332.49
433.08	337.46
433.45	342.06
433.82	346.80
434.19	351.99
434.56	356.95
434.93	361.78
435.30	366.52
435.68	371.88
436.05	377.19
436.42	382.35
436.79	387.21
437.16	392.28
437.53	397.74
437.90	403.05
438.27	408.34
438.64	413.73
439.01	418.93
439.38	423.44
439.75	427.65
440.13	432.50
440.50	437.13
440.87	440.87
441.24	444.90
441.61	449.10
441.98	452.16
442.35	455.84
442.72	459.57
443.09	463.30
443.46	465.35
443.83	466.84
444.20	467.93
444.57	469.61
444.94	470.44
445.31	471.15
445.68	471.92
446.05	472.11
446.42	471.48
446.79	470.68
447.16	469.61
447.53	469.05
447.90	467.04
448.27	464.84
448.64	462.01
449.01	459.76
449.37	456.13
449.74	452.57
450.11	448.51
450.48	443.84
450.85	439.13
451.22	435.18
451.59	431.27
451.96	427.75
452.33	422.88
452.70	418.48
453.07	413.30
453.43	407.93
453.80	402.92
454.17	398.03
454.54	393.47
454.91	388.60
455.28	383.69
455.65	379.27
456.02	374.98
456.38	371.21
456.75	366.55
457.12	362.61
457.49	358.75
457.86	354.89
458.23	351.69
458.59	348.17
458.96	344.48
459.33	341.29
459.70	338.02
460.07	335.47
460.43	332.55
460.80	329.79
461.17	327.41
461.54	324.92
461.91	322.57
462.27	320.09
462.64	318.12
463.01	315.98
463.38	313.81
463.74	311.49
464.11	309.52
464.48	307.87
464.85	306.15
465.21	304.77
465.58	303.30
465.95	301.60
466.32	300.15
466.68	298.80
467.05	297.28
467.42	295.98
467.78	294.54
468.15	293.12
468.52	292.19
468.88	290.88
469.25	289.69
469.62	288.76
469.98	287.71
470.35	286.73
470.72	285.80
471.08	284.80
471.45	284.01
471.82	283.20
472.18	282.25
472.55	281.60
472.92	280.93
473.28	280.31
473.65	279.63
474.02	278.98
474.38	278.49
474.75	278.08
475.11	277.54
475.48	277.36
475.85	277.20
476.21	276.99
476.58	276.89
476.94	276.82
477.31	276.68
477.67	276.63
478.04	276.70
478.41	276.83
478.77	277.21
479.14	277.34
479.50	277.65
479.87	277.97
480.23	278.37
480.60	278.69
480.96	279.08
481.33	279.86
481.69	280.53
482.06	281.17
482.42	281.93
482.79	282.78
483.15	283.55
483.52	284.49
483.88	285.34
484.25	286.35
484.61	287.50
484.98	288.65
485.34	289.96
485.71	291.26
486.07	292.65
486.44	293.87
486.80	295.38
487.17	296.87
487.53	298.72
487.90	300.48
488.26	302.40
488.62	304.52
488.99	306.44
489.35	308.59
489.72	310.77
490.08	313.13
490.44	315.57
490.81	318.21
491.17	321.01
491.54	323.87
491.90	326.89
492.26	329.91
492.63	333.15
492.99	336.59
493.36	340.19
493.72	344.07
494.08	348.18
494.45	352.53
494.81	357.11
495.17	361.63
495.54	366.58
495.90	371.60
496.26	376.77
496.63	382.31
496.99	388.14
497.35	394.24
497.72	400.56
498.08	407.10
498.44	413.95
498.80	421.11
499.17	428.60
499.53	436.30
499.89	444.42
500.26	452.55
500.62	460.89
500.98	469.83
501.34	478.84
501.71	488.33
502.07	497.99
502.43	507.85
502.79	518.15
503.16	528.74
503.52	539.74
503.88	551.08
504.24	562.70
504.60	574.61
504.97	587.08
505.33	599.65
505.69	612.91
506.05	626.28
506.41	639.86
506.78	653.58
507.14	667.66
507.50	682.26
507.86	697.40
508.22	712.79
508.59	728.26
508.95	744.37
509.31	760.72
509.67	777.52
510.03	794.77
510.39	812.21
510.75	830.05
511.12	848.29
511.48	866.63
511.84	885.34
512.20	904.10
512.56	923.24
512.92	942.64
513.28	962.30
513.64	981.96
514.00	1001.95
514.37	1022.67
514.73	1043.68
515.09	1064.48
515.45	1085.39
515.81	1106.91
516.17	1128.52
516.53	1150.03
516.89	1171.54
517.25	1193.04
517.61	1214.63
517.97	1236.32
518.33	1257.96
518.69	1279.76
519.05	1301.92
519.41	1324.27
519.77	1347.01
520.13	1369.22
520.49	1391.43
520.85	1414.24
521.21	1437.07
521.57	1460.33
521.93	1482.48
522.29	1505.45
522.65	1528.65
523.01	1551.55
523.37	1573.70
523.73	1596.29
524.09	1618.89
524.45	1641.28
524.81	1664.05
525.17	1686.89
525.53	1709.62
525.89	1732.08
526.25	1754.43
526.61	1776.10
526.97	1797.93
527.33	1819.54
527.68	1841.36
528.04	1863.05
528.40	1883.45
528.76	1904.45
529.12	1925.06
529.48	1946.97
529.84	1967.70
530.20	1987.94
530.56	2008.67
530.91	2029.69
531.27	2050.29
531.63	2070.41
531.99	2090.69
532.35	2110.12
532.71	2129.56
533.07	2149.35
533.42	2168.43
533.78	2187.67
534.14	2206.75
534.50	2224.42
534.86	2242.83
535.21	2259.79
535.57	2277.87
535.93	2295.70
536.29	2312.98
536.65	2329.94
537.00	2345.57
537.36	2360.99
537.72	2376.19
538.08	2391.50
538.44	2407.03
538.79	2422.18
539.15	2437.17
539.51	2451.90
539.87	2467.48
540.22	2481.59
540.58	2496.36
540.94	2510.72
541.29	2523.52
541.65	2535.61
542.01	2548.97
542.37	2560.75
542.72	2573.27
543.08	2584.19
543.44	2596.05
543.79	2606.51
544.15	2616.94
544.51	2628.27
544.87	2639.26
545.22	2649.07
545.58	2657.90
545.94	2665.42
546.29	2672.45
546.65	2679.36
547.01	2686.07
547.36	2691.70
547.72	2697.89
548.07	2702.21
548.43	2706.04
548.79	2710.47
549.14	2715.48
549.50	2719.90
549.86	2724.25
550.21	2728.69
550.57	2733.27
550.92	2736.24
551.28	2739.16
551.64	2742.05
551.99	2744.46
552.35	2746.33
552.70	2749.25
553.06	2752.15
553.41	2755.31
553.77	2758.24
554.13	2760.42
554.48	2762.62
554.84	2764.42
555.19	2765.28
555.55	2766.29
555.90	2767.43
556.26	2768.00
556.61	2768.27
556.97	2767.16
557.32	2766.94
557.68	2765.30
558.03	2764.16
558.39	2762.96
558.74	2762.83
559.10	2761.79
559.45	2760.03
559.81	2759.14
560.16	2756.40
560.52	2753.92
560.87	2751.11
561.23	2747.59
561.58	2745.41
561.94	2742.10
562.29	2738.51
562.64	2736.25
563.00	2733.85
563.35	2731.91
563.71	2730.21
564.06	2728.26
564.42	2726.67
564.77	2724.16
565.12	2722.41
565.48	2719.17
565.83	2716.29
566.19	2712.64
566.54	2708.33
566.89	2704.53
567.25	2701.00
567.60	2698.06
567.96	2694.53
568.31	2691.19
568.66	2687.57
569.02	2683.07
569.37	2678.05
569.72	2674.36
570.08	2668.91
570.43	2662.97
570.78	2656.76
571.14	2650.32
571.49	2643.02
571.84	2636.84
572.20	2629.99
572.55	2623.19
572.90	2616.35
573.26	2609.45
573.61	2602.45
573.96	2595.86
574.31	2587.86
574.67	2579.24
575.02	2570.43
575.37	2561.51
575.72	2552.39
576.08	2544.35
576.43	2535.41
576.78	2527.66
577.13	2519.40
577.49	2511.23
577.84	2503.53
578.19	2496.20
578.54	2488.62
578.90	2482.28
579.25	2473.47
579.60	2464.18
579.95	2454.90
580.30	2446.91
580.66	2438.24
581.01	2428.83
581.36	2419.50
581.71	2411.30
582.06	2402.60
582.42	2394.46
582.77	2385.57
583.12	2376.42
583.47	2367.75
583.82	2359.37
584.17	2349.75
584.53	2340.27
584.88	2331.42
585.23	2321.77
585.58	2311.81
585.93	2302.03
586.28	2292.23
586.63	2283.19
586.98	2274.94
587.34	2266.78
587.69	2257.35
588.04	2248.22
588.39	2240.14
588.74	2231.17
589.09	2222.03
589.44	2212.79
589.79	2204.17
590.14	2196.38
590.49	2187.93
590.84	2178.68
591.19	2170.41
591.54	2161.51
591.89	2151.36
592.25	2141.43
592.60	2132.18
592.95	2122.94
593.30	2113.42
593.65	2103.41
594.00	2093.72
594.35	2085.08
594.70	2075.47
595.05	2066.63
595.40	2057.80
595.75	2048.16
596.10	2039.62
596.45	2031.32
596.80	2023.20
597.15	2014.55
597.50	2005.04
597.85	1996.26
598.19	1987.64
598.54	1978.90
598.89	1970.86
599.24	1964.08
599.59	1957.30
599.94	1950.11
600.29	1942.24
600.64	1934.08
600.99	1925.50
601.34	1918.20
601.69	1909.20
602.04	1901.05
602.39	1892.84
602.74	1884.69
603.08	1877.77
603.43	1870.63
603.78	1862.11
604.13	1854.15
604.48	1846.05
604.83	1839.00
605.18	1831.73
605.53	1824.10
605.87	1815.92
606.22	1808.71
606.57	1800.36
606.92	1791.71
607.27	1783.44
607.62	1775.59
607.96	1768.67
608.31	1762.53
608.66	1754.40
609.01	1747.10
609.36	1739.31
609.70	1730.95
610.05	1723.08
610.40	1714.44
610.75	1705.48
611.10	1697.87
611.44	1688.36
611.79	1679.03
612.14	1669.35
612.49	1659.88
612.83	1651.02
613.18	1641.55
613.53	1631.98
613.88	1622.40
614.22	1613.34
614.57	1603.96
614.92	1594.87
615.27	1585.40
615.61	1575.34
615.96	1566.35
616.31	1557.69
616.65	1549.65
617.00	1541.28
617.35	1532.27
617.70	1523.44
618.04	1514.36
618.39	1504.97
618.74	1496.54
619.08	1487.99
619.43	1479.89
619.78	1471.82
620.12	1463.41
620.47	1455.57
620.82	1446.90
621.16	1438.63
621.51	1430.29
621.85	1421.85
622.20	1413.16
622.55	1404.66
622.89	1396.51
623.24	1388.53
623.59	1379.57
623.93	1370.73
624.28	1362.49
624.62	1354.58
624.97	1346.15
625.32	1338.31
625.66	1330.77
626.01	1323.34
626.35	1316.00
626.70	1308.05
627.04	1300.66
627.39	1292.89
627.73	1285.35
628.08	1278.55
628.43	1271.21
628.77	1263.71
629.12	1256.32
629.46	1249.57
629.81	1242.33
630.15	1234.90
630.50	1227.56
630.84	1220.23
631.19	1213.16
631.53	1206.24
631.88	1198.28
632.22	1190.77
632.57	1183.80
632.91	1176.19
633.26	1168.51
633.60	1161.33
633.95	1154.69
634.29	1147.13
634.64	1140.49
634.98	1133.24
635.32	1126.07
635.67	1119.47
636.01	1112.64
636.36	1106.02
636.70	1099.35
637.05	1092.49
637.39	1086.37
637.73	1079.98
638.08	1074.08
638.42	1068.06
638.77	1061.50
639.11	1055.29
639.45	1049.26
639.80	1042.64
640.14	1036.26
640.49	1030.25
640.83	1023.79
641.17	1017.23
641.52	1011.14
641.86	1004.64
642.20	998.15
642.55	991.21
642.89	984.48
643.23	978.07
643.58	971.88
643.92	965.10
644.26	959.03
644.61	952.55
644.95	946.25
645.29	939.91
645.64	932.95
645.98	926.63
646.32	920.71
646.66	914.46
647.01	908.27
647.35	902.46
647.69	895.93
648.04	890.09
648.38	883.97
648.72	878.08
649.06	871.82
649.41	866.08
649.75	860.42
650.09	854.66
650.43	848.65
650.78	842.41
651.12	836.39
651.46	830.46
651.80	824.41
652.14	818.27
652.49	812.26
652.83	806.57
653.17	800.31
653.51	794.29
653.85	788.46
654.20	782.74
654.54	776.84
654.88	771.45
655.22	765.33
655.56	759.54
655.90	753.37
656.25	747.62
656.59	741.71
656.93	736.53
657.27	731.24
657.61	725.82
657.95	720.75
658.29	715.65
658.64	710.38
658.98	705.26
659.32	699.82
659.66	694.59
660.00	689.16
660.34	684.01
660.68	678.77
661.02	673.76
661.36	668.97
661.70	664.10
662.05	659.23
662.39	654.92
662.73	650.49
663.07	646.21
663.41	641.81
663.75	637.46
664.09	632.57
664.43	627.74
664.77	623.39
665.11	618.88
665.45	614.45
665.79	609.95
666.13	605.51
666.47	601.35
666.81	597.34
667.15	593.45
667.49	589.61
667.83	585.80
668.17	581.82
668.51	577.96
668.85	574.07
669.19	570.42
669.53	566.46
669.87	562.35
670.21	558.50
670.55	554.53
670.89	550.98
671.23	547.77
671.57	544.29
671.91	540.64
672.25	536.98
672.58	533.35
672.92	530.00
673.26	526.82
673.60	523.60
673.94	520.10
674.28	516.65
674.62	513.52
674.96	510.27
675.30	507.25
675.64	503.94
675.97	500.70
676.31	497.57
676.65	494.55
676.99	491.85
677.33	488.80
677.67	485.94
678.01	482.79
678.34	479.63
678.68	476.67
679.02	473.70
679.36	470.79
679.70	468.10
680.04	465.16
680.37	462.20
680.71	459.31
681.05	456.67
681.39	453.94
681.73	451.05
682.06	448.45
682.40	445.83
682.74	443.18
683.08	440.68
683.42	438.02
683.75	435.39
684.09	432.70
684.43	430.20
684.77	427.58
685.10	425.09
685.44	422.52
685.78	420.15
686.12	417.97
686.45	415.70
686.79	413.31
687.13	411.17
687.46	408.85
687.80	406.61
688.14	404.13
688.48	401.94
688.81	399.66
689.15	397.34
689.49	394.88
689.82	392.64
690.16	390.24
690.50	387.86
690.83	385.65
691.17	383.35
691.51	381.07
691.84	378.93
692.18	376.91
692.52	375.01
692.85	373.09
693.19	371.13
693.52	369.06
693.86	367.09
694.20	365.14
694.53	363.20
694.87	361.27
695.21	359.40
695.54	357.48
695.88	355.56
696.21	353.80
696.55	352.15
696.88	350.37
697.22	348.55
697.56	347.01
697.89	345.34
698.23	343.71
698.56	342.07
698.90	340.57
699.23	338.91
699.57	337.09
699.90	335.26
700.24	333.55
700.58	331.98
700.91	330.41
701.25	328.98
701.58	327.48
701.92	326.01
702.25	324.60
702.59	323.12
702.92	321.85
703.26	320.41
703.59	319.04
703.93	317.85
704.26	316.74
704.60	315.39
704.93	314.02
705.26	312.72
705.60	311.50
705.93	310.20
706.27	309.03
706.60	307.98
706.94	306.93
707.27	305.70
707.61	304.59
707.94	303.45
708.27	302.13
708.61	300.98
708.94	299.82
709.28	298.63
709.61	297.59
709.94	296.52
710.28	295.45
710.61	294.43
710.95	293.24
711.28	292.21
711.61	291.15
711.95	290.26
712.28	289.21
712.61	288.22
712.95	287.29
713.28	286.24
713.61	285.18
713.95	284.28
714.28	283.40
714.61	282.42
714.95	281.48
715.28	280.56
715.61	279.59
715.95	278.78
716.28	277.89
716.61	277.01
716.95	276.07
717.28	275.22
717.61	274.30
717.94	273.52
718.28	272.68
718.61	271.92
718.94	271.13
719.27	270.44
719.61	269.78
719.94	269.04
720.27	268.33
720.60	267.68
720.94	266.90
721.27	266.31
721.60	265.61
721.93	264.95
722.27	264.44
722.60	263.83
722.93	263.12
723.26	262.60
723.59	261.93
723.93	261.41
724.26	260.86
724.59	260.31
724.92	259.81
725.25	259.30
725.59	258.75
725.92	258.25
726.25	257.73
726.58	257.15
726.91	256.63
727.24	256.19
727.57	255.74
727.91	255.20
728.24	254.63
728.57	254.16
728.90	253.74
729.23	253.23
729.56	252.89
729.89	252.39
730.22	251.92
730.55	251.55
730.89	251.10
731.22	250.61
731.55	250.15
731.88	249.69
732.21	249.22
732.54	248.71
732.87	248.21
733.20	247.76
733.53	247.27
733.86	246.81
734.19	246.32
734.52	245.83
734.85	245.55
735.18	245.10
735.51	244.79
735.84	244.38
736.17	244.02
736.50	243.50
736.83	243.34
737.16	242.94
737.49	242.59
737.82	242.12
738.15	241.80
738.48	241.44
738.81	241.06
739.14	240.60
739.47	240.33
739.80	240.01
740.13	239.71
740.46	239.42
740.79	239.02
741.12	238.74
741.45	238.43
741.78	238.06
742.11	237.84
742.44	237.54
742.77	237.25
743.10	236.90
743.43	236.55
743.75	236.06
744.08	236.01
744.41	235.64
744.74	235.43
745.07	235.12
745.40	234.88
745.73	234.68
746.06	234.42
746.39	234.13
746.71	233.89
747.04	233.58
747.37	233.30
747.70	233.20
748.03	232.86
748.36	232.57
748.68	232.28
749.01	231.97
749.34	231.67
749.67	231.40
750.00	231.19
750.33	231.15
750.65	230.95
750.98	230.53
751.31	230.34
751.64	230.10
751.97	229.90
752.29	229.64
752.62	229.31
752.95	229.15
753.28	228.89
753.60	228.65
753.93	228.51
754.26	228.34
754.59	228.05
754.91	227.84
755.24	227.68
755.57	227.48
755.90	227.29
756.22	227.01
756.55	226.81
756.88	226.58
757.20	226.23
757.53	225.96
757.86	225.70
758.19	225.46
758.51	225.28
758.84	225.07
759.17	224.89
759.49	224.68
759.82	224.61
760.15	224.45
760.47	224.25
760.80	223.95
761.13	223.79
761.45	223.60
761.78	223.50
762.11	223.33
762.43	223.14
762.76	222.94
763.08	222.81
763.41	222.69
763.74	222.47
764.06	222.40
764.39	222.31
764.71	222.18
765.04	222.11
765.37	221.98
765.69	221.83
766.02	221.71
766.34	221.62
766.67	221.34
767.00	221.30
767.32	221.25
767.65	221.28
767.97	221.12
768.30	221.00
768.62	220.90
768.95	220.74
769.27	220.63
769.60	220.57
769.92	220.46
770.25	220.33
770.57	220.28
770.90	220.16
771.22	220.02
771.55	219.94
771.87	219.80
772.20	219.66
772.52	219.69
772.85	219.83
773.17	219.72
773.50	219.66
773.82	219.53
774.15	219.35
774.47	219.10
774.80	219.00
775.12	218.88
775.45	218.73
775.77	218.60
776.09	218.57
776.42	218.44
776.74	218.42
777.07	218.25
777.39	218.16
777.72	218.03
778.04	217.94
778.36	217.82
778.69	217.72
779.01	217.65
779.33	217.42
779.66	217.18
779.98	217.14
780.31	217.08
780.63	217.11
780.95	217.06
781.28	217.04
781.60	216.92
781.92	216.91
782.25	216.81
782.57	216.82
782.89	216.68
783.22	216.61
783.54	216.52
783.86	216.55
784.19	216.50
784.51	216.54
784.83	216.50
785.16	216.44
785.48	216.41
785.80	216.35
786.12	216.29
786.45	216.27
786.77	216.28
787.09	216.21
787.42	216.05
787.74	216.11
788.06	216.08
788.38	216.07
788.71	215.98
789.03	215.98
789.35	215.96
789.67	215.95
789.99	215.98
790.32	215.90
790.64	215.89
790.96	215.94
791.28	215.83
791.61	215.80
791.93	215.79
792.25	215.73
792.57	215.81
792.89	215.75
793.21	215.65
793.54	215.53
793.86	215.43
794.18	215.41
794.50	215.18
794.82	215.15
795.14	215.17
795.47	215.20
795.79	215.16
796.11	215.08
796.43	215.00
796.75	214.91
797.07	214.90
797.39	214.81
797.71	214.67
798.04	214.68
798.36	214.60
798.68	214.60
799.00	214.61
799.32	214.55
799.64	214.55
799.96	214.49
800.28	214.55
800.60	214.52
800.92	214.56
801.24	214.64
801.56	214.63
801.89	214.55
802.21	214.50
802.53	214.41
802.85	214.43
803.17	214.49
803.49	214.43
803.81	214.42
804.13	214.40
804.45	214.45
804.77	214.42
805.09	214.45
805.41	214.37
805.73	214.22
806.05	214.13
806.37	214.06
806.69	214.01
807.01	213.89
807.33	213.93
807.65	213.75
807.97	213.81
808.28	213.78
808.60	213.79
808.92	213.78
809.24	213.88
809.56	213.87
809.88	213.80
810.20	213.83
810.52	213.79
810.84	213.73
811.16	213.57
811.48	213.54
811.80	213.57
812.12	213.55
812.43	213.65
812.75	213.61
813.07	213.60
813.39	213.53
813.71	213.52
814.03	213.45
814.35	213.45
814.67	213.39
814.98	213.29
815.30	213.24
815.62	213.16
815.94	213.04
816.26	212.99
816.58	212.88
816.89	212.82
817.21	212.77
817.53	212.83
817.85	212.82
818.17	212.77
818.48	212.61
818.80	212.57
819.12	212.47
819.44	212.51
819.76	212.53
820.07	212.55
820.39	212.50
820.71	212.42
821.03	212.44
821.34	212.31
821.66	212.33
821.98	212.38
822.30	212.34
822.61	212.40
822.93	212.37
823.25	212.32
823.57	212.31
823.88	212.39
824.20	212.34
824.52	212.34
824.83	212.32
825.15	212.36
825.47	212.37
825.79	212.43
826.10	212.30
826.42	212.28
826.74	212.32
827.05	212.30
827.37	212.36
827.69	212.34
828.00	212.32
828.32	212.31
828.64	212.25
828.95	212.33
829.27	212.29
829.58	212.29
829.90	212.39
830.22	212.39
830.53	212.30
830.85	212.17
831.17	212.13
831.48	212.12
831.80	212.01
832.11	211.95
832.43	211.91
832.75	211.95
833.06	211.97
833.38	211.86
833.69	211.84
834.01	211.90
834.32	211.86
834.64	211.86
834.96	211.81
835.27	211.73
835.59	211.64
835.90	211.59
836.22	211.52
836.53	211.50
836.85	211.53
837.16	211.69
837.48	211.75
837.79	211.87
838.11	211.80
838.42	211.84
838.74	211.85
839.05	211.79
839.37	211.77
839.68	211.60
840.00	211.60
840.31	211.64
840.63	211.55
840.94	211.55
841.26	211.51
841.57	211.51
841.88	211.60
842.20	211.66
842.51	211.60
842.83	211.57
843.14	211.71
843.46	211.64
843.77	211.48
844.08	211.53
844.40	211.46
844.71	211.46
845.03	211.46
845.34	211.46
845.65	211.45
845.97	211.47
846.28	211.56
846.60	211.63
846.91	211.57
847.22	211.58
847.54	211.57
847.85	211.64
848.16	211.73
848.48	211.61
848.79	211.62
849.10	211.70
849.42	211.70
849.73	211.48
850.04	211.52
850.36	211.49
850.67	211.44
850.98	211.36
851.30	211.46
851.61	211.44
851.92	211.45
852.23	211.48
852.55	211.50
852.86	211.51
853.17	211.51
853.49	211.60
853.80	211.62
854.11	211.65
854.42	211.63
854.74	211.63
855.05	211.64
855.36	211.57
855.67	211.60
855.99	211.63
856.30	211.84
856.61	211.79
856.92	211.75
857.23	211.70
857.55	211.68
857.86	211.59
858.17	211.66
858.48	211.67
858.79	211.70
859.11	211.75
859.42	211.66
859.73	211.59
860.04	211.52
860.35	211.52
860.66	211.44
860.98	211.48
861.29	211.37
861.60	211.34
861.91	211.37
862.22	211.30
862.53	211.30
862.84	211.15
863.16	211.19
863.47	211.23
863.78	211.25
864.09	211.34
864.40	211.42
864.71	211.39
865.02	211.30
865.33	211.24
865.64	211.13
865.95	211.26
866.27	211.47
866.58	211.49
866.89	211.47
867.20	211.54
867.51	211.46
867.82	211.49
868.13	211.63
868.44	211.61
868.75	211.68
869.06	211.66
869.37	211.68
869.68	211.68
869.99	211.73
870.30	211.75
870.61	211.72
870.92	211.69
871.23	211.63
871.54	211.73
871.85	211.81
872.16	211.82
872.47	211.75
872.78	211.58
873.09	211.58
873.40	211.60
873.71	211.62
874.02	211.64
874.33	211.66
874.64	211.56
874.95	211.60
875.26	211.56
875.56	211.55
875.87	211.55
876.18	211.54
876.49	211.68
876.80	211.70
877.11	211.65
877.42	211.65
877.73	211.68
878.04	211.68
878.35	211.72
878.66	211.71
878.96	211.72
879.27	211.73
879.58	211.75
879.89	211.69
880.20	211.70
880.51	211.75
880.82	211.73
881.12	211.81
881.43	211.67
881.74	211.61
882.05	211.63
882.36	211.62
882.67	211.65
882.97	211.47
883.28	211.44
883.59	211.44
883.90	211.43
884.21	211.44
884.51	211.35
884.82	211.22
885.13	211.23
885.44	211.14
885.74	211.17
886.05	211.11
886.36	211.08
886.67	211.05
886.98	211.07
887.28	211.05
887.59	210.92
887.90	211.04
888.20	211.03
888.51	211.05
888.82	211.00
889.13	211.05
889.43	211.16
889.74	211.11
890.05	211.08
890.35	211.12
890.66	211.12
890.97	211.14
891.28	211.14
891.58	211.16
891.89	211.18
892.20	211.11
892.50	211.04
892.81	211.04
893.12	211.05
893.42	210.99
893.73	210.99
894.04	211.05
894.34	211.03
894.65	211.09
894.95	211.02
895.26	211.04
895.57	211.09
895.87	210.92
896.18	210.96
896.48	210.99
896.79	210.98
897.10	211.01
897.40	211.02
897.71	211.05
898.01	211.08
898.32	211.15
898.63	211.15
898.93	211.22
899.24	211.22
899.54	211.19
899.85	211.23
900.15	211.21
900.46	211.21
900.76	211.18
901.07	211.15
901.38	211.23
901.68	211.23
901.99	211.05
902.29	211.02
902.60	211.01
902.90	211.04
903.21	210.98
903.51	210.98
903.82	210.99
904.12	210.95
904.43	210.94
904.73	210.89
905.03	210.94
905.34	211.11
905.64	211.12
905.95	211.17
906.25	211.15
906.56	211.13
906.86	211.13
907.17	211.19
907.47	211.19
907.77	211.11
908.08	211.08
908.38	211.09
908.69	211.08
908.99	211.12
909.30	211.10
909.60	211.14
909.90	211.12
910.21	211.07
910.51	211.08
910.81	211.10
911.12	211.13
911.42	211.14
911.73	210.96
912.03	211.00
912.33	210.95
912.64	210.90
912.94	210.90
913.24	210.91
913.55	210.90
913.85	210.94
914.15	211.00
914.46	211.08
914.76	211.10
915.06	211.11
915.37	211.05
915.67	211.05
915.97	211.02
916.27	211.05
916.58	211.15
916.88	211.11
917.18	211.03
917.49	211.15
917.79	211.14
918.09	211.13
918.39	211.12
918.70	211.15
919.00	211.17
919.30	211.30
919.60	211.27
919.91	211.27
920.21	211.23
920.51	211.24
920.81	211.20
921.12	211.20
921.42	211.26
921.72	211.28
922.02	211.27
922.32	211.31
922.63	211.27
922.93	211.30
923.23	211.36
923.53	211.34
923.83	211.17
924.13	211.12
924.44	211.14
924.74	211.23
925.04	211.27
925.34	211.25
925.64	211.20
925.94	211.12
926.24	211.16
926.55	211.12
926.85	211.15
927.15	211.13
927.45	211.15
927.75	211.05
928.05	211.07
928.35	211.10
928.65	211.17
928.95	211.17
929.26	211.09
929.56	211.13
929.86	211.17
930.16	211.24
930.46	211.29
930.76	211.32
931.06	211.23
931.36	211.13
931.66	211.15
931.96	211.11
932.26	211.16
932.56	211.13
932.86	211.17
933.16	211.15
933.46	211.12
933.76	211.16
934.06	211.27
934.36	211.31
934.66	211.29
934.96	211.24
935.26	211.25
935.56	211.31
935.86	211.30
936.16	211.39
936.46	211.35
936.76	211.30
937.06	211.28
937.36	211.25
937.66	211.31
937.96	211.35
938.26	211.35
938.56	211.32
938.86	211.33
939.16	211.34
939.46	211.39
939.76	211.41
940.06	211.36
940.35	211.31
940.65	211.28
940.95	211.27
941.25	211.19
941.55	211.14
941.85	211.10
942.15	211.01
942.45	210.94
942.75	210.97
943.04	210.99
943.34	211.08
943.64	211.13
943.94	211.10
944.24	211.08
944.54	211.03
944.84	211.08
945.13	211.02
945.43	211.00
945.73	210.95
946.03	210.94
946.33	210.92
946.62	210.91
946.92	210.87
947.22	210.88
947.52	210.92
947.82	210.95
948.11	210.85
948.41	210.86
948.71	210.84
949.01	210.80
949.31	210.76
949.60	210.67
949.90	210.65
950.20	210.65
950.50	210.64
950.79	210.60
951.09	210.63
951.39	210.59
951.69	210.52
951.98	210.53
952.28	210.55
952.58	210.60
952.87	210.57
953.17	210.62
953.47	210.64
953.76	210.65
954.06	210.63
954.36	210.65
954.66	210.65
954.95	210.70
955.25	210.65
955.55	210.77
955.84	210.75
956.14	210.75
956.44	210.70
956.73	210.66
957.03	210.70
957.32	210.65
957.62	210.66
957.92	210.71
958.21	210.79
958.51	210.95
958.81	210.91
959.10	210.92
959.40	210.96
959.69	210.93
959.99	210.97
960.29	210.90
960.58	210.95
960.88	210.99
961.17	210.96
961.47	211.03
961.76	210.93
962.06	210.92
962.36	210.87
962.65	210.95
962.95	210.94
963.24	210.95
963.54	210.90
963.83	210.96
964.13	210.95
964.42	210.82
964.72	210.65
965.01	210.69
965.31	210.67
965.60	210.66
965.90	210.76
966.19	210.74
966.49	210.80
966.78	210.77
967.08	210.74
967.37	210.80
967.67	210.80
967.96	210.84
968.26	210.87
968.55	210.90
968.85	210.89
969.14	210.88
969.43	210.88
969.73	210.95
970.02	210.86
970.32	210.85
970.61	210.82
970.91	210.79
971.20	210.76
971.49	210.80
971.79	210.80
972.08	210.73
972.38	210.77
972.67	210.84
972.96	210.87
973.26	210.82
973.55	210.83
973.85	210.84
974.14	210.85
974.43	210.85
974.73	210.84
975.02	210.82
975.31	210.88
975.61	210.95
975.90	210.94
976.19	210.99
976.49	211.00
976.78	211.09
977.07	211.08
977.37	211.10
977.66	211.12
977.95	211.06
978.24	210.97
978.54	210.95
978.83	210.93
979.12	210.88
979.42	210.95
979.71	210.94
980.00	210.89
980.29	210.86
980.59	210.85
980.88	210.87
981.17	210.88
981.46	210.82
981.76	210.81
982.05	210.80
982.34	210.84
982.63	210.82
982.93	210.88
983.22	210.89
983.51	210.90
983.80	210.91
984.09	210.94
984.39	210.97
984.68	211.00
984.97	211.00
985.26	211.00
985.55	211.01
985.85	210.99
986.14	211.07
986.43	211.14
986.72	211.12
987.01	211.10
987.30	211.09
987.59	211.15
987.89	211.12
988.18	211.11
988.47	211.10
988.76	211.08
989.05	210.98
989.34	211.02
989.63	211.06
989.92	211.05
990.22	211.05
990.51	211.05
990.80	211.05
991.09	211.07
991.38	211.17
991.67	211.08
991.96	211.06
992.25	211.00
992.54	210.95
992.83	210.96
993.12	211.00
993.41	210.95
993.70	210.93
993.99	210.98
994.28	210.98
994.58	210.99
994.87	210.99
995.16	210.98
995.45	210.94
995.74	210.89
996.03	210.85
996.32	210.87
996.61	210.94
996.90	210.87
997.19	210.83
997.48	210.77
997.77	210.80
998.06	210.83
998.34	210.81
998.63	210.75
998.92	210.74
999.21	210.71
999.50	210.80
999.79	210.76
1000.08	210.75
1000.37	210.80
1000.66	210.82
1000.95	210.87
1001.24	210.82
1001.53	210.91
1001.82	210.92
1002.11	210.92
1002.40	210.96
1002.68	210.98
1002.97	211.05
1003.26	211.03
1003.55	211.07
1003.84	211.15
1004.13	211.23
1004.42	211.25
1004.71	211.34
1004.99	211.38
1005.28	211.42
1005.57	211.39
1005.86	211.36
1006.15	211.35
1006.44	211.26
1006.72	211.22
1007.01	211.26
1007.30	211.38
1007.59	211.30
1007.88	211.26
1008.17	211.29
1008.45	211.24
1008.74	211.13
1009.03	211.14
1009.32	211.15
1009.60	211.11
1009.89	211.10
1010.18	211.02
1010.47	211.00
1010.76	211.00
1011.04	211.03
1011.33	211.05
1011.62	211.13
1011.91	211.20
1012.19	211.23
1012.48	211.26
1012.77	211.28
1013.05	211.31
1013.34	211.29
1013.63	211.28
1013.92	211.30
1014.20	211.30
1014.49	211.28
1014.78	211.34
1015.06	211.22
1015.35	211.22
1015.64	211.28
1015.92	211.27
1016.21	211.20
1016.50	211.24
1016.78	211.25
1017.07	211.22
1017.36	211.17
1017.64	211.14
1017.93	211.10
1018.22	211.05
1018.50	211.08
1018.79	211.01
1019.08	210.95
1019.36	210.97
1019.65	210.98
1019.93	211.01
1020.22	211.01
1020.51	211.12
1020.79	211.09
1021.08	210.45
1021.36	211.20
1021.65	209.90
1021.94	211.25
1022.22	211.65
1022.51	210.70
1022.79	211.65
1023.08	211.05
1023.36	213.10
1023.65	210.20
>>>>>End Processed Spectral Data<<<<<
