SpectraSuite Data File
++++++++++++++++++++++++++++++++++++
Date: Mon Feb 25 17:32:05 EST 2013
User: group
Dark Spectrum Present: No
Reference Spectrum Present: No
Number of Sampled Component Spectra: 1
Spectrometers: USB2E7196
Integration Time (usec): 52000 (USB2E7196)
Spectra Averaged: 20 (USB2E7196)
Boxcar Smoothing: 10 (USB2E7196)
Correct for Electrical Dark: No (USB2E7196)
Strobe/Lamp Enabled: No (USB2E7196)
Correct for Detector Non-linearity: No (USB2E7196)
Correct for Stray Light: No (USB2E7196)
Number of Pixels in Processed Spectrum: 2048
>>>>>Begin Processed Spectral Data<<<<<
339.09	0.00
339.48	198.65
339.86	202.25
340.24	200.55
340.63	202.45
341.01	206.55
341.39	204.25
341.78	207.45
342.16	207.60
342.54	208.90
342.93	197.83
343.31	207.86
343.69	208.39
344.07	208.82
344.46	209.34
344.84	209.75
345.22	210.00
345.60	210.36
345.99	210.52
346.37	210.66
346.75	210.70
347.13	210.76
347.52	210.85
347.90	211.04
348.28	211.11
348.66	211.25
349.05	211.23
349.43	211.28
349.81	211.36
350.19	211.42
350.57	211.48
350.96	211.55
351.34	211.69
351.72	211.85
352.10	211.87
352.48	211.93
352.87	211.94
353.25	211.99
353.63	211.97
354.01	212.08
354.39	212.21
354.77	212.38
355.15	212.54
355.54	212.63
355.92	212.51
356.30	212.55
356.68	212.70
357.06	212.76
357.44	212.78
357.82	212.76
358.20	212.85
358.58	212.92
358.97	213.00
359.35	213.04
359.73	213.11
360.11	213.24
360.49	213.27
360.87	213.34
361.25	213.35
361.63	213.52
362.01	213.54
362.39	213.53
362.77	213.56
363.15	213.58
363.53	213.58
363.91	213.67
364.29	213.72
364.67	213.57
365.05	213.60
365.43	213.65
365.81	213.75
366.19	213.74
366.57	213.83
366.95	213.88
367.33	213.84
367.71	213.81
368.09	213.80
368.47	213.78
368.85	213.79
369.23	213.85
369.61	213.74
369.99	213.83
370.37	213.86
370.75	213.94
371.13	213.84
371.51	213.81
371.89	213.83
372.27	213.78
372.65	213.78
373.03	213.77
373.41	213.70
373.78	213.63
374.16	213.56
374.54	213.44
374.92	213.37
375.30	213.35
375.68	213.29
376.06	213.28
376.44	213.23
376.82	213.21
377.19	213.14
377.57	213.03
377.95	212.89
378.33	212.85
378.71	212.62
379.09	212.67
379.47	212.68
379.84	212.55
380.22	212.46
380.60	212.41
380.98	212.31
381.36	212.32
381.73	212.28
382.11	212.25
382.49	212.29
382.87	212.23
383.25	212.13
383.62	212.23
384.00	212.12
384.38	212.09
384.76	212.12
385.13	212.17
385.51	212.24
385.89	212.17
386.27	212.16
386.64	212.23
387.02	212.10
387.40	212.05
387.78	212.11
388.15	212.15
388.53	212.09
388.91	212.10
389.29	212.08
389.66	212.13
390.04	212.08
390.42	211.99
390.79	211.95
391.17	211.96
391.55	211.86
391.92	211.92
392.30	211.94
392.68	211.82
393.05	211.76
393.43	211.77
393.81	211.80
394.18	211.70
394.56	211.73
394.94	211.79
395.31	211.72
395.69	211.72
396.06	211.68
396.44	211.69
396.82	211.75
397.19	211.83
397.57	211.75
397.95	211.79
398.32	211.82
398.70	211.94
399.07	212.03
399.45	212.01
399.82	211.96
400.20	211.98
400.58	212.05
400.95	212.07
401.33	212.07
401.70	212.29
402.08	212.38
402.45	212.42
402.83	212.55
403.20	212.68
403.58	212.75
403.95	212.88
404.33	213.01
404.71	213.01
405.08	213.24
405.46	213.34
405.83	213.47
406.21	213.62
406.58	213.71
406.96	213.78
407.33	213.91
407.70	214.18
408.08	214.50
408.45	214.75
408.83	215.03
409.20	215.25
409.58	215.37
409.95	215.65
410.33	215.95
410.70	216.16
411.08	216.52
411.45	216.85
411.82	217.23
412.20	217.64
412.57	218.25
412.95	218.54
413.32	219.13
413.69	219.71
414.07	220.18
414.44	220.76
414.82	221.43
415.19	222.18
415.56	222.85
415.94	223.53
416.31	224.38
416.68	225.20
417.06	226.29
417.43	227.21
417.81	228.32
418.18	229.39
418.55	230.63
418.93	231.84
419.30	233.15
419.67	234.48
420.04	235.80
420.42	237.10
420.79	238.86
421.16	240.52
421.54	242.32
421.91	244.22
422.28	246.19
422.66	248.17
423.03	250.22
423.40	252.27
423.77	254.46
424.15	256.69
424.52	259.07
424.89	261.52
425.26	263.96
425.64	266.31
426.01	268.86
426.38	271.55
426.75	274.40
427.13	277.18
427.50	280.13
427.87	283.25
428.24	286.44
428.61	289.29
428.99	292.46
429.36	295.92
429.73	299.34
430.10	302.71
430.47	306.33
430.85	309.93
431.22	313.85
431.59	318.00
431.96	321.93
432.33	326.25
432.70	330.48
433.08	335.31
433.45	339.93
433.82	344.53
434.19	349.55
434.56	354.43
434.93	359.27
435.30	363.94
435.68	369.22
436.05	374.33
436.42	379.52
436.79	384.26
437.16	389.30
437.53	394.71
437.90	399.93
438.27	404.94
438.64	410.24
439.01	415.29
439.38	419.65
439.75	423.75
440.13	428.49
440.50	432.82
440.87	436.55
441.24	440.31
441.61	444.46
441.98	447.48
442.35	451.12
442.72	454.59
443.09	458.33
443.46	460.34
443.83	461.74
444.20	462.78
444.57	464.55
444.94	465.39
445.31	466.16
445.68	466.91
446.05	467.24
446.42	466.56
446.79	465.56
447.16	464.79
447.53	464.25
447.90	462.10
448.27	460.22
448.64	457.29
449.01	455.23
449.37	451.67
449.74	448.25
450.11	444.06
450.48	439.61
450.85	434.78
451.22	430.80
451.59	427.14
451.96	423.58
452.33	418.77
452.70	414.39
453.07	409.23
453.43	403.97
453.80	398.99
454.17	394.27
454.54	389.88
454.91	385.01
455.28	380.27
455.65	375.97
456.02	371.63
456.38	368.00
456.75	363.33
457.12	359.47
457.49	355.67
457.86	352.01
458.23	348.82
458.59	345.47
458.96	342.05
459.33	338.84
459.70	335.76
460.07	333.34
460.43	330.42
460.80	327.70
461.17	325.42
461.54	323.03
461.91	320.75
462.27	318.44
462.64	316.37
463.01	314.22
463.38	312.19
463.74	309.88
464.11	307.95
464.48	306.43
464.85	304.65
465.21	303.35
465.58	301.89
465.95	300.25
466.32	298.81
466.68	297.44
467.05	296.14
467.42	294.80
467.78	293.38
468.15	292.03
468.52	291.08
468.88	289.84
469.25	288.66
469.62	287.65
469.98	286.53
470.35	285.66
470.72	284.80
471.08	283.85
471.45	283.20
471.82	282.44
472.18	281.51
472.55	281.00
472.92	280.25
473.28	279.60
473.65	278.99
474.02	278.44
474.38	277.99
474.75	277.58
475.11	277.17
475.48	277.02
475.85	276.83
476.21	276.62
476.58	276.45
476.94	276.38
477.31	276.42
477.67	276.40
478.04	276.47
478.41	276.64
478.77	276.99
479.14	277.10
479.50	277.45
479.87	277.89
480.23	278.31
480.60	278.65
480.96	279.16
481.33	279.84
481.69	280.51
482.06	281.11
482.42	281.67
482.79	282.42
483.15	283.20
483.52	284.17
483.88	285.10
484.25	286.13
484.61	287.15
484.98	288.21
485.34	289.57
485.71	290.89
486.07	292.27
486.44	293.47
486.80	294.98
487.17	296.60
487.53	298.28
487.90	300.03
488.26	301.98
488.62	304.00
488.99	306.10
489.35	308.20
489.72	310.54
490.08	313.03
490.44	315.48
490.81	318.02
491.17	320.71
491.54	323.60
491.90	326.57
492.26	329.87
492.63	333.25
492.99	336.77
493.36	340.37
493.72	344.20
494.08	348.21
494.45	352.47
494.81	356.93
495.17	361.40
495.54	366.17
495.90	371.28
496.26	376.52
496.63	381.96
496.99	387.73
497.35	393.61
497.72	399.88
498.08	406.31
498.44	413.09
498.80	420.15
499.17	427.58
499.53	435.28
499.89	443.23
500.26	451.30
500.62	459.51
500.98	468.39
501.34	477.40
501.71	486.80
502.07	496.34
502.43	506.34
502.79	516.59
503.16	527.23
503.52	538.10
503.88	549.28
504.24	560.83
504.60	572.58
504.97	584.95
505.33	597.25
505.69	610.57
506.05	623.88
506.41	637.55
506.78	651.25
507.14	665.23
507.50	679.59
507.86	694.58
508.22	710.03
508.59	725.54
508.95	741.66
509.31	757.86
509.67	774.50
510.03	791.31
510.39	808.82
510.75	826.42
511.12	844.57
511.48	862.88
511.84	881.47
512.20	900.20
512.56	919.31
512.92	938.91
513.28	958.54
513.64	978.15
514.00	997.80
514.37	1018.15
514.73	1038.85
515.09	1059.39
515.45	1080.14
515.81	1101.17
516.17	1122.15
516.53	1143.30
516.89	1165.09
517.25	1186.75
517.61	1208.02
517.97	1229.25
518.33	1250.79
518.69	1272.32
519.05	1294.28
519.41	1316.52
519.77	1338.99
520.13	1361.05
520.49	1383.10
520.85	1405.56
521.21	1428.10
521.57	1451.02
521.93	1472.82
522.29	1495.57
522.65	1518.28
523.01	1540.50
523.37	1562.45
523.73	1584.73
524.09	1606.66
524.45	1628.47
524.81	1650.47
525.17	1673.03
525.53	1695.57
525.89	1718.11
526.25	1739.94
526.61	1761.14
526.97	1782.62
527.33	1803.90
527.68	1825.18
528.04	1846.03
528.40	1866.24
528.76	1886.90
529.12	1907.35
529.48	1929.24
529.84	1949.47
530.20	1969.58
530.56	1989.95
530.91	2010.88
531.27	2031.23
531.63	2051.29
531.99	2070.95
532.35	2090.28
532.71	2109.15
533.07	2128.46
533.42	2146.44
533.78	2165.38
534.14	2183.56
534.50	2200.57
534.86	2218.50
535.21	2235.26
535.57	2253.02
535.93	2270.19
536.29	2287.02
536.65	2303.74
537.00	2318.67
537.36	2333.95
537.72	2348.92
538.08	2364.04
538.44	2378.78
538.79	2393.67
539.15	2408.31
539.51	2422.70
539.87	2437.64
540.22	2451.76
540.58	2466.46
540.94	2481.12
541.29	2493.85
541.65	2506.01
542.01	2519.11
542.37	2530.67
542.72	2542.62
543.08	2553.37
543.44	2564.87
543.79	2574.77
544.15	2584.75
544.51	2595.63
544.87	2606.44
545.22	2615.92
545.58	2624.18
545.94	2631.24
546.29	2637.85
546.65	2644.03
547.01	2650.46
547.36	2656.14
547.72	2662.07
548.07	2665.66
548.43	2669.02
548.79	2672.52
549.14	2677.06
549.50	2681.32
549.86	2685.02
550.21	2688.98
550.57	2693.04
550.92	2695.57
551.28	2698.30
551.64	2700.71
551.99	2703.22
552.35	2705.06
552.70	2707.44
553.06	2710.03
553.41	2713.11
553.77	2715.81
554.13	2717.90
554.48	2719.58
554.84	2720.83
555.19	2720.89
555.55	2721.65
555.90	2722.08
556.26	2722.42
556.61	2722.55
556.97	2720.86
557.32	2720.74
557.68	2718.86
558.03	2717.25
558.39	2715.74
558.74	2715.22
559.10	2713.79
559.45	2711.48
559.81	2709.96
560.16	2707.55
560.52	2704.94
560.87	2701.81
561.23	2698.15
561.58	2695.73
561.94	2692.44
562.29	2688.45
562.64	2686.65
563.00	2684.05
563.35	2682.03
563.71	2680.25
564.06	2678.01
564.42	2676.17
564.77	2673.58
565.12	2671.81
565.48	2668.65
565.83	2665.64
566.19	2662.11
566.54	2657.88
566.89	2654.29
567.25	2650.10
567.60	2646.64
567.96	2643.44
568.31	2640.00
568.66	2636.07
569.02	2631.62
569.37	2626.53
569.72	2622.84
570.08	2617.27
570.43	2611.67
570.78	2605.75
571.14	2599.78
571.49	2593.00
571.84	2587.39
572.20	2580.38
572.55	2573.82
572.90	2567.07
573.26	2560.17
573.61	2553.40
573.96	2547.04
574.31	2539.13
574.67	2531.14
575.02	2522.70
575.37	2513.84
575.72	2504.83
576.08	2497.49
576.43	2489.06
576.78	2481.34
577.13	2473.33
577.49	2465.11
577.84	2457.30
578.19	2449.86
578.54	2442.13
578.90	2435.41
579.25	2426.61
579.60	2417.71
579.95	2408.66
580.30	2400.81
580.66	2392.34
581.01	2382.92
581.36	2373.72
581.71	2365.47
582.06	2357.19
582.42	2349.08
582.77	2340.25
583.12	2331.44
583.47	2322.41
583.82	2313.86
584.17	2304.73
584.53	2295.89
584.88	2287.05
585.23	2277.98
585.58	2268.38
585.93	2258.86
586.28	2249.52
586.63	2240.66
586.98	2232.45
587.34	2224.25
587.69	2215.15
588.04	2206.46
588.39	2198.45
588.74	2189.65
589.09	2181.00
589.44	2171.55
589.79	2163.05
590.14	2155.15
590.49	2146.87
590.84	2137.87
591.19	2129.85
591.54	2121.45
591.89	2111.22
592.25	2102.24
592.60	2092.94
592.95	2083.65
593.30	2074.45
593.65	2064.69
594.00	2054.91
594.35	2046.64
594.70	2037.52
595.05	2028.56
595.40	2019.73
595.75	2010.38
596.10	2002.28
596.45	1993.98
596.80	1986.21
597.15	1978.10
597.50	1969.05
597.85	1960.57
598.19	1952.43
598.54	1944.00
598.89	1935.89
599.24	1929.65
599.59	1922.23
599.94	1915.18
600.29	1907.78
600.64	1899.85
600.99	1891.65
601.34	1884.93
601.69	1876.19
602.04	1868.04
602.39	1860.10
602.74	1852.51
603.08	1845.76
603.43	1838.29
603.78	1830.28
604.13	1822.15
604.48	1813.97
604.83	1807.31
605.18	1800.33
605.53	1792.91
605.87	1785.24
606.22	1778.39
606.57	1770.24
606.92	1761.95
607.27	1753.80
607.62	1746.54
607.96	1739.68
608.31	1733.66
608.66	1725.92
609.01	1718.87
609.36	1711.07
609.70	1703.46
610.05	1695.80
610.40	1687.57
610.75	1679.15
611.10	1671.42
611.44	1662.42
611.79	1653.73
612.14	1644.27
612.49	1634.93
612.83	1626.00
613.18	1616.27
613.53	1606.90
613.88	1597.29
614.22	1588.75
614.57	1579.75
614.92	1570.29
615.27	1561.09
615.61	1551.10
615.96	1542.07
616.31	1533.30
616.65	1525.79
617.00	1517.51
617.35	1508.68
617.70	1499.97
618.04	1491.18
618.39	1482.06
618.74	1473.91
619.08	1465.15
619.43	1456.90
619.78	1449.24
620.12	1441.12
620.47	1433.60
620.82	1425.09
621.16	1416.88
621.51	1408.60
621.85	1400.35
622.20	1391.98
622.55	1383.57
622.89	1375.45
623.24	1367.52
623.59	1358.70
623.93	1349.79
624.28	1341.61
624.62	1333.58
624.97	1325.28
625.32	1317.29
625.66	1310.19
626.01	1302.87
626.35	1295.86
626.70	1288.43
627.04	1280.94
627.39	1273.29
627.73	1265.74
628.08	1258.87
628.43	1251.65
628.77	1244.35
629.12	1236.87
629.46	1230.45
629.81	1223.29
630.15	1216.16
630.50	1208.74
630.84	1201.83
631.19	1194.85
631.53	1187.74
631.88	1180.39
632.22	1172.85
632.57	1166.03
632.91	1158.34
633.26	1150.99
633.60	1143.62
633.95	1136.85
634.29	1129.50
634.64	1122.90
634.98	1116.01
635.32	1108.99
635.67	1102.55
636.01	1095.92
636.36	1089.44
636.70	1082.74
637.05	1076.17
637.39	1069.82
637.73	1063.53
638.08	1057.46
638.42	1051.66
638.77	1045.53
639.11	1039.05
639.45	1033.29
639.80	1027.05
640.14	1020.78
640.49	1014.73
640.83	1008.66
641.17	1002.12
641.52	996.00
641.86	989.61
642.20	983.43
642.55	976.60
642.89	970.43
643.23	963.97
643.58	958.04
643.92	951.30
644.26	945.25
644.61	939.27
644.95	933.26
645.29	927.13
645.64	920.34
645.98	913.96
646.32	908.14
646.66	902.08
647.01	896.18
647.35	890.40
647.69	884.04
648.04	878.00
648.38	872.21
648.72	866.19
649.06	860.14
649.41	854.07
649.75	848.52
650.09	842.51
650.43	836.60
650.78	830.27
651.12	824.47
651.46	818.64
651.80	812.69
652.14	806.66
652.49	800.62
652.83	794.89
653.17	789.15
653.51	783.41
653.85	777.78
654.20	771.85
654.54	765.96
654.88	760.59
655.22	754.95
655.56	749.32
655.90	743.50
656.25	737.88
656.59	732.49
656.93	727.34
657.27	722.02
657.61	716.75
657.95	711.83
658.29	706.72
658.64	701.66
658.98	696.50
659.32	691.30
659.66	686.36
660.00	681.06
660.34	675.83
660.68	670.61
661.02	665.55
661.36	660.90
661.70	656.21
662.05	651.56
662.39	647.11
662.73	642.51
663.07	638.36
663.41	634.15
663.75	629.60
664.09	624.92
664.43	620.36
664.77	615.99
665.11	611.60
665.45	607.15
665.79	602.77
666.13	598.36
666.47	594.29
666.81	590.22
667.15	586.39
667.49	582.43
667.83	578.61
668.17	574.76
668.51	570.82
668.85	566.93
669.19	563.24
669.53	559.12
669.87	555.23
670.21	551.35
670.55	547.43
670.89	543.94
671.23	540.52
671.57	536.93
671.91	533.47
672.25	529.91
672.58	526.49
672.92	523.06
673.26	519.98
673.60	516.67
673.94	513.24
674.28	510.00
674.62	506.87
674.96	503.72
675.30	500.56
675.64	497.34
675.97	494.12
676.31	491.05
676.65	488.38
676.99	485.69
677.33	482.84
677.67	480.01
678.01	476.95
678.34	474.01
678.68	471.26
679.02	468.24
679.36	465.40
679.70	462.60
680.04	459.69
680.37	456.78
680.71	453.99
681.05	451.36
681.39	448.65
681.73	446.00
682.06	443.50
682.40	441.00
682.74	438.60
683.08	436.18
683.42	433.55
683.75	431.01
684.09	428.44
684.43	425.97
684.77	423.43
685.10	420.91
685.44	418.42
685.78	415.92
686.12	413.74
686.45	411.50
686.79	409.30
687.13	407.18
687.46	405.02
687.80	402.84
688.14	400.59
688.48	398.54
688.81	396.26
689.15	394.02
689.49	391.73
689.82	389.44
690.16	387.08
690.50	384.77
690.83	382.48
691.17	380.18
691.51	377.91
691.84	375.81
692.18	373.81
692.52	371.89
692.85	370.00
693.19	368.11
693.52	366.11
693.86	364.10
694.20	362.28
694.53	360.33
694.87	358.38
695.21	356.47
695.54	354.42
695.88	352.60
696.21	350.75
696.55	349.04
696.88	347.42
697.22	345.81
697.56	344.31
697.89	342.59
698.23	340.98
698.56	339.40
698.90	337.89
699.23	336.34
699.57	334.67
699.90	333.06
700.24	331.37
700.58	329.85
700.91	328.37
701.25	326.89
701.58	325.47
701.92	324.11
702.25	322.77
702.59	321.46
702.92	320.07
703.26	318.84
703.59	317.58
703.93	316.46
704.26	315.17
704.60	313.89
704.93	312.71
705.26	311.53
705.60	310.34
705.93	309.05
706.27	307.94
706.60	306.85
706.94	305.80
707.27	304.55
707.61	303.36
707.94	302.30
708.27	300.97
708.61	299.78
708.94	298.61
709.28	297.50
709.61	296.32
709.94	295.26
710.28	294.10
710.61	293.03
710.95	291.67
711.28	290.76
711.61	289.71
711.95	288.80
712.28	287.74
712.61	286.73
712.95	285.85
713.28	284.95
713.61	284.02
713.95	283.00
714.28	282.26
714.61	281.35
714.95	280.33
715.28	279.55
715.61	278.64
715.95	277.71
716.28	276.74
716.61	275.96
716.95	275.22
717.28	274.36
717.61	273.50
717.94	272.84
718.28	271.97
718.61	271.19
718.94	270.48
719.27	269.76
719.61	269.11
719.94	268.34
720.27	267.52
720.60	266.74
720.94	266.06
721.27	265.34
721.60	264.72
721.93	264.19
722.27	263.61
722.60	263.03
722.93	262.43
723.26	261.97
723.59	261.39
723.93	260.74
724.26	260.16
724.59	259.63
724.92	259.05
725.25	258.47
725.59	257.89
725.92	257.38
726.25	256.85
726.58	256.36
726.91	255.87
727.24	255.34
727.57	254.93
727.91	254.40
728.24	253.95
728.57	253.46
728.90	252.95
729.23	252.41
729.56	252.15
729.89	251.71
730.22	251.19
730.55	250.63
730.89	250.23
731.22	249.81
731.55	249.41
731.88	249.00
732.21	248.62
732.54	248.07
732.87	247.53
733.20	247.08
733.53	246.59
733.86	246.17
734.19	245.76
734.52	245.39
734.85	245.16
735.18	244.74
735.51	244.38
735.84	243.98
736.17	243.60
736.50	243.05
736.83	242.89
737.16	242.55
737.49	242.29
737.82	241.88
738.15	241.54
738.48	241.17
738.81	240.82
739.14	240.40
739.47	240.18
739.80	239.89
740.13	239.55
740.46	239.15
740.79	238.79
741.12	238.42
741.45	238.05
741.78	237.64
742.11	237.37
742.44	237.04
742.77	236.83
743.10	236.57
743.43	236.22
743.75	235.70
744.08	235.64
744.41	235.28
744.74	235.09
745.07	234.74
745.40	234.47
745.73	234.24
746.06	234.10
746.39	233.85
746.71	233.50
747.04	233.24
747.37	233.00
747.70	232.80
748.03	232.60
748.36	232.32
748.68	232.10
749.01	231.78
749.34	231.57
749.67	231.26
750.00	231.05
750.33	230.92
750.65	230.72
750.98	230.32
751.31	230.09
751.64	229.83
751.97	229.70
752.29	229.38
752.62	229.08
752.95	228.78
753.28	228.51
753.60	228.35
753.93	228.18
754.26	227.97
754.59	227.69
754.91	227.47
755.24	227.26
755.57	226.99
755.90	226.73
756.22	226.50
756.55	226.24
756.88	226.00
757.20	225.70
757.53	225.45
757.86	225.23
758.19	225.02
758.51	224.81
758.84	224.54
759.17	224.36
759.49	224.19
759.82	224.07
760.15	223.99
760.47	223.78
760.80	223.57
761.13	223.51
761.45	223.33
761.78	223.20
762.11	223.07
762.43	222.98
762.76	222.89
763.08	222.74
763.41	222.65
763.74	222.49
764.06	222.40
764.39	222.25
764.71	222.10
765.04	222.02
765.37	221.92
765.69	221.79
766.02	221.72
766.34	221.55
766.67	221.37
767.00	221.23
767.32	221.24
767.65	221.23
767.97	221.01
768.30	220.90
768.62	220.75
768.95	220.62
769.27	220.44
769.60	220.33
769.92	220.19
770.25	220.15
770.57	220.05
770.90	219.90
771.22	219.83
771.55	219.70
771.87	219.55
772.20	219.44
772.52	219.55
772.85	219.60
773.17	219.56
773.50	219.40
773.82	219.30
774.15	219.14
774.47	218.90
774.80	218.85
775.12	218.82
775.45	218.82
775.77	218.75
776.09	218.75
776.42	218.71
776.74	218.80
777.07	218.68
777.39	218.59
777.72	218.49
778.04	218.44
778.36	218.36
778.69	218.36
779.01	218.25
779.33	217.97
779.66	217.72
779.98	217.62
780.31	217.59
780.63	217.58
780.95	217.58
781.28	217.59
781.60	217.50
781.92	217.36
782.25	217.16
782.57	217.06
782.89	216.97
783.22	216.83
783.54	216.64
783.86	216.61
784.19	216.52
784.51	216.55
784.83	216.52
785.16	216.50
785.48	216.43
785.80	216.37
786.12	216.34
786.45	216.31
786.77	216.27
787.09	216.24
787.42	216.13
787.74	215.99
788.06	215.91
788.38	215.89
788.71	215.90
789.03	215.94
789.35	216.00
789.67	215.91
789.99	215.93
790.32	215.90
790.64	215.79
790.96	215.94
791.28	215.86
791.61	215.74
791.93	215.65
792.25	215.65
792.57	215.74
792.89	215.65
793.21	215.62
793.54	215.59
793.86	215.50
794.18	215.47
794.50	215.46
794.82	215.45
795.14	215.40
795.47	215.38
795.79	215.34
796.11	215.16
796.43	215.14
796.75	215.04
797.07	214.99
797.39	214.92
797.71	214.77
798.04	214.70
798.36	214.70
798.68	214.72
799.00	214.60
799.32	214.51
799.64	214.53
799.96	214.50
800.28	214.46
800.60	214.41
800.92	214.36
801.24	214.31
801.56	214.27
801.89	214.23
802.21	214.14
802.53	214.11
802.85	214.16
803.17	214.18
803.49	214.14
803.81	214.01
804.13	214.01
804.45	213.99
804.77	214.01
805.09	213.98
805.41	213.91
805.73	213.86
806.05	213.76
806.37	213.75
806.69	213.74
807.01	213.75
807.33	213.77
807.65	213.76
807.97	213.77
808.28	213.72
808.60	213.73
808.92	213.68
809.24	213.65
809.56	213.65
809.88	213.54
810.20	213.57
810.52	213.66
810.84	213.65
811.16	213.52
811.48	213.45
811.80	213.47
812.12	213.45
812.43	213.53
812.75	213.55
813.07	213.50
813.39	213.49
813.71	213.42
814.03	213.39
814.35	213.31
814.67	213.22
814.98	213.18
815.30	213.10
815.62	213.10
815.94	213.08
816.26	212.99
816.58	212.94
816.89	212.93
817.21	212.85
817.53	212.80
817.85	212.83
818.17	212.86
818.48	212.79
818.80	212.87
819.12	212.78
819.44	212.71
819.76	212.65
820.07	212.59
820.39	212.58
820.71	212.55
821.03	212.56
821.34	212.63
821.66	212.65
821.98	212.72
822.30	212.75
822.61	212.82
822.93	212.80
823.25	212.84
823.57	212.81
823.88	212.85
824.20	212.83
824.52	212.89
824.83	212.86
825.15	212.83
825.47	212.77
825.79	212.79
826.10	212.77
826.42	212.79
826.74	212.80
827.05	212.80
827.37	212.75
827.69	212.74
828.00	212.68
828.32	212.70
828.64	212.60
828.95	212.66
829.27	212.55
829.58	212.55
829.90	212.55
830.22	212.56
830.53	212.46
830.85	212.47
831.17	212.39
831.48	212.37
831.80	212.37
832.11	212.32
832.43	212.31
832.75	212.27
833.06	212.37
833.38	212.40
833.69	212.37
834.01	212.48
834.32	212.54
834.64	212.50
834.96	212.49
835.27	212.56
835.59	212.47
835.90	212.49
836.22	212.50
836.53	212.50
836.85	212.48
837.16	212.71
837.48	212.68
837.79	212.66
838.11	212.63
838.42	212.61
838.74	212.59
839.05	212.55
839.37	212.57
839.68	212.48
840.00	212.39
840.31	212.39
840.63	212.31
840.94	212.25
841.26	212.18
841.57	212.17
841.88	212.11
842.20	212.06
842.51	211.98
842.83	212.02
843.14	212.14
843.46	212.14
843.77	212.04
844.08	212.04
844.40	212.02
844.71	212.02
845.03	212.02
845.34	212.02
845.65	211.97
845.97	212.00
846.28	211.98
846.60	211.92
846.91	211.99
847.22	212.01
847.54	211.98
847.85	212.07
848.16	212.04
848.48	212.05
848.79	212.19
849.10	212.28
849.42	212.24
849.73	212.10
850.04	212.07
850.36	212.03
850.67	212.07
850.98	212.08
851.30	212.10
851.61	212.06
851.92	212.00
852.23	212.09
852.55	212.02
852.86	212.09
853.17	212.14
853.49	212.11
853.80	212.12
854.11	212.13
854.42	212.14
854.74	212.11
855.05	212.08
855.36	211.92
855.67	211.91
855.99	211.83
856.30	212.00
856.61	211.97
856.92	211.91
857.23	211.88
857.55	211.85
857.86	211.82
858.17	211.83
858.48	211.88
858.79	211.90
859.11	211.97
859.42	211.93
859.73	211.92
860.04	211.88
860.35	211.76
860.66	211.73
860.98	211.72
861.29	211.66
861.60	211.73
861.91	211.76
862.22	211.65
862.53	211.64
862.84	211.42
863.16	211.43
863.47	211.43
863.78	211.40
864.09	211.42
864.40	211.35
864.71	211.43
865.02	211.43
865.33	211.39
865.64	211.36
865.95	211.33
866.27	211.41
866.58	211.41
866.89	211.48
867.20	211.48
867.51	211.43
867.82	211.41
868.13	211.39
868.44	211.35
868.75	211.44
869.06	211.47
869.37	211.51
869.68	211.49
869.99	211.57
870.30	211.54
870.61	211.54
870.92	211.59
871.23	211.56
871.54	211.54
871.85	211.54
872.16	211.49
872.47	211.48
872.78	211.43
873.09	211.49
873.40	211.52
873.71	211.52
874.02	211.53
874.33	211.54
874.64	211.53
874.95	211.57
875.26	211.46
875.56	211.42
875.87	211.37
876.18	211.41
876.49	211.52
876.80	211.53
877.11	211.53
877.42	211.52
877.73	211.42
878.04	211.42
878.35	211.42
878.66	211.53
878.96	211.53
879.27	211.53
879.58	211.47
879.89	211.43
880.20	211.52
880.51	211.54
880.82	211.59
881.12	211.61
881.43	211.65
881.74	211.67
882.05	211.72
882.36	211.80
882.67	211.80
882.97	211.60
883.28	211.55
883.59	211.54
883.90	211.61
884.21	211.69
884.51	211.70
884.82	211.69
885.13	211.64
885.44	211.62
885.74	211.59
886.05	211.53
886.36	211.54
886.67	211.46
886.98	211.56
887.28	211.53
887.59	211.51
887.90	211.46
888.20	211.47
888.51	211.47
888.82	211.37
889.13	211.36
889.43	211.51
889.74	211.62
890.05	211.65
890.35	211.65
890.66	211.56
890.97	211.59
891.28	211.55
891.58	211.50
891.89	211.56
892.20	211.52
892.50	211.55
892.81	211.50
893.12	211.47
893.42	211.43
893.73	211.46
894.04	211.43
894.34	211.41
894.65	211.41
894.95	211.45
895.26	211.50
895.57	211.59
895.87	211.46
896.18	211.40
896.48	211.37
896.79	211.28
897.10	211.42
897.40	211.32
897.71	211.33
898.01	211.36
898.32	211.32
898.63	211.27
898.93	211.29
899.24	211.30
899.54	211.25
899.85	211.27
900.15	211.29
900.46	211.31
900.76	211.36
901.07	211.35
901.38	211.29
901.68	211.33
901.99	211.23
902.29	211.27
902.60	211.19
902.90	211.10
903.21	211.16
903.51	211.19
903.82	211.30
904.12	211.30
904.43	211.32
904.73	211.33
905.03	211.39
905.34	211.53
905.64	211.47
905.95	211.55
906.25	211.41
906.56	211.36
906.86	211.40
907.17	211.34
907.47	211.35
907.77	211.34
908.08	211.27
908.38	211.27
908.69	211.23
908.99	211.35
909.30	211.37
909.60	211.31
909.90	211.19
910.21	211.12
910.51	211.09
910.81	211.08
911.12	211.07
911.42	211.11
911.73	210.92
912.03	210.99
912.33	210.98
912.64	211.00
912.94	210.92
913.24	210.82
913.55	210.83
913.85	210.79
914.15	210.86
914.46	210.93
914.76	210.87
915.06	210.85
915.37	210.71
915.67	210.73
915.97	210.74
916.27	210.79
916.58	210.83
916.88	210.83
917.18	210.85
917.49	210.90
917.79	210.85
918.09	210.88
918.39	210.92
918.70	210.95
919.00	210.95
919.30	211.10
919.60	211.10
919.91	211.09
920.21	211.10
920.51	211.04
920.81	210.97
921.12	211.09
921.42	211.07
921.72	211.16
922.02	211.19
922.32	211.24
922.63	211.25
922.93	211.29
923.23	211.31
923.53	211.28
923.83	211.19
924.13	211.16
924.44	211.14
924.74	211.15
925.04	211.18
925.34	211.15
925.64	211.05
925.94	211.04
926.24	211.13
926.55	211.18
926.85	211.20
927.15	211.17
927.45	211.11
927.75	211.16
928.05	211.20
928.35	211.24
928.65	211.21
928.95	211.22
929.26	211.12
929.56	211.21
929.86	211.16
930.16	211.23
930.46	211.22
930.76	211.20
931.06	211.12
931.36	211.09
931.66	211.15
931.96	211.20
932.26	211.28
932.56	211.25
932.86	211.19
933.16	211.23
933.46	211.28
933.76	211.24
934.06	211.32
934.36	211.36
934.66	211.31
934.96	211.40
935.26	211.40
935.56	211.46
935.86	211.36
936.16	211.36
936.46	211.31
936.76	211.28
937.06	211.27
937.36	211.34
937.66	211.32
937.96	211.34
938.26	211.33
938.56	211.30
938.86	211.29
939.16	211.41
939.46	211.34
939.76	211.37
940.06	211.43
940.35	211.35
940.65	211.30
940.95	211.30
941.25	211.17
941.55	211.11
941.85	211.08
942.15	211.15
942.45	211.29
942.75	211.33
943.04	211.45
943.34	211.58
943.64	211.52
943.94	211.52
944.24	211.54
944.54	211.51
944.84	211.42
945.13	211.37
945.43	211.31
945.73	211.30
946.03	211.22
946.33	211.19
946.62	211.18
946.92	211.15
947.22	211.18
947.52	211.20
947.82	211.23
948.11	211.23
948.41	211.20
948.71	211.09
949.01	211.05
949.31	211.02
949.60	211.02
949.90	211.10
950.20	211.17
950.50	211.10
950.79	211.11
951.09	211.17
951.39	211.20
951.69	211.16
951.98	211.21
952.28	211.24
952.58	211.26
952.87	211.26
953.17	211.27
953.47	211.28
953.76	211.30
954.06	211.30
954.36	211.24
954.66	211.23
954.95	211.25
955.25	211.30
955.55	211.29
955.84	211.20
956.14	211.14
956.44	211.10
956.73	211.03
957.03	211.00
957.32	211.03
957.62	211.05
957.92	211.07
958.21	211.09
958.51	211.28
958.81	211.31
959.10	211.27
959.40	211.27
959.69	211.31
959.99	211.30
960.29	211.26
960.58	211.28
960.88	211.34
961.17	211.32
961.47	211.25
961.76	211.21
962.06	211.20
962.36	211.12
962.65	211.08
962.95	211.10
963.24	211.10
963.54	211.11
963.83	211.10
964.13	211.07
964.42	211.00
964.72	210.88
965.01	210.87
965.31	210.86
965.60	210.86
965.90	210.83
966.19	210.80
966.49	210.87
966.78	210.86
967.08	210.85
967.37	210.92
967.67	210.90
967.96	210.91
968.26	210.92
968.55	210.97
968.85	210.97
969.14	211.00
969.43	211.00
969.73	210.99
970.02	210.99
970.32	210.99
970.61	211.00
970.91	210.93
971.20	210.83
971.49	210.82
971.79	210.78
972.08	210.68
972.38	210.69
972.67	210.62
972.96	210.70
973.26	210.64
973.55	210.64
973.85	210.63
974.14	210.59
974.43	210.62
974.73	210.59
975.02	210.50
975.31	210.50
975.61	210.54
975.90	210.50
976.19	210.49
976.49	210.51
976.78	210.57
977.07	210.55
977.37	210.59
977.66	210.63
977.95	210.58
978.24	210.67
978.54	210.66
978.83	210.71
979.12	210.64
979.42	210.60
979.71	210.63
980.00	210.66
980.29	210.72
980.59	210.66
980.88	210.71
981.17	210.79
981.46	210.90
981.76	210.85
982.05	210.86
982.34	210.90
982.63	210.89
982.93	210.87
983.22	210.89
983.51	210.91
983.80	210.90
984.09	210.95
984.39	210.90
984.68	210.90
984.97	210.92
985.26	210.87
985.55	210.95
985.85	210.81
986.14	210.77
986.43	210.75
986.72	210.76
987.01	210.74
987.30	210.72
987.59	210.62
987.89	210.62
988.18	210.64
988.47	210.46
988.76	210.45
989.05	210.44
989.34	210.44
989.63	210.48
989.92	210.53
990.22	210.60
990.51	210.61
990.80	210.66
991.09	210.64
991.38	210.73
991.67	210.67
991.96	210.69
992.25	210.77
992.54	210.78
992.83	210.76
993.12	210.80
993.41	210.84
993.70	210.95
993.99	211.02
994.28	211.00
994.58	211.08
994.87	211.09
995.16	211.07
995.45	211.13
995.74	211.10
996.03	211.03
996.32	211.02
996.61	211.09
996.90	211.05
997.19	211.10
997.48	211.09
997.77	211.03
998.06	211.09
998.34	211.09
998.63	211.12
998.92	211.15
999.21	211.17
999.50	211.16
999.79	211.13
1000.08	211.03
1000.37	211.05
1000.66	211.15
1000.95	211.17
1001.24	211.22
1001.53	211.19
1001.82	211.14
1002.11	211.13
1002.40	211.10
1002.68	211.07
1002.97	211.17
1003.26	211.11
1003.55	211.11
1003.84	211.16
1004.13	211.23
1004.42	211.19
1004.71	211.16
1004.99	211.17
1005.28	211.22
1005.57	211.17
1005.86	211.09
1006.15	211.17
1006.44	211.15
1006.72	211.18
1007.01	211.19
1007.30	211.21
1007.59	211.17
1007.88	211.23
1008.17	211.27
1008.45	211.26
1008.74	211.24
1009.03	211.19
1009.32	211.14
1009.60	211.08
1009.89	211.05
1010.18	210.90
1010.47	210.97
1010.76	210.95
1011.04	210.98
1011.33	210.98
1011.62	211.06
1011.91	211.11
1012.19	211.08
1012.48	211.05
1012.77	211.00
1013.05	211.02
1013.34	211.02
1013.63	211.00
1013.92	211.05
1014.20	211.06
1014.49	211.11
1014.78	211.10
1015.06	211.02
1015.35	211.11
1015.64	211.13
1015.92	211.13
1016.21	211.21
1016.50	211.16
1016.78	211.20
1017.07	211.15
1017.36	211.08
1017.64	211.02
1017.93	211.10
1018.22	211.12
1018.50	211.15
1018.79	211.12
1019.08	211.06
1019.36	211.05
1019.65	211.07
1019.93	211.02
1020.22	211.02
1020.51	211.09
1020.79	211.10
1021.08	211.85
1021.36	210.05
1021.65	210.55
1021.94	210.85
1022.22	211.40
1022.51	210.65
1022.79	211.45
1023.08	211.15
1023.36	213.05
1023.65	211.05
>>>>>End Processed Spectral Data<<<<<
