SpectraSuite Data File
++++++++++++++++++++++++++++++++++++
Date: Mon Feb 25 17:31:18 EST 2013
User: group
Dark Spectrum Present: No
Reference Spectrum Present: No
Number of Sampled Component Spectra: 1
Spectrometers: USB2E7196
Integration Time (usec): 52000 (USB2E7196)
Spectra Averaged: 20 (USB2E7196)
Boxcar Smoothing: 10 (USB2E7196)
Correct for Electrical Dark: No (USB2E7196)
Strobe/Lamp Enabled: No (USB2E7196)
Correct for Detector Non-linearity: No (USB2E7196)
Correct for Stray Light: No (USB2E7196)
Number of Pixels in Processed Spectrum: 2048
>>>>>Begin Processed Spectral Data<<<<<
339.09	0.00
339.48	198.05
339.86	201.20
340.24	201.75
340.63	201.95
341.01	206.30
341.39	206.40
341.78	207.10
342.16	207.90
342.54	208.10
342.93	197.65
343.31	207.66
343.69	208.19
344.07	208.55
344.46	209.00
344.84	209.46
345.22	209.71
345.60	209.88
345.99	210.09
346.37	210.24
346.75	210.37
347.13	210.46
347.52	210.58
347.90	210.76
348.28	210.79
348.66	210.98
349.05	210.93
349.43	211.00
349.81	211.09
350.19	211.22
350.57	211.34
350.96	211.42
351.34	211.49
351.72	211.63
352.10	211.81
352.48	211.77
352.87	211.90
353.25	211.92
353.63	212.04
354.01	212.01
354.39	212.12
354.77	212.21
355.15	212.38
355.54	212.39
355.92	212.47
356.30	212.55
356.68	212.61
357.06	212.77
357.44	212.80
357.82	212.92
358.20	212.95
358.58	212.98
358.97	213.08
359.35	213.21
359.73	213.27
360.11	213.25
360.49	213.43
360.87	213.40
361.25	213.45
361.63	213.53
362.01	213.59
362.39	213.58
362.77	213.65
363.15	213.66
363.53	213.72
363.91	213.73
364.29	213.79
364.67	213.57
365.05	213.62
365.43	213.73
365.81	213.77
366.19	213.89
366.57	213.95
366.95	213.93
367.33	213.96
367.71	213.98
368.09	214.06
368.47	214.05
368.85	214.06
369.23	214.13
369.61	214.16
369.99	214.30
370.37	214.31
370.75	214.44
371.13	214.32
371.51	214.24
371.89	214.18
372.27	214.13
372.65	214.17
373.03	214.10
373.41	213.98
373.78	213.91
374.16	213.75
374.54	213.69
374.92	213.63
375.30	213.53
375.68	213.50
376.06	213.47
376.44	213.43
376.82	213.41
377.19	213.35
377.57	213.25
377.95	213.15
378.33	213.15
378.71	212.89
379.09	212.95
379.47	212.92
379.84	212.84
380.22	212.76
380.60	212.69
380.98	212.58
381.36	212.56
381.73	212.49
382.11	212.47
382.49	212.47
382.87	212.44
383.25	212.35
383.62	212.47
384.00	212.38
384.38	212.25
384.76	212.26
385.13	212.28
385.51	212.16
385.89	212.09
386.27	211.99
386.64	212.00
387.02	211.93
387.40	211.89
387.78	211.92
388.15	211.92
388.53	211.99
388.91	212.00
389.29	211.94
389.66	211.96
390.04	211.94
390.42	211.88
390.79	211.85
391.17	211.84
391.55	211.64
391.92	211.66
392.30	211.67
392.68	211.56
393.05	211.48
393.43	211.57
393.81	211.52
394.18	211.58
394.56	211.55
394.94	211.54
395.31	211.54
395.69	211.51
396.06	211.55
396.44	211.47
396.82	211.49
397.19	211.63
397.57	211.56
397.95	211.57
398.32	211.55
398.70	211.59
399.07	211.66
399.45	211.71
399.82	211.71
400.20	211.71
400.58	211.75
400.95	211.78
401.33	211.86
401.70	212.14
402.08	212.15
402.45	212.20
402.83	212.29
403.20	212.39
403.58	212.48
403.95	212.58
404.33	212.71
404.71	212.75
405.08	212.86
405.46	213.04
405.83	213.21
406.21	213.32
406.58	213.51
406.96	213.68
407.33	213.78
407.70	214.00
408.08	214.37
408.45	214.65
408.83	214.86
409.20	215.02
409.58	215.17
409.95	215.44
410.33	215.82
410.70	216.17
411.08	216.52
411.45	216.87
411.82	217.21
412.20	217.66
412.57	218.25
412.95	218.65
413.32	219.15
413.69	219.61
414.07	220.15
414.44	220.71
414.82	221.34
415.19	222.06
415.56	222.82
415.94	223.65
416.31	224.44
416.68	225.32
417.06	226.34
417.43	227.22
417.81	228.31
418.18	229.32
418.55	230.43
418.93	231.68
419.30	232.93
419.67	234.29
420.04	235.67
420.42	237.09
420.79	238.77
421.16	240.41
421.54	242.20
421.91	244.05
422.28	245.92
422.66	247.96
423.03	250.02
423.40	251.96
423.77	254.02
424.15	256.34
424.52	258.66
424.89	261.16
425.26	263.58
425.64	265.86
426.01	268.44
426.38	271.08
426.75	273.69
427.13	276.62
427.50	279.57
427.87	282.54
428.24	285.56
428.61	288.46
428.99	291.63
429.36	295.07
429.73	298.45
430.10	301.83
430.47	305.24
430.85	308.77
431.22	312.62
431.59	316.76
431.96	320.55
432.33	324.77
432.70	328.86
433.08	333.86
433.45	338.50
433.82	342.99
434.19	348.00
434.56	352.97
434.93	357.69
435.30	362.36
435.68	367.60
436.05	372.65
436.42	377.77
436.79	382.44
437.16	387.33
437.53	392.62
437.90	397.91
438.27	403.07
438.64	408.30
439.01	413.17
439.38	417.35
439.75	421.66
440.13	426.47
440.50	430.97
440.87	434.37
441.24	438.23
441.61	442.45
441.98	445.63
442.35	449.23
442.72	452.75
443.09	456.18
443.46	458.23
443.83	459.75
444.20	460.88
444.57	462.55
444.94	463.32
445.31	464.08
445.68	464.87
446.05	464.99
446.42	464.36
446.79	463.67
447.16	462.79
447.53	462.06
447.90	459.97
448.27	457.76
448.64	454.89
449.01	452.59
449.37	448.95
449.74	445.37
450.11	441.28
450.48	436.85
450.85	432.35
451.22	428.51
451.59	424.71
451.96	421.09
452.33	416.48
452.70	412.32
453.07	407.28
453.43	401.93
453.80	396.98
454.17	392.40
454.54	387.93
454.91	383.34
455.28	378.68
455.65	374.37
456.02	370.21
456.38	366.59
456.75	362.15
457.12	358.32
457.49	354.58
457.86	350.92
458.23	347.68
458.59	344.23
458.96	340.71
459.33	337.61
459.70	334.55
460.07	332.02
460.43	329.20
460.80	326.58
461.17	324.30
461.54	322.01
461.91	319.64
462.27	317.33
462.64	315.27
463.01	313.13
463.38	311.03
463.74	308.91
464.11	307.18
464.48	305.53
464.85	303.89
465.21	302.59
465.58	301.15
465.95	299.46
466.32	298.03
466.68	296.57
467.05	295.15
467.42	293.80
467.78	292.41
468.15	291.05
468.52	290.04
468.88	288.82
469.25	287.62
469.62	286.73
469.98	285.72
470.35	284.85
470.72	283.96
471.08	282.97
471.45	282.20
471.82	281.40
472.18	280.57
472.55	279.99
472.92	279.20
473.28	278.66
473.65	278.10
474.02	277.58
474.38	277.23
474.75	276.88
475.11	276.58
475.48	276.37
475.85	276.14
476.21	275.95
476.58	275.82
476.94	275.85
477.31	275.78
477.67	275.77
478.04	275.83
478.41	276.04
478.77	276.38
479.14	276.55
479.50	276.88
479.87	277.30
480.23	277.71
480.60	278.14
480.96	278.59
481.33	279.27
481.69	279.96
482.06	280.61
482.42	281.33
482.79	282.03
483.15	282.88
483.52	283.93
483.88	284.85
484.25	285.84
484.61	286.89
484.98	288.05
485.34	289.31
485.71	290.70
486.07	292.06
486.44	293.30
486.80	294.87
487.17	296.35
487.53	298.12
487.90	299.90
488.26	301.87
488.62	303.82
488.99	305.80
489.35	307.86
489.72	310.12
490.08	312.60
490.44	315.06
490.81	317.65
491.17	320.24
491.54	323.20
491.90	326.20
492.26	329.30
492.63	332.62
492.99	336.10
493.36	339.65
493.72	343.55
494.08	347.66
494.45	351.89
494.81	356.45
495.17	360.91
495.54	365.69
495.90	370.72
496.26	375.95
496.63	381.49
496.99	387.14
497.35	393.17
497.72	399.28
498.08	405.85
498.44	412.61
498.80	419.83
499.17	427.21
499.53	434.89
499.89	442.96
500.26	451.03
500.62	459.38
500.98	468.25
501.34	477.19
501.71	486.64
502.07	496.38
502.43	506.33
502.79	516.56
503.16	527.05
503.52	537.83
503.88	549.01
504.24	560.53
504.60	572.51
504.97	584.65
505.33	597.10
505.69	610.35
506.05	623.83
506.41	637.38
506.78	651.13
507.14	665.24
507.50	679.55
507.86	694.33
508.22	709.65
508.59	725.10
508.95	740.99
509.31	757.04
509.67	773.41
510.03	790.17
510.39	807.50
510.75	825.28
511.12	843.21
511.48	861.48
511.84	879.91
512.20	898.45
512.56	917.62
512.92	936.93
513.28	956.08
513.64	975.68
514.00	995.41
514.37	1015.44
514.73	1035.91
515.09	1056.71
515.45	1077.63
515.81	1098.55
516.17	1119.62
516.53	1140.90
516.89	1162.07
517.25	1183.45
517.61	1204.91
517.97	1226.31
518.33	1247.88
518.69	1269.57
519.05	1291.39
519.41	1313.21
519.77	1335.70
520.13	1357.46
520.49	1379.54
520.85	1402.10
521.21	1424.44
521.57	1447.08
521.93	1468.94
522.29	1491.55
522.65	1513.95
523.01	1536.18
523.37	1557.89
523.73	1579.85
524.09	1601.66
524.45	1623.74
524.81	1646.06
525.17	1668.08
525.53	1690.06
525.89	1711.82
526.25	1733.34
526.61	1754.48
526.97	1776.09
527.33	1797.02
527.68	1818.27
528.04	1838.95
528.40	1858.63
528.76	1878.75
529.12	1899.04
529.48	1920.41
529.84	1940.69
530.20	1960.39
530.56	1980.40
530.91	2000.99
531.27	2021.02
531.63	2041.00
531.99	2060.60
532.35	2079.13
532.71	2097.77
533.07	2117.25
533.42	2135.68
533.78	2154.42
534.14	2172.61
534.50	2189.35
534.86	2207.00
535.21	2223.51
535.57	2241.16
535.93	2258.46
536.29	2275.03
536.65	2291.21
537.00	2305.82
537.36	2320.66
537.72	2335.81
538.08	2350.72
538.44	2365.51
538.79	2380.64
539.15	2394.86
539.51	2409.25
539.87	2424.45
540.22	2438.58
540.58	2452.66
540.94	2466.90
541.29	2479.46
541.65	2490.88
542.01	2503.79
542.37	2515.37
542.72	2527.90
543.08	2538.34
543.44	2549.61
543.79	2559.46
544.15	2569.34
544.51	2580.40
544.87	2590.90
545.22	2600.05
545.58	2608.22
545.94	2615.09
546.29	2621.33
546.65	2627.28
547.01	2633.04
547.36	2638.29
547.72	2643.71
548.07	2647.43
548.43	2650.83
548.79	2654.38
549.14	2659.03
549.50	2663.26
549.86	2666.85
550.21	2670.23
550.57	2674.50
550.92	2677.23
551.28	2679.89
551.64	2682.35
551.99	2684.89
552.35	2686.19
552.70	2688.53
553.06	2691.11
553.41	2694.08
553.77	2696.53
554.13	2698.75
554.48	2701.10
554.84	2702.40
555.19	2703.02
555.55	2703.63
555.90	2703.75
556.26	2704.19
556.61	2704.38
556.97	2703.05
557.32	2702.67
557.68	2700.60
558.03	2698.72
558.39	2697.00
558.74	2696.40
559.10	2695.20
559.45	2692.84
559.81	2691.35
560.16	2688.76
560.52	2686.14
560.87	2683.42
561.23	2679.83
561.58	2677.37
561.94	2673.65
562.29	2669.98
562.64	2667.78
563.00	2665.20
563.35	2663.16
563.71	2661.59
564.06	2659.06
564.42	2656.99
564.77	2654.52
565.12	2652.77
565.48	2649.47
565.83	2646.59
566.19	2642.84
566.54	2638.48
566.89	2634.55
567.25	2631.11
567.60	2627.56
567.96	2623.80
568.31	2620.07
568.66	2616.17
569.02	2611.46
569.37	2606.46
569.72	2602.60
570.08	2597.10
570.43	2591.14
570.78	2585.37
571.14	2578.77
571.49	2572.20
571.84	2565.97
572.20	2558.98
572.55	2552.44
572.90	2545.85
573.26	2538.79
573.61	2532.22
573.96	2526.07
574.31	2518.50
574.67	2510.27
575.02	2501.63
575.37	2493.25
575.72	2484.01
576.08	2476.35
576.43	2467.76
576.78	2459.97
577.13	2451.82
577.49	2443.38
577.84	2436.16
578.19	2428.70
578.54	2421.38
578.90	2414.47
579.25	2405.93
579.60	2396.80
579.95	2387.45
580.30	2379.49
580.66	2371.71
581.01	2362.74
581.36	2353.36
581.71	2345.23
582.06	2337.11
582.42	2329.28
582.77	2320.17
583.12	2311.43
583.47	2302.76
583.82	2294.75
584.17	2285.73
584.53	2276.80
584.88	2268.46
585.23	2259.21
585.58	2249.69
585.93	2240.12
586.28	2231.38
586.63	2223.03
586.98	2215.28
587.34	2207.14
587.69	2198.16
588.04	2188.71
588.39	2180.70
588.74	2171.76
589.09	2162.97
589.44	2153.25
589.79	2144.70
590.14	2137.35
590.49	2129.39
590.84	2120.64
591.19	2112.91
591.54	2104.26
591.89	2094.16
592.25	2085.05
592.60	2076.08
592.95	2066.81
593.30	2057.40
593.65	2047.49
594.00	2037.72
594.35	2029.38
594.70	2020.61
595.05	2011.93
595.40	2003.55
595.75	1994.12
596.10	1986.21
596.45	1977.97
596.80	1970.50
597.15	1962.47
597.50	1953.39
597.85	1944.94
598.19	1936.60
598.54	1927.79
598.89	1920.22
599.24	1913.66
599.59	1906.36
599.94	1899.32
600.29	1891.96
600.64	1884.59
600.99	1876.44
601.34	1869.81
601.69	1861.15
602.04	1853.15
602.39	1845.42
602.74	1837.51
603.08	1830.73
603.43	1823.60
603.78	1815.83
604.13	1808.16
604.48	1800.17
604.83	1793.34
605.18	1786.54
605.53	1779.08
605.87	1771.67
606.22	1764.60
606.57	1757.09
606.92	1749.11
607.27	1741.31
607.62	1734.02
607.96	1726.99
608.31	1720.84
608.66	1713.08
609.01	1705.85
609.36	1698.30
609.70	1690.15
610.05	1682.83
610.40	1674.81
610.75	1666.32
611.10	1658.72
611.44	1649.63
611.79	1640.80
612.14	1631.79
612.49	1622.28
612.83	1613.69
613.18	1604.26
613.53	1594.94
613.88	1585.56
614.22	1576.91
614.57	1567.71
614.92	1558.36
615.27	1549.29
615.61	1539.64
615.96	1530.57
616.31	1521.99
616.65	1514.03
617.00	1506.09
617.35	1497.37
617.70	1488.72
618.04	1479.89
618.39	1470.66
618.74	1462.36
619.08	1454.17
619.43	1446.10
619.78	1438.65
620.12	1430.60
620.47	1422.96
620.82	1414.68
621.16	1406.33
621.51	1397.99
621.85	1389.75
622.20	1381.53
622.55	1373.17
622.89	1365.17
623.24	1357.47
623.59	1349.01
623.93	1340.34
624.28	1332.18
624.62	1324.37
624.97	1316.27
625.32	1308.77
625.66	1301.44
626.01	1294.27
626.35	1287.07
626.70	1279.23
627.04	1271.73
627.39	1264.63
627.73	1257.19
628.08	1250.31
628.43	1243.17
628.77	1236.05
629.12	1228.88
629.46	1222.24
629.81	1215.39
630.15	1208.19
630.50	1200.97
630.84	1193.90
631.19	1187.08
631.53	1180.36
631.88	1172.70
632.22	1165.24
632.57	1158.32
632.91	1151.01
633.26	1143.74
633.60	1136.54
633.95	1129.82
634.29	1122.76
634.64	1115.88
634.98	1108.93
635.32	1102.17
635.67	1095.73
636.01	1089.20
636.36	1082.35
636.70	1075.79
637.05	1069.15
637.39	1062.84
637.73	1056.53
638.08	1050.74
638.42	1044.90
638.77	1038.40
639.11	1032.21
639.45	1026.38
639.80	1019.87
640.14	1013.63
640.49	1007.42
640.83	1001.52
641.17	995.38
641.52	989.20
641.86	982.56
642.20	976.40
642.55	969.56
642.89	963.12
643.23	956.68
643.58	951.05
643.92	944.73
644.26	938.42
644.61	932.62
644.95	926.54
645.29	920.39
645.64	913.91
645.98	907.79
646.32	902.23
646.66	896.21
647.01	890.25
647.35	884.49
647.69	878.37
648.04	872.16
648.38	866.18
648.72	860.20
649.06	854.40
649.41	848.46
649.75	842.95
650.09	837.27
650.43	831.65
650.78	825.49
651.12	819.55
651.46	814.00
651.80	808.04
652.14	802.23
652.49	796.18
652.83	790.43
653.17	784.54
653.51	778.58
653.85	772.91
654.20	767.32
654.54	761.44
654.88	756.00
655.22	750.45
655.56	744.63
655.90	738.84
656.25	733.25
656.59	727.75
656.93	722.60
657.27	717.48
657.61	711.90
657.95	706.73
658.29	701.69
658.64	696.64
658.98	691.45
659.32	686.11
659.66	681.23
660.00	676.06
660.34	670.91
660.68	665.86
661.02	660.80
661.36	656.13
661.70	651.46
662.05	646.85
662.39	642.51
662.73	638.26
663.07	634.25
663.41	629.95
663.75	625.59
664.09	620.91
664.43	616.13
664.77	611.95
665.11	607.66
665.45	603.41
665.79	599.13
666.13	594.79
666.47	590.75
666.81	586.47
667.15	582.43
667.49	578.86
667.83	574.86
668.17	571.09
668.51	567.36
668.85	563.88
669.19	560.23
669.53	556.17
669.87	552.21
670.21	548.26
670.55	544.40
670.89	541.02
671.23	537.75
671.57	534.43
671.91	530.84
672.25	527.35
672.58	523.84
672.92	520.31
673.26	517.25
673.60	513.94
673.94	510.78
674.28	507.57
674.62	504.17
674.96	501.21
675.30	498.23
675.64	495.00
675.97	491.65
676.31	488.66
676.65	485.85
676.99	483.13
677.33	480.31
677.67	477.43
678.01	474.24
678.34	471.26
678.68	468.38
679.02	465.54
679.36	462.73
679.70	460.04
680.04	457.12
680.37	454.21
680.71	451.59
681.05	448.97
681.39	446.47
681.73	443.89
682.06	441.42
682.40	438.91
682.74	436.35
683.08	433.79
683.42	431.17
683.75	428.68
684.09	426.12
684.43	423.59
684.77	421.08
685.10	418.66
685.44	416.10
685.78	413.77
686.12	411.40
686.45	409.10
686.79	406.71
687.13	404.69
687.46	402.54
687.80	400.39
688.14	398.03
688.48	395.80
688.81	393.57
689.15	391.25
689.49	388.99
689.82	386.80
690.16	384.63
690.50	382.53
690.83	380.22
691.17	378.05
691.51	375.97
691.84	373.92
692.18	372.00
692.52	370.09
692.85	368.20
693.19	366.37
693.52	364.46
693.86	362.58
694.20	360.68
694.53	358.77
694.87	356.72
695.21	354.86
695.54	352.95
695.88	351.14
696.21	349.41
696.55	347.74
696.88	346.01
697.22	344.25
697.56	342.70
697.89	341.14
698.23	339.49
698.56	337.89
698.90	336.44
699.23	334.80
699.57	333.18
699.90	331.50
700.24	329.95
700.58	328.36
700.91	326.87
701.25	325.44
701.58	324.01
701.92	322.64
702.25	321.28
702.59	319.86
702.92	318.54
703.26	317.14
703.59	315.79
703.93	314.70
704.26	313.56
704.60	312.16
704.93	310.91
705.26	309.70
705.60	308.45
705.93	307.13
706.27	306.09
706.60	305.03
706.94	304.08
707.27	302.90
707.61	301.85
707.94	300.80
708.27	299.64
708.61	298.49
708.94	297.51
709.28	296.45
709.61	295.45
709.94	294.38
710.28	293.34
710.61	292.34
710.95	291.08
711.28	290.17
711.61	289.15
711.95	288.31
712.28	287.33
712.61	286.38
712.95	285.57
713.28	284.59
713.61	283.67
713.95	282.65
714.28	281.96
714.61	281.01
714.95	280.10
715.28	279.25
715.61	278.36
715.95	277.43
716.28	276.56
716.61	275.73
716.95	274.93
717.28	274.13
717.61	273.31
717.94	272.66
718.28	271.79
718.61	271.12
718.94	270.29
719.27	269.61
719.61	268.94
719.94	268.23
720.27	267.49
720.60	266.73
720.94	266.07
721.27	265.20
721.60	264.65
721.93	263.93
722.27	263.30
722.60	262.73
722.93	262.19
723.26	261.59
723.59	260.99
723.93	260.36
724.26	259.89
724.59	259.27
724.92	258.70
725.25	258.12
725.59	257.50
725.92	257.08
726.25	256.61
726.58	256.12
726.91	255.53
727.24	255.11
727.57	254.64
727.91	254.03
728.24	253.66
728.57	253.16
728.90	252.83
729.23	252.36
729.56	252.02
729.89	251.41
730.22	251.00
730.55	250.54
730.89	250.19
731.22	249.63
731.55	249.30
731.88	248.83
732.21	248.46
732.54	248.14
732.87	247.61
733.20	247.15
733.53	246.69
733.86	246.39
734.19	245.83
734.52	245.45
734.85	245.34
735.18	244.90
735.51	244.62
735.84	244.17
736.17	243.82
736.50	243.28
736.83	243.25
737.16	242.92
737.49	242.55
737.82	242.10
738.15	241.78
738.48	241.40
738.81	241.07
739.14	240.71
739.47	240.31
739.80	239.96
740.13	239.62
740.46	239.26
740.79	238.92
741.12	238.65
741.45	238.35
741.78	237.88
742.11	237.55
742.44	237.10
742.77	236.84
743.10	236.49
743.43	236.22
743.75	235.73
744.08	235.58
744.41	235.26
744.74	234.99
745.07	234.69
745.40	234.40
745.73	234.21
746.06	233.86
746.39	233.61
746.71	233.39
747.04	233.15
747.37	232.93
747.70	232.62
748.03	232.35
748.36	232.07
748.68	231.84
749.01	231.65
749.34	231.39
749.67	231.17
750.00	231.00
750.33	230.88
750.65	230.62
750.98	230.21
751.31	230.05
751.64	229.84
751.97	229.70
752.29	229.48
752.62	229.10
752.95	228.88
753.28	228.60
753.60	228.36
753.93	228.12
754.26	227.88
754.59	227.64
754.91	227.41
755.24	227.25
755.57	227.00
755.90	226.72
756.22	226.55
756.55	226.33
756.88	226.05
757.20	225.72
757.53	225.49
757.86	225.30
758.19	225.07
758.51	224.92
758.84	224.67
759.17	224.50
759.49	224.40
759.82	224.39
760.15	224.23
760.47	224.00
760.80	223.84
761.13	223.70
761.45	223.51
761.78	223.39
762.11	223.11
762.43	223.01
762.76	222.88
763.08	222.76
763.41	222.70
763.74	222.60
764.06	222.47
764.39	222.44
764.71	222.31
765.04	222.18
765.37	222.06
765.69	221.94
766.02	221.76
766.34	221.53
766.67	221.27
767.00	221.20
767.32	221.17
767.65	221.16
767.97	220.96
768.30	220.79
768.62	220.67
768.95	220.63
769.27	220.49
769.60	220.49
769.92	220.33
770.25	220.06
770.57	219.88
770.90	219.85
771.22	219.66
771.55	219.51
771.87	219.39
772.20	219.25
772.52	219.29
772.85	219.48
773.17	219.44
773.50	219.39
773.82	219.26
774.15	219.10
774.47	218.93
774.80	218.86
775.12	218.81
775.45	218.76
775.77	218.62
776.09	218.55
776.42	218.35
776.74	218.37
777.07	218.33
777.39	218.36
777.72	218.17
778.04	218.06
778.36	217.97
778.69	217.90
779.01	217.86
779.33	217.59
779.66	217.26
779.98	217.25
780.31	217.14
780.63	217.12
780.95	217.11
781.28	217.05
781.60	216.94
781.92	216.86
782.25	216.76
782.57	216.75
782.89	216.66
783.22	216.64
783.54	216.47
783.86	216.42
784.19	216.32
784.51	216.40
784.83	216.36
785.16	216.33
785.48	216.26
785.80	216.13
786.12	216.10
786.45	216.11
786.77	216.07
787.09	216.08
787.42	216.00
787.74	215.90
788.06	215.85
788.38	215.89
788.71	215.87
789.03	215.88
789.35	215.89
789.67	215.78
789.99	215.74
790.32	215.69
790.64	215.65
790.96	215.75
791.28	215.64
791.61	215.60
791.93	215.55
792.25	215.51
792.57	215.69
792.89	215.61
793.21	215.47
793.54	215.32
793.86	215.28
794.18	215.20
794.50	215.16
794.82	215.12
795.14	215.05
795.47	215.05
795.79	214.93
796.11	214.79
796.43	214.82
796.75	214.78
797.07	214.80
797.39	214.76
797.71	214.55
798.04	214.43
798.36	214.40
798.68	214.36
799.00	214.38
799.32	214.21
799.64	214.19
799.96	214.20
800.28	214.32
800.60	214.28
800.92	214.21
801.24	214.19
801.56	214.11
801.89	214.13
802.21	214.09
802.53	214.01
802.85	214.02
803.17	214.02
803.49	214.00
803.81	213.91
804.13	213.94
804.45	213.96
804.77	214.06
805.09	214.01
805.41	213.98
805.73	213.92
806.05	213.83
806.37	213.85
806.69	213.83
807.01	213.73
807.33	213.68
807.65	213.70
807.97	213.76
808.28	213.72
808.60	213.69
808.92	213.74
809.24	213.89
809.56	213.84
809.88	213.76
810.20	213.70
810.52	213.75
810.84	213.65
811.16	213.58
811.48	213.54
811.80	213.57
812.12	213.53
812.43	213.53
812.75	213.53
813.07	213.47
813.39	213.45
813.71	213.38
814.03	213.38
814.35	213.36
814.67	213.27
814.98	213.30
815.30	213.27
815.62	213.16
815.94	213.04
816.26	213.04
816.58	213.05
816.89	213.02
817.21	212.95
817.53	212.91
817.85	212.93
818.17	212.92
818.48	212.86
818.80	212.94
819.12	212.87
819.44	212.87
819.76	212.90
820.07	212.93
820.39	212.87
820.71	212.85
821.03	212.81
821.34	212.72
821.66	212.74
821.98	212.79
822.30	212.79
822.61	212.92
822.93	212.87
823.25	212.91
823.57	212.88
823.88	212.91
824.20	212.92
824.52	212.95
824.83	212.93
825.15	212.89
825.47	212.87
825.79	212.93
826.10	212.98
826.42	212.92
826.74	212.88
827.05	212.92
827.37	212.94
827.69	212.97
828.00	212.93
828.32	212.90
828.64	212.80
828.95	212.88
829.27	212.75
829.58	212.76
829.90	212.74
830.22	212.82
830.53	212.75
830.85	212.69
831.17	212.61
831.48	212.55
831.80	212.56
832.11	212.51
832.43	212.49
832.75	212.39
833.06	212.46
833.38	212.37
833.69	212.40
834.01	212.40
834.32	212.38
834.64	212.47
834.96	212.42
835.27	212.42
835.59	212.32
835.90	212.27
836.22	212.21
836.53	212.22
836.85	212.13
837.16	212.30
837.48	212.31
837.79	212.29
838.11	212.31
838.42	212.30
838.74	212.22
839.05	212.19
839.37	212.20
839.68	212.13
840.00	212.17
840.31	212.14
840.63	212.09
840.94	211.99
841.26	211.93
841.57	211.93
841.88	211.93
842.20	211.88
842.51	211.86
842.83	211.87
843.14	211.97
843.46	212.02
843.77	211.95
844.08	211.97
844.40	211.89
844.71	211.84
845.03	211.85
845.34	211.90
845.65	211.83
845.97	211.78
846.28	211.72
846.60	211.75
846.91	211.70
847.22	211.64
847.54	211.73
847.85	211.71
848.16	211.75
848.48	211.75
848.79	211.86
849.10	211.87
849.42	211.89
849.73	211.69
850.04	211.60
850.36	211.53
850.67	211.53
850.98	211.57
851.30	211.58
851.61	211.57
851.92	211.55
852.23	211.67
852.55	211.65
852.86	211.69
853.17	211.62
853.49	211.68
853.80	211.79
854.11	211.78
854.42	211.82
854.74	211.73
855.05	211.69
855.36	211.56
855.67	211.56
855.99	211.51
856.30	211.74
856.61	211.76
856.92	211.74
857.23	211.74
857.55	211.70
857.86	211.72
858.17	211.76
858.48	211.74
858.79	211.69
859.11	211.72
859.42	211.74
859.73	211.72
860.04	211.72
860.35	211.56
860.66	211.52
860.98	211.53
861.29	211.62
861.60	211.57
861.91	211.62
862.22	211.62
862.53	211.69
862.84	211.46
863.16	211.54
863.47	211.58
863.78	211.55
864.09	211.59
864.40	211.54
864.71	211.50
865.02	211.49
865.33	211.45
865.64	211.40
865.95	211.35
866.27	211.50
866.58	211.44
866.89	211.55
867.20	211.51
867.51	211.50
867.82	211.43
868.13	211.51
868.44	211.42
868.75	211.41
869.06	211.34
869.37	211.37
869.68	211.27
869.99	211.22
870.30	211.25
870.61	211.25
870.92	211.25
871.23	211.24
871.54	211.28
871.85	211.31
872.16	211.43
872.47	211.40
872.78	211.35
873.09	211.38
873.40	211.30
873.71	211.31
874.02	211.24
874.33	211.23
874.64	211.19
874.95	211.29
875.26	211.24
875.56	211.25
875.87	211.20
876.18	211.25
876.49	211.39
876.80	211.43
877.11	211.33
877.42	211.28
877.73	211.28
878.04	211.26
878.35	211.20
878.66	211.16
878.96	211.19
879.27	211.12
879.58	211.12
879.89	211.20
880.20	211.26
880.51	211.28
880.82	211.27
881.12	211.30
881.43	211.24
881.74	211.29
882.05	211.30
882.36	211.30
882.67	211.26
882.97	211.08
883.28	210.99
883.59	211.04
883.90	211.05
884.21	211.08
884.51	211.11
884.82	211.14
885.13	211.12
885.44	211.15
885.74	211.15
886.05	211.15
886.36	211.05
886.67	210.91
886.98	211.05
887.28	211.10
887.59	211.08
887.90	211.01
888.20	211.00
888.51	211.05
888.82	211.03
889.13	211.08
889.43	211.26
889.74	211.27
890.05	211.29
890.35	211.36
890.66	211.30
890.97	211.22
891.28	211.22
891.58	211.22
891.89	211.14
892.20	211.11
892.50	211.07
892.81	211.10
893.12	211.20
893.42	211.04
893.73	210.96
894.04	210.95
894.34	211.02
894.65	211.03
894.95	210.97
895.26	211.01
895.57	211.09
895.87	210.97
896.18	211.02
896.48	211.06
896.79	211.05
897.10	211.00
897.40	211.06
897.71	211.15
898.01	211.15
898.32	211.11
898.63	211.10
898.93	211.09
899.24	211.12
899.54	211.08
899.85	211.09
900.15	211.13
900.46	211.14
900.76	211.19
901.07	211.15
901.38	211.15
901.68	211.14
901.99	211.04
902.29	211.04
902.60	211.03
902.90	210.91
903.21	210.96
903.51	211.01
903.82	210.98
904.12	210.92
904.43	210.90
904.73	210.99
905.03	211.03
905.34	211.25
905.64	211.26
905.95	211.30
906.25	211.30
906.56	211.27
906.86	211.30
907.17	211.30
907.47	211.35
907.77	211.39
908.08	211.37
908.38	211.40
908.69	211.41
908.99	211.39
909.30	211.48
909.60	211.46
909.90	211.48
910.21	211.52
910.51	211.50
910.81	211.55
911.12	211.53
911.42	211.50
911.73	211.37
912.03	211.41
912.33	211.41
912.64	211.45
912.94	211.46
913.24	211.42
913.55	211.38
913.85	211.31
914.15	211.29
914.46	211.34
914.76	211.33
915.06	211.29
915.37	211.34
915.67	211.33
915.97	211.22
916.27	211.25
916.58	211.26
916.88	211.27
917.18	211.20
917.49	211.29
917.79	211.24
918.09	211.27
918.39	211.26
918.70	211.32
919.00	211.34
919.30	211.47
919.60	211.52
919.91	211.50
920.21	211.57
920.51	211.58
920.81	211.52
921.12	211.57
921.42	211.60
921.72	211.56
922.02	211.59
922.32	211.66
922.63	211.60
922.93	211.66
923.23	211.63
923.53	211.64
923.83	211.58
924.13	211.67
924.44	211.62
924.74	211.70
925.04	211.67
925.34	211.65
925.64	211.55
925.94	211.46
926.24	211.56
926.55	211.51
926.85	211.43
927.15	211.51
927.45	211.39
927.75	211.33
928.05	211.29
928.35	211.32
928.65	211.36
928.95	211.40
929.26	211.26
929.56	211.27
929.86	211.35
930.16	211.35
930.46	211.39
930.76	211.36
931.06	211.16
931.36	211.14
931.66	211.10
931.96	211.09
932.26	211.14
932.56	211.05
932.86	211.12
933.16	211.15
933.46	211.07
933.76	211.15
934.06	211.23
934.36	211.32
934.66	211.27
934.96	211.21
935.26	211.20
935.56	211.29
935.86	211.27
936.16	211.15
936.46	211.11
936.76	211.03
937.06	211.05
937.36	211.12
937.66	211.08
937.96	211.16
938.26	211.14
938.56	211.10
938.86	211.10
939.16	211.13
939.46	211.12
939.76	211.15
940.06	211.13
940.35	211.06
940.65	211.00
940.95	210.97
941.25	210.94
941.55	210.92
941.85	210.90
942.15	210.89
942.45	210.99
942.75	210.95
943.04	210.92
943.34	210.92
943.64	210.85
943.94	210.81
944.24	210.69
944.54	210.71
944.84	210.75
945.13	210.72
945.43	210.66
945.73	210.68
946.03	210.67
946.33	210.57
946.62	210.59
946.92	210.52
947.22	210.52
947.52	210.56
947.82	210.60
948.11	210.53
948.41	210.51
948.71	210.39
949.01	210.41
949.31	210.43
949.60	210.50
949.90	210.55
950.20	210.53
950.50	210.61
950.79	210.58
951.09	210.50
951.39	210.49
951.69	210.41
951.98	210.41
952.28	210.40
952.58	210.46
952.87	210.36
953.17	210.45
953.47	210.40
953.76	210.35
954.06	210.30
954.36	210.30
954.66	210.32
954.95	210.42
955.25	210.39
955.55	210.36
955.84	210.31
956.14	210.38
956.44	210.44
956.73	210.35
957.03	210.33
957.32	210.38
957.62	210.40
957.92	210.46
958.21	210.49
958.51	210.65
958.81	210.71
959.10	210.75
959.40	210.78
959.69	210.80
959.99	210.84
960.29	210.83
960.58	210.88
960.88	210.90
961.17	210.88
961.47	210.88
961.76	210.89
962.06	210.93
962.36	210.84
962.65	210.86
962.95	210.88
963.24	210.93
963.54	210.97
963.83	210.95
964.13	211.06
964.42	210.96
964.72	210.88
965.01	210.87
965.31	210.87
965.60	210.86
965.90	210.99
966.19	210.91
966.49	210.95
966.78	210.92
967.08	210.89
967.37	210.90
967.67	210.95
967.96	211.04
968.26	210.99
968.55	211.00
968.85	211.05
969.14	211.09
969.43	211.00
969.73	210.99
970.02	211.06
970.32	210.96
970.61	211.01
970.91	210.90
971.20	210.83
971.49	210.79
971.79	210.80
972.08	210.69
972.38	210.79
972.67	210.78
972.96	210.76
973.26	210.79
973.55	210.82
973.85	210.79
974.14	210.70
974.43	210.71
974.73	210.70
975.02	210.64
975.31	210.58
975.61	210.64
975.90	210.61
976.19	210.50
976.49	210.51
976.78	210.55
977.07	210.58
977.37	210.62
977.66	210.64
977.95	210.60
978.24	210.67
978.54	210.60
978.83	210.60
979.12	210.55
979.42	210.55
979.71	210.50
980.00	210.55
980.29	210.61
980.59	210.54
980.88	210.64
981.17	210.61
981.46	210.69
981.76	210.71
982.05	210.72
982.34	210.76
982.63	210.76
982.93	210.72
983.22	210.76
983.51	210.82
983.80	210.81
984.09	210.85
984.39	210.75
984.68	210.78
984.97	210.77
985.26	210.84
985.55	210.84
985.85	210.86
986.14	210.81
986.43	210.76
986.72	210.79
987.01	210.68
987.30	210.71
987.59	210.61
987.89	210.62
988.18	210.56
988.47	210.58
988.76	210.52
989.05	210.57
989.34	210.48
989.63	210.47
989.92	210.45
990.22	210.43
990.51	210.50
990.80	210.55
991.09	210.61
991.38	210.65
991.67	210.66
991.96	210.65
992.25	210.60
992.54	210.64
992.83	210.66
993.12	210.62
993.41	210.66
993.70	210.76
993.99	210.79
994.28	210.90
994.58	210.89
994.87	210.95
995.16	210.87
995.45	210.88
995.74	210.87
996.03	210.95
996.32	210.97
996.61	210.98
996.90	210.87
997.19	210.84
997.48	210.83
997.77	210.80
998.06	210.86
998.34	210.92
998.63	210.87
998.92	210.87
999.21	210.97
999.50	210.95
999.79	210.91
1000.08	210.80
1000.37	210.72
1000.66	210.74
1000.95	210.76
1001.24	210.81
1001.53	210.83
1001.82	210.88
1002.11	210.76
1002.40	210.76
1002.68	210.82
1002.97	211.01
1003.26	211.00
1003.55	210.95
1003.84	210.91
1004.13	210.97
1004.42	210.98
1004.71	211.00
1004.99	210.90
1005.28	210.90
1005.57	210.90
1005.86	210.93
1006.15	211.01
1006.44	210.95
1006.72	210.96
1007.01	210.90
1007.30	210.91
1007.59	210.94
1007.88	210.83
1008.17	210.92
1008.45	210.93
1008.74	210.89
1009.03	210.74
1009.32	210.80
1009.60	210.81
1009.89	210.83
1010.18	210.67
1010.47	210.67
1010.76	210.66
1011.04	210.76
1011.33	210.79
1011.62	210.79
1011.91	210.79
1012.19	210.82
1012.48	210.85
1012.77	210.87
1013.05	211.06
1013.34	211.06
1013.63	211.03
1013.92	211.10
1014.20	211.12
1014.49	211.11
1014.78	211.13
1015.06	211.17
1015.35	211.11
1015.64	211.15
1015.92	211.19
1016.21	211.26
1016.50	211.27
1016.78	211.32
1017.07	211.27
1017.36	211.23
1017.64	211.22
1017.93	211.26
1018.22	211.25
1018.50	211.32
1018.79	211.32
1019.08	211.14
1019.36	211.15
1019.65	211.14
1019.93	211.20
1020.22	211.26
1020.51	211.35
1020.79	211.33
1021.08	211.25
1021.36	211.45
1021.65	211.30
1021.94	210.70
1022.22	211.35
1022.51	210.35
1022.79	212.35
1023.08	212.50
1023.36	213.45
1023.65	211.10
>>>>>End Processed Spectral Data<<<<<
