SpectraSuite Data File
++++++++++++++++++++++++++++++++++++
Date: Mon Feb 25 17:31:52 EST 2013
User: group
Dark Spectrum Present: No
Reference Spectrum Present: No
Number of Sampled Component Spectra: 1
Spectrometers: USB2E7196
Integration Time (usec): 52000 (USB2E7196)
Spectra Averaged: 20 (USB2E7196)
Boxcar Smoothing: 10 (USB2E7196)
Correct for Electrical Dark: No (USB2E7196)
Strobe/Lamp Enabled: No (USB2E7196)
Correct for Detector Non-linearity: No (USB2E7196)
Correct for Stray Light: No (USB2E7196)
Number of Pixels in Processed Spectrum: 2048
>>>>>Begin Processed Spectral Data<<<<<
339.09	0.00
339.48	198.15
339.86	198.70
340.24	200.60
340.63	202.35
341.01	205.65
341.39	204.65
341.78	205.90
342.16	208.75
342.54	208.15
342.93	197.46
343.31	207.49
343.69	208.02
344.07	208.62
344.46	209.07
344.84	209.53
345.22	209.75
345.60	210.08
345.99	210.38
346.37	210.56
346.75	210.72
347.13	210.80
347.52	210.87
347.90	210.98
348.28	210.98
348.66	211.05
349.05	211.00
349.43	211.08
349.81	211.17
350.19	211.29
350.57	211.37
350.96	211.48
351.34	211.57
351.72	211.70
352.10	211.74
352.48	211.88
352.87	211.91
353.25	211.97
353.63	212.08
354.01	212.10
354.39	212.15
354.77	212.25
355.15	212.40
355.54	212.50
355.92	212.50
356.30	212.63
356.68	212.80
357.06	212.98
357.44	213.02
357.82	213.13
358.20	213.22
358.58	213.27
358.97	213.28
359.35	213.38
359.73	213.46
360.11	213.57
360.49	213.61
360.87	213.66
361.25	213.80
361.63	213.88
362.01	213.92
362.39	213.97
362.77	214.04
363.15	214.13
363.53	214.17
363.91	214.31
364.29	214.32
364.67	214.27
365.05	214.27
365.43	214.37
365.81	214.45
366.19	214.44
366.57	214.53
366.95	214.64
367.33	214.56
367.71	214.60
368.09	214.67
368.47	214.68
368.85	214.70
369.23	214.75
369.61	214.67
369.99	214.78
370.37	214.72
370.75	214.82
371.13	214.70
371.51	214.66
371.89	214.58
372.27	214.63
372.65	214.63
373.03	214.63
373.41	214.57
373.78	214.51
374.16	214.40
374.54	214.35
374.92	214.22
375.30	214.22
375.68	214.16
376.06	214.07
376.44	214.00
376.82	213.95
377.19	213.85
377.57	213.76
377.95	213.63
378.33	213.59
378.71	213.40
379.09	213.47
379.47	213.46
379.84	213.47
380.22	213.42
380.60	213.22
380.98	213.13
381.36	213.07
381.73	212.99
382.11	212.99
382.49	212.95
382.87	212.89
383.25	212.84
383.62	212.94
384.00	212.83
384.38	212.80
384.76	212.76
385.13	212.76
385.51	212.70
385.89	212.68
386.27	212.63
386.64	212.59
387.02	212.44
387.40	212.30
387.78	212.22
388.15	212.06
388.53	212.11
388.91	212.16
389.29	212.06
389.66	212.04
390.04	212.00
390.42	211.93
390.79	211.94
391.17	211.90
391.55	211.68
391.92	211.73
392.30	211.74
392.68	211.71
393.05	211.70
393.43	211.67
393.81	211.56
394.18	211.53
394.56	211.52
394.94	211.58
395.31	211.59
395.69	211.63
396.06	211.72
396.44	211.77
396.82	211.69
397.19	211.76
397.57	211.75
397.95	211.76
398.32	211.73
398.70	211.78
399.07	211.86
399.45	211.95
399.82	211.87
400.20	211.89
400.58	211.94
400.95	211.92
401.33	212.07
401.70	212.30
402.08	212.40
402.45	212.45
402.83	212.52
403.20	212.57
403.58	212.61
403.95	212.65
404.33	212.67
404.71	212.78
405.08	213.01
405.46	213.15
405.83	213.24
406.21	213.49
406.58	213.63
406.96	213.76
407.33	213.87
407.70	214.15
408.08	214.51
408.45	214.71
408.83	215.00
409.20	215.16
409.58	215.36
409.95	215.62
410.33	215.91
410.70	216.22
411.08	216.64
411.45	217.01
411.82	217.39
412.20	217.87
412.57	218.37
412.95	218.72
413.32	219.25
413.69	219.85
414.07	220.39
414.44	220.99
414.82	221.61
415.19	222.38
415.56	223.07
415.94	223.68
416.31	224.53
416.68	225.41
417.06	226.39
417.43	227.29
417.81	228.36
418.18	229.43
418.55	230.54
418.93	231.78
419.30	233.05
419.67	234.42
420.04	235.86
420.42	237.29
420.79	239.06
421.16	240.73
421.54	242.57
421.91	244.38
422.28	246.30
422.66	248.33
423.03	250.45
423.40	252.54
423.77	254.77
424.15	257.07
424.52	259.41
424.89	261.93
425.26	264.31
425.64	266.63
426.01	269.26
426.38	271.87
426.75	274.50
427.13	277.28
427.50	280.24
427.87	283.28
428.24	286.36
428.61	289.17
428.99	292.36
429.36	295.74
429.73	299.10
430.10	302.58
430.47	306.04
430.85	309.51
431.22	313.40
431.59	317.47
431.96	321.34
432.33	325.56
432.70	329.77
433.08	334.73
433.45	339.37
433.82	343.90
434.19	349.03
434.56	354.11
434.93	358.88
435.30	363.55
435.68	368.70
436.05	373.86
436.42	379.09
436.79	383.68
437.16	388.66
437.53	394.03
437.90	399.14
438.27	404.39
438.64	409.83
439.01	414.76
439.38	419.13
439.75	423.35
440.13	428.11
440.50	432.58
440.87	436.15
441.24	439.91
441.61	444.14
441.98	447.20
442.35	450.68
442.72	454.11
443.09	457.67
443.46	459.76
443.83	461.12
444.20	462.11
444.57	464.01
444.94	464.82
445.31	465.57
445.68	466.34
446.05	466.45
446.42	465.67
446.79	464.79
447.16	463.86
447.53	463.15
447.90	461.12
448.27	459.06
448.64	456.34
449.01	454.31
449.37	450.70
449.74	447.16
450.11	443.04
450.48	438.73
450.85	434.21
451.22	430.36
451.59	426.61
451.96	423.14
452.33	418.37
452.70	414.02
453.07	408.92
453.43	403.77
453.80	398.90
454.17	394.20
454.54	389.70
454.91	384.97
455.28	380.31
455.65	375.88
456.02	371.61
456.38	367.93
456.75	363.32
457.12	359.50
457.49	355.72
457.86	352.07
458.23	348.93
458.59	345.41
458.96	341.84
459.33	338.72
459.70	335.59
460.07	333.05
460.43	330.27
460.80	327.62
461.17	325.23
461.54	322.72
461.91	320.40
462.27	318.14
462.64	316.18
463.01	313.96
463.38	311.96
463.74	309.75
464.11	307.79
464.48	306.07
464.85	304.26
465.21	303.07
465.58	301.60
465.95	299.91
466.32	298.57
466.68	297.14
467.05	295.74
467.42	294.30
467.78	292.82
468.15	291.52
468.52	290.57
468.88	289.25
469.25	288.10
469.62	287.20
469.98	286.17
470.35	285.29
470.72	284.54
471.08	283.50
471.45	282.73
471.82	282.09
472.18	281.31
472.55	280.65
472.92	279.85
473.28	279.34
473.65	278.72
474.02	278.05
474.38	277.66
474.75	277.37
475.11	277.04
475.48	276.84
475.85	276.65
476.21	276.35
476.58	276.29
476.94	276.23
477.31	276.14
477.67	276.10
478.04	276.10
478.41	276.16
478.77	276.51
479.14	276.59
479.50	276.70
479.87	277.05
480.23	277.53
480.60	277.83
480.96	278.20
481.33	278.96
481.69	279.62
482.06	280.25
482.42	280.85
482.79	281.59
483.15	282.48
483.52	283.41
483.88	284.32
484.25	285.26
484.61	286.35
484.98	287.47
485.34	288.84
485.71	290.20
486.07	291.63
486.44	292.93
486.80	294.55
487.17	296.19
487.53	298.00
487.90	299.80
488.26	301.80
488.62	303.88
488.99	305.76
489.35	307.87
489.72	310.09
490.08	312.51
490.44	314.98
490.81	317.69
491.17	320.36
491.54	323.26
491.90	326.30
492.26	329.45
492.63	332.87
492.99	336.24
493.36	339.77
493.72	343.59
494.08	347.71
494.45	351.87
494.81	356.42
495.17	360.95
495.54	365.84
495.90	370.90
496.26	376.09
496.63	381.70
496.99	387.46
497.35	393.49
497.72	399.63
498.08	406.15
498.44	412.70
498.80	419.94
499.17	427.31
499.53	434.96
499.89	442.94
500.26	450.85
500.62	459.14
500.98	468.05
501.34	477.09
501.71	486.48
502.07	496.23
502.43	506.16
502.79	516.27
503.16	526.90
503.52	537.74
503.88	548.92
504.24	560.32
504.60	572.05
504.97	584.48
505.33	597.07
505.69	610.32
506.05	623.81
506.41	637.16
506.78	650.91
507.14	664.89
507.50	679.33
507.86	694.41
508.22	709.74
508.59	725.14
508.95	741.17
509.31	757.17
509.67	773.62
510.03	790.35
510.39	807.74
510.75	825.41
511.12	843.54
511.48	861.67
511.84	880.38
512.20	898.93
512.56	917.84
512.92	937.40
513.28	956.76
513.64	976.44
514.00	996.44
514.37	1016.67
514.73	1037.32
515.09	1058.22
515.45	1079.00
515.81	1100.22
516.17	1121.41
516.53	1142.64
516.89	1164.10
517.25	1185.76
517.61	1207.32
517.97	1228.76
518.33	1250.08
518.69	1271.56
519.05	1293.63
519.41	1315.45
519.77	1338.22
520.13	1360.20
520.49	1381.88
520.85	1404.64
521.21	1427.01
521.57	1449.67
521.93	1471.67
522.29	1494.77
522.65	1516.88
523.01	1539.30
523.37	1561.30
523.73	1583.26
524.09	1605.30
524.45	1627.50
524.81	1649.45
525.17	1671.81
525.53	1694.21
525.89	1716.46
526.25	1738.43
526.61	1759.55
526.97	1781.37
527.33	1802.25
527.68	1823.87
528.04	1844.90
528.40	1864.77
528.76	1885.65
529.12	1906.28
529.48	1927.94
529.84	1947.95
530.20	1968.19
530.56	1988.38
530.91	2008.95
531.27	2029.30
531.63	2049.00
531.99	2068.73
532.35	2087.81
532.71	2106.66
533.07	2125.86
533.42	2144.36
533.78	2163.15
534.14	2181.50
534.50	2198.15
534.86	2216.08
535.21	2232.50
535.57	2250.35
535.93	2267.62
536.29	2283.93
536.65	2300.09
537.00	2315.02
537.36	2329.89
537.72	2344.93
538.08	2359.87
538.44	2374.63
538.79	2390.01
539.15	2404.64
539.51	2419.15
539.87	2433.95
540.22	2448.38
540.58	2462.87
540.94	2477.30
541.29	2489.98
541.65	2502.17
542.01	2515.28
542.37	2526.65
542.72	2538.80
543.08	2549.11
543.44	2560.82
543.79	2571.13
544.15	2581.28
544.51	2592.13
544.87	2602.82
545.22	2612.24
545.58	2620.53
545.94	2627.80
546.29	2633.97
546.65	2639.92
547.01	2645.84
547.36	2651.55
547.72	2656.71
548.07	2660.48
548.43	2664.07
548.79	2667.81
549.14	2672.12
549.50	2676.40
549.86	2680.54
550.21	2684.54
550.57	2688.85
550.92	2691.10
551.28	2693.51
551.64	2696.02
551.99	2698.72
552.35	2700.22
552.70	2702.45
553.06	2705.08
553.41	2708.13
553.77	2710.61
554.13	2713.25
554.48	2715.29
554.84	2716.49
555.19	2716.88
555.55	2717.63
555.90	2717.68
556.26	2718.36
556.61	2718.30
556.97	2716.93
557.32	2716.36
557.68	2714.24
558.03	2712.34
558.39	2710.94
558.74	2710.08
559.10	2708.49
559.45	2706.05
559.81	2705.04
560.16	2702.38
560.52	2699.91
560.87	2696.60
561.23	2692.96
561.58	2690.46
561.94	2686.71
562.29	2683.21
562.64	2681.15
563.00	2678.49
563.35	2676.15
563.71	2674.11
564.06	2672.17
564.42	2670.23
564.77	2668.07
565.12	2666.66
565.48	2663.91
565.83	2660.59
566.19	2657.41
566.54	2653.55
566.89	2649.90
567.25	2645.73
567.60	2642.43
567.96	2638.59
568.31	2635.40
568.66	2631.51
569.02	2626.78
569.37	2622.14
569.72	2618.16
570.08	2612.69
570.43	2607.16
570.78	2601.45
571.14	2594.91
571.49	2588.24
571.84	2582.35
572.20	2575.10
572.55	2568.26
572.90	2561.56
573.26	2554.76
573.61	2548.41
573.96	2541.55
574.31	2533.64
574.67	2525.90
575.02	2517.54
575.37	2509.32
575.72	2500.06
576.08	2492.80
576.43	2484.35
576.78	2476.71
577.13	2468.81
577.49	2460.74
577.84	2452.95
578.19	2445.66
578.54	2438.59
578.90	2431.37
579.25	2422.93
579.60	2414.13
579.95	2404.95
580.30	2396.90
580.66	2388.66
581.01	2379.10
581.36	2370.22
581.71	2362.08
582.06	2353.44
582.42	2345.37
582.77	2336.25
583.12	2327.23
583.47	2318.59
583.82	2310.26
584.17	2301.18
584.53	2292.00
584.88	2283.36
585.23	2274.56
585.58	2264.82
585.93	2255.01
586.28	2245.97
586.63	2237.24
586.98	2229.08
587.34	2220.51
587.69	2211.46
588.04	2202.49
588.39	2194.19
588.74	2185.12
589.09	2176.39
589.44	2166.93
589.79	2158.07
590.14	2150.33
590.49	2142.32
590.84	2133.16
591.19	2125.17
591.54	2116.29
591.89	2106.47
592.25	2097.38
592.60	2087.74
592.95	2078.72
593.30	2069.28
593.65	2059.51
594.00	2049.86
594.35	2041.72
594.70	2032.95
595.05	2024.22
595.40	2015.59
595.75	2006.17
596.10	1998.10
596.45	1989.80
596.80	1982.17
597.15	1974.25
597.50	1965.06
597.85	1956.80
598.19	1948.37
598.54	1939.62
598.89	1932.08
599.24	1925.47
599.59	1918.09
599.94	1911.03
600.29	1903.45
600.64	1895.65
600.99	1887.74
601.34	1880.67
601.69	1871.76
602.04	1863.49
602.39	1855.48
602.74	1847.60
603.08	1841.01
603.43	1834.03
603.78	1825.94
604.13	1818.32
604.48	1810.47
604.83	1803.70
605.18	1796.39
605.53	1788.95
605.87	1781.45
606.22	1774.63
606.57	1766.87
606.92	1758.95
607.27	1750.90
607.62	1743.74
607.96	1737.11
608.31	1730.82
608.66	1723.23
609.01	1715.82
609.36	1708.13
609.70	1700.29
610.05	1692.94
610.40	1684.80
610.75	1676.28
611.10	1668.84
611.44	1659.63
611.79	1650.68
612.14	1641.25
612.49	1631.99
612.83	1623.31
613.18	1613.65
613.53	1603.85
613.88	1594.11
614.22	1585.13
614.57	1576.01
614.92	1566.51
615.27	1557.25
615.61	1547.36
615.96	1538.37
616.31	1529.97
616.65	1522.28
617.00	1513.88
617.35	1505.02
617.70	1496.25
618.04	1487.30
618.39	1477.89
618.74	1469.73
619.08	1461.14
619.43	1453.17
619.78	1445.34
620.12	1437.12
620.47	1429.57
620.82	1421.27
621.16	1413.08
621.51	1404.76
621.85	1396.71
622.20	1388.47
622.55	1379.94
622.89	1371.86
623.24	1363.95
623.59	1355.52
623.93	1347.10
624.28	1338.94
624.62	1331.03
624.97	1323.00
625.32	1315.38
625.66	1308.03
626.01	1300.70
626.35	1293.75
626.70	1286.00
627.04	1278.75
627.39	1271.47
627.73	1264.05
628.08	1257.15
628.43	1250.03
628.77	1242.79
629.12	1235.49
629.46	1228.84
629.81	1222.04
630.15	1214.94
630.50	1207.60
630.84	1200.34
631.19	1193.13
631.53	1186.56
631.88	1178.99
632.22	1171.37
632.57	1164.35
632.91	1157.05
633.26	1149.67
633.60	1142.33
633.95	1135.76
634.29	1128.55
634.64	1121.84
634.98	1114.79
635.32	1107.72
635.67	1101.43
636.01	1095.06
636.36	1088.37
636.70	1081.67
637.05	1074.98
637.39	1068.62
637.73	1062.23
638.08	1056.44
638.42	1050.93
638.77	1044.40
639.11	1038.25
639.45	1032.48
639.80	1025.93
640.14	1019.49
640.49	1013.25
640.83	1007.43
641.17	1001.07
641.52	994.98
641.86	988.27
642.20	982.14
642.55	975.35
642.89	968.64
643.23	961.95
643.58	956.05
643.92	949.63
644.26	943.37
644.61	937.22
644.95	931.06
645.29	924.75
645.64	918.05
645.98	911.92
646.32	906.14
646.66	899.80
647.01	894.04
647.35	888.48
647.69	882.30
648.04	876.27
648.38	870.30
648.72	864.30
649.06	858.56
649.41	852.70
649.75	847.15
650.09	841.47
650.43	835.81
650.78	829.73
651.12	823.71
651.46	817.96
651.80	812.10
652.14	806.44
652.49	800.47
652.83	794.59
653.17	788.60
653.51	782.72
653.85	777.05
654.20	771.17
654.54	765.29
654.88	759.98
655.22	754.11
655.56	748.38
655.90	742.55
656.25	736.85
656.59	731.35
656.93	726.33
657.27	721.10
657.61	715.48
657.95	710.44
658.29	705.36
658.64	700.32
658.98	695.30
659.32	689.84
659.66	684.85
660.00	679.67
660.34	674.55
660.68	669.41
661.02	664.50
661.36	659.82
661.70	655.08
662.05	650.32
662.39	645.74
662.73	641.45
663.07	637.14
663.41	632.89
663.75	628.43
664.09	623.55
664.43	618.92
664.77	614.90
665.11	610.44
665.45	606.23
665.79	601.83
666.13	597.40
666.47	593.16
666.81	589.04
667.15	585.08
667.49	581.12
667.83	577.17
668.17	573.46
668.51	569.63
668.85	566.00
669.19	562.33
669.53	558.53
669.87	554.39
670.21	550.62
670.55	546.74
670.89	543.19
671.23	539.87
671.57	536.39
671.91	532.64
672.25	529.20
672.58	525.59
672.92	522.22
673.26	518.98
673.60	515.87
673.94	512.55
674.28	509.22
674.62	506.20
674.96	503.25
675.30	500.17
675.64	497.08
675.97	493.81
676.31	490.76
676.65	487.91
676.99	485.37
677.33	482.44
677.67	479.57
678.01	476.67
678.34	473.78
678.68	470.95
679.02	468.09
679.36	465.16
679.70	462.39
680.04	459.51
680.37	456.62
680.71	453.87
681.05	451.29
681.39	448.56
681.73	445.85
682.06	443.26
682.40	440.64
682.74	438.06
683.08	435.58
683.42	433.01
683.75	430.45
684.09	427.81
684.43	425.36
684.77	422.75
685.10	420.19
685.44	417.67
685.78	415.28
686.12	413.18
686.45	410.91
686.79	408.64
687.13	406.54
687.46	404.44
687.80	402.25
688.14	399.89
688.48	397.78
688.81	395.50
689.15	393.27
689.49	390.96
689.82	388.64
690.16	386.27
690.50	383.96
690.83	381.79
691.17	379.53
691.51	377.42
691.84	375.35
692.18	373.26
692.52	371.37
692.85	369.47
693.19	367.50
693.52	365.54
693.86	363.71
694.20	361.80
694.53	359.98
694.87	357.98
695.21	356.14
695.54	354.33
695.88	352.51
696.21	350.63
696.55	349.03
696.88	347.34
697.22	345.76
697.56	344.29
697.89	342.70
698.23	341.12
698.56	339.52
698.90	338.15
699.23	336.64
699.57	335.06
699.90	333.37
700.24	331.61
700.58	330.14
700.91	328.60
701.25	327.23
701.58	325.73
701.92	324.35
702.25	322.95
702.59	321.47
702.92	320.12
703.26	318.76
703.59	317.48
703.93	316.38
704.26	315.07
704.60	313.67
704.93	312.34
705.26	311.18
705.60	310.04
705.93	308.79
706.27	307.70
706.60	306.49
706.94	305.47
707.27	304.35
707.61	303.19
707.94	302.03
708.27	300.67
708.61	299.56
708.94	298.51
709.28	297.42
709.61	296.38
709.94	295.44
710.28	294.46
710.61	293.40
710.95	292.18
711.28	291.17
711.61	290.23
711.95	289.29
712.28	288.29
712.61	287.23
712.95	286.34
713.28	285.33
713.61	284.33
713.95	283.37
714.28	282.54
714.61	281.59
714.95	280.74
715.28	279.88
715.61	278.88
715.95	277.93
716.28	277.07
716.61	276.27
716.95	275.36
717.28	274.54
717.61	273.69
717.94	273.02
718.28	272.20
718.61	271.40
718.94	270.53
719.27	269.76
719.61	269.11
719.94	268.28
720.27	267.47
720.60	266.79
720.94	266.04
721.27	265.35
721.60	264.69
721.93	264.10
722.27	263.53
722.60	262.95
722.93	262.32
723.26	261.73
723.59	261.12
723.93	260.56
724.26	259.98
724.59	259.39
724.92	258.80
725.25	258.30
725.59	257.76
725.92	257.26
726.25	256.80
726.58	256.23
726.91	255.70
727.24	255.34
727.57	254.90
727.91	254.45
728.24	253.98
728.57	253.52
728.90	253.00
729.23	252.55
729.56	252.24
729.89	251.89
730.22	251.38
730.55	250.88
730.89	250.43
731.22	249.93
731.55	249.47
731.88	249.03
732.21	248.49
732.54	248.04
732.87	247.67
733.20	247.20
733.53	246.72
733.86	246.27
734.19	245.78
734.52	245.38
734.85	245.02
735.18	244.55
735.51	244.16
735.84	243.80
736.17	243.45
736.50	243.01
736.83	242.81
737.16	242.45
737.49	242.05
737.82	241.68
738.15	241.33
738.48	241.03
738.81	240.74
739.14	240.45
739.47	240.10
739.80	239.76
740.13	239.37
740.46	239.04
740.79	238.71
741.12	238.38
741.45	238.06
741.78	237.71
742.11	237.45
742.44	237.15
742.77	236.82
743.10	236.52
743.43	236.23
743.75	235.74
744.08	235.68
744.41	235.44
744.74	235.12
745.07	234.85
745.40	234.58
745.73	234.31
746.06	234.08
746.39	233.78
746.71	233.49
747.04	233.27
747.37	233.04
747.70	232.83
748.03	232.58
748.36	232.37
748.68	232.16
749.01	231.88
749.34	231.63
749.67	231.39
750.00	231.18
750.33	230.97
750.65	230.71
750.98	230.34
751.31	230.10
751.64	229.91
751.97	229.85
752.29	229.64
752.62	229.32
752.95	229.10
753.28	228.89
753.60	228.72
753.93	228.50
754.26	228.20
754.59	227.95
754.91	227.78
755.24	227.52
755.57	227.27
755.90	227.10
756.22	226.90
756.55	226.69
756.88	226.42
757.20	226.14
757.53	225.95
757.86	225.66
758.19	225.47
758.51	225.24
758.84	224.91
759.17	224.64
759.49	224.48
759.82	224.37
760.15	224.26
760.47	224.00
760.80	223.79
761.13	223.69
761.45	223.61
761.78	223.38
762.11	223.18
762.43	223.10
762.76	222.92
763.08	222.85
763.41	222.69
763.74	222.59
764.06	222.54
764.39	222.43
764.71	222.39
765.04	222.26
765.37	222.14
765.69	222.01
766.02	222.04
766.34	221.93
766.67	221.75
767.00	221.66
767.32	221.69
767.65	221.66
767.97	221.61
768.30	221.43
768.62	221.36
768.95	221.29
769.27	221.13
769.60	221.08
769.92	220.94
770.25	220.85
770.57	220.69
770.90	220.56
771.22	220.38
771.55	220.21
771.87	220.10
772.20	219.97
772.52	220.01
772.85	220.05
773.17	219.92
773.50	219.80
773.82	219.67
774.15	219.55
774.47	219.42
774.80	219.30
775.12	219.24
775.45	219.15
775.77	218.99
776.09	218.92
776.42	218.85
776.74	218.80
777.07	218.72
777.39	218.68
777.72	218.55
778.04	218.57
778.36	218.54
778.69	218.53
779.01	218.54
779.33	218.30
779.66	218.04
779.98	217.96
780.31	217.85
780.63	217.79
780.95	217.76
781.28	217.71
781.60	217.66
781.92	217.58
782.25	217.49
782.57	217.46
782.89	217.42
783.22	217.35
783.54	217.25
783.86	217.25
784.19	217.17
784.51	217.18
784.83	217.07
785.16	216.96
785.48	216.91
785.80	216.81
786.12	216.78
786.45	216.70
786.77	216.68
787.09	216.68
787.42	216.63
787.74	216.56
788.06	216.45
788.38	216.29
788.71	216.25
789.03	216.29
789.35	216.21
789.67	216.11
789.99	216.08
790.32	215.98
790.64	215.95
790.96	216.09
791.28	215.94
791.61	215.86
791.93	215.83
792.25	215.74
792.57	215.87
792.89	215.82
793.21	215.78
793.54	215.68
793.86	215.54
794.18	215.48
794.50	215.30
794.82	215.22
795.14	215.20
795.47	215.20
795.79	215.08
796.11	215.02
796.43	214.95
796.75	214.86
797.07	214.79
797.39	214.69
797.71	214.41
798.04	214.33
798.36	214.33
798.68	214.25
799.00	214.21
799.32	214.08
799.64	214.09
799.96	214.07
800.28	214.16
800.60	214.15
800.92	214.17
801.24	214.18
801.56	214.23
801.89	214.21
802.21	214.08
802.53	213.96
802.85	214.00
803.17	214.10
803.49	214.07
803.81	214.08
804.13	214.02
804.45	214.02
804.77	214.10
805.09	214.09
805.41	214.07
805.73	214.06
806.05	213.97
806.37	213.85
806.69	213.80
807.01	213.73
807.33	213.72
807.65	213.60
807.97	213.69
808.28	213.64
808.60	213.62
808.92	213.66
809.24	213.82
809.56	213.71
809.88	213.57
810.20	213.53
810.52	213.52
810.84	213.55
811.16	213.49
811.48	213.45
811.80	213.48
812.12	213.51
812.43	213.60
812.75	213.57
813.07	213.67
813.39	213.64
813.71	213.61
814.03	213.57
814.35	213.60
814.67	213.54
814.98	213.46
815.30	213.47
815.62	213.39
815.94	213.24
816.26	213.26
816.58	213.25
816.89	213.24
817.21	213.18
817.53	213.15
817.85	213.24
818.17	213.18
818.48	213.06
818.80	213.00
819.12	212.87
819.44	212.90
819.76	212.83
820.07	212.87
820.39	212.85
820.71	212.87
821.03	212.86
821.34	212.80
821.66	212.93
821.98	212.92
822.30	212.92
822.61	213.03
822.93	213.07
823.25	213.05
823.57	213.13
823.88	213.18
824.20	213.21
824.52	213.19
824.83	213.20
825.15	213.18
825.47	213.18
825.79	213.18
826.10	213.10
826.42	213.08
826.74	213.03
827.05	213.01
827.37	212.95
827.69	212.89
828.00	212.83
828.32	212.75
828.64	212.75
828.95	212.79
829.27	212.71
829.58	212.67
829.90	212.74
830.22	212.63
830.53	212.57
830.85	212.48
831.17	212.47
831.48	212.41
831.80	212.44
832.11	212.44
832.43	212.38
832.75	212.45
833.06	212.59
833.38	212.49
833.69	212.48
834.01	212.49
834.32	212.56
834.64	212.55
834.96	212.51
835.27	212.45
835.59	212.36
835.90	212.31
836.22	212.28
836.53	212.27
836.85	212.28
837.16	212.42
837.48	212.39
837.79	212.35
838.11	212.40
838.42	212.39
838.74	212.33
839.05	212.34
839.37	212.19
839.68	212.00
840.00	212.07
840.31	212.06
840.63	212.10
840.94	211.95
841.26	212.02
841.57	211.96
841.88	211.95
842.20	212.00
842.51	212.02
842.83	212.04
843.14	212.11
843.46	212.05
843.77	212.03
844.08	212.05
844.40	211.99
844.71	211.95
845.03	211.88
845.34	211.93
845.65	211.80
845.97	211.85
846.28	211.82
846.60	211.77
846.91	211.71
847.22	211.66
847.54	211.75
847.85	211.64
848.16	211.67
848.48	211.67
848.79	211.71
849.10	211.72
849.42	211.69
849.73	211.62
850.04	211.61
850.36	211.51
850.67	211.60
850.98	211.60
851.30	211.56
851.61	211.59
851.92	211.62
852.23	211.74
852.55	211.76
852.86	211.80
853.17	211.87
853.49	211.92
853.80	211.90
854.11	211.95
854.42	211.98
854.74	211.98
855.05	212.01
855.36	211.91
855.67	211.91
855.99	211.98
856.30	212.13
856.61	212.19
856.92	212.17
857.23	212.08
857.55	212.09
857.86	212.09
858.17	212.10
858.48	212.05
858.79	211.99
859.11	212.14
859.42	212.10
859.73	212.09
860.04	212.11
860.35	212.11
860.66	212.05
860.98	212.13
861.29	212.16
861.60	212.16
861.91	212.18
862.22	212.19
862.53	212.07
862.84	211.89
863.16	211.91
863.47	211.84
863.78	211.80
864.09	211.85
864.40	211.91
864.71	212.00
865.02	212.02
865.33	212.05
865.64	211.91
865.95	212.00
866.27	212.10
866.58	212.08
866.89	212.08
867.20	212.06
867.51	211.99
867.82	211.93
868.13	212.00
868.44	211.99
868.75	211.98
869.06	211.97
869.37	211.98
869.68	211.95
869.99	212.02
870.30	212.09
870.61	212.09
870.92	212.04
871.23	211.93
871.54	211.93
871.85	211.92
872.16	211.88
872.47	211.79
872.78	211.65
873.09	211.65
873.40	211.63
873.71	211.70
874.02	211.72
874.33	211.73
874.64	211.66
874.95	211.64
875.26	211.62
875.56	211.69
875.87	211.69
876.18	211.73
876.49	211.86
876.80	211.78
877.11	211.77
877.42	211.81
877.73	211.80
878.04	211.75
878.35	211.77
878.66	211.84
878.96	211.80
879.27	211.72
879.58	211.74
879.89	211.76
880.20	211.70
880.51	211.74
880.82	211.78
881.12	211.77
881.43	211.76
881.74	211.78
882.05	211.75
882.36	211.76
882.67	211.69
882.97	211.50
883.28	211.49
883.59	211.46
883.90	211.44
884.21	211.48
884.51	211.46
884.82	211.43
885.13	211.41
885.44	211.44
885.74	211.49
886.05	211.40
886.36	211.41
886.67	211.40
886.98	211.40
887.28	211.37
887.59	211.40
887.90	211.39
888.20	211.36
888.51	211.37
888.82	211.26
889.13	211.23
889.43	211.36
889.74	211.40
890.05	211.40
890.35	211.31
890.66	211.29
890.97	211.33
891.28	211.31
891.58	211.26
891.89	211.33
892.20	211.36
892.50	211.40
892.81	211.33
893.12	211.23
893.42	211.10
893.73	211.13
894.04	211.11
894.34	211.15
894.65	211.14
894.95	211.05
895.26	211.07
895.57	211.16
895.87	211.01
896.18	211.01
896.48	211.01
896.79	211.06
897.10	211.08
897.40	211.06
897.71	211.11
898.01	211.13
898.32	211.08
898.63	211.02
898.93	210.97
899.24	211.02
899.54	211.00
899.85	210.99
900.15	210.94
900.46	210.88
900.76	210.88
901.07	210.85
901.38	210.94
901.68	210.96
901.99	210.85
902.29	210.89
902.60	210.83
902.90	210.82
903.21	210.85
903.51	210.82
903.82	210.86
904.12	210.77
904.43	210.80
904.73	210.79
905.03	210.79
905.34	211.00
905.64	211.00
905.95	211.08
906.25	211.14
906.56	211.12
906.86	211.15
907.17	211.13
907.47	211.13
907.77	211.12
908.08	211.16
908.38	211.15
908.69	211.15
908.99	211.21
909.30	211.18
909.60	211.16
909.90	211.19
910.21	211.15
910.51	211.13
910.81	211.17
911.12	211.13
911.42	211.15
911.73	210.97
912.03	210.92
912.33	210.98
912.64	210.95
912.94	211.00
913.24	210.94
913.55	210.93
913.85	210.90
914.15	210.92
914.46	210.87
914.76	210.94
915.06	210.92
915.37	210.90
915.67	210.93
915.97	210.93
916.27	210.89
916.58	210.89
916.88	210.95
917.18	210.86
917.49	211.04
917.79	211.02
918.09	211.05
918.39	211.08
918.70	211.04
919.00	211.08
919.30	211.16
919.60	211.21
919.91	211.19
920.21	211.24
920.51	211.22
920.81	211.18
921.12	211.17
921.42	211.18
921.72	211.23
922.02	211.24
922.32	211.23
922.63	211.21
922.93	211.28
923.23	211.23
923.53	211.23
923.83	211.12
924.13	211.16
924.44	211.13
924.74	211.13
925.04	211.13
925.34	211.12
925.64	211.01
925.94	211.00
926.24	211.07
926.55	211.04
926.85	211.01
927.15	211.10
927.45	211.12
927.75	211.08
928.05	211.05
928.35	211.04
928.65	211.09
928.95	211.15
929.26	211.03
929.56	211.09
929.86	211.05
930.16	211.04
930.46	211.01
930.76	211.03
931.06	211.00
931.36	210.96
931.66	211.02
931.96	211.05
932.26	211.07
932.56	211.03
932.86	211.05
933.16	211.04
933.46	210.91
933.76	210.87
934.06	210.96
934.36	211.00
934.66	210.88
934.96	210.83
935.26	210.81
935.56	210.87
935.86	210.79
936.16	210.82
936.46	210.81
936.76	210.81
937.06	210.75
937.36	210.76
937.66	210.75
937.96	210.65
938.26	210.51
938.56	210.52
938.86	210.44
939.16	210.44
939.46	210.44
939.76	210.48
940.06	210.47
940.35	210.44
940.65	210.35
940.95	210.42
941.25	210.40
941.55	210.33
941.85	210.39
942.15	210.46
942.45	210.46
942.75	210.43
943.04	210.45
943.34	210.55
943.64	210.60
943.94	210.65
944.24	210.66
944.54	210.69
944.84	210.69
945.13	210.71
945.43	210.70
945.73	210.73
946.03	210.75
946.33	210.70
946.62	210.65
946.92	210.67
947.22	210.72
947.52	210.73
947.82	210.77
948.11	210.67
948.41	210.72
948.71	210.74
949.01	210.77
949.31	210.76
949.60	210.70
949.90	210.73
950.20	210.71
950.50	210.80
950.79	210.81
951.09	210.80
951.39	210.81
951.69	210.81
951.98	210.90
952.28	210.92
952.58	210.95
952.87	210.98
953.17	211.02
953.47	210.97
953.76	211.00
954.06	210.97
954.36	211.00
954.66	210.96
954.95	210.99
955.25	210.99
955.55	211.00
955.84	211.00
956.14	210.94
956.44	210.93
956.73	210.77
957.03	210.78
957.32	210.84
957.62	210.85
957.92	210.86
958.21	210.78
958.51	210.96
958.81	210.94
959.10	210.97
959.40	211.00
959.69	210.99
959.99	211.02
960.29	211.07
960.58	211.01
960.88	211.05
961.17	211.08
961.47	211.14
961.76	211.16
962.06	211.15
962.36	211.16
962.65	211.20
962.95	211.31
963.24	211.32
963.54	211.30
963.83	211.37
964.13	211.41
964.42	211.35
964.72	211.19
965.01	211.23
965.31	211.23
965.60	211.16
965.90	211.40
966.19	211.34
966.49	211.35
966.78	211.45
967.08	211.51
967.37	211.49
967.67	211.45
967.96	211.44
968.26	211.45
968.55	211.45
968.85	211.40
969.14	211.47
969.43	211.52
969.73	211.50
970.02	211.43
970.32	211.44
970.61	211.48
970.91	211.49
971.20	211.51
971.49	211.38
971.79	211.39
972.08	211.14
972.38	211.16
972.67	211.08
972.96	211.06
973.26	211.06
973.55	211.09
973.85	211.07
974.14	211.10
974.43	211.17
974.73	211.10
975.02	211.13
975.31	211.06
975.61	211.06
975.90	211.04
976.19	211.05
976.49	211.00
976.78	211.00
977.07	210.91
977.37	210.90
977.66	210.92
977.95	210.89
978.24	210.92
978.54	210.94
978.83	210.99
979.12	211.01
979.42	210.94
979.71	210.95
980.00	210.92
980.29	210.90
980.59	210.84
980.88	210.97
981.17	210.95
981.46	210.95
981.76	210.91
982.05	210.93
982.34	210.95
982.63	210.99
982.93	210.99
983.22	211.11
983.51	211.13
983.80	211.21
984.09	211.26
984.39	211.30
984.68	211.30
984.97	211.31
985.26	211.25
985.55	211.27
985.85	211.15
986.14	211.16
986.43	211.17
986.72	211.18
987.01	211.05
987.30	211.08
987.59	210.99
987.89	210.98
988.18	210.91
988.47	210.90
988.76	210.83
989.05	210.88
989.34	210.84
989.63	210.84
989.92	210.78
990.22	210.72
990.51	210.71
990.80	210.63
991.09	210.66
991.38	210.70
991.67	210.61
991.96	210.66
992.25	210.65
992.54	210.60
992.83	210.58
993.12	210.61
993.41	210.59
993.70	210.74
993.99	210.81
994.28	210.86
994.58	210.81
994.87	210.87
995.16	210.82
995.45	210.76
995.74	210.66
996.03	210.73
996.32	210.79
996.61	210.75
996.90	210.74
997.19	210.69
997.48	210.68
997.77	210.68
998.06	210.65
998.34	210.72
998.63	210.73
998.92	210.68
999.21	210.66
999.50	210.65
999.79	210.57
1000.08	210.52
1000.37	210.52
1000.66	210.50
1000.95	210.42
1001.24	210.45
1001.53	210.52
1001.82	210.54
1002.11	210.45
1002.40	210.40
1002.68	210.47
1002.97	210.67
1003.26	210.67
1003.55	210.62
1003.84	210.62
1004.13	210.66
1004.42	210.62
1004.71	210.62
1004.99	210.65
1005.28	210.70
1005.57	210.62
1005.86	210.55
1006.15	210.54
1006.44	210.53
1006.72	210.56
1007.01	210.58
1007.30	210.54
1007.59	210.50
1007.88	210.52
1008.17	210.60
1008.45	210.54
1008.74	210.49
1009.03	210.37
1009.32	210.43
1009.60	210.40
1009.89	210.42
1010.18	210.36
1010.47	210.40
1010.76	210.39
1011.04	210.31
1011.33	210.32
1011.62	210.43
1011.91	210.51
1012.19	210.48
1012.48	210.51
1012.77	210.49
1013.05	210.58
1013.34	210.57
1013.63	210.52
1013.92	210.50
1014.20	210.41
1014.49	210.47
1014.78	210.49
1015.06	210.41
1015.35	210.35
1015.64	210.42
1015.92	210.38
1016.21	210.44
1016.50	210.38
1016.78	210.45
1017.07	210.55
1017.36	210.57
1017.64	210.52
1017.93	210.55
1018.22	210.55
1018.50	210.56
1018.79	210.60
1019.08	210.56
1019.36	210.61
1019.65	210.70
1019.93	210.76
1020.22	210.89
1020.51	211.03
1020.79	211.07
1021.08	209.40
1021.36	211.30
1021.65	211.00
1021.94	211.20
1022.22	211.15
1022.51	211.50
1022.79	211.35
1023.08	211.80
1023.36	213.60
1023.65	211.65
>>>>>End Processed Spectral Data<<<<<
