SpectraSuite Data File
++++++++++++++++++++++++++++++++++++
Date: Mon Feb 25 17:32:25 EST 2013
User: group
Dark Spectrum Present: No
Reference Spectrum Present: No
Number of Sampled Component Spectra: 1
Spectrometers: USB2E7196
Integration Time (usec): 52000 (USB2E7196)
Spectra Averaged: 20 (USB2E7196)
Boxcar Smoothing: 10 (USB2E7196)
Correct for Electrical Dark: No (USB2E7196)
Strobe/Lamp Enabled: No (USB2E7196)
Correct for Detector Non-linearity: No (USB2E7196)
Correct for Stray Light: No (USB2E7196)
Number of Pixels in Processed Spectrum: 2048
>>>>>Begin Processed Spectral Data<<<<<
339.09	0.00
339.48	198.50
339.86	201.45
340.24	200.95
340.63	204.00
341.01	207.15
341.39	206.35
341.78	207.80
342.16	209.35
342.54	209.45
342.93	198.67
343.31	208.75
343.69	209.27
344.07	209.68
344.46	210.16
344.84	210.53
345.22	210.80
345.60	211.03
345.99	211.22
346.37	211.32
346.75	211.46
347.13	211.48
347.52	211.57
347.90	211.58
348.28	211.63
348.66	211.70
349.05	211.63
349.43	211.70
349.81	211.77
350.19	211.84
350.57	211.91
350.96	211.88
351.34	211.93
351.72	212.11
352.10	212.26
352.48	212.34
352.87	212.39
353.25	212.36
353.63	212.43
354.01	212.46
354.39	212.54
354.77	212.56
355.15	212.68
355.54	212.70
355.92	212.66
356.30	212.70
356.68	212.85
357.06	212.88
357.44	212.91
357.82	212.96
358.20	213.01
358.58	213.05
358.97	213.09
359.35	213.15
359.73	213.19
360.11	213.13
360.49	213.12
360.87	213.12
361.25	213.17
361.63	213.24
362.01	213.23
362.39	213.23
362.77	213.22
363.15	213.18
363.53	213.22
363.91	213.23
364.29	213.22
364.67	213.07
365.05	213.09
365.43	213.08
365.81	213.09
366.19	213.11
366.57	213.14
366.95	213.14
367.33	213.07
367.71	213.03
368.09	213.09
368.47	213.12
368.85	213.07
369.23	213.07
369.61	212.98
369.99	213.10
370.37	213.12
370.75	213.25
371.13	213.23
371.51	213.11
371.89	213.14
372.27	213.14
372.65	213.12
373.03	213.06
373.41	212.99
373.78	212.97
374.16	212.87
374.54	212.80
374.92	212.80
375.30	212.76
375.68	212.67
376.06	212.63
376.44	212.53
376.82	212.55
377.19	212.60
377.57	212.61
377.95	212.46
378.33	212.45
378.71	212.19
379.09	212.16
379.47	212.22
379.84	212.21
380.22	212.19
380.60	212.09
380.98	212.06
381.36	212.03
381.73	211.87
382.11	211.93
382.49	211.94
382.87	211.80
383.25	211.76
383.62	211.96
384.00	211.87
384.38	211.84
384.76	211.81
385.13	211.71
385.51	211.66
385.89	211.58
386.27	211.49
386.64	211.56
387.02	211.48
387.40	211.40
387.78	211.32
388.15	211.28
388.53	211.30
388.91	211.28
389.29	211.30
389.66	211.35
390.04	211.22
390.42	211.21
390.79	211.23
391.17	211.25
391.55	211.03
391.92	211.07
392.30	211.12
392.68	211.12
393.05	211.12
393.43	211.11
393.81	211.13
394.18	211.17
394.56	211.12
394.94	211.21
395.31	211.20
395.69	211.32
396.06	211.37
396.44	211.40
396.82	211.36
397.19	211.43
397.57	211.36
397.95	211.47
398.32	211.47
398.70	211.49
399.07	211.61
399.45	211.71
399.82	211.78
400.20	211.76
400.58	211.83
400.95	211.83
401.33	211.92
401.70	212.14
402.08	212.19
402.45	212.31
402.83	212.39
403.20	212.47
403.58	212.51
403.95	212.66
404.33	212.73
404.71	212.85
405.08	213.09
405.46	213.28
405.83	213.41
406.21	213.50
406.58	213.70
406.96	213.69
407.33	213.75
407.70	213.95
408.08	214.32
408.45	214.52
408.83	214.78
409.20	214.97
409.58	215.15
409.95	215.42
410.33	215.70
410.70	215.99
411.08	216.38
411.45	216.72
411.82	217.05
412.20	217.53
412.57	218.11
412.95	218.39
413.32	218.94
413.69	219.44
414.07	220.03
414.44	220.68
414.82	221.45
415.19	222.23
415.56	222.92
415.94	223.71
416.31	224.65
416.68	225.53
417.06	226.57
417.43	227.46
417.81	228.56
418.18	229.74
418.55	230.99
418.93	232.21
419.30	233.55
419.67	234.92
420.04	236.31
420.42	237.83
420.79	239.64
421.16	241.31
421.54	243.13
421.91	245.05
422.28	246.87
422.66	248.90
423.03	250.90
423.40	252.99
423.77	255.19
424.15	257.36
424.52	259.70
424.89	262.19
425.26	264.79
425.64	267.21
426.01	269.76
426.38	272.37
426.75	275.25
427.13	278.03
427.50	280.94
427.87	284.03
428.24	286.99
428.61	289.90
428.99	293.10
429.36	296.54
429.73	299.99
430.10	303.47
430.47	306.98
430.85	310.60
431.22	314.51
431.59	318.62
431.96	322.48
432.33	326.80
432.70	330.99
433.08	335.79
433.45	340.38
433.82	344.89
434.19	350.06
434.56	354.84
434.93	359.54
435.30	364.30
435.68	369.61
436.05	374.87
436.42	379.96
436.79	384.75
437.16	389.80
437.53	395.07
437.90	400.42
438.27	405.52
438.64	410.70
439.01	415.53
439.38	419.85
439.75	424.09
440.13	428.95
440.50	433.51
440.87	437.08
441.24	440.88
441.61	445.05
441.98	447.91
442.35	451.56
442.72	455.30
443.09	458.71
443.46	460.69
443.83	461.99
444.20	463.18
444.57	464.89
444.94	465.53
445.31	466.28
445.68	466.90
446.05	467.19
446.42	466.81
446.79	466.13
447.16	465.29
447.53	464.80
447.90	462.74
448.27	460.64
448.64	457.84
449.01	455.82
449.37	452.32
449.74	448.94
450.11	444.85
450.48	440.27
450.85	435.77
451.22	431.90
451.59	428.15
451.96	424.56
452.33	419.85
452.70	415.60
453.07	410.49
453.43	405.39
453.80	400.40
454.17	395.45
454.54	390.82
454.91	386.06
455.28	381.24
455.65	376.89
456.02	372.61
456.38	369.01
456.75	364.33
457.12	360.42
457.49	356.70
457.86	352.97
458.23	349.84
458.59	346.34
458.96	342.84
459.33	339.80
459.70	336.74
460.07	334.20
460.43	331.45
460.80	328.88
461.17	326.50
461.54	324.09
461.91	321.86
462.27	319.58
462.64	317.46
463.01	315.34
463.38	313.15
463.74	310.90
464.11	308.92
464.48	307.24
464.85	305.55
465.21	304.11
465.58	302.70
465.95	300.96
466.32	299.58
466.68	298.12
467.05	296.61
467.42	295.11
467.78	293.60
468.15	292.25
468.52	291.18
468.88	289.85
469.25	288.61
469.62	287.75
469.98	286.84
470.35	286.00
470.72	285.05
471.08	284.00
471.45	283.25
471.82	282.49
472.18	281.59
472.55	281.01
472.92	280.33
473.28	279.74
473.65	279.20
474.02	278.57
474.38	278.10
474.75	277.78
475.11	277.45
475.48	277.25
475.85	277.04
476.21	276.80
476.58	276.63
476.94	276.66
477.31	276.51
477.67	276.40
478.04	276.40
478.41	276.53
478.77	276.80
479.14	276.87
479.50	277.08
479.87	277.45
480.23	277.81
480.60	278.07
480.96	278.45
481.33	279.04
481.69	279.77
482.06	280.44
482.42	281.15
482.79	281.83
483.15	282.66
483.52	283.65
483.88	284.63
484.25	285.69
484.61	286.65
484.98	287.85
485.34	289.10
485.71	290.49
486.07	291.87
486.44	293.30
486.80	294.92
487.17	296.53
487.53	298.39
487.90	300.07
488.26	302.11
488.62	304.20
488.99	306.31
489.35	308.35
489.72	310.60
490.08	312.91
490.44	315.35
490.81	317.99
491.17	320.76
491.54	323.64
491.90	326.68
492.26	329.95
492.63	333.23
492.99	336.71
493.36	340.22
493.72	344.02
494.08	348.03
494.45	352.33
494.81	356.90
495.17	361.32
495.54	366.37
495.90	371.40
496.26	376.60
496.63	382.00
496.99	387.82
497.35	393.88
497.72	400.05
498.08	406.67
498.44	413.48
498.80	420.41
499.17	427.83
499.53	435.35
499.89	443.26
500.26	451.38
500.62	459.69
500.98	468.48
501.34	477.67
501.71	487.07
502.07	496.72
502.43	506.67
502.79	517.11
503.16	527.69
503.52	538.62
503.88	549.77
504.24	561.28
504.60	573.18
504.97	585.50
505.33	598.21
505.69	611.55
506.05	624.97
506.41	638.60
506.78	652.22
507.14	666.46
507.50	681.07
507.86	695.99
508.22	711.45
508.59	727.04
508.95	742.89
509.31	758.99
509.67	775.61
510.03	792.37
510.39	809.70
510.75	827.35
511.12	845.29
511.48	863.66
511.84	882.12
512.20	900.68
512.56	919.97
512.92	939.23
513.28	958.40
513.64	978.15
514.00	998.04
514.37	1018.40
514.73	1039.06
515.09	1059.67
515.45	1080.43
515.81	1101.42
516.17	1122.31
516.53	1143.53
516.89	1164.91
517.25	1186.33
517.61	1208.09
517.97	1229.80
518.33	1251.26
518.69	1272.95
519.05	1294.94
519.41	1317.39
519.77	1339.86
520.13	1361.60
520.49	1383.67
520.85	1406.22
521.21	1428.78
521.57	1451.90
521.93	1473.62
522.29	1496.56
522.65	1518.94
523.01	1541.56
523.37	1563.76
523.73	1586.62
524.09	1608.67
524.45	1630.95
524.81	1653.23
525.17	1675.76
525.53	1697.95
525.89	1720.22
526.25	1742.02
526.61	1763.40
526.97	1784.65
527.33	1805.91
527.68	1827.45
528.04	1848.63
528.40	1868.91
528.76	1889.45
529.12	1909.74
529.48	1931.82
529.84	1951.58
530.20	1971.91
530.56	1992.14
530.91	2012.72
531.27	2032.80
531.63	2052.96
531.99	2072.95
532.35	2092.09
532.71	2110.74
533.07	2130.11
533.42	2148.39
533.78	2167.43
534.14	2185.79
534.50	2203.01
534.86	2221.05
535.21	2237.76
535.57	2255.45
535.93	2272.75
536.29	2289.53
536.65	2306.57
537.00	2321.78
537.36	2337.20
537.72	2352.11
538.08	2367.42
538.44	2382.37
538.79	2397.30
539.15	2411.75
539.51	2426.19
539.87	2441.43
540.22	2455.94
540.58	2470.52
540.94	2485.15
541.29	2497.86
541.65	2510.01
542.01	2523.06
542.37	2534.70
542.72	2547.24
543.08	2557.95
543.44	2569.64
543.79	2579.91
544.15	2590.09
544.51	2601.25
544.87	2612.37
545.22	2621.84
545.58	2630.18
545.94	2637.47
546.29	2644.09
546.65	2650.69
547.01	2656.40
547.36	2661.96
547.72	2667.15
548.07	2670.87
548.43	2674.52
548.79	2678.35
549.14	2682.89
549.50	2687.63
549.86	2691.58
550.21	2695.20
550.57	2699.52
550.92	2702.30
551.28	2704.53
551.64	2706.53
551.99	2708.50
552.35	2709.73
552.70	2712.45
553.06	2715.19
553.41	2718.19
553.77	2721.19
554.13	2723.39
554.48	2725.68
554.84	2726.69
555.19	2727.56
555.55	2728.30
555.90	2728.98
556.26	2729.54
556.61	2729.40
556.97	2728.08
557.32	2727.80
557.68	2726.20
558.03	2724.65
558.39	2722.98
558.74	2722.79
559.10	2721.45
559.45	2719.55
559.81	2718.50
560.16	2715.73
560.52	2713.07
560.87	2710.06
561.23	2706.20
561.58	2703.81
561.94	2700.67
562.29	2697.40
562.64	2694.98
563.00	2692.35
563.35	2690.01
563.71	2688.35
564.06	2686.18
564.42	2683.99
564.77	2681.32
565.12	2679.24
565.48	2676.12
565.83	2672.65
566.19	2669.02
566.54	2664.71
566.89	2661.08
567.25	2657.33
567.60	2654.17
567.96	2650.61
568.31	2646.94
568.66	2643.19
569.02	2638.60
569.37	2633.48
569.72	2629.59
570.08	2624.27
570.43	2619.05
570.78	2612.95
571.14	2606.17
571.49	2599.33
571.84	2593.40
572.20	2586.30
572.55	2579.73
572.90	2572.93
573.26	2566.53
573.61	2559.65
573.96	2553.18
574.31	2545.34
574.67	2537.13
575.02	2528.60
575.37	2520.20
575.72	2511.02
576.08	2503.59
576.43	2495.11
576.78	2487.27
577.13	2479.06
577.49	2471.12
577.84	2463.28
578.19	2456.06
578.54	2449.10
578.90	2442.35
579.25	2433.57
579.60	2424.81
579.95	2415.55
580.30	2407.46
580.66	2399.51
581.01	2390.35
581.36	2381.08
581.71	2372.68
582.06	2364.43
582.42	2356.13
582.77	2346.81
583.12	2338.33
583.47	2329.29
583.82	2320.54
584.17	2311.34
584.53	2302.20
584.88	2293.27
585.23	2283.97
585.58	2274.24
585.93	2264.26
586.28	2255.08
586.63	2246.35
586.98	2238.26
587.34	2230.27
587.69	2221.29
588.04	2211.98
588.39	2203.73
588.74	2195.12
589.09	2186.26
589.44	2176.54
589.79	2168.13
590.14	2160.38
590.49	2152.06
590.84	2143.03
591.19	2135.11
591.54	2126.60
591.89	2116.74
592.25	2107.70
592.60	2098.41
592.95	2089.39
593.30	2080.28
593.65	2070.50
594.00	2061.06
594.35	2052.71
594.70	2043.26
595.05	2034.38
595.40	2025.53
595.75	2015.88
596.10	2007.55
596.45	1998.95
596.80	1991.36
597.15	1983.03
597.50	1973.71
597.85	1965.42
598.19	1957.01
598.54	1948.47
598.89	1940.67
599.24	1934.08
599.59	1926.53
599.94	1919.44
600.29	1911.50
600.64	1903.30
600.99	1895.15
601.34	1888.08
601.69	1879.43
602.04	1871.30
602.39	1863.12
602.74	1855.48
603.08	1849.25
603.43	1842.13
603.78	1834.48
604.13	1826.37
604.48	1818.27
604.83	1811.38
605.18	1804.13
605.53	1796.58
605.87	1789.05
606.22	1781.90
606.57	1773.86
606.92	1765.66
607.27	1757.32
607.62	1750.30
607.96	1743.75
608.31	1737.44
608.66	1729.27
609.01	1721.60
609.36	1714.04
609.70	1706.51
610.05	1698.82
610.40	1690.45
610.75	1681.63
611.10	1674.00
611.44	1664.91
611.79	1656.20
612.14	1647.11
612.49	1637.68
612.83	1628.97
613.18	1619.29
613.53	1610.06
613.88	1600.31
614.22	1591.55
614.57	1582.70
614.92	1573.08
615.27	1563.62
615.61	1553.84
615.96	1545.07
616.31	1536.66
616.65	1528.75
617.00	1520.09
617.35	1511.38
617.70	1502.50
618.04	1493.53
618.39	1483.87
618.74	1475.76
619.08	1467.14
619.43	1459.02
619.78	1451.23
620.12	1443.19
620.47	1435.50
620.82	1426.92
621.16	1418.96
621.51	1410.56
621.85	1402.36
622.20	1394.10
622.55	1385.67
622.89	1377.62
623.24	1369.74
623.59	1361.28
623.93	1352.71
624.28	1344.98
624.62	1336.80
624.97	1328.57
625.32	1321.12
625.66	1314.18
626.01	1306.88
626.35	1299.66
626.70	1291.73
627.04	1284.27
627.39	1276.72
627.73	1269.00
628.08	1262.14
628.43	1254.53
628.77	1247.41
629.12	1239.92
629.46	1233.35
629.81	1226.30
630.15	1218.75
630.50	1211.31
630.84	1204.12
631.19	1197.01
631.53	1190.00
631.88	1182.53
632.22	1175.04
632.57	1167.90
632.91	1160.26
633.26	1152.59
633.60	1145.51
633.95	1138.83
634.29	1131.69
634.64	1124.95
634.98	1118.07
635.32	1110.85
635.67	1104.51
636.01	1097.86
636.36	1091.32
636.70	1084.55
637.05	1078.05
637.39	1071.93
637.73	1065.80
638.08	1059.89
638.42	1053.93
638.77	1047.28
639.11	1041.15
639.45	1035.28
639.80	1028.82
640.14	1022.41
640.49	1016.40
640.83	1010.10
641.17	1003.80
641.52	997.67
641.86	991.01
642.20	984.89
642.55	978.43
642.89	972.08
643.23	965.62
643.58	959.69
643.92	952.99
644.26	946.60
644.61	940.67
644.95	934.41
645.29	928.05
645.64	921.46
645.98	915.43
646.32	909.60
646.66	903.55
647.01	897.67
647.35	891.95
647.69	885.60
648.04	879.75
648.38	873.87
648.72	867.90
649.06	862.07
649.41	856.19
649.75	850.47
650.09	844.83
650.43	839.01
650.78	832.55
651.12	826.88
651.46	821.19
651.80	815.20
652.14	809.40
652.49	803.52
652.83	797.92
653.17	791.92
653.51	785.97
653.85	780.24
654.20	774.44
654.54	768.70
654.88	763.34
655.22	757.41
655.56	751.65
655.90	745.91
656.25	740.21
656.59	734.55
656.93	729.31
657.27	723.97
657.61	718.40
657.95	713.53
658.29	708.37
658.64	703.32
658.98	698.19
659.32	692.88
659.66	687.72
660.00	682.26
660.34	676.88
660.68	671.71
661.02	666.68
661.36	661.99
661.70	657.20
662.05	652.45
662.39	648.18
662.73	643.74
663.07	639.36
663.41	635.01
663.75	630.47
664.09	625.72
664.43	621.10
664.77	616.90
665.11	612.33
665.45	607.99
665.79	603.58
666.13	599.24
666.47	594.98
666.81	590.91
667.15	587.06
667.49	583.44
667.83	579.70
668.17	575.76
668.51	571.99
668.85	568.07
669.19	564.44
669.53	560.41
669.87	556.32
670.21	552.52
670.55	548.72
670.89	545.35
671.23	542.05
671.57	538.55
671.91	535.09
672.25	531.60
672.58	528.16
672.92	524.81
673.26	521.64
673.60	518.38
673.94	514.90
674.28	511.55
674.62	508.18
674.96	504.80
675.30	501.81
675.64	498.64
675.97	495.59
676.31	492.47
676.65	489.59
676.99	487.08
677.33	484.09
677.67	481.26
678.01	478.20
678.34	475.14
678.68	472.29
679.02	469.24
679.36	466.54
679.70	463.70
680.04	460.82
680.37	457.80
680.71	455.03
681.05	452.57
681.39	449.98
681.73	447.50
682.06	445.03
682.40	442.57
682.74	439.97
683.08	437.45
683.42	434.90
683.75	432.48
684.09	429.68
684.43	427.30
684.77	424.60
685.10	422.20
685.44	419.69
685.78	417.28
686.12	415.10
686.45	412.78
686.79	410.41
687.13	408.27
687.46	406.20
687.80	403.93
688.14	401.53
688.48	399.36
688.81	397.00
689.15	394.90
689.49	392.46
689.82	390.26
690.16	387.95
690.50	385.76
690.83	383.38
691.17	381.26
691.51	379.07
691.84	377.02
692.18	374.97
692.52	373.05
692.85	371.10
693.19	369.13
693.52	367.14
693.86	365.28
694.20	363.39
694.53	361.40
694.87	359.52
695.21	357.59
695.54	355.59
695.88	353.67
696.21	351.63
696.55	349.98
696.88	348.09
697.22	346.29
697.56	344.63
697.89	343.06
698.23	341.36
698.56	339.71
698.90	338.22
699.23	336.51
699.57	334.91
699.90	333.21
700.24	331.55
700.58	329.99
700.91	328.43
701.25	326.95
701.58	325.54
701.92	324.12
702.25	322.77
702.59	321.32
702.92	320.02
703.26	318.81
703.59	317.45
703.93	316.40
704.26	315.23
704.60	313.87
704.93	312.61
705.26	311.40
705.60	310.20
705.93	308.96
706.27	307.86
706.60	306.74
706.94	305.73
707.27	304.56
707.61	303.43
707.94	302.27
708.27	301.10
708.61	299.95
708.94	298.77
709.28	297.59
709.61	296.50
709.94	295.44
710.28	294.29
710.61	293.24
710.95	291.92
711.28	290.91
711.61	289.99
711.95	289.01
712.28	287.99
712.61	286.95
712.95	286.00
713.28	285.09
713.61	284.09
713.95	283.11
714.28	282.26
714.61	281.19
714.95	280.29
715.28	279.31
715.61	278.35
715.95	277.57
716.28	276.68
716.61	275.91
716.95	275.07
717.28	274.22
717.61	273.51
717.94	272.78
718.28	271.94
718.61	271.19
718.94	270.49
719.27	269.80
719.61	269.07
719.94	268.38
720.27	267.60
720.60	266.90
720.94	266.19
721.27	265.47
721.60	264.94
721.93	264.35
722.27	263.80
722.60	263.23
722.93	262.51
723.26	262.07
723.59	261.51
723.93	260.97
724.26	260.48
724.59	259.75
724.92	259.23
725.25	258.70
725.59	258.07
725.92	257.45
726.25	256.90
726.58	256.45
726.91	255.94
727.24	255.40
727.57	254.83
727.91	254.31
728.24	253.84
728.57	253.28
728.90	252.79
729.23	252.34
729.56	251.96
729.89	251.57
730.22	251.11
730.55	250.59
730.89	250.06
731.22	249.61
731.55	249.13
731.88	248.71
732.21	248.31
732.54	247.88
732.87	247.46
733.20	247.02
733.53	246.59
733.86	246.18
734.19	245.73
734.52	245.46
734.85	245.15
735.18	244.82
735.51	244.49
735.84	244.09
736.17	243.70
736.50	243.18
736.83	243.01
737.16	242.54
737.49	242.19
737.82	241.80
738.15	241.41
738.48	241.12
738.81	240.69
739.14	240.26
739.47	239.94
739.80	239.61
740.13	239.26
740.46	238.81
740.79	238.29
741.12	238.03
741.45	237.63
741.78	237.20
742.11	236.84
742.44	236.49
742.77	236.23
743.10	235.79
743.43	235.51
743.75	234.95
744.08	235.01
744.41	234.73
744.74	234.45
745.07	234.15
745.40	233.99
745.73	233.84
746.06	233.60
746.39	233.32
746.71	233.06
747.04	232.79
747.37	232.55
747.70	232.42
748.03	232.14
748.36	231.92
748.68	231.73
749.01	231.40
749.34	231.19
749.67	230.92
750.00	230.78
750.33	230.67
750.65	230.44
750.98	229.90
751.31	229.71
751.64	229.48
751.97	229.24
752.29	228.89
752.62	228.57
752.95	228.30
753.28	228.08
753.60	227.81
753.93	227.61
754.26	227.41
754.59	227.20
754.91	226.99
755.24	226.79
755.57	226.50
755.90	226.33
756.22	226.15
756.55	225.95
756.88	225.68
757.20	225.41
757.53	225.25
757.86	225.11
758.19	224.90
758.51	224.80
758.84	224.67
759.17	224.59
759.49	224.42
759.82	224.35
760.15	224.15
760.47	223.97
760.80	223.86
761.13	223.71
761.45	223.52
761.78	223.36
762.11	223.18
762.43	223.04
762.76	222.93
763.08	222.80
763.41	222.74
763.74	222.60
764.06	222.41
764.39	222.21
764.71	222.00
765.04	221.89
765.37	221.72
765.69	221.57
766.02	221.44
766.34	221.33
766.67	221.19
767.00	221.14
767.32	221.12
767.65	221.01
767.97	220.98
768.30	220.89
768.62	220.79
768.95	220.70
769.27	220.63
769.60	220.50
769.92	220.33
770.25	220.22
770.57	220.12
770.90	220.03
771.22	219.96
771.55	219.88
771.87	219.79
772.20	219.71
772.52	219.80
772.85	219.89
773.17	219.89
773.50	219.80
773.82	219.71
774.15	219.54
774.47	219.33
774.80	219.15
775.12	219.12
775.45	219.07
775.77	219.01
776.09	218.95
776.42	218.90
776.74	218.92
777.07	218.77
777.39	218.74
777.72	218.69
778.04	218.68
778.36	218.61
778.69	218.57
779.01	218.51
779.33	218.28
779.66	218.06
779.98	217.93
780.31	217.87
780.63	217.87
780.95	217.81
781.28	217.81
781.60	217.76
781.92	217.64
782.25	217.51
782.57	217.34
782.89	217.30
783.22	217.25
783.54	217.06
783.86	216.99
784.19	216.89
784.51	216.87
784.83	216.81
785.16	216.73
785.48	216.65
785.80	216.53
786.12	216.50
786.45	216.35
786.77	216.27
787.09	216.15
787.42	216.04
787.74	216.02
788.06	215.96
788.38	215.94
788.71	215.85
789.03	215.88
789.35	215.90
789.67	215.74
789.99	215.72
790.32	215.72
790.64	215.72
790.96	215.79
791.28	215.75
791.61	215.61
791.93	215.64
792.25	215.60
792.57	215.71
792.89	215.60
793.21	215.58
793.54	215.55
793.86	215.51
794.18	215.48
794.50	215.43
794.82	215.41
795.14	215.40
795.47	215.44
795.79	215.34
796.11	215.22
796.43	215.15
796.75	215.05
797.07	215.00
797.39	214.90
797.71	214.76
798.04	214.70
798.36	214.66
798.68	214.62
799.00	214.53
799.32	214.38
799.64	214.39
799.96	214.38
800.28	214.31
800.60	214.29
800.92	214.27
801.24	214.22
801.56	214.16
801.89	214.00
802.21	214.00
802.53	213.99
802.85	214.04
803.17	214.15
803.49	214.10
803.81	214.03
804.13	214.08
804.45	214.03
804.77	213.95
805.09	213.95
805.41	213.87
805.73	213.78
806.05	213.78
806.37	213.66
806.69	213.63
807.01	213.61
807.33	213.57
807.65	213.47
807.97	213.47
808.28	213.48
808.60	213.50
808.92	213.42
809.24	213.44
809.56	213.41
809.88	213.27
810.20	213.22
810.52	213.23
810.84	213.22
811.16	213.10
811.48	213.12
811.80	213.16
812.12	213.14
812.43	213.16
812.75	213.08
813.07	213.09
813.39	213.09
813.71	213.08
814.03	213.03
814.35	212.97
814.67	212.95
814.98	212.88
815.30	212.83
815.62	212.78
815.94	212.68
816.26	212.67
816.58	212.63
816.89	212.67
817.21	212.58
817.53	212.55
817.85	212.55
818.17	212.51
818.48	212.39
818.80	212.44
819.12	212.46
819.44	212.47
819.76	212.46
820.07	212.48
820.39	212.46
820.71	212.48
821.03	212.48
821.34	212.46
821.66	212.47
821.98	212.53
822.30	212.50
822.61	212.62
822.93	212.61
823.25	212.66
823.57	212.62
823.88	212.76
824.20	212.71
824.52	212.76
824.83	212.78
825.15	212.78
825.47	212.73
825.79	212.78
826.10	212.77
826.42	212.74
826.74	212.68
827.05	212.65
827.37	212.68
827.69	212.68
828.00	212.67
828.32	212.63
828.64	212.58
828.95	212.65
829.27	212.53
829.58	212.45
829.90	212.40
830.22	212.41
830.53	212.26
830.85	212.23
831.17	212.20
831.48	212.14
831.80	212.16
832.11	212.12
832.43	212.06
832.75	212.04
833.06	212.20
833.38	212.18
833.69	212.15
834.01	212.13
834.32	212.14
834.64	212.04
834.96	212.07
835.27	212.07
835.59	212.01
835.90	211.95
836.22	211.98
836.53	211.88
836.85	211.86
837.16	212.08
837.48	212.10
837.79	212.18
838.11	212.21
838.42	212.18
838.74	212.21
839.05	212.18
839.37	212.18
839.68	212.02
840.00	212.02
840.31	212.06
840.63	212.00
840.94	211.99
841.26	212.07
841.57	212.02
841.88	212.03
842.20	212.00
842.51	212.01
842.83	212.06
843.14	212.30
843.46	212.29
843.77	212.13
844.08	212.11
844.40	212.07
844.71	212.04
845.03	212.10
845.34	212.09
845.65	212.04
845.97	212.00
846.28	211.99
846.60	211.95
846.91	211.95
847.22	211.99
847.54	212.03
847.85	212.03
848.16	212.10
848.48	212.09
848.79	212.18
849.10	212.20
849.42	212.15
849.73	212.02
850.04	212.05
850.36	211.97
850.67	212.00
850.98	211.96
851.30	211.95
851.61	211.89
851.92	211.87
852.23	211.95
852.55	211.95
852.86	211.98
853.17	212.00
853.49	212.08
853.80	212.18
854.11	212.19
854.42	212.15
854.74	212.05
855.05	212.01
855.36	211.91
855.67	211.91
855.99	211.97
856.30	212.15
856.61	212.10
856.92	212.16
857.23	212.20
857.55	212.13
857.86	212.10
858.17	212.14
858.48	212.08
858.79	212.01
859.11	212.02
859.42	211.95
859.73	211.91
860.04	211.81
860.35	211.65
860.66	211.53
860.98	211.53
861.29	211.57
861.60	211.55
861.91	211.55
862.22	211.49
862.53	211.42
862.84	211.21
863.16	211.19
863.47	211.15
863.78	211.12
864.09	211.20
864.40	211.17
864.71	211.17
865.02	211.18
865.33	211.15
865.64	211.15
865.95	211.19
866.27	211.31
866.58	211.30
866.89	211.34
867.20	211.37
867.51	211.23
867.82	211.21
868.13	211.36
868.44	211.38
868.75	211.42
869.06	211.42
869.37	211.42
869.68	211.39
869.99	211.41
870.30	211.40
870.61	211.38
870.92	211.47
871.23	211.38
871.54	211.41
871.85	211.51
872.16	211.53
872.47	211.46
872.78	211.30
873.09	211.25
873.40	211.22
873.71	211.23
874.02	211.24
874.33	211.23
874.64	211.18
874.95	211.18
875.26	211.11
875.56	211.13
875.87	211.12
876.18	211.19
876.49	211.40
876.80	211.39
877.11	211.38
877.42	211.40
877.73	211.49
878.04	211.47
878.35	211.48
878.66	211.46
878.96	211.47
879.27	211.48
879.58	211.52
879.89	211.59
880.20	211.66
880.51	211.77
880.82	211.78
881.12	211.75
881.43	211.74
881.74	211.83
882.05	211.81
882.36	211.80
882.67	211.81
882.97	211.60
883.28	211.60
883.59	211.60
883.90	211.66
884.21	211.73
884.51	211.76
884.82	211.66
885.13	211.68
885.44	211.70
885.74	211.76
886.05	211.77
886.36	211.73
886.67	211.67
886.98	211.70
887.28	211.69
887.59	211.66
887.90	211.61
888.20	211.52
888.51	211.53
888.82	211.53
889.13	211.53
889.43	211.66
889.74	211.67
890.05	211.67
890.35	211.53
890.66	211.49
890.97	211.45
891.28	211.54
891.58	211.51
891.89	211.54
892.20	211.49
892.50	211.47
892.81	211.46
893.12	211.48
893.42	211.45
893.73	211.44
894.04	211.45
894.34	211.47
894.65	211.55
894.95	211.54
895.26	211.55
895.57	211.60
895.87	211.47
896.18	211.47
896.48	211.46
896.79	211.52
897.10	211.43
897.40	211.47
897.71	211.44
898.01	211.40
898.32	211.39
898.63	211.37
898.93	211.34
899.24	211.28
899.54	211.31
899.85	211.34
900.15	211.38
900.46	211.35
900.76	211.32
901.07	211.29
901.38	211.26
901.68	211.28
901.99	211.18
902.29	211.11
902.60	211.11
902.90	211.07
903.21	211.07
903.51	211.07
903.82	211.07
904.12	211.10
904.43	211.05
904.73	211.02
905.03	211.06
905.34	211.26
905.64	211.34
905.95	211.32
906.25	211.26
906.56	211.27
906.86	211.30
907.17	211.36
907.47	211.27
907.77	211.30
908.08	211.22
908.38	211.23
908.69	211.23
908.99	211.29
909.30	211.26
909.60	211.23
909.90	211.28
910.21	211.26
910.51	211.22
910.81	211.33
911.12	211.40
911.42	211.39
911.73	211.25
912.03	211.21
912.33	211.24
912.64	211.27
912.94	211.22
913.24	211.14
913.55	211.15
913.85	211.19
914.15	211.27
914.46	211.31
914.76	211.33
915.06	211.42
915.37	211.31
915.67	211.38
915.97	211.33
916.27	211.25
916.58	211.18
916.88	211.16
917.18	211.15
917.49	211.24
917.79	211.23
918.09	211.20
918.39	211.26
918.70	211.17
919.00	211.18
919.30	211.26
919.60	211.30
919.91	211.23
920.21	211.32
920.51	211.25
920.81	211.25
921.12	211.30
921.42	211.20
921.72	211.28
922.02	211.22
922.32	211.26
922.63	211.30
922.93	211.39
923.23	211.37
923.53	211.30
923.83	211.19
924.13	211.16
924.44	211.17
924.74	211.18
925.04	211.24
925.34	211.20
925.64	211.20
925.94	211.15
926.24	211.32
926.55	211.17
926.85	211.14
927.15	211.16
927.45	211.13
927.75	211.15
928.05	211.14
928.35	211.13
928.65	211.20
928.95	211.18
929.26	211.10
929.56	211.18
929.86	211.25
930.16	211.20
930.46	211.26
930.76	211.28
931.06	211.18
931.36	211.15
931.66	211.18
931.96	211.15
932.26	211.26
932.56	211.13
932.86	211.20
933.16	211.28
933.46	211.21
933.76	211.23
934.06	211.30
934.36	211.29
934.66	211.28
934.96	211.27
935.26	211.30
935.56	211.35
935.86	211.33
936.16	211.29
936.46	211.30
936.76	211.30
937.06	211.27
937.36	211.34
937.66	211.37
937.96	211.38
938.26	211.35
938.56	211.33
938.86	211.38
939.16	211.41
939.46	211.28
939.76	211.26
940.06	211.25
940.35	211.18
940.65	211.10
940.95	211.18
941.25	211.06
941.55	211.07
941.85	211.05
942.15	211.01
942.45	211.00
942.75	210.94
943.04	210.94
943.34	210.97
943.64	210.93
943.94	210.82
944.24	210.78
944.54	210.83
944.84	210.76
945.13	210.74
945.43	210.72
945.73	210.77
946.03	210.82
946.33	210.76
946.62	210.76
946.92	210.81
947.22	210.80
947.52	210.87
947.82	210.88
948.11	210.87
948.41	210.91
948.71	210.89
949.01	211.02
949.31	210.96
949.60	210.99
949.90	211.03
950.20	211.08
950.50	211.07
950.79	211.00
951.09	211.02
951.39	210.98
951.69	210.97
951.98	211.06
952.28	211.09
952.58	211.04
952.87	211.13
953.17	211.13
953.47	211.11
953.76	211.09
954.06	211.07
954.36	211.09
954.66	211.07
954.95	211.19
955.25	211.08
955.55	211.08
955.84	210.98
956.14	210.96
956.44	210.90
956.73	210.94
957.03	211.00
957.32	211.05
957.62	211.17
957.92	211.20
958.21	211.15
958.51	211.34
958.81	211.47
959.10	211.43
959.40	211.53
959.69	211.55
959.99	211.65
960.29	211.67
960.58	211.64
960.88	211.66
961.17	211.55
961.47	211.66
961.76	211.68
962.06	211.73
962.36	211.75
962.65	211.94
962.95	211.92
963.24	211.87
963.54	211.83
963.83	211.72
964.13	211.70
964.42	211.66
964.72	211.52
965.01	211.53
965.31	211.51
965.60	211.44
965.90	211.56
966.19	211.49
966.49	211.49
966.78	211.48
967.08	211.44
967.37	211.43
967.67	211.37
967.96	211.41
968.26	211.43
968.55	211.44
968.85	211.32
969.14	211.29
969.43	211.27
969.73	211.34
970.02	211.38
970.32	211.39
970.61	211.36
970.91	211.24
971.20	211.16
971.49	211.13
971.79	211.13
972.08	210.99
972.38	211.02
972.67	211.04
972.96	211.09
973.26	211.07
973.55	211.25
973.85	211.23
974.14	211.26
974.43	211.23
974.73	211.19
975.02	211.17
975.31	211.23
975.61	211.21
975.90	211.10
976.19	211.07
976.49	211.05
976.78	211.13
977.07	211.17
977.37	211.16
977.66	211.18
977.95	211.14
978.24	211.15
978.54	211.14
978.83	211.12
979.12	211.09
979.42	211.10
979.71	210.96
980.00	210.92
980.29	210.91
980.59	210.87
980.88	210.94
981.17	210.93
981.46	210.83
981.76	210.89
982.05	211.02
982.34	211.05
982.63	211.05
982.93	210.99
983.22	210.96
983.51	210.97
983.80	210.99
984.09	211.01
984.39	210.99
984.68	210.95
984.97	210.94
985.26	210.93
985.55	210.93
985.85	210.95
986.14	211.00
986.43	210.91
986.72	210.92
987.01	210.79
987.30	210.76
987.59	210.80
987.89	210.74
988.18	210.60
988.47	210.57
988.76	210.55
989.05	210.52
989.34	210.58
989.63	210.61
989.92	210.55
990.22	210.59
990.51	210.65
990.80	210.70
991.09	210.70
991.38	210.72
991.67	210.73
991.96	210.66
992.25	210.69
992.54	210.70
992.83	210.74
993.12	210.75
993.41	210.84
993.70	210.96
993.99	211.01
994.28	211.06
994.58	211.04
994.87	211.08
995.16	211.14
995.45	211.20
995.74	211.11
996.03	211.19
996.32	211.21
996.61	211.17
996.90	211.15
997.19	211.16
997.48	211.14
997.77	211.15
998.06	211.16
998.34	211.15
998.63	211.17
998.92	211.18
999.21	211.28
999.50	211.24
999.79	211.14
1000.08	211.19
1000.37	211.17
1000.66	211.17
1000.95	211.18
1001.24	211.17
1001.53	211.09
1001.82	211.12
1002.11	211.06
1002.40	211.06
1002.68	211.07
1002.97	211.18
1003.26	211.18
1003.55	211.16
1003.84	211.12
1004.13	211.26
1004.42	211.22
1004.71	211.24
1004.99	211.25
1005.28	211.26
1005.57	211.28
1005.86	211.26
1006.15	211.15
1006.44	211.13
1006.72	211.16
1007.01	211.14
1007.30	211.16
1007.59	211.16
1007.88	211.15
1008.17	211.14
1008.45	211.06
1008.74	211.05
1009.03	210.91
1009.32	210.92
1009.60	210.90
1009.89	210.91
1010.18	210.80
1010.47	210.86
1010.76	210.81
1011.04	210.80
1011.33	210.78
1011.62	210.83
1011.91	210.77
1012.19	210.81
1012.48	210.88
1012.77	210.91
1013.05	210.85
1013.34	210.84
1013.63	210.86
1013.92	210.92
1014.20	210.98
1014.49	211.00
1014.78	210.96
1015.06	210.95
1015.35	210.94
1015.64	210.96
1015.92	211.00
1016.21	210.98
1016.50	210.93
1016.78	210.96
1017.07	210.90
1017.36	210.81
1017.64	210.75
1017.93	210.81
1018.22	210.80
1018.50	210.78
1018.79	210.74
1019.08	210.70
1019.36	210.68
1019.65	210.62
1019.93	210.57
1020.22	210.55
1020.51	210.69
1020.79	210.68
1021.08	210.70
1021.36	210.95
1021.65	210.80
1021.94	209.45
1022.22	210.75
1022.51	209.85
1022.79	210.25
1023.08	211.00
1023.36	213.65
1023.65	210.10
>>>>>End Processed Spectral Data<<<<<
