SpectraSuite Data File
++++++++++++++++++++++++++++++++++++
Date: Mon Feb 25 17:32:47 EST 2013
User: group
Dark Spectrum Present: No
Reference Spectrum Present: No
Number of Sampled Component Spectra: 1
Spectrometers: USB2E7196
Integration Time (usec): 52000 (USB2E7196)
Spectra Averaged: 20 (USB2E7196)
Boxcar Smoothing: 10 (USB2E7196)
Correct for Electrical Dark: No (USB2E7196)
Strobe/Lamp Enabled: No (USB2E7196)
Correct for Detector Non-linearity: No (USB2E7196)
Correct for Stray Light: No (USB2E7196)
Number of Pixels in Processed Spectrum: 2048
>>>>>Begin Processed Spectral Data<<<<<
339.09	0.00
339.48	198.50
339.86	199.75
340.24	201.80
340.63	203.90
341.01	207.50
341.39	204.55
341.78	207.30
342.16	208.55
342.54	208.10
342.93	197.85
343.31	207.89
343.69	208.45
344.07	208.94
344.46	209.35
344.84	209.68
345.22	209.81
345.60	210.16
345.99	210.30
346.37	210.39
346.75	210.51
347.13	210.56
347.52	210.60
347.90	210.75
348.28	210.78
348.66	210.84
349.05	210.86
349.43	210.94
349.81	210.99
350.19	210.99
350.57	211.12
350.96	211.28
351.34	211.31
351.72	211.43
352.10	211.55
352.48	211.57
352.87	211.70
353.25	211.88
353.63	211.98
354.01	212.11
354.39	212.23
354.77	212.29
355.15	212.43
355.54	212.53
355.92	212.58
356.30	212.65
356.68	212.86
357.06	212.90
357.44	213.00
357.82	213.09
358.20	213.21
358.58	213.28
358.97	213.35
359.35	213.46
359.73	213.54
360.11	213.57
360.49	213.73
360.87	213.74
361.25	213.76
361.63	213.83
362.01	213.89
362.39	213.95
362.77	214.11
363.15	214.18
363.53	214.26
363.91	214.36
364.29	214.43
364.67	214.25
365.05	214.27
365.43	214.33
365.81	214.35
366.19	214.37
366.57	214.45
366.95	214.45
367.33	214.43
367.71	214.45
368.09	214.50
368.47	214.51
368.85	214.55
369.23	214.55
369.61	214.47
369.99	214.48
370.37	214.44
370.75	214.43
371.13	214.39
371.51	214.35
371.89	214.28
372.27	214.25
372.65	214.30
373.03	214.28
373.41	214.17
373.78	214.18
374.16	214.12
374.54	214.08
374.92	214.05
375.30	214.05
375.68	213.98
376.06	213.88
376.44	213.85
376.82	213.82
377.19	213.77
377.57	213.72
377.95	213.67
378.33	213.60
378.71	213.50
379.09	213.47
379.47	213.47
379.84	213.36
380.22	213.29
380.60	213.19
380.98	213.15
381.36	213.10
381.73	212.97
382.11	212.95
382.49	212.91
382.87	212.78
383.25	212.70
383.62	212.76
384.00	212.73
384.38	212.61
384.76	212.54
385.13	212.54
385.51	212.46
385.89	212.36
386.27	212.39
386.64	212.35
387.02	212.23
387.40	212.12
387.78	212.10
388.15	212.10
388.53	212.06
388.91	211.97
389.29	211.99
389.66	211.99
390.04	211.93
390.42	211.85
390.79	211.84
391.17	211.84
391.55	211.70
391.92	211.69
392.30	211.77
392.68	211.69
393.05	211.68
393.43	211.72
393.81	211.72
394.18	211.68
394.56	211.64
394.94	211.70
395.31	211.68
395.69	211.81
396.06	211.80
396.44	211.82
396.82	211.85
397.19	211.90
397.57	211.88
397.95	211.90
398.32	211.84
398.70	211.93
399.07	211.97
399.45	212.01
399.82	212.04
400.20	212.02
400.58	212.05
400.95	211.97
401.33	212.00
401.70	212.18
402.08	212.22
402.45	212.31
402.83	212.45
403.20	212.50
403.58	212.48
403.95	212.61
404.33	212.70
404.71	212.84
405.08	213.03
405.46	213.19
405.83	213.34
406.21	213.55
406.58	213.69
406.96	213.81
407.33	213.96
407.70	214.12
408.08	214.44
408.45	214.78
408.83	215.03
409.20	215.33
409.58	215.46
409.95	215.81
410.33	216.20
410.70	216.49
411.08	216.89
411.45	217.25
411.82	217.57
412.20	218.02
412.57	218.59
412.95	218.84
413.32	219.37
413.69	219.86
414.07	220.40
414.44	220.95
414.82	221.66
415.19	222.31
415.56	223.03
415.94	223.72
416.31	224.54
416.68	225.43
417.06	226.40
417.43	227.44
417.81	228.46
418.18	229.45
418.55	230.64
418.93	231.91
419.30	233.17
419.67	234.60
420.04	235.99
420.42	237.34
420.79	239.20
421.16	240.88
421.54	242.78
421.91	244.64
422.28	246.66
422.66	248.68
423.03	250.85
423.40	252.92
423.77	255.10
424.15	257.35
424.52	259.72
424.89	262.35
425.26	264.74
425.64	267.14
426.01	269.73
426.38	272.42
426.75	275.15
427.13	278.10
427.50	281.01
427.87	284.10
428.24	287.24
428.61	290.20
428.99	293.43
429.36	296.87
429.73	300.35
430.10	303.72
430.47	307.24
430.85	310.83
431.22	314.79
431.59	318.88
431.96	322.75
432.33	327.08
432.70	331.18
433.08	336.10
433.45	340.63
433.82	345.15
434.19	350.24
434.56	355.16
434.93	359.85
435.30	364.57
435.68	369.86
436.05	374.94
436.42	379.91
436.79	384.54
437.16	389.59
437.53	394.98
437.90	400.18
438.27	405.45
438.64	410.86
439.01	415.80
439.38	420.25
439.75	424.44
440.13	429.33
440.50	433.87
440.87	437.67
441.24	441.55
441.61	445.82
441.98	448.89
442.35	452.59
442.72	456.13
443.09	459.70
443.46	461.74
443.83	463.14
444.20	464.35
444.57	466.16
444.94	466.91
445.31	467.66
445.68	468.46
446.05	468.53
446.42	467.80
446.79	467.09
447.16	466.18
447.53	465.67
447.90	463.52
448.27	461.36
448.64	458.29
449.01	456.14
449.37	452.56
449.74	449.12
450.11	444.91
450.48	440.43
450.85	435.90
451.22	432.02
451.59	428.36
451.96	424.78
452.33	420.11
452.70	415.75
453.07	410.49
453.43	405.25
453.80	400.24
454.17	395.50
454.54	390.97
454.91	386.27
455.28	381.53
455.65	377.09
456.02	372.80
456.38	369.13
456.75	364.55
457.12	360.75
457.49	356.81
457.86	353.07
458.23	350.04
458.59	346.55
458.96	342.98
459.33	339.82
459.70	336.75
460.07	334.13
460.43	331.30
460.80	328.74
461.17	326.42
461.54	323.93
461.91	321.64
462.27	319.17
462.64	317.03
463.01	314.73
463.38	312.63
463.74	310.35
464.11	308.42
464.48	306.83
464.85	305.01
465.21	303.67
465.58	302.23
465.95	300.52
466.32	299.10
466.68	297.68
467.05	296.25
467.42	294.83
467.78	293.42
468.15	292.01
468.52	290.91
468.88	289.67
469.25	288.60
469.62	287.58
469.98	286.64
470.35	285.78
470.72	285.03
471.08	284.08
471.45	283.35
471.82	282.63
472.18	281.75
472.55	281.05
472.92	280.32
473.28	279.75
473.65	279.08
474.02	278.43
474.38	277.95
474.75	277.55
475.11	277.19
475.48	276.96
475.85	276.83
476.21	276.69
476.58	276.52
476.94	276.53
477.31	276.47
477.67	276.43
478.04	276.42
478.41	276.59
478.77	276.90
479.14	277.08
479.50	277.35
479.87	277.63
480.23	278.05
480.60	278.36
480.96	278.80
481.33	279.49
481.69	280.18
482.06	280.76
482.42	281.45
482.79	282.21
483.15	283.05
483.52	284.08
483.88	284.95
484.25	285.95
484.61	287.04
484.98	288.15
485.34	289.46
485.71	290.92
486.07	292.17
486.44	293.48
486.80	294.94
487.17	296.44
487.53	298.31
487.90	300.10
488.26	302.17
488.62	304.22
488.99	306.23
489.35	308.23
489.72	310.64
490.08	312.96
490.44	315.35
490.81	318.03
491.17	320.58
491.54	323.55
491.90	326.54
492.26	329.67
492.63	333.04
492.99	336.43
493.36	340.02
493.72	344.04
494.08	348.05
494.45	352.30
494.81	356.89
495.17	361.39
495.54	366.35
495.90	371.35
496.26	376.56
496.63	382.09
496.99	388.03
497.35	393.98
497.72	400.39
498.08	406.84
498.44	413.37
498.80	420.57
499.17	428.12
499.53	435.80
499.89	443.75
500.26	451.80
500.62	460.12
500.98	468.99
501.34	478.00
501.71	487.37
502.07	497.16
502.43	507.16
502.79	517.44
503.16	528.11
503.52	538.91
503.88	550.03
504.24	561.51
504.60	573.36
504.97	585.65
505.33	598.07
505.69	611.53
506.05	625.14
506.41	638.67
506.78	652.21
507.14	666.44
507.50	680.97
507.86	695.94
508.22	711.29
508.59	726.70
508.95	742.51
509.31	758.87
509.67	775.58
510.03	792.50
510.39	809.98
510.75	827.67
511.12	845.81
511.48	864.15
511.84	882.74
512.20	901.33
512.56	920.40
512.92	939.95
513.28	959.50
513.64	979.18
514.00	999.19
514.37	1019.57
514.73	1040.09
515.09	1061.05
515.45	1081.95
515.81	1103.11
516.17	1124.69
516.53	1146.11
516.89	1167.48
517.25	1188.77
517.61	1210.68
517.97	1232.10
518.33	1253.65
518.69	1275.43
519.05	1297.78
519.41	1319.81
519.77	1342.49
520.13	1364.65
520.49	1386.62
520.85	1409.05
521.21	1431.57
521.57	1454.30
521.93	1476.51
522.29	1499.53
522.65	1521.72
523.01	1544.35
523.37	1566.46
523.73	1588.77
524.09	1610.85
524.45	1633.24
524.81	1655.60
525.17	1677.85
525.53	1700.20
525.89	1722.82
526.25	1744.60
526.61	1765.51
526.97	1787.27
527.33	1808.47
527.68	1830.08
528.04	1851.37
528.40	1871.56
528.76	1892.17
529.12	1912.91
529.48	1934.50
529.84	1954.69
530.20	1975.08
530.56	1995.43
530.91	2016.30
531.27	2036.28
531.63	2056.33
531.99	2076.13
532.35	2095.44
532.71	2114.38
533.07	2133.75
533.42	2151.63
533.78	2170.92
534.14	2189.53
534.50	2206.35
534.86	2224.40
535.21	2241.30
535.57	2258.85
535.93	2276.20
536.29	2292.93
536.65	2309.52
537.00	2324.69
537.36	2339.86
537.72	2355.09
538.08	2370.15
538.44	2385.26
538.79	2400.76
539.15	2415.82
539.51	2430.25
539.87	2445.96
540.22	2460.45
540.58	2475.28
540.94	2490.09
541.29	2502.61
541.65	2515.02
542.01	2528.55
542.37	2540.24
542.72	2551.94
543.08	2562.86
543.44	2574.63
543.79	2584.95
544.15	2594.90
544.51	2605.67
544.87	2616.97
545.22	2626.66
545.58	2635.34
545.94	2642.53
546.29	2648.83
546.65	2655.38
547.01	2661.55
547.36	2666.72
547.72	2672.19
548.07	2676.16
548.43	2679.90
548.79	2683.92
549.14	2688.58
549.50	2692.89
549.86	2696.71
550.21	2700.85
550.57	2705.11
550.92	2707.78
551.28	2710.57
551.64	2713.36
551.99	2716.01
552.35	2717.33
552.70	2719.53
553.06	2722.14
553.41	2725.08
553.77	2728.06
554.13	2730.14
554.48	2732.24
554.84	2733.70
555.19	2734.12
555.55	2734.88
555.90	2735.66
556.26	2736.17
556.61	2735.89
556.97	2734.42
557.32	2734.06
557.68	2732.26
558.03	2730.84
558.39	2729.19
558.74	2728.81
559.10	2727.64
559.45	2725.79
559.81	2724.51
560.16	2721.78
560.52	2719.25
560.87	2716.17
561.23	2712.27
561.58	2709.60
561.94	2706.84
562.29	2703.29
562.64	2701.08
563.00	2698.30
563.35	2695.71
563.71	2693.92
564.06	2691.92
564.42	2690.59
564.77	2687.96
565.12	2686.37
565.48	2683.26
565.83	2680.59
566.19	2677.14
566.54	2672.74
566.89	2668.93
567.25	2664.97
567.60	2661.79
567.96	2657.86
568.31	2654.69
568.66	2650.73
569.02	2646.25
569.37	2640.68
569.72	2636.73
570.08	2631.53
570.43	2625.88
570.78	2620.19
571.14	2613.82
571.49	2607.02
571.84	2600.84
572.20	2594.07
572.55	2587.83
572.90	2580.93
573.26	2573.74
573.61	2566.90
573.96	2560.59
574.31	2552.63
574.67	2545.00
575.02	2536.86
575.37	2528.71
575.72	2519.64
576.08	2512.41
576.43	2503.30
576.78	2495.83
577.13	2487.61
577.49	2479.35
577.84	2471.73
578.19	2464.30
578.54	2456.94
578.90	2450.17
579.25	2441.40
579.60	2432.20
579.95	2422.48
580.30	2414.59
580.66	2406.41
581.01	2397.18
581.36	2387.61
581.71	2379.73
582.06	2371.07
582.42	2362.54
582.77	2353.47
583.12	2344.59
583.47	2335.65
583.82	2327.41
584.17	2317.76
584.53	2308.75
584.88	2299.82
585.23	2290.66
585.58	2280.82
585.93	2270.97
586.28	2261.67
586.63	2252.68
586.98	2244.93
587.34	2236.80
587.69	2227.49
588.04	2218.45
588.39	2210.37
588.74	2201.43
589.09	2192.32
589.44	2182.79
589.79	2174.52
590.14	2166.37
590.49	2157.89
590.84	2148.97
591.19	2141.23
591.54	2132.74
591.89	2122.68
592.25	2113.85
592.60	2104.53
592.95	2095.38
593.30	2086.04
593.65	2076.05
594.00	2066.61
594.35	2057.85
594.70	2048.63
595.05	2039.92
595.40	2031.24
595.75	2021.56
596.10	2013.49
596.45	2005.12
596.80	1997.57
597.15	1989.13
597.50	1980.06
597.85	1971.67
598.19	1963.11
598.54	1954.39
598.89	1946.52
599.24	1939.82
599.59	1932.39
599.94	1925.06
600.29	1917.43
600.64	1909.72
600.99	1901.62
601.34	1894.38
601.69	1885.78
602.04	1877.58
602.39	1869.59
602.74	1861.64
603.08	1854.86
603.43	1847.80
603.78	1839.75
604.13	1831.50
604.48	1823.64
604.83	1816.99
605.18	1810.14
605.53	1802.50
605.87	1794.86
606.22	1787.63
606.57	1779.60
606.92	1771.29
607.27	1763.37
607.62	1756.16
607.96	1749.27
608.31	1743.01
608.66	1735.19
609.01	1727.69
609.36	1719.88
609.70	1712.00
610.05	1704.46
610.40	1696.13
610.75	1687.44
611.10	1679.57
611.44	1670.45
611.79	1661.13
612.14	1651.42
612.49	1641.70
612.83	1632.77
613.18	1623.22
613.53	1614.10
613.88	1604.34
614.22	1595.48
614.57	1586.18
614.92	1576.44
615.27	1566.80
615.61	1557.15
615.96	1548.22
616.31	1539.85
616.65	1532.29
617.00	1523.82
617.35	1515.28
617.70	1506.46
618.04	1497.50
618.39	1488.21
618.74	1479.87
619.08	1471.50
619.43	1463.51
619.78	1455.70
620.12	1447.66
620.47	1439.90
620.82	1431.22
621.16	1423.17
621.51	1414.68
621.85	1406.70
622.20	1398.47
622.55	1390.28
622.89	1381.94
623.24	1374.03
623.59	1365.42
623.93	1356.84
624.28	1348.48
624.62	1340.24
624.97	1332.21
625.32	1324.32
625.66	1317.06
626.01	1309.64
626.35	1302.30
626.70	1294.67
627.04	1287.54
627.39	1280.16
627.73	1272.67
628.08	1265.79
628.43	1258.39
628.77	1250.95
629.12	1243.43
629.46	1236.78
629.81	1229.46
630.15	1222.05
630.50	1214.54
630.84	1207.23
631.19	1199.81
631.53	1192.94
631.88	1185.43
632.22	1177.80
632.57	1171.06
632.91	1163.51
633.26	1156.26
633.60	1149.09
633.95	1142.26
634.29	1134.54
634.64	1127.83
634.98	1120.74
635.32	1113.51
635.67	1107.09
636.01	1100.79
636.36	1094.14
636.70	1087.39
637.05	1081.06
637.39	1075.08
637.73	1068.83
638.08	1063.14
638.42	1057.48
638.77	1051.17
639.11	1044.74
639.45	1038.76
639.80	1032.08
640.14	1025.58
640.49	1019.22
640.83	1012.90
641.17	1006.35
641.52	1000.25
641.86	993.63
642.20	987.38
642.55	980.84
642.89	974.28
643.23	967.56
643.58	961.62
643.92	955.15
644.26	948.65
644.61	942.25
644.95	936.31
645.29	929.80
645.64	923.20
645.98	916.94
646.32	910.95
646.66	904.74
647.01	898.92
647.35	893.15
647.69	887.03
648.04	881.18
648.38	875.43
648.72	869.51
649.06	863.41
649.41	857.52
649.75	851.78
650.09	845.87
650.43	840.23
650.78	833.84
651.12	827.85
651.46	822.19
651.80	816.39
652.14	810.35
652.49	804.51
652.83	798.56
653.17	792.53
653.51	786.69
653.85	781.29
654.20	775.50
654.54	769.86
654.88	764.45
655.22	758.69
655.56	752.59
655.90	746.74
656.25	741.11
656.59	735.44
656.93	730.21
657.27	725.26
657.61	719.77
657.95	714.67
658.29	709.44
658.64	704.38
658.98	699.15
659.32	693.73
659.66	688.57
660.00	683.23
660.34	678.09
660.68	672.99
661.02	667.77
661.36	662.91
661.70	658.11
662.05	653.32
662.39	648.89
662.73	644.85
663.07	640.64
663.41	636.26
663.75	631.86
664.09	627.09
664.43	622.15
664.77	617.83
665.11	613.49
665.45	609.25
665.79	604.71
666.13	600.35
666.47	596.29
666.81	592.16
667.15	588.25
667.49	584.38
667.83	580.45
668.17	576.51
668.51	572.72
668.85	568.87
669.19	565.16
669.53	561.07
669.87	556.89
670.21	552.89
670.55	549.10
670.89	545.48
671.23	542.29
671.57	538.88
671.91	535.30
672.25	531.74
672.58	528.36
672.92	524.87
673.26	521.74
673.60	518.50
673.94	515.22
674.28	511.81
674.62	508.69
674.96	505.64
675.30	502.56
675.64	499.29
675.97	496.23
676.31	493.18
676.65	490.31
676.99	487.61
677.33	484.70
677.67	481.75
678.01	478.80
678.34	475.62
678.68	472.85
679.02	469.83
679.36	467.04
679.70	464.10
680.04	461.31
680.37	458.21
680.71	455.45
681.05	452.77
681.39	450.15
681.73	447.39
682.06	444.84
682.40	442.32
682.74	439.75
683.08	437.20
683.42	434.43
683.75	431.97
684.09	429.40
684.43	426.91
684.77	424.48
685.10	421.93
685.44	419.48
685.78	416.89
686.12	414.67
686.45	412.28
686.79	409.97
687.13	407.89
687.46	405.79
687.80	403.44
688.14	401.12
688.48	399.01
688.81	396.80
689.15	394.53
689.49	392.25
689.82	390.05
690.16	387.67
690.50	385.55
690.83	383.26
691.17	381.03
691.51	378.83
691.84	376.72
692.18	374.70
692.52	372.81
692.85	370.99
693.19	369.10
693.52	367.18
693.86	365.19
694.20	363.31
694.53	361.33
694.87	359.38
695.21	357.50
695.54	355.51
695.88	353.66
696.21	351.75
696.55	349.98
696.88	348.25
697.22	346.62
697.56	345.05
697.89	343.41
698.23	341.88
698.56	340.26
698.90	338.68
699.23	337.04
699.57	335.50
699.90	333.87
700.24	332.22
700.58	330.65
700.91	329.18
701.25	327.66
701.58	326.32
701.92	324.90
702.25	323.55
702.59	322.11
702.92	320.78
703.26	319.51
703.59	318.26
703.93	317.04
704.26	315.84
704.60	314.53
704.93	313.25
705.26	311.99
705.60	310.80
705.93	309.52
706.27	308.43
706.60	307.25
706.94	306.17
707.27	305.02
707.61	303.92
707.94	302.86
708.27	301.61
708.61	300.47
708.94	299.41
709.28	298.28
709.61	297.26
709.94	296.19
710.28	295.13
710.61	294.00
710.95	292.87
711.28	291.89
711.61	290.84
711.95	289.95
712.28	288.89
712.61	288.01
712.95	287.19
713.28	286.28
713.61	285.22
713.95	284.28
714.28	283.45
714.61	282.44
714.95	281.43
715.28	280.55
715.61	279.55
715.95	278.54
716.28	277.65
716.61	276.81
716.95	275.94
717.28	275.08
717.61	274.36
717.94	273.60
718.28	272.70
718.61	271.91
718.94	271.10
719.27	270.33
719.61	269.50
719.94	268.73
720.27	267.94
720.60	267.29
720.94	266.50
721.27	265.80
721.60	265.19
721.93	264.61
722.27	263.89
722.60	263.43
722.93	262.94
723.26	262.40
723.59	261.81
723.93	261.26
724.26	260.73
724.59	260.07
724.92	259.48
725.25	258.96
725.59	258.45
725.92	257.93
726.25	257.45
726.58	256.98
726.91	256.38
727.24	255.91
727.57	255.40
727.91	254.85
728.24	254.31
728.57	253.82
728.90	253.37
729.23	252.96
729.56	252.49
729.89	251.93
730.22	251.47
730.55	251.00
730.89	250.54
731.22	250.00
731.55	249.54
731.88	249.09
732.21	248.66
732.54	248.18
732.87	247.78
733.20	247.26
733.53	246.79
733.86	246.45
734.19	245.92
734.52	245.57
734.85	245.35
735.18	244.99
735.51	244.67
735.84	244.19
736.17	243.90
736.50	243.44
736.83	243.25
737.16	242.83
737.49	242.50
737.82	242.05
738.15	241.74
738.48	241.44
738.81	241.16
739.14	240.70
739.47	240.29
739.80	239.90
740.13	239.64
740.46	239.23
740.79	238.88
741.12	238.61
741.45	238.28
741.78	237.85
742.11	237.57
742.44	237.22
742.77	237.01
743.10	236.65
743.43	236.32
743.75	235.93
744.08	235.87
744.41	235.45
744.74	235.17
745.07	234.84
745.40	234.54
745.73	234.25
746.06	234.00
746.39	233.80
746.71	233.51
747.04	233.17
747.37	232.86
747.70	232.62
748.03	232.31
748.36	232.03
748.68	231.84
749.01	231.58
749.34	231.34
749.67	231.07
750.00	230.84
750.33	230.73
750.65	230.45
750.98	230.00
751.31	229.84
751.64	229.66
751.97	229.57
752.29	229.35
752.62	229.02
752.95	228.80
753.28	228.59
753.60	228.33
753.93	228.21
754.26	228.11
754.59	227.84
754.91	227.66
755.24	227.42
755.57	227.12
755.90	226.89
756.22	226.62
756.55	226.28
756.88	226.01
757.20	225.69
757.53	225.45
757.86	225.25
758.19	225.15
758.51	224.94
758.84	224.67
759.17	224.52
759.49	224.37
759.82	224.35
760.15	224.17
760.47	224.05
760.80	223.83
761.13	223.71
761.45	223.58
761.78	223.38
762.11	223.31
762.43	223.20
762.76	223.04
763.08	222.97
763.41	222.93
763.74	222.85
764.06	222.73
764.39	222.64
764.71	222.53
765.04	222.28
765.37	222.20
765.69	222.04
766.02	221.87
766.34	221.77
766.67	221.49
767.00	221.39
767.32	221.37
767.65	221.34
767.97	221.22
768.30	221.08
768.62	221.03
768.95	220.86
769.27	220.80
769.60	220.66
769.92	220.58
770.25	220.44
770.57	220.31
770.90	220.25
771.22	220.15
771.55	219.99
771.87	219.90
772.20	219.82
772.52	219.86
772.85	220.01
773.17	219.95
773.50	219.92
773.82	219.77
774.15	219.58
774.47	219.40
774.80	219.21
775.12	219.10
775.45	218.99
775.77	218.98
776.09	218.89
776.42	218.80
776.74	218.69
777.07	218.66
777.39	218.55
777.72	218.47
778.04	218.41
778.36	218.37
778.69	218.40
779.01	218.33
779.33	218.07
779.66	217.84
779.98	217.75
780.31	217.69
780.63	217.72
780.95	217.68
781.28	217.56
781.60	217.56
781.92	217.51
782.25	217.45
782.57	217.31
782.89	217.22
783.22	217.18
783.54	217.09
783.86	217.02
784.19	216.97
784.51	216.94
784.83	216.84
785.16	216.77
785.48	216.62
785.80	216.58
786.12	216.56
786.45	216.43
786.77	216.37
787.09	216.29
787.42	216.17
787.74	216.09
788.06	216.01
788.38	215.91
788.71	215.80
789.03	215.75
789.35	215.69
789.67	215.68
789.99	215.68
790.32	215.59
790.64	215.55
790.96	215.66
791.28	215.55
791.61	215.51
791.93	215.47
792.25	215.47
792.57	215.52
792.89	215.52
793.21	215.47
793.54	215.45
793.86	215.40
794.18	215.36
794.50	215.32
794.82	215.35
795.14	215.35
795.47	215.37
795.79	215.28
796.11	215.24
796.43	215.15
796.75	215.08
797.07	215.05
797.39	214.98
797.71	214.75
798.04	214.68
798.36	214.64
798.68	214.59
799.00	214.58
799.32	214.49
799.64	214.39
799.96	214.33
800.28	214.22
800.60	214.24
800.92	214.15
801.24	214.07
801.56	214.04
801.89	213.96
802.21	213.93
802.53	213.95
802.85	213.98
803.17	213.96
803.49	213.89
803.81	213.93
804.13	213.93
804.45	213.95
804.77	213.99
805.09	214.00
805.41	213.97
805.73	213.88
806.05	213.79
806.37	213.80
806.69	213.80
807.01	213.85
807.33	213.81
807.65	213.77
807.97	213.87
808.28	213.80
808.60	213.79
808.92	213.80
809.24	213.83
809.56	213.76
809.88	213.69
810.20	213.69
810.52	213.72
810.84	213.65
811.16	213.60
811.48	213.58
811.80	213.57
812.12	213.58
812.43	213.61
812.75	213.55
813.07	213.50
813.39	213.50
813.71	213.45
814.03	213.41
814.35	213.43
814.67	213.35
814.98	213.29
815.30	213.28
815.62	213.23
815.94	213.08
816.26	213.05
816.58	213.08
816.89	213.12
817.21	213.00
817.53	213.02
817.85	212.99
818.17	212.86
818.48	212.77
818.80	212.77
819.12	212.68
819.44	212.66
819.76	212.57
820.07	212.56
820.39	212.48
820.71	212.46
821.03	212.42
821.34	212.40
821.66	212.48
821.98	212.55
822.30	212.51
822.61	212.65
822.93	212.60
823.25	212.57
823.57	212.51
823.88	212.62
824.20	212.64
824.52	212.70
824.83	212.71
825.15	212.74
825.47	212.64
825.79	212.69
826.10	212.73
826.42	212.81
826.74	212.82
827.05	212.86
827.37	212.80
827.69	212.81
828.00	212.85
828.32	212.79
828.64	212.67
828.95	212.80
829.27	212.74
829.58	212.85
829.90	212.83
830.22	212.76
830.53	212.65
830.85	212.61
831.17	212.57
831.48	212.59
831.80	212.61
832.11	212.60
832.43	212.54
832.75	212.47
833.06	212.52
833.38	212.45
833.69	212.51
834.01	212.54
834.32	212.50
834.64	212.40
834.96	212.50
835.27	212.55
835.59	212.43
835.90	212.35
836.22	212.27
836.53	212.21
836.85	212.28
837.16	212.45
837.48	212.40
837.79	212.44
838.11	212.50
838.42	212.45
838.74	212.47
839.05	212.48
839.37	212.44
839.68	212.33
840.00	212.35
840.31	212.25
840.63	212.31
840.94	212.35
841.26	212.35
841.57	212.25
841.88	212.27
842.20	212.26
842.51	212.28
842.83	212.29
843.14	212.51
843.46	212.46
843.77	212.36
844.08	212.38
844.40	212.38
844.71	212.30
845.03	212.32
845.34	212.34
845.65	212.31
845.97	212.38
846.28	212.44
846.60	212.41
846.91	212.41
847.22	212.38
847.54	212.40
847.85	212.37
848.16	212.34
848.48	212.27
848.79	212.35
849.10	212.34
849.42	212.30
849.73	212.13
850.04	212.11
850.36	212.02
850.67	212.08
850.98	212.02
851.30	211.97
851.61	211.86
851.92	211.78
852.23	211.82
852.55	211.79
852.86	211.77
853.17	211.71
853.49	211.81
853.80	211.81
854.11	211.75
854.42	211.78
854.74	211.77
855.05	211.73
855.36	211.61
855.67	211.64
855.99	211.68
856.30	211.86
856.61	211.90
856.92	211.95
857.23	211.93
857.55	211.94
857.86	211.98
858.17	211.99
858.48	211.99
858.79	211.98
859.11	211.95
859.42	211.94
859.73	212.07
860.04	212.03
860.35	211.99
860.66	211.96
860.98	211.98
861.29	211.98
861.60	212.03
861.91	212.11
862.22	212.06
862.53	212.01
862.84	211.79
863.16	211.83
863.47	211.79
863.78	211.71
864.09	211.69
864.40	211.73
864.71	211.82
865.02	211.87
865.33	211.87
865.64	211.84
865.95	211.84
866.27	211.88
866.58	211.84
866.89	211.83
867.20	211.82
867.51	211.81
867.82	211.84
868.13	211.88
868.44	211.81
868.75	211.77
869.06	211.81
869.37	211.79
869.68	211.74
869.99	211.76
870.30	211.85
870.61	211.90
870.92	211.79
871.23	211.86
871.54	211.86
871.85	211.84
872.16	211.88
872.47	211.88
872.78	211.73
873.09	211.73
873.40	211.66
873.71	211.71
874.02	211.76
874.33	211.75
874.64	211.64
874.95	211.67
875.26	211.65
875.56	211.62
875.87	211.64
876.18	211.61
876.49	211.81
876.80	211.81
877.11	211.73
877.42	211.85
877.73	211.78
878.04	211.78
878.35	211.78
878.66	211.84
878.96	211.78
879.27	211.84
879.58	211.89
879.89	212.00
880.20	212.07
880.51	212.01
880.82	212.00
881.12	212.02
881.43	212.02
881.74	212.00
882.05	211.96
882.36	211.98
882.67	211.94
882.97	211.71
883.28	211.65
883.59	211.65
883.90	211.60
884.21	211.55
884.51	211.48
884.82	211.47
885.13	211.42
885.44	211.41
885.74	211.39
886.05	211.33
886.36	211.34
886.67	211.28
886.98	211.35
887.28	211.33
887.59	211.38
887.90	211.36
888.20	211.38
888.51	211.41
888.82	211.34
889.13	211.31
889.43	211.46
889.74	211.46
890.05	211.46
890.35	211.43
890.66	211.43
890.97	211.41
891.28	211.34
891.58	211.35
891.89	211.36
892.20	211.31
892.50	211.28
892.81	211.16
893.12	211.03
893.42	210.91
893.73	210.91
894.04	210.84
894.34	210.82
894.65	210.80
894.95	210.79
895.26	210.82
895.57	210.99
895.87	210.76
896.18	210.72
896.48	210.70
896.79	210.78
897.10	210.78
897.40	210.80
897.71	210.85
898.01	210.81
898.32	210.79
898.63	210.75
898.93	210.72
899.24	210.75
899.54	210.75
899.85	210.76
900.15	210.77
900.46	210.78
900.76	210.79
901.07	210.76
901.38	210.80
901.68	210.84
901.99	210.66
902.29	210.67
902.60	210.63
902.90	210.65
903.21	210.53
903.51	210.53
903.82	210.58
904.12	210.56
904.43	210.61
904.73	210.63
905.03	210.71
905.34	210.92
905.64	210.89
905.95	210.94
906.25	210.94
906.56	210.93
906.86	210.96
907.17	211.00
907.47	211.12
907.77	211.03
908.08	210.95
908.38	211.02
908.69	211.10
908.99	211.16
909.30	211.20
909.60	211.22
909.90	211.24
910.21	211.16
910.51	211.09
910.81	211.06
911.12	211.13
911.42	211.08
911.73	210.91
912.03	211.02
912.33	211.08
912.64	211.12
912.94	211.14
913.24	211.14
913.55	211.08
913.85	211.03
914.15	211.08
914.46	211.03
914.76	211.00
915.06	210.97
915.37	210.97
915.67	210.97
915.97	210.97
916.27	210.96
916.58	211.02
916.88	211.09
917.18	211.07
917.49	211.19
917.79	211.17
918.09	211.21
918.39	211.20
918.70	211.14
919.00	211.12
919.30	211.24
919.60	211.20
919.91	211.22
920.21	211.19
920.51	211.15
920.81	211.21
921.12	211.28
921.42	211.19
921.72	211.20
922.02	211.16
922.32	211.24
922.63	211.18
922.93	211.31
923.23	211.35
923.53	211.36
923.83	211.13
924.13	211.17
924.44	211.14
924.74	211.19
925.04	211.24
925.34	211.16
925.64	211.05
925.94	211.06
926.24	211.12
926.55	211.17
926.85	211.24
927.15	211.25
927.45	211.19
927.75	211.26
928.05	211.26
928.35	211.29
928.65	211.32
928.95	211.40
929.26	211.30
929.56	211.28
929.86	211.33
930.16	211.40
930.46	211.37
930.76	211.38
931.06	211.26
931.36	211.25
931.66	211.28
931.96	211.28
932.26	211.26
932.56	211.20
932.86	211.20
933.16	211.25
933.46	211.26
933.76	211.30
934.06	211.29
934.36	211.39
934.66	211.37
934.96	211.31
935.26	211.30
935.56	211.34
935.86	211.32
936.16	211.27
936.46	211.25
936.76	211.20
937.06	211.17
937.36	211.22
937.66	211.20
937.96	211.21
938.26	211.23
938.56	211.28
938.86	211.32
939.16	211.34
939.46	211.35
939.76	211.32
940.06	211.33
940.35	211.30
940.65	211.10
940.95	211.10
941.25	211.06
941.55	211.02
941.85	210.99
942.15	210.96
942.45	211.03
942.75	211.00
943.04	211.09
943.34	211.15
943.64	211.17
943.94	211.22
944.24	211.24
944.54	211.23
944.84	211.14
945.13	211.10
945.43	211.08
945.73	211.00
946.03	211.03
946.33	210.99
946.62	211.01
946.92	211.01
947.22	211.02
947.52	211.08
947.82	211.15
948.11	211.07
948.41	211.03
948.71	211.04
949.01	211.05
949.31	211.07
949.60	211.02
949.90	211.02
950.20	210.99
950.50	211.00
950.79	210.96
951.09	211.05
951.39	211.05
951.69	211.06
951.98	211.10
952.28	211.05
952.58	211.02
952.87	211.04
953.17	211.02
953.47	210.98
953.76	210.95
954.06	210.90
954.36	210.91
954.66	210.96
954.95	210.94
955.25	210.98
955.55	211.04
955.84	211.01
956.14	210.99
956.44	210.96
956.73	210.91
957.03	211.00
957.32	211.01
957.62	211.08
957.92	211.12
958.21	211.09
958.51	211.38
958.81	211.38
959.10	211.45
959.40	211.60
959.69	211.65
959.99	211.66
960.29	211.70
960.58	211.65
960.88	211.74
961.17	211.69
961.47	211.67
961.76	211.58
962.06	211.67
962.36	211.68
962.65	211.62
962.95	211.71
963.24	211.66
963.54	211.62
963.83	211.55
964.13	211.48
964.42	211.44
964.72	211.25
965.01	211.32
965.31	211.29
965.60	211.28
965.90	211.40
966.19	211.37
966.49	211.32
966.78	211.37
967.08	211.32
967.37	211.29
967.67	211.29
967.96	211.26
968.26	211.23
968.55	211.24
968.85	211.26
969.14	211.20
969.43	211.19
969.73	211.17
970.02	211.17
970.32	211.13
970.61	211.16
970.91	211.09
971.20	210.99
971.49	210.88
971.79	210.85
972.08	210.73
972.38	210.78
972.67	210.82
972.96	210.80
973.26	210.69
973.55	210.75
973.85	210.72
974.14	210.74
974.43	210.72
974.73	210.72
975.02	210.74
975.31	210.76
975.61	210.69
975.90	210.65
976.19	210.68
976.49	210.72
976.78	210.72
977.07	210.65
977.37	210.73
977.66	210.74
977.95	210.69
978.24	210.62
978.54	210.64
978.83	210.60
979.12	210.59
979.42	210.64
979.71	210.61
980.00	210.57
980.29	210.61
980.59	210.56
980.88	210.48
981.17	210.53
981.46	210.47
981.76	210.53
982.05	210.66
982.34	210.59
982.63	210.58
982.93	210.60
983.22	210.72
983.51	210.71
983.80	210.78
984.09	210.83
984.39	210.89
984.68	210.81
984.97	210.84
985.26	210.86
985.55	210.89
985.85	210.88
986.14	210.98
986.43	211.00
986.72	211.01
987.01	211.05
987.30	211.03
987.59	211.01
987.89	211.04
988.18	210.91
988.47	210.97
988.76	211.00
989.05	210.96
989.34	210.94
989.63	210.97
989.92	210.90
990.22	210.87
990.51	210.89
990.80	210.94
991.09	210.90
991.38	210.97
991.67	210.98
991.96	210.97
992.25	210.96
992.54	210.88
992.83	210.95
993.12	210.95
993.41	210.96
993.70	211.13
993.99	211.16
994.28	211.26
994.58	211.33
994.87	211.35
995.16	211.35
995.45	211.33
995.74	211.27
996.03	211.34
996.32	211.40
996.61	211.42
996.90	211.38
997.19	211.37
997.48	211.30
997.77	211.26
998.06	211.27
998.34	211.23
998.63	211.29
998.92	211.21
999.21	211.29
999.50	211.31
999.79	211.17
1000.08	211.16
1000.37	211.06
1000.66	210.99
1000.95	210.94
1001.24	211.05
1001.53	211.07
1001.82	211.10
1002.11	211.12
1002.40	211.15
1002.68	211.26
1002.97	211.42
1003.26	211.49
1003.55	211.52
1003.84	211.58
1004.13	211.72
1004.42	211.71
1004.71	211.76
1004.99	211.77
1005.28	211.74
1005.57	211.69
1005.86	211.70
1006.15	211.65
1006.44	211.74
1006.72	211.67
1007.01	211.68
1007.30	211.57
1007.59	211.53
1007.88	211.49
1008.17	211.44
1008.45	211.39
1008.74	211.28
1009.03	211.17
1009.32	211.09
1009.60	211.08
1009.89	211.02
1010.18	210.92
1010.47	210.89
1010.76	210.84
1011.04	210.83
1011.33	210.84
1011.62	210.84
1011.91	210.85
1012.19	210.83
1012.48	210.71
1012.77	210.73
1013.05	210.89
1013.34	210.87
1013.63	210.90
1013.92	210.95
1014.20	211.04
1014.49	211.00
1014.78	210.93
1015.06	210.93
1015.35	210.98
1015.64	211.04
1015.92	211.08
1016.21	211.02
1016.50	211.07
1016.78	211.06
1017.07	211.12
1017.36	211.11
1017.64	211.12
1017.93	211.15
1018.22	211.16
1018.50	211.22
1018.79	211.27
1019.08	211.07
1019.36	211.09
1019.65	211.12
1019.93	211.15
1020.22	211.08
1020.51	211.19
1020.79	211.20
1021.08	210.60
1021.36	210.35
1021.65	211.25
1021.94	210.35
1022.22	210.50
1022.51	211.20
1022.79	212.00
1023.08	210.85
1023.36	213.15
1023.65	210.20
>>>>>End Processed Spectral Data<<<<<
