SpectraSuite Data File
++++++++++++++++++++++++++++++++++++
Date: Mon Feb 25 17:30:43 EST 2013
User: group
Dark Spectrum Present: No
Reference Spectrum Present: No
Number of Sampled Component Spectra: 1
Spectrometers: USB2E7196
Integration Time (usec): 52000 (USB2E7196)
Spectra Averaged: 20 (USB2E7196)
Boxcar Smoothing: 10 (USB2E7196)
Correct for Electrical Dark: No (USB2E7196)
Strobe/Lamp Enabled: No (USB2E7196)
Correct for Detector Non-linearity: No (USB2E7196)
Correct for Stray Light: No (USB2E7196)
Number of Pixels in Processed Spectrum: 2048
>>>>>Begin Processed Spectral Data<<<<<
339.09	0.00
339.48	198.70
339.86	200.50
340.24	201.65
340.63	203.75
341.01	207.35
341.39	206.00
341.78	208.00
342.16	208.80
342.54	209.95
342.93	198.31
343.31	208.35
343.69	208.90
344.07	209.37
344.46	209.77
344.84	210.14
345.22	210.31
345.60	210.62
345.99	210.76
346.37	210.99
346.75	211.02
347.13	211.05
347.52	211.09
347.90	211.29
348.28	211.33
348.66	211.45
349.05	211.41
349.43	211.48
349.81	211.47
350.19	211.57
350.57	211.65
350.96	211.78
351.34	211.83
351.72	211.93
352.10	212.05
352.48	212.10
352.87	212.14
353.25	212.22
353.63	212.14
354.01	212.23
354.39	212.21
354.77	212.27
355.15	212.32
355.54	212.38
355.92	212.33
356.30	212.30
356.68	212.43
357.06	212.50
357.44	212.46
357.82	212.58
358.20	212.68
358.58	212.72
358.97	212.76
359.35	212.89
359.73	213.03
360.11	213.05
360.49	213.17
360.87	213.22
361.25	213.31
361.63	213.48
362.01	213.54
362.39	213.53
362.77	213.63
363.15	213.71
363.53	213.73
363.91	213.70
364.29	213.80
364.67	213.70
365.05	213.77
365.43	213.93
365.81	213.88
366.19	213.89
366.57	213.98
366.95	213.89
367.33	213.79
367.71	213.75
368.09	213.78
368.47	213.77
368.85	213.79
369.23	213.82
369.61	213.75
369.99	213.74
370.37	213.75
370.75	213.81
371.13	213.70
371.51	213.72
371.89	213.75
372.27	213.67
372.65	213.62
373.03	213.57
373.41	213.40
373.78	213.45
374.16	213.35
374.54	213.24
374.92	213.28
375.30	213.32
375.68	213.17
376.06	213.16
376.44	213.08
376.82	213.00
377.19	212.87
377.57	212.80
377.95	212.76
378.33	212.68
378.71	212.58
379.09	212.63
379.47	212.63
379.84	212.54
380.22	212.57
380.60	212.54
380.98	212.47
381.36	212.38
381.73	212.28
382.11	212.25
382.49	212.26
382.87	212.13
383.25	212.06
383.62	212.29
384.00	212.19
384.38	212.15
384.76	212.17
385.13	212.23
385.51	212.23
385.89	212.16
386.27	212.14
386.64	212.09
387.02	212.03
387.40	212.00
387.78	212.03
388.15	211.99
388.53	211.87
388.91	211.87
389.29	211.97
389.66	212.03
390.04	211.98
390.42	211.94
390.79	211.95
391.17	211.91
391.55	211.66
391.92	211.61
392.30	211.65
392.68	211.56
393.05	211.52
393.43	211.46
393.81	211.46
394.18	211.44
394.56	211.42
394.94	211.44
395.31	211.33
395.69	211.38
396.06	211.36
396.44	211.39
396.82	211.34
397.19	211.38
397.57	211.34
397.95	211.43
398.32	211.43
398.70	211.50
399.07	211.61
399.45	211.64
399.82	211.69
400.20	211.70
400.58	211.77
400.95	211.77
401.33	211.94
401.70	212.11
402.08	212.25
402.45	212.30
402.83	212.34
403.20	212.43
403.58	212.47
403.95	212.66
404.33	212.81
404.71	212.95
405.08	213.08
405.46	213.20
405.83	213.28
406.21	213.41
406.58	213.53
406.96	213.64
407.33	213.84
407.70	214.03
408.08	214.34
408.45	214.53
408.83	214.76
409.20	214.94
409.58	215.09
409.95	215.30
410.33	215.58
410.70	215.93
411.08	216.29
411.45	216.64
411.82	216.98
412.20	217.38
412.57	217.87
412.95	218.16
413.32	218.65
413.69	219.15
414.07	219.70
414.44	220.27
414.82	220.83
415.19	221.61
415.56	222.31
415.94	223.11
416.31	224.05
416.68	224.87
417.06	225.81
417.43	226.78
417.81	227.87
418.18	228.93
418.55	230.13
418.93	231.41
419.30	232.73
419.67	234.12
420.04	235.55
420.42	236.97
420.79	238.85
421.16	240.52
421.54	242.37
421.91	244.15
422.28	246.02
422.66	248.08
423.03	250.05
423.40	252.10
423.77	254.23
424.15	256.36
424.52	258.68
424.89	261.19
425.26	263.52
425.64	265.92
426.01	268.54
426.38	271.09
426.75	273.83
427.13	276.52
427.50	279.42
427.87	282.43
428.24	285.58
428.61	288.29
428.99	291.45
429.36	294.83
429.73	298.25
430.10	301.74
430.47	305.20
430.85	308.70
431.22	312.57
431.59	316.66
431.96	320.50
432.33	324.72
432.70	328.89
433.08	333.73
433.45	338.14
433.82	342.62
434.19	347.67
434.56	352.59
434.93	357.28
435.30	361.83
435.68	366.86
436.05	371.84
436.42	376.97
436.79	381.55
437.16	386.53
437.53	391.66
437.90	396.69
438.27	401.69
438.64	406.92
439.01	411.75
439.38	415.95
439.75	420.10
440.13	424.80
440.50	429.15
440.87	432.70
441.24	436.43
441.61	440.60
441.98	443.58
442.35	447.08
442.72	450.65
443.09	454.05
443.46	456.08
443.83	457.50
444.20	458.58
444.57	460.34
444.94	461.02
445.31	461.80
445.68	462.65
446.05	462.89
446.42	462.31
446.79	461.46
447.16	460.58
447.53	460.03
447.90	458.09
448.27	456.09
448.64	453.42
449.01	451.39
449.37	447.75
449.74	444.30
450.11	440.18
450.48	435.76
450.85	431.33
451.22	427.45
451.59	423.73
451.96	420.24
452.33	415.60
452.70	411.42
453.07	406.38
453.43	401.27
453.80	396.40
454.17	391.73
454.54	387.37
454.91	382.68
455.28	377.95
455.65	373.61
456.02	369.43
456.38	365.76
456.75	361.24
457.12	357.47
457.49	353.78
457.86	350.03
458.23	346.99
458.59	343.60
458.96	340.24
459.33	337.02
459.70	334.00
460.07	331.55
460.43	328.69
460.80	326.10
461.17	323.66
461.54	321.25
461.91	318.94
462.27	316.60
462.64	314.65
463.01	312.58
463.38	310.49
463.74	308.17
464.11	306.24
464.48	304.65
464.85	302.92
465.21	301.61
465.58	300.30
465.95	298.52
466.32	297.10
466.68	295.83
467.05	294.57
467.42	293.15
467.78	291.74
468.15	290.47
468.52	289.53
468.88	288.36
469.25	287.17
469.62	286.32
469.98	285.35
470.35	284.46
470.72	283.62
471.08	282.66
471.45	281.99
471.82	281.29
472.18	280.44
472.55	279.94
472.92	279.23
473.28	278.63
473.65	278.10
474.02	277.58
474.38	277.08
474.75	276.82
475.11	276.46
475.48	276.25
475.85	275.98
476.21	275.71
476.58	275.58
476.94	275.62
477.31	275.56
477.67	275.46
478.04	275.49
478.41	275.56
478.77	275.95
479.14	276.12
479.50	276.44
479.87	276.78
480.23	277.06
480.60	277.48
480.96	278.00
481.33	278.61
481.69	279.22
482.06	279.77
482.42	280.33
482.79	281.08
483.15	281.89
483.52	282.92
483.88	283.92
484.25	284.91
484.61	286.02
484.98	287.10
485.34	288.50
485.71	289.86
486.07	291.27
486.44	292.58
486.80	294.17
487.17	295.73
487.53	297.57
487.90	299.49
488.26	301.33
488.62	303.29
488.99	305.40
489.35	307.64
489.72	310.02
490.08	312.52
490.44	314.95
490.81	317.55
491.17	320.23
491.54	323.15
491.90	326.09
492.26	329.30
492.63	332.66
492.99	336.17
493.36	339.77
493.72	343.63
494.08	347.55
494.45	351.65
494.81	356.01
495.17	360.46
495.54	365.22
495.90	370.24
496.26	375.51
496.63	380.89
496.99	386.50
497.35	392.46
497.72	398.72
498.08	405.23
498.44	411.94
498.80	419.09
499.17	426.45
499.53	434.11
499.89	441.94
500.26	449.99
500.62	458.11
500.98	466.78
501.34	475.95
501.71	485.45
502.07	495.04
502.43	505.17
502.79	515.36
503.16	525.95
503.52	536.83
503.88	547.89
504.24	559.34
504.60	571.20
504.97	583.33
505.33	595.53
505.69	608.65
506.05	621.90
506.41	635.32
506.78	648.98
507.14	663.01
507.50	677.45
507.86	692.25
508.22	707.56
508.59	722.99
508.95	738.61
509.31	754.63
509.67	771.25
510.03	787.93
510.39	805.14
510.75	822.81
511.12	840.70
511.48	858.91
511.84	877.45
512.20	895.81
512.56	914.95
512.92	934.22
513.28	953.39
513.64	972.95
514.00	992.56
514.37	1012.62
514.73	1033.08
515.09	1053.65
515.45	1074.15
515.81	1095.27
516.17	1116.03
516.53	1136.98
516.89	1158.30
517.25	1179.41
517.61	1200.63
517.97	1222.15
518.33	1243.10
518.69	1264.52
519.05	1286.15
519.41	1307.92
519.77	1330.25
520.13	1351.85
520.49	1373.60
520.85	1395.80
521.21	1417.83
521.57	1440.55
521.93	1462.04
522.29	1484.55
522.65	1506.63
523.01	1528.93
523.37	1550.45
523.73	1572.65
524.09	1594.62
524.45	1616.48
524.81	1638.47
525.17	1660.56
525.53	1682.31
525.89	1704.30
526.25	1726.04
526.61	1746.97
526.97	1768.08
527.33	1788.76
527.68	1810.21
528.04	1831.31
528.40	1851.26
528.76	1871.99
529.12	1892.20
529.48	1913.77
529.84	1933.51
530.20	1953.54
530.56	1973.29
530.91	1993.47
531.27	2013.21
531.63	2032.92
531.99	2052.35
532.35	2071.11
532.71	2089.31
533.07	2108.25
533.42	2126.34
533.78	2144.58
534.14	2162.69
534.50	2179.66
534.86	2197.29
535.21	2213.31
535.57	2230.45
535.93	2247.48
536.29	2263.70
536.65	2279.45
537.00	2294.24
537.36	2309.00
537.72	2323.63
538.08	2338.34
538.44	2352.83
538.79	2367.53
539.15	2381.48
539.51	2395.52
539.87	2410.22
540.22	2424.20
540.58	2438.51
540.94	2452.37
541.29	2464.75
541.65	2476.53
542.01	2489.20
542.37	2500.90
542.72	2512.58
543.08	2522.83
543.44	2534.07
543.79	2543.50
544.15	2553.53
544.51	2563.95
544.87	2574.72
545.22	2583.42
545.58	2591.61
545.94	2598.44
546.29	2604.53
546.65	2610.62
547.01	2616.18
547.36	2621.43
547.72	2626.92
548.07	2630.52
548.43	2633.90
548.79	2637.18
549.14	2641.36
549.50	2645.24
549.86	2648.64
550.21	2652.25
550.57	2656.18
550.92	2658.45
551.28	2661.00
551.64	2663.10
551.99	2665.41
552.35	2666.49
552.70	2669.12
553.06	2671.76
553.41	2674.87
553.77	2677.63
554.13	2679.65
554.48	2681.32
554.84	2682.53
555.19	2682.76
555.55	2683.06
555.90	2683.51
556.26	2684.00
556.61	2683.54
556.97	2682.18
557.32	2681.25
557.68	2679.57
558.03	2677.80
558.39	2676.24
558.74	2675.50
559.10	2674.05
559.45	2671.94
559.81	2670.53
560.16	2667.55
560.52	2664.65
560.87	2661.27
561.23	2657.33
561.58	2655.06
561.94	2651.79
562.29	2648.07
562.64	2645.63
563.00	2642.65
563.35	2640.32
563.71	2638.59
564.06	2636.34
564.42	2634.30
564.77	2631.75
565.12	2629.50
565.48	2626.21
565.83	2623.20
566.19	2619.95
566.54	2615.78
566.89	2611.77
567.25	2607.84
567.60	2604.72
567.96	2600.92
568.31	2597.41
568.66	2593.84
569.02	2589.14
569.37	2584.15
569.72	2580.13
570.08	2574.75
570.43	2569.53
570.78	2563.74
571.14	2557.32
571.49	2550.96
571.84	2545.07
572.20	2538.50
572.55	2532.24
572.90	2525.63
573.26	2518.38
573.61	2511.32
573.96	2504.82
574.31	2497.02
574.67	2488.97
575.02	2480.18
575.37	2471.75
575.72	2462.83
576.08	2455.14
576.43	2446.45
576.78	2438.64
577.13	2430.80
577.49	2423.00
577.84	2415.50
578.19	2408.06
578.54	2400.62
578.90	2393.77
579.25	2385.16
579.60	2376.20
579.95	2367.09
580.30	2358.97
580.66	2351.39
581.01	2342.32
581.36	2333.19
581.71	2325.10
582.06	2316.96
582.42	2309.29
582.77	2300.30
583.12	2291.68
583.47	2283.23
583.82	2275.28
584.17	2266.25
584.53	2257.50
584.88	2248.88
585.23	2239.90
585.58	2230.47
585.93	2221.07
586.28	2212.15
586.63	2203.73
586.98	2195.97
587.34	2187.75
587.69	2178.91
588.04	2169.72
588.39	2161.75
588.74	2153.24
589.09	2144.78
589.44	2135.48
589.79	2127.20
590.14	2119.95
590.49	2111.99
590.84	2103.19
591.19	2095.03
591.54	2087.11
591.89	2076.92
592.25	2068.16
592.60	2058.96
592.95	2050.13
593.30	2041.01
593.65	2031.22
594.00	2021.54
594.35	2013.23
594.70	2004.46
595.05	1996.33
595.40	1988.30
595.75	1978.95
596.10	1971.03
596.45	1962.72
596.80	1955.26
597.15	1947.07
597.50	1938.10
597.85	1929.73
598.19	1921.12
598.54	1912.93
598.89	1905.00
599.24	1898.70
599.59	1891.23
599.94	1884.28
600.29	1876.54
600.64	1868.83
600.99	1861.10
601.34	1854.34
601.69	1845.80
602.04	1838.01
602.39	1829.99
602.74	1821.97
603.08	1815.77
603.43	1808.46
603.78	1800.66
604.13	1792.70
604.48	1784.83
604.83	1777.92
605.18	1771.13
605.53	1763.92
605.87	1756.46
606.22	1749.70
606.57	1741.96
606.92	1734.19
607.27	1726.33
607.62	1719.26
607.96	1712.58
608.31	1706.72
608.66	1698.90
609.01	1691.58
609.36	1683.91
609.70	1676.40
610.05	1669.09
610.40	1661.10
610.75	1653.07
611.10	1645.60
611.44	1636.97
611.79	1628.37
612.14	1619.21
612.49	1609.84
612.83	1601.36
613.18	1591.87
613.53	1582.56
613.88	1573.19
614.22	1564.42
614.57	1555.15
614.92	1546.09
615.27	1537.02
615.61	1527.23
615.96	1518.54
616.31	1510.43
616.65	1502.91
617.00	1494.77
617.35	1486.19
617.70	1477.25
618.04	1468.34
618.39	1459.52
618.74	1451.30
619.08	1442.75
619.43	1434.88
619.78	1427.36
620.12	1419.43
620.47	1412.01
620.82	1403.52
621.16	1395.52
621.51	1387.40
621.85	1379.73
622.20	1371.43
622.55	1363.37
622.89	1355.13
623.24	1347.56
623.59	1338.99
623.93	1330.20
624.28	1322.03
624.62	1313.83
624.97	1306.17
625.32	1298.54
625.66	1291.15
626.01	1284.28
626.35	1277.34
626.70	1269.96
627.04	1262.66
627.39	1255.45
627.73	1247.87
628.08	1241.40
628.43	1234.31
628.77	1227.37
629.12	1220.23
629.46	1213.99
629.81	1206.82
630.15	1199.78
630.50	1192.50
630.84	1185.52
631.19	1178.67
631.53	1172.04
631.88	1165.04
632.22	1157.45
632.57	1150.58
632.91	1143.13
633.26	1135.68
633.60	1128.49
633.95	1121.95
634.29	1114.70
634.64	1107.91
634.98	1101.19
635.32	1094.27
635.67	1088.05
636.01	1081.47
636.36	1074.79
636.70	1068.08
637.05	1061.86
637.39	1055.60
637.73	1049.32
638.08	1043.55
638.42	1037.87
638.77	1031.37
639.11	1025.23
639.45	1019.41
639.80	1013.22
640.14	1007.15
640.49	1001.01
640.83	995.04
641.17	988.64
641.52	982.76
641.86	976.59
642.20	970.50
642.55	963.93
642.89	957.31
643.23	951.10
643.58	945.35
643.92	938.91
644.26	932.56
644.61	926.74
644.95	920.84
645.29	914.60
645.64	908.13
645.98	902.02
646.32	896.13
646.66	890.04
647.01	884.20
647.35	878.54
647.69	872.45
648.04	866.58
648.38	860.79
648.72	854.94
649.06	848.93
649.41	843.08
649.75	837.41
650.09	831.80
650.43	825.97
650.78	819.99
651.12	814.17
651.46	808.70
651.80	802.82
652.14	797.10
652.49	791.38
652.83	785.72
653.17	779.91
653.51	774.14
653.85	768.75
654.20	763.01
654.54	757.24
654.88	751.90
655.22	746.37
655.56	740.69
655.90	734.97
656.25	729.31
656.59	723.87
656.93	718.76
657.27	713.52
657.61	707.88
657.95	702.82
658.29	697.87
658.64	692.69
658.98	687.57
659.32	682.18
659.66	677.10
660.00	671.87
660.34	666.74
660.68	661.62
661.02	656.66
661.36	652.08
661.70	647.19
662.05	642.46
662.39	638.00
662.73	633.72
663.07	629.61
663.41	625.59
663.75	621.28
664.09	616.69
664.43	612.25
664.77	608.32
665.11	603.88
665.45	599.58
665.79	595.42
666.13	591.26
666.47	587.17
666.81	582.94
667.15	578.91
667.49	575.21
667.83	571.47
668.17	567.64
668.51	563.84
668.85	560.43
669.19	556.98
669.53	553.07
669.87	549.09
670.21	545.22
670.55	541.37
670.89	537.90
671.23	534.63
671.57	531.25
671.91	527.78
672.25	524.34
672.58	521.02
672.92	517.60
673.26	514.44
673.60	511.25
673.94	508.16
674.28	505.00
674.62	501.85
674.96	498.82
675.30	495.87
675.64	492.75
675.97	489.57
676.31	486.62
676.65	483.89
676.99	481.37
677.33	478.57
677.67	475.83
678.01	472.76
678.34	469.90
678.68	467.03
679.02	464.05
679.36	461.31
679.70	458.55
680.04	455.81
680.37	452.83
680.71	450.29
681.05	447.66
681.39	445.26
681.73	442.56
682.06	439.97
682.40	437.41
682.74	434.90
683.08	432.41
683.42	429.64
683.75	427.23
684.09	424.56
684.43	422.16
684.77	419.53
685.10	417.17
685.44	414.59
685.78	412.18
686.12	410.00
686.45	407.75
686.79	405.47
687.13	403.35
687.46	401.35
687.80	399.16
688.14	397.01
688.48	394.83
688.81	392.85
689.15	390.75
689.49	388.54
689.82	386.37
690.16	384.17
690.50	382.11
690.83	379.91
691.17	377.74
691.51	375.49
691.84	373.51
692.18	371.57
692.52	369.69
692.85	367.88
693.19	365.95
693.52	364.04
693.86	362.15
694.20	360.32
694.53	358.49
694.87	356.55
695.21	354.67
695.54	352.79
695.88	350.80
696.21	348.97
696.55	347.24
696.88	345.49
697.22	343.72
697.56	342.18
697.89	340.53
698.23	339.01
698.56	337.52
698.90	336.05
699.23	334.35
699.57	332.77
699.90	331.10
700.24	329.58
700.58	328.03
700.91	326.46
701.25	325.02
701.58	323.60
701.92	322.18
702.25	320.75
702.59	319.46
702.92	318.21
703.26	316.91
703.59	315.58
703.93	314.57
704.26	313.42
704.60	312.09
704.93	310.82
705.26	309.55
705.60	308.40
705.93	307.08
706.27	305.95
706.60	304.92
706.94	303.91
707.27	302.85
707.61	301.71
707.94	300.65
708.27	299.42
708.61	298.24
708.94	297.15
709.28	296.03
709.61	294.89
709.94	293.82
710.28	292.81
710.61	291.84
710.95	290.63
711.28	289.65
711.61	288.72
711.95	287.86
712.28	286.96
712.61	285.95
712.95	285.15
713.28	284.30
713.61	283.24
713.95	282.33
714.28	281.40
714.61	280.49
714.95	279.60
715.28	278.69
715.61	277.78
715.95	276.90
716.28	276.19
716.61	275.31
716.95	274.49
717.28	273.70
717.61	272.90
717.94	272.21
718.28	271.40
718.61	270.60
718.94	269.79
719.27	269.00
719.61	268.31
719.94	267.54
720.27	266.80
720.60	266.11
720.94	265.37
721.27	264.65
721.60	264.13
721.93	263.59
722.27	263.09
722.60	262.52
722.93	261.96
723.26	261.33
723.59	260.72
723.93	260.20
724.26	259.61
724.59	259.11
724.92	258.54
725.25	258.07
725.59	257.54
725.92	256.95
726.25	256.44
726.58	255.94
726.91	255.40
727.24	254.94
727.57	254.50
727.91	254.08
728.24	253.67
728.57	253.22
728.90	252.68
729.23	252.15
729.56	251.76
729.89	251.29
730.22	250.82
730.55	250.43
730.89	250.00
731.22	249.48
731.55	248.99
731.88	248.48
732.21	247.95
732.54	247.52
732.87	247.10
733.20	246.61
733.53	246.17
733.86	245.79
734.19	245.28
734.52	244.90
734.85	244.58
735.18	244.08
735.51	243.57
735.84	243.20
736.17	242.85
736.50	242.38
736.83	242.19
737.16	241.78
737.49	241.47
737.82	241.00
738.15	240.77
738.48	240.37
738.81	240.04
739.14	239.67
739.47	239.29
739.80	238.97
740.13	238.69
740.46	238.30
740.79	237.95
741.12	237.70
741.45	237.38
741.78	237.05
742.11	236.85
742.44	236.50
742.77	236.28
743.10	235.91
743.43	235.63
743.75	235.17
744.08	235.09
744.41	234.67
744.74	234.39
745.07	234.03
745.40	233.78
745.73	233.55
746.06	233.34
746.39	233.09
746.71	232.82
747.04	232.54
747.37	232.31
747.70	232.09
748.03	231.83
748.36	231.56
748.68	231.22
749.01	230.96
749.34	230.81
749.67	230.50
750.00	230.34
750.33	230.23
750.65	229.94
750.98	229.45
751.31	229.31
751.64	229.07
751.97	228.98
752.29	228.82
752.62	228.60
752.95	228.35
753.28	228.13
753.60	227.87
753.93	227.76
754.26	227.56
754.59	227.27
754.91	227.08
755.24	226.89
755.57	226.71
755.90	226.48
756.22	226.25
756.55	226.09
756.88	225.85
757.20	225.55
757.53	225.36
757.86	225.26
758.19	225.11
758.51	225.06
758.84	224.76
759.17	224.57
759.49	224.37
759.82	224.37
760.15	224.20
760.47	224.13
760.80	223.81
761.13	223.63
761.45	223.52
761.78	223.29
762.11	223.14
762.43	223.03
762.76	222.88
763.08	222.77
763.41	222.59
763.74	222.47
764.06	222.37
764.39	222.25
764.71	222.09
765.04	221.93
765.37	221.76
765.69	221.60
766.02	221.50
766.34	221.35
766.67	221.07
767.00	220.98
767.32	220.91
767.65	220.96
767.97	220.84
768.30	220.77
768.62	220.75
768.95	220.62
769.27	220.41
769.60	220.33
769.92	220.24
770.25	220.11
770.57	219.95
770.90	219.81
771.22	219.76
771.55	219.70
771.87	219.61
772.20	219.42
772.52	219.43
772.85	219.53
773.17	219.47
773.50	219.42
773.82	219.31
774.15	219.12
774.47	218.90
774.80	218.80
775.12	218.64
775.45	218.54
775.77	218.48
776.09	218.44
776.42	218.38
776.74	218.31
777.07	218.21
777.39	218.09
777.72	218.00
778.04	217.89
778.36	217.83
778.69	217.78
779.01	217.80
779.33	217.65
779.66	217.38
779.98	217.24
780.31	217.18
780.63	217.15
780.95	217.16
781.28	217.09
781.60	217.04
781.92	216.99
782.25	216.87
782.57	216.77
782.89	216.73
783.22	216.66
783.54	216.56
783.86	216.55
784.19	216.53
784.51	216.57
784.83	216.52
785.16	216.42
785.48	216.35
785.80	216.33
786.12	216.28
786.45	216.23
786.77	216.21
787.09	216.11
787.42	216.03
787.74	215.93
788.06	215.94
788.38	215.91
788.71	215.78
789.03	215.76
789.35	215.80
789.67	215.77
789.99	215.72
790.32	215.64
790.64	215.61
790.96	215.72
791.28	215.57
791.61	215.50
791.93	215.45
792.25	215.40
792.57	215.45
792.89	215.39
793.21	215.35
793.54	215.35
793.86	215.27
794.18	215.20
794.50	215.09
794.82	215.05
795.14	215.00
795.47	215.10
795.79	215.06
796.11	214.90
796.43	214.73
796.75	214.70
797.07	214.65
797.39	214.62
797.71	214.46
798.04	214.44
798.36	214.38
798.68	214.34
799.00	214.28
799.32	214.14
799.64	214.12
799.96	214.14
800.28	214.09
800.60	214.07
800.92	214.08
801.24	214.07
801.56	214.05
801.89	214.08
802.21	214.02
802.53	213.99
802.85	214.05
803.17	214.19
803.49	214.07
803.81	214.04
804.13	214.03
804.45	214.02
804.77	214.00
805.09	214.05
805.41	213.98
805.73	213.95
806.05	213.89
806.37	213.86
806.69	213.72
807.01	213.71
807.33	213.75
807.65	213.62
807.97	213.67
808.28	213.63
808.60	213.59
808.92	213.54
809.24	213.58
809.56	213.50
809.88	213.35
810.20	213.35
810.52	213.38
810.84	213.40
811.16	213.32
811.48	213.29
811.80	213.27
812.12	213.29
812.43	213.30
812.75	213.35
813.07	213.30
813.39	213.37
813.71	213.33
814.03	213.27
814.35	213.30
814.67	213.25
814.98	213.25
815.30	213.21
815.62	213.13
815.94	213.02
816.26	213.03
816.58	213.03
816.89	213.05
817.21	213.02
817.53	212.85
817.85	212.90
818.17	212.84
818.48	212.80
818.80	212.80
819.12	212.74
819.44	212.61
819.76	212.60
820.07	212.52
820.39	212.47
820.71	212.53
821.03	212.54
821.34	212.56
821.66	212.54
821.98	212.57
822.30	212.61
822.61	212.75
822.93	212.77
823.25	212.75
823.57	212.80
823.88	212.82
824.20	212.90
824.52	212.89
824.83	213.00
825.15	213.00
825.47	213.04
825.79	213.11
826.10	213.17
826.42	213.17
826.74	213.18
827.05	213.23
827.37	213.14
827.69	213.14
828.00	213.13
828.32	213.08
828.64	213.03
828.95	213.10
829.27	213.03
829.58	213.00
829.90	212.95
830.22	212.93
830.53	212.86
830.85	212.78
831.17	212.70
831.48	212.62
831.80	212.66
832.11	212.65
832.43	212.61
832.75	212.59
833.06	212.62
833.38	212.55
833.69	212.52
834.01	212.59
834.32	212.53
834.64	212.50
834.96	212.46
835.27	212.44
835.59	212.33
835.90	212.25
836.22	212.17
836.53	212.17
836.85	212.16
837.16	212.35
837.48	212.40
837.79	212.45
838.11	212.40
838.42	212.32
838.74	212.32
839.05	212.30
839.37	212.27
839.68	212.15
840.00	212.14
840.31	212.09
840.63	212.06
840.94	211.99
841.26	211.93
841.57	211.99
841.88	211.94
842.20	212.01
842.51	211.98
842.83	212.07
843.14	212.21
843.46	212.13
843.77	211.98
844.08	211.90
844.40	211.87
844.71	211.83
845.03	211.91
845.34	211.83
845.65	211.73
845.97	211.74
846.28	211.77
846.60	211.79
846.91	211.77
847.22	211.70
847.54	211.77
847.85	211.78
848.16	211.72
848.48	211.69
848.79	211.68
849.10	211.73
849.42	211.69
849.73	211.50
850.04	211.53
850.36	211.47
850.67	211.58
850.98	211.57
851.30	211.58
851.61	211.46
851.92	211.43
852.23	211.55
852.55	211.57
852.86	211.56
853.17	211.55
853.49	211.61
853.80	211.67
854.11	211.67
854.42	211.65
854.74	211.62
855.05	211.65
855.36	211.53
855.67	211.49
855.99	211.53
856.30	211.74
856.61	211.76
856.92	211.83
857.23	211.81
857.55	211.74
857.86	211.75
858.17	211.84
858.48	211.85
858.79	211.87
859.11	211.85
859.42	211.82
859.73	211.84
860.04	211.82
860.35	211.81
860.66	211.83
860.98	211.85
861.29	211.85
861.60	211.86
861.91	211.93
862.22	211.91
862.53	211.85
862.84	211.69
863.16	211.69
863.47	211.61
863.78	211.56
864.09	211.57
864.40	211.53
864.71	211.50
865.02	211.50
865.33	211.44
865.64	211.45
865.95	211.48
866.27	211.62
866.58	211.65
866.89	211.62
867.20	211.61
867.51	211.62
867.82	211.59
868.13	211.69
868.44	211.65
868.75	211.71
869.06	211.70
869.37	211.64
869.68	211.57
869.99	211.55
870.30	211.61
870.61	211.71
870.92	211.74
871.23	211.71
871.54	211.80
871.85	211.85
872.16	211.87
872.47	211.82
872.78	211.73
873.09	211.68
873.40	211.64
873.71	211.64
874.02	211.62
874.33	211.65
874.64	211.60
874.95	211.61
875.26	211.57
875.56	211.47
875.87	211.51
876.18	211.53
876.49	211.73
876.80	211.67
877.11	211.59
877.42	211.62
877.73	211.64
878.04	211.55
878.35	211.43
878.66	211.42
878.96	211.39
879.27	211.32
879.58	211.35
879.89	211.42
880.20	211.46
880.51	211.41
880.82	211.43
881.12	211.35
881.43	211.33
881.74	211.34
882.05	211.43
882.36	211.43
882.67	211.45
882.97	211.30
883.28	211.27
883.59	211.23
883.90	211.27
884.21	211.29
884.51	211.27
884.82	211.29
885.13	211.23
885.44	211.31
885.74	211.37
886.05	211.37
886.36	211.33
886.67	211.18
886.98	211.27
887.28	211.25
887.59	211.36
887.90	211.37
888.20	211.36
888.51	211.35
888.82	211.31
889.13	211.33
889.43	211.40
889.74	211.38
890.05	211.44
890.35	211.43
890.66	211.43
890.97	211.40
891.28	211.44
891.58	211.48
891.89	211.41
892.20	211.40
892.50	211.42
892.81	211.42
893.12	211.54
893.42	211.55
893.73	211.51
894.04	211.41
894.34	211.45
894.65	211.37
894.95	211.39
895.26	211.41
895.57	211.45
895.87	211.37
896.18	211.37
896.48	211.29
896.79	211.18
897.10	211.15
897.40	211.17
897.71	211.19
898.01	211.19
898.32	211.20
898.63	211.14
898.93	211.06
899.24	211.03
899.54	210.95
899.85	210.91
900.15	210.99
900.46	210.93
900.76	210.96
901.07	211.01
901.38	211.03
901.68	211.08
901.99	211.00
902.29	210.91
902.60	210.97
902.90	211.08
903.21	211.15
903.51	211.13
903.82	211.20
904.12	211.17
904.43	211.14
904.73	211.16
905.03	211.22
905.34	211.42
905.64	211.42
905.95	211.47
906.25	211.42
906.56	211.35
906.86	211.40
907.17	211.34
907.47	211.35
907.77	211.27
908.08	211.19
908.38	211.22
908.69	211.33
908.99	211.37
909.30	211.36
909.60	211.31
909.90	211.35
910.21	211.30
910.51	211.26
910.81	211.28
911.12	211.30
911.42	211.26
911.73	211.07
912.03	211.16
912.33	211.14
912.64	211.19
912.94	211.21
913.24	211.19
913.55	211.20
913.85	211.20
914.15	211.26
914.46	211.35
914.76	211.28
915.06	211.21
915.37	211.16
915.67	211.14
915.97	211.11
916.27	211.09
916.58	211.08
916.88	211.08
917.18	211.12
917.49	211.24
917.79	211.25
918.09	211.33
918.39	211.34
918.70	211.42
919.00	211.42
919.30	211.51
919.60	211.52
919.91	211.48
920.21	211.47
920.51	211.44
920.81	211.40
921.12	211.45
921.42	211.48
921.72	211.51
922.02	211.56
922.32	211.61
922.63	211.61
922.93	211.77
923.23	211.86
923.53	211.77
923.83	211.67
924.13	211.69
924.44	211.65
924.74	211.66
925.04	211.68
925.34	211.68
925.64	211.59
925.94	211.55
926.24	211.72
926.55	211.77
926.85	211.79
927.15	211.80
927.45	211.84
927.75	211.83
928.05	211.82
928.35	211.74
928.65	211.77
928.95	211.76
929.26	211.65
929.56	211.61
929.86	211.62
930.16	211.70
930.46	211.71
930.76	211.66
931.06	211.56
931.36	211.50
931.66	211.51
931.96	211.57
932.26	211.69
932.56	211.60
932.86	211.60
933.16	211.59
933.46	211.56
933.76	211.47
934.06	211.50
934.36	211.58
934.66	211.61
934.96	211.61
935.26	211.59
935.56	211.55
935.86	211.57
936.16	211.57
936.46	211.43
936.76	211.45
937.06	211.47
937.36	211.43
937.66	211.43
937.96	211.44
938.26	211.40
938.56	211.31
938.86	211.33
939.16	211.31
939.46	211.31
939.76	211.34
940.06	211.37
940.35	211.41
940.65	211.24
940.95	211.26
941.25	211.26
941.55	211.30
941.85	211.33
942.15	211.32
942.45	211.37
942.75	211.40
943.04	211.31
943.34	211.29
943.64	211.36
943.94	211.33
944.24	211.27
944.54	211.25
944.84	211.27
945.13	211.20
945.43	211.21
945.73	211.15
946.03	211.13
946.33	211.12
946.62	211.04
946.92	211.11
947.22	211.10
947.52	211.02
947.82	211.01
948.11	210.99
948.41	210.93
948.71	210.92
949.01	210.94
949.31	211.00
949.60	211.07
949.90	211.11
950.20	211.08
950.50	211.08
950.79	211.07
951.09	211.11
951.39	211.12
951.69	211.02
951.98	211.08
952.28	211.03
952.58	210.96
952.87	210.95
953.17	210.98
953.47	210.99
953.76	211.03
954.06	210.99
954.36	210.98
954.66	211.00
954.95	210.99
955.25	210.96
955.55	210.94
955.84	210.82
956.14	210.78
956.44	210.81
956.73	210.83
957.03	210.81
957.32	210.77
957.62	210.72
957.92	210.85
958.21	210.80
958.51	211.05
958.81	211.10
959.10	211.11
959.40	211.13
959.69	211.07
959.99	211.10
960.29	211.10
960.58	211.07
960.88	211.15
961.17	211.10
961.47	211.15
961.76	211.12
962.06	211.26
962.36	211.23
962.65	211.20
962.95	211.19
963.24	211.27
963.54	211.32
963.83	211.31
964.13	211.23
964.42	211.30
964.72	211.19
965.01	211.21
965.31	211.26
965.60	211.14
965.90	211.27
966.19	211.22
966.49	211.25
966.78	211.22
967.08	211.24
967.37	211.35
967.67	211.31
967.96	211.39
968.26	211.32
968.55	211.37
968.85	211.38
969.14	211.40
969.43	211.36
969.73	211.33
970.02	211.33
970.32	211.27
970.61	211.20
970.91	211.09
971.20	211.05
971.49	211.04
971.79	211.12
972.08	211.01
972.38	211.02
972.67	211.01
972.96	211.07
973.26	211.02
973.55	211.00
973.85	211.00
974.14	210.93
974.43	210.94
974.73	210.93
975.02	210.90
975.31	210.85
975.61	210.83
975.90	210.77
976.19	210.80
976.49	210.87
976.78	210.90
977.07	210.93
977.37	210.93
977.66	210.88
977.95	210.83
978.24	210.85
978.54	210.91
978.83	210.87
979.12	210.85
979.42	210.82
979.71	210.73
980.00	210.67
980.29	210.65
980.59	210.61
980.88	210.59
981.17	210.60
981.46	210.65
981.76	210.64
982.05	210.66
982.34	210.67
982.63	210.65
982.93	210.67
983.22	210.69
983.51	210.68
983.80	210.74
984.09	210.79
984.39	210.77
984.68	210.68
984.97	210.67
985.26	210.70
985.55	210.70
985.85	210.71
986.14	210.78
986.43	210.78
986.72	210.75
987.01	210.69
987.30	210.65
987.59	210.60
987.89	210.60
988.18	210.57
988.47	210.54
988.76	210.53
989.05	210.47
989.34	210.46
989.63	210.45
989.92	210.40
990.22	210.42
990.51	210.41
990.80	210.41
991.09	210.50
991.38	210.51
991.67	210.57
991.96	210.55
992.25	210.57
992.54	210.55
992.83	210.60
993.12	210.55
993.41	210.61
993.70	210.69
993.99	210.73
994.28	210.81
994.58	210.84
994.87	210.82
995.16	210.82
995.45	210.80
995.74	210.82
996.03	210.83
996.32	210.80
996.61	210.89
996.90	210.95
997.19	210.85
997.48	210.84
997.77	210.74
998.06	210.78
998.34	210.75
998.63	210.74
998.92	210.75
999.21	210.82
999.50	210.84
999.79	210.77
1000.08	210.79
1000.37	210.70
1000.66	210.65
1000.95	210.73
1001.24	210.73
1001.53	210.74
1001.82	210.74
1002.11	210.72
1002.40	210.85
1002.68	210.84
1002.97	210.98
1003.26	210.98
1003.55	210.98
1003.84	211.00
1004.13	211.03
1004.42	211.02
1004.71	211.03
1004.99	211.04
1005.28	211.10
1005.57	211.17
1005.86	211.12
1006.15	211.00
1006.44	211.04
1006.72	211.04
1007.01	210.96
1007.30	211.01
1007.59	211.03
1007.88	211.03
1008.17	211.03
1008.45	210.87
1008.74	210.87
1009.03	210.77
1009.32	210.77
1009.60	210.70
1009.89	210.73
1010.18	210.72
1010.47	210.72
1010.76	210.74
1011.04	210.70
1011.33	210.76
1011.62	210.68
1011.91	210.74
1012.19	210.88
1012.48	210.90
1012.77	210.98
1013.05	211.15
1013.34	211.11
1013.63	211.09
1013.92	211.11
1014.20	211.10
1014.49	211.15
1014.78	211.11
1015.06	211.04
1015.35	211.06
1015.64	211.11
1015.92	211.09
1016.21	211.09
1016.50	211.07
1016.78	211.13
1017.07	211.16
1017.36	211.10
1017.64	211.08
1017.93	211.07
1018.22	211.04
1018.50	210.99
1018.79	210.96
1019.08	210.85
1019.36	210.93
1019.65	210.94
1019.93	210.94
1020.22	210.95
1020.51	211.06
1020.79	211.03
1021.08	211.05
1021.36	210.00
1021.65	210.95
1021.94	211.05
1022.22	212.05
1022.51	210.90
1022.79	211.10
1023.08	210.55
1023.36	213.85
1023.65	210.45
>>>>>End Processed Spectral Data<<<<<
