SpectraSuite Data File
++++++++++++++++++++++++++++++++++++
Date: Mon Feb 25 17:34:02 EST 2013
User: group
Dark Spectrum Present: No
Reference Spectrum Present: No
Number of Sampled Component Spectra: 1
Spectrometers: USB2E7196
Integration Time (usec): 52000 (USB2E7196)
Spectra Averaged: 20 (USB2E7196)
Boxcar Smoothing: 10 (USB2E7196)
Correct for Electrical Dark: No (USB2E7196)
Strobe/Lamp Enabled: No (USB2E7196)
Correct for Detector Non-linearity: No (USB2E7196)
Correct for Stray Light: No (USB2E7196)
Number of Pixels in Processed Spectrum: 2048
>>>>>Begin Processed Spectral Data<<<<<
339.09	0.00
339.48	197.65
339.86	198.75
340.24	201.55
340.63	203.20
341.01	207.80
341.39	206.15
341.78	206.80
342.16	207.65
342.54	210.35
342.93	197.91
343.31	207.91
343.69	208.48
344.07	209.00
344.46	209.41
344.84	209.77
345.22	209.95
345.60	210.19
345.99	210.34
346.37	210.55
346.75	210.62
347.13	210.74
347.52	210.82
347.90	210.96
348.28	211.00
348.66	211.08
349.05	211.06
349.43	211.19
349.81	211.20
350.19	211.20
350.57	211.33
350.96	211.37
351.34	211.54
351.72	211.66
352.10	211.85
352.48	211.97
352.87	212.06
353.25	212.13
353.63	212.22
354.01	212.41
354.39	212.50
354.77	212.62
355.15	212.79
355.54	212.88
355.92	212.92
356.30	213.05
356.68	213.33
357.06	213.43
357.44	213.43
357.82	213.57
358.20	213.71
358.58	213.79
358.97	213.88
359.35	213.97
359.73	214.07
360.11	214.11
360.49	214.22
360.87	214.27
361.25	214.37
361.63	214.45
362.01	214.50
362.39	214.50
362.77	214.50
363.15	214.55
363.53	214.60
363.91	214.64
364.29	214.71
364.67	214.56
365.05	214.61
365.43	214.70
365.81	214.72
366.19	214.82
366.57	214.93
366.95	214.92
367.33	214.82
367.71	214.86
368.09	214.93
368.47	214.88
368.85	214.93
369.23	214.91
369.61	214.87
369.99	214.90
370.37	214.91
370.75	214.95
371.13	214.83
371.51	214.79
371.89	214.79
372.27	214.70
372.65	214.66
373.03	214.63
373.41	214.51
373.78	214.48
374.16	214.32
374.54	214.25
374.92	214.16
375.30	214.19
375.68	214.09
376.06	214.01
376.44	213.90
376.82	213.85
377.19	213.77
377.57	213.70
377.95	213.55
378.33	213.43
378.71	213.29
379.09	213.30
379.47	213.20
379.84	213.10
380.22	213.07
380.60	213.03
380.98	212.93
381.36	212.89
381.73	212.78
382.11	212.75
382.49	212.64
382.87	212.53
383.25	212.47
383.62	212.58
384.00	212.40
384.38	212.44
384.76	212.39
385.13	212.44
385.51	212.36
385.89	212.29
386.27	212.30
386.64	212.27
387.02	212.22
387.40	212.17
387.78	212.08
388.15	211.99
388.53	211.89
388.91	211.93
389.29	211.87
389.66	211.81
390.04	211.77
390.42	211.85
390.79	211.88
391.17	211.77
391.55	211.60
391.92	211.68
392.30	211.63
392.68	211.60
393.05	211.59
393.43	211.64
393.81	211.64
394.18	211.62
394.56	211.64
394.94	211.64
395.31	211.56
395.69	211.68
396.06	211.71
396.44	211.79
396.82	211.74
397.19	211.80
397.57	211.85
397.95	211.90
398.32	211.80
398.70	211.88
399.07	211.99
399.45	212.04
399.82	212.04
400.20	212.11
400.58	212.12
400.95	212.03
401.33	212.07
401.70	212.29
402.08	212.38
402.45	212.40
402.83	212.47
403.20	212.66
403.58	212.72
403.95	212.81
404.33	212.91
404.71	212.99
405.08	213.26
405.46	213.42
405.83	213.55
406.21	213.67
406.58	213.76
406.96	213.90
407.33	214.01
407.70	214.18
408.08	214.36
408.45	214.67
408.83	214.98
409.20	215.21
409.58	215.31
409.95	215.61
410.33	215.96
410.70	216.27
411.08	216.60
411.45	216.94
411.82	217.39
412.20	217.76
412.57	218.27
412.95	218.55
413.32	219.05
413.69	219.56
414.07	220.12
414.44	220.77
414.82	221.42
415.19	222.23
415.56	222.99
415.94	223.78
416.31	224.60
416.68	225.48
417.06	226.50
417.43	227.46
417.81	228.56
418.18	229.71
418.55	230.93
418.93	232.24
419.30	233.54
419.67	234.83
420.04	236.23
420.42	237.73
420.79	239.55
421.16	241.32
421.54	243.21
421.91	245.15
422.28	247.10
422.66	249.13
423.03	251.12
423.40	253.19
423.77	255.41
424.15	257.61
424.52	259.90
424.89	262.40
425.26	264.89
425.64	267.21
426.01	269.76
426.38	272.48
426.75	275.19
427.13	278.10
427.50	281.10
427.87	284.27
428.24	287.38
428.61	290.27
428.99	293.49
429.36	296.93
429.73	300.35
430.10	303.86
430.47	307.40
430.85	311.05
431.22	314.94
431.59	319.17
431.96	323.20
432.33	327.57
432.70	331.79
433.08	336.76
433.45	341.45
433.82	346.13
434.19	351.15
434.56	356.13
434.93	360.84
435.30	365.60
435.68	370.89
436.05	376.19
436.42	381.34
436.79	386.13
437.16	391.21
437.53	396.55
437.90	401.72
438.27	406.96
438.64	412.41
439.01	417.53
439.38	421.86
439.75	426.12
440.13	431.02
440.50	435.57
440.87	439.29
441.24	443.02
441.61	447.17
441.98	450.36
442.35	454.12
442.72	457.83
443.09	461.30
443.46	463.45
443.83	464.84
444.20	466.09
444.57	467.73
444.94	468.47
445.31	469.29
445.68	470.23
446.05	470.40
446.42	469.73
446.79	468.84
447.16	468.09
447.53	467.32
447.90	465.25
448.27	463.19
448.64	460.32
449.01	458.29
449.37	454.61
449.74	451.03
450.11	446.80
450.48	442.35
450.85	437.83
451.22	433.76
451.59	429.76
451.96	426.16
452.33	421.35
452.70	416.99
453.07	411.73
453.43	406.32
453.80	401.38
454.17	396.56
454.54	392.04
454.91	387.07
455.28	382.41
455.65	377.95
456.02	373.61
456.38	369.87
456.75	365.22
457.12	361.48
457.49	357.77
457.86	354.00
458.23	350.69
458.59	347.13
458.96	343.66
459.33	340.65
459.70	337.43
460.07	335.07
460.43	332.22
460.80	329.67
461.17	327.24
461.54	324.77
461.91	322.34
462.27	319.91
462.64	317.89
463.01	315.60
463.38	313.44
463.74	311.24
464.11	309.21
464.48	307.54
464.85	305.66
465.21	304.23
465.58	302.76
465.95	301.03
466.32	299.55
466.68	298.16
467.05	296.70
467.42	295.23
467.78	293.68
468.15	292.37
468.52	291.26
468.88	289.98
469.25	288.85
469.62	287.95
469.98	287.04
470.35	286.09
470.72	285.28
471.08	284.27
471.45	283.44
471.82	282.75
472.18	281.92
472.55	281.31
472.92	280.55
473.28	279.94
473.65	279.28
474.02	278.78
474.38	278.24
474.75	277.91
475.11	277.62
475.48	277.44
475.85	277.20
476.21	277.00
476.58	276.93
476.94	276.79
477.31	276.74
477.67	276.60
478.04	276.67
478.41	276.81
478.77	277.24
479.14	277.37
479.50	277.62
479.87	277.98
480.23	278.40
480.60	278.78
480.96	279.23
481.33	279.98
481.69	280.68
482.06	281.37
482.42	282.04
482.79	282.69
483.15	283.49
483.52	284.47
483.88	285.48
484.25	286.40
484.61	287.45
484.98	288.60
485.34	289.88
485.71	291.29
486.07	292.67
486.44	293.90
486.80	295.46
487.17	297.04
487.53	298.77
487.90	300.53
488.26	302.51
488.62	304.55
488.99	306.49
489.35	308.53
489.72	310.78
490.08	313.13
490.44	315.57
490.81	318.12
491.17	320.83
491.54	323.80
491.90	326.86
492.26	330.04
492.63	333.37
492.99	336.87
493.36	340.46
493.72	344.46
494.08	348.52
494.45	352.73
494.81	357.23
495.17	361.72
495.54	366.62
495.90	371.56
496.26	376.83
496.63	382.39
496.99	388.14
497.35	394.09
497.72	400.45
498.08	407.13
498.44	413.80
498.80	420.94
499.17	428.33
499.53	435.94
499.89	443.80
500.26	451.99
500.62	460.35
500.98	469.09
501.34	478.17
501.71	487.65
502.07	497.30
502.43	507.20
502.79	517.58
503.16	528.26
503.52	539.14
503.88	550.42
504.24	561.93
504.60	573.88
504.97	586.29
505.33	598.84
505.69	612.06
506.05	625.58
506.41	639.14
506.78	652.72
507.14	666.97
507.50	681.72
507.86	696.74
508.22	712.11
508.59	727.73
508.95	743.75
509.31	760.08
509.67	776.90
510.03	794.08
510.39	811.60
510.75	829.36
511.12	847.70
511.48	866.05
511.84	884.93
512.20	903.68
512.56	922.75
512.92	942.28
513.28	961.90
513.64	981.88
514.00	1002.02
514.37	1022.45
514.73	1043.45
515.09	1064.54
515.45	1085.23
515.81	1106.55
516.17	1128.00
516.53	1149.37
516.89	1170.84
517.25	1192.27
517.61	1213.85
517.97	1235.53
518.33	1256.97
518.69	1278.52
519.05	1300.73
519.41	1322.64
519.77	1345.35
520.13	1367.53
520.49	1389.42
520.85	1411.90
521.21	1434.44
521.57	1457.42
521.93	1479.69
522.29	1502.31
522.65	1524.91
523.01	1547.70
523.37	1569.69
523.73	1591.92
524.09	1614.11
524.45	1636.45
524.81	1659.24
525.17	1681.68
525.53	1704.12
525.89	1726.76
526.25	1749.10
526.61	1770.23
526.97	1792.10
527.33	1813.41
527.68	1835.08
528.04	1856.75
528.40	1877.17
528.76	1898.14
529.12	1918.79
529.48	1940.56
529.84	1960.96
530.20	1981.16
530.56	2001.78
530.91	2022.91
531.27	2043.70
531.63	2063.80
531.99	2083.95
532.35	2102.74
532.71	2121.92
533.07	2141.78
533.42	2160.55
533.78	2179.48
534.14	2198.14
534.50	2215.71
534.86	2233.76
535.21	2250.67
535.57	2268.73
535.93	2286.57
536.29	2303.32
536.65	2320.23
537.00	2335.78
537.36	2351.20
537.72	2366.73
538.08	2381.91
538.44	2397.34
538.79	2412.76
539.15	2427.74
539.51	2442.38
539.87	2458.04
540.22	2472.72
540.58	2487.50
540.94	2501.73
541.29	2514.69
541.65	2527.16
542.01	2540.43
542.37	2552.57
542.72	2565.17
543.08	2575.91
543.44	2587.51
543.79	2598.07
544.15	2608.27
544.51	2619.47
544.87	2630.89
545.22	2640.10
545.58	2648.82
545.94	2655.96
546.29	2662.45
546.65	2668.89
547.01	2675.29
547.36	2681.21
547.72	2686.86
548.07	2690.74
548.43	2694.91
548.79	2698.85
549.14	2703.73
549.50	2708.14
549.86	2712.26
550.21	2716.48
550.57	2720.75
550.92	2723.55
551.28	2726.35
551.64	2728.83
551.99	2731.27
552.35	2732.38
552.70	2735.34
553.06	2737.94
553.41	2741.30
553.77	2744.17
554.13	2746.57
554.48	2748.64
554.84	2750.05
555.19	2750.56
555.55	2751.23
555.90	2752.06
556.26	2752.81
556.61	2753.09
556.97	2751.76
557.32	2751.51
557.68	2749.58
558.03	2748.25
558.39	2746.89
558.74	2746.50
559.10	2745.44
559.45	2743.60
559.81	2742.91
560.16	2740.01
560.52	2737.62
560.87	2734.51
561.23	2730.80
561.58	2728.58
561.94	2725.45
562.29	2722.03
562.64	2719.78
563.00	2717.22
563.35	2714.72
563.71	2713.19
564.06	2710.80
564.42	2709.11
564.77	2706.59
565.12	2704.80
565.48	2701.52
565.83	2698.74
566.19	2695.51
566.54	2691.28
566.89	2687.39
567.25	2683.49
567.60	2680.42
567.96	2677.18
568.31	2673.48
568.66	2669.61
569.02	2664.71
569.37	2659.64
569.72	2655.65
570.08	2650.47
570.43	2644.90
570.78	2639.41
571.14	2632.68
571.49	2626.00
571.84	2620.15
572.20	2613.09
572.55	2606.60
572.90	2599.82
573.26	2592.45
573.61	2585.18
573.96	2578.62
574.31	2571.02
574.67	2562.77
575.02	2554.11
575.37	2545.31
575.72	2536.37
576.08	2528.75
576.43	2520.36
576.78	2512.55
577.13	2504.29
577.49	2495.65
577.84	2488.07
578.19	2480.23
578.54	2473.08
578.90	2466.07
579.25	2457.11
579.60	2448.00
579.95	2438.62
580.30	2430.69
580.66	2422.95
581.01	2413.92
581.36	2404.67
581.71	2396.15
582.06	2387.87
582.42	2379.85
582.77	2370.47
583.12	2361.58
583.47	2352.93
583.82	2344.38
584.17	2335.05
584.53	2325.73
584.88	2317.21
585.23	2307.83
585.58	2297.93
585.93	2287.96
586.28	2278.69
586.63	2269.94
586.98	2261.93
587.34	2253.76
587.69	2244.25
588.04	2234.91
588.39	2226.38
588.74	2217.49
589.09	2208.48
589.44	2198.85
589.79	2190.00
590.14	2182.27
590.49	2174.01
590.84	2164.76
591.19	2156.67
591.54	2147.79
591.89	2137.75
592.25	2128.86
592.60	2119.01
592.95	2109.79
593.30	2100.43
593.65	2090.49
594.00	2080.82
594.35	2072.40
594.70	2063.00
595.05	2054.20
595.40	2045.12
595.75	2035.60
596.10	2027.15
596.45	2018.57
596.80	2010.48
597.15	2002.23
597.50	1993.00
597.85	1984.32
598.19	1975.75
598.54	1966.94
598.89	1959.14
599.24	1952.38
599.59	1944.83
599.94	1938.10
600.29	1930.30
600.64	1922.26
600.99	1913.77
601.34	1906.41
601.69	1897.43
602.04	1889.20
602.39	1881.20
602.74	1873.40
603.08	1866.67
603.43	1859.50
603.78	1851.60
604.13	1843.62
604.48	1835.54
604.83	1828.40
605.18	1821.27
605.53	1813.37
605.87	1805.55
606.22	1798.28
606.57	1790.64
606.92	1782.13
607.27	1773.85
607.62	1766.42
607.96	1759.50
608.31	1753.23
608.66	1745.29
609.01	1737.74
609.36	1730.06
609.70	1722.00
610.05	1714.51
610.40	1706.09
610.75	1697.38
611.10	1689.66
611.44	1680.65
611.79	1671.65
612.14	1662.27
612.49	1652.70
612.83	1644.13
613.18	1634.55
613.53	1625.10
613.88	1615.00
614.22	1606.32
614.57	1597.16
614.92	1587.81
615.27	1578.30
615.61	1568.57
615.96	1559.53
616.31	1550.97
616.65	1542.95
617.00	1534.66
617.35	1525.75
617.70	1516.82
618.04	1507.67
618.39	1498.33
618.74	1489.73
619.08	1480.99
619.43	1472.94
619.78	1464.97
620.12	1456.80
620.47	1449.18
620.82	1440.59
621.16	1432.43
621.51	1424.01
621.85	1415.70
622.20	1407.04
622.55	1398.72
622.89	1390.64
623.24	1382.55
623.59	1373.73
623.93	1365.21
624.28	1356.93
624.62	1348.63
624.97	1340.44
625.32	1332.73
625.66	1325.04
626.01	1317.81
626.35	1310.49
626.70	1302.49
627.04	1295.15
627.39	1287.50
627.73	1279.75
628.08	1273.03
628.43	1265.47
628.77	1257.95
629.12	1250.55
629.46	1243.94
629.81	1236.43
630.15	1228.91
630.50	1221.72
630.84	1214.49
631.19	1207.09
631.53	1200.10
631.88	1192.53
632.22	1184.99
632.57	1177.98
632.91	1170.63
633.26	1162.83
633.60	1155.75
633.95	1149.03
634.29	1141.52
634.64	1134.76
634.98	1127.68
635.32	1120.33
635.67	1113.86
636.01	1107.01
636.36	1100.12
636.70	1093.38
637.05	1087.05
637.39	1080.61
637.73	1074.10
638.08	1068.22
638.42	1062.32
638.77	1055.75
639.11	1049.37
639.45	1043.15
639.80	1036.69
640.14	1030.28
640.49	1024.30
640.83	1017.88
641.17	1011.42
641.52	1005.41
641.86	998.75
642.20	992.48
642.55	985.66
642.89	979.05
643.23	972.76
643.58	966.93
643.92	960.54
644.26	954.19
644.61	948.16
644.95	941.91
645.29	935.41
645.64	928.77
645.98	922.46
646.32	916.66
646.66	910.57
647.01	904.51
647.35	898.62
647.69	892.16
648.04	886.25
648.38	880.25
648.72	874.23
649.06	868.19
649.41	862.15
649.75	856.42
650.09	850.82
650.43	844.85
650.78	838.60
651.12	832.46
651.46	826.71
651.80	820.77
652.14	815.00
652.49	808.95
652.83	803.16
653.17	797.24
653.51	791.04
653.85	785.36
654.20	779.44
654.54	773.60
654.88	768.16
655.22	762.47
655.56	756.67
655.90	750.67
656.25	745.08
656.59	739.50
656.93	734.34
657.27	728.95
657.61	723.45
657.95	718.37
658.29	713.33
658.64	708.10
658.98	702.94
659.32	697.42
659.66	692.46
660.00	687.08
660.34	681.87
660.68	676.82
661.02	671.64
661.36	666.98
661.70	662.08
662.05	657.33
662.39	652.74
662.73	648.40
663.07	644.06
663.41	639.75
663.75	635.24
664.09	630.43
664.43	625.65
664.77	621.26
665.11	616.67
665.45	612.32
665.79	607.89
666.13	603.27
666.47	599.09
666.81	594.91
667.15	590.88
667.49	587.00
667.83	583.15
668.17	579.40
668.51	575.45
668.85	571.76
669.19	568.23
669.53	564.20
669.87	560.00
670.21	556.14
670.55	552.11
670.89	548.74
671.23	545.36
671.57	542.01
671.91	538.48
672.25	534.89
672.58	531.31
672.92	527.77
673.26	524.62
673.60	521.28
673.94	517.74
674.28	514.48
674.62	511.23
674.96	507.98
675.30	504.81
675.64	501.55
675.97	498.36
676.31	495.10
676.65	492.24
676.99	489.61
677.33	486.61
677.67	483.68
678.01	480.55
678.34	477.50
678.68	474.53
679.02	471.51
679.36	468.70
679.70	465.91
680.04	463.12
680.37	460.19
680.71	457.50
681.05	454.90
681.39	452.17
681.73	449.42
682.06	446.94
682.40	444.25
682.74	441.69
683.08	439.05
683.42	436.49
683.75	433.86
684.09	431.22
684.43	428.73
684.77	426.15
685.10	423.56
685.44	421.12
685.78	418.69
686.12	416.40
686.45	414.00
686.79	411.66
687.13	409.44
687.46	407.29
687.80	404.98
688.14	402.63
688.48	400.55
688.81	398.35
689.15	395.97
689.49	393.80
689.82	391.48
690.16	389.19
690.50	386.86
690.83	384.56
691.17	382.34
691.51	380.24
691.84	378.14
692.18	375.99
692.52	374.03
692.85	372.11
693.19	370.20
693.52	368.20
693.86	366.26
694.20	364.26
694.53	362.28
694.87	360.28
695.21	358.41
695.54	356.38
695.88	354.44
696.21	352.60
696.55	350.73
696.88	349.05
697.22	347.19
697.56	345.60
697.89	344.00
698.23	342.33
698.56	340.65
698.90	339.13
699.23	337.48
699.57	335.82
699.90	334.11
700.24	332.42
700.58	330.86
700.91	329.29
701.25	327.94
701.58	326.53
701.92	325.20
702.25	323.83
702.59	322.33
702.92	321.01
703.26	319.77
703.59	318.55
703.93	317.37
704.26	316.22
704.60	314.90
704.93	313.65
705.26	312.42
705.60	311.13
705.93	309.93
706.27	308.78
706.60	307.67
706.94	306.62
707.27	305.46
707.61	304.36
707.94	303.19
708.27	301.91
708.61	300.74
708.94	299.59
709.28	298.46
709.61	297.44
709.94	296.44
710.28	295.27
710.61	294.27
710.95	293.13
711.28	292.16
711.61	291.09
711.95	290.11
712.28	289.11
712.61	288.26
712.95	287.37
713.28	286.56
713.61	285.60
713.95	284.59
714.28	283.71
714.61	282.79
714.95	281.91
715.28	281.03
715.61	280.06
715.95	279.10
716.28	278.23
716.61	277.37
716.95	276.49
717.28	275.72
717.61	274.88
717.94	274.04
718.28	273.21
718.61	272.55
718.94	271.72
719.27	270.99
719.61	270.18
719.94	269.32
720.27	268.55
720.60	267.83
720.94	267.20
721.27	266.44
721.60	265.77
721.93	265.13
722.27	264.59
722.60	263.96
722.93	263.34
723.26	262.72
723.59	262.12
723.93	261.49
724.26	260.87
724.59	260.24
724.92	259.71
725.25	259.25
725.59	258.59
725.92	258.11
726.25	257.65
726.58	257.10
726.91	256.56
727.24	256.05
727.57	255.47
727.91	254.90
728.24	254.49
728.57	254.03
728.90	253.54
729.23	252.96
729.56	252.61
729.89	252.23
730.22	251.75
730.55	251.30
730.89	250.89
731.22	250.42
731.55	249.95
731.88	249.42
732.21	248.86
732.54	248.46
732.87	247.94
733.20	247.30
733.53	246.90
733.86	246.51
734.19	246.01
734.52	245.71
734.85	245.41
735.18	245.02
735.51	244.68
735.84	244.29
736.17	243.89
736.50	243.41
736.83	243.26
737.16	242.82
737.49	242.49
737.82	242.08
738.15	241.75
738.48	241.41
738.81	241.08
739.14	240.78
739.47	240.41
739.80	240.06
740.13	239.83
740.46	239.49
740.79	239.19
741.12	238.90
741.45	238.49
741.78	238.05
742.11	237.74
742.44	237.31
742.77	237.04
743.10	236.80
743.43	236.53
743.75	235.92
744.08	235.92
744.41	235.48
744.74	235.20
745.07	234.87
745.40	234.66
745.73	234.44
746.06	234.08
746.39	233.83
746.71	233.53
747.04	233.30
747.37	232.97
747.70	232.64
748.03	232.37
748.36	232.19
748.68	231.96
749.01	231.67
749.34	231.40
749.67	231.11
750.00	230.83
750.33	230.73
750.65	230.57
750.98	230.11
751.31	229.94
751.64	229.66
751.97	229.54
752.29	229.27
752.62	228.94
752.95	228.69
753.28	228.45
753.60	228.30
753.93	228.13
754.26	228.02
754.59	227.86
754.91	227.63
755.24	227.38
755.57	227.23
755.90	227.08
756.22	226.95
756.55	226.74
756.88	226.55
757.20	226.16
757.53	225.89
757.86	225.69
758.19	225.49
758.51	225.37
758.84	225.09
759.17	224.92
759.49	224.79
759.82	224.79
760.15	224.60
760.47	224.38
760.80	224.05
761.13	223.85
761.45	223.61
761.78	223.39
762.11	223.26
762.43	223.06
762.76	222.90
763.08	222.71
763.41	222.67
763.74	222.50
764.06	222.33
764.39	222.22
764.71	222.00
765.04	221.85
765.37	221.71
765.69	221.58
766.02	221.45
766.34	221.32
766.67	221.15
767.00	221.02
767.32	220.97
767.65	220.98
767.97	220.88
768.30	220.82
768.62	220.76
768.95	220.62
769.27	220.46
769.60	220.36
769.92	220.30
770.25	220.09
770.57	219.96
770.90	219.84
771.22	219.76
771.55	219.75
771.87	219.72
772.20	219.57
772.52	219.53
772.85	219.67
773.17	219.55
773.50	219.36
773.82	219.30
774.15	219.14
774.47	218.97
774.80	218.85
775.12	218.75
775.45	218.66
775.77	218.55
776.09	218.45
776.42	218.36
776.74	218.23
777.07	218.16
777.39	218.09
777.72	218.04
778.04	217.95
778.36	217.87
778.69	217.79
779.01	217.77
779.33	217.62
779.66	217.31
779.98	217.31
780.31	217.29
780.63	217.28
780.95	217.28
781.28	217.22
781.60	217.12
781.92	217.06
782.25	217.00
782.57	216.95
782.89	216.94
783.22	216.82
783.54	216.76
783.86	216.71
784.19	216.68
784.51	216.75
784.83	216.70
785.16	216.68
785.48	216.60
785.80	216.60
786.12	216.60
786.45	216.51
786.77	216.42
787.09	216.33
787.42	216.18
787.74	216.12
788.06	216.09
788.38	216.15
788.71	216.06
789.03	216.02
789.35	216.05
789.67	215.95
789.99	215.96
790.32	215.97
790.64	215.94
790.96	216.01
791.28	215.80
791.61	215.74
791.93	215.66
792.25	215.67
792.57	215.68
792.89	215.54
793.21	215.51
793.54	215.43
793.86	215.44
794.18	215.50
794.50	215.49
794.82	215.41
795.14	215.26
795.47	215.28
795.79	215.30
796.11	215.18
796.43	215.15
796.75	215.14
797.07	215.03
797.39	214.98
797.71	214.80
798.04	214.80
798.36	214.74
798.68	214.70
799.00	214.63
799.32	214.51
799.64	214.50
799.96	214.46
800.28	214.46
800.60	214.37
800.92	214.28
801.24	214.11
801.56	214.15
801.89	214.16
802.21	214.17
802.53	214.06
802.85	214.10
803.17	214.09
803.49	213.95
803.81	213.94
804.13	213.95
804.45	213.93
804.77	213.97
805.09	213.96
805.41	213.95
805.73	213.91
806.05	213.84
806.37	213.78
806.69	213.72
807.01	213.71
807.33	213.74
807.65	213.66
807.97	213.80
808.28	213.77
808.60	213.71
808.92	213.66
809.24	213.70
809.56	213.64
809.88	213.67
810.20	213.72
810.52	213.74
810.84	213.70
811.16	213.67
811.48	213.60
811.80	213.57
812.12	213.50
812.43	213.49
812.75	213.47
813.07	213.52
813.39	213.54
813.71	213.55
814.03	213.46
814.35	213.50
814.67	213.37
814.98	213.28
815.30	213.35
815.62	213.29
815.94	213.21
816.26	213.20
816.58	213.12
816.89	213.09
817.21	212.99
817.53	212.98
817.85	212.95
818.17	212.92
818.48	213.00
818.80	213.09
819.12	213.11
819.44	213.09
819.76	213.00
820.07	212.94
820.39	212.88
820.71	212.90
821.03	212.89
821.34	212.84
821.66	212.83
821.98	212.79
822.30	212.80
822.61	212.90
822.93	212.85
823.25	212.77
823.57	212.71
823.88	212.74
824.20	212.72
824.52	212.75
824.83	212.68
825.15	212.59
825.47	212.51
825.79	212.47
826.10	212.42
826.42	212.49
826.74	212.61
827.05	212.60
827.37	212.57
827.69	212.57
828.00	212.66
828.32	212.68
828.64	212.63
828.95	212.74
829.27	212.68
829.58	212.64
829.90	212.70
830.22	212.69
830.53	212.64
830.85	212.61
831.17	212.58
831.48	212.64
831.80	212.62
832.11	212.62
832.43	212.60
832.75	212.64
833.06	212.67
833.38	212.58
833.69	212.56
834.01	212.57
834.32	212.55
834.64	212.53
834.96	212.51
835.27	212.44
835.59	212.31
835.90	212.30
836.22	212.32
836.53	212.33
836.85	212.34
837.16	212.62
837.48	212.55
837.79	212.57
838.11	212.57
838.42	212.59
838.74	212.63
839.05	212.63
839.37	212.56
839.68	212.56
840.00	212.50
840.31	212.46
840.63	212.49
840.94	212.44
841.26	212.39
841.57	212.37
841.88	212.45
842.20	212.47
842.51	212.39
842.83	212.36
843.14	212.45
843.46	212.50
843.77	212.37
844.08	212.39
844.40	212.32
844.71	212.31
845.03	212.29
845.34	212.30
845.65	212.25
845.97	212.26
846.28	212.17
846.60	212.15
846.91	212.14
847.22	212.11
847.54	212.16
847.85	212.16
848.16	212.11
848.48	212.05
848.79	212.03
849.10	212.10
849.42	212.17
849.73	212.06
850.04	211.99
850.36	211.86
850.67	211.90
850.98	211.90
851.30	211.91
851.61	211.91
851.92	211.81
852.23	211.85
852.55	211.84
852.86	211.86
853.17	211.97
853.49	212.00
853.80	212.05
854.11	211.98
854.42	211.97
854.74	211.98
855.05	212.00
855.36	212.00
855.67	211.92
855.99	211.89
856.30	212.09
856.61	212.12
856.92	212.15
857.23	212.09
857.55	212.15
857.86	212.13
858.17	212.14
858.48	212.22
858.79	212.15
859.11	212.19
859.42	212.13
859.73	212.06
860.04	212.03
860.35	211.94
860.66	211.95
860.98	211.99
861.29	212.05
861.60	211.98
861.91	211.96
862.22	211.96
862.53	211.95
862.84	211.70
863.16	211.66
863.47	211.59
863.78	211.61
864.09	211.55
864.40	211.57
864.71	211.55
865.02	211.40
865.33	211.38
865.64	211.33
865.95	211.39
866.27	211.50
866.58	211.44
866.89	211.51
867.20	211.48
867.51	211.43
867.82	211.40
868.13	211.48
868.44	211.45
868.75	211.45
869.06	211.41
869.37	211.42
869.68	211.40
869.99	211.45
870.30	211.42
870.61	211.45
870.92	211.38
871.23	211.35
871.54	211.40
871.85	211.43
872.16	211.42
872.47	211.34
872.78	211.24
873.09	211.28
873.40	211.22
873.71	211.22
874.02	211.27
874.33	211.25
874.64	211.24
874.95	211.29
875.26	211.24
875.56	211.29
875.87	211.24
876.18	211.28
876.49	211.52
876.80	211.52
877.11	211.48
877.42	211.43
877.73	211.37
878.04	211.38
878.35	211.38
878.66	211.38
878.96	211.37
879.27	211.35
879.58	211.35
879.89	211.35
880.20	211.43
880.51	211.38
880.82	211.41
881.12	211.33
881.43	211.26
881.74	211.28
882.05	211.20
882.36	211.27
882.67	211.25
882.97	211.04
883.28	211.03
883.59	211.01
883.90	211.03
884.21	211.12
884.51	211.11
884.82	211.09
885.13	211.17
885.44	211.27
885.74	211.25
886.05	211.25
886.36	211.24
886.67	211.10
886.98	211.20
887.28	211.17
887.59	211.23
887.90	211.23
888.20	211.20
888.51	211.25
888.82	211.27
889.13	211.25
889.43	211.34
889.74	211.31
890.05	211.37
890.35	211.45
890.66	211.38
890.97	211.40
891.28	211.41
891.58	211.38
891.89	211.39
892.20	211.41
892.50	211.41
892.81	211.41
893.12	211.42
893.42	211.32
893.73	211.33
894.04	211.29
894.34	211.33
894.65	211.37
894.95	211.36
895.26	211.30
895.57	211.34
895.87	211.23
896.18	211.23
896.48	211.19
896.79	211.11
897.10	211.19
897.40	211.15
897.71	211.16
898.01	211.08
898.32	211.07
898.63	211.07
898.93	211.04
899.24	211.04
899.54	211.09
899.85	211.12
900.15	211.10
900.46	211.15
900.76	211.12
901.07	211.15
901.38	211.08
901.68	211.11
901.99	211.09
902.29	211.05
902.60	211.08
902.90	211.08
903.21	211.03
903.51	211.00
903.82	211.04
904.12	211.00
904.43	211.05
904.73	211.04
905.03	210.98
905.34	211.15
905.64	211.16
905.95	211.17
906.25	211.12
906.56	211.15
906.86	211.16
907.17	211.22
907.47	211.24
907.77	211.23
908.08	211.19
908.38	211.15
908.69	211.14
908.99	211.14
909.30	211.20
909.60	211.17
909.90	211.20
910.21	211.09
910.51	211.11
910.81	211.06
911.12	211.07
911.42	211.13
911.73	210.99
912.03	211.00
912.33	210.98
912.64	210.96
912.94	210.95
913.24	210.89
913.55	210.87
913.85	210.83
914.15	210.86
914.46	210.88
914.76	210.92
915.06	210.93
915.37	210.93
915.67	210.83
915.97	210.93
916.27	210.91
916.58	211.05
916.88	211.06
917.18	211.12
917.49	211.23
917.79	211.23
918.09	211.25
918.39	211.30
918.70	211.33
919.00	211.37
919.30	211.50
919.60	211.57
919.91	211.54
920.21	211.55
920.51	211.54
920.81	211.58
921.12	211.60
921.42	211.63
921.72	211.61
922.02	211.65
922.32	211.68
922.63	211.68
922.93	211.70
923.23	211.71
923.53	211.67
923.83	211.55
924.13	211.53
924.44	211.55
924.74	211.61
925.04	211.65
925.34	211.68
925.64	211.54
925.94	211.53
926.24	211.56
926.55	211.53
926.85	211.60
927.15	211.61
927.45	211.60
927.75	211.55
928.05	211.60
928.35	211.57
928.65	211.57
928.95	211.56
929.26	211.51
929.56	211.53
929.86	211.54
930.16	211.45
930.46	211.45
930.76	211.42
931.06	211.27
931.36	211.22
931.66	211.21
931.96	211.21
932.26	211.17
932.56	211.16
932.86	211.23
933.16	211.21
933.46	211.15
933.76	211.08
934.06	211.17
934.36	211.23
934.66	211.24
934.96	211.23
935.26	211.20
935.56	211.24
935.86	211.20
936.16	211.19
936.46	211.24
936.76	211.15
937.06	211.17
937.36	211.18
937.66	211.16
937.96	211.11
938.26	211.08
938.56	211.04
938.86	211.06
939.16	211.04
939.46	211.04
939.76	211.02
940.06	211.04
940.35	211.03
940.65	210.90
940.95	210.98
941.25	210.95
941.55	210.94
941.85	210.90
942.15	210.91
942.45	210.96
942.75	211.01
943.04	211.14
943.34	211.19
943.64	211.21
943.94	211.18
944.24	211.17
944.54	211.20
944.84	211.21
945.13	211.12
945.43	211.10
945.73	211.13
946.03	211.10
946.33	211.09
946.62	210.96
946.92	210.99
947.22	210.91
947.52	210.87
947.82	210.90
948.11	210.90
948.41	210.88
948.71	210.84
949.01	210.79
949.31	210.69
949.60	210.66
949.90	210.65
950.20	210.64
950.50	210.70
950.79	210.73
951.09	210.74
951.39	210.75
951.69	210.71
951.98	210.73
952.28	210.76
952.58	210.76
952.87	210.82
953.17	210.84
953.47	210.86
953.76	210.92
954.06	210.87
954.36	210.86
954.66	210.86
954.95	210.90
955.25	210.91
955.55	210.98
955.84	210.94
956.14	211.03
956.44	211.02
956.73	210.99
957.03	210.97
957.32	211.01
957.62	211.00
957.92	211.04
958.21	211.02
958.51	211.22
958.81	211.23
959.10	211.31
959.40	211.33
959.69	211.41
959.99	211.42
960.29	211.52
960.58	211.50
960.88	211.62
961.17	211.58
961.47	211.59
961.76	211.60
962.06	211.65
962.36	211.55
962.65	211.59
962.95	211.57
963.24	211.59
963.54	211.62
963.83	211.69
964.13	211.72
964.42	211.70
964.72	211.62
965.01	211.63
965.31	211.65
965.60	211.57
965.90	211.63
966.19	211.62
966.49	211.58
966.78	211.54
967.08	211.52
967.37	211.55
967.67	211.51
967.96	211.50
968.26	211.45
968.55	211.49
968.85	211.51
969.14	211.54
969.43	211.56
969.73	211.56
970.02	211.56
970.32	211.59
970.61	211.54
970.91	211.48
971.20	211.47
971.49	211.42
971.79	211.47
972.08	211.37
972.38	211.35
972.67	211.35
972.96	211.40
973.26	211.36
973.55	211.47
973.85	211.48
974.14	211.55
974.43	211.53
974.73	211.47
975.02	211.41
975.31	211.38
975.61	211.32
975.90	211.25
976.19	211.19
976.49	211.20
976.78	211.20
977.07	211.24
977.37	211.22
977.66	211.15
977.95	211.15
978.24	211.15
978.54	211.24
978.83	211.22
979.12	211.19
979.42	211.16
979.71	211.08
980.00	211.05
980.29	210.94
980.59	210.94
980.88	211.00
981.17	211.08
981.46	211.09
981.76	211.07
982.05	211.13
982.34	211.14
982.63	211.05
982.93	211.10
983.22	211.04
983.51	211.06
983.80	211.10
984.09	211.11
984.39	211.05
984.68	210.95
984.97	210.94
985.26	210.95
985.55	210.97
985.85	210.89
986.14	210.88
986.43	210.88
986.72	210.89
987.01	210.88
987.30	210.79
987.59	210.74
987.89	210.77
988.18	210.71
988.47	210.70
988.76	210.68
989.05	210.67
989.34	210.67
989.63	210.71
989.92	210.64
990.22	210.65
990.51	210.67
990.80	210.70
991.09	210.73
991.38	210.74
991.67	210.63
991.96	210.62
992.25	210.71
992.54	210.71
992.83	210.70
993.12	210.67
993.41	210.75
993.70	210.84
993.99	210.78
994.28	210.82
994.58	210.81
994.87	210.84
995.16	210.81
995.45	210.77
995.74	210.73
996.03	210.79
996.32	210.84
996.61	210.85
996.90	210.83
997.19	210.80
997.48	210.83
997.77	210.87
998.06	210.97
998.34	210.90
998.63	210.98
998.92	211.05
999.21	211.03
999.50	211.05
999.79	211.01
1000.08	211.07
1000.37	211.07
1000.66	211.06
1000.95	211.08
1001.24	211.06
1001.53	211.11
1001.82	211.06
1002.11	211.00
1002.40	210.99
1002.68	211.04
1002.97	211.15
1003.26	211.17
1003.55	211.11
1003.84	211.15
1004.13	211.15
1004.42	211.16
1004.71	211.11
1004.99	211.01
1005.28	211.10
1005.57	211.09
1005.86	211.02
1006.15	211.07
1006.44	211.02
1006.72	211.07
1007.01	211.09
1007.30	211.10
1007.59	211.09
1007.88	211.10
1008.17	211.15
1008.45	211.02
1008.74	210.93
1009.03	210.86
1009.32	210.89
1009.60	210.90
1009.89	210.82
1010.18	210.69
1010.47	210.65
1010.76	210.59
1011.04	210.65
1011.33	210.66
1011.62	210.67
1011.91	210.72
1012.19	210.63
1012.48	210.60
1012.77	210.62
1013.05	210.61
1013.34	210.66
1013.63	210.64
1013.92	210.68
1014.20	210.68
1014.49	210.75
1014.78	210.78
1015.06	210.74
1015.35	210.74
1015.64	210.71
1015.92	210.73
1016.21	210.72
1016.50	210.75
1016.78	210.84
1017.07	210.83
1017.36	210.76
1017.64	210.68
1017.93	210.69
1018.22	210.69
1018.50	210.73
1018.79	210.70
1019.08	210.63
1019.36	210.56
1019.65	210.56
1019.93	210.59
1020.22	210.62
1020.51	210.70
1020.79	210.61
1021.08	210.20
1021.36	210.85
1021.65	210.75
1021.94	209.75
1022.22	210.10
1022.51	210.60
1022.79	211.70
1023.08	211.35
1023.36	212.75
1023.65	208.55
>>>>>End Processed Spectral Data<<<<<
