SpectraSuite Data File
++++++++++++++++++++++++++++++++++++
Date: Mon Feb 25 17:32:31 EST 2013
User: group
Dark Spectrum Present: No
Reference Spectrum Present: No
Number of Sampled Component Spectra: 1
Spectrometers: USB2E7196
Integration Time (usec): 52000 (USB2E7196)
Spectra Averaged: 20 (USB2E7196)
Boxcar Smoothing: 10 (USB2E7196)
Correct for Electrical Dark: No (USB2E7196)
Strobe/Lamp Enabled: No (USB2E7196)
Correct for Detector Non-linearity: No (USB2E7196)
Correct for Stray Light: No (USB2E7196)
Number of Pixels in Processed Spectrum: 2048
>>>>>Begin Processed Spectral Data<<<<<
339.09	0.00
339.48	199.35
339.86	199.60
340.24	202.05
340.63	203.70
341.01	207.05
341.39	205.35
341.78	208.40
342.16	208.55
342.54	209.85
342.93	198.18
343.31	208.18
343.69	208.68
344.07	209.15
344.46	209.53
344.84	209.89
345.22	210.11
345.60	210.37
345.99	210.51
346.37	210.64
346.75	210.74
347.13	210.82
347.52	210.86
347.90	210.97
348.28	211.05
348.66	211.05
349.05	211.02
349.43	211.12
349.81	211.22
350.19	211.31
350.57	211.36
350.96	211.40
351.34	211.48
351.72	211.56
352.10	211.68
352.48	211.77
352.87	211.87
353.25	211.93
353.63	211.95
354.01	212.02
354.39	212.09
354.77	212.09
355.15	212.20
355.54	212.29
355.92	212.33
356.30	212.33
356.68	212.58
357.06	212.67
357.44	212.64
357.82	212.62
358.20	212.68
358.58	212.75
358.97	212.86
359.35	213.00
359.73	213.18
360.11	213.29
360.49	213.41
360.87	213.41
361.25	213.47
361.63	213.61
362.01	213.64
362.39	213.71
362.77	213.84
363.15	213.84
363.53	213.85
363.91	213.93
364.29	214.01
364.67	213.89
365.05	213.96
365.43	214.06
365.81	214.13
366.19	214.35
366.57	214.44
366.95	214.47
367.33	214.39
367.71	214.33
368.09	214.39
368.47	214.37
368.85	214.37
369.23	214.44
369.61	214.42
369.99	214.48
370.37	214.42
370.75	214.49
371.13	214.47
371.51	214.34
371.89	214.30
372.27	214.32
372.65	214.25
373.03	214.20
373.41	214.23
373.78	214.25
374.16	214.12
374.54	213.99
374.92	213.96
375.30	213.94
375.68	213.81
376.06	213.72
376.44	213.56
376.82	213.53
377.19	213.46
377.57	213.43
377.95	213.37
378.33	213.33
378.71	213.12
379.09	213.05
379.47	213.17
379.84	213.07
380.22	212.95
380.60	212.98
380.98	212.84
381.36	212.74
381.73	212.56
382.11	212.52
382.49	212.52
382.87	212.43
383.25	212.38
383.62	212.57
384.00	212.45
384.38	212.50
384.76	212.52
385.13	212.58
385.51	212.48
385.89	212.33
386.27	212.35
386.64	212.35
387.02	212.32
387.40	212.21
387.78	212.18
388.15	212.10
388.53	212.04
388.91	212.06
389.29	212.01
389.66	212.06
390.04	211.99
390.42	211.99
390.79	211.99
391.17	212.03
391.55	211.77
391.92	211.78
392.30	211.73
392.68	211.58
393.05	211.49
393.43	211.47
393.81	211.55
394.18	211.52
394.56	211.57
394.94	211.61
395.31	211.58
395.69	211.68
396.06	211.74
396.44	211.76
396.82	211.77
397.19	211.90
397.57	211.92
397.95	212.04
398.32	211.98
398.70	212.03
399.07	212.06
399.45	212.14
399.82	212.18
400.20	212.25
400.58	212.39
400.95	212.38
401.33	212.51
401.70	212.69
402.08	212.77
402.45	212.76
402.83	212.90
403.20	212.99
403.58	213.00
403.95	213.17
404.33	213.23
404.71	213.37
405.08	213.52
405.46	213.65
405.83	213.76
406.21	213.92
406.58	214.03
406.96	214.18
407.33	214.45
407.70	214.65
408.08	214.97
408.45	215.14
408.83	215.40
409.20	215.63
409.58	215.75
409.95	216.00
410.33	216.35
410.70	216.58
411.08	216.97
411.45	217.47
411.82	217.79
412.20	218.26
412.57	218.74
412.95	219.05
413.32	219.55
413.69	220.06
414.07	220.56
414.44	221.25
414.82	221.90
415.19	222.66
415.56	223.40
415.94	224.14
416.31	225.04
416.68	225.92
417.06	226.96
417.43	227.89
417.81	229.00
418.18	230.04
418.55	231.28
418.93	232.44
419.30	233.63
419.67	235.05
420.04	236.41
420.42	237.93
420.79	239.80
421.16	241.53
421.54	243.32
421.91	245.24
422.28	247.05
422.66	249.04
423.03	250.97
423.40	253.02
423.77	255.27
424.15	257.54
424.52	259.79
424.89	262.24
425.26	264.67
425.64	267.00
426.01	269.67
426.38	272.28
426.75	275.10
427.13	277.86
427.50	280.72
427.87	283.80
428.24	286.87
428.61	289.65
428.99	292.92
429.36	296.35
429.73	299.75
430.10	303.22
430.47	306.69
430.85	310.25
431.22	314.21
431.59	318.23
431.96	322.15
432.33	326.62
432.70	330.90
433.08	335.85
433.45	340.49
433.82	345.06
434.19	350.20
434.56	355.07
434.93	359.85
435.30	364.62
435.68	369.83
436.05	374.96
436.42	380.10
436.79	384.76
437.16	389.80
437.53	395.12
437.90	400.36
438.27	405.64
438.64	411.05
439.01	415.97
439.38	420.32
439.75	424.47
440.13	429.25
440.50	433.72
440.87	437.32
441.24	440.91
441.61	444.97
441.98	448.02
442.35	451.65
442.72	455.22
443.09	458.75
443.46	460.83
443.83	462.22
444.20	463.47
444.57	465.15
444.94	465.90
445.31	466.63
445.68	467.36
446.05	467.46
446.42	466.71
446.79	465.85
447.16	465.12
447.53	464.48
447.90	462.29
448.27	460.19
448.64	457.45
449.01	455.46
449.37	451.93
449.74	448.40
450.11	444.26
450.48	439.86
450.85	435.21
451.22	431.35
451.59	427.55
451.96	423.96
452.33	419.17
452.70	414.76
453.07	409.60
453.43	404.42
453.80	399.41
454.17	394.77
454.54	390.32
454.91	385.53
455.28	380.77
455.65	376.44
456.02	372.11
456.38	368.30
456.75	363.65
457.12	359.77
457.49	356.02
457.86	352.32
458.23	349.11
458.59	345.62
458.96	342.00
459.33	338.84
459.70	335.69
460.07	333.22
460.43	330.44
460.80	327.89
461.17	325.54
461.54	323.13
461.91	320.72
462.27	318.34
462.64	316.23
463.01	314.04
463.38	311.87
463.74	309.65
464.11	307.82
464.48	306.30
464.85	304.61
465.21	303.22
465.58	301.91
465.95	300.18
466.32	298.77
466.68	297.40
467.05	296.02
467.42	294.60
467.78	293.10
468.15	291.80
468.52	290.77
468.88	289.49
469.25	288.34
469.62	287.52
469.98	286.50
470.35	285.56
470.72	284.75
471.08	283.86
471.45	283.14
471.82	282.34
472.18	281.43
472.55	280.81
472.92	280.17
473.28	279.54
473.65	278.99
474.02	278.49
474.38	278.06
474.75	277.70
475.11	277.29
475.48	277.12
475.85	276.90
476.21	276.72
476.58	276.53
476.94	276.52
477.31	276.40
477.67	276.38
478.04	276.51
478.41	276.65
478.77	276.99
479.14	277.13
479.50	277.40
479.87	277.79
480.23	278.25
480.60	278.56
480.96	278.88
481.33	279.60
481.69	280.24
482.06	280.90
482.42	281.61
482.79	282.45
483.15	283.31
483.52	284.34
483.88	285.31
484.25	286.40
484.61	287.45
484.98	288.60
485.34	289.84
485.71	291.07
486.07	292.39
486.44	293.66
486.80	295.09
487.17	296.62
487.53	298.43
487.90	300.22
488.26	302.11
488.62	304.20
488.99	306.07
489.35	308.20
489.72	310.57
490.08	313.00
490.44	315.43
490.81	318.11
491.17	320.68
491.54	323.48
491.90	326.36
492.26	329.57
492.63	332.89
492.99	336.42
493.36	340.02
493.72	343.94
494.08	348.02
494.45	352.31
494.81	356.88
495.17	361.57
495.54	366.45
495.90	371.43
496.26	376.60
496.63	382.15
496.99	387.91
497.35	393.75
497.72	399.93
498.08	406.38
498.44	413.00
498.80	420.27
499.17	427.76
499.53	435.45
499.89	443.44
500.26	451.44
500.62	459.83
500.98	468.70
501.34	477.86
501.71	487.28
502.07	496.95
502.43	507.10
502.79	517.22
503.16	527.77
503.52	538.74
503.88	550.02
504.24	561.62
504.60	573.50
504.97	585.92
505.33	598.47
505.69	611.86
506.05	625.30
506.41	638.73
506.78	652.50
507.14	666.83
507.50	681.31
507.86	696.22
508.22	711.50
508.59	727.12
508.95	742.98
509.31	759.17
509.67	775.79
510.03	792.56
510.39	810.00
510.75	827.50
511.12	845.43
511.48	863.78
511.84	882.40
512.20	901.09
512.56	920.24
512.92	939.83
513.28	959.13
513.64	978.73
514.00	998.72
514.37	1019.05
514.73	1039.55
515.09	1060.27
515.45	1081.12
515.81	1102.11
516.17	1123.06
516.53	1144.49
516.89	1165.90
517.25	1187.50
517.61	1209.02
517.97	1230.52
518.33	1252.28
518.69	1274.10
519.05	1296.08
519.41	1318.11
519.77	1340.52
520.13	1362.66
520.49	1384.40
520.85	1407.20
521.21	1429.71
521.57	1452.70
521.93	1474.62
522.29	1497.42
522.65	1519.92
523.01	1542.72
523.37	1564.85
523.73	1587.46
524.09	1609.70
524.45	1632.12
524.81	1654.50
525.17	1676.82
525.53	1699.13
525.89	1721.39
526.25	1743.42
526.61	1764.84
526.97	1786.46
527.33	1807.63
527.68	1828.97
528.04	1850.56
528.40	1870.49
528.76	1891.21
529.12	1911.71
529.48	1933.45
529.84	1953.84
530.20	1974.05
530.56	1994.11
530.91	2014.97
531.27	2035.25
531.63	2054.94
531.99	2074.48
532.35	2093.65
532.71	2112.56
533.07	2131.97
533.42	2150.27
533.78	2169.11
534.14	2187.41
534.50	2204.68
534.86	2222.76
535.21	2239.44
535.57	2256.84
535.93	2274.16
536.29	2290.99
536.65	2307.45
537.00	2322.65
537.36	2337.97
537.72	2353.44
538.08	2368.76
538.44	2383.66
538.79	2399.11
539.15	2413.95
539.51	2428.50
539.87	2443.56
540.22	2457.65
540.58	2472.08
540.94	2486.34
541.29	2499.20
541.65	2511.36
542.01	2524.29
542.37	2535.92
542.72	2548.25
543.08	2559.16
543.44	2571.07
543.79	2581.24
544.15	2591.32
544.51	2602.08
544.87	2613.00
545.22	2622.22
545.58	2630.60
545.94	2637.92
546.29	2643.91
546.65	2650.22
547.01	2656.53
547.36	2662.12
547.72	2668.11
548.07	2672.21
548.43	2676.17
548.79	2680.09
549.14	2684.70
549.50	2689.14
549.86	2693.13
550.21	2696.93
550.57	2700.81
550.92	2703.18
551.28	2705.72
551.64	2708.25
551.99	2710.86
552.35	2712.01
552.70	2714.31
553.06	2717.10
553.41	2719.90
553.77	2722.86
554.13	2725.14
554.48	2727.14
554.84	2728.40
555.19	2728.77
555.55	2729.47
555.90	2729.85
556.26	2730.48
556.61	2730.40
556.97	2728.96
557.32	2728.50
557.68	2726.81
558.03	2725.64
558.39	2724.39
558.74	2724.06
559.10	2723.23
559.45	2721.25
559.81	2720.25
560.16	2717.64
560.52	2714.95
560.87	2712.03
561.23	2708.39
561.58	2706.08
561.94	2702.93
562.29	2699.14
562.64	2696.88
563.00	2694.07
563.35	2691.91
563.71	2689.91
564.06	2687.65
564.42	2685.99
564.77	2683.78
565.12	2682.17
565.48	2678.79
565.83	2675.49
566.19	2671.91
566.54	2667.31
566.89	2663.67
567.25	2659.90
567.60	2656.63
567.96	2653.27
568.31	2649.93
568.66	2646.14
569.02	2641.09
569.37	2635.94
569.72	2632.58
570.08	2627.29
570.43	2621.74
570.78	2616.15
571.14	2609.67
571.49	2603.04
571.84	2597.04
572.20	2590.11
572.55	2583.46
572.90	2576.90
573.26	2570.12
573.61	2563.46
573.96	2556.98
574.31	2548.81
574.67	2540.56
575.02	2532.14
575.37	2523.27
575.72	2514.10
576.08	2506.27
576.43	2498.14
576.78	2490.28
577.13	2482.14
577.49	2474.25
577.84	2466.80
578.19	2459.07
578.54	2451.90
578.90	2445.14
579.25	2436.31
579.60	2427.13
579.95	2417.92
580.30	2409.57
580.66	2401.50
581.01	2392.32
581.36	2383.13
581.71	2374.95
582.06	2366.60
582.42	2358.55
582.77	2349.81
583.12	2341.23
583.47	2332.49
583.82	2324.29
584.17	2315.16
584.53	2305.91
584.88	2297.13
585.23	2287.63
585.58	2278.22
585.93	2268.50
586.28	2258.93
586.63	2250.32
586.98	2242.20
587.34	2233.82
587.69	2224.72
588.04	2215.53
588.39	2207.21
588.74	2198.28
589.09	2189.57
589.44	2180.25
589.79	2171.67
590.14	2163.81
590.49	2155.32
590.84	2146.41
591.19	2137.73
591.54	2129.02
591.89	2118.85
592.25	2109.47
592.60	2100.14
592.95	2090.89
593.30	2081.33
593.65	2071.80
594.00	2062.22
594.35	2053.95
594.70	2044.68
595.05	2036.09
595.40	2027.33
595.75	2017.86
596.10	2009.76
596.45	2001.17
596.80	1993.32
597.15	1984.96
597.50	1975.91
597.85	1967.29
598.19	1958.81
598.54	1950.06
598.89	1942.14
599.24	1935.79
599.59	1928.31
599.94	1921.47
600.29	1913.76
600.64	1905.84
600.99	1897.59
601.34	1890.47
601.69	1881.76
602.04	1873.71
602.39	1865.48
602.74	1857.50
603.08	1851.16
603.43	1843.99
603.78	1836.14
604.13	1828.09
604.48	1820.22
604.83	1813.15
605.18	1806.38
605.53	1798.83
605.87	1791.48
606.22	1784.61
606.57	1776.50
606.92	1768.57
607.27	1760.30
607.62	1752.98
607.96	1746.04
608.31	1739.82
608.66	1731.89
609.01	1724.35
609.36	1716.90
609.70	1709.27
610.05	1701.83
610.40	1693.30
610.75	1684.52
611.10	1676.95
611.44	1667.76
611.79	1658.74
612.14	1649.30
612.49	1639.84
612.83	1631.54
613.18	1621.87
613.53	1612.19
613.88	1602.61
614.22	1593.77
614.57	1584.66
614.92	1575.22
615.27	1566.27
615.61	1556.35
615.96	1547.37
616.31	1538.80
616.65	1530.90
617.00	1522.51
617.35	1513.84
617.70	1504.71
618.04	1495.85
618.39	1486.29
618.74	1477.95
619.08	1469.42
619.43	1461.25
619.78	1453.36
620.12	1444.85
620.47	1437.40
620.82	1428.88
621.16	1420.59
621.51	1412.11
621.85	1403.93
622.20	1395.46
622.55	1386.82
622.89	1378.75
623.24	1370.80
623.59	1362.13
623.93	1353.32
624.28	1345.08
624.62	1336.95
624.97	1328.85
625.32	1321.09
625.66	1313.87
626.01	1306.76
626.35	1299.63
626.70	1292.21
627.04	1284.65
627.39	1276.98
627.73	1269.38
628.08	1262.64
628.43	1255.21
628.77	1247.85
629.12	1240.53
629.46	1234.01
629.81	1226.80
630.15	1219.39
630.50	1211.87
630.84	1204.74
631.19	1197.61
631.53	1190.70
631.88	1183.14
632.22	1175.80
632.57	1168.86
632.91	1161.55
633.26	1153.91
633.60	1146.62
633.95	1139.61
634.29	1132.38
634.64	1125.72
634.98	1118.57
635.32	1111.53
635.67	1105.22
636.01	1098.63
636.36	1091.84
636.70	1085.31
637.05	1079.12
637.39	1073.03
637.73	1066.66
638.08	1060.90
638.42	1055.09
638.77	1048.43
639.11	1041.96
639.45	1036.03
639.80	1029.40
640.14	1022.93
640.49	1016.93
640.83	1010.66
641.17	1004.31
641.52	998.20
641.86	991.62
642.20	985.72
642.55	979.16
642.89	972.57
643.23	966.28
643.58	960.40
643.92	953.79
644.26	947.45
644.61	941.27
644.95	935.35
645.29	928.89
645.64	922.27
645.98	916.47
646.32	910.90
646.66	904.73
647.01	898.96
647.35	893.27
647.69	887.10
648.04	881.10
648.38	875.14
648.72	869.19
649.06	863.33
649.41	857.22
649.75	851.25
650.09	845.48
650.43	839.59
650.78	833.41
651.12	827.35
651.46	821.60
651.80	815.65
652.14	809.76
652.49	803.85
652.83	798.06
653.17	791.96
653.51	786.03
653.85	780.30
654.20	774.56
654.54	768.65
654.88	763.17
655.22	757.43
655.56	751.62
655.90	745.82
656.25	740.19
656.59	734.67
656.93	729.54
657.27	724.25
657.61	718.89
657.95	713.85
658.29	708.93
658.64	703.70
658.98	698.47
659.32	693.07
659.66	688.10
660.00	682.68
660.34	677.56
660.68	672.58
661.02	667.67
661.36	662.84
661.70	658.08
662.05	653.25
662.39	648.89
662.73	644.47
663.07	640.18
663.41	635.80
663.75	631.27
664.09	626.54
664.43	621.85
664.77	617.44
665.11	612.91
665.45	608.44
665.79	604.02
666.13	599.72
666.47	595.66
666.81	591.39
667.15	587.38
667.49	583.50
667.83	579.38
668.17	575.44
668.51	571.57
668.85	567.87
669.19	564.14
669.53	560.12
669.87	556.13
670.21	552.23
670.55	548.25
670.89	544.72
671.23	541.46
671.57	538.11
671.91	534.45
672.25	530.96
672.58	527.38
672.92	523.86
673.26	520.69
673.60	517.38
673.94	514.22
674.28	511.09
674.62	507.91
674.96	504.87
675.30	501.89
675.64	498.78
675.97	495.59
676.31	492.64
676.65	489.71
676.99	487.15
677.33	484.13
677.67	481.35
678.01	478.25
678.34	475.15
678.68	472.33
679.02	469.49
679.36	466.68
679.70	463.76
680.04	460.98
680.37	458.10
680.71	455.31
681.05	452.51
681.39	449.73
681.73	447.13
682.06	444.61
682.40	442.00
682.74	439.44
683.08	436.84
683.42	434.14
683.75	431.61
684.09	428.89
684.43	426.47
684.77	423.91
685.10	421.41
685.44	418.94
685.78	416.37
686.12	414.14
686.45	411.76
686.79	409.66
687.13	407.61
687.46	405.38
687.80	403.16
688.14	400.89
688.48	398.70
688.81	396.32
689.15	394.00
689.49	391.70
689.82	389.44
690.16	387.15
690.50	384.86
690.83	382.69
691.17	380.55
691.51	378.38
691.84	376.36
692.18	374.51
692.52	372.57
692.85	370.72
693.19	368.76
693.52	366.85
693.86	364.84
694.20	362.86
694.53	360.94
694.87	358.98
695.21	357.01
695.54	355.13
695.88	353.23
696.21	351.31
696.55	349.53
696.88	347.75
697.22	345.99
697.56	344.51
697.89	342.86
698.23	341.11
698.56	339.53
698.90	338.08
699.23	336.40
699.57	334.80
699.90	333.15
700.24	331.50
700.58	329.92
700.91	328.40
701.25	327.02
701.58	325.66
701.92	324.29
702.25	322.94
702.59	321.66
702.92	320.36
703.26	319.13
703.59	317.95
703.93	316.83
704.26	315.63
704.60	314.32
704.93	313.01
705.26	311.84
705.60	310.64
705.93	309.24
706.27	308.13
706.60	307.04
706.94	306.02
707.27	304.91
707.61	303.75
707.94	302.64
708.27	301.38
708.61	300.20
708.94	299.15
709.28	298.10
709.61	296.94
709.94	295.87
710.28	294.75
710.61	293.61
710.95	292.31
711.28	291.35
711.61	290.23
711.95	289.35
712.28	288.33
712.61	287.36
712.95	286.48
713.28	285.49
713.61	284.46
713.95	283.47
714.28	282.52
714.61	281.65
714.95	280.85
715.28	279.90
715.61	279.02
715.95	278.10
716.28	277.23
716.61	276.37
716.95	275.55
717.28	274.77
717.61	273.95
717.94	273.31
718.28	272.45
718.61	271.71
718.94	270.90
719.27	270.08
719.61	269.39
719.94	268.68
720.27	267.79
720.60	267.12
720.94	266.39
721.27	265.75
721.60	265.10
721.93	264.39
722.27	263.85
722.60	263.26
722.93	262.61
723.26	262.04
723.59	261.49
723.93	260.83
724.26	260.26
724.59	259.66
724.92	259.09
725.25	258.55
725.59	258.02
725.92	257.54
726.25	257.13
726.58	256.63
726.91	256.08
727.24	255.76
727.57	255.25
727.91	254.63
728.24	254.18
728.57	253.70
728.90	253.24
729.23	252.78
729.56	252.38
729.89	251.90
730.22	251.38
730.55	250.88
730.89	250.55
731.22	250.06
731.55	249.69
731.88	249.20
732.21	248.78
732.54	248.36
732.87	247.89
733.20	247.44
733.53	247.00
733.86	246.58
734.19	246.06
734.52	245.81
734.85	245.60
735.18	245.16
735.51	244.81
735.84	244.39
736.17	243.96
736.50	243.36
736.83	243.19
737.16	242.85
737.49	242.50
737.82	242.05
738.15	241.69
738.48	241.28
738.81	240.96
739.14	240.56
739.47	240.21
739.80	239.88
740.13	239.55
740.46	239.11
740.79	238.75
741.12	238.41
741.45	237.99
741.78	237.61
742.11	237.36
742.44	237.02
742.77	236.85
743.10	236.52
743.43	236.34
743.75	235.93
744.08	235.78
744.41	235.42
744.74	235.14
745.07	234.83
745.40	234.61
745.73	234.31
746.06	234.07
746.39	233.84
746.71	233.53
747.04	233.15
747.37	232.89
747.70	232.67
748.03	232.51
748.36	232.22
748.68	231.97
749.01	231.69
749.34	231.39
749.67	231.10
750.00	230.89
750.33	230.76
750.65	230.49
750.98	230.07
751.31	229.86
751.64	229.66
751.97	229.51
752.29	229.28
752.62	229.06
752.95	228.73
753.28	228.40
753.60	228.23
753.93	228.18
754.26	228.03
754.59	227.72
754.91	227.46
755.24	227.24
755.57	227.03
755.90	226.80
756.22	226.55
756.55	226.31
756.88	226.06
757.20	225.81
757.53	225.61
757.86	225.39
758.19	225.25
758.51	225.09
758.84	224.87
759.17	224.61
759.49	224.42
759.82	224.41
760.15	224.29
760.47	224.05
760.80	223.82
761.13	223.65
761.45	223.47
761.78	223.30
762.11	223.20
762.43	223.07
762.76	222.93
763.08	222.93
763.41	222.82
763.74	222.73
764.06	222.53
764.39	222.31
764.71	222.18
765.04	222.02
765.37	221.80
765.69	221.66
766.02	221.61
766.34	221.53
766.67	221.42
767.00	221.26
767.32	221.26
767.65	221.27
767.97	221.15
768.30	221.09
768.62	220.95
768.95	220.80
769.27	220.67
769.60	220.61
769.92	220.42
770.25	220.25
770.57	220.08
770.90	219.95
771.22	219.86
771.55	219.80
771.87	219.72
772.20	219.69
772.52	219.74
772.85	219.84
773.17	219.74
773.50	219.57
773.82	219.51
774.15	219.37
774.47	219.11
774.80	219.05
775.12	218.96
775.45	218.84
775.77	218.79
776.09	218.69
776.42	218.55
776.74	218.57
777.07	218.42
777.39	218.35
777.72	218.25
778.04	218.19
778.36	218.07
778.69	217.98
779.01	217.93
779.33	217.77
779.66	217.44
779.98	217.32
780.31	217.30
780.63	217.30
780.95	217.25
781.28	217.23
781.60	217.03
781.92	217.00
782.25	216.96
782.57	216.86
782.89	216.84
783.22	216.78
783.54	216.68
783.86	216.68
784.19	216.64
784.51	216.63
784.83	216.57
785.16	216.56
785.48	216.52
785.80	216.46
786.12	216.40
786.45	216.43
786.77	216.37
787.09	216.32
787.42	216.21
787.74	216.06
788.06	215.99
788.38	216.00
788.71	215.90
789.03	215.85
789.35	215.80
789.67	215.69
789.99	215.71
790.32	215.59
790.64	215.55
790.96	215.64
791.28	215.52
791.61	215.50
791.93	215.46
792.25	215.44
792.57	215.55
792.89	215.50
793.21	215.43
793.54	215.35
793.86	215.31
794.18	215.29
794.50	215.25
794.82	215.25
795.14	215.22
795.47	215.19
795.79	215.14
796.11	215.08
796.43	215.03
796.75	214.89
797.07	214.88
797.39	214.92
797.71	214.81
798.04	214.82
798.36	214.80
798.68	214.74
799.00	214.69
799.32	214.55
799.64	214.49
799.96	214.43
800.28	214.46
800.60	214.39
800.92	214.34
801.24	214.29
801.56	214.22
801.89	214.18
802.21	214.16
802.53	214.15
802.85	214.15
803.17	214.27
803.49	214.27
803.81	214.25
804.13	214.16
804.45	214.09
804.77	214.11
805.09	214.02
805.41	214.03
805.73	214.00
806.05	213.95
806.37	213.92
806.69	213.89
807.01	213.89
807.33	213.93
807.65	213.87
807.97	213.89
808.28	213.92
808.60	213.98
808.92	213.93
809.24	214.04
809.56	214.04
809.88	213.97
810.20	213.91
810.52	213.90
810.84	213.85
811.16	213.74
811.48	213.64
811.80	213.74
812.12	213.66
812.43	213.71
812.75	213.69
813.07	213.65
813.39	213.66
813.71	213.61
814.03	213.52
814.35	213.50
814.67	213.49
814.98	213.43
815.30	213.33
815.62	213.29
815.94	213.15
816.26	213.18
816.58	213.10
816.89	213.14
817.21	213.05
817.53	213.04
817.85	213.15
818.17	213.21
818.48	213.13
818.80	213.16
819.12	213.12
819.44	213.00
819.76	212.97
820.07	212.92
820.39	212.94
820.71	212.94
821.03	213.01
821.34	212.93
821.66	212.90
821.98	212.90
822.30	212.90
822.61	212.96
822.93	212.87
823.25	212.87
823.57	212.85
823.88	212.95
824.20	212.95
824.52	212.89
824.83	212.85
825.15	212.80
825.47	212.72
825.79	212.69
826.10	212.70
826.42	212.70
826.74	212.71
827.05	212.61
827.37	212.57
827.69	212.46
828.00	212.50
828.32	212.46
828.64	212.45
828.95	212.52
829.27	212.41
829.58	212.40
829.90	212.45
830.22	212.41
830.53	212.26
830.85	212.17
831.17	212.13
831.48	212.10
831.80	212.08
832.11	212.11
832.43	212.11
832.75	212.16
833.06	212.27
833.38	212.24
833.69	212.28
834.01	212.25
834.32	212.28
834.64	212.28
834.96	212.26
835.27	212.31
835.59	212.25
835.90	212.28
836.22	212.32
836.53	212.19
836.85	212.10
837.16	212.30
837.48	212.40
837.79	212.50
838.11	212.51
838.42	212.56
838.74	212.61
839.05	212.60
839.37	212.55
839.68	212.40
840.00	212.40
840.31	212.45
840.63	212.54
840.94	212.51
841.26	212.46
841.57	212.50
841.88	212.38
842.20	212.36
842.51	212.31
842.83	212.29
843.14	212.48
843.46	212.58
843.77	212.53
844.08	212.46
844.40	212.39
844.71	212.34
845.03	212.33
845.34	212.26
845.65	212.22
845.97	212.19
846.28	212.21
846.60	212.24
846.91	212.16
847.22	212.13
847.54	212.19
847.85	212.21
848.16	212.24
848.48	212.32
848.79	212.42
849.10	212.37
849.42	212.36
849.73	212.19
850.04	212.17
850.36	212.10
850.67	212.15
850.98	212.15
851.30	212.17
851.61	212.19
851.92	212.19
852.23	212.18
852.55	212.21
852.86	212.26
853.17	212.20
853.49	212.22
853.80	212.17
854.11	212.12
854.42	212.16
854.74	212.06
855.05	212.00
855.36	211.92
855.67	212.00
855.99	212.00
856.30	212.20
856.61	212.18
856.92	212.19
857.23	212.14
857.55	212.08
857.86	212.03
858.17	211.98
858.48	211.94
858.79	211.92
859.11	211.96
859.42	211.94
859.73	211.90
860.04	211.91
860.35	211.87
860.66	211.77
860.98	211.65
861.29	211.71
861.60	211.66
861.91	211.69
862.22	211.59
862.53	211.57
862.84	211.32
863.16	211.30
863.47	211.25
863.78	211.29
864.09	211.35
864.40	211.36
864.71	211.42
865.02	211.42
865.33	211.42
865.64	211.36
865.95	211.28
866.27	211.42
866.58	211.35
866.89	211.40
867.20	211.46
867.51	211.62
867.82	211.58
868.13	211.66
868.44	211.62
868.75	211.68
869.06	211.69
869.37	211.71
869.68	211.75
869.99	211.76
870.30	211.76
870.61	211.74
870.92	211.71
871.23	211.65
871.54	211.74
871.85	211.79
872.16	211.78
872.47	211.80
872.78	211.73
873.09	211.76
873.40	211.71
873.71	211.78
874.02	211.76
874.33	211.72
874.64	211.70
874.95	211.73
875.26	211.73
875.56	211.71
875.87	211.73
876.18	211.63
876.49	211.85
876.80	211.85
877.11	211.83
877.42	211.87
877.73	211.85
878.04	211.76
878.35	211.72
878.66	211.80
878.96	211.77
879.27	211.76
879.58	211.77
879.89	211.78
880.20	211.76
880.51	211.73
880.82	211.80
881.12	211.81
881.43	211.75
881.74	211.77
882.05	211.79
882.36	211.81
882.67	211.93
882.97	211.76
883.28	211.76
883.59	211.84
883.90	211.84
884.21	211.83
884.51	211.84
884.82	211.85
885.13	211.80
885.44	211.79
885.74	211.74
886.05	211.79
886.36	211.82
886.67	211.74
886.98	211.82
887.28	211.78
887.59	211.82
887.90	211.82
888.20	211.79
888.51	211.79
888.82	211.79
889.13	211.77
889.43	211.78
889.74	211.76
890.05	211.64
890.35	211.67
890.66	211.65
890.97	211.68
891.28	211.68
891.58	211.68
891.89	211.76
892.20	211.68
892.50	211.60
892.81	211.54
893.12	211.59
893.42	211.50
893.73	211.50
894.04	211.46
894.34	211.47
894.65	211.45
894.95	211.40
895.26	211.37
895.57	211.44
895.87	211.33
896.18	211.32
896.48	211.33
896.79	211.29
897.10	211.36
897.40	211.31
897.71	211.30
898.01	211.33
898.32	211.31
898.63	211.36
898.93	211.40
899.24	211.43
899.54	211.41
899.85	211.32
900.15	211.33
900.46	211.31
900.76	211.37
901.07	211.26
901.38	211.22
901.68	211.22
901.99	211.12
902.29	211.14
902.60	211.14
902.90	211.17
903.21	211.12
903.51	211.06
903.82	211.12
904.12	211.16
904.43	211.09
904.73	211.00
905.03	211.04
905.34	211.22
905.64	211.20
905.95	211.18
906.25	211.22
906.56	211.18
906.86	211.18
907.17	211.12
907.47	211.25
907.77	211.33
908.08	211.21
908.38	211.24
908.69	211.20
908.99	211.21
909.30	211.19
909.60	211.22
909.90	211.18
910.21	211.12
910.51	211.06
910.81	211.06
911.12	211.20
911.42	211.20
911.73	210.99
912.03	211.01
912.33	211.08
912.64	211.08
912.94	211.15
913.24	211.13
913.55	211.04
913.85	210.98
914.15	210.96
914.46	211.08
914.76	211.03
915.06	211.06
915.37	211.03
915.67	210.98
915.97	210.95
916.27	210.99
916.58	211.00
916.88	210.98
917.18	210.96
917.49	210.98
917.79	210.93
918.09	210.98
918.39	210.93
918.70	210.95
919.00	210.95
919.30	211.03
919.60	211.03
919.91	211.14
920.21	211.20
920.51	211.10
920.81	211.10
921.12	211.12
921.42	211.17
921.72	211.18
922.02	211.27
922.32	211.32
922.63	211.28
922.93	211.37
923.23	211.34
923.53	211.39
923.83	211.32
924.13	211.35
924.44	211.32
924.74	211.39
925.04	211.41
925.34	211.42
925.64	211.34
925.94	211.38
926.24	211.50
926.55	211.51
926.85	211.66
927.15	211.59
927.45	211.59
927.75	211.59
928.05	211.61
928.35	211.56
928.65	211.63
928.95	211.75
929.26	211.64
929.56	211.75
929.86	211.70
930.16	211.67
930.46	211.67
930.76	211.69
931.06	211.60
931.36	211.49
931.66	211.51
931.96	211.52
932.26	211.47
932.56	211.34
932.86	211.27
933.16	211.20
933.46	211.20
933.76	211.21
934.06	211.21
934.36	211.30
934.66	211.28
934.96	211.20
935.26	211.16
935.56	211.22
935.86	211.10
936.16	211.11
936.46	211.11
936.76	211.09
937.06	210.96
937.36	211.01
937.66	211.05
937.96	211.02
938.26	210.92
938.56	210.90
938.86	210.86
939.16	210.90
939.46	210.93
939.76	210.95
940.06	210.91
940.35	210.81
940.65	210.66
940.95	210.72
941.25	210.78
941.55	210.78
941.85	210.76
942.15	210.85
942.45	210.82
942.75	210.80
943.04	210.73
943.34	210.87
943.64	210.80
943.94	210.78
944.24	210.77
944.54	210.84
944.84	210.85
945.13	210.84
945.43	210.79
945.73	210.73
946.03	210.78
946.33	210.82
946.62	210.85
946.92	210.84
947.22	210.78
947.52	210.70
947.82	210.66
948.11	210.63
948.41	210.56
948.71	210.59
949.01	210.53
949.31	210.58
949.60	210.48
949.90	210.58
950.20	210.51
950.50	210.49
950.79	210.45
951.09	210.49
951.39	210.46
951.69	210.46
951.98	210.47
952.28	210.44
952.58	210.41
952.87	210.46
953.17	210.57
953.47	210.57
953.76	210.55
954.06	210.50
954.36	210.46
954.66	210.46
954.95	210.55
955.25	210.66
955.55	210.69
955.84	210.71
956.14	210.69
956.44	210.78
956.73	210.82
957.03	210.84
957.32	210.88
957.62	210.90
957.92	210.93
958.21	210.97
958.51	211.15
958.81	211.19
959.10	211.17
959.40	211.19
959.69	211.20
959.99	211.24
960.29	211.35
960.58	211.36
960.88	211.49
961.17	211.45
961.47	211.42
961.76	211.47
962.06	211.52
962.36	211.50
962.65	211.52
962.95	211.50
963.24	211.46
963.54	211.45
963.83	211.50
964.13	211.52
964.42	211.50
964.72	211.37
965.01	211.39
965.31	211.39
965.60	211.30
965.90	211.43
966.19	211.38
966.49	211.38
966.78	211.43
967.08	211.39
967.37	211.40
967.67	211.36
967.96	211.38
968.26	211.36
968.55	211.38
968.85	211.43
969.14	211.45
969.43	211.48
969.73	211.43
970.02	211.39
970.32	211.38
970.61	211.29
970.91	211.26
971.20	211.18
971.49	211.22
971.79	211.27
972.08	211.16
972.38	211.24
972.67	211.17
972.96	211.15
973.26	211.07
973.55	211.10
973.85	211.13
974.14	211.00
974.43	211.11
974.73	211.09
975.02	210.93
975.31	210.92
975.61	210.96
975.90	211.00
976.19	211.05
976.49	211.08
976.78	211.21
977.07	211.20
977.37	211.25
977.66	211.21
977.95	211.14
978.24	211.16
978.54	211.15
978.83	211.17
979.12	211.23
979.42	211.26
979.71	211.19
980.00	211.22
980.29	211.30
980.59	211.20
980.88	211.20
981.17	211.22
981.46	211.23
981.76	211.20
982.05	211.23
982.34	211.19
982.63	211.22
982.93	211.25
983.22	211.29
983.51	211.21
983.80	211.28
984.09	211.44
984.39	211.36
984.68	211.32
984.97	211.31
985.26	211.17
985.55	211.18
985.85	211.18
986.14	211.15
986.43	211.17
986.72	211.16
987.01	211.12
987.30	211.16
987.59	211.16
987.89	211.23
988.18	211.19
988.47	211.11
988.76	211.05
989.05	210.99
989.34	210.94
989.63	211.05
989.92	211.05
990.22	210.93
990.51	210.93
990.80	210.95
991.09	210.98
991.38	210.99
991.67	211.00
991.96	210.97
992.25	210.99
992.54	210.94
992.83	210.93
993.12	210.95
993.41	211.04
993.70	211.10
993.99	211.00
994.28	210.98
994.58	211.08
994.87	211.10
995.16	211.07
995.45	211.06
995.74	211.00
996.03	210.93
996.32	210.97
996.61	211.07
996.90	211.05
997.19	211.03
997.48	211.10
997.77	211.00
998.06	211.00
998.34	211.03
998.63	211.04
998.92	211.04
999.21	211.05
999.50	210.99
999.79	210.93
1000.08	210.95
1000.37	210.94
1000.66	210.85
1000.95	210.89
1001.24	210.89
1001.53	210.95
1001.82	210.95
1002.11	210.92
1002.40	210.88
1002.68	210.87
1002.97	211.05
1003.26	211.03
1003.55	211.03
1003.84	211.14
1004.13	211.23
1004.42	211.15
1004.71	211.15
1004.99	211.12
1005.28	211.17
1005.57	211.14
1005.86	211.11
1006.15	211.19
1006.44	211.22
1006.72	211.31
1007.01	211.21
1007.30	211.29
1007.59	211.23
1007.88	211.19
1008.17	211.22
1008.45	211.20
1008.74	211.10
1009.03	211.03
1009.32	211.08
1009.60	211.06
1009.89	210.95
1010.18	210.82
1010.47	210.88
1010.76	210.84
1011.04	210.85
1011.33	210.87
1011.62	210.85
1011.91	210.89
1012.19	210.82
1012.48	210.84
1012.77	210.83
1013.05	210.93
1013.34	210.89
1013.63	210.88
1013.92	210.91
1014.20	210.88
1014.49	210.85
1014.78	210.93
1015.06	210.80
1015.35	210.77
1015.64	210.78
1015.92	210.81
1016.21	210.86
1016.50	210.83
1016.78	210.84
1017.07	210.86
1017.36	210.75
1017.64	210.77
1017.93	210.78
1018.22	210.75
1018.50	210.75
1018.79	210.69
1019.08	210.59
1019.36	210.55
1019.65	210.58
1019.93	210.57
1020.22	210.61
1020.51	210.72
1020.79	210.64
1021.08	210.05
1021.36	211.70
1021.65	210.10
1021.94	210.25
1022.22	210.35
1022.51	211.25
1022.79	210.45
1023.08	211.00
1023.36	212.15
1023.65	209.80
>>>>>End Processed Spectral Data<<<<<
