SpectraSuite Data File
++++++++++++++++++++++++++++++++++++
Date: Mon Feb 25 17:33:21 EST 2013
User: group
Dark Spectrum Present: No
Reference Spectrum Present: No
Number of Sampled Component Spectra: 1
Spectrometers: USB2E7196
Integration Time (usec): 52000 (USB2E7196)
Spectra Averaged: 20 (USB2E7196)
Boxcar Smoothing: 10 (USB2E7196)
Correct for Electrical Dark: No (USB2E7196)
Strobe/Lamp Enabled: No (USB2E7196)
Correct for Detector Non-linearity: No (USB2E7196)
Correct for Stray Light: No (USB2E7196)
Number of Pixels in Processed Spectrum: 2048
>>>>>Begin Processed Spectral Data<<<<<
339.09	0.00
339.48	200.00
339.86	200.30
340.24	201.65
340.63	204.10
341.01	208.10
341.39	206.65
341.78	208.35
342.16	209.40
342.54	209.00
342.93	198.79
343.31	208.84
343.69	209.39
344.07	209.92
344.46	210.38
344.84	210.76
345.22	211.01
345.60	211.29
345.99	211.53
346.37	211.62
346.75	211.73
347.13	211.75
347.52	211.77
347.90	211.92
348.28	212.03
348.66	212.10
349.05	212.13
349.43	212.13
349.81	212.24
350.19	212.26
350.57	212.35
350.96	212.37
351.34	212.45
351.72	212.55
352.10	212.64
352.48	212.71
352.87	212.71
353.25	212.69
353.63	212.69
354.01	212.65
354.39	212.69
354.77	212.84
355.15	212.92
355.54	212.95
355.92	212.89
356.30	212.95
356.68	213.12
357.06	213.14
357.44	213.19
357.82	213.22
358.20	213.30
358.58	213.40
358.97	213.44
359.35	213.51
359.73	213.55
360.11	213.60
360.49	213.57
360.87	213.66
361.25	213.67
361.63	213.77
362.01	213.82
362.39	213.90
362.77	213.87
363.15	213.88
363.53	213.94
363.91	214.00
364.29	213.99
364.67	213.75
365.05	213.72
365.43	213.73
365.81	213.68
366.19	213.73
366.57	213.79
366.95	213.79
367.33	213.67
367.71	213.65
368.09	213.65
368.47	213.69
368.85	213.58
369.23	213.65
369.61	213.55
369.99	213.65
370.37	213.60
370.75	213.68
371.13	213.61
371.51	213.60
371.89	213.57
372.27	213.56
372.65	213.61
373.03	213.67
373.41	213.73
373.78	213.76
374.16	213.58
374.54	213.46
374.92	213.37
375.30	213.40
375.68	213.30
376.06	213.28
376.44	213.25
376.82	213.23
377.19	213.19
377.57	213.18
377.95	213.03
378.33	212.96
378.71	212.81
379.09	212.80
379.47	212.76
379.84	212.66
380.22	212.54
380.60	212.44
380.98	212.29
381.36	212.24
381.73	212.19
382.11	212.26
382.49	212.21
382.87	212.23
383.25	212.19
383.62	212.41
384.00	212.27
384.38	212.24
384.76	212.38
385.13	212.41
385.51	212.33
385.89	212.29
386.27	212.32
386.64	212.28
387.02	212.22
387.40	212.11
387.78	212.18
388.15	212.23
388.53	212.16
388.91	212.15
389.29	212.07
389.66	211.98
390.04	211.88
390.42	211.89
390.79	211.86
391.17	211.84
391.55	211.63
391.92	211.61
392.30	211.62
392.68	211.49
393.05	211.49
393.43	211.50
393.81	211.55
394.18	211.50
394.56	211.53
394.94	211.63
395.31	211.65
395.69	211.70
396.06	211.73
396.44	211.86
396.82	211.92
397.19	212.02
397.57	212.08
397.95	212.16
398.32	212.11
398.70	212.09
399.07	212.11
399.45	212.06
399.82	212.14
400.20	212.11
400.58	212.17
400.95	212.16
401.33	212.35
401.70	212.53
402.08	212.58
402.45	212.66
402.83	212.81
403.20	212.89
403.58	212.84
403.95	212.93
404.33	212.98
404.71	213.08
405.08	213.29
405.46	213.40
405.83	213.53
406.21	213.67
406.58	213.93
406.96	214.09
407.33	214.31
407.70	214.54
408.08	214.89
408.45	215.12
408.83	215.35
409.20	215.49
409.58	215.58
409.95	215.95
410.33	216.15
410.70	216.41
411.08	216.85
411.45	217.26
411.82	217.69
412.20	218.14
412.57	218.65
412.95	218.96
413.32	219.58
413.69	220.08
414.07	220.59
414.44	221.18
414.82	221.79
415.19	222.58
415.56	223.31
415.94	224.02
416.31	224.87
416.68	225.67
417.06	226.66
417.43	227.63
417.81	228.73
418.18	229.92
418.55	231.08
418.93	232.23
419.30	233.52
419.67	234.82
420.04	236.27
420.42	237.78
420.79	239.57
421.16	241.27
421.54	243.14
421.91	245.09
422.28	247.01
422.66	249.17
423.03	251.11
423.40	253.22
423.77	255.51
424.15	257.81
424.52	260.18
424.89	262.74
425.26	265.25
425.64	267.57
426.01	270.12
426.38	272.79
426.75	275.60
427.13	278.52
427.50	281.50
427.87	284.55
428.24	287.63
428.61	290.56
428.99	293.70
429.36	297.14
429.73	300.61
430.10	304.02
430.47	307.45
430.85	311.11
431.22	314.98
431.59	319.06
431.96	322.93
432.33	327.26
432.70	331.45
433.08	336.29
433.45	340.88
433.82	345.47
434.19	350.61
434.56	355.61
434.93	360.37
435.30	365.09
435.68	370.30
436.05	375.45
436.42	380.64
436.79	385.35
437.16	390.31
437.53	395.63
437.90	400.95
438.27	406.20
438.64	411.60
439.01	416.57
439.38	420.93
439.75	425.17
440.13	430.08
440.50	434.59
440.87	438.18
441.24	441.96
441.61	446.17
441.98	449.16
442.35	452.75
442.72	456.31
443.09	459.80
443.46	461.91
443.83	463.24
444.20	464.34
444.57	466.08
444.94	466.96
445.31	467.76
445.68	468.49
446.05	468.64
446.42	467.93
446.79	467.13
447.16	466.29
447.53	465.75
447.90	463.55
448.27	461.53
448.64	458.71
449.01	456.70
449.37	453.09
449.74	449.66
450.11	445.53
450.48	441.02
450.85	436.42
451.22	432.42
451.59	428.70
451.96	425.14
452.33	420.49
452.70	416.15
453.07	410.94
453.43	405.72
453.80	400.74
454.17	396.01
454.54	391.45
454.91	386.62
455.28	381.86
455.65	377.54
456.02	373.27
456.38	369.62
456.75	365.02
457.12	361.19
457.49	357.27
457.86	353.53
458.23	350.31
458.59	346.86
458.96	343.39
459.33	340.24
459.70	337.01
460.07	334.41
460.43	331.51
460.80	328.85
461.17	326.52
461.54	324.11
461.91	321.75
462.27	319.36
462.64	317.35
463.01	315.08
463.38	312.95
463.74	310.59
464.11	308.70
464.48	307.01
464.85	305.28
465.21	304.02
465.58	302.58
465.95	300.85
466.32	299.43
466.68	298.02
467.05	296.65
467.42	295.33
467.78	293.93
468.15	292.51
468.52	291.56
468.88	290.21
469.25	289.06
469.62	288.12
469.98	287.19
470.35	286.27
470.72	285.46
471.08	284.44
471.45	283.70
471.82	282.90
472.18	282.01
472.55	281.34
472.92	280.49
473.28	279.89
473.65	279.38
474.02	278.84
474.38	278.40
474.75	278.06
475.11	277.63
475.48	277.43
475.85	277.34
476.21	277.08
476.58	276.99
476.94	276.87
477.31	276.83
477.67	276.81
478.04	276.82
478.41	276.95
478.77	277.30
479.14	277.45
479.50	277.76
479.87	278.15
480.23	278.57
480.60	279.02
480.96	279.35
481.33	280.06
481.69	280.72
482.06	281.37
482.42	282.03
482.79	282.84
483.15	283.62
483.52	284.48
483.88	285.51
484.25	286.36
484.61	287.45
484.98	288.51
485.34	289.80
485.71	291.21
486.07	292.55
486.44	293.80
486.80	295.32
487.17	296.85
487.53	298.63
487.90	300.42
488.26	302.23
488.62	304.32
488.99	306.23
489.35	308.34
489.72	310.62
490.08	312.92
490.44	315.25
490.81	317.89
491.17	320.56
491.54	323.45
491.90	326.54
492.26	329.75
492.63	333.15
492.99	336.42
493.36	339.96
493.72	343.78
494.08	347.94
494.45	352.20
494.81	356.73
495.17	361.31
495.54	366.13
495.90	371.39
496.26	376.60
496.63	382.08
496.99	387.88
497.35	393.89
497.72	400.23
498.08	406.79
498.44	413.49
498.80	420.75
499.17	428.19
499.53	435.86
499.89	443.89
500.26	451.85
500.62	460.31
500.98	469.32
501.34	478.45
501.71	487.81
502.07	497.48
502.43	507.44
502.79	517.57
503.16	528.23
503.52	539.10
503.88	550.26
504.24	561.76
504.60	573.57
504.97	585.76
505.33	598.24
505.69	611.50
506.05	625.05
506.41	638.62
506.78	652.25
507.14	666.36
507.50	680.87
507.86	695.85
508.22	711.23
508.59	726.65
508.95	742.68
509.31	758.88
509.67	775.47
510.03	792.41
510.39	809.87
510.75	827.65
511.12	845.67
511.48	864.17
511.84	882.88
512.20	901.52
512.56	920.85
512.92	940.47
513.28	960.04
513.64	979.95
514.00	999.77
514.37	1020.25
514.73	1040.81
515.09	1061.61
515.45	1082.59
515.81	1103.94
516.17	1125.18
516.53	1146.63
516.89	1168.27
517.25	1190.00
517.61	1211.78
517.97	1233.55
518.33	1255.19
518.69	1276.81
519.05	1298.96
519.41	1321.21
519.77	1343.88
520.13	1365.72
520.49	1387.96
520.85	1410.44
521.21	1432.88
521.57	1455.96
521.93	1478.06
522.29	1501.07
522.65	1523.64
523.01	1546.13
523.37	1568.07
523.73	1590.44
524.09	1612.70
524.45	1635.00
524.81	1657.32
525.17	1679.66
525.53	1701.93
525.89	1724.16
526.25	1746.34
526.61	1767.59
526.97	1789.34
527.33	1810.58
527.68	1832.33
528.04	1853.24
528.40	1873.84
528.76	1894.37
529.12	1914.99
529.48	1936.86
529.84	1957.35
530.20	1977.86
530.56	1998.50
530.91	2019.40
531.27	2039.82
531.63	2059.82
531.99	2079.69
532.35	2099.16
532.71	2118.19
533.07	2137.75
533.42	2156.37
533.78	2175.46
534.14	2194.10
534.50	2211.05
534.86	2229.21
535.21	2246.21
535.57	2264.33
535.93	2281.66
536.29	2298.87
536.65	2315.56
537.00	2330.81
537.36	2345.96
537.72	2361.33
538.08	2376.64
538.44	2391.95
538.79	2407.15
539.15	2422.00
539.51	2436.55
539.87	2451.62
540.22	2466.11
540.58	2481.25
540.94	2496.12
541.29	2509.01
541.65	2521.44
542.01	2534.89
542.37	2546.83
542.72	2559.09
543.08	2569.93
543.44	2581.95
543.79	2592.01
544.15	2602.18
544.51	2613.46
544.87	2624.42
545.22	2633.42
545.58	2641.59
545.94	2648.78
546.29	2655.35
546.65	2661.76
547.01	2668.07
547.36	2673.52
547.72	2679.55
548.07	2683.26
548.43	2686.80
548.79	2690.82
549.14	2695.36
549.50	2699.75
549.86	2703.77
550.21	2707.85
550.57	2711.91
550.92	2714.63
551.28	2717.41
551.64	2719.89
551.99	2722.22
552.35	2723.95
552.70	2726.61
553.06	2729.46
553.41	2732.74
553.77	2736.08
554.13	2738.50
554.48	2740.70
554.84	2742.35
555.19	2742.47
555.55	2743.01
555.90	2743.48
556.26	2743.99
556.61	2744.07
556.97	2742.61
557.32	2742.43
557.68	2740.60
558.03	2739.24
558.39	2737.48
558.74	2737.37
559.10	2736.57
559.45	2734.64
559.81	2733.45
560.16	2730.96
560.52	2729.00
560.87	2726.03
561.23	2721.99
561.58	2719.45
561.94	2716.30
562.29	2712.43
562.64	2710.54
563.00	2707.97
563.35	2705.78
563.71	2704.18
564.06	2702.07
564.42	2700.66
564.77	2698.21
565.12	2696.64
565.48	2693.55
565.83	2690.42
566.19	2686.83
566.54	2682.37
566.89	2678.87
567.25	2675.26
567.60	2671.99
567.96	2668.09
568.31	2664.55
568.66	2660.75
569.02	2656.16
569.37	2651.06
569.72	2647.80
570.08	2642.24
570.43	2636.72
570.78	2630.96
571.14	2624.33
571.49	2617.65
571.84	2611.77
572.20	2604.78
572.55	2598.11
572.90	2591.23
573.26	2584.67
573.61	2577.42
573.96	2570.91
574.31	2562.31
574.67	2554.25
575.02	2545.69
575.37	2537.06
575.72	2528.04
576.08	2520.80
576.43	2512.03
576.78	2504.17
577.13	2495.81
577.49	2487.61
577.84	2479.95
578.19	2472.49
578.54	2465.15
578.90	2458.14
579.25	2448.90
579.60	2439.70
579.95	2430.41
580.30	2422.39
580.66	2414.06
581.01	2404.48
581.36	2395.33
581.71	2387.22
582.06	2378.56
582.42	2370.57
582.77	2361.66
583.12	2352.61
583.47	2343.77
583.82	2335.61
584.17	2326.36
584.53	2317.30
584.88	2308.44
585.23	2299.13
585.58	2289.51
585.93	2279.71
586.28	2270.30
586.63	2261.66
586.98	2253.62
587.34	2245.05
587.69	2235.88
588.04	2226.63
588.39	2218.95
588.74	2209.82
589.09	2201.27
589.44	2191.60
589.79	2183.12
590.14	2175.21
590.49	2166.72
590.84	2157.32
591.19	2148.77
591.54	2140.12
591.89	2129.89
592.25	2120.88
592.60	2111.36
592.95	2101.81
593.30	2092.38
593.65	2082.58
594.00	2073.06
594.35	2064.38
594.70	2055.54
595.05	2046.99
595.40	2037.97
595.75	2028.29
596.10	2020.35
596.45	2011.86
596.80	2004.26
597.15	1995.61
597.50	1985.99
597.85	1977.79
598.19	1969.30
598.54	1961.12
598.89	1953.27
599.24	1946.63
599.59	1939.17
599.94	1932.17
600.29	1924.56
600.64	1916.67
600.99	1908.63
601.34	1901.03
601.69	1892.40
602.04	1883.78
602.39	1875.21
602.74	1867.41
603.08	1860.86
603.43	1853.46
603.78	1845.31
604.13	1837.33
604.48	1829.32
604.83	1822.43
605.18	1815.24
605.53	1807.55
605.87	1799.91
606.22	1792.57
606.57	1784.52
606.92	1776.17
607.27	1768.06
607.62	1760.79
607.96	1753.85
608.31	1747.40
608.66	1739.80
609.01	1732.23
609.36	1724.80
609.70	1717.11
610.05	1709.35
610.40	1700.95
610.75	1692.54
611.10	1684.93
611.44	1675.59
611.79	1666.71
612.14	1657.58
612.49	1647.89
612.83	1639.11
613.18	1629.13
613.53	1619.69
613.88	1609.84
614.22	1600.99
614.57	1591.74
614.92	1582.00
615.27	1572.60
615.61	1562.60
615.96	1553.68
616.31	1545.33
616.65	1537.36
617.00	1529.05
617.35	1520.45
617.70	1511.62
618.04	1502.18
618.39	1492.51
618.74	1484.32
619.08	1475.44
619.43	1467.22
619.78	1459.61
620.12	1451.47
620.47	1443.82
620.82	1435.30
621.16	1427.13
621.51	1418.69
621.85	1410.44
622.20	1402.22
622.55	1393.65
622.89	1385.63
623.24	1377.62
623.59	1368.74
623.93	1360.09
624.28	1351.66
624.62	1343.49
624.97	1335.16
625.32	1327.53
625.66	1320.24
626.01	1312.91
626.35	1305.79
626.70	1297.98
627.04	1290.34
627.39	1282.75
627.73	1275.20
628.08	1268.16
628.43	1260.80
628.77	1253.48
629.12	1245.88
629.46	1239.29
629.81	1232.29
630.15	1224.91
630.50	1217.36
630.84	1210.10
631.19	1202.92
631.53	1196.20
631.88	1188.66
632.22	1181.13
632.57	1173.99
632.91	1166.69
633.26	1158.97
633.60	1151.77
633.95	1145.22
634.29	1137.82
634.64	1130.97
634.98	1123.84
635.32	1116.74
635.67	1110.36
636.01	1103.66
636.36	1097.13
636.70	1090.35
637.05	1083.72
637.39	1077.35
637.73	1071.21
638.08	1065.49
638.42	1059.77
638.77	1053.05
639.11	1046.92
639.45	1041.09
639.80	1034.46
640.14	1027.89
640.49	1021.97
640.83	1015.63
641.17	1009.09
641.52	1003.09
641.86	996.60
642.20	990.30
642.55	983.74
642.89	977.43
643.23	971.05
643.58	965.14
643.92	958.56
644.26	952.33
644.61	946.08
644.95	939.91
645.29	933.34
645.64	926.57
645.98	920.45
646.32	914.55
646.66	908.39
647.01	902.67
647.35	896.95
647.69	890.40
648.04	884.52
648.38	878.52
648.72	872.45
649.06	866.46
649.41	860.55
649.75	854.76
650.09	848.57
650.43	842.60
650.78	836.33
651.12	830.36
651.46	824.61
651.80	818.82
652.14	812.70
652.49	806.91
652.83	801.09
653.17	794.99
653.51	789.01
653.85	783.25
654.20	777.25
654.54	771.24
654.88	765.88
655.22	760.03
655.56	754.06
655.90	748.14
656.25	742.41
656.59	737.01
656.93	731.75
657.27	726.65
657.61	721.41
657.95	716.34
658.29	711.20
658.64	705.93
658.98	700.72
659.32	695.45
659.66	690.19
660.00	684.69
660.34	679.53
660.68	674.28
661.02	669.32
661.36	664.72
661.70	659.95
662.05	655.15
662.39	650.72
662.73	646.56
663.07	642.24
663.41	637.90
663.75	633.38
664.09	628.67
664.43	623.83
664.77	619.39
665.11	614.79
665.45	610.40
665.79	605.95
666.13	601.49
666.47	597.33
666.81	593.05
667.15	589.25
667.49	585.34
667.83	581.48
668.17	577.50
668.51	573.63
668.85	569.93
669.19	566.35
669.53	562.44
669.87	558.18
670.21	554.31
670.55	550.43
670.89	546.91
671.23	543.50
671.57	540.08
671.91	536.34
672.25	532.94
672.58	529.41
672.92	525.93
673.26	522.78
673.60	519.54
673.94	516.29
674.28	512.83
674.62	509.75
674.96	506.67
675.30	503.59
675.64	500.42
675.97	497.15
676.31	493.99
676.65	491.04
676.99	488.47
677.33	485.57
677.67	482.65
678.01	479.50
678.34	476.51
678.68	473.63
679.02	470.80
679.36	467.99
679.70	465.21
680.04	462.50
680.37	459.41
680.71	456.51
681.05	453.97
681.39	451.52
681.73	448.83
682.06	446.14
682.40	443.55
682.74	440.88
683.08	438.47
683.42	435.94
683.75	433.35
684.09	430.75
684.43	428.31
684.77	425.71
685.10	423.17
685.44	420.64
685.78	418.20
686.12	415.90
686.45	413.50
686.79	411.23
687.13	409.01
687.46	406.94
687.80	404.83
688.14	402.34
688.48	400.07
688.81	397.81
689.15	395.60
689.49	393.38
689.82	391.12
690.16	388.70
690.50	386.44
690.83	384.13
691.17	381.84
691.51	379.52
691.84	377.53
692.18	375.54
692.52	373.64
692.85	371.78
693.19	369.87
693.52	367.81
693.86	365.84
694.20	363.93
694.53	362.10
694.87	360.05
695.21	358.21
695.54	356.23
695.88	354.30
696.21	352.45
696.55	350.61
696.88	348.91
697.22	347.27
697.56	345.55
697.89	343.98
698.23	342.33
698.56	340.77
698.90	339.21
699.23	337.61
699.57	335.93
699.90	334.30
700.24	332.61
700.58	331.05
700.91	329.49
701.25	328.00
701.58	326.52
701.92	325.18
702.25	323.87
702.59	322.46
702.92	321.13
703.26	319.87
703.59	318.58
703.93	317.44
704.26	316.13
704.60	314.86
704.93	313.55
705.26	312.32
705.60	311.07
705.93	309.81
706.27	308.71
706.60	307.62
706.94	306.57
707.27	305.40
707.61	304.28
707.94	303.18
708.27	301.98
708.61	300.85
708.94	299.72
709.28	298.50
709.61	297.40
709.94	296.37
710.28	295.19
710.61	294.15
710.95	292.94
711.28	292.03
711.61	290.99
711.95	290.09
712.28	289.03
712.61	288.09
712.95	287.22
713.28	286.26
713.61	285.28
713.95	284.32
714.28	283.49
714.61	282.60
714.95	281.70
715.28	280.81
715.61	279.86
715.95	278.95
716.28	278.12
716.61	277.25
716.95	276.29
717.28	275.52
717.61	274.72
717.94	273.94
718.28	273.07
718.61	272.34
718.94	271.56
719.27	270.80
719.61	270.05
719.94	269.18
720.27	268.34
720.60	267.63
720.94	266.78
721.27	266.07
721.60	265.46
721.93	264.78
722.27	264.15
722.60	263.55
722.93	262.91
723.26	262.28
723.59	261.75
723.93	261.25
724.26	260.63
724.59	259.91
724.92	259.36
725.25	258.75
725.59	258.16
725.92	257.60
726.25	257.05
726.58	256.57
726.91	256.07
727.24	255.57
727.57	255.01
727.91	254.42
728.24	253.98
728.57	253.46
728.90	253.04
729.23	252.49
729.56	252.11
729.89	251.58
730.22	251.19
730.55	250.71
730.89	250.21
731.22	249.86
731.55	249.49
731.88	248.98
732.21	248.58
732.54	248.17
732.87	247.73
733.20	247.32
733.53	246.83
733.86	246.46
734.19	246.05
734.52	245.74
734.85	245.61
735.18	245.10
735.51	244.70
735.84	244.28
736.17	244.01
736.50	243.43
736.83	243.29
737.16	242.88
737.49	242.44
737.82	242.10
738.15	241.66
738.48	241.25
738.81	241.01
739.14	240.69
739.47	240.31
739.80	240.03
740.13	239.74
740.46	239.35
740.79	238.98
741.12	238.63
741.45	238.19
741.78	237.80
742.11	237.63
742.44	237.32
742.77	237.09
743.10	236.78
743.43	236.59
743.75	236.08
744.08	236.03
744.41	235.75
744.74	235.45
745.07	235.13
745.40	234.91
745.73	234.61
746.06	234.27
746.39	233.98
746.71	233.69
747.04	233.38
747.37	233.15
747.70	232.90
748.03	232.68
748.36	232.51
748.68	232.20
749.01	231.86
749.34	231.59
749.67	231.33
750.00	231.05
750.33	230.92
750.65	230.70
750.98	230.18
751.31	230.00
751.64	229.76
751.97	229.65
752.29	229.42
752.62	229.14
752.95	228.96
753.28	228.74
753.60	228.50
753.93	228.42
754.26	228.23
754.59	227.95
754.91	227.66
755.24	227.43
755.57	227.29
755.90	227.14
756.22	226.97
756.55	226.71
756.88	226.48
757.20	226.14
757.53	225.94
757.86	225.89
758.19	225.70
758.51	225.54
758.84	225.28
759.17	225.02
759.49	224.87
759.82	224.80
760.15	224.66
760.47	224.52
760.80	224.17
761.13	224.05
761.45	223.93
761.78	223.77
762.11	223.62
762.43	223.44
762.76	223.22
763.08	223.07
763.41	223.03
763.74	222.92
764.06	222.82
764.39	222.69
764.71	222.46
765.04	222.28
765.37	222.13
765.69	222.02
766.02	221.91
766.34	221.77
766.67	221.64
767.00	221.55
767.32	221.49
767.65	221.56
767.97	221.39
768.30	221.33
768.62	221.28
768.95	221.12
769.27	221.07
769.60	221.13
769.92	220.97
770.25	220.77
770.57	220.59
770.90	220.42
771.22	220.29
771.55	220.19
771.87	220.15
772.20	220.06
772.52	220.18
772.85	220.41
773.17	220.34
773.50	220.17
773.82	220.06
774.15	219.92
774.47	219.73
774.80	219.61
775.12	219.50
775.45	219.45
775.77	219.40
776.09	219.25
776.42	219.05
776.74	219.01
777.07	218.95
777.39	218.90
777.72	218.86
778.04	218.83
778.36	218.75
778.69	218.65
779.01	218.59
779.33	218.30
779.66	217.96
779.98	217.81
780.31	217.81
780.63	217.78
780.95	217.76
781.28	217.67
781.60	217.60
781.92	217.49
782.25	217.40
782.57	217.35
782.89	217.35
783.22	217.25
783.54	217.18
783.86	217.13
784.19	217.09
784.51	217.07
784.83	216.95
785.16	216.92
785.48	216.79
785.80	216.66
786.12	216.58
786.45	216.49
786.77	216.51
787.09	216.35
787.42	216.30
787.74	216.21
788.06	216.18
788.38	216.13
788.71	216.06
789.03	215.99
789.35	215.99
789.67	215.85
789.99	215.87
790.32	215.79
790.64	215.80
790.96	215.92
791.28	215.74
791.61	215.70
791.93	215.66
792.25	215.69
792.57	215.82
792.89	215.74
793.21	215.77
793.54	215.68
793.86	215.66
794.18	215.45
794.50	215.34
794.82	215.26
795.14	215.24
795.47	215.21
795.79	215.12
796.11	214.93
796.43	214.85
796.75	214.78
797.07	214.74
797.39	214.64
797.71	214.43
798.04	214.48
798.36	214.51
798.68	214.45
799.00	214.40
799.32	214.27
799.64	214.31
799.96	214.33
800.28	214.34
800.60	214.33
800.92	214.38
801.24	214.41
801.56	214.41
801.89	214.31
802.21	214.31
802.53	214.30
802.85	214.31
803.17	214.31
803.49	214.21
803.81	214.14
804.13	214.06
804.45	214.03
804.77	214.02
805.09	213.94
805.41	213.92
805.73	213.87
806.05	213.88
806.37	213.81
806.69	213.65
807.01	213.61
807.33	213.57
807.65	213.50
807.97	213.48
808.28	213.43
808.60	213.51
808.92	213.49
809.24	213.51
809.56	213.52
809.88	213.52
810.20	213.49
810.52	213.53
810.84	213.52
811.16	213.48
811.48	213.45
811.80	213.47
812.12	213.42
812.43	213.44
812.75	213.40
813.07	213.32
813.39	213.37
813.71	213.28
814.03	213.21
814.35	213.23
814.67	213.13
814.98	213.08
815.30	213.01
815.62	213.05
815.94	212.99
816.26	212.99
816.58	212.90
816.89	212.92
817.21	212.86
817.53	212.85
817.85	212.80
818.17	212.77
818.48	212.73
818.80	212.79
819.12	212.71
819.44	212.58
819.76	212.59
820.07	212.52
820.39	212.56
820.71	212.59
821.03	212.55
821.34	212.53
821.66	212.51
821.98	212.48
822.30	212.35
822.61	212.43
822.93	212.39
823.25	212.47
823.57	212.46
823.88	212.52
824.20	212.51
824.52	212.57
824.83	212.61
825.15	212.61
825.47	212.51
825.79	212.55
826.10	212.53
826.42	212.53
826.74	212.58
827.05	212.55
827.37	212.51
827.69	212.53
828.00	212.52
828.32	212.52
828.64	212.50
828.95	212.56
829.27	212.50
829.58	212.45
829.90	212.42
830.22	212.42
830.53	212.34
830.85	212.28
831.17	212.19
831.48	212.10
831.80	212.11
832.11	212.05
832.43	212.01
832.75	212.04
833.06	212.13
833.38	212.02
833.69	211.98
834.01	212.01
834.32	212.04
834.64	211.99
834.96	211.96
835.27	212.02
835.59	212.03
835.90	211.97
836.22	211.99
836.53	211.96
836.85	211.95
837.16	212.07
837.48	212.08
837.79	212.09
838.11	212.10
838.42	212.07
838.74	212.13
839.05	212.14
839.37	212.12
839.68	211.99
840.00	212.01
840.31	212.11
840.63	212.04
840.94	211.93
841.26	211.92
841.57	211.97
841.88	211.87
842.20	211.86
842.51	211.81
842.83	211.79
843.14	211.94
843.46	211.92
843.77	211.86
844.08	211.90
844.40	211.88
844.71	211.85
845.03	211.79
845.34	211.78
845.65	211.77
845.97	211.79
846.28	211.77
846.60	211.77
846.91	211.62
847.22	211.62
847.54	211.75
847.85	211.80
848.16	211.80
848.48	211.80
848.79	211.82
849.10	211.91
849.42	211.90
849.73	211.75
850.04	211.74
850.36	211.70
850.67	211.73
850.98	211.74
851.30	211.72
851.61	211.74
851.92	211.76
852.23	211.82
852.55	211.79
852.86	211.86
853.17	211.82
853.49	211.92
853.80	211.93
854.11	211.81
854.42	211.86
854.74	211.82
855.05	211.84
855.36	211.70
855.67	211.63
855.99	211.66
856.30	211.78
856.61	211.74
856.92	211.71
857.23	211.69
857.55	211.65
857.86	211.70
858.17	211.71
858.48	211.67
858.79	211.65
859.11	211.66
859.42	211.66
859.73	211.65
860.04	211.57
860.35	211.56
860.66	211.56
860.98	211.53
861.29	211.51
861.60	211.53
861.91	211.59
862.22	211.53
862.53	211.47
862.84	211.30
863.16	211.37
863.47	211.32
863.78	211.31
864.09	211.34
864.40	211.35
864.71	211.38
865.02	211.36
865.33	211.31
865.64	211.34
865.95	211.30
866.27	211.43
866.58	211.46
866.89	211.46
867.20	211.49
867.51	211.45
867.82	211.42
868.13	211.49
868.44	211.48
868.75	211.55
869.06	211.57
869.37	211.61
869.68	211.57
869.99	211.64
870.30	211.58
870.61	211.63
870.92	211.57
871.23	211.48
871.54	211.50
871.85	211.55
872.16	211.53
872.47	211.56
872.78	211.48
873.09	211.57
873.40	211.57
873.71	211.64
874.02	211.65
874.33	211.65
874.64	211.57
874.95	211.53
875.26	211.53
875.56	211.56
875.87	211.54
876.18	211.47
876.49	211.62
876.80	211.60
877.11	211.55
877.42	211.57
877.73	211.56
878.04	211.53
878.35	211.52
878.66	211.51
878.96	211.49
879.27	211.49
879.58	211.43
879.89	211.44
880.20	211.42
880.51	211.39
880.82	211.46
881.12	211.47
881.43	211.55
881.74	211.51
882.05	211.43
882.36	211.51
882.67	211.53
882.97	211.38
883.28	211.37
883.59	211.36
883.90	211.36
884.21	211.36
884.51	211.38
884.82	211.36
885.13	211.35
885.44	211.31
885.74	211.36
886.05	211.33
886.36	211.35
886.67	211.33
886.98	211.43
887.28	211.50
887.59	211.45
887.90	211.40
888.20	211.44
888.51	211.50
888.82	211.44
889.13	211.54
889.43	211.60
889.74	211.64
890.05	211.67
890.35	211.62
890.66	211.63
890.97	211.64
891.28	211.62
891.58	211.58
891.89	211.61
892.20	211.57
892.50	211.50
892.81	211.47
893.12	211.49
893.42	211.46
893.73	211.42
894.04	211.45
894.34	211.48
894.65	211.41
894.95	211.45
895.26	211.39
895.57	211.41
895.87	211.33
896.18	211.32
896.48	211.29
896.79	211.33
897.10	211.39
897.40	211.44
897.71	211.52
898.01	211.57
898.32	211.53
898.63	211.45
898.93	211.52
899.24	211.45
899.54	211.37
899.85	211.34
900.15	211.25
900.46	211.31
900.76	211.31
901.07	211.39
901.38	211.30
901.68	211.32
901.99	211.25
902.29	211.27
902.60	211.27
902.90	211.21
903.21	211.27
903.51	211.27
903.82	211.25
904.12	211.18
904.43	211.12
904.73	211.17
905.03	211.22
905.34	211.36
905.64	211.42
905.95	211.41
906.25	211.38
906.56	211.41
906.86	211.34
907.17	211.31
907.47	211.25
907.77	211.30
908.08	211.24
908.38	211.27
908.69	211.24
908.99	211.23
909.30	211.28
909.60	211.20
909.90	211.18
910.21	211.14
910.51	211.13
910.81	211.14
911.12	211.19
911.42	211.19
911.73	210.96
912.03	210.95
912.33	211.01
912.64	210.97
912.94	210.95
913.24	210.96
913.55	210.93
913.85	210.91
914.15	210.90
914.46	210.99
914.76	210.91
915.06	210.94
915.37	210.96
915.67	210.96
915.97	210.99
916.27	210.94
916.58	210.91
916.88	210.93
917.18	210.93
917.49	210.98
917.79	210.99
918.09	211.14
918.39	211.17
918.70	211.18
919.00	211.21
919.30	211.27
919.60	211.26
919.91	211.26
920.21	211.29
920.51	211.25
920.81	211.25
921.12	211.29
921.42	211.27
921.72	211.24
922.02	211.22
922.32	211.28
922.63	211.31
922.93	211.45
923.23	211.45
923.53	211.43
923.83	211.33
924.13	211.36
924.44	211.33
924.74	211.38
925.04	211.42
925.34	211.38
925.64	211.40
925.94	211.38
926.24	211.53
926.55	211.56
926.85	211.59
927.15	211.57
927.45	211.60
927.75	211.54
928.05	211.56
928.35	211.58
928.65	211.51
928.95	211.57
929.26	211.53
929.56	211.60
929.86	211.64
930.16	211.60
930.46	211.50
930.76	211.51
931.06	211.38
931.36	211.30
931.66	211.34
931.96	211.33
932.26	211.32
932.56	211.22
932.86	211.25
933.16	211.23
933.46	211.21
933.76	211.17
934.06	211.24
934.36	211.35
934.66	211.27
934.96	211.30
935.26	211.30
935.56	211.28
935.86	211.20
936.16	211.15
936.46	211.18
936.76	211.16
937.06	211.11
937.36	211.15
937.66	211.20
937.96	211.19
938.26	211.12
938.56	211.11
938.86	211.13
939.16	211.09
939.46	211.12
939.76	211.11
940.06	211.12
940.35	211.15
940.65	211.08
940.95	211.15
941.25	211.09
941.55	211.05
941.85	211.02
942.15	211.12
942.45	211.19
942.75	211.15
943.04	211.22
943.34	211.30
943.64	211.26
943.94	211.23
944.24	211.34
944.54	211.34
944.84	211.37
945.13	211.37
945.43	211.33
945.73	211.30
946.03	211.30
946.33	211.23
946.62	211.21
946.92	211.16
947.22	211.15
947.52	211.20
947.82	211.23
948.11	211.19
948.41	211.07
948.71	211.00
949.01	211.03
949.31	211.01
949.60	210.95
949.90	211.10
950.20	211.12
950.50	211.01
950.79	211.04
951.09	211.10
951.39	211.03
951.69	211.07
951.98	211.15
952.28	211.10
952.58	211.18
952.87	211.16
953.17	211.10
953.47	211.10
953.76	211.03
954.06	210.97
954.36	211.02
954.66	210.99
954.95	211.11
955.25	211.11
955.55	211.05
955.84	211.06
956.14	210.98
956.44	210.95
956.73	210.93
957.03	210.93
957.32	210.94
957.62	210.96
957.92	210.95
958.21	210.92
958.51	211.20
958.81	211.20
959.10	211.17
959.40	211.27
959.69	211.29
959.99	211.36
960.29	211.38
960.58	211.37
960.88	211.48
961.17	211.39
961.47	211.40
961.76	211.47
962.06	211.50
962.36	211.44
962.65	211.45
962.95	211.47
963.24	211.44
963.54	211.34
963.83	211.32
964.13	211.35
964.42	211.34
964.72	211.20
965.01	211.25
965.31	211.30
965.60	211.25
965.90	211.35
966.19	211.29
966.49	211.38
966.78	211.36
967.08	211.34
967.37	211.38
967.67	211.40
967.96	211.41
968.26	211.38
968.55	211.44
968.85	211.38
969.14	211.36
969.43	211.38
969.73	211.39
970.02	211.45
970.32	211.46
970.61	211.49
970.91	211.45
971.20	211.42
971.49	211.41
971.79	211.47
972.08	211.30
972.38	211.33
972.67	211.21
972.96	211.18
973.26	211.18
973.55	211.23
973.85	211.24
974.14	211.23
974.43	211.28
974.73	211.22
975.02	211.23
975.31	211.26
975.61	211.28
975.90	211.24
976.19	211.19
976.49	211.20
976.78	211.15
977.07	211.15
977.37	211.15
977.66	211.15
977.95	211.13
978.24	211.21
978.54	211.23
978.83	211.24
979.12	211.29
979.42	211.23
979.71	211.19
980.00	211.19
980.29	211.13
980.59	211.13
980.88	211.17
981.17	211.19
981.46	211.18
981.76	211.21
982.05	211.37
982.34	211.40
982.63	211.37
982.93	211.30
983.22	211.30
983.51	211.27
983.80	211.28
984.09	211.24
984.39	211.16
984.68	211.16
984.97	211.25
985.26	211.26
985.55	211.27
985.85	211.22
986.14	211.23
986.43	211.29
986.72	211.29
987.01	211.24
987.30	211.21
987.59	211.17
987.89	211.08
988.18	210.96
988.47	210.91
988.76	210.86
989.05	210.95
989.34	210.92
989.63	210.94
989.92	210.90
990.22	210.90
990.51	210.97
990.80	210.98
991.09	210.94
991.38	210.89
991.67	210.90
991.96	210.95
992.25	210.90
992.54	210.85
992.83	210.83
993.12	210.91
993.41	210.93
993.70	210.98
993.99	211.01
994.28	211.04
994.58	211.13
994.87	211.13
995.16	211.11
995.45	211.12
995.74	211.02
996.03	211.05
996.32	211.12
996.61	211.13
996.90	211.10
997.19	211.08
997.48	211.08
997.77	211.02
998.06	211.05
998.34	211.00
998.63	211.06
998.92	210.99
999.21	210.98
999.50	211.00
999.79	210.91
1000.08	210.91
1000.37	210.89
1000.66	210.80
1000.95	210.90
1001.24	210.94
1001.53	210.95
1001.82	211.01
1002.11	211.00
1002.40	211.03
1002.68	211.11
1002.97	211.25
1003.26	211.25
1003.55	211.24
1003.84	211.25
1004.13	211.23
1004.42	211.29
1004.71	211.29
1004.99	211.33
1005.28	211.37
1005.57	211.33
1005.86	211.44
1006.15	211.40
1006.44	211.36
1006.72	211.40
1007.01	211.30
1007.30	211.21
1007.59	211.16
1007.88	211.15
1008.17	211.14
1008.45	211.09
1008.74	210.99
1009.03	210.92
1009.32	210.90
1009.60	210.87
1009.89	210.89
1010.18	210.83
1010.47	210.82
1010.76	210.79
1011.04	210.79
1011.33	210.76
1011.62	210.76
1011.91	210.69
1012.19	210.70
1012.48	210.73
1012.77	210.70
1013.05	210.85
1013.34	210.95
1013.63	210.97
1013.92	210.98
1014.20	210.97
1014.49	210.95
1014.78	210.94
1015.06	210.86
1015.35	210.86
1015.64	210.97
1015.92	210.97
1016.21	210.94
1016.50	210.95
1016.78	210.92
1017.07	210.94
1017.36	210.95
1017.64	210.87
1017.93	210.93
1018.22	210.96
1018.50	210.91
1018.79	210.89
1019.08	210.79
1019.36	210.75
1019.65	210.66
1019.93	210.72
1020.22	210.72
1020.51	210.77
1020.79	210.72
1021.08	210.65
1021.36	209.60
1021.65	210.05
1021.94	211.45
1022.22	211.05
1022.51	209.00
1022.79	212.10
1023.08	210.60
1023.36	212.40
1023.65	209.65
>>>>>End Processed Spectral Data<<<<<
