SpectraSuite Data File
++++++++++++++++++++++++++++++++++++
Date: Mon Feb 25 17:32:09 EST 2013
User: group
Dark Spectrum Present: No
Reference Spectrum Present: No
Number of Sampled Component Spectra: 1
Spectrometers: USB2E7196
Integration Time (usec): 52000 (USB2E7196)
Spectra Averaged: 20 (USB2E7196)
Boxcar Smoothing: 10 (USB2E7196)
Correct for Electrical Dark: No (USB2E7196)
Strobe/Lamp Enabled: No (USB2E7196)
Correct for Detector Non-linearity: No (USB2E7196)
Correct for Stray Light: No (USB2E7196)
Number of Pixels in Processed Spectrum: 2048
>>>>>Begin Processed Spectral Data<<<<<
339.09	0.00
339.48	199.70
339.86	200.35
340.24	202.30
340.63	202.45
341.01	207.90
341.39	205.80
341.78	206.50
342.16	209.50
342.54	210.00
342.93	198.45
343.31	208.45
343.69	208.96
344.07	209.47
344.46	209.92
344.84	210.39
345.22	210.59
345.60	210.90
345.99	211.10
346.37	211.26
346.75	211.33
347.13	211.42
347.52	211.49
347.90	211.61
348.28	211.55
348.66	211.67
349.05	211.66
349.43	211.66
349.81	211.75
350.19	211.79
350.57	211.80
350.96	211.84
351.34	211.99
351.72	212.07
352.10	212.14
352.48	212.17
352.87	212.14
353.25	212.15
353.63	212.21
354.01	212.33
354.39	212.32
354.77	212.39
355.15	212.48
355.54	212.52
355.92	212.54
356.30	212.68
356.68	212.84
357.06	212.93
357.44	213.00
357.82	213.04
358.20	213.06
358.58	213.15
358.97	213.19
359.35	213.22
359.73	213.37
360.11	213.43
360.49	213.45
360.87	213.51
361.25	213.53
361.63	213.60
362.01	213.60
362.39	213.66
362.77	213.75
363.15	213.81
363.53	213.87
363.91	213.88
364.29	213.87
364.67	213.74
365.05	213.72
365.43	213.65
365.81	213.70
366.19	213.82
366.57	213.90
366.95	213.92
367.33	213.89
367.71	213.84
368.09	213.83
368.47	213.84
368.85	213.85
369.23	213.93
369.61	213.82
369.99	213.90
370.37	213.89
370.75	213.89
371.13	213.78
371.51	213.71
371.89	213.68
372.27	213.72
372.65	213.75
373.03	213.70
373.41	213.78
373.78	213.75
374.16	213.65
374.54	213.52
374.92	213.52
375.30	213.57
375.68	213.49
376.06	213.44
376.44	213.34
376.82	213.28
377.19	213.25
377.57	213.22
377.95	213.10
378.33	213.01
378.71	212.84
379.09	212.83
379.47	212.79
379.84	212.78
380.22	212.74
380.60	212.65
380.98	212.62
381.36	212.53
381.73	212.47
382.11	212.47
382.49	212.44
382.87	212.34
383.25	212.24
383.62	212.34
384.00	212.35
384.38	212.35
384.76	212.38
385.13	212.38
385.51	212.32
385.89	212.31
386.27	212.32
386.64	212.33
387.02	212.27
387.40	212.27
387.78	212.20
388.15	212.19
388.53	212.16
388.91	212.16
389.29	212.09
389.66	212.06
390.04	211.97
390.42	212.00
390.79	211.99
391.17	212.00
391.55	211.82
391.92	211.82
392.30	211.83
392.68	211.76
393.05	211.68
393.43	211.70
393.81	211.66
394.18	211.66
394.56	211.71
394.94	211.75
395.31	211.70
395.69	211.74
396.06	211.77
396.44	211.72
396.82	211.71
397.19	211.91
397.57	211.89
397.95	211.97
398.32	211.98
398.70	211.91
399.07	211.95
399.45	212.00
399.82	211.87
400.20	211.88
400.58	211.94
400.95	211.97
401.33	212.05
401.70	212.24
402.08	212.26
402.45	212.33
402.83	212.41
403.20	212.54
403.58	212.60
403.95	212.61
404.33	212.81
404.71	212.89
405.08	212.99
405.46	213.06
405.83	213.19
406.21	213.27
406.58	213.50
406.96	213.72
407.33	213.90
407.70	214.20
408.08	214.56
408.45	214.77
408.83	214.99
409.20	215.19
409.58	215.32
409.95	215.68
410.33	215.92
410.70	216.16
411.08	216.53
411.45	216.88
411.82	217.25
412.20	217.61
412.57	218.10
412.95	218.47
413.32	219.02
413.69	219.52
414.07	220.12
414.44	220.74
414.82	221.31
415.19	221.97
415.56	222.68
415.94	223.37
416.31	224.21
416.68	225.08
417.06	226.05
417.43	227.00
417.81	228.01
418.18	229.14
418.55	230.32
418.93	231.55
419.30	232.81
419.67	234.14
420.04	235.54
420.42	236.99
420.79	238.77
421.16	240.50
421.54	242.30
421.91	244.12
422.28	246.02
422.66	248.04
423.03	250.04
423.40	252.13
423.77	254.36
424.15	256.60
424.52	258.95
424.89	261.45
425.26	263.90
425.64	266.20
426.01	268.69
426.38	271.45
426.75	274.18
427.13	277.08
427.50	280.05
427.87	283.17
428.24	286.24
428.61	289.14
428.99	292.29
429.36	295.72
429.73	299.15
430.10	302.56
430.47	306.10
430.85	309.83
431.22	313.71
431.59	317.83
431.96	321.72
432.33	325.99
432.70	330.33
433.08	335.17
433.45	339.86
433.82	344.47
434.19	349.43
434.56	354.30
434.93	358.93
435.30	363.65
435.68	368.97
436.05	374.15
436.42	379.15
436.79	383.86
437.16	388.88
437.53	394.21
437.90	399.49
438.27	404.59
438.64	409.89
439.01	414.72
439.38	419.08
439.75	423.40
440.13	428.17
440.50	432.49
440.87	436.18
441.24	440.05
441.61	444.23
441.98	447.42
442.35	450.99
442.72	454.55
443.09	458.06
443.46	460.07
443.83	461.46
444.20	462.74
444.57	464.56
444.94	465.34
445.31	466.10
445.68	466.79
446.05	467.11
446.42	466.46
446.79	465.73
447.16	464.84
447.53	464.11
447.90	462.04
448.27	460.05
448.64	457.18
449.01	454.98
449.37	451.35
449.74	447.83
450.11	443.83
450.48	439.50
450.85	434.89
451.22	430.94
451.59	427.15
451.96	423.55
452.33	418.85
452.70	414.56
453.07	409.46
453.43	404.19
453.80	399.06
454.17	394.28
454.54	389.82
454.91	385.08
455.28	380.44
455.65	376.10
456.02	371.74
456.38	368.01
456.75	363.41
457.12	359.69
457.49	355.90
457.86	352.17
458.23	348.94
458.59	345.54
458.96	342.00
459.33	338.95
459.70	335.86
460.07	333.28
460.43	330.46
460.80	327.77
461.17	325.55
461.54	323.10
461.91	320.85
462.27	318.48
462.64	316.45
463.01	314.21
463.38	312.11
463.74	309.94
464.11	308.14
464.48	306.52
464.85	304.76
465.21	303.41
465.58	301.92
465.95	300.24
466.32	298.77
466.68	297.31
467.05	295.83
467.42	294.42
467.78	292.95
468.15	291.49
468.52	290.58
468.88	289.27
469.25	288.15
469.62	287.24
469.98	286.23
470.35	285.31
470.72	284.53
471.08	283.65
471.45	282.89
471.82	282.11
472.18	281.18
472.55	280.51
472.92	279.82
473.28	279.28
473.65	278.80
474.02	278.25
474.38	277.89
474.75	277.58
475.11	277.23
475.48	276.98
475.85	276.90
476.21	276.72
476.58	276.64
476.94	276.67
477.31	276.53
477.67	276.65
478.04	276.68
478.41	276.71
478.77	277.04
479.14	277.21
479.50	277.53
479.87	277.96
480.23	278.45
480.60	278.77
480.96	279.14
481.33	279.75
481.69	280.37
482.06	281.04
482.42	281.67
482.79	282.34
483.15	283.16
483.52	284.06
483.88	284.95
484.25	285.90
484.61	286.94
484.98	288.02
485.34	289.20
485.71	290.47
486.07	291.93
486.44	293.23
486.80	294.74
487.17	296.23
487.53	297.99
487.90	299.72
488.26	301.64
488.62	303.81
488.99	305.85
489.35	308.04
489.72	310.26
490.08	312.69
490.44	315.28
490.81	317.94
491.17	320.64
491.54	323.49
491.90	326.47
492.26	329.60
492.63	332.98
492.99	336.37
493.36	339.90
493.72	343.62
494.08	347.63
494.45	351.91
494.81	356.40
495.17	360.90
495.54	365.75
495.90	370.86
496.26	376.04
496.63	381.55
496.99	387.40
497.35	393.47
497.72	399.66
498.08	406.11
498.44	412.88
498.80	419.98
499.17	427.26
499.53	434.86
499.89	442.91
500.26	450.98
500.62	459.23
500.98	468.24
501.34	477.48
501.71	486.96
502.07	496.63
502.43	506.47
502.79	516.73
503.16	527.32
503.52	538.09
503.88	549.36
504.24	560.81
504.60	572.71
504.97	584.88
505.33	597.36
505.69	610.58
506.05	624.01
506.41	637.71
506.78	651.50
507.14	665.54
507.50	679.82
507.86	694.79
508.22	710.29
508.59	725.71
508.95	741.66
509.31	757.87
509.67	774.59
510.03	791.60
510.39	809.10
510.75	826.80
511.12	844.73
511.48	862.93
511.84	881.61
512.20	900.16
512.56	919.34
512.92	938.96
513.28	958.54
513.64	978.08
514.00	997.76
514.37	1018.08
514.73	1038.84
515.09	1059.87
515.45	1080.57
515.81	1101.61
516.17	1123.03
516.53	1144.10
516.89	1165.70
517.25	1187.03
517.61	1208.66
517.97	1230.10
518.33	1251.61
518.69	1273.33
519.05	1295.34
519.41	1317.28
519.77	1339.85
520.13	1361.80
520.49	1383.68
520.85	1405.83
521.21	1428.55
521.57	1451.34
521.93	1473.40
522.29	1496.21
522.65	1518.59
523.01	1541.17
523.37	1563.21
523.73	1585.25
524.09	1607.46
524.45	1629.36
524.81	1651.65
525.17	1674.06
525.53	1696.55
525.89	1718.71
526.25	1740.79
526.61	1762.03
526.97	1783.90
527.33	1804.81
527.68	1826.19
528.04	1847.27
528.40	1867.72
528.76	1888.08
529.12	1908.73
529.48	1930.31
529.84	1950.67
530.20	1970.82
530.56	1991.01
530.91	2011.98
531.27	2032.12
531.63	2051.85
531.99	2071.60
532.35	2090.67
532.71	2109.24
533.07	2128.21
533.42	2146.91
533.78	2165.62
534.14	2184.07
534.50	2200.83
534.86	2218.83
535.21	2235.44
535.57	2252.94
535.93	2270.13
536.29	2286.79
536.65	2303.29
537.00	2318.33
537.36	2333.11
537.72	2348.32
538.08	2363.75
538.44	2378.58
538.79	2393.83
539.15	2408.85
539.51	2423.57
539.87	2438.58
540.22	2453.07
540.58	2467.83
540.94	2482.15
541.29	2494.85
541.65	2507.02
542.01	2520.43
542.37	2532.20
542.72	2544.44
543.08	2555.48
543.44	2567.64
543.79	2577.67
544.15	2587.65
544.51	2598.68
544.87	2609.92
545.22	2619.00
545.58	2627.05
545.94	2634.29
546.29	2640.55
546.65	2646.75
547.01	2652.50
547.36	2658.22
547.72	2663.67
548.07	2667.73
548.43	2671.01
548.79	2675.00
549.14	2679.23
549.50	2683.28
549.86	2687.02
550.21	2690.93
550.57	2695.16
550.92	2697.16
551.28	2700.00
551.64	2702.78
551.99	2704.99
552.35	2706.19
552.70	2708.86
553.06	2711.62
553.41	2714.17
553.77	2717.29
554.13	2719.39
554.48	2721.17
554.84	2722.90
555.19	2723.57
555.55	2723.94
555.90	2724.53
556.26	2725.05
556.61	2725.03
556.97	2723.68
557.32	2723.25
557.68	2721.61
558.03	2719.71
558.39	2718.25
558.74	2717.78
559.10	2716.22
559.45	2714.50
559.81	2713.54
560.16	2710.80
560.52	2708.06
560.87	2705.15
561.23	2701.17
561.58	2699.03
561.94	2696.03
562.29	2692.08
562.64	2689.35
563.00	2686.66
563.35	2684.57
563.71	2682.58
564.06	2680.52
564.42	2678.80
564.77	2676.35
565.12	2674.35
565.48	2671.36
565.83	2668.49
566.19	2664.99
566.54	2660.71
566.89	2656.84
567.25	2652.99
567.60	2649.85
567.96	2646.26
568.31	2643.00
568.66	2639.14
569.02	2634.17
569.37	2629.10
569.72	2625.13
570.08	2620.00
570.43	2614.40
570.78	2608.70
571.14	2602.39
571.49	2595.67
571.84	2589.57
572.20	2582.75
572.55	2576.20
572.90	2569.48
573.26	2562.25
573.61	2555.12
573.96	2548.59
574.31	2540.56
574.67	2532.43
575.02	2523.95
575.37	2515.45
575.72	2506.52
576.08	2498.88
576.43	2490.18
576.78	2482.33
577.13	2474.24
577.49	2466.28
577.84	2458.79
578.19	2451.28
578.54	2443.59
578.90	2436.90
579.25	2427.91
579.60	2419.09
579.95	2410.12
580.30	2402.05
580.66	2393.90
581.01	2385.02
581.36	2375.72
581.71	2367.82
582.06	2359.14
582.42	2351.16
582.77	2342.18
583.12	2333.23
583.47	2324.68
583.82	2316.60
584.17	2307.42
584.53	2298.22
584.88	2289.13
585.23	2279.84
585.58	2270.29
585.93	2260.79
586.28	2251.68
586.63	2243.35
586.98	2235.12
587.34	2226.84
587.69	2217.79
588.04	2208.82
588.39	2200.65
588.74	2191.89
589.09	2183.12
589.44	2173.66
589.79	2165.01
590.14	2157.32
590.49	2149.04
590.84	2140.29
591.19	2131.92
591.54	2123.49
591.89	2113.56
592.25	2104.71
592.60	2095.51
592.95	2086.09
593.30	2076.94
593.65	2066.85
594.00	2057.05
594.35	2048.51
594.70	2039.21
595.05	2030.61
595.40	2021.71
595.75	2012.24
596.10	2004.14
596.45	1995.54
596.80	1988.07
597.15	1979.49
597.50	1970.18
597.85	1961.53
598.19	1952.80
598.54	1944.30
598.89	1936.48
599.24	1929.67
599.59	1922.40
599.94	1915.46
600.29	1907.79
600.64	1899.67
600.99	1891.49
601.34	1884.53
601.69	1875.69
602.04	1867.71
602.39	1859.41
602.74	1851.77
603.08	1844.89
603.43	1837.78
603.78	1829.78
604.13	1821.68
604.48	1814.00
604.83	1807.14
605.18	1800.24
605.53	1792.75
605.87	1785.25
606.22	1778.17
606.57	1770.72
606.92	1762.50
607.27	1754.11
607.62	1747.05
607.96	1740.32
608.31	1734.13
608.66	1726.08
609.01	1719.06
609.36	1711.30
609.70	1703.55
610.05	1696.18
610.40	1688.26
610.75	1679.74
611.10	1672.38
611.44	1663.39
611.79	1654.52
612.14	1645.25
612.49	1635.82
612.83	1627.13
613.18	1617.53
613.53	1608.07
613.88	1598.33
614.22	1589.42
614.57	1580.34
614.92	1570.76
615.27	1561.68
615.61	1551.67
615.96	1542.97
616.31	1534.20
616.65	1526.46
617.00	1518.15
617.35	1509.25
617.70	1500.28
618.04	1491.54
618.39	1482.14
618.74	1473.92
619.08	1465.25
619.43	1457.14
619.78	1449.33
620.12	1441.29
620.47	1433.86
620.82	1425.24
621.16	1416.90
621.51	1408.58
621.85	1400.64
622.20	1392.27
622.55	1383.73
622.89	1375.77
623.24	1367.92
623.59	1359.27
623.93	1350.75
624.28	1342.35
624.62	1334.39
624.97	1326.25
625.32	1318.34
625.66	1310.83
626.01	1303.54
626.35	1296.43
626.70	1288.80
627.04	1281.35
627.39	1273.80
627.73	1266.00
628.08	1259.45
628.43	1252.28
628.77	1245.02
629.12	1237.77
629.46	1231.29
629.81	1224.11
630.15	1217.13
630.50	1209.63
630.84	1202.60
631.19	1195.27
631.53	1188.68
631.88	1180.99
632.22	1173.48
632.57	1166.55
632.91	1159.18
633.26	1151.70
633.60	1144.46
633.95	1137.80
634.29	1130.50
634.64	1123.86
634.98	1116.99
635.32	1109.71
635.67	1103.34
636.01	1096.78
636.36	1089.78
636.70	1082.95
637.05	1076.40
637.39	1069.84
637.73	1063.55
638.08	1057.80
638.42	1052.06
638.77	1045.50
639.11	1039.55
639.45	1033.72
639.80	1027.30
640.14	1021.09
640.49	1014.83
640.83	1008.57
641.17	1002.02
641.52	996.06
641.86	989.41
642.20	983.16
642.55	976.52
642.89	969.99
643.23	963.67
643.58	957.86
643.92	951.57
644.26	945.36
644.61	939.31
644.95	933.29
645.29	926.90
645.64	920.35
645.98	914.27
646.32	908.17
646.66	902.10
647.01	896.16
647.35	890.22
647.69	884.13
648.04	878.20
648.38	872.38
648.72	866.17
649.06	860.42
649.41	854.64
649.75	849.08
650.09	843.30
650.43	837.42
650.78	831.23
651.12	825.15
651.46	819.56
651.80	813.69
652.14	807.69
652.49	801.68
652.83	795.95
653.17	789.76
653.51	784.11
653.85	778.56
654.20	772.68
654.54	766.73
654.88	761.33
655.22	755.47
655.56	749.65
655.90	744.06
656.25	738.23
656.59	732.56
656.93	727.28
657.27	722.20
657.61	716.75
657.95	711.80
658.29	706.75
658.64	701.56
658.98	696.48
659.32	691.10
659.66	686.28
660.00	680.70
660.34	675.70
660.68	670.48
661.02	665.24
661.36	660.67
661.70	655.95
662.05	651.05
662.39	646.74
662.73	642.48
663.07	638.16
663.41	633.84
663.75	629.40
664.09	624.64
664.43	619.82
664.77	615.40
665.11	610.79
665.45	606.50
665.79	602.05
666.13	597.63
666.47	593.59
666.81	589.25
667.15	585.41
667.49	581.67
667.83	577.75
668.17	573.96
668.51	570.05
668.85	566.52
669.19	563.09
669.53	559.18
669.87	555.12
670.21	551.25
670.55	547.35
670.89	543.94
671.23	540.60
671.57	537.25
671.91	533.83
672.25	530.41
672.58	526.77
672.92	523.41
673.26	520.32
673.60	517.01
673.94	513.69
674.28	510.45
674.62	507.32
674.96	504.28
675.30	501.25
675.64	498.10
675.97	494.95
676.31	491.74
676.65	488.87
676.99	486.27
677.33	483.38
677.67	480.59
678.01	477.45
678.34	474.55
678.68	471.65
679.02	468.68
679.36	465.88
679.70	463.24
680.04	460.38
680.37	457.41
680.71	454.65
681.05	452.13
681.39	449.51
681.73	446.77
682.06	444.13
682.40	441.46
682.74	438.76
683.08	436.12
683.42	433.38
683.75	430.87
684.09	428.27
684.43	425.83
684.77	423.33
685.10	420.92
685.44	418.41
685.78	415.94
686.12	413.70
686.45	411.39
686.79	408.99
687.13	406.84
687.46	404.61
687.80	402.45
688.14	400.13
688.48	397.93
688.81	395.70
689.15	393.52
689.49	391.27
689.82	389.08
690.16	386.75
690.50	384.59
690.83	382.26
691.17	379.97
691.51	377.80
691.84	375.75
692.18	373.66
692.52	371.72
692.85	369.85
693.19	367.86
693.52	365.80
693.86	363.90
694.20	362.10
694.53	360.23
694.87	358.28
695.21	356.35
695.54	354.42
695.88	352.53
696.21	350.71
696.55	349.01
696.88	347.37
697.22	345.70
697.56	344.21
697.89	342.67
698.23	341.06
698.56	339.38
698.90	337.81
699.23	336.17
699.57	334.52
699.90	332.86
700.24	331.36
700.58	329.85
700.91	328.31
701.25	326.87
701.58	325.49
701.92	324.14
702.25	322.78
702.59	321.44
702.92	320.25
703.26	318.89
703.59	317.69
703.93	316.55
704.26	315.33
704.60	314.00
704.93	312.68
705.26	311.44
705.60	310.21
705.93	308.90
706.27	307.78
706.60	306.73
706.94	305.66
707.27	304.45
707.61	303.28
707.94	302.35
708.27	301.07
708.61	299.87
708.94	298.79
709.28	297.63
709.61	296.55
709.94	295.37
710.28	294.36
710.61	293.25
710.95	292.05
711.28	291.14
711.61	290.13
711.95	289.28
712.28	288.31
712.61	287.48
712.95	286.60
713.28	285.79
713.61	284.79
713.95	283.80
714.28	283.00
714.61	282.10
714.95	281.11
715.28	280.23
715.61	279.33
715.95	278.34
716.28	277.48
716.61	276.67
716.95	275.81
717.28	274.96
717.61	274.17
717.94	273.32
718.28	272.38
718.61	271.62
718.94	270.81
719.27	270.11
719.61	269.40
719.94	268.74
720.27	267.97
720.60	267.29
720.94	266.57
721.27	265.91
721.60	265.37
721.93	264.73
722.27	264.21
722.60	263.67
722.93	263.06
723.26	262.56
723.59	261.97
723.93	261.40
724.26	260.81
724.59	260.29
724.92	259.75
725.25	259.38
725.59	258.84
725.92	258.30
726.25	257.80
726.58	257.24
726.91	256.69
727.24	256.10
727.57	255.65
727.91	255.14
728.24	254.59
728.57	254.15
728.90	253.72
729.23	253.15
729.56	252.82
729.89	252.39
730.22	251.89
730.55	251.36
730.89	250.95
731.22	250.54
731.55	250.00
731.88	249.51
732.21	248.94
732.54	248.47
732.87	248.02
733.20	247.52
733.53	247.10
733.86	246.60
734.19	246.15
734.52	245.70
734.85	245.48
735.18	245.15
735.51	244.71
735.84	244.33
736.17	243.99
736.50	243.46
736.83	243.25
737.16	242.87
737.49	242.56
737.82	242.17
738.15	241.82
738.48	241.42
738.81	241.09
739.14	240.75
739.47	240.39
739.80	240.01
740.13	239.67
740.46	239.25
740.79	238.99
741.12	238.68
741.45	238.30
741.78	237.81
742.11	237.45
742.44	237.06
742.77	236.69
743.10	236.36
743.43	236.03
743.75	235.58
744.08	235.50
744.41	235.15
744.74	234.84
745.07	234.46
745.40	234.26
745.73	234.09
746.06	233.89
746.39	233.66
746.71	233.41
747.04	233.05
747.37	232.81
747.70	232.50
748.03	232.28
748.36	232.12
748.68	231.86
749.01	231.52
749.34	231.23
749.67	231.03
750.00	230.84
750.33	230.70
750.65	230.45
750.98	230.02
751.31	229.85
751.64	229.63
751.97	229.54
752.29	229.31
752.62	228.97
752.95	228.66
753.28	228.38
753.60	228.18
753.93	228.05
754.26	227.82
754.59	227.57
754.91	227.32
755.24	227.07
755.57	226.89
755.90	226.72
756.22	226.62
756.55	226.35
756.88	226.07
757.20	225.75
757.53	225.56
757.86	225.33
758.19	225.08
758.51	224.85
758.84	224.61
759.17	224.36
759.49	224.24
759.82	224.20
760.15	224.08
760.47	223.88
760.80	223.74
761.13	223.57
761.45	223.50
761.78	223.28
762.11	223.16
762.43	222.99
762.76	222.84
763.08	222.67
763.41	222.62
763.74	222.47
764.06	222.35
764.39	222.19
764.71	222.10
765.04	222.00
765.37	221.88
765.69	221.68
766.02	221.65
766.34	221.53
766.67	221.31
767.00	221.29
767.32	221.30
767.65	221.26
767.97	221.19
768.30	221.01
768.62	221.01
768.95	220.84
769.27	220.69
769.60	220.63
769.92	220.46
770.25	220.32
770.57	220.24
770.90	220.15
771.22	220.03
771.55	219.94
771.87	219.81
772.20	219.71
772.52	219.73
772.85	219.80
773.17	219.71
773.50	219.58
773.82	219.41
774.15	219.22
774.47	219.00
774.80	218.83
775.12	218.78
775.45	218.66
775.77	218.56
776.09	218.57
776.42	218.51
776.74	218.51
777.07	218.37
777.39	218.27
777.72	218.15
778.04	218.10
778.36	217.95
778.69	217.93
779.01	217.87
779.33	217.69
779.66	217.35
779.98	217.21
780.31	217.22
780.63	217.13
780.95	217.06
781.28	217.00
781.60	216.96
781.92	216.90
782.25	216.88
782.57	216.95
782.89	216.82
783.22	216.72
783.54	216.59
783.86	216.59
784.19	216.52
784.51	216.55
784.83	216.47
785.16	216.44
785.48	216.35
785.80	216.37
786.12	216.38
786.45	216.39
786.77	216.41
787.09	216.37
787.42	216.30
787.74	216.26
788.06	216.20
788.38	216.12
788.71	216.00
789.03	215.90
789.35	215.75
789.67	215.75
789.99	215.70
790.32	215.63
790.64	215.57
790.96	215.71
791.28	215.62
791.61	215.60
791.93	215.66
792.25	215.61
792.57	215.61
792.89	215.48
793.21	215.49
793.54	215.44
793.86	215.32
794.18	215.29
794.50	215.24
794.82	215.20
795.14	215.17
795.47	215.22
795.79	215.19
796.11	215.16
796.43	215.10
796.75	215.08
797.07	215.02
797.39	214.96
797.71	214.80
798.04	214.77
798.36	214.66
798.68	214.60
799.00	214.61
799.32	214.56
799.64	214.52
799.96	214.42
800.28	214.39
800.60	214.32
800.92	214.31
801.24	214.25
801.56	214.25
801.89	214.20
802.21	214.19
802.53	214.16
802.85	214.19
803.17	214.28
803.49	214.22
803.81	214.23
804.13	214.23
804.45	214.21
804.77	214.24
805.09	214.22
805.41	214.11
805.73	214.04
806.05	213.96
806.37	213.92
806.69	213.88
807.01	213.84
807.33	213.96
807.65	213.88
807.97	213.89
808.28	213.86
808.60	213.89
808.92	213.83
809.24	213.90
809.56	213.83
809.88	213.70
810.20	213.64
810.52	213.60
810.84	213.55
811.16	213.48
811.48	213.41
811.80	213.45
812.12	213.42
812.43	213.40
812.75	213.44
813.07	213.39
813.39	213.48
813.71	213.42
814.03	213.30
814.35	213.27
814.67	213.22
814.98	213.19
815.30	213.10
815.62	213.07
815.94	212.93
816.26	212.93
816.58	212.84
816.89	212.91
817.21	212.92
817.53	212.93
817.85	212.92
818.17	212.88
818.48	212.86
818.80	212.89
819.12	212.84
819.44	212.70
819.76	212.71
820.07	212.60
820.39	212.57
820.71	212.52
821.03	212.43
821.34	212.44
821.66	212.45
821.98	212.53
822.30	212.47
822.61	212.53
822.93	212.51
823.25	212.55
823.57	212.45
823.88	212.43
824.20	212.38
824.52	212.40
824.83	212.37
825.15	212.27
825.47	212.25
825.79	212.25
826.10	212.22
826.42	212.22
826.74	212.24
827.05	212.23
827.37	212.26
827.69	212.35
828.00	212.30
828.32	212.29
828.64	212.20
828.95	212.27
829.27	212.22
829.58	212.20
829.90	212.19
830.22	212.17
830.53	212.08
830.85	212.09
831.17	212.00
831.48	212.02
831.80	212.07
832.11	212.00
832.43	211.98
832.75	211.95
833.06	212.00
833.38	211.95
833.69	211.90
834.01	211.87
834.32	211.85
834.64	211.80
834.96	211.80
835.27	211.77
835.59	211.72
835.90	211.71
836.22	211.70
836.53	211.61
836.85	211.63
837.16	211.87
837.48	211.77
837.79	211.80
838.11	211.76
838.42	211.73
838.74	211.85
839.05	211.85
839.37	211.90
839.68	211.85
840.00	211.85
840.31	211.89
840.63	211.95
840.94	212.00
841.26	212.03
841.57	211.99
841.88	212.07
842.20	212.07
842.51	212.05
842.83	212.00
843.14	212.24
843.46	212.21
843.77	212.06
844.08	212.16
844.40	212.10
844.71	212.11
845.03	212.09
845.34	212.03
845.65	212.04
845.97	212.00
846.28	211.99
846.60	212.01
846.91	212.02
847.22	211.95
847.54	211.87
847.85	211.82
848.16	211.78
848.48	211.77
848.79	211.80
849.10	211.84
849.42	211.86
849.73	211.70
850.04	211.75
850.36	211.71
850.67	211.76
850.98	211.78
851.30	211.81
851.61	211.81
851.92	211.76
852.23	211.81
852.55	211.85
852.86	211.93
853.17	211.90
853.49	211.91
853.80	212.01
854.11	212.07
854.42	212.15
854.74	212.13
855.05	212.07
855.36	211.99
855.67	211.94
855.99	212.02
856.30	212.20
856.61	212.18
856.92	212.18
857.23	212.17
857.55	212.14
857.86	212.12
858.17	212.18
858.48	212.25
858.79	212.20
859.11	212.23
859.42	212.18
859.73	212.26
860.04	212.29
860.35	212.22
860.66	212.20
860.98	212.23
861.29	212.30
861.60	212.33
861.91	212.42
862.22	212.39
862.53	212.30
862.84	212.04
863.16	212.09
863.47	212.09
863.78	211.99
864.09	212.13
864.40	212.11
864.71	212.09
865.02	212.02
865.33	211.97
865.64	211.89
865.95	211.90
866.27	211.90
866.58	211.87
866.89	211.82
867.20	211.81
867.51	211.76
867.82	211.76
868.13	211.82
868.44	211.71
868.75	211.80
869.06	211.79
869.37	211.83
869.68	211.80
869.99	211.77
870.30	211.83
870.61	211.69
870.92	211.66
871.23	211.59
871.54	211.61
871.85	211.65
872.16	211.64
872.47	211.57
872.78	211.52
873.09	211.49
873.40	211.52
873.71	211.47
874.02	211.47
874.33	211.46
874.64	211.36
874.95	211.43
875.26	211.36
875.56	211.34
875.87	211.33
876.18	211.29
876.49	211.43
876.80	211.41
877.11	211.41
877.42	211.43
877.73	211.57
878.04	211.53
878.35	211.47
878.66	211.50
878.96	211.49
879.27	211.50
879.58	211.44
879.89	211.41
880.20	211.50
880.51	211.48
880.82	211.44
881.12	211.47
881.43	211.35
881.74	211.32
882.05	211.33
882.36	211.33
882.67	211.33
882.97	211.13
883.28	211.12
883.59	211.14
883.90	211.14
884.21	211.09
884.51	211.08
884.82	211.08
885.13	211.07
885.44	211.11
885.74	211.05
886.05	211.09
886.36	211.12
886.67	210.94
886.98	211.06
887.28	211.07
887.59	211.06
887.90	211.10
888.20	211.05
888.51	211.10
888.82	211.08
889.13	211.14
889.43	211.35
889.74	211.33
890.05	211.30
890.35	211.29
890.66	211.17
890.97	211.25
891.28	211.26
891.58	211.22
891.89	211.22
892.20	211.22
892.50	211.18
892.81	211.16
893.12	211.24
893.42	211.11
893.73	211.09
894.04	211.15
894.34	211.22
894.65	211.28
894.95	211.21
895.26	211.20
895.57	211.20
895.87	210.99
896.18	211.01
896.48	211.06
896.79	211.06
897.10	211.10
897.40	211.02
897.71	211.02
898.01	211.05
898.32	211.04
898.63	210.99
898.93	211.05
899.24	211.09
899.54	211.09
899.85	211.03
900.15	211.03
900.46	210.98
900.76	210.96
901.07	210.90
901.38	210.91
901.68	210.95
901.99	210.87
902.29	210.90
902.60	210.88
902.90	210.83
903.21	210.84
903.51	210.82
903.82	210.91
904.12	210.87
904.43	210.88
904.73	210.90
905.03	210.95
905.34	211.07
905.64	211.08
905.95	211.04
906.25	211.05
906.56	211.05
906.86	211.03
907.17	211.02
907.47	211.10
907.77	211.06
908.08	211.01
908.38	211.00
908.69	211.02
908.99	211.04
909.30	211.11
909.60	211.12
909.90	211.14
910.21	211.07
910.51	211.11
910.81	211.11
911.12	211.15
911.42	211.13
911.73	211.01
912.03	210.98
912.33	211.02
912.64	211.07
912.94	211.02
913.24	211.03
913.55	210.96
913.85	210.92
914.15	211.02
914.46	211.09
914.76	211.16
915.06	211.12
915.37	211.06
915.67	211.04
915.97	210.97
916.27	210.96
916.58	210.98
916.88	211.05
917.18	210.97
917.49	211.04
917.79	211.00
918.09	211.06
918.39	211.10
918.70	211.07
919.00	211.06
919.30	211.18
919.60	211.18
919.91	211.15
920.21	211.14
920.51	211.05
920.81	210.96
921.12	210.93
921.42	210.95
921.72	211.01
922.02	211.04
922.32	211.10
922.63	211.15
922.93	211.28
923.23	211.22
923.53	211.30
923.83	211.17
924.13	211.22
924.44	211.15
924.74	211.20
925.04	211.25
925.34	211.17
925.64	211.10
925.94	211.08
926.24	211.24
926.55	211.23
926.85	211.24
927.15	211.26
927.45	211.29
927.75	211.30
928.05	211.25
928.35	211.19
928.65	211.27
928.95	211.23
929.26	211.08
929.56	211.14
929.86	211.10
930.16	211.15
930.46	211.15
930.76	211.18
931.06	211.03
931.36	211.06
931.66	211.18
931.96	211.22
932.26	211.27
932.56	211.18
932.86	211.19
933.16	211.22
933.46	211.22
933.76	211.18
934.06	211.24
934.36	211.31
934.66	211.32
934.96	211.25
935.26	211.25
935.56	211.28
935.86	211.20
936.16	211.24
936.46	211.14
936.76	211.14
937.06	211.11
937.36	211.18
937.66	211.12
937.96	211.10
938.26	211.04
938.56	211.01
938.86	211.04
939.16	211.08
939.46	211.16
939.76	211.19
940.06	211.22
940.35	211.19
940.65	211.07
940.95	211.04
941.25	210.97
941.55	210.95
941.85	210.89
942.15	210.95
942.45	211.03
942.75	211.07
943.04	211.03
943.34	211.04
943.64	210.99
943.94	210.98
944.24	210.95
944.54	210.98
944.84	211.00
945.13	210.98
945.43	210.92
945.73	210.88
946.03	210.82
946.33	210.80
946.62	210.73
946.92	210.80
947.22	210.81
947.52	210.89
947.82	210.84
948.11	210.92
948.41	210.88
948.71	210.82
949.01	210.83
949.31	210.83
949.60	210.81
949.90	210.88
950.20	210.84
950.50	210.87
950.79	210.87
951.09	210.72
951.39	210.69
951.69	210.65
951.98	210.70
952.28	210.72
952.58	210.68
952.87	210.71
953.17	210.67
953.47	210.70
953.76	210.63
954.06	210.60
954.36	210.48
954.66	210.46
954.95	210.43
955.25	210.49
955.55	210.46
955.84	210.45
956.14	210.44
956.44	210.45
956.73	210.42
957.03	210.37
957.32	210.52
957.62	210.55
957.92	210.65
958.21	210.57
958.51	210.83
958.81	210.89
959.10	210.89
959.40	210.98
959.69	211.00
959.99	211.06
960.29	211.09
960.58	211.20
960.88	211.36
961.17	211.39
961.47	211.40
961.76	211.42
962.06	211.46
962.36	211.45
962.65	211.50
962.95	211.50
963.24	211.50
963.54	211.46
963.83	211.44
964.13	211.42
964.42	211.36
964.72	211.10
965.01	211.16
965.31	211.13
965.60	211.07
965.90	211.11
966.19	211.11
966.49	211.21
966.78	211.12
967.08	210.98
967.37	210.97
967.67	210.86
967.96	210.90
968.26	210.93
968.55	210.96
968.85	211.04
969.14	210.99
969.43	211.00
969.73	211.01
970.02	211.06
970.32	211.09
970.61	211.11
970.91	211.16
971.20	211.01
971.49	211.05
971.79	211.10
972.08	211.01
972.38	211.03
972.67	210.92
972.96	210.94
973.26	210.95
973.55	211.02
973.85	211.06
974.14	211.00
974.43	210.95
974.73	210.92
975.02	210.83
975.31	210.93
975.61	210.95
975.90	211.00
976.19	210.94
976.49	210.94
976.78	211.00
977.07	210.98
977.37	210.99
977.66	210.98
977.95	210.96
978.24	211.05
978.54	211.08
978.83	211.16
979.12	211.20
979.42	211.25
979.71	211.15
980.00	211.18
980.29	211.26
980.59	211.29
980.88	211.30
981.17	211.30
981.46	211.29
981.76	211.24
982.05	211.28
982.34	211.34
982.63	211.29
982.93	211.24
983.22	211.30
983.51	211.31
983.80	211.39
984.09	211.44
984.39	211.36
984.68	211.29
984.97	211.24
985.26	211.28
985.55	211.35
985.85	211.37
986.14	211.35
986.43	211.32
986.72	211.28
987.01	211.24
987.30	211.23
987.59	211.27
987.89	211.27
988.18	211.22
988.47	211.15
988.76	211.19
989.05	211.19
989.34	211.23
989.63	211.28
989.92	211.20
990.22	211.14
990.51	211.21
990.80	211.23
991.09	211.23
991.38	211.20
991.67	211.08
991.96	211.06
992.25	211.06
992.54	211.08
992.83	211.07
993.12	211.09
993.41	211.13
993.70	211.15
993.99	211.23
994.28	211.23
994.58	211.30
994.87	211.22
995.16	211.26
995.45	211.22
995.74	211.18
996.03	211.13
996.32	211.21
996.61	211.20
996.90	211.16
997.19	211.20
997.48	211.19
997.77	211.13
998.06	211.12
998.34	211.15
998.63	211.10
998.92	211.18
999.21	211.21
999.50	211.11
999.79	211.01
1000.08	211.00
1000.37	210.98
1000.66	210.92
1000.95	210.93
1001.24	210.87
1001.53	210.85
1001.82	210.89
1002.11	210.92
1002.40	210.89
1002.68	210.87
1002.97	211.06
1003.26	210.99
1003.55	210.98
1003.84	211.01
1004.13	211.03
1004.42	211.02
1004.71	211.00
1004.99	210.94
1005.28	210.94
1005.57	211.02
1005.86	211.11
1006.15	211.09
1006.44	211.01
1006.72	211.07
1007.01	211.10
1007.30	211.17
1007.59	211.09
1007.88	211.04
1008.17	211.07
1008.45	210.96
1008.74	211.02
1009.03	210.93
1009.32	210.96
1009.60	210.90
1009.89	210.95
1010.18	210.95
1010.47	210.93
1010.76	210.99
1011.04	211.03
1011.33	211.05
1011.62	211.03
1011.91	210.97
1012.19	210.97
1012.48	211.04
1012.77	211.02
1013.05	211.04
1013.34	210.98
1013.63	211.02
1013.92	211.07
1014.20	211.00
1014.49	211.03
1014.78	210.95
1015.06	210.92
1015.35	210.92
1015.64	210.97
1015.92	210.97
1016.21	210.88
1016.50	210.88
1016.78	210.80
1017.07	210.73
1017.36	210.69
1017.64	210.65
1017.93	210.69
1018.22	210.65
1018.50	210.64
1018.79	210.61
1019.08	210.57
1019.36	210.55
1019.65	210.50
1019.93	210.51
1020.22	210.60
1020.51	210.69
1020.79	210.69
1021.08	210.30
1021.36	210.80
1021.65	210.75
1021.94	210.25
1022.22	209.90
1022.51	209.65
1022.79	211.35
1023.08	211.50
1023.36	212.55
1023.65	211.10
>>>>>End Processed Spectral Data<<<<<
