SpectraSuite Data File
++++++++++++++++++++++++++++++++++++
Date: Mon Feb 25 17:35:32 EST 2013
User: group
Dark Spectrum Present: No
Reference Spectrum Present: No
Number of Sampled Component Spectra: 1
Spectrometers: USB2E7196
Integration Time (usec): 52000 (USB2E7196)
Spectra Averaged: 20 (USB2E7196)
Boxcar Smoothing: 10 (USB2E7196)
Correct for Electrical Dark: No (USB2E7196)
Strobe/Lamp Enabled: No (USB2E7196)
Correct for Detector Non-linearity: No (USB2E7196)
Correct for Stray Light: No (USB2E7196)
Number of Pixels in Processed Spectrum: 2048
>>>>>Begin Processed Spectral Data<<<<<
339.09	0.00
339.48	199.95
339.86	201.60
340.24	201.55
340.63	204.35
341.01	207.95
341.39	205.70
341.78	207.05
342.16	208.30
342.54	208.05
342.93	198.30
343.31	208.32
343.69	208.72
344.07	209.15
344.46	209.65
344.84	209.94
345.22	210.03
345.60	210.28
345.99	210.48
346.37	210.64
346.75	210.76
347.13	210.80
347.52	210.80
347.90	210.91
348.28	210.89
348.66	210.87
349.05	210.84
349.43	210.89
349.81	210.90
350.19	210.90
350.57	210.89
350.96	210.95
351.34	211.05
351.72	211.20
352.10	211.32
352.48	211.26
352.87	211.30
353.25	211.34
353.63	211.40
354.01	211.40
354.39	211.41
354.77	211.42
355.15	211.43
355.54	211.41
355.92	211.45
356.30	211.50
356.68	211.75
357.06	211.73
357.44	211.77
357.82	211.79
358.20	212.00
358.58	212.05
358.97	212.19
359.35	212.28
359.73	212.38
360.11	212.32
360.49	212.40
360.87	212.53
361.25	212.66
361.63	212.75
362.01	212.89
362.39	212.94
362.77	213.07
363.15	213.13
363.53	213.31
363.91	213.34
364.29	213.41
364.67	213.39
365.05	213.50
365.43	213.55
365.81	213.68
366.19	213.64
366.57	213.76
366.95	213.78
367.33	213.72
367.71	213.72
368.09	213.80
368.47	213.85
368.85	213.81
369.23	213.90
369.61	213.78
369.99	213.87
370.37	213.93
370.75	213.98
371.13	213.98
371.51	213.91
371.89	213.92
372.27	213.90
372.65	213.84
373.03	213.85
373.41	213.80
373.78	213.78
374.16	213.70
374.54	213.63
374.92	213.50
375.30	213.51
375.68	213.41
376.06	213.41
376.44	213.39
376.82	213.40
377.19	213.33
377.57	213.33
377.95	213.10
378.33	212.99
378.71	212.91
379.09	212.88
379.47	212.85
379.84	212.80
380.22	212.73
380.60	212.65
380.98	212.57
381.36	212.56
381.73	212.49
382.11	212.49
382.49	212.48
382.87	212.43
383.25	212.35
383.62	212.54
384.00	212.49
384.38	212.38
384.76	212.40
385.13	212.40
385.51	212.38
385.89	212.36
386.27	212.39
386.64	212.35
387.02	212.29
387.40	212.25
387.78	212.22
388.15	212.25
388.53	212.19
388.91	212.12
389.29	212.02
389.66	211.97
390.04	211.90
390.42	211.85
390.79	211.94
391.17	211.92
391.55	211.65
391.92	211.55
392.30	211.60
392.68	211.44
393.05	211.40
393.43	211.37
393.81	211.43
394.18	211.37
394.56	211.39
394.94	211.40
395.31	211.42
395.69	211.45
396.06	211.49
396.44	211.52
396.82	211.60
397.19	211.70
397.57	211.78
397.95	211.76
398.32	211.75
398.70	211.76
399.07	211.83
399.45	211.92
399.82	211.97
400.20	211.96
400.58	212.02
400.95	212.02
401.33	212.18
401.70	212.30
402.08	212.32
402.45	212.41
402.83	212.51
403.20	212.55
403.58	212.58
403.95	212.63
404.33	212.84
404.71	212.87
405.08	213.06
405.46	213.13
405.83	213.35
406.21	213.47
406.58	213.56
406.96	213.69
407.33	213.88
407.70	214.13
408.08	214.50
408.45	214.83
408.83	215.05
409.20	215.21
409.58	215.36
409.95	215.75
410.33	215.96
410.70	216.20
411.08	216.63
411.45	217.00
411.82	217.37
412.20	217.76
412.57	218.33
412.95	218.67
413.32	219.17
413.69	219.66
414.07	220.26
414.44	220.88
414.82	221.58
415.19	222.36
415.56	223.10
415.94	223.82
416.31	224.72
416.68	225.69
417.06	226.79
417.43	227.84
417.81	228.92
418.18	230.11
418.55	231.33
418.93	232.64
419.30	233.98
419.67	235.44
420.04	236.85
420.42	238.36
420.79	240.25
421.16	242.04
421.54	243.98
421.91	245.76
422.28	247.73
422.66	249.80
423.03	251.82
423.40	253.93
423.77	256.18
424.15	258.39
424.52	260.67
424.89	263.24
425.26	265.63
425.64	267.92
426.01	270.58
426.38	273.38
426.75	276.15
427.13	279.04
427.50	282.00
427.87	285.23
428.24	288.30
428.61	291.17
428.99	294.45
429.36	297.97
429.73	301.48
430.10	305.02
430.47	308.51
430.85	312.16
431.22	316.04
431.59	320.21
431.96	324.19
432.33	328.60
432.70	332.74
433.08	337.85
433.45	342.54
433.82	347.10
434.19	352.26
434.56	357.12
434.93	361.90
435.30	366.70
435.68	371.89
436.05	377.01
436.42	382.14
436.79	386.96
437.16	392.02
437.53	397.46
437.90	402.69
438.27	408.10
438.64	413.50
439.01	418.59
439.38	422.96
439.75	427.23
440.13	432.07
440.50	436.75
440.87	440.39
441.24	444.27
441.61	448.57
441.98	451.47
442.35	455.28
442.72	458.98
443.09	462.53
443.46	464.59
443.83	466.13
444.20	467.42
444.57	469.11
444.94	469.94
445.31	470.77
445.68	471.55
446.05	471.58
446.42	470.88
446.79	470.03
447.16	469.14
447.53	468.50
447.90	466.35
448.27	464.16
448.64	461.26
449.01	459.19
449.37	455.50
449.74	452.10
450.11	447.95
450.48	443.32
450.85	438.58
451.22	434.54
451.59	430.78
451.96	427.12
452.33	422.30
452.70	417.93
453.07	412.67
453.43	407.44
453.80	402.37
454.17	397.62
454.54	393.07
454.91	388.29
455.28	383.50
455.65	379.08
456.02	374.61
456.38	370.80
456.75	366.13
457.12	362.21
457.49	358.31
457.86	354.44
458.23	351.22
458.59	347.72
458.96	344.17
459.33	340.94
459.70	337.78
460.07	335.25
460.43	332.23
460.80	329.51
461.17	327.14
461.54	324.67
461.91	322.28
462.27	319.87
462.64	317.77
463.01	315.55
463.38	313.40
463.74	311.28
464.11	309.39
464.48	307.66
464.85	305.95
465.21	304.62
465.58	303.18
465.95	301.46
466.32	300.02
466.68	298.59
467.05	297.12
467.42	295.74
467.78	294.22
468.15	292.88
468.52	291.87
468.88	290.45
469.25	289.21
469.62	288.26
469.98	287.14
470.35	286.18
470.72	285.22
471.08	284.27
471.45	283.47
471.82	282.74
472.18	281.87
472.55	281.25
472.92	280.56
473.28	279.98
473.65	279.40
474.02	278.85
474.38	278.54
474.75	278.29
475.11	277.81
475.48	277.55
475.85	277.36
476.21	277.18
476.58	277.11
476.94	277.19
477.31	277.21
477.67	277.24
478.04	277.27
478.41	277.56
478.77	277.87
479.14	278.01
479.50	278.24
479.87	278.62
480.23	278.97
480.60	279.25
480.96	279.64
481.33	280.27
481.69	280.89
482.06	281.50
482.42	282.12
482.79	282.88
483.15	283.70
483.52	284.68
483.88	285.53
484.25	286.55
484.61	287.63
484.98	288.65
485.34	289.94
485.71	291.30
486.07	292.54
486.44	293.86
486.80	295.37
487.17	297.02
487.53	298.83
487.90	300.62
488.26	302.68
488.62	304.68
488.99	306.71
489.35	308.90
489.72	311.11
490.08	313.43
490.44	315.91
490.81	318.70
491.17	321.35
491.54	324.29
491.90	327.28
492.26	330.43
492.63	333.85
492.99	337.35
493.36	340.97
493.72	344.82
494.08	348.86
494.45	353.12
494.81	357.57
495.17	362.05
495.54	367.10
495.90	372.20
496.26	377.47
496.63	382.96
496.99	388.76
497.35	394.81
497.72	401.04
498.08	407.55
498.44	414.22
498.80	421.54
499.17	428.96
499.53	436.61
499.89	444.70
500.26	452.82
500.62	461.17
500.98	470.18
501.34	479.29
501.71	488.88
502.07	498.62
502.43	508.53
502.79	518.83
503.16	529.30
503.52	540.10
503.88	551.28
504.24	562.89
504.60	574.71
504.97	586.98
505.33	599.64
505.69	613.02
506.05	626.47
506.41	639.99
506.78	653.76
507.14	667.99
507.50	682.57
507.86	697.50
508.22	712.84
508.59	728.22
508.95	744.32
509.31	760.35
509.67	776.93
510.03	793.93
510.39	811.49
510.75	829.43
511.12	847.62
511.48	866.23
511.84	885.02
512.20	904.04
512.56	923.43
512.92	942.98
513.28	962.39
513.64	982.44
514.00	1002.27
514.37	1022.86
514.73	1043.57
515.09	1064.13
515.45	1085.23
515.81	1106.70
516.17	1128.21
516.53	1149.77
516.89	1171.59
517.25	1193.40
517.61	1215.11
517.97	1236.95
518.33	1258.69
518.69	1280.55
519.05	1302.63
519.41	1324.87
519.77	1347.50
520.13	1369.65
520.49	1392.27
520.85	1415.16
521.21	1437.70
521.57	1461.05
521.93	1483.41
522.29	1506.41
522.65	1529.53
523.01	1552.14
523.37	1574.34
523.73	1596.85
524.09	1618.90
524.45	1641.22
524.81	1664.17
525.17	1686.94
525.53	1709.33
525.89	1731.70
526.25	1753.91
526.61	1775.40
526.97	1797.53
527.33	1818.82
527.68	1840.47
528.04	1861.27
528.40	1881.61
528.76	1902.58
529.12	1923.37
529.48	1945.13
529.84	1965.80
530.20	1986.15
530.56	2006.89
530.91	2027.79
531.27	2048.42
531.63	2069.06
531.99	2089.46
532.35	2108.68
532.71	2128.00
533.07	2147.96
533.42	2166.74
533.78	2185.93
534.14	2204.59
534.50	2221.72
534.86	2240.00
535.21	2257.16
535.57	2275.74
535.93	2293.77
536.29	2310.78
536.65	2327.63
537.00	2343.23
537.36	2358.70
537.72	2374.23
538.08	2389.65
538.44	2405.27
538.79	2420.52
539.15	2435.44
539.51	2450.41
539.87	2465.80
540.22	2480.76
540.58	2495.91
540.94	2510.59
541.29	2523.47
541.65	2536.07
542.01	2549.75
542.37	2562.21
542.72	2574.80
543.08	2585.82
543.44	2597.69
543.79	2608.12
544.15	2618.54
544.51	2629.92
544.87	2641.14
545.22	2650.56
545.58	2659.25
545.94	2666.64
546.29	2673.70
546.65	2680.12
547.01	2686.29
547.36	2692.10
547.72	2697.73
548.07	2701.96
548.43	2706.25
548.79	2710.60
549.14	2715.59
549.50	2719.98
549.86	2724.13
550.21	2728.25
550.57	2732.44
550.92	2735.24
551.28	2738.37
551.64	2741.10
551.99	2743.36
552.35	2745.26
552.70	2748.00
553.06	2751.25
553.41	2754.39
553.77	2757.28
554.13	2759.87
554.48	2762.23
554.84	2763.91
555.19	2764.37
555.55	2764.75
555.90	2765.03
556.26	2765.90
556.61	2765.79
556.97	2764.75
557.32	2764.21
557.68	2762.47
558.03	2761.19
558.39	2759.82
558.74	2759.63
559.10	2758.77
559.45	2757.01
559.81	2756.07
560.16	2753.85
560.52	2751.34
560.87	2748.33
561.23	2744.85
561.58	2742.60
561.94	2738.95
562.29	2735.30
562.64	2733.40
563.00	2730.87
563.35	2728.95
563.71	2727.09
564.06	2725.15
564.42	2723.54
564.77	2721.38
565.12	2719.79
565.48	2716.51
565.83	2713.43
566.19	2709.92
566.54	2705.39
566.89	2702.17
567.25	2698.19
567.60	2695.19
567.96	2691.48
568.31	2688.06
568.66	2684.43
569.02	2679.89
569.37	2675.07
569.72	2671.06
570.08	2665.57
570.43	2660.01
570.78	2654.29
571.14	2647.72
571.49	2640.83
571.84	2634.55
572.20	2627.42
572.55	2620.82
572.90	2614.06
573.26	2607.13
573.61	2599.92
573.96	2593.80
574.31	2585.31
574.67	2577.21
575.02	2568.26
575.37	2559.64
575.72	2550.70
576.08	2543.08
576.43	2534.36
576.78	2526.45
577.13	2518.76
577.49	2510.50
577.84	2502.67
578.19	2494.81
578.54	2487.36
578.90	2480.78
579.25	2472.20
579.60	2463.00
579.95	2453.64
580.30	2445.60
580.66	2437.25
581.01	2428.10
581.36	2418.67
581.71	2410.45
582.06	2401.87
582.42	2393.41
582.77	2384.39
583.12	2375.41
583.47	2366.34
583.82	2357.99
584.17	2348.58
584.53	2338.68
584.88	2329.83
585.23	2320.40
585.58	2310.58
585.93	2300.69
586.28	2291.19
586.63	2282.31
586.98	2273.76
587.34	2265.46
587.69	2256.14
588.04	2246.84
588.39	2238.35
588.74	2229.14
589.09	2220.17
589.44	2210.60
589.79	2202.09
590.14	2193.94
590.49	2185.19
590.84	2175.97
591.19	2167.48
591.54	2158.63
591.89	2148.95
592.25	2139.54
592.60	2130.31
592.95	2121.25
593.30	2111.96
593.65	2101.99
594.00	2091.99
594.35	2083.96
594.70	2074.27
595.05	2065.47
595.40	2056.84
595.75	2047.12
596.10	2038.75
596.45	2030.15
596.80	2022.18
597.15	2013.64
597.50	2004.32
597.85	1996.17
598.19	1987.23
598.54	1978.51
598.89	1970.70
599.24	1963.71
599.59	1956.40
599.94	1948.84
600.29	1940.78
600.64	1932.86
600.99	1924.15
601.34	1917.02
601.69	1908.15
602.04	1900.11
602.39	1891.86
602.74	1883.76
603.08	1877.21
603.43	1869.97
603.78	1861.70
604.13	1853.54
604.48	1845.38
604.83	1838.18
605.18	1830.82
605.53	1823.35
605.87	1815.72
606.22	1808.39
606.57	1800.44
606.92	1791.97
607.27	1783.75
607.62	1776.43
607.96	1769.28
608.31	1763.10
608.66	1754.89
609.01	1747.00
609.36	1739.25
609.70	1731.14
610.05	1723.32
610.40	1715.02
610.75	1706.23
611.10	1698.79
611.44	1689.47
611.79	1680.61
612.14	1671.30
612.49	1661.65
612.83	1652.70
613.18	1642.94
613.53	1633.45
613.88	1623.70
614.22	1614.93
614.57	1605.87
614.92	1596.42
615.27	1586.94
615.61	1577.15
615.96	1568.13
616.31	1559.54
616.65	1551.52
617.00	1542.96
617.35	1534.36
617.70	1524.98
618.04	1515.89
618.39	1506.14
618.74	1497.70
619.08	1489.00
619.43	1480.65
619.78	1472.80
620.12	1464.58
620.47	1456.72
620.82	1448.09
621.16	1439.65
621.51	1430.83
621.85	1422.49
622.20	1413.96
622.55	1405.25
622.89	1396.85
623.24	1388.84
623.59	1379.84
623.93	1371.12
624.28	1362.74
624.62	1354.32
624.97	1346.25
625.32	1338.29
625.66	1330.95
626.01	1323.73
626.35	1316.38
626.70	1308.49
627.04	1300.91
627.39	1293.30
627.73	1285.59
628.08	1278.43
628.43	1270.95
628.77	1263.50
629.12	1255.85
629.46	1248.99
629.81	1241.82
630.15	1234.30
630.50	1226.73
630.84	1219.54
631.19	1212.30
631.53	1205.44
631.88	1197.73
632.22	1190.13
632.57	1183.06
632.91	1175.49
633.26	1167.65
633.60	1160.35
633.95	1153.63
634.29	1146.01
634.64	1139.18
634.98	1131.91
635.32	1124.91
635.67	1118.24
636.01	1111.67
636.36	1104.84
636.70	1098.03
637.05	1091.35
637.39	1084.97
637.73	1078.57
638.08	1072.74
638.42	1066.71
638.77	1060.26
639.11	1053.84
639.45	1047.95
639.80	1041.18
640.14	1034.78
640.49	1028.57
640.83	1022.25
641.17	1015.49
641.52	1009.46
641.86	1002.98
642.20	996.92
642.55	990.04
642.89	983.50
643.23	976.97
643.58	971.19
643.92	964.67
644.26	958.26
644.61	952.36
644.95	946.18
645.29	939.87
645.64	933.28
645.98	927.06
646.32	921.22
646.66	914.81
647.01	908.97
647.35	903.17
647.69	896.81
648.04	890.75
648.38	885.05
648.72	878.93
649.06	872.60
649.41	866.29
649.75	860.46
650.09	854.75
650.43	848.77
650.78	842.46
651.12	836.19
651.46	830.60
651.80	824.43
652.14	818.40
652.49	812.43
652.83	806.44
653.17	800.22
653.51	794.16
653.85	788.38
654.20	782.50
654.54	776.50
654.88	771.06
655.22	765.20
655.56	759.02
655.90	752.99
656.25	747.38
656.59	741.94
656.93	736.83
657.27	731.64
657.61	726.14
657.95	720.89
658.29	715.89
658.64	710.60
658.98	705.32
659.32	699.86
659.66	694.45
660.00	689.06
660.34	683.80
660.68	678.66
661.02	673.59
661.36	668.73
661.70	663.80
662.05	658.95
662.39	654.43
662.73	650.23
663.07	646.14
663.41	641.59
663.75	636.95
664.09	632.16
664.43	627.23
664.77	622.88
665.11	618.38
665.45	613.99
665.79	609.50
666.13	605.02
666.47	600.80
666.81	596.70
667.15	592.66
667.49	588.89
667.83	585.02
668.17	581.18
668.51	577.24
668.85	573.42
669.19	569.65
669.53	565.65
669.87	561.52
670.21	557.52
670.55	553.65
670.89	550.27
671.23	546.97
671.57	543.39
671.91	539.78
672.25	536.15
672.58	532.56
672.92	529.06
673.26	525.90
673.60	522.71
673.94	519.31
674.28	516.02
674.62	512.70
674.96	509.37
675.30	506.10
675.64	502.94
675.97	499.79
676.31	496.70
676.65	493.73
676.99	491.14
677.33	488.12
677.67	485.39
678.01	482.25
678.34	479.21
678.68	476.36
679.02	473.36
679.36	470.48
679.70	467.66
680.04	464.90
680.37	461.89
680.71	458.96
681.05	456.31
681.39	453.59
681.73	450.90
682.06	448.30
682.40	445.70
682.74	443.06
683.08	440.46
683.42	437.77
683.75	435.14
684.09	432.34
684.43	429.89
684.77	427.25
685.10	424.67
685.44	421.95
685.78	419.35
686.12	416.98
686.45	414.55
686.79	412.17
687.13	409.96
687.46	407.82
687.80	405.68
688.14	403.26
688.48	401.05
688.81	398.81
689.15	396.55
689.49	394.25
689.82	391.95
690.16	389.62
690.50	387.35
690.83	385.26
691.17	383.03
691.51	380.66
691.84	378.40
692.18	376.34
692.52	374.32
692.85	372.57
693.19	370.79
693.52	368.92
693.86	366.95
694.20	364.95
694.53	363.00
694.87	360.94
695.21	359.09
695.54	357.09
695.88	355.20
696.21	353.35
696.55	351.65
696.88	349.93
697.22	348.10
697.56	346.54
697.89	344.79
698.23	343.19
698.56	341.60
698.90	340.17
699.23	338.59
699.57	337.03
699.90	335.25
700.24	333.37
700.58	331.72
700.91	330.18
701.25	328.70
701.58	327.20
701.92	325.87
702.25	324.43
702.59	323.05
702.92	321.70
703.26	320.38
703.59	319.02
703.93	317.84
704.26	316.63
704.60	315.28
704.93	313.93
705.26	312.67
705.60	311.55
705.93	310.28
706.27	309.05
706.60	307.89
706.94	306.83
707.27	305.75
707.61	304.62
707.94	303.42
708.27	302.12
708.61	300.91
708.94	299.68
709.28	298.58
709.61	297.51
709.94	296.41
710.28	295.39
710.61	294.36
710.95	293.16
711.28	292.18
711.61	291.19
711.95	290.24
712.28	289.16
712.61	288.09
712.95	287.07
713.28	286.15
713.61	285.22
713.95	284.27
714.28	283.29
714.61	282.34
714.95	281.47
715.28	280.63
715.61	279.79
715.95	278.92
716.28	277.97
716.61	277.07
716.95	276.14
717.28	275.17
717.61	274.26
717.94	273.51
718.28	272.66
718.61	271.87
718.94	271.14
719.27	270.38
719.61	269.61
719.94	268.89
720.27	268.10
720.60	267.40
720.94	266.57
721.27	265.97
721.60	265.25
721.93	264.64
722.27	264.05
722.60	263.42
722.93	262.91
723.26	262.31
723.59	261.68
723.93	261.16
724.26	260.75
724.59	260.25
724.92	259.67
725.25	259.22
725.59	258.65
725.92	258.08
726.25	257.60
726.58	257.10
726.91	256.62
727.24	256.17
727.57	255.64
727.91	255.15
728.24	254.64
728.57	254.20
728.90	253.76
729.23	253.25
729.56	252.86
729.89	252.24
730.22	251.73
730.55	251.30
730.89	250.88
731.22	250.29
731.55	249.77
731.88	249.36
732.21	248.79
732.54	248.40
732.87	248.00
733.20	247.54
733.53	247.10
733.86	246.64
734.19	246.14
734.52	245.78
734.85	245.63
735.18	245.24
735.51	244.84
735.84	244.51
736.17	244.16
736.50	243.61
736.83	243.52
737.16	243.25
737.49	242.89
737.82	242.45
738.15	242.12
738.48	241.75
738.81	241.36
739.14	241.02
739.47	240.62
739.80	240.19
740.13	239.90
740.46	239.48
740.79	239.06
741.12	238.77
741.45	238.40
741.78	237.95
742.11	237.62
742.44	237.34
742.77	236.96
743.10	236.61
743.43	236.41
743.75	235.87
744.08	235.81
744.41	235.55
744.74	235.26
745.07	234.97
745.40	234.75
745.73	234.54
746.06	234.22
746.39	234.00
746.71	233.74
747.04	233.40
747.37	233.16
747.70	232.97
748.03	232.72
748.36	232.48
748.68	232.23
749.01	231.94
749.34	231.75
749.67	231.55
750.00	231.34
750.33	231.14
750.65	230.97
750.98	230.44
751.31	230.11
751.64	229.90
751.97	229.78
752.29	229.51
752.62	229.17
752.95	228.95
753.28	228.73
753.60	228.54
753.93	228.38
754.26	228.14
754.59	227.91
754.91	227.61
755.24	227.43
755.57	227.25
755.90	227.10
756.22	226.83
756.55	226.60
756.88	226.30
757.20	226.00
757.53	225.70
757.86	225.57
758.19	225.35
758.51	225.11
758.84	224.85
759.17	224.70
759.49	224.60
759.82	224.52
760.15	224.35
760.47	224.12
760.80	223.88
761.13	223.91
761.45	223.74
761.78	223.68
762.11	223.57
762.43	223.30
762.76	223.12
763.08	223.01
763.41	222.82
763.74	222.73
764.06	222.63
764.39	222.55
764.71	222.41
765.04	222.40
765.37	222.30
765.69	222.12
766.02	221.99
766.34	221.82
766.67	221.66
767.00	221.55
767.32	221.61
767.65	221.61
767.97	221.35
768.30	221.16
768.62	221.05
768.95	220.81
769.27	220.73
769.60	220.67
769.92	220.50
770.25	220.36
770.57	220.16
770.90	220.11
771.22	219.99
771.55	219.86
771.87	219.73
772.20	219.64
772.52	219.72
772.85	219.84
773.17	219.76
773.50	219.72
773.82	219.59
774.15	219.39
774.47	219.13
774.80	219.07
775.12	219.11
775.45	218.99
775.77	218.92
776.09	218.84
776.42	218.82
776.74	218.83
777.07	218.77
777.39	218.75
777.72	218.66
778.04	218.61
778.36	218.52
778.69	218.47
779.01	218.39
779.33	218.17
779.66	217.88
779.98	217.80
780.31	217.72
780.63	217.67
780.95	217.61
781.28	217.59
781.60	217.49
781.92	217.30
782.25	217.20
782.57	217.19
782.89	217.11
783.22	217.03
783.54	216.91
783.86	216.88
784.19	216.79
784.51	216.82
784.83	216.75
785.16	216.71
785.48	216.54
785.80	216.55
786.12	216.47
786.45	216.41
786.77	216.35
787.09	216.23
787.42	216.12
787.74	216.03
788.06	216.06
788.38	216.04
788.71	215.99
789.03	215.99
789.35	215.94
789.67	215.91
789.99	215.79
790.32	215.78
790.64	215.79
790.96	215.93
791.28	215.69
791.61	215.59
791.93	215.55
792.25	215.60
792.57	215.68
792.89	215.61
793.21	215.62
793.54	215.54
793.86	215.47
794.18	215.44
794.50	215.40
794.82	215.29
795.14	215.19
795.47	215.22
795.79	215.17
796.11	215.05
796.43	215.03
796.75	214.95
797.07	214.85
797.39	214.72
797.71	214.49
798.04	214.54
798.36	214.54
798.68	214.49
799.00	214.50
799.32	214.32
799.64	214.35
799.96	214.33
800.28	214.32
800.60	214.31
800.92	214.28
801.24	214.18
801.56	214.20
801.89	214.16
802.21	214.13
802.53	214.03
802.85	214.09
803.17	214.05
803.49	214.05
803.81	214.05
804.13	214.05
804.45	214.09
804.77	214.04
805.09	214.01
805.41	213.92
805.73	213.82
806.05	213.76
806.37	213.68
806.69	213.64
807.01	213.64
807.33	213.69
807.65	213.60
807.97	213.64
808.28	213.58
808.60	213.59
808.92	213.59
809.24	213.72
809.56	213.68
809.88	213.61
810.20	213.60
810.52	213.57
810.84	213.57
811.16	213.47
811.48	213.47
811.80	213.51
812.12	213.54
812.43	213.53
812.75	213.45
813.07	213.42
813.39	213.34
813.71	213.29
814.03	213.21
814.35	213.21
814.67	213.18
814.98	213.12
815.30	213.11
815.62	213.04
815.94	212.84
816.26	212.81
816.58	212.80
816.89	212.83
817.21	212.79
817.53	212.78
817.85	212.75
818.17	212.72
818.48	212.59
818.80	212.61
819.12	212.55
819.44	212.57
819.76	212.54
820.07	212.52
820.39	212.50
820.71	212.45
821.03	212.48
821.34	212.40
821.66	212.46
821.98	212.43
822.30	212.38
822.61	212.52
822.93	212.39
823.25	212.33
823.57	212.22
823.88	212.26
824.20	212.16
824.52	212.24
824.83	212.22
825.15	212.14
825.47	212.10
825.79	212.14
826.10	212.11
826.42	212.06
826.74	212.06
827.05	212.03
827.37	212.05
827.69	211.99
828.00	212.00
828.32	212.03
828.64	212.00
828.95	212.09
829.27	212.00
829.58	212.09
829.90	212.16
830.22	212.17
830.53	212.14
830.85	212.17
831.17	212.11
831.48	211.99
831.80	212.03
832.11	212.04
832.43	211.99
832.75	212.03
833.06	212.14
833.38	212.06
833.69	212.07
834.01	212.07
834.32	212.03
834.64	212.11
834.96	211.96
835.27	211.91
835.59	211.86
835.90	211.84
836.22	211.80
836.53	211.76
836.85	211.77
837.16	211.86
837.48	211.81
837.79	211.87
838.11	211.90
838.42	211.90
838.74	211.90
839.05	211.86
839.37	211.81
839.68	211.67
840.00	211.70
840.31	211.67
840.63	211.62
840.94	211.59
841.26	211.47
841.57	211.47
841.88	211.54
842.20	211.48
842.51	211.49
842.83	211.52
843.14	211.61
843.46	211.58
843.77	211.54
844.08	211.50
844.40	211.40
844.71	211.49
845.03	211.50
845.34	211.51
845.65	211.50
845.97	211.47
846.28	211.47
846.60	211.53
846.91	211.54
847.22	211.52
847.54	211.63
847.85	211.71
848.16	211.77
848.48	211.72
848.79	211.84
849.10	211.86
849.42	211.88
849.73	211.78
850.04	211.78
850.36	211.75
850.67	211.82
850.98	211.87
851.30	211.83
851.61	211.77
851.92	211.75
852.23	211.83
852.55	211.88
852.86	211.88
853.17	211.89
853.49	211.93
853.80	212.00
854.11	211.94
854.42	211.95
854.74	211.88
855.05	211.93
855.36	211.82
855.67	211.71
855.99	211.71
856.30	211.92
856.61	211.94
856.92	211.81
857.23	211.80
857.55	211.76
857.86	211.77
858.17	211.82
858.48	211.77
858.79	211.74
859.11	211.75
859.42	211.78
859.73	211.77
860.04	211.75
860.35	211.75
860.66	211.70
860.98	211.62
861.29	211.65
861.60	211.56
861.91	211.62
862.22	211.66
862.53	211.58
862.84	211.40
863.16	211.44
863.47	211.47
863.78	211.48
864.09	211.45
864.40	211.52
864.71	211.51
865.02	211.50
865.33	211.49
865.64	211.49
865.95	211.49
866.27	211.55
866.58	211.49
866.89	211.47
867.20	211.56
867.51	211.53
867.82	211.51
868.13	211.62
868.44	211.61
868.75	211.67
869.06	211.59
869.37	211.58
869.68	211.53
869.99	211.46
870.30	211.50
870.61	211.54
870.92	211.41
871.23	211.46
871.54	211.51
871.85	211.55
872.16	211.51
872.47	211.50
872.78	211.40
873.09	211.44
873.40	211.37
873.71	211.34
874.02	211.43
874.33	211.42
874.64	211.30
874.95	211.26
875.26	211.17
875.56	211.28
875.87	211.21
876.18	211.19
876.49	211.38
876.80	211.32
877.11	211.25
877.42	211.25
877.73	211.14
878.04	211.10
878.35	211.03
878.66	211.05
878.96	211.01
879.27	210.97
879.58	210.97
879.89	211.04
880.20	211.04
880.51	210.99
880.82	210.95
881.12	210.95
881.43	210.91
881.74	210.92
882.05	210.89
882.36	210.90
882.67	210.91
882.97	210.72
883.28	210.75
883.59	210.71
883.90	210.74
884.21	210.85
884.51	210.84
884.82	210.84
885.13	210.82
885.44	210.86
885.74	210.84
886.05	210.85
886.36	210.83
886.67	210.78
886.98	210.86
887.28	210.98
887.59	210.98
887.90	211.00
888.20	211.00
888.51	211.02
888.82	211.05
889.13	211.02
889.43	211.14
889.74	211.11
890.05	211.18
890.35	211.19
890.66	211.16
890.97	211.19
891.28	211.18
891.58	211.18
891.89	211.15
892.20	211.15
892.50	211.13
892.81	211.16
893.12	211.19
893.42	211.01
893.73	210.98
894.04	210.97
894.34	211.01
894.65	210.99
894.95	210.97
895.26	210.94
895.57	211.05
895.87	210.97
896.18	211.01
896.48	211.03
896.79	211.04
897.10	210.97
897.40	211.00
897.71	211.08
898.01	211.03
898.32	211.07
898.63	211.10
898.93	211.07
899.24	211.02
899.54	210.97
899.85	211.02
900.15	210.97
900.46	211.04
900.76	211.04
901.07	211.05
901.38	211.07
901.68	211.07
901.99	211.00
902.29	210.96
902.60	210.95
902.90	210.92
903.21	210.86
903.51	210.94
903.82	210.94
904.12	210.86
904.43	210.92
904.73	210.92
905.03	210.91
905.34	211.11
905.64	211.10
905.95	211.15
906.25	211.15
906.56	211.19
906.86	211.25
907.17	211.21
907.47	211.21
907.77	211.17
908.08	211.12
908.38	211.09
908.69	211.10
908.99	211.14
909.30	211.12
909.60	211.12
909.90	211.12
910.21	211.00
910.51	210.95
910.81	210.91
911.12	210.90
911.42	210.88
911.73	210.72
912.03	210.72
912.33	210.72
912.64	210.73
912.94	210.67
913.24	210.60
913.55	210.58
913.85	210.52
914.15	210.53
914.46	210.54
914.76	210.56
915.06	210.65
915.37	210.55
915.67	210.51
915.97	210.55
916.27	210.46
916.58	210.50
916.88	210.52
917.18	210.50
917.49	210.56
917.79	210.54
918.09	210.52
918.39	210.54
918.70	210.54
919.00	210.51
919.30	210.60
919.60	210.56
919.91	210.54
920.21	210.62
920.51	210.62
920.81	210.60
921.12	210.56
921.42	210.45
921.72	210.50
922.02	210.57
922.32	210.60
922.63	210.66
922.93	210.78
923.23	210.80
923.53	210.79
923.83	210.72
924.13	210.70
924.44	210.67
924.74	210.69
925.04	210.76
925.34	210.81
925.64	210.71
925.94	210.70
926.24	210.80
926.55	210.76
926.85	210.78
927.15	210.83
927.45	210.79
927.75	210.82
928.05	210.82
928.35	210.83
928.65	210.83
928.95	210.85
929.26	210.84
929.56	210.96
929.86	211.09
930.16	211.07
930.46	211.11
930.76	211.21
931.06	211.21
931.36	211.15
931.66	211.13
931.96	211.27
932.26	211.33
932.56	211.25
932.86	211.38
933.16	211.46
933.46	211.46
933.76	211.54
934.06	211.65
934.36	211.72
934.66	211.67
934.96	211.67
935.26	211.64
935.56	211.55
935.86	211.45
936.16	211.39
936.46	211.42
936.76	211.44
937.06	211.40
937.36	211.41
937.66	211.45
937.96	211.43
938.26	211.45
938.56	211.45
938.86	211.48
939.16	211.43
939.46	211.37
939.76	211.40
940.06	211.37
940.35	211.26
940.65	211.17
940.95	211.18
941.25	211.14
941.55	211.13
941.85	211.19
942.15	211.22
942.45	211.21
942.75	211.16
943.04	211.14
943.34	211.13
943.64	211.08
943.94	211.03
944.24	211.02
944.54	210.98
944.84	211.01
945.13	210.98
945.43	210.94
945.73	210.98
946.03	210.92
946.33	210.92
946.62	210.88
946.92	210.83
947.22	210.87
947.52	210.93
947.82	210.89
948.11	210.82
948.41	210.73
948.71	210.69
949.01	210.73
949.31	210.72
949.60	210.74
949.90	210.75
950.20	210.72
950.50	210.76
950.79	210.68
951.09	210.66
951.39	210.61
951.69	210.64
951.98	210.60
952.28	210.60
952.58	210.63
952.87	210.71
953.17	210.77
953.47	210.73
953.76	210.71
954.06	210.79
954.36	210.79
954.66	210.88
954.95	210.98
955.25	210.97
955.55	210.99
955.84	210.92
956.14	210.96
956.44	210.95
956.73	210.86
957.03	210.89
957.32	210.90
957.62	210.93
957.92	210.94
958.21	210.96
958.51	211.16
958.81	211.17
959.10	211.18
959.40	211.17
959.69	211.25
959.99	211.25
960.29	211.15
960.58	211.16
960.88	211.18
961.17	211.10
961.47	211.10
961.76	211.08
962.06	211.05
962.36	211.03
962.65	211.09
962.95	211.13
963.24	211.04
963.54	211.10
963.83	211.05
964.13	211.06
964.42	211.00
964.72	210.83
965.01	210.82
965.31	210.83
965.60	210.80
965.90	210.86
966.19	210.84
966.49	210.89
966.78	210.85
967.08	210.84
967.37	210.85
967.67	210.80
967.96	210.81
968.26	210.92
968.55	210.91
968.85	210.90
969.14	210.88
969.43	210.92
969.73	210.82
970.02	210.85
970.32	210.85
970.61	210.80
970.91	210.75
971.20	210.74
971.49	210.67
971.79	210.68
972.08	210.55
972.38	210.56
972.67	210.58
972.96	210.67
973.26	210.60
973.55	210.59
973.85	210.60
974.14	210.56
974.43	210.51
974.73	210.45
975.02	210.43
975.31	210.49
975.61	210.49
975.90	210.51
976.19	210.55
976.49	210.55
976.78	210.64
977.07	210.65
977.37	210.61
977.66	210.66
977.95	210.68
978.24	210.67
978.54	210.75
978.83	210.69
979.12	210.61
979.42	210.69
979.71	210.70
980.00	210.71
980.29	210.78
980.59	210.78
980.88	210.82
981.17	210.79
981.46	210.81
981.76	210.77
982.05	210.76
982.34	210.69
982.63	210.70
982.93	210.64
983.22	210.75
983.51	210.80
983.80	210.85
984.09	210.83
984.39	210.82
984.68	210.78
984.97	210.82
985.26	210.84
985.55	210.83
985.85	210.84
986.14	210.89
986.43	210.95
986.72	210.91
987.01	210.90
987.30	210.93
987.59	210.84
987.89	210.91
988.18	210.88
988.47	210.91
988.76	210.90
989.05	210.91
989.34	210.81
989.63	210.87
989.92	210.75
990.22	210.73
990.51	210.73
990.80	210.65
991.09	210.62
991.38	210.62
991.67	210.52
991.96	210.52
992.25	210.49
992.54	210.40
992.83	210.42
993.12	210.41
993.41	210.53
993.70	210.71
993.99	210.74
994.28	210.76
994.58	210.83
994.87	210.84
995.16	210.84
995.45	210.83
995.74	210.78
996.03	210.85
996.32	210.95
996.61	211.02
996.90	211.05
997.19	211.10
997.48	211.12
997.77	211.15
998.06	211.09
998.34	211.05
998.63	210.99
998.92	210.97
999.21	211.02
999.50	210.96
999.79	210.79
1000.08	210.80
1000.37	210.77
1000.66	210.68
1000.95	210.67
1001.24	210.72
1001.53	210.80
1001.82	210.80
1002.11	210.80
1002.40	210.77
1002.68	210.78
1002.97	210.92
1003.26	210.82
1003.55	210.77
1003.84	210.84
1004.13	210.89
1004.42	210.85
1004.71	210.94
1004.99	210.95
1005.28	211.01
1005.57	211.00
1005.86	211.01
1006.15	210.99
1006.44	210.96
1006.72	211.01
1007.01	211.01
1007.30	211.00
1007.59	210.94
1007.88	210.94
1008.17	210.86
1008.45	210.86
1008.74	210.75
1009.03	210.68
1009.32	210.78
1009.60	210.85
1009.89	210.85
1010.18	210.84
1010.47	210.85
1010.76	210.85
1011.04	210.87
1011.33	210.88
1011.62	210.88
1011.91	210.96
1012.19	210.91
1012.48	210.94
1012.77	210.94
1013.05	211.04
1013.34	211.08
1013.63	211.11
1013.92	211.05
1014.20	211.12
1014.49	211.11
1014.78	211.15
1015.06	211.09
1015.35	211.10
1015.64	211.06
1015.92	211.07
1016.21	210.98
1016.50	211.05
1016.78	211.07
1017.07	211.12
1017.36	211.02
1017.64	210.94
1017.93	210.90
1018.22	210.90
1018.50	210.92
1018.79	210.92
1019.08	210.76
1019.36	210.68
1019.65	210.63
1019.93	210.72
1020.22	210.70
1020.51	210.77
1020.79	210.70
1021.08	210.35
1021.36	210.70
1021.65	210.75
1021.94	210.20
1022.22	210.25
1022.51	210.15
1022.79	211.55
1023.08	210.50
1023.36	212.80
1023.65	209.40
>>>>>End Processed Spectral Data<<<<<
