SpectraSuite Data File
++++++++++++++++++++++++++++++++++++
Date: Mon Feb 25 17:31:56 EST 2013
User: group
Dark Spectrum Present: No
Reference Spectrum Present: No
Number of Sampled Component Spectra: 1
Spectrometers: USB2E7196
Integration Time (usec): 52000 (USB2E7196)
Spectra Averaged: 20 (USB2E7196)
Boxcar Smoothing: 10 (USB2E7196)
Correct for Electrical Dark: No (USB2E7196)
Strobe/Lamp Enabled: No (USB2E7196)
Correct for Detector Non-linearity: No (USB2E7196)
Correct for Stray Light: No (USB2E7196)
Number of Pixels in Processed Spectrum: 2048
>>>>>Begin Processed Spectral Data<<<<<
339.09	0.00
339.48	200.05
339.86	199.55
340.24	201.35
340.63	203.30
341.01	206.35
341.39	207.20
341.78	207.25
342.16	207.45
342.54	207.80
342.93	198.07
343.31	208.05
343.69	208.59
344.07	209.12
344.46	209.56
344.84	209.98
345.22	210.20
345.60	210.41
345.99	210.67
346.37	210.86
346.75	211.01
347.13	211.03
347.52	211.04
347.90	211.15
348.28	211.13
348.66	211.18
349.05	211.19
349.43	211.21
349.81	211.16
350.19	211.28
350.57	211.29
350.96	211.38
351.34	211.50
351.72	211.58
352.10	211.62
352.48	211.70
352.87	211.70
353.25	211.80
353.63	211.80
354.01	211.78
354.39	211.81
354.77	211.93
355.15	212.04
355.54	212.11
355.92	212.10
356.30	212.20
356.68	212.36
357.06	212.43
357.44	212.50
357.82	212.62
358.20	212.64
358.58	212.72
358.97	212.74
359.35	212.81
359.73	212.82
360.11	212.90
360.49	212.97
360.87	213.02
361.25	213.06
361.63	213.22
362.01	213.35
362.39	213.41
362.77	213.42
363.15	213.54
363.53	213.56
363.91	213.61
364.29	213.67
364.67	213.56
365.05	213.59
365.43	213.57
365.81	213.58
366.19	213.70
366.57	213.74
366.95	213.71
367.33	213.67
367.71	213.74
368.09	213.72
368.47	213.67
368.85	213.64
369.23	213.69
369.61	213.61
369.99	213.60
370.37	213.59
370.75	213.66
371.13	213.58
371.51	213.54
371.89	213.51
372.27	213.49
372.65	213.52
373.03	213.50
373.41	213.47
373.78	213.47
374.16	213.35
374.54	213.32
374.92	213.20
375.30	213.16
375.68	213.01
376.06	213.06
376.44	213.01
376.82	213.00
377.19	212.90
377.57	212.85
377.95	212.72
378.33	212.65
378.71	212.46
379.09	212.39
379.47	212.37
379.84	212.43
380.22	212.38
380.60	212.31
380.98	212.27
381.36	212.24
381.73	212.14
382.11	212.05
382.49	211.95
382.87	212.00
383.25	212.00
383.62	212.22
384.00	212.08
384.38	212.11
384.76	212.15
385.13	212.14
385.51	212.13
385.89	212.08
386.27	212.05
386.64	212.05
387.02	212.04
387.40	212.07
387.78	211.97
388.15	211.95
388.53	211.91
388.91	211.90
389.29	211.88
389.66	211.90
390.04	211.95
390.42	211.99
390.79	211.93
391.17	211.95
391.55	211.70
391.92	211.75
392.30	211.73
392.68	211.64
393.05	211.71
393.43	211.69
393.81	211.71
394.18	211.67
394.56	211.70
394.94	211.70
395.31	211.62
395.69	211.73
396.06	211.74
396.44	211.75
396.82	211.71
397.19	211.77
397.57	211.80
397.95	211.84
398.32	211.82
398.70	211.89
399.07	211.97
399.45	212.01
399.82	211.98
400.20	212.01
400.58	212.07
400.95	212.02
401.33	212.15
401.70	212.36
402.08	212.51
402.45	212.52
402.83	212.70
403.20	212.79
403.58	212.81
403.95	212.93
404.33	213.05
404.71	213.15
405.08	213.37
405.46	213.41
405.83	213.53
406.21	213.69
406.58	213.85
406.96	213.90
407.33	214.10
407.70	214.36
408.08	214.70
408.45	214.94
408.83	215.21
409.20	215.30
409.58	215.38
409.95	215.55
410.33	215.84
410.70	216.14
411.08	216.49
411.45	216.85
411.82	217.21
412.20	217.62
412.57	218.18
412.95	218.50
413.32	219.05
413.69	219.50
414.07	220.08
414.44	220.65
414.82	221.32
415.19	222.00
415.56	222.74
415.94	223.42
416.31	224.25
416.68	225.02
417.06	226.04
417.43	227.09
417.81	228.24
418.18	229.45
418.55	230.53
418.93	231.77
419.30	233.13
419.67	234.47
420.04	235.90
420.42	237.36
420.79	239.18
421.16	240.96
421.54	242.85
421.91	244.65
422.28	246.54
422.66	248.54
423.03	250.57
423.40	252.66
423.77	254.84
424.15	257.05
424.52	259.39
424.89	261.92
425.26	264.27
425.64	266.58
426.01	269.17
426.38	271.85
426.75	274.59
427.13	277.34
427.50	280.35
427.87	283.40
428.24	286.53
428.61	289.37
428.99	292.58
429.36	296.02
429.73	299.47
430.10	302.95
430.47	306.48
430.85	310.16
431.22	313.90
431.59	318.10
431.96	321.98
432.33	326.32
432.70	330.55
433.08	335.54
433.45	340.12
433.82	344.65
434.19	349.74
434.56	354.68
434.93	359.37
435.30	364.11
435.68	369.30
436.05	374.23
436.42	379.41
436.79	383.97
437.16	388.96
437.53	394.35
437.90	399.55
438.27	404.68
438.64	409.86
439.01	414.78
439.38	418.95
439.75	423.21
440.13	428.06
440.50	432.54
440.87	436.09
441.24	439.88
441.61	444.02
441.98	447.05
442.35	450.50
442.72	454.13
443.09	457.50
443.46	459.55
443.83	461.05
444.20	462.13
444.57	463.92
444.94	464.61
445.31	465.34
445.68	466.12
446.05	466.30
446.42	465.66
446.79	465.04
447.16	464.25
447.53	463.61
447.90	461.53
448.27	459.41
448.64	456.68
449.01	454.63
449.37	451.04
449.74	447.65
450.11	443.76
450.48	439.32
450.85	434.80
451.22	430.89
451.59	427.14
451.96	423.54
452.33	418.81
452.70	414.62
453.07	409.43
453.43	404.29
453.80	399.42
454.17	394.75
454.54	390.21
454.91	385.52
455.28	380.89
455.65	376.46
456.02	372.21
456.38	368.31
456.75	363.67
457.12	359.81
457.49	355.88
457.86	352.06
458.23	348.85
458.59	345.39
458.96	341.83
459.33	338.72
459.70	335.63
460.07	333.10
460.43	330.22
460.80	327.56
461.17	325.11
461.54	322.63
461.91	320.28
462.27	317.92
462.64	315.82
463.01	313.55
463.38	311.51
463.74	309.31
464.11	307.54
464.48	305.92
464.85	304.23
465.21	302.97
465.58	301.61
465.95	300.00
466.32	298.62
466.68	297.23
467.05	295.81
467.42	294.49
467.78	293.21
468.15	291.84
468.52	290.92
468.88	289.68
469.25	288.52
469.62	287.60
469.98	286.57
470.35	285.67
470.72	284.83
471.08	283.84
471.45	283.00
471.82	282.26
472.18	281.51
472.55	280.93
472.92	280.20
473.28	279.63
473.65	278.98
474.02	278.35
474.38	277.98
474.75	277.70
475.11	277.33
475.48	277.02
475.85	276.86
476.21	276.61
476.58	276.52
476.94	276.51
477.31	276.52
477.67	276.50
478.04	276.54
478.41	276.72
478.77	277.02
479.14	277.21
479.50	277.55
479.87	277.87
480.23	278.25
480.60	278.66
480.96	279.00
481.33	279.57
481.69	280.26
482.06	280.88
482.42	281.42
482.79	282.14
483.15	282.98
483.52	284.01
483.88	284.87
484.25	285.83
484.61	286.92
484.98	287.92
485.34	289.32
485.71	290.71
486.07	292.11
486.44	293.41
486.80	294.98
487.17	296.40
487.53	298.19
487.90	299.97
488.26	301.87
488.62	303.96
488.99	306.02
489.35	308.16
489.72	310.50
490.08	312.95
490.44	315.40
490.81	318.06
491.17	320.71
491.54	323.67
491.90	326.61
492.26	329.73
492.63	333.01
492.99	336.29
493.36	339.95
493.72	343.83
494.08	347.78
494.45	352.13
494.81	356.77
495.17	361.24
495.54	366.16
495.90	371.27
496.26	376.39
496.63	381.99
496.99	387.71
497.35	393.78
497.72	400.00
498.08	406.48
498.44	413.15
498.80	420.35
499.17	427.75
499.53	435.39
499.89	443.31
500.26	451.47
500.62	459.90
500.98	468.76
501.34	477.76
501.71	487.11
502.07	496.61
502.43	506.41
502.79	516.67
503.16	527.21
503.52	538.15
503.88	549.38
504.24	560.71
504.60	572.45
504.97	584.62
505.33	597.09
505.69	610.49
506.05	623.82
506.41	637.29
506.78	651.04
507.14	665.16
507.50	679.63
507.86	694.74
508.22	710.03
508.59	725.35
508.95	741.24
509.31	757.52
509.67	774.31
510.03	791.14
510.39	808.75
510.75	826.42
511.12	844.29
511.48	862.61
511.84	881.44
512.20	900.25
512.56	919.43
512.92	938.95
513.28	958.33
513.64	978.19
514.00	997.92
514.37	1018.06
514.73	1038.59
515.09	1059.42
515.45	1079.91
515.81	1100.97
516.17	1122.28
516.53	1143.72
516.89	1165.19
517.25	1186.33
517.61	1207.93
517.97	1229.21
518.33	1250.47
518.69	1271.98
519.05	1293.87
519.41	1315.77
519.77	1338.13
520.13	1360.05
520.49	1382.09
520.85	1404.41
521.21	1426.70
521.57	1449.52
521.93	1471.48
522.29	1494.29
522.65	1516.71
523.01	1539.18
523.37	1561.12
523.73	1583.18
524.09	1605.09
524.45	1627.23
524.81	1649.60
525.17	1671.97
525.53	1694.24
525.89	1716.34
526.25	1738.35
526.61	1759.51
526.97	1781.14
527.33	1802.19
527.68	1823.31
528.04	1844.31
528.40	1864.46
528.76	1884.95
529.12	1905.69
529.48	1927.49
529.84	1947.68
530.20	1967.98
530.56	1988.32
530.91	2009.20
531.27	2029.58
531.63	2049.46
531.99	2069.10
532.35	2088.25
532.71	2107.03
533.07	2126.32
533.42	2144.86
533.78	2163.55
534.14	2182.01
534.50	2198.92
534.86	2217.03
535.21	2233.91
535.57	2251.37
535.93	2268.41
536.29	2285.29
536.65	2301.52
537.00	2316.66
537.36	2332.02
537.72	2346.87
538.08	2362.03
538.44	2376.86
538.79	2391.78
539.15	2406.44
539.51	2420.70
539.87	2435.63
540.22	2450.02
540.58	2464.68
540.94	2479.11
541.29	2491.87
541.65	2503.91
542.01	2516.89
542.37	2528.22
542.72	2540.40
543.08	2551.06
543.44	2562.85
543.79	2572.72
544.15	2582.54
544.51	2593.36
544.87	2604.09
545.22	2613.23
545.58	2621.46
545.94	2628.45
546.29	2634.69
546.65	2640.50
547.01	2646.65
547.36	2652.11
547.72	2657.36
548.07	2661.17
548.43	2664.94
548.79	2668.50
549.14	2673.02
549.50	2677.28
549.86	2681.42
550.21	2685.15
550.57	2689.26
550.92	2691.94
551.28	2694.36
551.64	2697.07
551.99	2699.13
552.35	2700.21
552.70	2702.79
553.06	2705.39
553.41	2708.37
553.77	2711.62
554.13	2714.07
554.48	2715.98
554.84	2717.21
555.19	2717.74
555.55	2718.31
555.90	2718.67
556.26	2719.24
556.61	2719.10
556.97	2717.79
557.32	2717.06
557.68	2715.41
558.03	2713.79
558.39	2711.87
558.74	2711.72
559.10	2710.49
559.45	2708.75
559.81	2707.87
560.16	2705.19
560.52	2702.52
560.87	2699.57
561.23	2695.66
561.58	2693.56
561.94	2690.48
562.29	2687.02
562.64	2685.19
563.00	2682.80
563.35	2680.46
563.71	2678.86
564.06	2676.42
564.42	2674.49
564.77	2671.80
565.12	2670.06
565.48	2666.80
565.83	2664.17
566.19	2660.26
566.54	2655.74
566.89	2651.80
567.25	2647.70
567.60	2644.37
567.96	2640.86
568.31	2637.25
568.66	2633.53
569.02	2628.53
569.37	2623.31
569.72	2619.17
570.08	2613.60
570.43	2607.58
570.78	2602.11
571.14	2595.78
571.49	2589.35
571.84	2583.46
572.20	2576.87
572.55	2570.20
572.90	2563.66
573.26	2556.54
573.61	2549.97
573.96	2543.76
574.31	2535.79
574.67	2527.73
575.02	2519.37
575.37	2510.63
575.72	2501.54
576.08	2493.58
576.43	2485.12
576.78	2477.52
577.13	2469.76
577.49	2461.61
577.84	2454.08
578.19	2446.50
578.54	2439.12
578.90	2432.27
579.25	2423.67
579.60	2414.56
579.95	2405.18
580.30	2397.22
580.66	2389.25
581.01	2380.11
581.36	2370.77
581.71	2362.60
582.06	2354.24
582.42	2346.41
582.77	2337.62
583.12	2328.88
583.47	2320.14
583.82	2312.02
584.17	2302.97
584.53	2293.96
584.88	2285.10
585.23	2275.98
585.58	2266.26
585.93	2256.58
586.28	2247.24
586.63	2238.59
586.98	2230.52
587.34	2222.34
587.69	2213.26
588.04	2203.93
588.39	2195.78
588.74	2186.96
589.09	2178.11
589.44	2168.85
589.79	2159.94
590.14	2152.08
590.49	2143.97
590.84	2135.15
591.19	2126.85
591.54	2117.86
591.89	2107.84
592.25	2098.92
592.60	2089.46
592.95	2080.30
593.30	2070.84
593.65	2061.26
594.00	2051.76
594.35	2043.84
594.70	2034.84
595.05	2026.26
595.40	2018.00
595.75	2008.50
596.10	2000.28
596.45	1992.06
596.80	1984.30
597.15	1976.27
597.50	1967.32
597.85	1958.83
598.19	1950.38
598.54	1941.85
598.89	1934.16
599.24	1927.22
599.59	1919.52
599.94	1912.37
600.29	1904.59
600.64	1896.74
600.99	1888.57
601.34	1881.29
601.69	1872.25
602.04	1864.26
602.39	1856.44
602.74	1848.32
603.08	1841.78
603.43	1834.80
603.78	1826.82
604.13	1818.79
604.48	1810.77
604.83	1803.79
605.18	1796.59
605.53	1789.18
605.87	1781.54
606.22	1774.84
606.57	1767.30
606.92	1759.60
607.27	1751.74
607.62	1744.40
607.96	1737.68
608.31	1731.67
608.66	1724.01
609.01	1716.58
609.36	1708.87
609.70	1700.69
610.05	1693.15
610.40	1685.02
610.75	1676.33
611.10	1668.90
611.44	1659.88
611.79	1650.93
612.14	1641.84
612.49	1632.58
612.83	1623.80
613.18	1614.47
613.53	1604.83
613.88	1594.96
614.22	1585.92
614.57	1576.91
614.92	1567.85
615.27	1558.64
615.61	1548.59
615.96	1539.27
616.31	1530.80
616.65	1522.87
617.00	1514.65
617.35	1506.01
617.70	1497.04
618.04	1488.32
618.39	1478.78
618.74	1470.49
619.08	1461.75
619.43	1453.73
619.78	1446.11
620.12	1438.19
620.47	1430.50
620.82	1422.13
621.16	1414.14
621.51	1405.91
621.85	1397.56
622.20	1389.10
622.55	1380.59
622.89	1372.37
623.24	1364.69
623.59	1356.15
623.93	1347.58
624.28	1339.24
624.62	1331.28
624.97	1323.47
625.32	1315.53
625.66	1308.49
626.01	1301.44
626.35	1294.53
626.70	1286.62
627.04	1278.98
627.39	1271.53
627.73	1263.97
628.08	1257.16
628.43	1249.86
628.77	1242.60
629.12	1235.30
629.46	1229.18
629.81	1222.15
630.15	1215.15
630.50	1207.98
630.84	1200.97
631.19	1193.96
631.53	1187.61
631.88	1180.02
632.22	1172.47
632.57	1165.88
632.91	1158.45
633.26	1150.82
633.60	1143.75
633.95	1137.09
634.29	1129.78
634.64	1123.10
634.98	1116.08
635.32	1109.08
635.67	1102.65
636.01	1095.99
636.36	1089.38
636.70	1082.41
637.05	1075.94
637.39	1069.63
637.73	1063.31
638.08	1057.53
638.42	1051.60
638.77	1045.09
639.11	1038.78
639.45	1032.84
639.80	1026.17
640.14	1019.79
640.49	1013.66
640.83	1007.58
641.17	1001.33
641.52	995.37
641.86	988.65
642.20	982.58
642.55	975.86
642.89	969.34
643.23	962.89
643.58	956.82
643.92	949.93
644.26	943.57
644.61	937.54
644.95	931.48
645.29	925.13
645.64	918.72
645.98	912.41
646.32	906.55
646.66	900.29
647.01	894.28
647.35	888.47
647.69	882.14
648.04	875.98
648.38	869.86
648.72	863.82
649.06	858.10
649.41	852.15
649.75	846.42
650.09	840.85
650.43	835.22
650.78	829.25
651.12	823.73
651.46	818.00
651.80	812.11
652.14	806.24
652.49	800.35
652.83	794.54
653.17	788.58
653.51	782.78
653.85	777.16
654.20	771.46
654.54	765.64
654.88	760.48
655.22	754.73
655.56	749.06
655.90	743.37
656.25	737.50
656.59	732.02
656.93	726.88
657.27	721.72
657.61	716.22
657.95	711.15
658.29	706.05
658.64	701.14
658.98	695.88
659.32	690.45
659.66	685.30
660.00	679.91
660.34	674.65
660.68	669.83
661.02	664.70
661.36	660.08
661.70	655.33
662.05	650.50
662.39	646.08
662.73	641.71
663.07	637.47
663.41	633.29
663.75	628.78
664.09	624.20
664.43	619.44
664.77	615.10
665.11	610.54
665.45	606.10
665.79	601.60
666.13	597.29
666.47	593.24
666.81	589.07
667.15	585.15
667.49	581.32
667.83	577.32
668.17	573.75
668.51	570.03
668.85	566.33
669.19	562.77
669.53	558.89
669.87	554.91
670.21	551.16
670.55	547.36
670.89	543.89
671.23	540.56
671.57	537.19
671.91	533.61
672.25	530.17
672.58	526.75
672.92	523.30
673.26	520.28
673.60	517.10
673.94	513.90
674.28	510.58
674.62	507.47
674.96	504.23
675.30	500.97
675.64	497.72
675.97	494.50
676.31	491.38
676.65	488.51
676.99	485.95
677.33	483.01
677.67	480.05
678.01	477.03
678.34	473.89
678.68	470.90
679.02	467.98
679.36	465.25
679.70	462.41
680.04	459.67
680.37	456.69
680.71	453.75
681.05	451.00
681.39	448.35
681.73	445.59
682.06	443.15
682.40	440.65
682.74	438.06
683.08	435.66
683.42	433.07
683.75	430.50
684.09	427.75
684.43	425.19
684.77	422.56
685.10	420.00
685.44	417.43
685.78	414.95
686.12	412.77
686.45	410.47
686.79	408.16
687.13	406.00
687.46	403.73
687.80	401.68
688.14	399.42
688.48	397.36
688.81	395.21
689.15	392.85
689.49	390.48
689.82	388.29
690.16	385.95
690.50	383.69
690.83	381.50
691.17	379.35
691.51	377.21
691.84	375.14
692.18	373.13
692.52	371.30
692.85	369.51
693.19	367.69
693.52	365.73
693.86	363.80
694.20	361.87
694.53	360.00
694.87	357.99
695.21	356.09
695.54	354.20
695.88	352.34
696.21	350.55
696.55	348.86
696.88	347.04
697.22	345.40
697.56	343.81
697.89	342.15
698.23	340.51
698.56	338.91
698.90	337.48
699.23	335.94
699.57	334.35
699.90	332.71
700.24	331.01
700.58	329.40
700.91	327.83
701.25	326.51
701.58	325.19
701.92	323.81
702.25	322.46
702.59	321.01
702.92	319.67
703.26	318.35
703.59	317.10
703.93	316.08
704.26	314.86
704.60	313.54
704.93	312.28
705.26	311.08
705.60	309.89
705.93	308.62
706.27	307.39
706.60	306.37
706.94	305.28
707.27	304.10
707.61	302.95
707.94	301.86
708.27	300.49
708.61	299.33
708.94	298.28
709.28	297.15
709.61	296.10
709.94	295.10
710.28	294.04
710.61	292.97
710.95	291.75
711.28	290.75
711.61	289.76
711.95	288.79
712.28	287.78
712.61	286.73
712.95	285.85
713.28	284.95
713.61	283.89
713.95	282.97
714.28	282.16
714.61	281.25
714.95	280.42
715.28	279.54
715.61	278.57
715.95	277.66
716.28	276.84
716.61	275.99
716.95	275.10
717.28	274.30
717.61	273.45
717.94	272.67
718.28	271.77
718.61	271.09
718.94	270.35
719.27	269.57
719.61	268.90
719.94	268.17
720.27	267.45
720.60	266.81
720.94	266.04
721.27	265.26
721.60	264.75
721.93	264.03
722.27	263.47
722.60	262.95
722.93	262.37
723.26	261.76
723.59	261.13
723.93	260.54
724.26	260.03
724.59	259.45
724.92	258.85
725.25	258.36
725.59	257.77
725.92	257.25
726.25	256.86
726.58	256.39
726.91	255.90
727.24	255.36
727.57	254.83
727.91	254.33
728.24	253.90
728.57	253.43
728.90	253.03
729.23	252.52
729.56	252.06
729.89	251.55
730.22	251.12
730.55	250.66
730.89	250.18
731.22	249.68
731.55	249.28
731.88	248.85
732.21	248.38
732.54	247.92
732.87	247.44
733.20	246.97
733.53	246.52
733.86	246.08
734.19	245.65
734.52	245.25
734.85	245.01
735.18	244.57
735.51	244.15
735.84	243.76
736.17	243.38
736.50	242.95
736.83	242.81
737.16	242.47
737.49	242.12
737.82	241.77
738.15	241.42
738.48	241.06
738.81	240.74
739.14	240.37
739.47	240.10
739.80	239.80
740.13	239.40
740.46	239.02
740.79	238.66
741.12	238.39
741.45	237.99
741.78	237.69
742.11	237.50
742.44	237.12
742.77	236.82
743.10	236.52
743.43	236.22
743.75	235.68
744.08	235.62
744.41	235.40
744.74	235.10
745.07	234.82
745.40	234.58
745.73	234.36
746.06	234.11
746.39	233.83
746.71	233.51
747.04	233.23
747.37	233.06
747.70	232.81
748.03	232.52
748.36	232.39
748.68	232.02
749.01	231.60
749.34	231.43
749.67	231.15
750.00	230.96
750.33	230.84
750.65	230.63
750.98	230.09
751.31	229.82
751.64	229.62
751.97	229.50
752.29	229.30
752.62	228.98
752.95	228.79
753.28	228.47
753.60	228.24
753.93	228.05
754.26	227.78
754.59	227.45
754.91	227.26
755.24	227.02
755.57	226.88
755.90	226.78
756.22	226.47
756.55	226.28
756.88	226.02
757.20	225.67
757.53	225.41
757.86	225.23
758.19	225.05
758.51	224.93
758.84	224.59
759.17	224.33
759.49	224.20
759.82	224.07
760.15	224.02
760.47	223.84
760.80	223.61
761.13	223.51
761.45	223.42
761.78	223.23
762.11	223.10
762.43	222.95
762.76	222.71
763.08	222.62
763.41	222.48
763.74	222.33
764.06	222.14
764.39	222.05
764.71	221.96
765.04	221.85
765.37	221.71
765.69	221.61
766.02	221.50
766.34	221.31
766.67	221.11
767.00	220.96
767.32	220.99
767.65	221.06
767.97	220.85
768.30	220.75
768.62	220.63
768.95	220.51
769.27	220.34
769.60	220.34
769.92	220.27
770.25	220.19
770.57	220.11
770.90	220.12
771.22	220.00
771.55	219.88
771.87	219.73
772.20	219.57
772.52	219.66
772.85	219.81
773.17	219.73
773.50	219.68
773.82	219.59
774.15	219.36
774.47	219.14
774.80	219.09
775.12	218.97
775.45	218.83
775.77	218.78
776.09	218.77
776.42	218.70
776.74	218.64
777.07	218.47
777.39	218.41
777.72	218.28
778.04	218.25
778.36	218.23
778.69	218.20
779.01	218.16
779.33	217.91
779.66	217.60
779.98	217.58
780.31	217.50
780.63	217.45
780.95	217.43
781.28	217.35
781.60	217.29
781.92	217.22
782.25	217.22
782.57	217.10
782.89	216.96
783.22	216.83
783.54	216.72
783.86	216.77
784.19	216.70
784.51	216.76
784.83	216.64
785.16	216.56
785.48	216.47
785.80	216.39
786.12	216.32
786.45	216.28
786.77	216.25
787.09	216.19
787.42	216.06
787.74	215.97
788.06	215.88
788.38	215.77
788.71	215.71
789.03	215.68
789.35	215.66
789.67	215.62
789.99	215.54
790.32	215.44
790.64	215.38
790.96	215.46
791.28	215.28
791.61	215.20
791.93	215.18
792.25	215.15
792.57	215.18
792.89	215.09
793.21	215.10
793.54	215.01
793.86	214.99
794.18	214.99
794.50	214.96
794.82	214.99
795.14	215.03
795.47	215.06
795.79	214.99
796.11	214.97
796.43	214.97
796.75	214.97
797.07	214.95
797.39	214.91
797.71	214.77
798.04	214.77
798.36	214.66
798.68	214.62
799.00	214.62
799.32	214.54
799.64	214.59
799.96	214.52
800.28	214.55
800.60	214.53
800.92	214.50
801.24	214.45
801.56	214.48
801.89	214.37
802.21	214.37
802.53	214.36
802.85	214.36
803.17	214.42
803.49	214.31
803.81	214.35
804.13	214.31
804.45	214.22
804.77	214.16
805.09	214.22
805.41	214.16
805.73	214.08
806.05	214.05
806.37	214.02
806.69	213.95
807.01	213.88
807.33	213.86
807.65	213.81
807.97	213.91
808.28	213.85
808.60	213.87
808.92	213.79
809.24	213.87
809.56	213.83
809.88	213.75
810.20	213.80
810.52	213.75
810.84	213.74
811.16	213.70
811.48	213.77
811.80	213.83
812.12	213.84
812.43	213.84
812.75	213.82
813.07	213.79
813.39	213.87
813.71	213.77
814.03	213.73
814.35	213.74
814.67	213.66
814.98	213.59
815.30	213.56
815.62	213.55
815.94	213.41
816.26	213.43
816.58	213.34
816.89	213.35
817.21	213.35
817.53	213.29
817.85	213.37
818.17	213.30
818.48	213.20
818.80	213.21
819.12	213.21
819.44	213.18
819.76	213.12
820.07	213.05
820.39	213.01
820.71	212.95
821.03	212.88
821.34	212.88
821.66	212.87
821.98	212.85
822.30	212.83
822.61	212.90
822.93	212.88
823.25	212.83
823.57	212.80
823.88	212.83
824.20	212.90
824.52	212.90
824.83	212.84
825.15	212.90
825.47	212.81
825.79	212.80
826.10	212.78
826.42	212.81
826.74	212.82
827.05	212.94
827.37	212.93
827.69	212.84
828.00	212.84
828.32	212.88
828.64	212.83
828.95	212.89
829.27	212.85
829.58	212.75
829.90	212.73
830.22	212.68
830.53	212.56
830.85	212.48
831.17	212.44
831.48	212.42
831.80	212.36
832.11	212.35
832.43	212.29
832.75	212.21
833.06	212.29
833.38	212.15
833.69	212.12
834.01	212.08
834.32	212.16
834.64	212.06
834.96	211.97
835.27	211.98
835.59	211.92
835.90	211.89
836.22	211.86
836.53	211.85
836.85	211.88
837.16	212.05
837.48	212.03
837.79	211.99
838.11	212.04
838.42	212.03
838.74	212.03
839.05	212.09
839.37	212.07
839.68	211.98
840.00	212.01
840.31	212.00
840.63	211.97
840.94	211.94
841.26	211.94
841.57	212.03
841.88	212.05
842.20	212.05
842.51	212.02
842.83	212.05
843.14	212.22
843.46	212.20
843.77	212.13
844.08	212.07
844.40	212.07
844.71	212.08
845.03	212.10
845.34	212.19
845.65	212.17
845.97	212.29
846.28	212.23
846.60	212.23
846.91	212.22
847.22	212.33
847.54	212.34
847.85	212.35
848.16	212.34
848.48	212.31
848.79	212.35
849.10	212.38
849.42	212.34
849.73	212.15
850.04	212.13
850.36	212.04
850.67	212.20
850.98	212.22
851.30	212.18
851.61	212.12
851.92	212.06
852.23	212.10
852.55	212.04
852.86	212.07
853.17	212.07
853.49	212.08
853.80	212.07
854.11	212.13
854.42	212.14
854.74	212.11
855.05	212.10
855.36	211.97
855.67	211.99
855.99	212.03
856.30	212.31
856.61	212.38
856.92	212.46
857.23	212.35
857.55	212.24
857.86	212.20
858.17	212.30
858.48	212.22
858.79	212.18
859.11	212.23
859.42	212.21
859.73	212.14
860.04	212.13
860.35	212.07
860.66	211.98
860.98	211.92
861.29	211.90
861.60	211.90
861.91	211.98
862.22	211.85
862.53	211.80
862.84	211.58
863.16	211.60
863.47	211.50
863.78	211.52
864.09	211.62
864.40	211.70
864.71	211.62
865.02	211.60
865.33	211.56
865.64	211.51
865.95	211.50
866.27	211.72
866.58	211.69
866.89	211.73
867.20	211.73
867.51	211.70
867.82	211.75
868.13	211.80
868.44	211.74
868.75	211.78
869.06	211.82
869.37	211.83
869.68	211.70
869.99	211.77
870.30	211.74
870.61	211.76
870.92	211.71
871.23	211.71
871.54	211.79
871.85	211.83
872.16	211.81
872.47	211.78
872.78	211.61
873.09	211.62
873.40	211.57
873.71	211.58
874.02	211.64
874.33	211.62
874.64	211.52
874.95	211.56
875.26	211.55
875.56	211.53
875.87	211.50
876.18	211.53
876.49	211.63
876.80	211.61
877.11	211.53
877.42	211.50
877.73	211.49
878.04	211.47
878.35	211.45
878.66	211.47
878.96	211.45
879.27	211.44
879.58	211.46
879.89	211.45
880.20	211.53
880.51	211.51
880.82	211.48
881.12	211.48
881.43	211.37
881.74	211.38
882.05	211.34
882.36	211.30
882.67	211.31
882.97	211.16
883.28	211.15
883.59	211.16
883.90	211.24
884.21	211.29
884.51	211.28
884.82	211.20
885.13	211.23
885.44	211.28
885.74	211.30
886.05	211.32
886.36	211.30
886.67	211.19
886.98	211.31
887.28	211.28
887.59	211.35
887.90	211.45
888.20	211.40
888.51	211.46
888.82	211.52
889.13	211.51
889.43	211.66
889.74	211.67
890.05	211.67
890.35	211.61
890.66	211.56
890.97	211.49
891.28	211.54
891.58	211.51
891.89	211.54
892.20	211.51
892.50	211.48
892.81	211.49
893.12	211.52
893.42	211.42
893.73	211.54
894.04	211.51
894.34	211.45
894.65	211.47
894.95	211.49
895.26	211.44
895.57	211.54
895.87	211.30
896.18	211.39
896.48	211.44
896.79	211.44
897.10	211.41
897.40	211.48
897.71	211.48
898.01	211.48
898.32	211.43
898.63	211.45
898.93	211.39
899.24	211.43
899.54	211.43
899.85	211.44
900.15	211.40
900.46	211.49
900.76	211.55
901.07	211.55
901.38	211.51
901.68	211.53
901.99	211.38
902.29	211.47
902.60	211.43
902.90	211.39
903.21	211.38
903.51	211.40
903.82	211.40
904.12	211.40
904.43	211.43
904.73	211.44
905.03	211.47
905.34	211.70
905.64	211.66
905.95	211.64
906.25	211.57
906.56	211.51
906.86	211.44
907.17	211.51
907.47	211.51
907.77	211.45
908.08	211.46
908.38	211.49
908.69	211.47
908.99	211.44
909.30	211.38
909.60	211.44
909.90	211.47
910.21	211.45
910.51	211.40
910.81	211.36
911.12	211.40
911.42	211.34
911.73	211.23
912.03	211.20
912.33	211.15
912.64	211.20
912.94	211.18
913.24	211.16
913.55	211.03
913.85	211.03
914.15	211.09
914.46	211.09
914.76	211.05
915.06	211.05
915.37	211.02
915.67	211.04
915.97	210.97
916.27	210.95
916.58	210.94
916.88	210.95
917.18	210.93
917.49	210.97
917.79	210.97
918.09	210.90
918.39	210.92
918.70	210.96
919.00	210.90
919.30	210.95
919.60	210.95
919.91	210.94
920.21	210.94
920.51	210.88
920.81	210.85
921.12	210.88
921.42	210.85
921.72	210.86
922.02	210.85
922.32	210.92
922.63	210.90
922.93	210.95
923.23	210.92
923.53	210.86
923.83	210.73
924.13	210.74
924.44	210.70
924.74	210.76
925.04	210.87
925.34	210.88
925.64	210.82
925.94	210.80
926.24	210.89
926.55	210.93
926.85	210.95
927.15	210.97
927.45	210.95
927.75	210.96
928.05	210.97
928.35	210.96
928.65	210.96
928.95	210.94
929.26	210.89
929.56	210.98
929.86	211.03
930.16	211.07
930.46	211.08
930.76	211.08
931.06	210.93
931.36	210.83
931.66	210.86
931.96	210.89
932.26	210.88
932.56	210.91
932.86	210.87
933.16	210.89
933.46	210.90
933.76	210.94
934.06	211.01
934.36	211.06
934.66	211.08
934.96	211.01
935.26	211.05
935.56	211.08
935.86	210.98
936.16	211.02
936.46	211.02
936.76	211.02
937.06	211.04
937.36	211.05
937.66	211.00
937.96	210.94
938.26	210.95
938.56	210.95
938.86	210.85
939.16	210.88
939.46	210.90
939.76	210.94
940.06	210.90
940.35	210.84
940.65	210.85
940.95	210.88
941.25	210.92
941.55	210.91
941.85	210.94
942.15	210.99
942.45	210.95
942.75	210.90
943.04	210.92
943.34	210.97
943.64	211.05
943.94	211.05
944.24	211.14
944.54	211.13
944.84	211.15
945.13	211.18
945.43	211.13
945.73	211.12
946.03	211.07
946.33	211.08
946.62	211.07
946.92	210.94
947.22	210.98
947.52	210.99
947.82	210.98
948.11	210.97
948.41	210.99
948.71	210.98
949.01	211.04
949.31	210.98
949.60	210.92
949.90	210.98
950.20	211.02
950.50	210.96
950.79	210.96
951.09	210.96
951.39	210.90
951.69	210.91
951.98	210.90
952.28	210.92
952.58	210.92
952.87	210.91
953.17	210.96
953.47	210.88
953.76	210.89
954.06	210.87
954.36	210.81
954.66	210.78
954.95	210.85
955.25	210.85
955.55	210.92
955.84	210.94
956.14	210.89
956.44	210.85
956.73	210.90
957.03	210.85
957.32	210.84
957.62	210.91
957.92	210.93
958.21	210.90
958.51	211.12
958.81	211.19
959.10	211.24
959.40	211.31
959.69	211.41
959.99	211.39
960.29	211.48
960.58	211.50
960.88	211.55
961.17	211.49
961.47	211.54
961.76	211.47
962.06	211.53
962.36	211.56
962.65	211.58
962.95	211.60
963.24	211.65
963.54	211.69
963.83	211.69
964.13	211.70
964.42	211.71
964.72	211.49
965.01	211.40
965.31	211.39
965.60	211.42
965.90	211.41
966.19	211.34
966.49	211.32
966.78	211.30
967.08	211.31
967.37	211.35
967.67	211.35
967.96	211.34
968.26	211.30
968.55	211.31
968.85	211.31
969.14	211.27
969.43	211.23
969.73	211.23
970.02	211.18
970.32	211.10
970.61	211.10
970.91	211.06
971.20	211.10
971.49	211.09
971.79	210.95
972.08	210.85
972.38	210.90
972.67	210.88
972.96	210.91
973.26	210.82
973.55	210.90
973.85	210.77
974.14	210.77
974.43	210.80
974.73	210.76
975.02	210.81
975.31	210.79
975.61	210.81
975.90	210.77
976.19	210.68
976.49	210.72
976.78	210.69
977.07	210.74
977.37	210.66
977.66	210.66
977.95	210.75
978.24	210.74
978.54	210.73
978.83	210.68
979.12	210.70
979.42	210.70
979.71	210.60
980.00	210.62
980.29	210.62
980.59	210.54
980.88	210.55
981.17	210.53
981.46	210.51
981.76	210.46
982.05	210.46
982.34	210.52
982.63	210.58
982.93	210.62
983.22	210.69
983.51	210.77
983.80	210.70
984.09	210.63
984.39	210.59
984.68	210.59
984.97	210.65
985.26	210.54
985.55	210.62
985.85	210.60
986.14	210.66
986.43	210.69
986.72	210.70
987.01	210.64
987.30	210.65
987.59	210.64
987.89	210.67
988.18	210.64
988.47	210.68
988.76	210.64
989.05	210.61
989.34	210.52
989.63	210.59
989.92	210.61
990.22	210.63
990.51	210.67
990.80	210.66
991.09	210.59
991.38	210.69
991.67	210.60
991.96	210.67
992.25	210.65
992.54	210.60
992.83	210.70
993.12	210.69
993.41	210.72
993.70	210.86
993.99	210.86
994.28	210.96
994.58	210.96
994.87	210.92
995.16	210.89
995.45	210.90
995.74	210.80
996.03	210.84
996.32	210.83
996.61	210.96
996.90	210.96
997.19	211.00
997.48	210.99
997.77	211.10
998.06	211.10
998.34	211.11
998.63	211.08
998.92	211.03
999.21	211.08
999.50	211.04
999.79	210.95
1000.08	210.97
1000.37	210.96
1000.66	210.98
1000.95	211.11
1001.24	211.16
1001.53	211.23
1001.82	211.19
1002.11	211.12
1002.40	211.20
1002.68	211.18
1002.97	211.43
1003.26	211.35
1003.55	211.29
1003.84	211.27
1004.13	211.27
1004.42	211.23
1004.71	211.27
1004.99	211.27
1005.28	211.31
1005.57	211.35
1005.86	211.42
1006.15	211.40
1006.44	211.32
1006.72	211.30
1007.01	211.22
1007.30	211.15
1007.59	211.07
1007.88	211.15
1008.17	211.23
1008.45	211.15
1008.74	211.06
1009.03	210.88
1009.32	210.96
1009.60	210.98
1009.89	210.94
1010.18	210.91
1010.47	210.97
1010.76	211.01
1011.04	211.01
1011.33	211.01
1011.62	210.95
1011.91	210.93
1012.19	210.91
1012.48	210.97
1012.77	210.97
1013.05	211.01
1013.34	211.12
1013.63	211.13
1013.92	211.09
1014.20	211.04
1014.49	211.11
1014.78	211.10
1015.06	211.11
1015.35	211.10
1015.64	211.14
1015.92	211.18
1016.21	211.16
1016.50	211.16
1016.78	211.19
1017.07	211.17
1017.36	211.13
1017.64	211.16
1017.93	211.12
1018.22	211.17
1018.50	211.24
1018.79	211.26
1019.08	211.25
1019.36	211.20
1019.65	211.18
1019.93	211.21
1020.22	211.28
1020.51	211.38
1020.79	211.33
1021.08	211.25
1021.36	212.80
1021.65	211.30
1021.94	211.75
1022.22	210.80
1022.51	210.45
1022.79	211.60
1023.08	211.50
1023.36	213.65
1023.65	209.70
>>>>>End Processed Spectral Data<<<<<
