SpectraSuite Data File
++++++++++++++++++++++++++++++++++++
Date: Mon Feb 25 17:31:20 EST 2013
User: group
Dark Spectrum Present: No
Reference Spectrum Present: No
Number of Sampled Component Spectra: 1
Spectrometers: USB2E7196
Integration Time (usec): 52000 (USB2E7196)
Spectra Averaged: 20 (USB2E7196)
Boxcar Smoothing: 10 (USB2E7196)
Correct for Electrical Dark: No (USB2E7196)
Strobe/Lamp Enabled: No (USB2E7196)
Correct for Detector Non-linearity: No (USB2E7196)
Correct for Stray Light: No (USB2E7196)
Number of Pixels in Processed Spectrum: 2048
>>>>>Begin Processed Spectral Data<<<<<
339.09	0.00
339.48	198.70
339.86	199.45
340.24	201.70
340.63	204.00
341.01	207.30
341.39	205.40
341.78	207.40
342.16	209.70
342.54	208.15
342.93	198.21
343.31	208.16
343.69	208.71
344.07	209.19
344.46	209.66
344.84	210.01
345.22	210.21
345.60	210.54
345.99	210.72
346.37	210.85
346.75	210.98
347.13	211.00
347.52	211.13
347.90	211.25
348.28	211.31
348.66	211.36
349.05	211.38
349.43	211.50
349.81	211.58
350.19	211.65
350.57	211.71
350.96	211.80
351.34	211.94
351.72	212.03
352.10	212.16
352.48	212.24
352.87	212.29
353.25	212.31
353.63	212.30
354.01	212.44
354.39	212.50
354.77	212.61
355.15	212.77
355.54	212.72
355.92	212.78
356.30	212.82
356.68	213.01
357.06	213.08
357.44	213.06
357.82	213.14
358.20	213.25
358.58	213.38
358.97	213.44
359.35	213.50
359.73	213.58
360.11	213.62
360.49	213.60
360.87	213.63
361.25	213.71
361.63	213.77
362.01	213.71
362.39	213.69
362.77	213.74
363.15	213.75
363.53	213.79
363.91	213.70
364.29	213.70
364.67	213.56
365.05	213.51
365.43	213.57
365.81	213.54
366.19	213.67
366.57	213.63
366.95	213.57
367.33	213.57
367.71	213.59
368.09	213.62
368.47	213.64
368.85	213.64
369.23	213.69
369.61	213.67
369.99	213.69
370.37	213.70
370.75	213.73
371.13	213.69
371.51	213.64
371.89	213.61
372.27	213.58
372.65	213.52
373.03	213.46
373.41	213.31
373.78	213.23
374.16	213.02
374.54	212.99
374.92	213.03
375.30	213.01
375.68	212.94
376.06	212.89
376.44	212.86
376.82	212.76
377.19	212.67
377.57	212.62
377.95	212.51
378.33	212.41
378.71	212.23
379.09	212.14
379.47	212.13
379.84	212.12
380.22	212.02
380.60	211.99
380.98	211.94
381.36	211.98
381.73	211.99
382.11	212.00
382.49	211.89
382.87	211.76
383.25	211.72
383.62	211.87
384.00	211.75
384.38	211.67
384.76	211.71
385.13	211.75
385.51	211.77
385.89	211.76
386.27	211.77
386.64	211.83
387.02	211.79
387.40	211.74
387.78	211.76
388.15	211.74
388.53	211.68
388.91	211.63
389.29	211.57
389.66	211.58
390.04	211.49
390.42	211.58
390.79	211.65
391.17	211.63
391.55	211.38
391.92	211.41
392.30	211.45
392.68	211.32
393.05	211.25
393.43	211.23
393.81	211.28
394.18	211.26
394.56	211.19
394.94	211.28
395.31	211.30
395.69	211.27
396.06	211.38
396.44	211.39
396.82	211.43
397.19	211.53
397.57	211.48
397.95	211.53
398.32	211.50
398.70	211.47
399.07	211.53
399.45	211.58
399.82	211.62
400.20	211.55
400.58	211.73
400.95	211.76
401.33	211.84
401.70	211.99
402.08	212.09
402.45	212.19
402.83	212.26
403.20	212.31
403.58	212.36
403.95	212.46
404.33	212.60
404.71	212.74
405.08	212.93
405.46	213.03
405.83	213.19
406.21	213.28
406.58	213.50
406.96	213.65
407.33	213.85
407.70	214.00
408.08	214.38
408.45	214.58
408.83	214.87
409.20	215.01
409.58	215.08
409.95	215.36
410.33	215.58
410.70	215.86
411.08	216.19
411.45	216.59
411.82	216.93
412.20	217.34
412.57	217.93
412.95	218.19
413.32	218.74
413.69	219.25
414.07	219.75
414.44	220.28
414.82	220.87
415.19	221.50
415.56	222.32
415.94	223.03
416.31	223.91
416.68	224.72
417.06	225.76
417.43	226.78
417.81	227.77
418.18	228.90
418.55	230.05
418.93	231.39
419.30	232.67
419.67	233.99
420.04	235.32
420.42	236.63
420.79	238.49
421.16	240.24
421.54	242.03
421.91	243.95
422.28	245.77
422.66	247.89
423.03	249.95
423.40	251.94
423.77	254.13
424.15	256.23
424.52	258.51
424.89	261.01
425.26	263.47
425.64	265.75
426.01	268.28
426.38	270.91
426.75	273.48
427.13	276.28
427.50	279.20
427.87	282.29
428.24	285.37
428.61	288.10
428.99	291.12
429.36	294.54
429.73	297.88
430.10	301.38
430.47	304.78
430.85	308.45
431.22	312.25
431.59	316.36
431.96	320.34
432.33	324.60
432.70	328.74
433.08	333.59
433.45	338.30
433.82	342.85
434.19	347.81
434.56	352.65
434.93	357.43
435.30	362.12
435.68	367.33
436.05	372.33
436.42	377.36
436.79	382.07
437.16	386.99
437.53	392.25
437.90	397.40
438.27	402.44
438.64	407.74
439.01	412.63
439.38	416.98
439.75	421.20
440.13	425.95
440.50	430.41
440.87	433.94
441.24	437.65
441.61	441.82
441.98	444.94
442.35	448.64
442.72	452.01
443.09	455.51
443.46	457.48
443.83	458.97
444.20	460.21
444.57	461.97
444.94	462.75
445.31	463.56
445.68	464.36
446.05	464.64
446.42	463.83
446.79	463.12
447.16	462.13
447.53	461.46
447.90	459.31
448.27	457.20
448.64	454.45
449.01	452.36
449.37	448.79
449.74	445.37
450.11	441.44
450.48	437.04
450.85	432.49
451.22	428.63
451.59	425.01
451.96	421.51
452.33	416.84
452.70	412.55
453.07	407.52
453.43	402.38
453.80	397.47
454.17	392.84
454.54	388.30
454.91	383.62
455.28	378.93
455.65	374.73
456.02	370.45
456.38	366.73
456.75	362.18
457.12	358.42
457.49	354.62
457.86	350.85
458.23	347.72
458.59	344.36
458.96	340.97
459.33	337.78
459.70	334.66
460.07	332.20
460.43	329.45
460.80	326.70
461.17	324.38
461.54	321.93
461.91	319.57
462.27	317.31
462.64	315.33
463.01	313.16
463.38	311.06
463.74	308.95
464.11	307.19
464.48	305.61
464.85	303.86
465.21	302.60
465.58	301.17
465.95	299.57
466.32	298.13
466.68	296.71
467.05	295.33
467.42	293.97
467.78	292.52
468.15	291.17
468.52	290.23
468.88	288.81
469.25	287.71
469.62	286.80
469.98	285.76
470.35	284.78
470.72	284.00
471.08	283.05
471.45	282.28
471.82	281.48
472.18	280.65
472.55	280.08
472.92	279.33
473.28	278.71
473.65	278.12
474.02	277.59
474.38	277.15
474.75	276.79
475.11	276.52
475.48	276.37
475.85	276.24
476.21	276.03
476.58	276.06
476.94	275.93
477.31	275.99
477.67	276.01
478.04	276.11
478.41	276.18
478.77	276.53
479.14	276.70
479.50	277.04
479.87	277.36
480.23	277.72
480.60	278.02
480.96	278.44
481.33	279.02
481.69	279.67
482.06	280.38
482.42	281.01
482.79	281.65
483.15	282.41
483.52	283.32
483.88	284.27
484.25	285.24
484.61	286.33
484.98	287.43
485.34	288.70
485.71	290.20
486.07	291.61
486.44	292.86
486.80	294.39
487.17	295.84
487.53	297.57
487.90	299.34
488.26	301.32
488.62	303.36
488.99	305.46
489.35	307.60
489.72	309.89
490.08	312.33
490.44	314.77
490.81	317.36
491.17	320.02
491.54	323.06
491.90	326.05
492.26	329.28
492.63	332.64
492.99	336.13
493.36	339.61
493.72	343.58
494.08	347.65
494.45	352.00
494.81	356.56
495.17	361.16
495.54	365.96
495.90	371.04
496.26	376.24
496.63	381.66
496.99	387.36
497.35	393.33
497.72	399.59
498.08	406.07
498.44	412.78
498.80	419.90
499.17	427.16
499.53	434.71
499.89	442.67
500.26	450.73
500.62	458.96
500.98	467.82
501.34	476.84
501.71	486.22
502.07	495.74
502.43	505.73
502.79	515.92
503.16	526.64
503.52	537.50
503.88	548.67
504.24	560.26
504.60	572.05
504.97	584.26
505.33	596.78
505.69	610.06
506.05	623.45
506.41	637.00
506.78	650.60
507.14	664.67
507.50	679.07
507.86	694.11
508.22	709.50
508.59	724.73
508.95	740.49
509.31	756.62
509.67	773.12
510.03	789.74
510.39	807.36
510.75	824.93
511.12	842.83
511.48	861.26
511.84	879.77
512.20	898.39
512.56	917.47
512.92	936.82
513.28	956.39
513.64	975.98
514.00	995.80
514.37	1016.22
514.73	1036.93
515.09	1057.60
515.45	1077.99
515.81	1099.04
516.17	1120.19
516.53	1141.08
516.89	1162.50
517.25	1183.94
517.61	1205.76
517.97	1226.92
518.33	1248.25
518.69	1269.73
519.05	1291.44
519.41	1313.21
519.77	1335.59
520.13	1357.37
520.49	1379.09
520.85	1401.15
521.21	1423.40
521.57	1446.04
521.93	1467.69
522.29	1490.13
522.65	1512.25
523.01	1534.55
523.37	1556.48
523.73	1578.70
524.09	1601.14
524.45	1623.05
524.81	1644.98
525.17	1666.83
525.53	1688.88
525.89	1710.95
526.25	1732.76
526.61	1753.66
526.97	1775.08
527.33	1795.90
527.68	1817.24
528.04	1838.37
528.40	1858.73
528.76	1879.41
529.12	1899.56
529.48	1921.23
529.84	1941.60
530.20	1961.78
530.56	1982.11
530.91	2002.31
531.27	2022.50
531.63	2041.96
531.99	2061.70
532.35	2080.88
532.71	2099.64
533.07	2118.95
533.42	2137.45
533.78	2156.12
534.14	2174.55
534.50	2191.96
534.86	2209.55
535.21	2225.89
535.57	2243.30
535.93	2259.83
536.29	2275.98
536.65	2292.38
537.00	2307.09
537.36	2321.95
537.72	2336.76
538.08	2351.56
538.44	2366.58
538.79	2381.50
539.15	2396.05
539.51	2410.13
539.87	2424.96
540.22	2439.20
540.58	2453.49
540.94	2467.22
541.29	2480.01
541.65	2491.84
542.01	2504.33
542.37	2516.13
542.72	2528.57
543.08	2539.14
543.44	2551.06
543.79	2561.31
544.15	2571.37
544.51	2582.29
544.87	2592.92
545.22	2602.10
545.58	2610.25
545.94	2617.23
546.29	2623.32
546.65	2629.56
547.01	2635.66
547.36	2640.95
547.72	2646.11
548.07	2649.99
548.43	2653.41
548.79	2656.71
549.14	2661.08
549.50	2665.20
549.86	2669.04
550.21	2672.41
550.57	2676.58
550.92	2679.06
551.28	2681.89
551.64	2684.02
551.99	2686.24
552.35	2687.56
552.70	2689.82
553.06	2692.45
553.41	2695.50
553.77	2698.34
554.13	2700.33
554.48	2702.11
554.84	2703.55
555.19	2704.03
555.55	2704.19
555.90	2705.46
556.26	2705.98
556.61	2705.81
556.97	2704.50
557.32	2704.04
557.68	2702.63
558.03	2700.47
558.39	2698.83
558.74	2697.77
559.10	2696.70
559.45	2694.29
559.81	2693.10
560.16	2690.23
560.52	2687.66
560.87	2684.41
561.23	2680.40
561.58	2678.12
561.94	2674.95
562.29	2671.03
562.64	2668.91
563.00	2666.57
563.35	2663.63
563.71	2661.85
564.06	2659.97
564.42	2657.92
564.77	2654.96
565.12	2652.68
565.48	2650.00
565.83	2646.44
566.19	2643.25
566.54	2638.81
566.89	2635.25
567.25	2631.28
567.60	2628.65
567.96	2624.88
568.31	2621.25
568.66	2617.46
569.02	2612.33
569.37	2607.08
569.72	2603.23
570.08	2597.94
570.43	2592.29
570.78	2586.61
571.14	2580.30
571.49	2573.42
571.84	2567.64
572.20	2561.04
572.55	2554.45
572.90	2547.48
573.26	2540.67
573.61	2533.19
573.96	2526.85
574.31	2518.96
574.67	2510.92
575.02	2502.37
575.37	2494.04
575.72	2485.17
576.08	2477.39
576.43	2469.06
576.78	2461.15
577.13	2453.25
577.49	2445.08
577.84	2437.29
578.19	2430.07
578.54	2422.57
578.90	2415.74
579.25	2406.90
579.60	2397.73
579.95	2388.61
580.30	2380.98
580.66	2373.39
581.01	2364.72
581.36	2355.59
581.71	2347.60
582.06	2339.33
582.42	2331.27
582.77	2322.08
583.12	2313.41
583.47	2305.16
583.82	2296.92
584.17	2288.23
584.53	2279.07
584.88	2270.22
585.23	2261.27
585.58	2251.85
585.93	2242.15
586.28	2232.80
586.63	2224.24
586.98	2216.40
587.34	2208.14
587.69	2198.91
588.04	2189.55
588.39	2181.37
588.74	2172.39
589.09	2163.46
589.44	2153.85
589.79	2145.35
590.14	2137.85
590.49	2129.65
590.84	2120.84
591.19	2113.05
591.54	2104.48
591.89	2094.79
592.25	2085.98
592.60	2076.54
592.95	2067.17
593.30	2057.92
593.65	2048.45
594.00	2038.79
594.35	2030.73
594.70	2021.92
595.05	2013.18
595.40	2004.97
595.75	1995.64
596.10	1987.59
596.45	1979.57
596.80	1971.85
597.15	1963.55
597.50	1954.41
597.85	1946.12
598.19	1937.43
598.54	1929.01
598.89	1921.32
599.24	1914.67
599.59	1907.38
599.94	1900.57
600.29	1892.83
600.64	1885.25
600.99	1877.07
601.34	1870.07
601.69	1861.33
602.04	1853.39
602.39	1845.61
602.74	1837.79
603.08	1831.34
603.43	1824.44
603.78	1816.25
604.13	1808.57
604.48	1800.80
604.83	1794.17
605.18	1787.17
605.53	1779.91
605.87	1772.20
606.22	1765.14
606.57	1757.37
606.92	1749.22
607.27	1741.35
607.62	1734.47
607.96	1727.78
608.31	1721.82
608.66	1714.31
609.01	1706.96
609.36	1699.24
609.70	1691.21
610.05	1683.62
610.40	1675.48
610.75	1667.05
611.10	1659.82
611.44	1650.91
611.79	1641.87
612.14	1632.78
612.49	1623.23
612.83	1614.63
613.18	1605.10
613.53	1595.45
613.88	1585.91
614.22	1577.19
614.57	1568.07
614.92	1558.63
615.27	1549.30
615.61	1539.42
615.96	1530.46
616.31	1522.11
616.65	1514.20
617.00	1506.12
617.35	1497.46
617.70	1488.80
618.04	1479.80
618.39	1470.56
618.74	1462.44
619.08	1454.04
619.43	1445.94
619.78	1438.31
620.12	1430.41
620.47	1423.04
620.82	1414.96
621.16	1406.85
621.51	1398.60
621.85	1390.49
622.20	1382.16
622.55	1373.74
622.89	1365.58
623.24	1357.87
623.59	1349.23
623.93	1340.82
624.28	1332.55
624.62	1324.46
624.97	1316.33
625.32	1308.86
625.66	1301.65
626.01	1294.30
626.35	1287.06
626.70	1279.37
627.04	1271.96
627.39	1264.19
627.73	1256.42
628.08	1249.60
628.43	1242.49
628.77	1235.43
629.12	1228.10
629.46	1221.59
629.81	1214.70
630.15	1207.64
630.50	1200.08
630.84	1193.00
631.19	1185.86
631.53	1179.21
631.88	1171.78
632.22	1164.23
632.57	1157.17
632.91	1149.70
633.26	1142.25
633.60	1135.31
633.95	1128.54
634.29	1121.45
634.64	1114.95
634.98	1108.15
635.32	1101.21
635.67	1094.92
636.01	1088.27
636.36	1081.66
636.70	1075.03
637.05	1068.62
637.39	1062.55
637.73	1056.61
638.08	1050.89
638.42	1045.37
638.77	1039.02
639.11	1032.89
639.45	1027.13
639.80	1020.71
640.14	1014.51
640.49	1008.49
640.83	1002.35
641.17	996.13
641.52	990.13
641.86	983.67
642.20	977.51
642.55	970.77
642.89	964.10
643.23	957.56
643.58	951.66
643.92	945.14
644.26	938.95
644.61	932.77
644.95	926.55
645.29	920.43
645.64	913.86
645.98	907.81
646.32	902.08
646.66	895.74
647.01	890.04
647.35	884.15
647.69	878.05
648.04	872.14
648.38	866.24
648.72	860.34
649.06	854.49
649.41	848.67
649.75	843.11
650.09	837.41
650.43	831.61
650.78	825.40
651.12	819.59
651.46	813.74
651.80	807.98
652.14	802.29
652.49	796.16
652.83	790.41
653.17	784.40
653.51	778.49
653.85	773.04
654.20	767.15
654.54	761.55
654.88	756.15
655.22	750.39
655.56	744.63
655.90	738.82
656.25	733.16
656.59	727.66
656.93	722.49
657.27	717.34
657.61	712.03
657.95	707.19
658.29	702.02
658.64	697.10
658.98	692.04
659.32	686.70
659.66	681.88
660.00	676.61
660.34	671.53
660.68	666.50
661.02	661.56
661.36	656.96
661.70	652.01
662.05	647.26
662.39	642.99
662.73	638.84
663.07	634.49
663.41	630.26
663.75	625.77
664.09	621.09
664.43	616.48
664.77	612.09
665.11	607.64
665.45	603.48
665.79	599.10
666.13	594.69
666.47	590.57
666.81	586.32
667.15	582.36
667.49	578.63
667.83	574.67
668.17	570.79
668.51	566.92
668.85	563.45
669.19	559.84
669.53	555.81
669.87	551.71
670.21	547.87
670.55	544.10
670.89	540.59
671.23	537.42
671.57	534.04
671.91	530.68
672.25	527.25
672.58	523.70
672.92	520.27
673.26	517.27
673.60	514.05
673.94	510.67
674.28	507.50
674.62	504.33
674.96	501.31
675.30	498.37
675.64	495.26
675.97	492.03
676.31	489.04
676.65	486.12
676.99	483.43
677.33	480.66
677.67	477.62
678.01	474.62
678.34	471.59
678.68	468.71
679.02	465.79
679.36	463.00
679.70	460.28
680.04	457.47
680.37	454.49
680.71	451.72
681.05	449.27
681.39	446.52
681.73	443.80
682.06	441.27
682.40	438.84
682.74	436.13
683.08	433.66
683.42	431.13
683.75	428.63
684.09	426.05
684.43	423.65
684.77	421.20
685.10	418.91
685.44	416.41
685.78	414.11
686.12	411.97
686.45	409.60
686.79	407.31
687.13	405.16
687.46	402.99
687.80	400.91
688.14	398.64
688.48	396.55
688.81	394.37
689.15	392.15
689.49	389.68
689.82	387.62
690.16	385.25
690.50	383.00
690.83	380.90
691.17	378.72
691.51	376.48
691.84	374.42
692.18	372.39
692.52	370.51
692.85	368.51
693.19	366.59
693.52	364.72
693.86	362.79
694.20	360.98
694.53	359.11
694.87	357.05
695.21	355.10
695.54	353.12
695.88	351.30
696.21	349.56
696.55	347.91
696.88	346.28
697.22	344.64
697.56	343.09
697.89	341.52
698.23	339.94
698.56	338.38
698.90	336.87
699.23	335.22
699.57	333.61
699.90	331.95
700.24	330.24
700.58	328.67
700.91	327.21
701.25	325.82
701.58	324.43
701.92	323.09
702.25	321.75
702.59	320.48
702.92	319.18
703.26	317.76
703.59	316.45
703.93	315.33
704.26	314.15
704.60	312.87
704.93	311.50
705.26	310.30
705.60	309.07
705.93	307.90
706.27	306.78
706.60	305.65
706.94	304.68
707.27	303.53
707.61	302.42
707.94	301.31
708.27	300.05
708.61	298.91
708.94	297.84
709.28	296.70
709.61	295.58
709.94	294.43
710.28	293.41
710.61	292.36
710.95	291.17
711.28	290.22
711.61	289.18
711.95	288.21
712.28	287.16
712.61	286.14
712.95	285.26
713.28	284.36
713.61	283.43
713.95	282.49
714.28	281.64
714.61	280.61
714.95	279.57
715.28	278.72
715.61	277.74
715.95	276.81
716.28	275.97
716.61	275.13
716.95	274.27
717.28	273.52
717.61	272.73
717.94	271.99
718.28	271.18
718.61	270.38
718.94	269.67
719.27	268.97
719.61	268.29
719.94	267.52
720.27	266.73
720.60	265.98
720.94	265.23
721.27	264.59
721.60	264.15
721.93	263.62
722.27	262.98
722.60	262.52
722.93	262.00
723.26	261.41
723.59	260.80
723.93	260.24
724.26	259.66
724.59	259.14
724.92	258.53
725.25	257.96
725.59	257.43
725.92	256.95
726.25	256.45
726.58	255.99
726.91	255.41
727.24	254.96
727.57	254.46
727.91	253.98
728.24	253.44
728.57	252.95
728.90	252.48
729.23	251.96
729.56	251.48
729.89	251.00
730.22	250.49
730.55	249.99
730.89	249.51
731.22	248.98
731.55	248.58
731.88	248.12
732.21	247.66
732.54	247.28
732.87	246.85
733.20	246.43
733.53	246.01
733.86	245.63
734.19	245.22
734.52	244.90
734.85	244.63
735.18	244.30
735.51	243.87
735.84	243.61
736.17	243.27
736.50	242.83
736.83	242.69
737.16	242.42
737.49	242.20
737.82	241.91
738.15	241.66
738.48	241.23
738.81	240.96
739.14	240.67
739.47	240.26
739.80	239.91
740.13	239.60
740.46	239.26
740.79	238.94
741.12	238.62
741.45	238.30
741.78	237.95
742.11	237.73
742.44	237.38
742.77	237.06
743.10	236.74
743.43	236.44
743.75	235.91
744.08	235.80
744.41	235.41
744.74	235.17
745.07	234.83
745.40	234.67
745.73	234.43
746.06	234.10
746.39	233.91
746.71	233.66
747.04	233.34
747.37	233.05
747.70	232.83
748.03	232.57
748.36	232.36
748.68	232.09
749.01	231.74
749.34	231.58
749.67	231.27
750.00	231.05
750.33	230.91
750.65	230.75
750.98	230.30
751.31	230.15
751.64	229.87
751.97	229.72
752.29	229.49
752.62	229.17
752.95	229.03
753.28	228.72
753.60	228.53
753.93	228.35
754.26	228.12
754.59	227.85
754.91	227.62
755.24	227.37
755.57	227.11
755.90	226.93
756.22	226.74
756.55	226.53
756.88	226.30
757.20	226.04
757.53	225.77
757.86	225.60
758.19	225.40
758.51	225.23
758.84	225.02
759.17	224.81
759.49	224.70
759.82	224.52
760.15	224.41
760.47	224.23
760.80	224.05
761.13	223.93
761.45	223.74
761.78	223.63
762.11	223.51
762.43	223.40
762.76	223.20
763.08	223.05
763.41	222.97
763.74	222.94
764.06	222.75
764.39	222.59
764.71	222.47
765.04	222.36
765.37	222.12
765.69	221.98
766.02	221.77
766.34	221.61
766.67	221.41
767.00	221.36
767.32	221.24
767.65	221.20
767.97	221.15
768.30	221.06
768.62	220.90
768.95	220.73
769.27	220.63
769.60	220.59
769.92	220.40
770.25	220.20
770.57	219.93
770.90	219.85
771.22	219.80
771.55	219.63
771.87	219.46
772.20	219.41
772.52	219.42
772.85	219.62
773.17	219.52
773.50	219.41
773.82	219.17
774.15	219.02
774.47	218.87
774.80	218.74
775.12	218.60
775.45	218.52
775.77	218.42
776.09	218.30
776.42	218.19
776.74	218.15
777.07	218.18
777.39	218.18
777.72	218.16
778.04	218.08
778.36	218.01
778.69	217.98
779.01	217.97
779.33	217.73
779.66	217.45
779.98	217.41
780.31	217.37
780.63	217.41
780.95	217.33
781.28	217.20
781.60	217.14
781.92	217.13
782.25	217.05
782.57	217.00
782.89	216.96
783.22	216.82
783.54	216.71
783.86	216.62
784.19	216.48
784.51	216.44
784.83	216.30
785.16	216.31
785.48	216.29
785.80	216.16
786.12	216.16
786.45	216.10
786.77	216.05
787.09	215.99
787.42	215.93
787.74	215.97
788.06	215.96
788.38	215.85
788.71	215.82
789.03	215.75
789.35	215.73
789.67	215.62
789.99	215.68
790.32	215.64
790.64	215.65
790.96	215.78
791.28	215.70
791.61	215.71
791.93	215.64
792.25	215.53
792.57	215.69
792.89	215.59
793.21	215.52
793.54	215.50
793.86	215.41
794.18	215.39
794.50	215.24
794.82	215.22
795.14	215.20
795.47	215.19
795.79	215.23
796.11	215.14
796.43	215.09
796.75	215.03
797.07	215.01
797.39	214.90
797.71	214.74
798.04	214.63
798.36	214.55
798.68	214.45
799.00	214.43
799.32	214.29
799.64	214.22
799.96	214.23
800.28	214.19
800.60	214.20
800.92	214.09
801.24	214.08
801.56	213.98
801.89	213.95
802.21	213.86
802.53	213.79
802.85	213.75
803.17	213.81
803.49	213.80
803.81	213.78
804.13	213.76
804.45	213.73
804.77	213.73
805.09	213.74
805.41	213.75
805.73	213.70
806.05	213.65
806.37	213.62
806.69	213.55
807.01	213.50
807.33	213.45
807.65	213.45
807.97	213.54
808.28	213.56
808.60	213.49
808.92	213.45
809.24	213.54
809.56	213.57
809.88	213.47
810.20	213.36
810.52	213.33
810.84	213.28
811.16	213.25
811.48	213.32
811.80	213.35
812.12	213.33
812.43	213.32
812.75	213.21
813.07	213.14
813.39	213.11
813.71	213.03
814.03	213.01
814.35	212.99
814.67	212.84
814.98	212.76
815.30	212.73
815.62	212.76
815.94	212.59
816.26	212.53
816.58	212.47
816.89	212.55
817.21	212.53
817.53	212.50
817.85	212.47
818.17	212.42
818.48	212.31
818.80	212.29
819.12	212.28
819.44	212.28
819.76	212.31
820.07	212.30
820.39	212.32
820.71	212.32
821.03	212.29
821.34	212.25
821.66	212.26
821.98	212.28
822.30	212.29
822.61	212.35
822.93	212.32
823.25	212.27
823.57	212.18
823.88	212.16
824.20	212.20
824.52	212.17
824.83	212.11
825.15	212.12
825.47	212.10
825.79	212.05
826.10	212.08
826.42	212.06
826.74	212.08
827.05	212.02
827.37	211.97
827.69	211.92
828.00	211.96
828.32	211.95
828.64	211.94
828.95	211.94
829.27	211.93
829.58	211.95
829.90	212.02
830.22	211.97
830.53	211.95
830.85	211.92
831.17	211.86
831.48	211.87
831.80	211.87
832.11	211.88
832.43	211.88
832.75	211.80
833.06	211.90
833.38	211.87
833.69	211.86
834.01	211.90
834.32	211.90
834.64	211.85
834.96	211.81
835.27	211.78
835.59	211.70
835.90	211.65
836.22	211.61
836.53	211.52
836.85	211.54
837.16	211.77
837.48	211.78
837.79	211.85
838.11	211.85
838.42	211.86
838.74	211.90
839.05	211.90
839.37	211.94
839.68	211.89
840.00	211.81
840.31	211.92
840.63	211.98
840.94	211.98
841.26	212.01
841.57	212.05
841.88	212.15
842.20	212.16
842.51	212.15
842.83	212.17
843.14	212.51
843.46	212.58
843.77	212.42
844.08	212.37
844.40	212.38
844.71	212.42
845.03	212.37
845.34	212.25
845.65	212.27
845.97	212.30
846.28	212.25
846.60	212.29
846.91	212.21
847.22	212.18
847.54	212.21
847.85	212.22
848.16	212.15
848.48	212.16
848.79	212.23
849.10	212.22
849.42	212.22
849.73	211.92
850.04	211.87
850.36	211.79
850.67	211.82
850.98	211.73
851.30	211.67
851.61	211.73
851.92	211.76
852.23	211.77
852.55	211.78
852.86	211.82
853.17	211.81
853.49	211.84
853.80	211.86
854.11	211.85
854.42	211.81
854.74	211.79
855.05	211.73
855.36	211.62
855.67	211.59
855.99	211.59
856.30	211.81
856.61	211.79
856.92	211.79
857.23	211.72
857.55	211.74
857.86	211.68
858.17	211.62
858.48	211.63
858.79	211.62
859.11	211.58
859.42	211.55
859.73	211.56
860.04	211.51
860.35	211.43
860.66	211.37
860.98	211.42
861.29	211.50
861.60	211.46
861.91	211.52
862.22	211.50
862.53	211.44
862.84	211.26
863.16	211.28
863.47	211.26
863.78	211.29
864.09	211.30
864.40	211.35
864.71	211.45
865.02	211.52
865.33	211.50
865.64	211.43
865.95	211.40
866.27	211.50
866.58	211.53
866.89	211.51
867.20	211.55
867.51	211.45
867.82	211.37
868.13	211.42
868.44	211.38
868.75	211.45
869.06	211.46
869.37	211.45
869.68	211.40
869.99	211.41
870.30	211.40
870.61	211.39
870.92	211.29
871.23	211.21
871.54	211.14
871.85	211.18
872.16	211.24
872.47	211.29
872.78	211.20
873.09	211.12
873.40	211.19
873.71	211.19
874.02	211.23
874.33	211.30
874.64	211.29
874.95	211.28
875.26	211.25
875.56	211.23
875.87	211.21
876.18	211.25
876.49	211.41
876.80	211.39
877.11	211.38
877.42	211.44
877.73	211.39
878.04	211.41
878.35	211.39
878.66	211.36
878.96	211.28
879.27	211.27
879.58	211.32
879.89	211.31
880.20	211.35
880.51	211.33
880.82	211.31
881.12	211.32
881.43	211.27
881.74	211.26
882.05	211.23
882.36	211.26
882.67	211.20
882.97	211.02
883.28	211.11
883.59	211.14
883.90	211.20
884.21	211.27
884.51	211.26
884.82	211.22
885.13	211.27
885.44	211.29
885.74	211.29
886.05	211.27
886.36	211.26
886.67	211.19
886.98	211.32
887.28	211.35
887.59	211.31
887.90	211.32
888.20	211.29
888.51	211.44
888.82	211.42
889.13	211.52
889.43	211.68
889.74	211.59
890.05	211.59
890.35	211.57
890.66	211.52
890.97	211.49
891.28	211.49
891.58	211.43
891.89	211.48
892.20	211.46
892.50	211.46
892.81	211.39
893.12	211.41
893.42	211.26
893.73	211.26
894.04	211.25
894.34	211.25
894.65	211.27
894.95	211.16
895.26	211.16
895.57	211.18
895.87	211.03
896.18	211.04
896.48	211.00
896.79	210.95
897.10	211.05
897.40	211.09
897.71	211.08
898.01	211.06
898.32	211.03
898.63	210.98
898.93	211.06
899.24	211.10
899.54	211.03
899.85	211.05
900.15	210.95
900.46	210.92
900.76	211.00
901.07	211.00
901.38	210.98
901.68	210.96
901.99	210.84
902.29	210.83
902.60	210.88
902.90	210.92
903.21	210.96
903.51	210.87
903.82	210.84
904.12	210.80
904.43	210.83
904.73	210.82
905.03	210.84
905.34	210.93
905.64	210.90
905.95	210.88
906.25	210.95
906.56	211.01
906.86	211.00
907.17	210.94
907.47	210.91
907.77	210.90
908.08	210.87
908.38	210.86
908.69	210.86
908.99	210.82
909.30	210.75
909.60	210.72
909.90	210.76
910.21	210.71
910.51	210.69
910.81	210.71
911.12	210.74
911.42	210.77
911.73	210.64
912.03	210.63
912.33	210.70
912.64	210.60
912.94	210.59
913.24	210.61
913.55	210.61
913.85	210.60
914.15	210.66
914.46	210.70
914.76	210.73
915.06	210.68
915.37	210.64
915.67	210.71
915.97	210.65
916.27	210.61
916.58	210.64
916.88	210.67
917.18	210.65
917.49	210.68
917.79	210.66
918.09	210.69
918.39	210.77
918.70	210.77
919.00	210.77
919.30	210.85
919.60	210.82
919.91	210.81
920.21	210.83
920.51	210.80
920.81	210.80
921.12	210.82
921.42	210.85
921.72	211.00
922.02	211.01
922.32	211.08
922.63	211.11
922.93	211.18
923.23	211.20
923.53	211.19
923.83	211.17
924.13	211.17
924.44	211.08
924.74	211.09
925.04	211.14
925.34	211.24
925.64	211.17
925.94	211.19
926.24	211.28
926.55	211.34
926.85	211.32
927.15	211.38
927.45	211.38
927.75	211.43
928.05	211.37
928.35	211.25
928.65	211.34
928.95	211.37
929.26	211.33
929.56	211.35
929.86	211.36
930.16	211.30
930.46	211.32
930.76	211.30
931.06	211.28
931.36	211.21
931.66	211.15
931.96	211.15
932.26	211.18
932.56	211.04
932.86	210.99
933.16	211.09
933.46	211.00
933.76	211.04
934.06	211.07
934.36	211.15
934.66	211.22
934.96	211.15
935.26	211.16
935.56	211.19
935.86	211.15
936.16	211.10
936.46	211.11
936.76	211.12
937.06	211.21
937.36	211.21
937.66	211.21
937.96	211.19
938.26	211.22
938.56	211.19
938.86	211.27
939.16	211.33
939.46	211.27
939.76	211.27
940.06	211.22
940.35	211.13
940.65	211.00
940.95	211.00
941.25	210.86
941.55	210.80
941.85	210.79
942.15	210.76
942.45	210.86
942.75	210.79
943.04	210.81
943.34	210.86
943.64	210.81
943.94	210.79
944.24	210.81
944.54	210.78
944.84	210.83
945.13	210.85
945.43	210.71
945.73	210.71
946.03	210.68
946.33	210.67
946.62	210.60
946.92	210.59
947.22	210.57
947.52	210.65
947.82	210.61
948.11	210.56
948.41	210.59
948.71	210.51
949.01	210.59
949.31	210.53
949.60	210.48
949.90	210.55
950.20	210.57
950.50	210.60
950.79	210.63
951.09	210.56
951.39	210.43
951.69	210.46
951.98	210.48
952.28	210.51
952.58	210.47
952.87	210.55
953.17	210.60
953.47	210.58
953.76	210.59
954.06	210.61
954.36	210.61
954.66	210.65
954.95	210.63
955.25	210.66
955.55	210.62
955.84	210.60
956.14	210.61
956.44	210.61
956.73	210.50
957.03	210.54
957.32	210.51
957.62	210.55
957.92	210.56
958.21	210.54
958.51	210.74
958.81	210.85
959.10	210.91
959.40	210.94
959.69	210.99
959.99	211.01
960.29	211.01
960.58	210.97
960.88	211.05
961.17	211.07
961.47	211.07
961.76	211.18
962.06	211.17
962.36	211.11
962.65	211.19
962.95	211.25
963.24	211.19
963.54	211.21
963.83	211.21
964.13	211.21
964.42	211.15
964.72	211.01
965.01	210.93
965.31	210.84
965.60	210.76
965.90	210.86
966.19	210.84
966.49	210.89
966.78	210.96
967.08	210.93
967.37	210.97
967.67	210.95
967.96	210.94
968.26	210.92
968.55	210.96
968.85	210.89
969.14	210.87
969.43	210.88
969.73	210.90
970.02	210.93
970.32	210.91
970.61	210.93
970.91	210.87
971.20	210.75
971.49	210.81
971.79	210.82
972.08	210.64
972.38	210.70
972.67	210.67
972.96	210.67
973.26	210.59
973.55	210.60
973.85	210.56
974.14	210.54
974.43	210.58
974.73	210.48
975.02	210.45
975.31	210.45
975.61	210.41
975.90	210.40
976.19	210.35
976.49	210.31
976.78	210.37
977.07	210.36
977.37	210.52
977.66	210.52
977.95	210.52
978.24	210.58
978.54	210.60
978.83	210.59
979.12	210.55
979.42	210.57
979.71	210.53
980.00	210.50
980.29	210.51
980.59	210.39
980.88	210.49
981.17	210.48
981.46	210.50
981.76	210.50
982.05	210.53
982.34	210.61
982.63	210.73
982.93	210.70
983.22	210.80
983.51	210.74
983.80	210.73
984.09	210.76
984.39	210.73
984.68	210.70
984.97	210.69
985.26	210.73
985.55	210.74
985.85	210.82
986.14	210.90
986.43	210.90
986.72	210.99
987.01	210.98
987.30	210.99
987.59	210.92
987.89	210.97
988.18	210.92
988.47	210.87
988.76	210.84
989.05	210.80
989.34	210.76
989.63	210.78
989.92	210.73
990.22	210.74
990.51	210.78
990.80	210.76
991.09	210.77
991.38	210.75
991.67	210.76
991.96	210.60
992.25	210.63
992.54	210.59
992.83	210.68
993.12	210.65
993.41	210.68
993.70	210.73
993.99	210.71
994.28	210.86
994.58	210.91
994.87	210.90
995.16	210.94
995.45	210.94
995.74	210.92
996.03	210.99
996.32	210.94
996.61	210.99
996.90	211.00
997.19	210.92
997.48	210.97
997.77	210.91
998.06	211.01
998.34	210.94
998.63	210.97
998.92	210.93
999.21	210.90
999.50	210.87
999.79	210.89
1000.08	210.87
1000.37	210.82
1000.66	210.74
1000.95	210.74
1001.24	210.73
1001.53	210.75
1001.82	210.71
1002.11	210.68
1002.40	210.76
1002.68	210.77
1002.97	210.88
1003.26	210.89
1003.55	210.84
1003.84	210.85
1004.13	210.88
1004.42	210.89
1004.71	210.91
1004.99	210.87
1005.28	210.91
1005.57	210.95
1005.86	210.86
1006.15	210.92
1006.44	210.87
1006.72	210.92
1007.01	211.01
1007.30	210.97
1007.59	210.94
1007.88	210.96
1008.17	210.94
1008.45	210.87
1008.74	210.80
1009.03	210.68
1009.32	210.69
1009.60	210.69
1009.89	210.69
1010.18	210.62
1010.47	210.65
1010.76	210.59
1011.04	210.61
1011.33	210.67
1011.62	210.64
1011.91	210.73
1012.19	210.69
1012.48	210.70
1012.77	210.71
1013.05	210.73
1013.34	210.81
1013.63	210.84
1013.92	210.91
1014.20	210.93
1014.49	210.98
1014.78	211.00
1015.06	211.01
1015.35	211.13
1015.64	211.13
1015.92	211.20
1016.21	211.22
1016.50	211.26
1016.78	211.30
1017.07	211.26
1017.36	211.17
1017.64	211.22
1017.93	211.22
1018.22	211.16
1018.50	211.16
1018.79	211.10
1019.08	211.04
1019.36	211.02
1019.65	210.97
1019.93	210.98
1020.22	211.01
1020.51	211.12
1020.79	211.15
1021.08	209.65
1021.36	210.65
1021.65	209.85
1021.94	211.45
1022.22	211.15
1022.51	210.60
1022.79	211.55
1023.08	211.35
1023.36	213.75
1023.65	211.45
>>>>>End Processed Spectral Data<<<<<
