SpectraSuite Data File
++++++++++++++++++++++++++++++++++++
Date: Mon Feb 25 17:35:29 EST 2013
User: group
Dark Spectrum Present: No
Reference Spectrum Present: No
Number of Sampled Component Spectra: 1
Spectrometers: USB2E7196
Integration Time (usec): 52000 (USB2E7196)
Spectra Averaged: 20 (USB2E7196)
Boxcar Smoothing: 10 (USB2E7196)
Correct for Electrical Dark: No (USB2E7196)
Strobe/Lamp Enabled: No (USB2E7196)
Correct for Detector Non-linearity: No (USB2E7196)
Correct for Stray Light: No (USB2E7196)
Number of Pixels in Processed Spectrum: 2048
>>>>>Begin Processed Spectral Data<<<<<
339.09	0.00
339.48	199.60
339.86	200.60
340.24	202.85
340.63	202.75
341.01	207.20
341.39	206.50
341.78	208.10
342.16	210.30
342.54	209.25
342.93	198.40
343.31	208.35
343.69	208.86
344.07	209.32
344.46	209.66
344.84	210.06
345.22	210.24
345.60	210.46
345.99	210.51
346.37	210.52
346.75	210.64
347.13	210.72
347.52	210.69
347.90	210.79
348.28	210.85
348.66	210.90
349.05	210.85
349.43	210.95
349.81	211.00
350.19	211.03
350.57	211.04
350.96	211.12
351.34	211.26
351.72	211.35
352.10	211.46
352.48	211.59
352.87	211.65
353.25	211.71
353.63	211.78
354.01	211.99
354.39	212.10
354.77	212.12
355.15	212.28
355.54	212.41
355.92	212.41
356.30	212.46
356.68	212.64
357.06	212.66
357.44	212.69
357.82	212.73
358.20	212.80
358.58	212.86
358.97	212.91
359.35	213.03
359.73	213.17
360.11	213.18
360.49	213.12
360.87	213.20
361.25	213.24
361.63	213.37
362.01	213.39
362.39	213.37
362.77	213.43
363.15	213.47
363.53	213.51
363.91	213.64
364.29	213.65
364.67	213.54
365.05	213.62
365.43	213.58
365.81	213.67
366.19	213.79
366.57	213.91
366.95	213.93
367.33	213.88
367.71	213.76
368.09	213.85
368.47	213.98
368.85	213.94
369.23	213.98
369.61	213.88
369.99	213.92
370.37	213.95
370.75	213.99
371.13	213.86
371.51	213.81
371.89	213.78
372.27	213.80
372.65	213.80
373.03	213.74
373.41	213.79
373.78	213.69
374.16	213.52
374.54	213.45
374.92	213.42
375.30	213.34
375.68	213.30
376.06	213.24
376.44	213.11
376.82	213.07
377.19	213.05
377.57	212.98
377.95	212.88
378.33	212.77
378.71	212.71
379.09	212.62
379.47	212.63
379.84	212.55
380.22	212.49
380.60	212.36
380.98	212.28
381.36	212.10
381.73	212.06
382.11	212.00
382.49	211.92
382.87	211.83
383.25	211.86
383.62	212.12
384.00	212.02
384.38	212.00
384.76	211.97
385.13	211.99
385.51	212.01
385.89	211.92
386.27	211.93
386.64	211.86
387.02	211.87
387.40	211.80
387.78	211.78
388.15	211.72
388.53	211.78
388.91	211.78
389.29	211.85
389.66	211.84
390.04	211.83
390.42	211.88
390.79	211.88
391.17	211.82
391.55	211.52
391.92	211.49
392.30	211.52
392.68	211.55
393.05	211.45
393.43	211.33
393.81	211.33
394.18	211.31
394.56	211.30
394.94	211.37
395.31	211.34
395.69	211.38
396.06	211.40
396.44	211.35
396.82	211.28
397.19	211.36
397.57	211.35
397.95	211.38
398.32	211.30
398.70	211.36
399.07	211.36
399.45	211.45
399.82	211.50
400.20	211.53
400.58	211.53
400.95	211.60
401.33	211.75
401.70	211.97
402.08	212.05
402.45	212.16
402.83	212.22
403.20	212.31
403.58	212.41
403.95	212.50
404.33	212.61
404.71	212.81
405.08	212.92
405.46	213.11
405.83	213.26
406.21	213.36
406.58	213.49
406.96	213.69
407.33	213.85
407.70	214.05
408.08	214.40
408.45	214.70
408.83	214.95
409.20	215.15
409.58	215.24
409.95	215.60
410.33	215.90
410.70	216.19
411.08	216.55
411.45	216.90
411.82	217.35
412.20	217.85
412.57	218.40
412.95	218.84
413.32	219.35
413.69	219.90
414.07	220.63
414.44	221.19
414.82	221.84
415.19	222.56
415.56	223.35
415.94	224.03
416.31	224.83
416.68	225.73
417.06	226.85
417.43	227.85
417.81	228.86
418.18	229.96
418.55	231.23
418.93	232.49
419.30	233.76
419.67	235.12
420.04	236.54
420.42	238.05
420.79	239.85
421.16	241.58
421.54	243.41
421.91	245.30
422.28	247.30
422.66	249.45
423.03	251.57
423.40	253.62
423.77	255.87
424.15	258.18
424.52	260.48
424.89	262.96
425.26	265.54
425.64	267.89
426.01	270.59
426.38	273.28
426.75	276.13
427.13	279.00
427.50	282.01
427.87	285.08
428.24	288.10
428.61	290.99
428.99	294.27
429.36	297.79
429.73	301.24
430.10	304.80
430.47	308.31
430.85	311.94
431.22	315.93
431.59	320.17
431.96	324.20
432.33	328.58
432.70	332.84
433.08	337.72
433.45	342.42
433.82	347.04
434.19	352.09
434.56	357.09
434.93	361.92
435.30	366.73
435.68	372.15
436.05	377.46
436.42	382.60
436.79	387.37
437.16	392.52
437.53	397.87
437.90	403.17
438.27	408.41
438.64	413.80
439.01	418.78
439.38	423.10
439.75	427.35
440.13	432.20
440.50	436.85
440.87	440.61
441.24	444.55
441.61	448.72
441.98	451.90
442.35	455.55
442.72	459.37
443.09	462.97
443.46	464.99
443.83	466.31
444.20	467.57
444.57	469.25
444.94	469.94
445.31	470.69
445.68	471.43
446.05	471.60
446.42	471.00
446.79	470.24
447.16	469.43
447.53	468.82
447.90	466.70
448.27	464.47
448.64	461.51
449.01	459.36
449.37	455.82
449.74	452.25
450.11	448.02
450.48	443.37
450.85	438.60
451.22	434.52
451.59	430.69
451.96	427.07
452.33	422.30
452.70	417.89
453.07	412.67
453.43	407.28
453.80	402.33
454.17	397.51
454.54	392.85
454.91	387.99
455.28	383.10
455.65	378.75
456.02	374.40
456.38	370.70
456.75	365.99
457.12	362.02
457.49	358.22
457.86	354.47
458.23	351.35
458.59	347.86
458.96	344.35
459.33	341.26
459.70	338.04
460.07	335.51
460.43	332.60
460.80	329.89
461.17	327.54
461.54	324.90
461.91	322.54
462.27	320.23
462.64	318.07
463.01	315.96
463.38	313.77
463.74	311.60
464.11	309.65
464.48	308.09
464.85	306.26
465.21	304.89
465.58	303.48
465.95	301.57
466.32	300.16
466.68	298.79
467.05	297.43
467.42	296.00
467.78	294.52
468.15	293.20
468.52	292.28
468.88	290.97
469.25	289.93
469.62	288.94
469.98	287.94
470.35	287.07
470.72	286.09
471.08	285.13
471.45	284.24
471.82	283.46
472.18	282.50
472.55	281.95
472.92	281.14
473.28	280.48
473.65	279.91
474.02	279.25
474.38	278.75
474.75	278.38
475.11	278.03
475.48	277.76
475.85	277.55
476.21	277.28
476.58	277.16
476.94	277.08
477.31	276.94
477.67	276.85
478.04	276.97
478.41	277.05
478.77	277.32
479.14	277.52
479.50	277.79
479.87	278.14
480.23	278.49
480.60	278.83
480.96	279.26
481.33	279.94
481.69	280.66
482.06	281.30
482.42	281.99
482.79	282.71
483.15	283.59
483.52	284.62
483.88	285.67
484.25	286.63
484.61	287.69
484.98	288.91
485.34	290.19
485.71	291.40
486.07	292.77
486.44	294.11
486.80	295.63
487.17	297.27
487.53	299.00
487.90	300.83
488.26	302.88
488.62	305.01
488.99	307.06
489.35	309.13
489.72	311.41
490.08	313.74
490.44	316.27
490.81	318.92
491.17	321.55
491.54	324.40
491.90	327.42
492.26	330.65
492.63	333.97
492.99	337.49
493.36	341.20
493.72	345.16
494.08	349.21
494.45	353.54
494.81	357.95
495.17	362.54
495.54	367.43
495.90	372.57
496.26	377.61
496.63	383.09
496.99	388.95
497.35	395.00
497.72	401.12
498.08	407.63
498.44	414.25
498.80	421.49
499.17	428.77
499.53	436.54
499.89	444.58
500.26	452.73
500.62	461.02
500.98	469.94
501.34	479.06
501.71	488.55
502.07	498.08
502.43	508.19
502.79	518.59
503.16	529.22
503.52	540.01
503.88	551.44
504.24	563.17
504.60	575.01
504.97	587.20
505.33	599.95
505.69	613.44
506.05	627.03
506.41	640.45
506.78	654.23
507.14	668.40
507.50	682.98
507.86	697.90
508.22	713.42
508.59	728.91
508.95	745.03
509.31	761.21
509.67	778.07
510.03	794.89
510.39	812.44
510.75	830.22
511.12	848.55
511.48	867.02
511.84	885.78
512.20	904.55
512.56	924.00
512.92	943.54
513.28	962.99
513.64	982.69
514.00	1002.87
514.37	1023.51
514.73	1044.15
515.09	1064.89
515.45	1086.24
515.81	1107.54
516.17	1128.87
516.53	1150.27
516.89	1171.98
517.25	1193.50
517.61	1215.18
517.97	1236.88
518.33	1258.54
518.69	1280.59
519.05	1302.51
519.41	1324.44
519.77	1347.15
520.13	1369.50
520.49	1391.68
520.85	1414.42
521.21	1437.23
521.57	1460.35
521.93	1482.61
522.29	1505.91
522.65	1528.74
523.01	1551.09
523.37	1573.30
523.73	1595.87
524.09	1618.23
524.45	1640.68
524.81	1663.28
525.17	1685.83
525.53	1708.45
525.89	1731.14
526.25	1753.02
526.61	1774.71
526.97	1796.87
527.33	1818.23
527.68	1839.92
528.04	1861.38
528.40	1882.09
528.76	1903.14
529.12	1924.02
529.48	1946.05
529.84	1966.77
530.20	1987.29
530.56	2008.12
530.91	2029.08
531.27	2049.63
531.63	2069.67
531.99	2089.93
532.35	2109.41
532.71	2128.75
533.07	2148.05
533.42	2166.81
533.78	2186.26
534.14	2205.25
534.50	2222.66
534.86	2241.22
535.21	2258.19
535.57	2276.39
535.93	2293.70
536.29	2310.73
536.65	2327.32
537.00	2342.62
537.36	2358.12
537.72	2373.68
538.08	2388.84
538.44	2404.38
538.79	2420.03
539.15	2435.41
539.51	2450.30
539.87	2466.12
540.22	2481.15
540.58	2496.69
540.94	2511.23
541.29	2524.30
541.65	2536.69
542.01	2550.18
542.37	2562.07
542.72	2574.75
543.08	2585.63
543.44	2597.97
543.79	2608.40
544.15	2619.47
544.51	2630.80
544.87	2641.62
545.22	2650.99
545.58	2659.97
545.94	2667.42
546.29	2674.00
546.65	2680.40
547.01	2686.58
547.36	2692.05
547.72	2698.15
548.07	2701.94
548.43	2706.37
548.79	2710.28
549.14	2714.69
549.50	2719.14
549.86	2723.60
550.21	2727.75
550.57	2732.18
550.92	2734.90
551.28	2737.98
551.64	2740.65
551.99	2743.64
552.35	2745.66
552.70	2748.71
553.06	2751.74
553.41	2754.87
553.77	2757.92
554.13	2760.43
554.48	2762.67
554.84	2764.33
555.19	2764.51
555.55	2765.52
555.90	2765.88
556.26	2766.76
556.61	2766.89
556.97	2765.69
557.32	2765.19
557.68	2763.68
558.03	2762.10
558.39	2760.79
558.74	2760.47
559.10	2759.16
559.45	2757.60
559.81	2756.24
560.16	2753.60
560.52	2751.41
560.87	2748.48
561.23	2745.13
561.58	2742.72
561.94	2739.55
562.29	2735.83
562.64	2734.12
563.00	2731.74
563.35	2729.84
563.71	2727.86
564.06	2726.09
564.42	2724.43
564.77	2722.30
565.12	2720.44
565.48	2717.51
565.83	2714.38
566.19	2711.16
566.54	2706.65
566.89	2702.26
567.25	2698.88
567.60	2695.59
567.96	2691.76
568.31	2688.44
568.66	2684.64
569.02	2680.16
569.37	2675.18
569.72	2671.56
570.08	2665.93
570.43	2660.37
570.78	2654.37
571.14	2648.05
571.49	2640.91
571.84	2635.10
572.20	2627.87
572.55	2621.23
572.90	2614.52
573.26	2607.74
573.61	2600.25
573.96	2593.72
574.31	2586.00
574.67	2577.65
575.02	2569.10
575.37	2560.24
575.72	2551.31
576.08	2543.42
576.43	2534.70
576.78	2527.05
577.13	2518.97
577.49	2510.72
577.84	2502.61
578.19	2495.33
578.54	2487.96
578.90	2481.38
579.25	2472.25
579.60	2463.21
579.95	2453.97
580.30	2445.76
580.66	2437.18
581.01	2428.03
581.36	2418.82
581.71	2410.13
582.06	2401.45
582.42	2393.31
582.77	2384.39
583.12	2375.44
583.47	2366.53
583.82	2358.26
584.17	2348.74
584.53	2339.40
584.88	2330.46
585.23	2321.15
585.58	2310.93
585.93	2301.11
586.28	2291.78
586.63	2282.99
586.98	2274.73
587.34	2266.18
587.69	2256.90
588.04	2247.98
588.39	2239.84
588.74	2231.02
589.09	2222.23
589.44	2212.41
589.79	2203.77
590.14	2195.66
590.49	2187.18
590.84	2177.81
591.19	2169.70
591.54	2161.12
591.89	2150.97
592.25	2141.60
592.60	2132.21
592.95	2123.10
593.30	2113.41
593.65	2103.47
594.00	2093.74
594.35	2085.15
594.70	2075.63
595.05	2066.76
595.40	2057.72
595.75	2047.87
596.10	2039.19
596.45	2030.45
596.80	2022.75
597.15	2014.34
597.50	2005.05
597.85	1996.22
598.19	1987.70
598.54	1978.46
598.89	1970.46
599.24	1963.57
599.59	1956.26
599.94	1948.94
600.29	1940.88
600.64	1932.70
600.99	1923.95
601.34	1916.61
601.69	1907.64
602.04	1899.47
602.39	1891.18
602.74	1883.27
603.08	1876.63
603.43	1869.22
603.78	1861.14
604.13	1853.10
604.48	1844.72
604.83	1837.27
605.18	1830.37
605.53	1822.85
605.87	1815.40
606.22	1807.88
606.57	1799.86
606.92	1791.45
607.27	1783.30
607.62	1775.80
607.96	1769.11
608.31	1763.17
608.66	1755.05
609.01	1747.30
609.36	1739.58
609.70	1731.72
610.05	1723.86
610.40	1715.38
610.75	1706.74
611.10	1699.08
611.44	1689.54
611.79	1680.49
612.14	1671.15
612.49	1661.15
612.83	1652.23
613.18	1642.19
613.53	1632.75
613.88	1622.93
614.22	1614.03
614.57	1604.57
614.92	1595.18
615.27	1585.44
615.61	1575.40
615.96	1566.39
616.31	1558.00
616.65	1549.88
617.00	1541.35
617.35	1532.41
617.70	1523.34
618.04	1514.33
618.39	1504.69
618.74	1496.40
619.08	1487.60
619.43	1479.35
619.78	1471.50
620.12	1463.15
620.47	1455.45
620.82	1446.50
621.16	1438.13
621.51	1429.42
621.85	1421.05
622.20	1412.57
622.55	1403.87
622.89	1395.68
623.24	1387.72
623.59	1378.88
623.93	1370.27
624.28	1361.81
624.62	1353.56
624.97	1345.43
625.32	1337.60
625.66	1330.25
626.01	1322.94
626.35	1315.53
626.70	1308.00
627.04	1300.48
627.39	1292.91
627.73	1285.21
628.08	1278.30
628.43	1270.84
628.77	1263.48
629.12	1256.18
629.46	1249.27
629.81	1242.38
630.15	1234.91
630.50	1227.47
630.84	1220.00
631.19	1212.70
631.53	1205.91
631.88	1198.31
632.22	1190.64
632.57	1183.56
632.91	1175.97
633.26	1168.39
633.60	1161.31
633.95	1154.19
634.29	1146.70
634.64	1139.86
634.98	1132.93
635.32	1125.93
635.67	1119.61
636.01	1112.66
636.36	1105.75
636.70	1099.06
637.05	1092.19
637.39	1085.75
637.73	1079.45
638.08	1073.85
638.42	1067.75
638.77	1061.20
639.11	1054.80
639.45	1048.72
639.80	1041.98
640.14	1035.43
640.49	1029.09
640.83	1022.74
641.17	1016.35
641.52	1010.20
641.86	1003.69
642.20	997.30
642.55	990.58
642.89	983.84
643.23	977.46
643.58	971.36
643.92	964.65
644.26	958.59
644.61	952.41
644.95	946.13
645.29	939.62
645.64	933.00
645.98	926.64
646.32	920.83
646.66	914.64
647.01	908.62
647.35	902.82
647.69	896.49
648.04	890.49
648.38	884.60
648.72	878.65
649.06	872.62
649.41	866.43
649.75	860.53
650.09	854.53
650.43	848.56
650.78	842.52
651.12	836.51
651.46	830.51
651.80	824.47
652.14	818.42
652.49	812.27
652.83	806.41
653.17	800.29
653.51	794.20
653.85	788.43
654.20	782.60
654.54	776.86
654.88	771.31
655.22	765.36
655.56	759.26
655.90	753.28
656.25	747.43
656.59	741.92
656.93	736.63
657.27	731.43
657.61	725.95
657.95	720.80
658.29	715.67
658.64	710.64
658.98	705.36
659.32	699.96
659.66	694.71
660.00	689.32
660.34	684.14
660.68	679.11
661.02	674.06
661.36	669.23
661.70	664.20
662.05	659.43
662.39	654.95
662.73	650.69
663.07	646.32
663.41	642.00
663.75	637.36
664.09	632.58
664.43	627.80
664.77	623.54
665.11	618.94
665.45	614.49
665.79	609.70
666.13	605.42
666.47	601.25
666.81	597.25
667.15	593.24
667.49	589.33
667.83	585.23
668.17	581.15
668.51	577.22
668.85	573.45
669.19	569.75
669.53	565.84
669.87	561.63
670.21	557.74
670.55	553.76
670.89	550.32
671.23	546.94
671.57	543.49
671.91	539.74
672.25	536.06
672.58	532.50
672.92	529.17
673.26	525.95
673.60	522.40
673.94	519.02
674.28	515.51
674.62	512.36
674.96	509.18
675.30	506.17
675.64	502.97
675.97	499.77
676.31	496.72
676.65	493.67
676.99	491.04
677.33	488.09
677.67	485.07
678.01	481.99
678.34	478.97
678.68	476.03
679.02	473.14
679.36	470.56
679.70	467.70
680.04	464.82
680.37	461.73
680.71	459.01
681.05	456.27
681.39	453.66
681.73	450.84
682.06	448.30
682.40	445.67
682.74	443.18
683.08	440.59
683.42	438.09
683.75	435.49
684.09	432.78
684.43	430.26
684.77	427.77
685.10	425.21
685.44	422.64
685.78	420.20
686.12	417.92
686.45	415.37
686.79	413.16
687.13	410.92
687.46	408.78
687.80	406.67
688.14	404.35
688.48	402.24
688.81	400.07
689.15	397.83
689.49	395.44
689.82	393.08
690.16	390.75
690.50	388.31
690.83	386.03
691.17	383.79
691.51	381.47
691.84	379.21
692.18	377.10
692.52	375.10
692.85	373.11
693.19	371.20
693.52	369.22
693.86	367.16
694.20	365.29
694.53	363.32
694.87	361.16
695.21	359.20
695.54	357.22
695.88	355.17
696.21	353.20
696.55	351.50
696.88	349.80
697.22	348.03
697.56	346.37
697.89	344.75
698.23	343.11
698.56	341.38
698.90	339.97
699.23	338.35
699.57	336.75
699.90	335.07
700.24	333.29
700.58	331.69
700.91	330.25
701.25	328.82
701.58	327.35
701.92	325.93
702.25	324.62
702.59	323.24
702.92	321.95
703.26	320.59
703.59	319.30
703.93	318.07
704.26	316.86
704.60	315.61
704.93	314.35
705.26	313.07
705.60	311.94
705.93	310.62
706.27	309.46
706.60	308.39
706.94	307.32
707.27	306.25
707.61	305.07
707.94	303.85
708.27	302.64
708.61	301.54
708.94	300.49
709.28	299.30
709.61	298.20
709.94	297.09
710.28	296.06
710.61	295.03
710.95	293.81
711.28	292.84
711.61	291.82
711.95	290.82
712.28	289.78
712.61	288.70
712.95	287.79
713.28	286.89
713.61	285.86
713.95	284.92
714.28	284.01
714.61	283.08
714.95	282.19
715.28	281.13
715.61	280.12
715.95	279.20
716.28	278.32
716.61	277.48
716.95	276.64
717.28	275.85
717.61	274.97
717.94	274.31
718.28	273.45
718.61	272.61
718.94	271.89
719.27	271.20
719.61	270.54
719.94	269.78
720.27	268.94
720.60	268.19
720.94	267.41
721.27	266.68
721.60	266.13
721.93	265.55
722.27	265.03
722.60	264.46
722.93	263.82
723.26	263.26
723.59	262.66
723.93	262.12
724.26	261.51
724.59	260.88
724.92	260.28
725.25	259.77
725.59	259.29
725.92	258.78
726.25	258.23
726.58	257.77
726.91	257.28
727.24	256.85
727.57	256.31
727.91	255.81
728.24	255.33
728.57	254.73
728.90	254.19
729.23	253.59
729.56	253.16
729.89	252.71
730.22	252.13
730.55	251.66
730.89	251.17
731.22	250.67
731.55	250.27
731.88	249.74
732.21	249.28
732.54	248.77
732.87	248.27
733.20	247.85
733.53	247.30
733.86	246.84
734.19	246.37
734.52	246.10
734.85	245.82
735.18	245.40
735.51	245.05
735.84	244.69
736.17	244.42
736.50	243.99
736.83	243.83
737.16	243.54
737.49	243.14
737.82	242.79
738.15	242.49
738.48	242.16
738.81	241.90
739.14	241.42
739.47	241.08
739.80	240.75
740.13	240.40
740.46	240.13
740.79	239.75
741.12	239.40
741.45	238.93
741.78	238.46
742.11	238.16
742.44	237.86
742.77	237.64
743.10	237.31
743.43	236.99
743.75	236.46
744.08	236.38
744.41	236.13
744.74	235.72
745.07	235.36
745.40	235.10
745.73	234.89
746.06	234.67
746.39	234.41
746.71	234.05
747.04	233.73
747.37	233.41
747.70	233.15
748.03	232.95
748.36	232.71
748.68	232.49
749.01	232.18
749.34	231.90
749.67	231.52
750.00	231.25
750.33	231.12
750.65	230.91
750.98	230.46
751.31	230.20
751.64	230.02
751.97	229.86
752.29	229.65
752.62	229.33
752.95	229.07
753.28	228.78
753.60	228.60
753.93	228.49
754.26	228.40
754.59	228.14
754.91	227.86
755.24	227.69
755.57	227.52
755.90	227.30
756.22	227.10
756.55	226.90
756.88	226.67
757.20	226.32
757.53	226.10
757.86	225.87
758.19	225.67
758.51	225.49
758.84	225.23
759.17	225.01
759.49	224.79
759.82	224.70
760.15	224.53
760.47	224.39
760.80	224.08
761.13	223.82
761.45	223.71
761.78	223.71
762.11	223.50
762.43	223.36
762.76	223.18
763.08	222.95
763.41	222.86
763.74	222.75
764.06	222.62
764.39	222.55
764.71	222.34
765.04	222.23
765.37	222.09
765.69	221.91
766.02	221.75
766.34	221.59
766.67	221.39
767.00	221.33
767.32	221.26
767.65	221.30
767.97	221.24
768.30	221.12
768.62	220.90
768.95	220.85
769.27	220.69
769.60	220.64
769.92	220.60
770.25	220.38
770.57	220.22
770.90	220.17
771.22	219.95
771.55	219.96
771.87	219.81
772.20	219.72
772.52	219.83
772.85	219.96
773.17	219.82
773.50	219.75
773.82	219.62
774.15	219.49
774.47	219.25
774.80	219.14
775.12	219.04
775.45	218.97
775.77	218.81
776.09	218.75
776.42	218.69
776.74	218.62
777.07	218.57
777.39	218.53
777.72	218.39
778.04	218.31
778.36	218.20
778.69	218.07
779.01	217.95
779.33	217.70
779.66	217.40
779.98	217.34
780.31	217.23
780.63	217.25
780.95	217.19
781.28	217.18
781.60	217.05
781.92	217.05
782.25	216.96
782.57	216.89
782.89	216.74
783.22	216.63
783.54	216.57
783.86	216.56
784.19	216.47
784.51	216.49
784.83	216.56
785.16	216.44
785.48	216.41
785.80	216.45
786.12	216.39
786.45	216.29
786.77	216.29
787.09	216.22
787.42	216.14
787.74	216.11
788.06	216.03
788.38	215.95
788.71	215.81
789.03	215.74
789.35	215.76
789.67	215.76
789.99	215.78
790.32	215.70
790.64	215.65
790.96	215.71
791.28	215.61
791.61	215.44
791.93	215.40
792.25	215.42
792.57	215.46
792.89	215.40
793.21	215.44
793.54	215.39
793.86	215.35
794.18	215.28
794.50	215.20
794.82	215.16
795.14	215.14
795.47	215.15
795.79	215.16
796.11	215.10
796.43	215.02
796.75	215.03
797.07	215.01
797.39	215.02
797.71	214.92
798.04	214.78
798.36	214.77
798.68	214.77
799.00	214.73
799.32	214.61
799.64	214.69
799.96	214.65
800.28	214.68
800.60	214.63
800.92	214.65
801.24	214.60
801.56	214.59
801.89	214.58
802.21	214.61
802.53	214.57
802.85	214.58
803.17	214.61
803.49	214.50
803.81	214.40
804.13	214.31
804.45	214.29
804.77	214.38
805.09	214.32
805.41	214.27
805.73	214.24
806.05	214.20
806.37	214.12
806.69	214.12
807.01	214.07
807.33	214.08
807.65	213.92
807.97	213.98
808.28	213.92
808.60	213.93
808.92	213.84
809.24	213.89
809.56	213.79
809.88	213.75
810.20	213.73
810.52	213.79
810.84	213.73
811.16	213.65
811.48	213.56
811.80	213.61
812.12	213.62
812.43	213.58
812.75	213.54
813.07	213.44
813.39	213.30
813.71	213.24
814.03	213.19
814.35	213.20
814.67	213.13
814.98	213.06
815.30	212.98
815.62	212.82
815.94	212.67
816.26	212.68
816.58	212.62
816.89	212.64
817.21	212.58
817.53	212.59
817.85	212.53
818.17	212.55
818.48	212.50
818.80	212.54
819.12	212.48
819.44	212.45
819.76	212.39
820.07	212.38
820.39	212.40
820.71	212.47
821.03	212.39
821.34	212.35
821.66	212.36
821.98	212.36
822.30	212.41
822.61	212.50
822.93	212.39
823.25	212.33
823.57	212.25
823.88	212.28
824.20	212.27
824.52	212.37
824.83	212.40
825.15	212.32
825.47	212.26
825.79	212.28
826.10	212.28
826.42	212.30
826.74	212.35
827.05	212.39
827.37	212.31
827.69	212.35
828.00	212.35
828.32	212.37
828.64	212.36
828.95	212.50
829.27	212.46
829.58	212.42
829.90	212.52
830.22	212.53
830.53	212.45
830.85	212.40
831.17	212.30
831.48	212.30
831.80	212.32
832.11	212.20
832.43	212.14
832.75	212.05
833.06	212.14
833.38	212.07
833.69	212.02
834.01	212.07
834.32	212.00
834.64	211.94
834.96	211.93
835.27	211.90
835.59	211.77
835.90	211.62
836.22	211.69
836.53	211.69
836.85	211.68
837.16	211.85
837.48	211.85
837.79	211.90
838.11	211.88
838.42	211.90
838.74	212.01
839.05	211.93
839.37	211.95
839.68	211.89
840.00	211.87
840.31	211.90
840.63	211.83
840.94	211.83
841.26	211.85
841.57	211.85
841.88	211.90
842.20	211.91
842.51	211.97
842.83	211.97
843.14	212.08
843.46	212.06
843.77	211.99
844.08	212.03
844.40	211.96
844.71	211.94
845.03	211.92
845.34	211.86
845.65	211.95
845.97	211.99
846.28	211.97
846.60	212.04
846.91	211.99
847.22	211.98
847.54	212.05
847.85	212.05
848.16	212.05
848.48	212.07
848.79	212.13
849.10	212.15
849.42	212.14
849.73	211.94
850.04	211.93
850.36	211.82
850.67	211.87
850.98	211.92
851.30	211.86
851.61	211.90
851.92	211.95
852.23	212.07
852.55	212.04
852.86	212.06
853.17	212.05
853.49	212.06
853.80	212.09
854.11	212.09
854.42	212.10
854.74	212.02
855.05	211.99
855.36	211.89
855.67	211.91
855.99	211.92
856.30	212.17
856.61	212.19
856.92	212.31
857.23	212.25
857.55	212.23
857.86	212.28
858.17	212.26
858.48	212.19
858.79	212.12
859.11	212.18
859.42	212.15
859.73	212.15
860.04	212.11
860.35	212.09
860.66	212.03
860.98	212.09
861.29	212.17
861.60	212.17
861.91	212.22
862.22	212.11
862.53	212.16
862.84	211.91
863.16	211.90
863.47	211.78
863.78	211.77
864.09	211.77
864.40	211.77
864.71	211.72
865.02	211.75
865.33	211.73
865.64	211.66
865.95	211.69
866.27	211.70
866.58	211.73
866.89	211.73
867.20	211.77
867.51	211.68
867.82	211.60
868.13	211.66
868.44	211.58
868.75	211.72
869.06	211.66
869.37	211.72
869.68	211.65
869.99	211.71
870.30	211.74
870.61	211.75
870.92	211.71
871.23	211.76
871.54	211.73
871.85	211.75
872.16	211.74
872.47	211.75
872.78	211.73
873.09	211.73
873.40	211.72
873.71	211.73
874.02	211.76
874.33	211.74
874.64	211.65
874.95	211.71
875.26	211.59
875.56	211.53
875.87	211.47
876.18	211.48
876.49	211.55
876.80	211.49
877.11	211.43
877.42	211.44
877.73	211.27
878.04	211.30
878.35	211.30
878.66	211.36
878.96	211.34
879.27	211.32
879.58	211.31
879.89	211.31
880.20	211.32
880.51	211.30
880.82	211.39
881.12	211.35
881.43	211.26
881.74	211.23
882.05	211.23
882.36	211.25
882.67	211.21
882.97	211.14
883.28	211.16
883.59	211.10
883.90	211.09
884.21	211.21
884.51	211.19
884.82	211.14
885.13	211.08
885.44	210.99
885.74	210.92
886.05	210.91
886.36	210.84
886.67	210.81
886.98	210.81
887.28	210.81
887.59	210.88
887.90	210.91
888.20	210.97
888.51	211.08
888.82	211.03
889.13	211.04
889.43	211.12
889.74	211.02
890.05	211.03
890.35	211.00
890.66	211.00
890.97	210.96
891.28	210.95
891.58	210.95
891.89	211.05
892.20	211.10
892.50	211.11
892.81	211.06
893.12	210.99
893.42	210.98
893.73	210.98
894.04	210.97
894.34	211.00
894.65	211.00
894.95	210.87
895.26	210.90
895.57	211.08
895.87	210.95
896.18	211.06
896.48	211.14
896.79	211.14
897.10	211.19
897.40	211.19
897.71	211.19
898.01	211.21
898.32	211.14
898.63	211.08
898.93	211.02
899.24	211.14
899.54	211.10
899.85	211.06
900.15	211.02
900.46	210.96
900.76	210.97
901.07	210.99
901.38	211.08
901.68	211.06
901.99	210.95
902.29	211.00
902.60	210.97
902.90	211.00
903.21	211.05
903.51	211.04
903.82	211.08
904.12	211.07
904.43	211.07
904.73	211.16
905.03	211.18
905.34	211.40
905.64	211.32
905.95	211.44
906.25	211.46
906.56	211.44
906.86	211.50
907.17	211.55
907.47	211.44
907.77	211.45
908.08	211.45
908.38	211.44
908.69	211.41
908.99	211.49
909.30	211.41
909.60	211.42
909.90	211.37
910.21	211.34
910.51	211.33
910.81	211.38
911.12	211.38
911.42	211.46
911.73	211.28
912.03	211.32
912.33	211.29
912.64	211.30
912.94	211.33
913.24	211.34
913.55	211.28
913.85	211.37
914.15	211.41
914.46	211.40
914.76	211.37
915.06	211.35
915.37	211.25
915.67	211.31
915.97	211.25
916.27	211.26
916.58	211.31
916.88	211.35
917.18	211.33
917.49	211.37
917.79	211.29
918.09	211.27
918.39	211.32
918.70	211.34
919.00	211.33
919.30	211.39
919.60	211.31
919.91	211.27
920.21	211.30
920.51	211.20
920.81	211.30
921.12	211.26
921.42	211.16
921.72	211.17
922.02	211.15
922.32	211.14
922.63	211.15
922.93	211.16
923.23	211.13
923.53	211.04
923.83	210.95
924.13	211.05
924.44	211.01
924.74	211.01
925.04	211.06
925.34	211.02
925.64	210.94
925.94	210.92
926.24	211.04
926.55	210.95
926.85	211.01
927.15	210.88
927.45	210.94
927.75	211.04
928.05	211.07
928.35	211.05
928.65	211.15
928.95	211.13
929.26	211.01
929.56	211.02
929.86	211.00
930.16	210.96
930.46	210.90
930.76	210.97
931.06	210.93
931.36	210.76
931.66	210.76
931.96	210.77
932.26	210.82
932.56	210.67
932.86	210.71
933.16	210.62
933.46	210.62
933.76	210.65
934.06	210.74
934.36	210.83
934.66	210.84
934.96	210.80
935.26	210.81
935.56	210.92
935.86	210.88
936.16	210.92
936.46	210.94
936.76	210.88
937.06	210.83
937.36	210.89
937.66	210.90
937.96	210.93
938.26	210.91
938.56	210.88
938.86	210.99
939.16	211.01
939.46	211.02
939.76	211.11
940.06	210.96
940.35	210.83
940.65	210.70
940.95	210.70
941.25	210.63
941.55	210.65
941.85	210.60
942.15	210.70
942.45	210.79
942.75	210.74
943.04	210.79
943.34	210.82
943.64	210.81
943.94	210.85
944.24	210.82
944.54	210.85
944.84	210.91
945.13	210.93
945.43	210.89
945.73	210.93
946.03	210.90
946.33	210.95
946.62	210.93
946.92	210.93
947.22	210.91
947.52	210.98
947.82	210.93
948.11	210.93
948.41	210.84
948.71	210.74
949.01	210.80
949.31	210.74
949.60	210.70
949.90	210.70
950.20	210.72
950.50	210.75
950.79	210.75
951.09	210.66
951.39	210.60
951.69	210.62
951.98	210.67
952.28	210.63
952.58	210.61
952.87	210.64
953.17	210.62
953.47	210.63
953.76	210.62
954.06	210.61
954.36	210.56
954.66	210.57
954.95	210.57
955.25	210.54
955.55	210.58
955.84	210.55
956.14	210.51
956.44	210.50
956.73	210.48
957.03	210.44
957.32	210.55
957.62	210.50
957.92	210.55
958.21	210.52
958.51	210.77
958.81	210.86
959.10	210.83
959.40	210.90
959.69	210.95
959.99	210.99
960.29	211.03
960.58	211.07
960.88	211.19
961.17	211.21
961.47	211.29
961.76	211.28
962.06	211.34
962.36	211.29
962.65	211.27
962.95	211.25
963.24	211.28
963.54	211.24
963.83	211.28
964.13	211.28
964.42	211.30
964.72	211.19
965.01	211.18
965.31	211.20
965.60	211.13
965.90	211.18
966.19	211.10
966.49	211.17
966.78	211.10
967.08	211.09
967.37	211.07
967.67	211.02
967.96	211.04
968.26	211.03
968.55	211.13
968.85	211.10
969.14	211.14
969.43	211.14
969.73	211.15
970.02	211.16
970.32	211.04
970.61	211.02
970.91	210.88
971.20	210.84
971.49	210.85
971.79	210.86
972.08	210.68
972.38	210.70
972.67	210.54
972.96	210.54
973.26	210.48
973.55	210.53
973.85	210.52
974.14	210.50
974.43	210.52
974.73	210.46
975.02	210.47
975.31	210.37
975.61	210.38
975.90	210.25
976.19	210.22
976.49	210.29
976.78	210.22
977.07	210.25
977.37	210.31
977.66	210.30
977.95	210.28
978.24	210.37
978.54	210.32
978.83	210.36
979.12	210.47
979.42	210.41
979.71	210.38
980.00	210.40
980.29	210.43
980.59	210.39
980.88	210.46
981.17	210.42
981.46	210.52
981.76	210.49
982.05	210.62
982.34	210.65
982.63	210.64
982.93	210.66
983.22	210.71
983.51	210.68
983.80	210.72
984.09	210.80
984.39	210.75
984.68	210.85
984.97	210.91
985.26	210.85
985.55	210.94
985.85	210.92
986.14	210.90
986.43	210.88
986.72	210.90
987.01	210.80
987.30	210.87
987.59	210.86
987.89	210.89
988.18	210.85
988.47	210.86
988.76	210.86
989.05	210.81
989.34	210.81
989.63	210.92
989.92	210.89
990.22	210.81
990.51	210.79
990.80	210.75
991.09	210.73
991.38	210.75
991.67	210.70
991.96	210.69
992.25	210.70
992.54	210.70
992.83	210.70
993.12	210.62
993.41	210.66
993.70	210.69
993.99	210.67
994.28	210.67
994.58	210.70
994.87	210.71
995.16	210.78
995.45	210.79
995.74	210.61
996.03	210.62
996.32	210.67
996.61	210.73
996.90	210.75
997.19	210.68
997.48	210.66
997.77	210.63
998.06	210.64
998.34	210.64
998.63	210.63
998.92	210.63
999.21	210.76
999.50	210.75
999.79	210.68
1000.08	210.74
1000.37	210.72
1000.66	210.62
1000.95	210.63
1001.24	210.66
1001.53	210.54
1001.82	210.61
1002.11	210.59
1002.40	210.60
1002.68	210.63
1002.97	210.70
1003.26	210.69
1003.55	210.64
1003.84	210.67
1004.13	210.78
1004.42	210.80
1004.71	210.79
1004.99	210.77
1005.28	210.80
1005.57	210.80
1005.86	210.77
1006.15	210.75
1006.44	210.75
1006.72	210.85
1007.01	210.84
1007.30	210.77
1007.59	210.86
1007.88	210.84
1008.17	210.85
1008.45	210.85
1008.74	210.75
1009.03	210.64
1009.32	210.65
1009.60	210.70
1009.89	210.68
1010.18	210.57
1010.47	210.54
1010.76	210.53
1011.04	210.54
1011.33	210.73
1011.62	210.80
1011.91	210.85
1012.19	210.81
1012.48	210.81
1012.77	210.70
1013.05	210.78
1013.34	210.83
1013.63	210.82
1013.92	210.84
1014.20	210.83
1014.49	210.82
1014.78	210.88
1015.06	210.88
1015.35	210.85
1015.64	210.89
1015.92	210.90
1016.21	210.93
1016.50	210.95
1016.78	210.99
1017.07	210.98
1017.36	210.76
1017.64	210.64
1017.93	210.66
1018.22	210.69
1018.50	210.69
1018.79	210.77
1019.08	210.63
1019.36	210.69
1019.65	210.71
1019.93	210.75
1020.22	210.78
1020.51	210.78
1020.79	210.78
1021.08	210.60
1021.36	210.75
1021.65	210.85
1021.94	209.35
1022.22	212.25
1022.51	211.50
1022.79	211.70
1023.08	210.95
1023.36	211.70
1023.65	210.50
>>>>>End Processed Spectral Data<<<<<
