SpectraSuite Data File
++++++++++++++++++++++++++++++++++++
Date: Mon Feb 25 17:31:14 EST 2013
User: group
Dark Spectrum Present: No
Reference Spectrum Present: No
Number of Sampled Component Spectra: 1
Spectrometers: USB2E7196
Integration Time (usec): 52000 (USB2E7196)
Spectra Averaged: 20 (USB2E7196)
Boxcar Smoothing: 10 (USB2E7196)
Correct for Electrical Dark: No (USB2E7196)
Strobe/Lamp Enabled: No (USB2E7196)
Correct for Detector Non-linearity: No (USB2E7196)
Correct for Stray Light: No (USB2E7196)
Number of Pixels in Processed Spectrum: 2048
>>>>>Begin Processed Spectral Data<<<<<
339.09	0.00
339.48	198.75
339.86	201.00
340.24	200.60
340.63	203.45
341.01	206.60
341.39	205.15
341.78	207.45
342.16	207.95
342.54	209.10
342.93	197.84
343.31	207.91
343.69	208.41
344.07	208.81
344.46	209.29
344.84	209.76
345.22	209.98
345.60	210.23
345.99	210.40
346.37	210.56
346.75	210.68
347.13	210.78
347.52	210.84
347.90	210.92
348.28	210.96
348.66	211.09
349.05	211.02
349.43	211.15
349.81	211.27
350.19	211.37
350.57	211.48
350.96	211.60
351.34	211.63
351.72	211.74
352.10	211.92
352.48	212.03
352.87	212.05
353.25	212.17
353.63	212.27
354.01	212.33
354.39	212.42
354.77	212.48
355.15	212.53
355.54	212.61
355.92	212.69
356.30	212.78
356.68	212.98
357.06	213.10
357.44	213.10
357.82	213.13
358.20	213.24
358.58	213.31
358.97	213.43
359.35	213.60
359.73	213.79
360.11	213.80
360.49	213.80
360.87	213.82
361.25	213.84
361.63	213.97
362.01	214.09
362.39	214.12
362.77	214.20
363.15	214.27
363.53	214.36
363.91	214.43
364.29	214.46
364.67	214.33
365.05	214.38
365.43	214.47
365.81	214.50
366.19	214.55
366.57	214.67
366.95	214.63
367.33	214.61
367.71	214.49
368.09	214.56
368.47	214.63
368.85	214.60
369.23	214.66
369.61	214.52
369.99	214.52
370.37	214.47
370.75	214.48
371.13	214.40
371.51	214.32
371.89	214.27
372.27	214.23
372.65	214.21
373.03	214.21
373.41	214.12
373.78	214.12
374.16	213.97
374.54	213.84
374.92	213.77
375.30	213.68
375.68	213.62
376.06	213.56
376.44	213.48
376.82	213.43
377.19	213.37
377.57	213.35
377.95	213.25
378.33	213.24
378.71	213.12
379.09	213.12
379.47	213.05
379.84	212.93
380.22	212.86
380.60	212.72
380.98	212.54
381.36	212.48
381.73	212.36
382.11	212.42
382.49	212.38
382.87	212.33
383.25	212.29
383.62	212.44
384.00	212.37
384.38	212.32
384.76	212.29
385.13	212.35
385.51	212.24
385.89	212.18
386.27	212.18
386.64	212.18
387.02	212.12
387.40	212.07
387.78	212.07
388.15	212.06
388.53	212.07
388.91	212.07
389.29	212.02
389.66	212.02
390.04	211.91
390.42	211.87
390.79	211.80
391.17	211.73
391.55	211.57
391.92	211.53
392.30	211.55
392.68	211.47
393.05	211.33
393.43	211.43
393.81	211.50
394.18	211.36
394.56	211.37
394.94	211.40
395.31	211.39
395.69	211.45
396.06	211.46
396.44	211.50
396.82	211.50
397.19	211.55
397.57	211.57
397.95	211.63
398.32	211.58
398.70	211.61
399.07	211.66
399.45	211.69
399.82	211.69
400.20	211.62
400.58	211.74
400.95	211.74
401.33	211.80
401.70	211.88
402.08	211.98
402.45	211.99
402.83	212.08
403.20	212.18
403.58	212.24
403.95	212.33
404.33	212.42
404.71	212.54
405.08	212.75
405.46	212.84
405.83	213.02
406.21	213.14
406.58	213.28
406.96	213.41
407.33	213.55
407.70	213.75
408.08	214.13
408.45	214.36
408.83	214.63
409.20	214.79
409.58	214.96
409.95	215.26
410.33	215.55
410.70	215.84
411.08	216.13
411.45	216.49
411.82	216.91
412.20	217.34
412.57	217.88
412.95	218.23
413.32	218.73
413.69	219.18
414.07	219.80
414.44	220.43
414.82	221.12
415.19	221.84
415.56	222.64
415.94	223.34
416.31	224.15
416.68	225.04
417.06	226.04
417.43	226.95
417.81	228.05
418.18	229.15
418.55	230.28
418.93	231.53
419.30	232.82
419.67	234.11
420.04	235.47
420.42	236.90
420.79	238.73
421.16	240.43
421.54	242.17
421.91	243.92
422.28	245.86
422.66	247.79
423.03	249.78
423.40	251.79
423.77	253.96
424.15	256.13
424.52	258.40
424.89	260.88
425.26	263.37
425.64	265.62
426.01	268.13
426.38	270.77
426.75	273.46
427.13	276.28
427.50	279.21
427.87	282.23
428.24	285.17
428.61	288.06
428.99	291.24
429.36	294.68
429.73	298.14
430.10	301.54
430.47	305.12
430.85	308.79
431.22	312.56
431.59	316.68
431.96	320.60
432.33	324.96
432.70	329.09
433.08	333.91
433.45	338.46
433.82	343.10
434.19	348.20
434.56	353.13
434.93	357.73
435.30	362.39
435.68	367.50
436.05	372.68
436.42	377.53
436.79	382.23
437.16	387.36
437.53	392.54
437.90	397.77
438.27	402.76
438.64	408.00
439.01	412.89
439.38	417.11
439.75	421.28
440.13	426.04
440.50	430.62
440.87	434.22
441.24	437.98
441.61	442.16
441.98	445.18
442.35	448.72
442.72	452.44
443.09	455.90
443.46	458.07
443.83	459.48
444.20	460.78
444.57	462.35
444.94	462.95
445.31	463.76
445.68	464.48
446.05	464.66
446.42	463.97
446.79	463.21
447.16	462.43
447.53	461.77
447.90	459.60
448.27	457.35
448.64	454.58
449.01	452.60
449.37	449.06
449.74	445.54
450.11	441.51
450.48	437.01
450.85	432.35
451.22	428.33
451.59	424.64
451.96	421.04
452.33	416.53
452.70	412.36
453.07	407.40
453.43	402.23
453.80	397.47
454.17	392.82
454.54	388.34
454.91	383.70
455.28	379.06
455.65	374.71
456.02	370.62
456.38	366.89
456.75	362.28
457.12	358.40
457.49	354.69
457.86	350.98
458.23	347.81
458.59	344.60
458.96	341.28
459.33	338.17
459.70	335.07
460.07	332.51
460.43	329.70
460.80	327.04
461.17	324.73
461.54	322.22
461.91	319.98
462.27	317.72
462.64	315.65
463.01	313.46
463.38	311.40
463.74	309.14
464.11	307.30
464.48	305.71
464.85	303.93
465.21	302.58
465.58	301.17
465.95	299.53
466.32	298.10
466.68	296.81
467.05	295.42
467.42	294.09
467.78	292.68
468.15	291.35
468.52	290.34
468.88	289.09
469.25	287.95
469.62	286.99
469.98	286.02
470.35	285.01
470.72	284.10
471.08	283.22
471.45	282.56
471.82	281.88
472.18	281.02
472.55	280.49
472.92	279.80
473.28	279.16
473.65	278.54
474.02	277.94
474.38	277.38
474.75	277.03
475.11	276.65
475.48	276.39
475.85	276.11
476.21	275.93
476.58	275.72
476.94	275.69
477.31	275.64
477.67	275.58
478.04	275.69
478.41	275.93
478.77	276.22
479.14	276.30
479.50	276.54
479.87	276.89
480.23	277.27
480.60	277.64
480.96	278.15
481.33	278.78
481.69	279.41
482.06	280.05
482.42	280.72
482.79	281.46
483.15	282.28
483.52	283.31
483.88	284.22
484.25	285.28
484.61	286.29
484.98	287.40
485.34	288.75
485.71	290.07
486.07	291.41
486.44	292.70
486.80	294.30
487.17	295.88
487.53	297.68
487.90	299.50
488.26	301.45
488.62	303.44
488.99	305.47
489.35	307.59
489.72	309.88
490.08	312.21
490.44	314.76
490.81	317.36
491.17	319.93
491.54	322.84
491.90	325.90
492.26	329.11
492.63	332.45
492.99	335.91
493.36	339.50
493.72	343.46
494.08	347.48
494.45	351.75
494.81	356.21
495.17	360.71
495.54	365.62
495.90	370.68
496.26	376.00
496.63	381.56
496.99	387.41
497.35	393.38
497.72	399.69
498.08	406.00
498.44	412.83
498.80	420.04
499.17	427.41
499.53	435.04
499.89	442.92
500.26	450.94
500.62	459.11
500.98	467.87
501.34	477.00
501.71	486.31
502.07	495.85
502.43	505.74
502.79	515.96
503.16	526.55
503.52	537.47
503.88	548.51
504.24	559.94
504.60	571.72
504.97	584.13
505.33	596.56
505.69	609.95
506.05	623.21
506.41	636.75
506.78	650.32
507.14	664.35
507.50	678.91
507.86	693.87
508.22	709.23
508.59	724.62
508.95	740.53
509.31	756.78
509.67	773.25
510.03	790.03
510.39	807.48
510.75	825.06
511.12	842.88
511.48	861.16
511.84	879.71
512.20	898.12
512.56	917.06
512.92	936.49
513.28	955.73
513.64	975.47
514.00	994.99
514.37	1015.09
514.73	1035.66
515.09	1056.41
515.45	1076.60
515.81	1097.54
516.17	1118.86
516.53	1139.60
516.89	1160.97
517.25	1182.39
517.61	1203.90
517.97	1225.32
518.33	1246.51
518.69	1268.01
519.05	1289.72
519.41	1311.76
519.77	1334.17
520.13	1355.84
520.49	1377.48
520.85	1399.90
521.21	1422.08
521.57	1444.96
521.93	1466.95
522.29	1489.49
522.65	1511.60
523.01	1534.34
523.37	1556.32
523.73	1578.17
524.09	1600.48
524.45	1622.51
524.81	1644.77
525.17	1666.90
525.53	1688.94
525.89	1710.99
526.25	1732.55
526.61	1753.65
526.97	1774.94
527.33	1795.92
527.68	1817.40
528.04	1838.30
528.40	1858.42
528.76	1878.83
529.12	1899.49
529.48	1920.70
529.84	1940.78
530.20	1960.71
530.56	1980.57
530.91	2000.99
531.27	2021.13
531.63	2040.52
531.99	2059.86
532.35	2078.68
532.71	2097.65
533.07	2116.46
533.42	2134.50
533.78	2153.07
534.14	2171.44
534.50	2188.21
534.86	2206.21
535.21	2222.66
535.57	2240.09
535.93	2257.35
536.29	2273.98
536.65	2289.88
537.00	2304.98
537.36	2320.02
537.72	2335.13
538.08	2350.16
538.44	2364.95
538.79	2379.98
539.15	2394.58
539.51	2408.87
539.87	2423.86
540.22	2437.98
540.58	2452.80
540.94	2467.25
541.29	2480.05
541.65	2492.10
542.01	2505.06
542.37	2516.07
542.72	2527.99
543.08	2538.77
543.44	2549.97
543.79	2559.92
544.15	2569.86
544.51	2580.76
544.87	2591.43
545.22	2600.65
545.58	2608.93
545.94	2616.15
546.29	2622.34
546.65	2628.30
547.01	2634.10
547.36	2639.18
547.72	2644.09
548.07	2647.50
548.43	2651.20
548.79	2654.58
549.14	2658.54
549.50	2662.31
549.86	2666.28
550.21	2669.84
550.57	2673.38
550.92	2675.53
551.28	2677.59
551.64	2679.88
551.99	2682.00
552.35	2683.40
552.70	2685.65
553.06	2688.28
553.41	2690.64
553.77	2693.34
554.13	2695.58
554.48	2697.39
554.84	2698.63
555.19	2699.35
555.55	2699.98
555.90	2700.33
556.26	2701.04
556.61	2700.97
556.97	2699.83
557.32	2699.22
557.68	2697.42
558.03	2696.05
558.39	2694.60
558.74	2694.40
559.10	2693.16
559.45	2691.04
559.81	2689.69
560.16	2687.11
560.52	2684.51
560.87	2681.71
561.23	2677.75
561.58	2675.30
561.94	2672.30
562.29	2668.71
562.64	2666.09
563.00	2663.09
563.35	2660.47
563.71	2658.27
564.06	2656.06
564.42	2654.43
564.77	2651.87
565.12	2650.16
565.48	2647.11
565.83	2643.86
566.19	2640.44
566.54	2635.90
566.89	2631.81
567.25	2627.88
567.60	2624.34
567.96	2620.35
568.31	2616.66
568.66	2612.85
569.02	2608.50
569.37	2603.18
569.72	2599.09
570.08	2593.96
570.43	2588.55
570.78	2582.94
571.14	2576.82
571.49	2570.37
571.84	2564.21
572.20	2557.36
572.55	2550.80
572.90	2543.90
573.26	2536.99
573.61	2529.81
573.96	2523.59
574.31	2515.99
574.67	2507.86
575.02	2499.13
575.37	2490.73
575.72	2482.05
576.08	2474.72
576.43	2465.82
576.78	2458.21
577.13	2450.70
577.49	2442.63
577.84	2435.02
578.19	2427.26
578.54	2419.80
578.90	2412.74
579.25	2404.03
579.60	2395.47
579.95	2386.15
580.30	2378.29
580.66	2370.52
581.01	2361.75
581.36	2352.59
581.71	2344.59
582.06	2336.52
582.42	2328.75
582.77	2319.94
583.12	2311.00
583.47	2302.22
583.82	2293.97
584.17	2284.86
584.53	2275.67
584.88	2266.84
585.23	2257.74
585.58	2248.64
585.93	2239.10
586.28	2230.10
586.63	2221.68
586.98	2213.27
587.34	2205.26
587.69	2196.25
588.04	2187.26
588.39	2179.18
588.74	2170.37
589.09	2161.76
589.44	2152.17
589.79	2143.52
590.14	2135.82
590.49	2127.67
590.84	2118.91
591.19	2110.86
591.54	2102.69
591.89	2092.71
592.25	2083.73
592.60	2074.81
592.95	2065.74
593.30	2056.48
593.65	2046.64
594.00	2036.75
594.35	2028.90
594.70	2020.08
595.05	2011.37
595.40	2002.93
595.75	1993.59
596.10	1985.67
596.45	1977.26
596.80	1969.85
597.15	1961.84
597.50	1952.76
597.85	1944.81
598.19	1936.20
598.54	1927.63
598.89	1919.47
599.24	1912.85
599.59	1905.67
599.94	1898.49
600.29	1891.00
600.64	1883.38
600.99	1875.58
601.34	1868.85
601.69	1859.88
602.04	1851.59
602.39	1843.58
602.74	1835.73
603.08	1828.87
603.43	1821.59
603.78	1813.72
604.13	1805.54
604.48	1797.78
604.83	1791.17
605.18	1784.07
605.53	1776.82
605.87	1769.70
606.22	1763.04
606.57	1755.29
606.92	1747.40
607.27	1739.64
607.62	1732.30
607.96	1725.54
608.31	1719.22
608.66	1711.63
609.01	1704.50
609.36	1697.00
609.70	1689.38
610.05	1681.80
610.40	1673.75
610.75	1665.51
611.10	1658.04
611.44	1649.33
611.79	1640.46
612.14	1631.08
612.49	1621.54
612.83	1613.14
613.18	1603.48
613.53	1594.02
613.88	1584.45
614.22	1575.68
614.57	1566.40
614.92	1557.25
615.27	1548.31
615.61	1538.52
615.96	1529.79
616.31	1521.19
616.65	1513.36
617.00	1505.58
617.35	1497.09
617.70	1488.55
618.04	1479.41
618.39	1470.13
618.74	1461.90
619.08	1453.58
619.43	1445.80
619.78	1438.20
620.12	1429.98
620.47	1422.30
620.82	1413.84
621.16	1405.93
621.51	1397.55
621.85	1389.62
622.20	1381.09
622.55	1372.65
622.89	1364.69
623.24	1356.58
623.59	1348.22
623.93	1339.87
624.28	1331.19
624.62	1323.07
624.97	1315.05
625.32	1307.64
625.66	1300.62
626.01	1293.39
626.35	1286.12
626.70	1278.36
627.04	1270.93
627.39	1263.36
627.73	1255.92
628.08	1249.35
628.43	1242.17
628.77	1235.06
629.12	1227.79
629.46	1221.10
629.81	1213.95
630.15	1206.87
630.50	1199.69
630.84	1192.39
631.19	1185.26
631.53	1178.75
631.88	1171.49
632.22	1163.89
632.57	1157.06
632.91	1149.54
633.26	1142.07
633.60	1135.10
633.95	1128.50
634.29	1121.41
634.64	1114.94
634.98	1108.34
635.32	1101.06
635.67	1094.40
636.01	1087.90
636.36	1081.21
636.70	1074.76
637.05	1068.40
637.39	1062.30
637.73	1056.12
638.08	1050.56
638.42	1044.88
638.77	1038.45
639.11	1032.21
639.45	1026.61
639.80	1020.01
640.14	1013.62
640.49	1007.75
640.83	1001.73
641.17	995.51
641.52	989.42
641.86	982.97
642.20	976.87
642.55	970.52
642.89	964.16
643.23	957.66
643.58	951.99
643.92	945.60
644.26	939.41
644.61	933.33
644.95	927.12
645.29	920.85
645.64	914.22
645.98	908.13
646.32	902.30
646.66	896.13
647.01	890.36
647.35	884.70
647.69	878.44
648.04	872.44
648.38	866.37
648.72	860.49
649.06	854.47
649.41	848.39
649.75	842.72
650.09	837.20
650.43	831.47
650.78	825.18
651.12	819.39
651.46	813.60
651.80	807.69
652.14	802.01
652.49	796.12
652.83	790.50
653.17	784.53
653.51	778.76
653.85	773.18
654.20	767.54
654.54	761.90
654.88	756.36
655.22	750.66
655.56	744.97
655.90	739.02
656.25	733.51
656.59	727.99
656.93	722.90
657.27	717.86
657.61	712.57
657.95	707.62
658.29	702.55
658.64	697.57
658.98	692.60
659.32	687.27
659.66	682.26
660.00	676.94
660.34	671.86
660.68	666.72
661.02	661.55
661.36	656.79
661.70	651.81
662.05	647.23
662.39	642.66
662.73	638.30
663.07	634.29
663.41	630.05
663.75	625.78
664.09	621.03
664.43	616.19
664.77	611.76
665.11	607.28
665.45	602.88
665.79	598.36
666.13	594.00
666.47	589.82
666.81	585.58
667.15	581.69
667.49	577.89
667.83	573.95
668.17	570.22
668.51	566.51
668.85	562.98
669.19	559.36
669.53	555.64
669.87	551.69
670.21	547.80
670.55	543.80
670.89	540.25
671.23	536.94
671.57	533.59
671.91	530.03
672.25	526.48
672.58	523.18
672.92	519.88
673.26	516.69
673.60	513.53
673.94	510.41
674.28	507.15
674.62	503.95
674.96	500.95
675.30	497.94
675.64	494.69
675.97	491.46
676.31	488.46
676.65	485.54
676.99	482.88
677.33	480.03
677.67	477.25
678.01	474.23
678.34	471.28
678.68	468.43
679.02	465.67
679.36	463.00
679.70	460.15
680.04	457.37
680.37	454.47
680.71	451.67
681.05	448.95
681.39	446.18
681.73	443.56
682.06	440.98
682.40	438.32
682.74	435.76
683.08	433.28
683.42	430.66
683.75	428.17
684.09	425.54
684.43	423.09
684.77	420.57
685.10	418.15
685.44	415.65
685.78	413.26
686.12	411.04
686.45	408.71
686.79	406.52
687.13	404.49
687.46	402.29
687.80	400.13
688.14	397.83
688.48	395.79
688.81	393.54
689.15	391.41
689.49	389.31
689.82	387.20
690.16	384.92
690.50	382.64
690.83	380.38
691.17	378.30
691.51	376.09
691.84	374.07
692.18	372.05
692.52	370.19
692.85	368.35
693.19	366.43
693.52	364.53
693.86	362.47
694.20	360.55
694.53	358.79
694.87	356.80
695.21	354.99
695.54	353.15
695.88	351.40
696.21	349.54
696.55	347.83
696.88	346.17
697.22	344.47
697.56	342.98
697.89	341.37
698.23	339.72
698.56	338.22
698.90	336.73
699.23	335.20
699.57	333.61
699.90	331.95
700.24	330.37
700.58	328.84
700.91	327.43
701.25	325.99
701.58	324.51
701.92	323.21
702.25	321.87
702.59	320.54
702.92	319.25
703.26	317.94
703.59	316.56
703.93	315.42
704.26	314.22
704.60	312.89
704.93	311.68
705.26	310.44
705.60	309.16
705.93	307.94
706.27	306.72
706.60	305.57
706.94	304.49
707.27	303.38
707.61	302.28
707.94	301.22
708.27	299.92
708.61	298.80
708.94	297.65
709.28	296.50
709.61	295.29
709.94	294.23
710.28	293.12
710.61	292.17
710.95	290.95
711.28	290.10
711.61	289.16
711.95	288.21
712.28	287.29
712.61	286.34
712.95	285.42
713.28	284.61
713.61	283.66
713.95	282.71
714.28	281.73
714.61	280.81
714.95	279.93
715.28	279.08
715.61	278.11
715.95	277.23
716.28	276.39
716.61	275.55
716.95	274.73
717.28	273.89
717.61	273.04
717.94	272.34
718.28	271.48
718.61	270.70
718.94	269.97
719.27	269.25
719.61	268.53
719.94	267.78
720.27	266.97
720.60	266.26
720.94	265.63
721.27	265.08
721.60	264.49
721.93	263.83
722.27	263.31
722.60	262.80
722.93	262.28
723.26	261.74
723.59	261.24
723.93	260.65
724.26	260.22
724.59	259.75
724.92	259.11
725.25	258.56
725.59	258.05
725.92	257.52
726.25	257.06
726.58	256.56
726.91	256.09
727.24	255.60
727.57	255.14
727.91	254.68
728.24	254.16
728.57	253.64
728.90	253.15
729.23	252.69
729.56	252.31
729.89	251.77
730.22	251.32
730.55	250.90
730.89	250.44
731.22	249.90
731.55	249.41
731.88	248.96
732.21	248.54
732.54	248.04
732.87	247.64
733.20	247.15
733.53	246.68
733.86	246.32
734.19	245.80
734.52	245.43
734.85	245.06
735.18	244.64
735.51	244.26
735.84	243.79
736.17	243.42
736.50	242.91
736.83	242.74
737.16	242.35
737.49	241.97
737.82	241.49
738.15	241.16
738.48	240.73
738.81	240.45
739.14	239.99
739.47	239.64
739.80	239.20
740.13	238.87
740.46	238.61
740.79	238.18
741.12	237.89
741.45	237.60
741.78	237.21
742.11	236.87
742.44	236.49
742.77	236.30
743.10	235.96
743.43	235.72
743.75	235.19
744.08	235.13
744.41	234.85
744.74	234.63
745.07	234.38
745.40	234.22
745.73	233.98
746.06	233.77
746.39	233.60
746.71	233.35
747.04	233.15
747.37	232.87
747.70	232.61
748.03	232.37
748.36	232.10
748.68	231.81
749.01	231.60
749.34	231.41
749.67	231.10
750.00	230.85
750.33	230.66
750.65	230.49
750.98	230.02
751.31	229.78
751.64	229.60
751.97	229.37
752.29	229.01
752.62	228.68
752.95	228.43
753.28	228.17
753.60	227.98
753.93	227.77
754.26	227.50
754.59	227.24
754.91	227.01
755.24	226.77
755.57	226.55
755.90	226.36
756.22	226.15
756.55	225.95
756.88	225.74
757.20	225.38
757.53	225.14
757.86	224.93
758.19	224.67
758.51	224.42
758.84	224.24
759.17	224.10
759.49	223.94
759.82	223.86
760.15	223.67
760.47	223.49
760.80	223.19
761.13	223.06
761.45	222.99
761.78	222.84
762.11	222.65
762.43	222.48
762.76	222.20
763.08	222.03
763.41	221.98
763.74	221.83
764.06	221.72
764.39	221.59
764.71	221.49
765.04	221.45
765.37	221.36
765.69	221.27
766.02	221.16
766.34	221.04
766.67	220.78
767.00	220.73
767.32	220.70
767.65	220.71
767.97	220.57
768.30	220.47
768.62	220.37
768.95	220.28
769.27	220.19
769.60	220.16
769.92	220.11
770.25	219.94
770.57	219.86
770.90	219.73
771.22	219.67
771.55	219.52
771.87	219.37
772.20	219.29
772.52	219.27
772.85	219.39
773.17	219.26
773.50	219.22
773.82	219.10
774.15	218.91
774.47	218.79
774.80	218.66
775.12	218.61
775.45	218.50
775.77	218.45
776.09	218.39
776.42	218.31
776.74	218.23
777.07	218.15
777.39	218.09
777.72	218.04
778.04	218.01
778.36	218.02
778.69	217.99
779.01	217.93
779.33	217.71
779.66	217.43
779.98	217.40
780.31	217.32
780.63	217.33
780.95	217.32
781.28	217.24
781.60	217.27
781.92	217.12
782.25	217.05
782.57	216.95
782.89	216.87
783.22	216.86
783.54	216.77
783.86	216.79
784.19	216.66
784.51	216.69
784.83	216.63
785.16	216.53
785.48	216.46
785.80	216.40
786.12	216.35
786.45	216.39
786.77	216.31
787.09	216.34
787.42	216.22
787.74	216.12
788.06	216.06
788.38	215.88
788.71	215.83
789.03	215.80
789.35	215.83
789.67	215.75
789.99	215.69
790.32	215.63
790.64	215.54
790.96	215.67
791.28	215.48
791.61	215.36
791.93	215.27
792.25	215.21
792.57	215.34
792.89	215.25
793.21	215.12
793.54	215.12
793.86	214.94
794.18	214.84
794.50	214.82
794.82	214.77
795.14	214.77
795.47	214.76
795.79	214.73
796.11	214.59
796.43	214.55
796.75	214.48
797.07	214.37
797.39	214.31
797.71	214.17
798.04	214.19
798.36	214.23
798.68	214.30
799.00	214.26
799.32	214.08
799.64	214.09
799.96	214.04
800.28	214.09
800.60	214.12
800.92	214.15
801.24	214.02
801.56	214.00
801.89	214.06
802.21	214.07
802.53	214.09
802.85	214.08
803.17	214.17
803.49	214.15
803.81	214.18
804.13	214.19
804.45	214.10
804.77	214.05
805.09	213.96
805.41	213.84
805.73	213.80
806.05	213.76
806.37	213.70
806.69	213.75
807.01	213.65
807.33	213.61
807.65	213.50
807.97	213.67
808.28	213.64
808.60	213.56
808.92	213.48
809.24	213.45
809.56	213.40
809.88	213.26
810.20	213.19
810.52	213.21
810.84	213.11
811.16	213.10
811.48	213.14
811.80	213.20
812.12	213.21
812.43	213.24
812.75	213.26
813.07	213.29
813.39	213.25
813.71	213.23
814.03	213.22
814.35	213.23
814.67	213.06
814.98	212.98
815.30	212.97
815.62	212.94
815.94	212.83
816.26	212.83
816.58	212.80
816.89	212.84
817.21	212.79
817.53	212.82
817.85	212.76
818.17	212.70
818.48	212.63
818.80	212.64
819.12	212.63
819.44	212.54
819.76	212.51
820.07	212.47
820.39	212.41
820.71	212.44
821.03	212.46
821.34	212.46
821.66	212.49
821.98	212.51
822.30	212.57
822.61	212.66
822.93	212.65
823.25	212.68
823.57	212.65
823.88	212.68
824.20	212.66
824.52	212.70
824.83	212.66
825.15	212.58
825.47	212.55
825.79	212.51
826.10	212.54
826.42	212.52
826.74	212.55
827.05	212.55
827.37	212.54
827.69	212.49
828.00	212.47
828.32	212.51
828.64	212.43
828.95	212.42
829.27	212.37
829.58	212.39
829.90	212.33
830.22	212.33
830.53	212.20
830.85	212.18
831.17	212.14
831.48	212.11
831.80	212.16
832.11	212.18
832.43	212.14
832.75	212.10
833.06	212.15
833.38	212.13
833.69	212.11
834.01	212.14
834.32	212.11
834.64	212.10
834.96	212.08
835.27	212.15
835.59	212.09
835.90	212.10
836.22	212.04
836.53	212.04
836.85	211.99
837.16	212.25
837.48	212.26
837.79	212.32
838.11	212.38
838.42	212.33
838.74	212.28
839.05	212.25
839.37	212.22
839.68	212.09
840.00	212.02
840.31	211.95
840.63	211.90
840.94	211.88
841.26	211.91
841.57	211.87
841.88	211.82
842.20	211.75
842.51	211.71
842.83	211.75
843.14	211.93
843.46	211.98
843.77	211.79
844.08	211.76
844.40	211.69
844.71	211.68
845.03	211.67
845.34	211.68
845.65	211.69
845.97	211.65
846.28	211.64
846.60	211.68
846.91	211.79
847.22	211.80
847.54	211.81
847.85	211.75
848.16	211.73
848.48	211.71
848.79	211.81
849.10	211.77
849.42	211.83
849.73	211.69
850.04	211.63
850.36	211.62
850.67	211.70
850.98	211.72
851.30	211.71
851.61	211.70
851.92	211.71
852.23	211.75
852.55	211.81
852.86	211.90
853.17	211.90
853.49	211.88
853.80	211.84
854.11	211.82
854.42	211.82
854.74	211.83
855.05	211.85
855.36	211.81
855.67	211.85
855.99	211.85
856.30	212.00
856.61	212.02
856.92	211.99
857.23	211.90
857.55	211.84
857.86	211.79
858.17	211.84
858.48	211.78
858.79	211.84
859.11	211.78
859.42	211.74
859.73	211.72
860.04	211.75
860.35	211.80
860.66	211.80
860.98	211.87
861.29	211.88
861.60	211.92
861.91	211.90
862.22	211.84
862.53	211.76
862.84	211.56
863.16	211.57
863.47	211.60
863.78	211.64
864.09	211.74
864.40	211.81
864.71	211.86
865.02	211.81
865.33	211.69
865.64	211.70
865.95	211.69
866.27	211.78
866.58	211.73
866.89	211.69
867.20	211.71
867.51	211.69
867.82	211.69
868.13	211.67
868.44	211.61
868.75	211.67
869.06	211.72
869.37	211.75
869.68	211.66
869.99	211.64
870.30	211.62
870.61	211.57
870.92	211.51
871.23	211.37
871.54	211.52
871.85	211.59
872.16	211.62
872.47	211.66
872.78	211.59
873.09	211.55
873.40	211.55
873.71	211.45
874.02	211.37
874.33	211.37
874.64	211.35
874.95	211.40
875.26	211.32
875.56	211.30
875.87	211.35
876.18	211.37
876.49	211.58
876.80	211.57
877.11	211.58
877.42	211.57
877.73	211.62
878.04	211.55
878.35	211.55
878.66	211.55
878.96	211.51
879.27	211.47
879.58	211.49
879.89	211.45
880.20	211.62
880.51	211.63
880.82	211.66
881.12	211.67
881.43	211.64
881.74	211.66
882.05	211.62
882.36	211.52
882.67	211.56
882.97	211.33
883.28	211.32
883.59	211.34
883.90	211.39
884.21	211.49
884.51	211.51
884.82	211.45
885.13	211.47
885.44	211.45
885.74	211.48
886.05	211.47
886.36	211.50
886.67	211.46
886.98	211.61
887.28	211.59
887.59	211.53
887.90	211.48
888.20	211.44
888.51	211.54
888.82	211.54
889.13	211.56
889.43	211.64
889.74	211.63
890.05	211.59
890.35	211.51
890.66	211.44
890.97	211.39
891.28	211.39
891.58	211.35
891.89	211.35
892.20	211.31
892.50	211.37
892.81	211.33
893.12	211.29
893.42	211.18
893.73	211.19
894.04	211.19
894.34	211.23
894.65	211.25
894.95	211.13
895.26	211.10
895.57	211.12
895.87	211.08
896.18	211.07
896.48	211.04
896.79	211.08
897.10	211.11
897.40	211.07
897.71	211.06
898.01	211.09
898.32	211.15
898.63	211.12
898.93	211.04
899.24	211.09
899.54	211.13
899.85	211.10
900.15	211.08
900.46	211.15
900.76	211.18
901.07	211.15
901.38	211.23
901.68	211.33
901.99	211.22
902.29	211.21
902.60	211.24
902.90	211.24
903.21	211.21
903.51	211.17
903.82	211.28
904.12	211.34
904.43	211.33
904.73	211.25
905.03	211.29
905.34	211.45
905.64	211.44
905.95	211.40
906.25	211.39
906.56	211.43
906.86	211.46
907.17	211.41
907.47	211.52
907.77	211.53
908.08	211.45
908.38	211.53
908.69	211.43
908.99	211.43
909.30	211.44
909.60	211.48
909.90	211.46
910.21	211.43
910.51	211.41
910.81	211.38
911.12	211.42
911.42	211.42
911.73	211.23
912.03	211.22
912.33	211.21
912.64	211.22
912.94	211.21
913.24	211.10
913.55	211.14
913.85	211.00
914.15	210.95
914.46	211.01
914.76	210.99
915.06	211.01
915.37	210.98
915.67	210.93
915.97	210.91
916.27	210.89
916.58	210.91
916.88	210.81
917.18	210.79
917.49	210.90
917.79	210.96
918.09	211.03
918.39	211.07
918.70	211.08
919.00	211.08
919.30	211.10
919.60	211.09
919.91	211.08
920.21	211.20
920.51	211.10
920.81	211.00
921.12	211.03
921.42	211.08
921.72	211.07
922.02	211.12
922.32	211.20
922.63	211.26
922.93	211.27
923.23	211.35
923.53	211.35
923.83	211.17
924.13	211.09
924.44	211.05
924.74	211.04
925.04	211.03
925.34	211.05
925.64	210.99
925.94	210.98
926.24	211.05
926.55	210.97
926.85	211.09
927.15	211.19
927.45	211.14
927.75	211.04
928.05	211.09
928.35	211.08
928.65	211.10
928.95	211.05
929.26	211.05
929.56	211.08
929.86	211.14
930.16	211.21
930.46	211.24
930.76	211.23
931.06	211.16
931.36	211.22
931.66	211.23
931.96	211.24
932.26	211.30
932.56	211.17
932.86	211.16
933.16	211.09
933.46	211.01
933.76	210.99
934.06	211.10
934.36	211.15
934.66	211.15
934.96	211.04
935.26	211.04
935.56	211.02
935.86	210.94
936.16	210.88
936.46	210.89
936.76	210.83
937.06	210.87
937.36	210.87
937.66	210.77
937.96	210.76
938.26	210.66
938.56	210.64
938.86	210.71
939.16	210.81
939.46	210.89
939.76	210.87
940.06	210.84
940.35	210.85
940.65	210.75
940.95	210.79
941.25	210.77
941.55	210.83
941.85	210.74
942.15	210.81
942.45	210.85
942.75	210.81
943.04	210.80
943.34	210.79
943.64	210.85
943.94	210.90
944.24	210.89
944.54	211.01
944.84	211.01
945.13	210.94
945.43	210.85
945.73	210.82
946.03	210.85
946.33	210.84
946.62	210.75
946.92	210.79
947.22	210.76
947.52	210.81
947.82	210.78
948.11	210.85
948.41	210.79
948.71	210.79
949.01	210.80
949.31	210.83
949.60	210.75
949.90	210.65
950.20	210.67
950.50	210.66
950.79	210.65
951.09	210.65
951.39	210.66
951.69	210.72
951.98	210.86
952.28	210.87
952.58	210.95
952.87	211.01
953.17	210.96
953.47	210.96
953.76	210.91
954.06	210.89
954.36	210.86
954.66	210.86
954.95	210.90
955.25	210.94
955.55	210.94
955.84	210.95
956.14	211.05
956.44	211.01
956.73	210.98
957.03	210.95
957.32	211.02
957.62	211.06
957.92	211.00
958.21	210.88
958.51	211.13
958.81	211.15
959.10	211.14
959.40	211.20
959.69	211.20
959.99	211.27
960.29	211.27
960.58	211.29
960.88	211.35
961.17	211.33
961.47	211.32
961.76	211.32
962.06	211.36
962.36	211.32
962.65	211.38
962.95	211.37
963.24	211.38
963.54	211.34
963.83	211.32
964.13	211.37
964.42	211.32
964.72	211.07
965.01	211.11
965.31	211.12
965.60	211.05
965.90	211.23
966.19	211.16
966.49	211.19
966.78	211.15
967.08	211.09
967.37	211.08
967.67	211.09
967.96	211.10
968.26	211.11
968.55	211.11
968.85	211.12
969.14	211.15
969.43	211.08
969.73	211.04
970.02	210.99
970.32	210.93
970.61	210.97
970.91	210.92
971.20	210.78
971.49	210.80
971.79	210.89
972.08	210.73
972.38	210.73
972.67	210.62
972.96	210.69
973.26	210.68
973.55	210.67
973.85	210.58
974.14	210.60
974.43	210.59
974.73	210.59
975.02	210.52
975.31	210.58
975.61	210.68
975.90	210.69
976.19	210.70
976.49	210.70
976.78	210.68
977.07	210.71
977.37	210.79
977.66	210.75
977.95	210.73
978.24	210.77
978.54	210.79
978.83	210.81
979.12	210.81
979.42	210.85
979.71	210.87
980.00	210.86
980.29	210.89
980.59	210.94
980.88	211.00
981.17	210.98
981.46	210.93
981.76	210.88
982.05	210.95
982.34	210.94
982.63	210.98
982.93	210.99
983.22	211.06
983.51	211.09
983.80	211.11
984.09	211.15
984.39	211.05
984.68	211.09
984.97	211.13
985.26	211.13
985.55	211.10
985.85	211.05
986.14	211.16
986.43	211.14
986.72	211.10
987.01	211.01
987.30	211.06
987.59	211.12
987.89	211.14
988.18	211.03
988.47	211.12
988.76	211.07
989.05	211.08
989.34	211.11
989.63	211.15
989.92	211.17
990.22	211.16
990.51	211.21
990.80	211.19
991.09	211.21
991.38	211.20
991.67	211.23
991.96	211.30
992.25	211.27
992.54	211.18
992.83	211.15
993.12	211.12
993.41	211.10
993.70	211.11
993.99	211.15
994.28	211.24
994.58	211.20
994.87	211.21
995.16	211.19
995.45	211.08
995.74	211.03
996.03	210.99
996.32	210.97
996.61	211.00
996.90	211.01
997.19	211.07
997.48	211.12
997.77	211.01
998.06	210.90
998.34	210.90
998.63	211.00
998.92	211.10
999.21	211.19
999.50	211.19
999.79	211.17
1000.08	211.12
1000.37	211.14
1000.66	211.15
1000.95	211.16
1001.24	211.15
1001.53	211.25
1001.82	211.19
1002.11	211.19
1002.40	211.17
1002.68	211.23
1002.97	211.38
1003.26	211.33
1003.55	211.22
1003.84	211.33
1004.13	211.45
1004.42	211.48
1004.71	211.51
1004.99	211.39
1005.28	211.40
1005.57	211.48
1005.86	211.37
1006.15	211.32
1006.44	211.23
1006.72	211.30
1007.01	211.30
1007.30	211.35
1007.59	211.24
1007.88	211.30
1008.17	211.33
1008.45	211.30
1008.74	211.17
1009.03	211.09
1009.32	211.04
1009.60	211.08
1009.89	211.05
1010.18	210.88
1010.47	210.79
1010.76	210.79
1011.04	210.84
1011.33	210.83
1011.62	210.82
1011.91	210.84
1012.19	210.85
1012.48	210.86
1012.77	210.84
1013.05	210.90
1013.34	210.84
1013.63	210.86
1013.92	210.80
1014.20	210.74
1014.49	210.76
1014.78	210.83
1015.06	210.69
1015.35	210.71
1015.64	210.74
1015.92	210.75
1016.21	210.86
1016.50	210.83
1016.78	210.74
1017.07	210.75
1017.36	210.70
1017.64	210.58
1017.93	210.58
1018.22	210.55
1018.50	210.59
1018.79	210.48
1019.08	210.43
1019.36	210.48
1019.65	210.45
1019.93	210.55
1020.22	210.61
1020.51	210.70
1020.79	210.71
1021.08	210.00
1021.36	210.60
1021.65	209.85
1021.94	210.45
1022.22	211.10
1022.51	210.00
1022.79	212.15
1023.08	211.40
1023.36	212.75
1023.65	211.30
>>>>>End Processed Spectral Data<<<<<
