SpectraSuite Data File
++++++++++++++++++++++++++++++++++++
Date: Mon Feb 25 17:29:40 EST 2013
User: group
Dark Spectrum Present: No
Reference Spectrum Present: No
Number of Sampled Component Spectra: 1
Spectrometers: USB2E7196
Integration Time (usec): 52000 (USB2E7196)
Spectra Averaged: 20 (USB2E7196)
Boxcar Smoothing: 10 (USB2E7196)
Correct for Electrical Dark: No (USB2E7196)
Strobe/Lamp Enabled: No (USB2E7196)
Correct for Detector Non-linearity: No (USB2E7196)
Correct for Stray Light: No (USB2E7196)
Number of Pixels in Processed Spectrum: 2048
>>>>>Begin Processed Spectral Data<<<<<
339.09	0.00
339.48	198.30
339.86	199.90
340.24	201.25
340.63	202.90
341.01	207.20
341.39	205.20
341.78	207.30
342.16	208.35
342.54	208.45
342.93	198.34
343.31	208.40
343.69	208.96
344.07	209.46
344.46	209.94
344.84	210.37
345.22	210.55
345.60	210.87
345.99	211.09
346.37	211.27
346.75	211.46
347.13	211.57
347.52	211.58
347.90	211.65
348.28	211.71
348.66	211.73
349.05	211.71
349.43	211.77
349.81	211.77
350.19	211.79
350.57	211.87
350.96	211.93
351.34	212.03
351.72	212.16
352.10	212.29
352.48	212.38
352.87	212.44
353.25	212.51
353.63	212.60
354.01	212.70
354.39	212.76
354.77	212.77
355.15	212.85
355.54	212.87
355.92	212.91
356.30	213.01
356.68	213.19
357.06	213.22
357.44	213.24
357.82	213.28
358.20	213.37
358.58	213.45
358.97	213.53
359.35	213.62
359.73	213.76
360.11	213.74
360.49	213.76
360.87	213.71
361.25	213.80
361.63	213.82
362.01	213.82
362.39	213.85
362.77	213.92
363.15	213.88
363.53	213.96
363.91	213.98
364.29	213.96
364.67	213.80
365.05	213.90
365.43	213.90
365.81	213.95
366.19	214.04
366.57	214.01
366.95	213.98
367.33	213.87
367.71	213.79
368.09	213.93
368.47	213.90
368.85	213.93
369.23	213.95
369.61	213.87
369.99	213.85
370.37	213.79
370.75	213.80
371.13	213.72
371.51	213.61
371.89	213.51
372.27	213.56
372.65	213.55
373.03	213.46
373.41	213.44
373.78	213.39
374.16	213.24
374.54	213.19
374.92	213.17
375.30	213.13
375.68	213.03
376.06	212.95
376.44	212.89
376.82	212.85
377.19	212.73
377.57	212.66
377.95	212.58
378.33	212.53
378.71	212.36
379.09	212.36
379.47	212.37
379.84	212.32
380.22	212.19
380.60	212.07
380.98	212.04
381.36	211.96
381.73	211.88
382.11	211.80
382.49	211.73
382.87	211.63
383.25	211.60
383.62	211.76
384.00	211.63
384.38	211.62
384.76	211.61
385.13	211.69
385.51	211.61
385.89	211.55
386.27	211.57
386.64	211.54
387.02	211.54
387.40	211.49
387.78	211.52
388.15	211.59
388.53	211.52
388.91	211.46
389.29	211.35
389.66	211.38
390.04	211.40
390.42	211.39
390.79	211.36
391.17	211.35
391.55	211.15
391.92	211.14
392.30	211.05
392.68	210.99
393.05	210.93
393.43	211.00
393.81	211.02
394.18	210.97
394.56	211.03
394.94	211.06
395.31	211.03
395.69	211.01
396.06	210.96
396.44	211.08
396.82	211.05
397.19	211.22
397.57	211.22
397.95	211.23
398.32	211.25
398.70	211.29
399.07	211.34
399.45	211.33
399.82	211.40
400.20	211.50
400.58	211.61
400.95	211.55
401.33	211.55
401.70	211.70
402.08	211.80
402.45	211.84
402.83	211.88
403.20	211.92
403.58	212.02
403.95	212.10
404.33	212.17
404.71	212.28
405.08	212.40
405.46	212.49
405.83	212.59
406.21	212.77
406.58	212.86
406.96	213.02
407.33	213.16
407.70	213.30
408.08	213.61
408.45	213.76
408.83	213.95
409.20	214.21
409.58	214.30
409.95	214.49
410.33	214.74
410.70	214.96
411.08	215.25
411.45	215.57
411.82	215.87
412.20	216.28
412.57	216.79
412.95	217.05
413.32	217.57
413.69	218.01
414.07	218.46
414.44	219.01
414.82	219.47
415.19	220.17
415.56	220.79
415.94	221.37
416.31	222.18
416.68	223.03
417.06	223.85
417.43	224.80
417.81	225.79
418.18	226.80
418.55	227.94
418.93	229.11
419.30	230.25
419.67	231.47
420.04	232.70
420.42	233.87
420.79	235.55
421.16	236.97
421.54	238.52
421.91	240.05
422.28	241.78
422.66	243.62
423.03	245.35
423.40	247.20
423.77	249.10
424.15	251.06
424.52	253.04
424.89	255.23
425.26	257.35
425.64	259.33
426.01	261.54
426.38	263.87
426.75	266.24
427.13	268.61
427.50	271.23
427.87	273.88
428.24	276.63
428.61	279.03
428.99	281.83
429.36	284.94
429.73	287.98
430.10	290.97
430.47	294.03
430.85	297.29
431.22	300.64
431.59	304.22
431.96	307.55
432.33	311.33
432.70	314.98
433.08	319.22
433.45	323.29
433.82	327.28
434.19	331.58
434.56	335.91
434.93	340.10
435.30	344.07
435.68	348.59
436.05	353.15
436.42	357.63
436.79	361.78
437.16	366.18
437.53	370.88
437.90	375.43
438.27	379.96
438.64	384.58
439.01	388.82
439.38	392.64
439.75	396.35
440.13	400.60
440.50	404.63
440.87	407.91
441.24	411.11
441.61	414.77
441.98	417.57
442.35	420.69
442.72	423.95
443.09	427.13
443.46	428.90
443.83	430.10
444.20	431.17
444.57	432.79
444.94	433.39
445.31	434.15
445.68	434.80
446.05	434.95
446.42	434.37
446.79	433.93
447.16	433.28
447.53	432.81
447.90	430.97
448.27	429.22
448.64	426.82
449.01	425.14
449.37	422.01
449.74	418.99
450.11	415.54
450.48	411.64
450.85	407.71
451.22	404.44
451.59	401.21
451.96	398.17
452.33	394.04
452.70	390.51
453.07	386.09
453.43	381.70
453.80	377.50
454.17	373.38
454.54	369.38
454.91	365.16
455.28	361.15
455.65	357.42
456.02	353.68
456.38	350.41
456.75	346.47
457.12	343.22
457.49	340.05
457.86	336.75
458.23	334.03
458.59	330.99
458.96	328.03
459.33	325.40
459.70	322.70
460.07	320.54
460.43	317.92
460.80	315.57
461.17	313.55
461.54	311.45
461.91	309.51
462.27	307.57
462.64	305.82
463.01	303.83
463.38	302.05
463.74	300.16
464.11	298.57
464.48	297.19
464.85	295.65
465.21	294.40
465.58	293.25
465.95	291.77
466.32	290.69
466.68	289.43
467.05	288.13
467.42	286.99
467.78	285.80
468.15	284.82
468.52	283.97
468.88	282.88
469.25	281.85
469.62	281.04
469.98	280.15
470.35	279.43
470.72	278.76
471.08	277.93
471.45	277.19
471.82	276.59
472.18	275.88
472.55	275.42
472.92	274.87
473.28	274.32
473.65	273.83
474.02	273.31
474.38	273.04
474.75	272.82
475.11	272.48
475.48	272.22
475.85	271.96
476.21	271.83
476.58	271.79
476.94	271.86
477.31	271.82
477.67	271.87
478.04	272.07
478.41	272.24
478.77	272.59
479.14	272.77
479.50	273.03
479.87	273.44
480.23	273.88
480.60	274.28
480.96	274.85
481.33	275.55
481.69	276.24
482.06	276.88
482.42	277.59
482.79	278.44
483.15	279.33
483.52	280.44
483.88	281.47
484.25	282.40
484.61	283.59
484.98	284.79
485.34	286.19
485.71	287.50
486.07	288.92
486.44	290.31
486.80	291.88
487.17	293.42
487.53	295.15
487.90	296.98
488.26	298.84
488.62	300.88
488.99	303.00
489.35	305.12
489.72	307.38
490.08	309.77
490.44	312.27
490.81	314.88
491.17	317.50
491.54	320.49
491.90	323.49
492.26	326.66
492.63	330.07
492.99	333.43
493.36	336.96
493.72	340.85
494.08	344.81
494.45	349.08
494.81	353.60
495.17	358.22
495.54	363.00
495.90	368.07
496.26	373.16
496.63	378.50
496.99	384.19
497.35	390.06
497.72	396.25
498.08	402.51
498.44	409.14
498.80	416.13
499.17	423.20
499.53	430.73
499.89	438.53
500.26	446.43
500.62	454.59
500.98	463.24
501.34	472.00
501.71	481.16
502.07	490.58
502.43	500.17
502.79	509.95
503.16	520.16
503.52	530.63
503.88	541.49
504.24	552.53
504.60	563.90
504.97	575.80
505.33	587.72
505.69	600.48
506.05	613.46
506.41	626.23
506.78	639.49
507.14	652.77
507.50	666.50
507.86	680.60
508.22	695.20
508.59	709.90
508.95	724.98
509.31	740.32
509.67	756.00
510.03	772.06
510.39	788.42
510.75	805.19
511.12	822.08
511.48	839.24
511.84	856.63
512.20	874.15
512.56	891.95
512.92	910.07
513.28	928.00
513.64	945.92
514.00	964.39
514.37	983.09
514.73	1002.35
515.09	1021.47
515.45	1040.56
515.81	1059.90
516.17	1079.32
516.53	1098.83
516.89	1118.45
517.25	1138.17
517.61	1157.82
517.97	1177.41
518.33	1196.71
518.69	1216.39
519.05	1236.22
519.41	1256.39
519.77	1276.78
520.13	1296.44
520.49	1316.44
520.85	1337.07
521.21	1357.48
521.57	1378.11
521.93	1397.85
522.29	1418.09
522.65	1438.14
523.01	1458.22
523.37	1477.98
523.73	1497.77
524.09	1517.54
524.45	1537.60
524.81	1557.01
525.17	1576.84
525.53	1596.48
525.89	1616.43
526.25	1635.85
526.61	1654.65
526.97	1673.33
527.33	1691.66
527.68	1710.59
528.04	1728.97
528.40	1746.30
528.76	1764.03
529.12	1781.51
529.48	1800.56
529.84	1818.06
530.20	1835.27
530.56	1852.75
530.91	1870.32
531.27	1887.79
531.63	1904.61
531.99	1921.19
532.35	1937.75
532.71	1953.62
533.07	1970.32
533.42	1985.64
533.78	2001.68
534.14	2017.28
534.50	2031.73
534.86	2046.79
535.21	2060.52
535.57	2075.22
535.93	2089.53
536.29	2103.58
536.65	2117.41
537.00	2129.46
537.36	2141.96
537.72	2154.35
538.08	2166.50
538.44	2178.87
538.79	2191.15
539.15	2203.26
539.51	2214.83
539.87	2227.02
540.22	2238.57
540.58	2250.41
540.94	2262.07
541.29	2271.93
541.65	2281.46
542.01	2291.85
542.37	2301.00
542.72	2310.78
543.08	2318.92
543.44	2328.14
543.79	2336.03
544.15	2343.90
544.51	2352.48
544.87	2360.80
545.22	2367.86
545.58	2373.99
545.94	2378.81
546.29	2383.29
546.65	2387.47
547.01	2391.51
547.36	2394.99
547.72	2398.65
548.07	2400.35
548.43	2401.99
548.79	2404.10
549.14	2406.74
549.50	2409.07
549.86	2411.00
550.21	2413.15
550.57	2415.41
550.92	2416.25
551.28	2417.09
551.64	2417.72
551.99	2418.30
552.35	2418.07
552.70	2418.86
553.06	2420.01
553.41	2421.59
553.77	2423.05
554.13	2423.60
554.48	2423.94
554.84	2424.13
555.19	2423.41
555.55	2422.50
555.90	2422.03
556.26	2421.07
556.61	2419.45
556.97	2417.20
557.32	2416.20
557.68	2413.40
558.03	2411.30
558.39	2409.10
558.74	2408.00
559.10	2406.03
559.45	2403.40
559.81	2401.76
560.16	2398.88
560.52	2395.75
560.87	2391.78
561.23	2387.22
561.58	2384.33
561.94	2380.72
562.29	2376.37
562.64	2373.41
563.00	2370.80
563.35	2368.11
563.71	2365.81
564.06	2363.63
564.42	2361.33
564.77	2357.93
565.12	2355.46
565.48	2351.87
565.83	2348.31
566.19	2344.32
566.54	2339.87
566.89	2335.54
567.25	2331.41
567.60	2327.59
567.96	2323.87
568.31	2320.62
568.66	2316.84
569.02	2312.19
569.37	2307.34
569.72	2303.64
570.08	2298.50
570.43	2293.05
570.78	2287.43
571.14	2281.36
571.49	2274.82
571.84	2269.07
572.20	2262.81
572.55	2257.04
572.90	2250.57
573.26	2243.89
573.61	2237.63
573.96	2231.63
574.31	2224.63
574.67	2217.16
575.02	2209.61
575.37	2202.23
575.72	2193.99
576.08	2187.15
576.43	2179.52
576.78	2172.61
577.13	2165.09
577.49	2157.95
577.84	2151.21
578.19	2144.42
578.54	2138.26
578.90	2132.13
579.25	2124.49
579.60	2116.68
579.95	2108.36
580.30	2101.43
580.66	2094.48
581.01	2086.45
581.36	2078.49
581.71	2071.39
582.06	2063.78
582.42	2056.81
582.77	2048.31
583.12	2041.02
583.47	2033.08
583.82	2025.50
584.17	2017.61
584.53	2009.85
584.88	2001.79
585.23	1993.84
585.58	1985.42
585.93	1976.80
586.28	1968.96
586.63	1961.56
586.98	1954.51
587.34	1947.40
587.69	1939.43
588.04	1931.67
588.39	1924.49
588.74	1916.74
589.09	1909.42
589.44	1901.49
589.79	1894.11
590.14	1887.77
590.49	1880.23
590.84	1872.68
591.19	1866.06
591.54	1858.41
591.89	1850.15
592.25	1842.75
592.60	1834.85
592.95	1827.11
593.30	1819.07
593.65	1810.54
594.00	1802.26
594.35	1795.25
594.70	1787.38
595.05	1780.16
595.40	1772.77
595.75	1764.67
596.10	1757.73
596.45	1750.30
596.80	1743.93
597.15	1736.60
597.50	1729.00
597.85	1721.85
598.19	1714.75
598.54	1707.52
598.89	1701.16
599.24	1695.24
599.59	1688.67
599.94	1682.58
600.29	1676.02
600.64	1669.41
600.99	1662.50
601.34	1656.61
601.69	1648.87
602.04	1642.08
602.39	1635.19
602.74	1628.55
603.08	1622.73
603.43	1616.69
603.78	1609.89
604.13	1602.94
604.48	1596.14
604.83	1590.04
605.18	1584.10
605.53	1577.74
605.87	1571.01
606.22	1564.98
606.57	1558.19
606.92	1551.40
607.27	1544.45
607.62	1538.22
607.96	1532.30
608.31	1527.15
608.66	1519.96
609.01	1513.58
609.36	1507.11
609.70	1500.24
610.05	1493.73
610.40	1486.73
610.75	1479.61
611.10	1472.95
611.44	1465.30
611.79	1457.67
612.14	1449.78
612.49	1441.49
612.83	1433.90
613.18	1425.66
613.53	1417.27
613.88	1409.10
614.22	1401.56
614.57	1393.56
614.92	1385.63
615.27	1377.67
615.61	1369.18
615.96	1361.92
616.31	1354.63
616.65	1347.75
617.00	1341.01
617.35	1333.58
617.70	1326.24
618.04	1318.37
618.39	1310.53
618.74	1303.27
619.08	1296.15
619.43	1289.20
619.78	1282.99
620.12	1276.15
620.47	1269.80
620.82	1262.70
621.16	1255.69
621.51	1248.45
621.85	1241.75
622.20	1234.44
622.55	1227.40
622.89	1220.32
623.24	1213.50
623.59	1206.35
623.93	1199.24
624.28	1191.85
624.62	1184.91
624.97	1177.73
625.32	1171.09
625.66	1164.99
626.01	1158.93
626.35	1152.67
626.70	1146.04
627.04	1139.24
627.39	1132.62
627.73	1126.34
628.08	1120.43
628.43	1114.12
628.77	1108.09
629.12	1101.58
629.46	1095.78
629.81	1089.48
630.15	1083.34
630.50	1076.88
630.84	1070.50
631.19	1064.23
631.53	1058.34
631.88	1051.57
632.22	1045.06
632.57	1038.91
632.91	1032.38
633.26	1025.86
633.60	1019.63
633.95	1013.85
634.29	1007.69
634.64	1002.09
634.98	995.72
635.32	989.60
635.67	984.14
636.01	978.23
636.36	972.41
636.70	966.83
637.05	961.14
637.39	955.80
637.73	950.45
638.08	945.53
638.42	940.42
638.77	934.94
639.11	929.71
639.45	924.91
639.80	919.34
640.14	913.86
640.49	908.55
640.83	903.26
641.17	897.69
641.52	892.44
641.86	886.74
642.20	881.56
642.55	875.92
642.89	870.13
643.23	864.67
643.58	859.58
643.92	853.91
644.26	848.55
644.61	843.09
644.95	837.82
645.29	832.28
645.64	826.55
645.98	821.10
646.32	816.03
646.66	810.43
647.01	805.42
647.35	800.46
647.69	795.03
648.04	789.85
648.38	784.75
648.72	779.53
649.06	774.19
649.41	768.90
649.75	763.84
650.09	758.98
650.43	753.90
650.78	748.44
651.12	743.39
651.46	738.39
651.80	733.54
652.14	728.32
652.49	723.26
652.83	718.34
653.17	713.20
653.51	708.11
653.85	703.31
654.20	698.35
654.54	693.24
654.88	688.60
655.22	683.67
655.56	678.56
655.90	673.50
656.25	668.74
656.59	664.02
656.93	659.46
657.27	654.83
657.61	649.99
657.95	645.51
658.29	641.05
658.64	636.56
658.98	631.99
659.32	627.41
659.66	623.00
660.00	618.37
660.34	613.82
660.68	609.31
661.02	604.88
661.36	600.57
661.70	596.36
662.05	592.25
662.39	588.40
662.73	584.66
663.07	581.03
663.41	577.26
663.75	573.42
664.09	569.40
664.43	565.36
664.77	561.81
665.11	558.12
665.45	554.36
665.79	550.68
666.13	546.88
666.47	543.24
666.81	539.68
667.15	536.20
667.49	532.98
667.83	529.74
668.17	526.42
668.51	523.25
668.85	520.16
669.19	516.97
669.53	513.66
669.87	510.08
670.21	506.73
670.55	503.30
670.89	500.28
671.23	497.35
671.57	494.45
671.91	491.28
672.25	488.21
672.58	485.20
672.92	482.27
673.26	479.52
673.60	476.80
673.94	473.90
674.28	471.11
674.62	468.30
674.96	465.50
675.30	462.81
675.64	460.00
675.97	457.18
676.31	454.50
676.65	451.86
676.99	449.59
677.33	446.97
677.67	444.38
678.01	441.69
678.34	439.08
678.68	436.65
679.02	434.09
679.36	431.68
679.70	429.21
680.04	426.68
680.37	424.10
680.71	421.63
681.05	419.28
681.39	416.90
681.73	414.45
682.06	412.27
682.40	410.05
682.74	407.77
683.08	405.57
683.42	403.34
683.75	401.13
684.09	398.96
684.43	396.95
684.77	394.86
685.10	392.67
685.44	390.51
685.78	388.25
686.12	386.39
686.45	384.38
686.79	382.44
687.13	380.60
687.46	378.66
687.80	376.80
688.14	374.79
688.48	372.92
688.81	371.11
689.15	369.28
689.49	367.32
689.82	365.43
690.16	363.45
690.50	361.47
690.83	359.54
691.17	357.54
691.51	355.61
691.84	353.77
692.18	352.01
692.52	350.37
692.85	348.85
693.19	347.11
693.52	345.41
693.86	343.70
694.20	342.04
694.53	340.41
694.87	338.76
695.21	337.10
695.54	335.42
695.88	333.83
696.21	332.20
696.55	330.74
696.88	329.22
697.22	327.75
697.56	326.45
697.89	325.02
698.23	323.65
698.56	322.25
698.90	321.07
699.23	319.65
699.57	318.30
699.90	316.88
700.24	315.53
700.58	314.25
700.91	313.07
701.25	311.85
701.58	310.65
701.92	309.43
702.25	308.38
702.59	307.29
702.92	306.08
703.26	304.93
703.59	303.83
703.93	302.95
704.26	301.89
704.60	300.78
704.93	299.71
705.26	298.64
705.60	297.70
705.93	296.50
706.27	295.66
706.60	294.63
706.94	293.74
707.27	292.75
707.61	291.75
707.94	290.74
708.27	289.65
708.61	288.65
708.94	287.71
709.28	286.69
709.61	285.73
709.94	284.89
710.28	283.92
710.61	283.05
710.95	281.88
711.28	281.06
711.61	280.15
711.95	279.44
712.28	278.50
712.61	277.55
712.95	276.76
713.28	275.86
713.61	274.93
713.95	274.11
714.28	273.37
714.61	272.51
714.95	271.69
715.28	270.92
715.61	270.07
715.95	269.25
716.28	268.42
716.61	267.70
716.95	266.90
717.28	266.22
717.61	265.48
717.94	264.88
718.28	264.08
718.61	263.36
718.94	262.58
719.27	262.00
719.61	261.40
719.94	260.79
720.27	260.07
720.60	259.55
720.94	258.92
721.27	258.29
721.60	257.81
721.93	257.30
722.27	256.77
722.60	256.32
722.93	255.79
723.26	255.29
723.59	254.76
723.93	254.25
724.26	253.79
724.59	253.23
724.92	252.85
725.25	252.42
725.59	252.02
725.92	251.61
726.25	251.11
726.58	250.69
726.91	250.14
727.24	249.77
727.57	249.35
727.91	248.85
728.24	248.47
728.57	248.02
728.90	247.54
729.23	247.09
729.56	246.73
729.89	246.27
730.22	245.91
730.55	245.51
730.89	245.10
731.22	244.72
731.55	244.39
731.88	243.93
732.21	243.48
732.54	243.07
732.87	242.67
733.20	242.28
733.53	241.91
733.86	241.58
734.19	241.34
734.52	240.99
734.85	240.77
735.18	240.31
735.51	239.99
735.84	239.75
736.17	239.48
736.50	239.05
736.83	238.98
737.16	238.65
737.49	238.37
737.82	238.03
738.15	237.67
738.48	237.37
738.81	237.00
739.14	236.75
739.47	236.48
739.80	236.20
740.13	235.96
740.46	235.61
740.79	235.37
741.12	234.94
741.45	234.59
741.78	234.15
742.11	233.98
742.44	233.68
742.77	233.37
743.10	233.05
743.43	232.81
743.75	232.37
744.08	232.38
744.41	232.06
744.74	231.90
745.07	231.61
745.40	231.36
745.73	231.26
746.06	231.00
746.39	230.68
746.71	230.40
747.04	230.14
747.37	229.92
747.70	229.71
748.03	229.59
748.36	229.44
748.68	229.29
749.01	229.03
749.34	228.80
749.67	228.61
750.00	228.43
750.33	228.31
750.65	228.15
750.98	227.70
751.31	227.59
751.64	227.35
751.97	227.26
752.29	227.07
752.62	226.82
752.95	226.66
753.28	226.54
753.60	226.35
753.93	226.22
754.26	226.04
754.59	225.84
754.91	225.60
755.24	225.43
755.57	225.26
755.90	225.09
756.22	224.92
756.55	224.72
756.88	224.48
757.20	224.20
757.53	223.95
757.86	223.80
758.19	223.57
758.51	223.42
758.84	223.16
759.17	223.02
759.49	222.89
759.82	222.80
760.15	222.59
760.47	222.45
760.80	222.28
761.13	222.12
761.45	221.89
761.78	221.70
762.11	221.53
762.43	221.34
762.76	221.20
763.08	221.09
763.41	220.98
763.74	220.90
764.06	220.80
764.39	220.69
764.71	220.56
765.04	220.42
765.37	220.34
765.69	220.27
766.02	220.09
766.34	219.93
766.67	219.75
767.00	219.75
767.32	219.76
767.65	219.74
767.97	219.69
768.30	219.67
768.62	219.58
768.95	219.52
769.27	219.51
769.60	219.50
769.92	219.41
770.25	219.29
770.57	219.14
770.90	219.03
771.22	218.89
771.55	218.82
771.87	218.76
772.20	218.66
772.52	218.74
772.85	218.95
773.17	218.86
773.50	218.76
773.82	218.62
774.15	218.44
774.47	218.27
774.80	218.14
775.12	218.10
775.45	218.11
775.77	217.96
776.09	217.82
776.42	217.68
776.74	217.63
777.07	217.56
777.39	217.52
777.72	217.54
778.04	217.50
778.36	217.45
778.69	217.38
779.01	217.31
779.33	217.06
779.66	216.67
779.98	216.53
780.31	216.50
780.63	216.55
780.95	216.43
781.28	216.33
781.60	216.25
781.92	216.15
782.25	216.10
782.57	216.09
782.89	216.03
783.22	216.01
783.54	215.90
783.86	215.89
784.19	215.85
784.51	215.76
784.83	215.75
785.16	215.68
785.48	215.72
785.80	215.65
786.12	215.61
786.45	215.61
786.77	215.60
787.09	215.54
787.42	215.41
787.74	215.40
788.06	215.33
788.38	215.35
788.71	215.30
789.03	215.21
789.35	215.19
789.67	215.16
789.99	215.07
790.32	214.99
790.64	214.97
790.96	215.05
791.28	214.99
791.61	214.90
791.93	214.89
792.25	214.73
792.57	214.79
792.89	214.71
793.21	214.75
793.54	214.82
793.86	214.74
794.18	214.76
794.50	214.67
794.82	214.71
795.14	214.63
795.47	214.66
795.79	214.63
796.11	214.58
796.43	214.46
796.75	214.48
797.07	214.54
797.39	214.52
797.71	214.35
798.04	214.31
798.36	214.33
798.68	214.28
799.00	214.32
799.32	214.27
799.64	214.29
799.96	214.24
800.28	214.20
800.60	214.25
800.92	214.16
801.24	214.22
801.56	214.18
801.89	214.21
802.21	214.18
802.53	214.12
802.85	214.10
803.17	214.20
803.49	214.14
803.81	214.08
804.13	214.03
804.45	214.03
804.77	214.01
805.09	213.96
805.41	213.88
805.73	213.81
806.05	213.74
806.37	213.62
806.69	213.47
807.01	213.46
807.33	213.39
807.65	213.35
807.97	213.38
808.28	213.35
808.60	213.26
808.92	213.21
809.24	213.29
809.56	213.22
809.88	213.19
810.20	213.17
810.52	213.11
810.84	213.03
811.16	212.99
811.48	212.92
811.80	212.96
812.12	212.95
812.43	212.91
812.75	212.92
813.07	212.96
813.39	212.99
813.71	212.91
814.03	212.86
814.35	212.79
814.67	212.70
814.98	212.65
815.30	212.60
815.62	212.55
815.94	212.46
816.26	212.49
816.58	212.38
816.89	212.37
817.21	212.38
817.53	212.40
817.85	212.40
818.17	212.47
818.48	212.45
818.80	212.52
819.12	212.51
819.44	212.48
819.76	212.42
820.07	212.45
820.39	212.43
820.71	212.46
821.03	212.44
821.34	212.48
821.66	212.46
821.98	212.52
822.30	212.52
822.61	212.63
822.93	212.65
823.25	212.73
823.57	212.71
823.88	212.78
824.20	212.74
824.52	212.72
824.83	212.66
825.15	212.62
825.47	212.61
825.79	212.61
826.10	212.59
826.42	212.65
826.74	212.64
827.05	212.72
827.37	212.72
827.69	212.77
828.00	212.72
828.32	212.77
828.64	212.69
828.95	212.82
829.27	212.70
829.58	212.70
829.90	212.71
830.22	212.71
830.53	212.59
830.85	212.62
831.17	212.56
831.48	212.55
831.80	212.50
832.11	212.47
832.43	212.47
832.75	212.43
833.06	212.44
833.38	212.41
833.69	212.35
834.01	212.33
834.32	212.36
834.64	212.31
834.96	212.31
835.27	212.39
835.59	212.23
835.90	212.23
836.22	212.14
836.53	212.04
836.85	212.00
837.16	212.20
837.48	212.12
837.79	212.22
838.11	212.24
838.42	212.24
838.74	212.20
839.05	212.18
839.37	212.19
839.68	212.11
840.00	212.05
840.31	211.99
840.63	211.94
840.94	211.81
841.26	211.79
841.57	211.74
841.88	211.73
842.20	211.76
842.51	211.72
842.83	211.79
843.14	211.96
843.46	211.94
843.77	211.83
844.08	211.77
844.40	211.69
844.71	211.63
845.03	211.62
845.34	211.61
845.65	211.54
845.97	211.53
846.28	211.55
846.60	211.59
846.91	211.56
847.22	211.57
847.54	211.61
847.85	211.64
848.16	211.58
848.48	211.51
848.79	211.52
849.10	211.59
849.42	211.52
849.73	211.37
850.04	211.39
850.36	211.30
850.67	211.36
850.98	211.34
851.30	211.28
851.61	211.21
851.92	211.23
852.23	211.25
852.55	211.20
852.86	211.13
853.17	211.15
853.49	211.22
853.80	211.27
854.11	211.31
854.42	211.38
854.74	211.42
855.05	211.38
855.36	211.25
855.67	211.23
855.99	211.18
856.30	211.36
856.61	211.30
856.92	211.34
857.23	211.31
857.55	211.35
857.86	211.44
858.17	211.50
858.48	211.46
858.79	211.47
859.11	211.57
859.42	211.61
859.73	211.58
860.04	211.58
860.35	211.50
860.66	211.44
860.98	211.40
861.29	211.41
861.60	211.44
861.91	211.50
862.22	211.43
862.53	211.38
862.84	211.15
863.16	211.19
863.47	211.12
863.78	211.17
864.09	211.10
864.40	211.09
864.71	211.08
865.02	211.09
865.33	211.08
865.64	211.03
865.95	211.06
866.27	211.19
866.58	211.20
866.89	211.27
867.20	211.24
867.51	211.21
867.82	211.22
868.13	211.32
868.44	211.33
868.75	211.35
869.06	211.45
869.37	211.52
869.68	211.52
869.99	211.57
870.30	211.52
870.61	211.60
870.92	211.54
871.23	211.56
871.54	211.54
871.85	211.59
872.16	211.59
872.47	211.60
872.78	211.50
873.09	211.50
873.40	211.48
873.71	211.56
874.02	211.57
874.33	211.54
874.64	211.38
874.95	211.38
875.26	211.43
875.56	211.43
875.87	211.45
876.18	211.44
876.49	211.52
876.80	211.56
877.11	211.50
877.42	211.54
877.73	211.53
878.04	211.56
878.35	211.59
878.66	211.55
878.96	211.45
879.27	211.46
879.58	211.41
879.89	211.41
880.20	211.40
880.51	211.39
880.82	211.41
881.12	211.49
881.43	211.51
881.74	211.43
882.05	211.39
882.36	211.39
882.67	211.39
882.97	211.30
883.28	211.27
883.59	211.29
883.90	211.32
884.21	211.38
884.51	211.34
884.82	211.28
885.13	211.34
885.44	211.38
885.74	211.35
886.05	211.41
886.36	211.35
886.67	211.26
886.98	211.35
887.28	211.35
887.59	211.34
887.90	211.34
888.20	211.29
888.51	211.38
888.82	211.32
889.13	211.36
889.43	211.47
889.74	211.46
890.05	211.41
890.35	211.42
890.66	211.35
890.97	211.31
891.28	211.35
891.58	211.34
891.89	211.37
892.20	211.41
892.50	211.35
892.81	211.33
893.12	211.33
893.42	211.30
893.73	211.32
894.04	211.35
894.34	211.31
894.65	211.31
894.95	211.26
895.26	211.25
895.57	211.36
895.87	211.24
896.18	211.25
896.48	211.30
896.79	211.26
897.10	211.28
897.40	211.34
897.71	211.32
898.01	211.26
898.32	211.29
898.63	211.21
898.93	211.21
899.24	211.25
899.54	211.30
899.85	211.23
900.15	211.21
900.46	211.15
900.76	211.18
901.07	211.17
901.38	211.21
901.68	211.23
901.99	211.04
902.29	211.01
902.60	211.01
902.90	210.96
903.21	210.98
903.51	210.95
903.82	210.95
904.12	210.93
904.43	211.02
904.73	210.94
905.03	210.96
905.34	211.10
905.64	211.16
905.95	211.16
906.25	211.17
906.56	211.14
906.86	211.11
907.17	211.15
907.47	211.18
907.77	211.11
908.08	211.13
908.38	211.12
908.69	211.14
908.99	211.16
909.30	211.20
909.60	211.21
909.90	211.29
910.21	211.33
910.51	211.30
910.81	211.25
911.12	211.28
911.42	211.26
911.73	211.02
912.03	210.96
912.33	210.95
912.64	210.98
912.94	211.00
913.24	211.03
913.55	210.94
913.85	210.94
914.15	210.97
914.46	210.97
914.76	211.00
915.06	210.99
915.37	210.97
915.67	211.00
915.97	210.97
916.27	210.86
916.58	210.80
916.88	210.79
917.18	210.72
917.49	210.87
917.79	210.96
918.09	211.07
918.39	211.20
918.70	211.22
919.00	211.15
919.30	211.22
919.60	211.20
919.91	211.18
920.21	211.27
920.51	211.16
920.81	211.15
921.12	211.26
921.42	211.37
921.72	211.37
922.02	211.40
922.32	211.44
922.63	211.53
922.93	211.66
923.23	211.70
923.53	211.74
923.83	211.59
924.13	211.55
924.44	211.58
924.74	211.54
925.04	211.56
925.34	211.68
925.64	211.60
925.94	211.58
926.24	211.70
926.55	211.59
926.85	211.68
927.15	211.66
927.45	211.55
927.75	211.46
928.05	211.45
928.35	211.38
928.65	211.36
928.95	211.31
929.26	211.25
929.56	211.30
929.86	211.33
930.16	211.29
930.46	211.28
930.76	211.24
931.06	211.19
931.36	211.18
931.66	211.13
931.96	211.12
932.26	211.14
932.56	211.10
932.86	211.16
933.16	211.19
933.46	211.16
933.76	211.15
934.06	211.16
934.36	211.22
934.66	211.16
934.96	211.16
935.26	211.18
935.56	211.19
935.86	211.08
936.16	211.05
936.46	211.12
936.76	211.05
937.06	211.00
937.36	211.00
937.66	210.92
937.96	210.93
938.26	210.97
938.56	211.00
938.86	211.01
939.16	211.04
939.46	210.91
939.76	210.94
940.06	210.96
940.35	210.93
940.65	210.80
940.95	210.90
941.25	210.88
941.55	210.90
941.85	210.85
942.15	210.90
942.45	210.90
942.75	210.90
943.04	210.97
943.34	211.02
943.64	210.98
943.94	211.06
944.24	211.04
944.54	210.99
944.84	210.95
945.13	210.91
945.43	210.90
945.73	211.01
946.03	210.97
946.33	210.99
946.62	210.95
946.92	210.99
947.22	210.98
947.52	211.00
947.82	210.99
948.11	210.99
948.41	210.87
948.71	210.90
949.01	210.88
949.31	210.81
949.60	210.79
949.90	210.87
950.20	210.86
950.50	210.87
950.79	210.87
951.09	210.93
951.39	210.96
951.69	210.87
951.98	210.92
952.28	210.97
952.58	210.91
952.87	210.97
953.17	211.03
953.47	211.02
953.76	210.98
954.06	210.96
954.36	210.90
954.66	211.01
954.95	211.05
955.25	211.02
955.55	211.07
955.84	211.04
956.14	210.97
956.44	210.94
956.73	210.92
957.03	210.95
957.32	210.93
957.62	210.87
957.92	210.95
958.21	210.96
958.51	211.15
958.81	211.22
959.10	211.22
959.40	211.28
959.69	211.36
959.99	211.41
960.29	211.43
960.58	211.46
960.88	211.48
961.17	211.43
961.47	211.42
961.76	211.43
962.06	211.47
962.36	211.52
962.65	211.44
962.95	211.40
963.24	211.32
963.54	211.30
963.83	211.32
964.13	211.26
964.42	211.12
964.72	211.04
965.01	210.99
965.31	211.01
965.60	210.97
965.90	211.01
966.19	210.95
966.49	210.93
966.78	210.90
967.08	210.93
967.37	210.97
967.67	210.98
967.96	211.01
968.26	211.03
968.55	211.02
968.85	211.05
969.14	211.07
969.43	211.16
969.73	211.22
970.02	211.22
970.32	211.22
970.61	211.27
970.91	211.15
971.20	211.08
971.49	211.06
971.79	211.01
972.08	210.91
972.38	210.94
972.67	210.96
972.96	211.00
973.26	210.97
973.55	211.04
973.85	211.08
974.14	210.99
974.43	211.05
974.73	211.00
975.02	211.01
975.31	211.01
975.61	211.02
975.90	210.98
976.19	210.99
976.49	210.98
976.78	211.01
977.07	211.02
977.37	211.09
977.66	211.07
977.95	211.11
978.24	211.11
978.54	211.10
978.83	211.06
979.12	211.03
979.42	211.00
979.71	210.88
980.00	210.87
980.29	210.94
980.59	210.83
980.88	210.87
981.17	210.86
981.46	210.87
981.76	210.84
982.05	210.82
982.34	210.80
982.63	210.86
982.93	210.95
983.22	210.98
983.51	211.02
983.80	210.99
984.09	210.94
984.39	210.83
984.68	210.86
984.97	210.85
985.26	210.87
985.55	210.84
985.85	210.85
986.14	210.88
986.43	210.85
986.72	210.79
987.01	210.79
987.30	210.80
987.59	210.75
987.89	210.78
988.18	210.71
988.47	210.69
988.76	210.64
989.05	210.49
989.34	210.44
989.63	210.48
989.92	210.50
990.22	210.50
990.51	210.50
990.80	210.42
991.09	210.51
991.38	210.53
991.67	210.55
991.96	210.50
992.25	210.41
992.54	210.41
992.83	210.41
993.12	210.40
993.41	210.39
993.70	210.47
993.99	210.48
994.28	210.54
994.58	210.56
994.87	210.52
995.16	210.52
995.45	210.55
995.74	210.45
996.03	210.46
996.32	210.52
996.61	210.60
996.90	210.64
997.19	210.60
997.48	210.61
997.77	210.54
998.06	210.61
998.34	210.63
998.63	210.55
998.92	210.62
999.21	210.59
999.50	210.62
999.79	210.56
1000.08	210.50
1000.37	210.52
1000.66	210.46
1000.95	210.51
1001.24	210.51
1001.53	210.51
1001.82	210.53
1002.11	210.47
1002.40	210.46
1002.68	210.56
1002.97	210.66
1003.26	210.63
1003.55	210.63
1003.84	210.72
1004.13	210.76
1004.42	210.79
1004.71	210.88
1004.99	210.87
1005.28	210.92
1005.57	210.91
1005.86	210.99
1006.15	211.02
1006.44	211.03
1006.72	211.12
1007.01	211.10
1007.30	211.16
1007.59	211.15
1007.88	211.10
1008.17	211.18
1008.45	211.19
1008.74	211.08
1009.03	211.06
1009.32	210.99
1009.60	210.95
1009.89	210.91
1010.18	210.79
1010.47	210.76
1010.76	210.77
1011.04	210.74
1011.33	210.77
1011.62	210.78
1011.91	210.76
1012.19	210.71
1012.48	210.67
1012.77	210.69
1013.05	210.73
1013.34	210.70
1013.63	210.67
1013.92	210.73
1014.20	210.69
1014.49	210.65
1014.78	210.67
1015.06	210.60
1015.35	210.69
1015.64	210.73
1015.92	210.76
1016.21	210.80
1016.50	210.84
1016.78	210.82
1017.07	210.87
1017.36	210.82
1017.64	210.79
1017.93	210.77
1018.22	210.83
1018.50	210.82
1018.79	210.83
1019.08	210.82
1019.36	210.87
1019.65	210.90
1019.93	211.01
1020.22	211.02
1020.51	211.14
1020.79	211.16
1021.08	211.15
1021.36	210.60
1021.65	211.45
1021.94	211.05
1022.22	211.50
1022.51	210.95
1022.79	213.05
1023.08	211.05
1023.36	213.60
1023.65	211.05
>>>>>End Processed Spectral Data<<<<<
