SpectraSuite Data File
++++++++++++++++++++++++++++++++++++
Date: Mon Feb 25 17:35:22 EST 2013
User: group
Dark Spectrum Present: No
Reference Spectrum Present: No
Number of Sampled Component Spectra: 1
Spectrometers: USB2E7196
Integration Time (usec): 52000 (USB2E7196)
Spectra Averaged: 20 (USB2E7196)
Boxcar Smoothing: 10 (USB2E7196)
Correct for Electrical Dark: No (USB2E7196)
Strobe/Lamp Enabled: No (USB2E7196)
Correct for Detector Non-linearity: No (USB2E7196)
Correct for Stray Light: No (USB2E7196)
Number of Pixels in Processed Spectrum: 2048
>>>>>Begin Processed Spectral Data<<<<<
339.09	0.00
339.48	198.60
339.86	200.05
340.24	201.90
340.63	203.45
341.01	207.15
341.39	206.55
341.78	207.70
342.16	209.25
342.54	208.95
342.93	198.49
343.31	208.54
343.69	209.12
344.07	209.63
344.46	210.10
344.84	210.55
345.22	210.72
345.60	211.00
345.99	211.16
346.37	211.27
346.75	211.40
347.13	211.46
347.52	211.48
347.90	211.54
348.28	211.57
348.66	211.60
349.05	211.56
349.43	211.67
349.81	211.67
350.19	211.68
350.57	211.73
350.96	211.80
351.34	211.86
351.72	211.94
352.10	212.01
352.48	212.05
352.87	212.03
353.25	212.11
353.63	212.11
354.01	212.10
354.39	212.13
354.77	212.07
355.15	212.08
355.54	212.21
355.92	212.26
356.30	212.28
356.68	212.51
357.06	212.58
357.44	212.55
357.82	212.60
358.20	212.71
358.58	212.70
358.97	212.74
359.35	212.79
359.73	212.82
360.11	212.87
360.49	212.88
360.87	212.90
361.25	212.95
361.63	213.00
362.01	213.10
362.39	213.14
362.77	213.32
363.15	213.41
363.53	213.36
363.91	213.30
364.29	213.31
364.67	213.06
365.05	213.04
365.43	213.07
365.81	213.11
366.19	213.17
366.57	213.24
366.95	213.22
367.33	213.26
367.71	213.25
368.09	213.31
368.47	213.29
368.85	213.26
369.23	213.28
369.61	213.27
369.99	213.30
370.37	213.26
370.75	213.31
371.13	213.26
371.51	213.23
371.89	213.24
372.27	213.23
372.65	213.25
373.03	213.19
373.41	213.14
373.78	213.11
374.16	213.01
374.54	212.88
374.92	212.83
375.30	212.75
375.68	212.69
376.06	212.61
376.44	212.62
376.82	212.64
377.19	212.56
377.57	212.44
377.95	212.32
378.33	212.26
378.71	212.10
379.09	212.04
379.47	211.98
379.84	211.96
380.22	211.89
380.60	211.83
380.98	211.86
381.36	211.79
381.73	211.79
382.11	211.80
382.49	211.80
382.87	211.76
383.25	211.74
383.62	211.91
384.00	211.82
384.38	211.75
384.76	211.72
385.13	211.74
385.51	211.79
385.89	211.77
386.27	211.88
386.64	211.86
387.02	211.92
387.40	211.92
387.78	211.87
388.15	211.87
388.53	211.84
388.91	211.72
389.29	211.71
389.66	211.66
390.04	211.51
390.42	211.58
390.79	211.58
391.17	211.54
391.55	211.35
391.92	211.35
392.30	211.40
392.68	211.34
393.05	211.33
393.43	211.32
393.81	211.29
394.18	211.19
394.56	211.19
394.94	211.21
395.31	211.20
395.69	211.30
396.06	211.37
396.44	211.43
396.82	211.42
397.19	211.57
397.57	211.58
397.95	211.69
398.32	211.68
398.70	211.70
399.07	211.79
399.45	211.84
399.82	211.84
400.20	211.79
400.58	211.83
400.95	211.75
401.33	211.78
401.70	212.05
402.08	212.19
402.45	212.27
402.83	212.36
403.20	212.47
403.58	212.50
403.95	212.61
404.33	212.77
404.71	212.95
405.08	213.13
405.46	213.29
405.83	213.47
406.21	213.58
406.58	213.71
406.96	213.83
407.33	214.01
407.70	214.24
408.08	214.65
408.45	214.91
408.83	215.30
409.20	215.60
409.58	215.67
409.95	215.89
410.33	216.20
410.70	216.42
411.08	216.75
411.45	217.13
411.82	217.48
412.20	217.90
412.57	218.42
412.95	218.70
413.32	219.20
413.69	219.72
414.07	220.34
414.44	220.99
414.82	221.61
415.19	222.34
415.56	223.10
415.94	223.75
416.31	224.66
416.68	225.56
417.06	226.53
417.43	227.55
417.81	228.71
418.18	229.75
418.55	230.95
418.93	232.26
419.30	233.54
419.67	234.87
420.04	236.29
420.42	237.77
420.79	239.62
421.16	241.30
421.54	243.15
421.91	245.00
422.28	246.93
422.66	249.02
423.03	251.08
423.40	253.14
423.77	255.35
424.15	257.63
424.52	259.96
424.89	262.51
425.26	264.95
425.64	267.21
426.01	269.86
426.38	272.65
426.75	275.41
427.13	278.29
427.50	281.32
427.87	284.34
428.24	287.40
428.61	290.33
428.99	293.72
429.36	297.20
429.73	300.67
430.10	304.20
430.47	307.84
430.85	311.58
431.22	315.54
431.59	319.82
431.96	323.82
432.33	328.13
432.70	332.40
433.08	337.45
433.45	342.20
433.82	346.86
434.19	351.99
434.56	357.02
434.93	361.87
435.30	366.62
435.68	372.00
436.05	377.30
436.42	382.50
436.79	387.28
437.16	392.38
437.53	397.84
437.90	403.10
438.27	408.20
438.64	413.40
439.01	418.29
439.38	422.65
439.75	427.00
440.13	432.02
440.50	436.59
440.87	440.30
441.24	444.19
441.61	448.55
441.98	451.62
442.35	455.29
442.72	458.91
443.09	462.54
443.46	464.63
443.83	466.10
444.20	467.34
444.57	469.06
444.94	469.93
445.31	470.68
445.68	471.53
446.05	471.77
446.42	471.23
446.79	470.66
447.16	469.88
447.53	469.11
447.90	466.79
448.27	464.64
448.64	461.64
449.01	459.53
449.37	455.69
449.74	452.31
450.11	448.19
450.48	443.75
450.85	439.11
451.22	435.15
451.59	431.22
451.96	427.48
452.33	422.60
452.70	418.01
453.07	412.82
453.43	407.44
453.80	402.40
454.17	397.65
454.54	393.00
454.91	388.02
455.28	383.17
455.65	378.85
456.02	374.50
456.38	370.76
456.75	366.09
457.12	362.19
457.49	358.21
457.86	354.36
458.23	351.03
458.59	347.51
458.96	343.94
459.33	340.80
459.70	337.68
460.07	335.19
460.43	332.36
460.80	329.62
461.17	327.27
461.54	324.82
461.91	322.40
462.27	320.01
462.64	318.06
463.01	315.87
463.38	313.71
463.74	311.53
464.11	309.60
464.48	307.87
464.85	306.14
465.21	304.85
465.58	303.33
465.95	301.53
466.32	300.07
466.68	298.61
467.05	297.18
467.42	295.78
467.78	294.24
468.15	292.92
468.52	291.92
468.88	290.61
469.25	289.33
469.62	288.40
469.98	287.42
470.35	286.50
470.72	285.57
471.08	284.57
471.45	283.74
471.82	283.05
472.18	282.20
472.55	281.58
472.92	280.77
473.28	280.17
473.65	279.70
474.02	279.05
474.38	278.62
474.75	278.22
475.11	277.83
475.48	277.53
475.85	277.33
476.21	277.06
476.58	276.90
476.94	276.96
477.31	276.85
477.67	276.71
478.04	276.64
478.41	276.88
478.77	277.23
479.14	277.38
479.50	277.56
479.87	277.95
480.23	278.39
480.60	278.78
480.96	279.29
481.33	279.98
481.69	280.67
482.06	281.29
482.42	281.93
482.79	282.68
483.15	283.54
483.52	284.48
483.88	285.52
484.25	286.50
484.61	287.49
484.98	288.61
485.34	289.93
485.71	291.30
486.07	292.63
486.44	293.93
486.80	295.44
487.17	297.06
487.53	298.78
487.90	300.58
488.26	302.52
488.62	304.49
488.99	306.55
489.35	308.63
489.72	310.90
490.08	313.37
490.44	315.87
490.81	318.56
491.17	321.29
491.54	324.13
491.90	327.06
492.26	330.28
492.63	333.63
492.99	337.01
493.36	340.73
493.72	344.67
494.08	348.73
494.45	353.01
494.81	357.48
495.17	362.00
495.54	366.85
495.90	371.84
496.26	377.02
496.63	382.47
496.99	388.36
497.35	394.37
497.72	400.61
498.08	407.15
498.44	413.86
498.80	420.88
499.17	428.24
499.53	435.98
499.89	443.97
500.26	452.09
500.62	460.50
500.98	469.25
501.34	478.26
501.71	487.78
502.07	497.46
502.43	507.56
502.79	517.95
503.16	528.60
503.52	539.68
503.88	550.98
504.24	562.52
504.60	574.53
504.97	586.70
505.33	599.28
505.69	612.58
506.05	626.15
506.41	639.80
506.78	653.75
507.14	667.91
507.50	682.55
507.86	697.60
508.22	712.99
508.59	728.67
508.95	744.87
509.31	761.09
509.67	777.80
510.03	794.70
510.39	812.28
510.75	830.19
511.12	848.30
511.48	866.83
511.84	885.45
512.20	903.95
512.56	923.58
512.92	943.07
513.28	962.66
513.64	982.51
514.00	1002.63
514.37	1023.11
514.73	1044.14
515.09	1065.08
515.45	1086.14
515.81	1107.45
516.17	1128.64
516.53	1149.84
516.89	1171.43
517.25	1193.17
517.61	1215.01
517.97	1236.69
518.33	1258.38
518.69	1280.33
519.05	1302.44
519.41	1324.69
519.77	1347.45
520.13	1369.78
520.49	1392.18
520.85	1415.01
521.21	1437.39
521.57	1460.30
521.93	1482.39
522.29	1505.30
522.65	1528.03
523.01	1550.56
523.37	1572.85
523.73	1595.57
524.09	1617.93
524.45	1640.48
524.81	1663.03
525.17	1685.61
525.53	1708.08
525.89	1730.66
526.25	1752.83
526.61	1774.13
526.97	1796.35
527.33	1817.95
527.68	1839.38
528.04	1860.82
528.40	1881.29
528.76	1902.29
529.12	1923.22
529.48	1945.27
529.84	1966.01
530.20	1986.35
530.56	2006.85
530.91	2028.03
531.27	2048.50
531.63	2068.91
531.99	2088.79
532.35	2108.26
532.71	2127.42
533.07	2147.18
533.42	2166.07
533.78	2185.13
534.14	2204.18
534.50	2221.42
534.86	2239.69
535.21	2256.45
535.57	2274.53
535.93	2292.25
536.29	2309.57
536.65	2326.60
537.00	2341.99
537.36	2357.50
537.72	2373.21
538.08	2388.89
538.44	2404.30
538.79	2420.15
539.15	2435.25
539.51	2450.39
539.87	2465.68
540.22	2480.44
540.58	2495.38
540.94	2509.92
541.29	2523.12
541.65	2535.55
542.01	2549.04
542.37	2561.02
542.72	2574.03
543.08	2584.79
543.44	2596.59
543.79	2606.87
544.15	2617.13
544.51	2628.67
544.87	2639.76
545.22	2649.19
545.58	2658.05
545.94	2665.16
546.29	2671.84
546.65	2678.30
547.01	2684.68
547.36	2690.63
547.72	2696.49
548.07	2700.69
548.43	2704.91
548.79	2709.17
549.14	2713.82
549.50	2718.33
549.86	2722.52
550.21	2726.74
550.57	2731.37
550.92	2734.18
551.28	2737.44
551.64	2740.05
551.99	2742.14
552.35	2743.59
552.70	2746.63
553.06	2749.49
553.41	2752.84
553.77	2755.68
554.13	2758.09
554.48	2760.41
554.84	2761.65
555.19	2762.04
555.55	2762.80
555.90	2763.06
556.26	2763.66
556.61	2763.70
556.97	2762.50
557.32	2762.17
557.68	2760.29
558.03	2758.90
558.39	2757.77
558.74	2757.23
559.10	2756.35
559.45	2754.57
559.81	2753.71
560.16	2750.99
560.52	2748.39
560.87	2745.79
561.23	2741.72
561.58	2739.48
561.94	2736.02
562.29	2732.62
562.64	2730.99
563.00	2728.82
563.35	2727.20
563.71	2725.62
564.06	2723.85
564.42	2722.20
564.77	2720.16
565.12	2718.58
565.48	2715.38
565.83	2712.16
566.19	2708.98
566.54	2704.75
566.89	2701.39
567.25	2697.69
567.60	2694.46
567.96	2691.02
568.31	2687.37
568.66	2684.07
569.02	2679.48
569.37	2674.67
569.72	2671.17
570.08	2665.50
570.43	2659.57
570.78	2653.23
571.14	2646.74
571.49	2640.13
571.84	2634.08
572.20	2627.10
572.55	2620.55
572.90	2613.89
573.26	2606.83
573.61	2599.64
573.96	2593.10
574.31	2585.21
574.67	2577.34
575.02	2568.74
575.37	2560.13
575.72	2550.80
576.08	2542.96
576.43	2534.24
576.78	2526.32
577.13	2518.00
577.49	2510.00
577.84	2502.21
578.19	2495.09
578.54	2487.28
578.90	2480.19
579.25	2471.59
579.60	2462.30
579.95	2452.89
580.30	2444.84
580.66	2436.70
581.01	2427.75
581.36	2418.32
581.71	2409.73
582.06	2400.82
582.42	2392.58
582.77	2383.37
583.12	2374.69
583.47	2366.04
583.82	2357.68
584.17	2348.35
584.53	2339.11
584.88	2330.00
585.23	2320.50
585.58	2310.52
585.93	2300.80
586.28	2291.36
586.63	2282.24
586.98	2274.04
587.34	2265.54
587.69	2256.04
588.04	2246.91
588.39	2238.33
588.74	2229.48
589.09	2220.78
589.44	2211.22
589.79	2202.90
590.14	2194.96
590.49	2186.52
590.84	2177.23
591.19	2168.89
591.54	2160.14
591.89	2149.71
592.25	2140.54
592.60	2131.05
592.95	2121.65
593.30	2111.90
593.65	2102.00
594.00	2092.26
594.35	2083.55
594.70	2073.98
595.05	2065.17
595.40	2056.07
595.75	2046.09
596.10	2037.46
596.45	2028.70
596.80	2020.64
597.15	2011.71
597.50	2002.19
597.85	1993.56
598.19	1985.09
598.54	1976.70
598.89	1968.53
599.24	1962.06
599.59	1954.65
599.94	1947.59
600.29	1939.58
600.64	1931.90
600.99	1923.35
601.34	1915.91
601.69	1906.96
602.04	1899.00
602.39	1890.63
602.74	1882.75
603.08	1876.15
603.43	1868.86
603.78	1860.76
604.13	1852.64
604.48	1844.44
604.83	1837.71
605.18	1830.56
605.53	1822.77
605.87	1814.69
606.22	1807.62
606.57	1799.47
606.92	1790.97
607.27	1782.80
607.62	1775.57
607.96	1768.35
608.31	1762.19
608.66	1754.37
609.01	1746.83
609.36	1739.06
609.70	1731.25
610.05	1723.41
610.40	1715.03
610.75	1706.59
611.10	1698.82
611.44	1689.60
611.79	1680.78
612.14	1671.36
612.49	1661.78
612.83	1652.74
613.18	1643.01
613.53	1633.14
613.88	1623.17
614.22	1614.17
614.57	1604.69
614.92	1595.22
615.27	1585.90
615.61	1576.10
615.96	1567.07
616.31	1558.49
616.65	1550.64
617.00	1542.13
617.35	1533.36
617.70	1524.48
618.04	1515.08
618.39	1505.57
618.74	1497.15
619.08	1488.31
619.43	1479.76
619.78	1471.55
620.12	1463.40
620.47	1455.74
620.82	1447.15
621.16	1439.12
621.51	1430.75
621.85	1422.39
622.20	1413.48
622.55	1404.81
622.89	1396.35
623.24	1388.26
623.59	1379.47
623.93	1370.60
624.28	1362.21
624.62	1354.12
624.97	1345.78
625.32	1338.16
625.66	1330.66
626.01	1323.24
626.35	1315.97
626.70	1308.11
627.04	1300.69
627.39	1292.95
627.73	1284.95
628.08	1278.06
628.43	1270.16
628.77	1262.60
629.12	1255.11
629.46	1248.52
629.81	1241.40
630.15	1233.90
630.50	1226.27
630.84	1218.85
631.19	1211.60
631.53	1204.71
631.88	1196.94
632.22	1189.20
632.57	1181.90
632.91	1174.37
633.26	1166.77
633.60	1159.35
633.95	1152.61
634.29	1145.18
634.64	1138.46
634.98	1131.57
635.32	1124.34
635.67	1118.07
636.01	1111.19
636.36	1104.49
636.70	1097.55
637.05	1090.89
637.39	1084.60
637.73	1078.35
638.08	1072.57
638.42	1066.46
638.77	1059.84
639.11	1053.46
639.45	1047.49
639.80	1040.97
640.14	1034.48
640.49	1028.34
640.83	1022.09
641.17	1015.62
641.52	1009.45
641.86	1002.92
642.20	996.42
642.55	989.66
642.89	983.00
643.23	976.68
643.58	970.84
643.92	964.43
644.26	958.07
644.61	952.02
644.95	945.80
645.29	939.44
645.64	932.85
645.98	926.56
646.32	920.58
646.66	914.45
647.01	908.40
647.35	902.58
647.69	896.09
648.04	889.91
648.38	883.81
648.72	877.63
649.06	871.35
649.41	865.25
649.75	859.29
650.09	853.55
650.43	847.68
650.78	841.30
651.12	835.15
651.46	829.34
651.80	823.30
652.14	817.42
652.49	811.37
652.83	805.31
653.17	799.18
653.51	793.22
653.85	787.54
654.20	781.64
654.54	775.80
654.88	770.32
655.22	764.56
655.56	758.74
655.90	752.92
656.25	747.13
656.59	741.72
656.93	736.68
657.27	731.42
657.61	725.79
657.95	720.67
658.29	715.60
658.64	710.50
658.98	705.15
659.32	699.47
659.66	694.29
660.00	689.06
660.34	683.87
660.68	678.72
661.02	673.32
661.36	668.60
661.70	663.70
662.05	658.93
662.39	654.68
662.73	650.23
663.07	645.85
663.41	641.57
663.75	637.04
664.09	632.22
664.43	627.43
664.77	623.10
665.11	618.49
665.45	614.03
665.79	609.46
666.13	605.07
666.47	601.03
666.81	596.74
667.15	592.65
667.49	588.70
667.83	584.74
668.17	580.94
668.51	577.04
668.85	573.11
669.19	569.30
669.53	565.07
669.87	560.88
670.21	556.99
670.55	552.93
670.89	549.35
671.23	546.04
671.57	542.52
671.91	538.74
672.25	535.07
672.58	531.47
672.92	527.94
673.26	524.72
673.60	521.33
673.94	517.88
674.28	514.59
674.62	511.31
674.96	508.10
675.30	505.01
675.64	501.75
675.97	498.65
676.31	495.69
676.65	492.85
676.99	490.20
677.33	487.22
677.67	484.32
678.01	481.19
678.34	478.07
678.68	475.14
679.02	472.31
679.36	469.65
679.70	466.92
680.04	464.10
680.37	461.03
680.71	458.18
681.05	455.58
681.39	452.93
681.73	450.29
682.06	447.79
682.40	445.20
682.74	442.51
683.08	439.94
683.42	437.20
683.75	434.66
684.09	432.15
684.43	429.70
684.77	427.26
685.10	424.85
685.44	422.30
685.78	419.69
686.12	417.38
686.45	414.91
686.79	412.56
687.13	410.44
687.46	408.20
687.80	406.02
688.14	403.65
688.48	401.56
688.81	399.31
689.15	397.06
689.49	394.64
689.82	392.46
690.16	390.05
690.50	387.90
690.83	385.55
691.17	383.15
691.51	380.92
691.84	378.82
692.18	376.69
692.52	374.78
692.85	372.95
693.19	371.05
693.52	369.08
693.86	367.02
694.20	365.01
694.53	363.16
694.87	361.20
695.21	359.33
695.54	357.26
695.88	355.37
696.21	353.42
696.55	351.75
696.88	350.03
697.22	348.26
697.56	346.68
697.89	345.04
698.23	343.40
698.56	341.73
698.90	340.18
699.23	338.60
699.57	336.88
699.90	335.25
700.24	333.54
700.58	332.01
700.91	330.52
701.25	329.12
701.58	327.71
701.92	326.20
702.25	324.72
702.59	323.34
702.92	321.97
703.26	320.66
703.59	319.38
703.93	318.17
704.26	317.04
704.60	315.56
704.93	314.34
705.26	313.09
705.60	311.87
705.93	310.59
706.27	309.46
706.60	308.47
706.94	307.38
707.27	306.18
707.61	305.00
707.94	303.83
708.27	302.59
708.61	301.38
708.94	300.27
709.28	299.17
709.61	298.07
709.94	297.02
710.28	295.93
710.61	294.83
710.95	293.61
711.28	292.66
711.61	291.56
711.95	290.54
712.28	289.50
712.61	288.46
712.95	287.50
713.28	286.48
713.61	285.46
713.95	284.44
714.28	283.63
714.61	282.63
714.95	281.75
715.28	280.78
715.61	279.79
715.95	278.82
716.28	277.98
716.61	277.10
716.95	276.18
717.28	275.32
717.61	274.48
717.94	273.69
718.28	272.75
718.61	272.01
718.94	271.20
719.27	270.48
719.61	269.82
719.94	269.09
720.27	268.28
720.60	267.50
720.94	266.84
721.27	266.15
721.60	265.60
721.93	264.91
722.27	264.28
722.60	263.80
722.93	263.31
723.26	262.78
723.59	262.15
723.93	261.56
724.26	260.95
724.59	260.43
724.92	259.90
725.25	259.34
725.59	258.75
725.92	258.23
726.25	257.68
726.58	257.15
726.91	256.60
727.24	256.08
727.57	255.63
727.91	255.08
728.24	254.59
728.57	254.00
728.90	253.59
729.23	253.14
729.56	252.66
729.89	252.16
730.22	251.55
730.55	251.15
730.89	250.75
731.22	250.39
731.55	249.84
731.88	249.43
732.21	249.06
732.54	248.68
732.87	248.16
733.20	247.75
733.53	247.27
733.86	246.87
734.19	246.50
734.52	246.04
734.85	245.81
735.18	245.37
735.51	245.06
735.84	244.63
736.17	244.26
736.50	243.84
736.83	243.67
737.16	243.37
737.49	243.00
737.82	242.65
738.15	242.27
738.48	242.01
738.81	241.61
739.14	241.24
739.47	240.92
739.80	240.60
740.13	240.27
740.46	239.87
740.79	239.48
741.12	239.10
741.45	238.80
741.78	238.35
742.11	238.08
742.44	237.75
742.77	237.49
743.10	237.24
743.43	236.85
743.75	236.27
744.08	236.16
744.41	235.79
744.74	235.43
745.07	235.08
745.40	234.73
745.73	234.46
746.06	234.13
746.39	233.85
746.71	233.57
747.04	233.22
747.37	232.98
747.70	232.72
748.03	232.49
748.36	232.20
748.68	231.95
749.01	231.60
749.34	231.31
749.67	231.04
750.00	230.76
750.33	230.62
750.65	230.39
750.98	229.94
751.31	229.70
751.64	229.36
751.97	229.24
752.29	229.08
752.62	228.78
752.95	228.54
753.28	228.24
753.60	228.04
753.93	227.87
754.26	227.70
754.59	227.45
754.91	227.17
755.24	227.03
755.57	226.77
755.90	226.60
756.22	226.39
756.55	226.17
756.88	226.00
757.20	225.72
757.53	225.58
757.86	225.37
758.19	225.22
758.51	225.10
758.84	224.82
759.17	224.55
759.49	224.43
759.82	224.28
760.15	224.17
760.47	224.00
760.80	223.84
761.13	223.75
761.45	223.63
761.78	223.50
762.11	223.22
762.43	223.08
762.76	222.94
763.08	222.86
763.41	222.76
763.74	222.57
764.06	222.39
764.39	222.28
764.71	222.15
765.04	221.94
765.37	221.80
765.69	221.68
766.02	221.61
766.34	221.49
766.67	221.35
767.00	221.17
767.32	221.16
767.65	221.15
767.97	220.96
768.30	220.81
768.62	220.74
768.95	220.65
769.27	220.56
769.60	220.52
769.92	220.27
770.25	220.12
770.57	219.95
770.90	219.85
771.22	219.65
771.55	219.62
771.87	219.55
772.20	219.57
772.52	219.61
772.85	219.68
773.17	219.62
773.50	219.54
773.82	219.46
774.15	219.31
774.47	219.10
774.80	219.00
775.12	218.90
775.45	218.77
775.77	218.75
776.09	218.65
776.42	218.55
776.74	218.61
777.07	218.53
777.39	218.44
777.72	218.34
778.04	218.35
778.36	218.21
778.69	218.18
779.01	218.03
779.33	217.81
779.66	217.52
779.98	217.37
780.31	217.35
780.63	217.42
780.95	217.32
781.28	217.30
781.60	217.20
781.92	217.13
782.25	217.11
782.57	217.09
782.89	217.00
783.22	216.91
783.54	216.79
783.86	216.74
784.19	216.80
784.51	216.81
784.83	216.75
785.16	216.65
785.48	216.62
785.80	216.57
786.12	216.52
786.45	216.48
786.77	216.47
787.09	216.31
787.42	216.24
787.74	216.30
788.06	216.21
788.38	216.13
788.71	216.15
789.03	216.07
789.35	215.99
789.67	216.02
789.99	215.93
790.32	215.87
790.64	215.84
790.96	215.88
791.28	215.80
791.61	215.74
791.93	215.76
792.25	215.66
792.57	215.74
792.89	215.69
793.21	215.60
793.54	215.53
793.86	215.59
794.18	215.51
794.50	215.31
794.82	215.23
795.14	215.31
795.47	215.27
795.79	215.27
796.11	215.22
796.43	215.11
796.75	215.07
797.07	215.07
797.39	215.07
797.71	214.87
798.04	214.80
798.36	214.79
798.68	214.71
799.00	214.73
799.32	214.60
799.64	214.60
799.96	214.64
800.28	214.64
800.60	214.53
800.92	214.46
801.24	214.42
801.56	214.46
801.89	214.36
802.21	214.37
802.53	214.27
802.85	214.32
803.17	214.30
803.49	214.27
803.81	214.20
804.13	214.10
804.45	214.04
804.77	214.08
805.09	214.02
805.41	213.97
805.73	213.86
806.05	213.86
806.37	213.84
806.69	213.75
807.01	213.71
807.33	213.75
807.65	213.69
807.97	213.73
808.28	213.70
808.60	213.65
808.92	213.59
809.24	213.63
809.56	213.52
809.88	213.49
810.20	213.53
810.52	213.60
810.84	213.60
811.16	213.55
811.48	213.50
811.80	213.56
812.12	213.55
812.43	213.58
812.75	213.49
813.07	213.44
813.39	213.48
813.71	213.37
814.03	213.26
814.35	213.21
814.67	213.10
814.98	213.04
815.30	213.05
815.62	212.95
815.94	212.84
816.26	212.79
816.58	212.73
816.89	212.66
817.21	212.54
817.53	212.53
817.85	212.55
818.17	212.54
818.48	212.43
818.80	212.46
819.12	212.38
819.44	212.35
819.76	212.29
820.07	212.25
820.39	212.26
820.71	212.28
821.03	212.32
821.34	212.35
821.66	212.35
821.98	212.27
822.30	212.26
822.61	212.40
822.93	212.39
823.25	212.38
823.57	212.37
823.88	212.39
824.20	212.34
824.52	212.30
824.83	212.28
825.15	212.30
825.47	212.24
825.79	212.29
826.10	212.30
826.42	212.33
826.74	212.32
827.05	212.36
827.37	212.34
827.69	212.30
828.00	212.27
828.32	212.31
828.64	212.34
828.95	212.41
829.27	212.33
829.58	212.33
829.90	212.38
830.22	212.38
830.53	212.33
830.85	212.31
831.17	212.34
831.48	212.40
831.80	212.37
832.11	212.36
832.43	212.30
832.75	212.33
833.06	212.38
833.38	212.35
833.69	212.38
834.01	212.45
834.32	212.46
834.64	212.51
834.96	212.50
835.27	212.48
835.59	212.44
835.90	212.43
836.22	212.49
836.53	212.45
836.85	212.40
837.16	212.57
837.48	212.56
837.79	212.61
838.11	212.53
838.42	212.47
838.74	212.56
839.05	212.58
839.37	212.50
839.68	212.37
840.00	212.43
840.31	212.32
840.63	212.31
840.94	212.22
841.26	212.17
841.57	212.15
841.88	212.24
842.20	212.25
842.51	212.19
842.83	212.13
843.14	212.30
843.46	212.38
843.77	212.29
844.08	212.37
844.40	212.30
844.71	212.26
845.03	212.30
845.34	212.30
845.65	212.32
845.97	212.34
846.28	212.40
846.60	212.29
846.91	212.30
847.22	212.25
847.54	212.38
847.85	212.39
848.16	212.38
848.48	212.24
848.79	212.26
849.10	212.24
849.42	212.28
849.73	212.05
850.04	211.96
850.36	211.89
850.67	211.83
850.98	211.79
851.30	211.86
851.61	211.87
851.92	211.75
852.23	211.71
852.55	211.68
852.86	211.66
853.17	211.71
853.49	211.78
853.80	211.84
854.11	211.77
854.42	211.77
854.74	211.71
855.05	211.82
855.36	211.74
855.67	211.76
855.99	211.71
856.30	211.95
856.61	211.93
856.92	211.93
857.23	211.94
857.55	211.92
857.86	211.91
858.17	211.86
858.48	211.82
858.79	211.83
859.11	211.88
859.42	211.83
859.73	211.81
860.04	211.76
860.35	211.66
860.66	211.63
860.98	211.61
861.29	211.61
861.60	211.54
861.91	211.59
862.22	211.57
862.53	211.52
862.84	211.32
863.16	211.44
863.47	211.41
863.78	211.40
864.09	211.42
864.40	211.42
864.71	211.49
865.02	211.52
865.33	211.51
865.64	211.44
865.95	211.43
866.27	211.55
866.58	211.50
866.89	211.49
867.20	211.50
867.51	211.46
867.82	211.51
868.13	211.56
868.44	211.54
868.75	211.64
869.06	211.66
869.37	211.61
869.68	211.46
869.99	211.50
870.30	211.46
870.61	211.45
870.92	211.40
871.23	211.30
871.54	211.31
871.85	211.32
872.16	211.35
872.47	211.38
872.78	211.26
873.09	211.23
873.40	211.25
873.71	211.19
874.02	211.21
874.33	211.15
874.64	211.08
874.95	211.05
875.26	210.94
875.56	210.95
875.87	210.99
876.18	211.01
876.49	211.17
876.80	211.16
877.11	211.20
877.42	211.21
877.73	211.30
878.04	211.34
878.35	211.39
878.66	211.39
878.96	211.39
879.27	211.34
879.58	211.34
879.89	211.31
880.20	211.38
880.51	211.38
880.82	211.35
881.12	211.34
881.43	211.29
881.74	211.24
882.05	211.25
882.36	211.23
882.67	211.24
882.97	211.00
883.28	210.99
883.59	210.93
883.90	210.88
884.21	210.91
884.51	210.82
884.82	210.76
885.13	210.71
885.44	210.63
885.74	210.65
886.05	210.69
886.36	210.72
886.67	210.67
886.98	210.80
887.28	210.78
887.59	210.81
887.90	210.86
888.20	210.89
888.51	210.95
888.82	210.93
889.13	210.89
889.43	211.08
889.74	211.04
890.05	211.10
890.35	211.12
890.66	211.01
890.97	211.04
891.28	210.94
891.58	210.97
891.89	211.07
892.20	211.01
892.50	210.95
892.81	210.92
893.12	210.94
893.42	210.80
893.73	210.88
894.04	210.83
894.34	210.84
894.65	210.85
894.95	210.73
895.26	210.72
895.57	210.87
895.87	210.67
896.18	210.74
896.48	210.69
896.79	210.69
897.10	210.72
897.40	210.71
897.71	210.77
898.01	210.75
898.32	210.81
898.63	210.86
898.93	210.88
899.24	210.91
899.54	210.93
899.85	210.95
900.15	210.95
900.46	211.03
900.76	211.04
901.07	211.04
901.38	211.11
901.68	211.15
901.99	211.00
902.29	211.04
902.60	211.05
902.90	211.06
903.21	211.08
903.51	211.12
903.82	211.10
904.12	211.10
904.43	211.18
904.73	211.02
905.03	211.00
905.34	211.24
905.64	211.19
905.95	211.14
906.25	211.19
906.56	211.18
906.86	211.15
907.17	211.20
907.47	211.18
907.77	211.14
908.08	211.16
908.38	211.22
908.69	211.24
908.99	211.24
909.30	211.25
909.60	211.23
909.90	211.16
910.21	211.23
910.51	211.25
910.81	211.24
911.12	211.30
911.42	211.30
911.73	211.08
912.03	211.12
912.33	211.22
912.64	211.16
912.94	211.19
913.24	211.16
913.55	211.04
913.85	211.08
914.15	211.12
914.46	211.05
914.76	211.05
915.06	211.05
915.37	210.98
915.67	211.02
915.97	211.09
916.27	211.11
916.58	211.06
916.88	211.01
917.18	210.99
917.49	211.15
917.79	211.18
918.09	211.22
918.39	211.26
918.70	211.21
919.00	211.19
919.30	211.25
919.60	211.20
919.91	211.25
920.21	211.26
920.51	211.23
920.81	211.27
921.12	211.25
921.42	211.26
921.72	211.39
922.02	211.30
922.32	211.24
922.63	211.26
922.93	211.35
923.23	211.40
923.53	211.41
923.83	211.29
924.13	211.30
924.44	211.31
924.74	211.31
925.04	211.39
925.34	211.38
925.64	211.30
925.94	211.39
926.24	211.50
926.55	211.43
926.85	211.44
927.15	211.39
927.45	211.40
927.75	211.42
928.05	211.26
928.35	211.22
928.65	211.27
928.95	211.29
929.26	211.20
929.56	211.18
929.86	211.12
930.16	211.07
930.46	211.02
930.76	211.05
931.06	210.96
931.36	210.89
931.66	210.97
931.96	210.96
932.26	210.90
932.56	210.80
932.86	210.82
933.16	210.85
933.46	210.90
933.76	210.88
934.06	210.90
934.36	211.09
934.66	211.14
934.96	211.05
935.26	211.05
935.56	211.12
935.86	211.04
936.16	211.04
936.46	211.04
936.76	211.07
937.06	210.99
937.36	211.04
937.66	211.03
937.96	210.97
938.26	210.95
938.56	210.96
938.86	210.95
939.16	210.99
939.46	210.94
939.76	210.97
940.06	211.00
940.35	210.95
940.65	210.80
940.95	210.82
941.25	210.82
941.55	210.80
941.85	210.76
942.15	210.85
942.45	210.92
942.75	210.94
943.04	210.92
943.34	211.00
943.64	210.98
943.94	210.95
944.24	210.96
944.54	210.94
944.84	210.94
945.13	210.90
945.43	210.93
945.73	210.95
946.03	210.96
946.33	210.92
946.62	210.90
946.92	210.92
947.22	210.96
947.52	210.96
947.82	210.98
948.11	211.00
948.41	210.99
948.71	210.90
949.01	210.91
949.31	210.87
949.60	210.80
949.90	210.80
950.20	210.80
950.50	210.78
950.79	210.75
951.09	210.81
951.39	210.83
951.69	210.72
951.98	210.78
952.28	210.68
952.58	210.68
952.87	210.71
953.17	210.78
953.47	210.69
953.76	210.69
954.06	210.67
954.36	210.59
954.66	210.61
954.95	210.64
955.25	210.61
955.55	210.70
955.84	210.70
956.14	210.76
956.44	210.85
956.73	210.82
957.03	210.94
957.32	210.98
957.62	210.98
957.92	211.07
958.21	211.07
958.51	211.32
958.81	211.35
959.10	211.35
959.40	211.33
959.69	211.40
959.99	211.45
960.29	211.47
960.58	211.48
960.88	211.55
961.17	211.57
961.47	211.72
961.76	211.64
962.06	211.75
962.36	211.66
962.65	211.70
962.95	211.74
963.24	211.68
963.54	211.57
963.83	211.62
964.13	211.56
964.42	211.51
964.72	211.40
965.01	211.38
965.31	211.45
965.60	211.38
965.90	211.49
966.19	211.46
966.49	211.48
966.78	211.55
967.08	211.54
967.37	211.59
967.67	211.53
967.96	211.63
968.26	211.51
968.55	211.53
968.85	211.45
969.14	211.41
969.43	211.45
969.73	211.49
970.02	211.50
970.32	211.53
970.61	211.50
970.91	211.43
971.20	211.34
971.49	211.28
971.79	211.31
972.08	211.17
972.38	211.11
972.67	211.02
972.96	210.93
973.26	210.87
973.55	210.85
973.85	210.78
974.14	210.69
974.43	210.74
974.73	210.74
975.02	210.71
975.31	210.63
975.61	210.60
975.90	210.60
976.19	210.52
976.49	210.53
976.78	210.54
977.07	210.52
977.37	210.59
977.66	210.54
977.95	210.54
978.24	210.55
978.54	210.62
978.83	210.64
979.12	210.73
979.42	210.70
979.71	210.63
980.00	210.61
980.29	210.66
980.59	210.62
980.88	210.65
981.17	210.60
981.46	210.68
981.76	210.62
982.05	210.53
982.34	210.55
982.63	210.51
982.93	210.50
983.22	210.55
983.51	210.58
983.80	210.62
984.09	210.65
984.39	210.60
984.68	210.58
984.97	210.59
985.26	210.54
985.55	210.50
985.85	210.53
986.14	210.53
986.43	210.53
986.72	210.52
987.01	210.41
987.30	210.45
987.59	210.43
987.89	210.48
988.18	210.45
988.47	210.37
988.76	210.42
989.05	210.43
989.34	210.40
989.63	210.35
989.92	210.32
990.22	210.22
990.51	210.19
990.80	210.17
991.09	210.15
991.38	210.20
991.67	210.28
991.96	210.19
992.25	210.16
992.54	210.03
992.83	210.02
993.12	210.06
993.41	210.07
993.70	210.13
993.99	210.20
994.28	210.33
994.58	210.45
994.87	210.38
995.16	210.37
995.45	210.40
995.74	210.35
996.03	210.36
996.32	210.50
996.61	210.53
996.90	210.55
997.19	210.60
997.48	210.56
997.77	210.51
998.06	210.57
998.34	210.67
998.63	210.69
998.92	210.70
999.21	210.73
999.50	210.77
999.79	210.75
1000.08	210.66
1000.37	210.59
1000.66	210.52
1000.95	210.69
1001.24	210.68
1001.53	210.66
1001.82	210.63
1002.11	210.57
1002.40	210.55
1002.68	210.62
1002.97	210.68
1003.26	210.62
1003.55	210.65
1003.84	210.59
1004.13	210.60
1004.42	210.50
1004.71	210.54
1004.99	210.55
1005.28	210.56
1005.57	210.53
1005.86	210.46
1006.15	210.41
1006.44	210.45
1006.72	210.53
1007.01	210.39
1007.30	210.40
1007.59	210.39
1007.88	210.43
1008.17	210.46
1008.45	210.42
1008.74	210.33
1009.03	210.30
1009.32	210.24
1009.60	210.18
1009.89	210.23
1010.18	210.19
1010.47	210.18
1010.76	210.21
1011.04	210.22
1011.33	210.25
1011.62	210.28
1011.91	210.34
1012.19	210.41
1012.48	210.38
1012.77	210.36
1013.05	210.43
1013.34	210.38
1013.63	210.40
1013.92	210.42
1014.20	210.43
1014.49	210.48
1014.78	210.49
1015.06	210.44
1015.35	210.52
1015.64	210.61
1015.92	210.60
1016.21	210.67
1016.50	210.69
1016.78	210.72
1017.07	210.73
1017.36	210.64
1017.64	210.59
1017.93	210.55
1018.22	210.50
1018.50	210.45
1018.79	210.37
1019.08	210.30
1019.36	210.39
1019.65	210.34
1019.93	210.43
1020.22	210.45
1020.51	210.47
1020.79	210.44
1021.08	209.90
1021.36	209.05
1021.65	210.00
1021.94	210.55
1022.22	211.25
1022.51	210.10
1022.79	212.10
1023.08	210.75
1023.36	212.25
1023.65	209.75
>>>>>End Processed Spectral Data<<<<<
