SpectraSuite Data File
++++++++++++++++++++++++++++++++++++
Date: Mon Feb 25 17:35:24 EST 2013
User: group
Dark Spectrum Present: No
Reference Spectrum Present: No
Number of Sampled Component Spectra: 1
Spectrometers: USB2E7196
Integration Time (usec): 52000 (USB2E7196)
Spectra Averaged: 20 (USB2E7196)
Boxcar Smoothing: 10 (USB2E7196)
Correct for Electrical Dark: No (USB2E7196)
Strobe/Lamp Enabled: No (USB2E7196)
Correct for Detector Non-linearity: No (USB2E7196)
Correct for Stray Light: No (USB2E7196)
Number of Pixels in Processed Spectrum: 2048
>>>>>Begin Processed Spectral Data<<<<<
339.09	0.00
339.48	199.00
339.86	199.90
340.24	201.45
340.63	202.95
341.01	208.00
341.39	205.70
341.78	207.70
342.16	209.00
342.54	208.70
342.93	198.18
343.31	208.19
343.69	208.70
344.07	209.18
344.46	209.63
344.84	210.01
345.22	210.14
345.60	210.47
345.99	210.65
346.37	210.73
346.75	210.87
347.13	211.00
347.52	211.05
347.90	211.12
348.28	211.06
348.66	211.20
349.05	211.16
349.43	211.27
349.81	211.37
350.19	211.38
350.57	211.43
350.96	211.47
351.34	211.59
351.72	211.73
352.10	211.82
352.48	211.88
352.87	211.92
353.25	212.00
353.63	211.97
354.01	212.02
354.39	212.10
354.77	212.13
355.15	212.15
355.54	212.23
355.92	212.18
356.30	212.26
356.68	212.43
357.06	212.50
357.44	212.43
357.82	212.45
358.20	212.54
358.58	212.53
358.97	212.60
359.35	212.64
359.73	212.69
360.11	212.68
360.49	212.72
360.87	212.78
361.25	212.83
361.63	212.85
362.01	212.92
362.39	212.97
362.77	213.06
363.15	213.15
363.53	213.19
363.91	213.25
364.29	213.30
364.67	213.11
365.05	213.20
365.43	213.28
365.81	213.35
366.19	213.46
366.57	213.58
366.95	213.61
367.33	213.65
367.71	213.65
368.09	213.72
368.47	213.80
368.85	213.77
369.23	213.76
369.61	213.81
369.99	213.79
370.37	213.81
370.75	213.80
371.13	213.72
371.51	213.65
371.89	213.65
372.27	213.60
372.65	213.63
373.03	213.55
373.41	213.50
373.78	213.36
374.16	213.21
374.54	213.09
374.92	213.06
375.30	213.02
375.68	212.96
376.06	212.95
376.44	212.85
376.82	212.87
377.19	212.87
377.57	212.79
377.95	212.78
378.33	212.67
378.71	212.58
379.09	212.64
379.47	212.68
379.84	212.63
380.22	212.65
380.60	212.55
380.98	212.52
381.36	212.47
381.73	212.50
382.11	212.55
382.49	212.54
382.87	212.49
383.25	212.40
383.62	212.57
384.00	212.46
384.38	212.40
384.76	212.42
385.13	212.42
385.51	212.41
385.89	212.34
386.27	212.34
386.64	212.35
387.02	212.23
387.40	212.18
387.78	212.16
388.15	212.11
388.53	212.07
388.91	212.06
389.29	212.03
389.66	212.03
390.04	211.99
390.42	212.04
390.79	212.01
391.17	211.97
391.55	211.81
391.92	211.87
392.30	211.87
392.68	211.80
393.05	211.83
393.43	211.77
393.81	211.76
394.18	211.68
394.56	211.69
394.94	211.69
395.31	211.62
395.69	211.69
396.06	211.75
396.44	211.75
396.82	211.71
397.19	211.82
397.57	211.75
397.95	211.76
398.32	211.75
398.70	211.76
399.07	211.86
399.45	211.84
399.82	211.82
400.20	211.78
400.58	211.78
400.95	211.71
401.33	211.79
401.70	211.99
402.08	212.09
402.45	212.04
402.83	212.16
403.20	212.25
403.58	212.26
403.95	212.33
404.33	212.41
404.71	212.54
405.08	212.73
405.46	212.79
405.83	212.89
406.21	212.90
406.58	213.06
406.96	213.12
407.33	213.29
407.70	213.46
408.08	213.83
408.45	214.02
408.83	214.25
409.20	214.50
409.58	214.59
409.95	214.89
410.33	215.28
410.70	215.53
411.08	215.95
411.45	216.36
411.82	216.66
412.20	217.13
412.57	217.65
412.95	217.94
413.32	218.55
413.69	219.10
414.07	219.74
414.44	220.37
414.82	221.07
415.19	221.80
415.56	222.61
415.94	223.36
416.31	224.30
416.68	225.20
417.06	226.19
417.43	227.21
417.81	228.29
418.18	229.36
418.55	230.55
418.93	231.83
419.30	233.17
419.67	234.60
420.04	236.13
420.42	237.67
420.79	239.53
421.16	241.25
421.54	243.16
421.91	245.05
422.28	247.02
422.66	249.17
423.03	251.19
423.40	253.24
423.77	255.45
424.15	257.75
424.52	260.14
424.89	262.71
425.26	265.18
425.64	267.63
426.01	270.31
426.38	273.15
426.75	275.97
427.13	278.85
427.50	281.92
427.87	284.94
428.24	287.98
428.61	290.99
428.99	294.31
429.36	297.80
429.73	301.28
430.10	304.77
430.47	308.39
430.85	312.20
431.22	316.26
431.59	320.46
431.96	324.40
432.33	328.84
432.70	333.13
433.08	338.14
433.45	342.79
433.82	347.43
434.19	352.63
434.56	357.57
434.93	362.38
435.30	367.17
435.68	372.50
436.05	377.74
436.42	382.90
436.79	387.63
437.16	392.62
437.53	397.96
437.90	403.39
438.27	408.40
438.64	413.63
439.01	418.49
439.38	422.94
439.75	427.15
440.13	432.02
440.50	436.64
440.87	440.36
441.24	444.20
441.61	448.43
441.98	451.45
442.35	455.01
442.72	458.68
443.09	462.17
443.46	464.33
443.83	465.76
444.20	466.85
444.57	468.55
444.94	469.32
445.31	470.11
445.68	470.83
446.05	471.17
446.42	470.60
446.79	469.82
447.16	468.81
447.53	468.22
447.90	466.11
448.27	463.90
448.64	460.97
449.01	458.84
449.37	455.20
449.74	451.71
450.11	447.65
450.48	443.03
450.85	438.36
451.22	434.34
451.59	430.39
451.96	426.75
452.33	422.04
452.70	417.78
453.07	412.54
453.43	407.13
453.80	402.09
454.17	397.25
454.54	392.68
454.91	387.91
455.28	383.19
455.65	378.66
456.02	374.30
456.38	370.57
456.75	365.94
457.12	362.06
457.49	358.06
457.86	354.23
458.23	351.00
458.59	347.61
458.96	344.09
459.33	341.05
459.70	338.01
460.07	335.49
460.43	332.49
460.80	329.88
461.17	327.40
461.54	324.93
461.91	322.59
462.27	320.20
462.64	318.10
463.01	315.85
463.38	313.78
463.74	311.55
464.11	309.60
464.48	307.92
464.85	306.08
465.21	304.78
465.58	303.39
465.95	301.67
466.32	300.12
466.68	298.69
467.05	297.23
467.42	295.75
467.78	294.28
468.15	292.90
468.52	291.89
468.88	290.72
469.25	289.51
469.62	288.54
469.98	287.60
470.35	286.77
470.72	285.92
471.08	284.87
471.45	284.05
471.82	283.24
472.18	282.34
472.55	281.74
472.92	280.97
473.28	280.30
473.65	279.71
474.02	279.10
474.38	278.63
474.75	278.28
475.11	277.81
475.48	277.53
475.85	277.38
476.21	277.23
476.58	277.06
476.94	277.04
477.31	276.92
477.67	276.78
478.04	276.80
478.41	276.92
478.77	277.28
479.14	277.40
479.50	277.79
479.87	278.14
480.23	278.57
480.60	278.84
480.96	279.34
481.33	280.07
481.69	280.74
482.06	281.30
482.42	281.98
482.79	282.82
483.15	283.63
483.52	284.57
483.88	285.46
484.25	286.44
484.61	287.45
484.98	288.63
485.34	290.01
485.71	291.35
486.07	292.70
486.44	294.01
486.80	295.49
487.17	296.96
487.53	298.76
487.90	300.46
488.26	302.58
488.62	304.62
488.99	306.48
489.35	308.65
489.72	311.01
490.08	313.40
490.44	315.86
490.81	318.49
491.17	321.10
491.54	324.04
491.90	327.11
492.26	330.33
492.63	333.66
492.99	337.09
493.36	340.68
493.72	344.56
494.08	348.66
494.45	352.96
494.81	357.49
495.17	362.00
495.54	366.97
495.90	371.88
496.26	377.03
496.63	382.60
496.99	388.28
497.35	394.24
497.72	400.59
498.08	407.09
498.44	413.83
498.80	421.08
499.17	428.44
499.53	436.13
499.89	444.13
500.26	452.20
500.62	460.48
500.98	469.31
501.34	478.40
501.71	487.82
502.07	497.55
502.43	507.50
502.79	517.73
503.16	528.34
503.52	539.33
503.88	550.50
504.24	562.12
504.60	574.02
504.97	586.42
505.33	598.81
505.69	612.09
506.05	625.60
506.41	639.07
506.78	652.91
507.14	667.21
507.50	681.70
507.86	696.82
508.22	712.33
508.59	728.04
508.95	744.20
509.31	760.52
509.67	777.17
510.03	794.25
510.39	811.98
510.75	829.90
511.12	848.00
511.48	866.50
511.84	885.34
512.20	904.25
512.56	923.59
512.92	943.42
513.28	963.02
513.64	982.77
514.00	1003.12
514.37	1023.55
514.73	1044.25
515.09	1065.13
515.45	1086.16
515.81	1107.62
516.17	1129.08
516.53	1150.40
516.89	1172.12
517.25	1193.79
517.61	1215.65
517.97	1237.12
518.33	1258.73
518.69	1280.59
519.05	1302.86
519.41	1325.33
519.77	1348.00
520.13	1370.19
520.49	1392.25
520.85	1414.93
521.21	1437.74
521.57	1460.74
521.93	1483.12
522.29	1506.05
522.65	1528.80
523.01	1551.51
523.37	1573.60
523.73	1595.97
524.09	1618.50
524.45	1640.96
524.81	1663.80
525.17	1686.16
525.53	1709.02
525.89	1731.71
526.25	1754.19
526.61	1775.49
526.97	1797.32
527.33	1818.74
527.68	1840.57
528.04	1861.93
528.40	1882.10
528.76	1903.17
529.12	1923.95
529.48	1945.45
529.84	1965.98
530.20	1986.65
530.56	2007.20
530.91	2028.26
531.27	2048.96
531.63	2069.24
531.99	2089.10
532.35	2108.21
532.71	2127.74
533.07	2147.27
533.42	2165.82
533.78	2184.80
534.14	2203.78
534.50	2220.96
534.86	2239.39
535.21	2255.95
535.57	2274.02
535.93	2292.26
536.29	2309.29
536.65	2326.12
537.00	2341.94
537.36	2357.81
537.72	2373.30
538.08	2388.69
538.44	2404.01
538.79	2419.79
539.15	2434.92
539.51	2449.85
539.87	2465.84
540.22	2480.48
540.58	2495.79
540.94	2510.70
541.29	2523.74
541.65	2536.08
542.01	2549.76
542.37	2561.52
542.72	2574.35
543.08	2585.72
543.44	2597.59
543.79	2607.82
544.15	2618.29
544.51	2629.64
544.87	2640.61
545.22	2649.99
545.58	2658.75
545.94	2666.19
546.29	2672.22
546.65	2678.82
547.01	2685.22
547.36	2690.82
547.72	2696.24
548.07	2700.24
548.43	2703.87
548.79	2708.23
549.14	2712.85
549.50	2717.24
549.86	2721.83
550.21	2725.91
550.57	2730.35
550.92	2733.20
551.28	2736.16
551.64	2738.95
551.99	2741.26
552.35	2742.89
552.70	2745.88
553.06	2748.85
553.41	2752.32
553.77	2755.94
554.13	2758.27
554.48	2760.41
554.84	2761.80
555.19	2762.85
555.55	2763.57
555.90	2764.77
556.26	2765.50
556.61	2765.95
556.97	2764.67
557.32	2764.47
557.68	2763.04
558.03	2761.57
558.39	2760.06
558.74	2760.20
559.10	2759.02
559.45	2757.37
559.81	2756.25
560.16	2753.59
560.52	2751.12
560.87	2747.94
561.23	2744.11
561.58	2741.97
561.94	2738.95
562.29	2735.53
562.64	2732.95
563.00	2730.52
563.35	2728.11
563.71	2726.28
564.06	2724.34
564.42	2722.70
564.77	2720.37
565.12	2718.80
565.48	2715.72
565.83	2712.82
566.19	2709.32
566.54	2705.10
566.89	2701.55
567.25	2697.93
567.60	2694.90
567.96	2691.41
568.31	2687.93
568.66	2683.80
569.02	2678.97
569.37	2674.20
569.72	2670.13
570.08	2665.02
570.43	2659.35
570.78	2653.56
571.14	2647.08
571.49	2640.25
571.84	2634.29
572.20	2627.10
572.55	2620.30
572.90	2613.61
573.26	2606.71
573.61	2599.59
573.96	2593.14
574.31	2584.95
574.67	2576.91
575.02	2568.41
575.37	2559.81
575.72	2550.91
576.08	2543.54
576.43	2534.64
576.78	2526.48
577.13	2518.57
577.49	2510.49
577.84	2502.63
578.19	2495.11
578.54	2487.76
578.90	2480.80
579.25	2471.93
579.60	2462.76
579.95	2453.35
580.30	2445.00
580.66	2436.65
581.01	2427.15
581.36	2417.54
581.71	2409.39
582.06	2400.80
582.42	2392.12
582.77	2382.84
583.12	2373.95
583.47	2365.35
583.82	2356.98
584.17	2347.31
584.53	2338.03
584.88	2329.20
585.23	2319.82
585.58	2310.10
585.93	2300.05
586.28	2290.77
586.63	2281.88
586.98	2273.51
587.34	2265.20
587.69	2255.84
588.04	2246.80
588.39	2238.84
588.74	2230.30
589.09	2221.33
589.44	2211.30
589.79	2202.94
590.14	2195.05
590.49	2186.37
590.84	2176.96
591.19	2168.72
591.54	2160.54
591.89	2150.15
592.25	2140.84
592.60	2131.46
592.95	2122.16
593.30	2112.73
593.65	2102.83
594.00	2093.03
594.35	2084.62
594.70	2075.53
595.05	2066.81
595.40	2057.62
595.75	2047.45
596.10	2039.04
596.45	2030.41
596.80	2022.75
597.15	2013.91
597.50	2004.54
597.85	1995.93
598.19	1987.29
598.54	1978.60
598.89	1970.53
599.24	1964.06
599.59	1956.63
599.94	1949.35
600.29	1940.95
600.64	1932.81
600.99	1924.08
601.34	1916.63
601.69	1907.47
602.04	1898.99
602.39	1890.64
602.74	1882.84
603.08	1876.46
603.43	1869.00
603.78	1860.64
604.13	1852.74
604.48	1845.02
604.83	1838.23
605.18	1831.18
605.53	1823.35
605.87	1815.56
606.22	1808.15
606.57	1799.86
606.92	1791.57
607.27	1783.38
607.62	1776.20
607.96	1769.16
608.31	1763.21
608.66	1755.19
609.01	1747.74
609.36	1739.73
609.70	1731.55
610.05	1723.52
610.40	1714.81
610.75	1706.17
611.10	1698.52
611.44	1688.80
611.79	1679.36
612.14	1669.64
612.49	1659.86
612.83	1651.12
613.18	1641.07
613.53	1631.23
613.88	1621.32
614.22	1612.00
614.57	1602.49
614.92	1593.05
615.27	1583.73
615.61	1573.54
615.96	1564.64
616.31	1556.05
616.65	1548.10
617.00	1539.72
617.35	1531.10
617.70	1522.41
618.04	1513.17
618.39	1503.76
618.74	1495.44
619.08	1486.93
619.43	1478.62
619.78	1470.73
620.12	1462.71
620.47	1455.39
620.82	1446.96
621.16	1438.75
621.51	1430.09
621.85	1421.71
622.20	1412.98
622.55	1404.47
622.89	1396.15
623.24	1387.94
623.59	1379.00
623.93	1370.32
624.28	1362.10
624.62	1353.94
624.97	1345.38
625.32	1337.49
625.66	1330.01
626.01	1322.67
626.35	1315.31
626.70	1307.48
627.04	1299.95
627.39	1291.80
627.73	1284.06
628.08	1277.18
628.43	1269.55
628.77	1262.50
629.12	1255.05
629.46	1248.40
629.81	1240.99
630.15	1233.51
630.50	1226.28
630.84	1219.19
631.19	1211.86
631.53	1204.76
631.88	1196.80
632.22	1189.34
632.57	1182.32
632.91	1174.66
633.26	1167.05
633.60	1159.70
633.95	1152.70
634.29	1145.30
634.64	1138.68
634.98	1131.50
635.32	1124.27
635.67	1117.90
636.01	1111.21
636.36	1104.39
636.70	1097.72
637.05	1091.17
637.39	1084.85
637.73	1078.33
638.08	1072.42
638.42	1066.51
638.77	1059.82
639.11	1053.67
639.45	1047.58
639.80	1040.99
640.14	1034.80
640.49	1028.56
640.83	1022.24
641.17	1016.10
641.52	1009.86
641.86	1003.13
642.20	996.87
642.55	990.02
642.89	983.38
643.23	976.64
643.58	970.95
643.92	964.36
644.26	958.01
644.61	951.87
644.95	945.79
645.29	939.22
645.64	932.35
645.98	926.13
646.32	920.34
646.66	914.02
647.01	907.98
647.35	901.99
647.69	895.87
648.04	889.91
648.38	883.75
648.72	877.65
649.06	871.60
649.41	865.37
649.75	859.48
650.09	853.76
650.43	848.04
650.78	841.64
651.12	835.53
651.46	829.78
651.80	823.75
652.14	817.63
652.49	811.61
652.83	805.82
653.17	799.80
653.51	793.72
653.85	788.11
654.20	782.20
654.54	776.28
654.88	770.64
655.22	764.70
655.56	758.71
655.90	752.92
656.25	747.29
656.59	741.82
656.93	736.53
657.27	731.29
657.61	725.59
657.95	720.41
658.29	715.16
658.64	710.08
658.98	704.90
659.32	699.49
659.66	694.29
660.00	688.98
660.34	683.82
660.68	678.71
661.02	673.40
661.36	668.56
661.70	663.68
662.05	658.90
662.39	654.52
662.73	650.07
663.07	645.62
663.41	641.28
663.75	636.73
664.09	632.08
664.43	627.24
664.77	622.99
665.11	618.50
665.45	614.05
665.79	609.46
666.13	604.89
666.47	600.68
666.81	596.53
667.15	592.43
667.49	588.38
667.83	584.29
668.17	580.55
668.51	576.69
668.85	572.79
669.19	569.01
669.53	565.03
669.87	561.07
670.21	557.14
670.55	553.09
670.89	549.60
671.23	546.23
671.57	542.73
671.91	538.99
672.25	535.40
672.58	531.91
672.92	528.45
673.26	525.38
673.60	522.09
673.94	518.73
674.28	515.48
674.62	512.35
674.96	509.14
675.30	505.93
675.64	502.74
675.97	499.69
676.31	496.59
676.65	493.73
676.99	490.96
677.33	487.92
677.67	484.96
678.01	481.79
678.34	478.71
678.68	475.81
679.02	472.92
679.36	470.14
679.70	467.36
680.04	464.52
680.37	461.46
680.71	458.61
681.05	455.93
681.39	453.22
681.73	450.55
682.06	447.94
682.40	445.35
682.74	442.73
683.08	440.15
683.42	437.53
683.75	434.86
684.09	432.22
684.43	429.96
684.77	427.39
685.10	424.83
685.44	422.29
685.78	419.72
686.12	417.52
686.45	414.98
686.79	412.61
687.13	410.31
687.46	408.13
687.80	405.86
688.14	403.48
688.48	401.35
688.81	399.00
689.15	396.81
689.49	394.50
689.82	392.23
690.16	389.79
690.50	387.44
690.83	385.17
691.17	383.07
691.51	380.72
691.84	378.65
692.18	376.70
692.52	374.75
692.85	372.84
693.19	370.83
693.52	368.98
693.86	367.03
694.20	365.18
694.53	363.24
694.87	361.31
695.21	359.39
695.54	357.40
695.88	355.53
696.21	353.64
696.55	351.91
696.88	350.22
697.22	348.68
697.56	347.17
697.89	345.47
698.23	343.73
698.56	342.12
698.90	340.54
699.23	338.82
699.57	337.18
699.90	335.52
700.24	333.90
700.58	332.27
700.91	330.65
701.25	329.13
701.58	327.63
701.92	326.18
702.25	324.85
702.59	323.45
702.92	322.07
703.26	320.68
703.59	319.35
703.93	318.05
704.26	316.65
704.60	315.25
704.93	314.08
705.26	312.82
705.60	311.64
705.93	310.37
706.27	309.22
706.60	308.13
706.94	307.08
707.27	305.90
707.61	304.74
707.94	303.61
708.27	302.38
708.61	301.29
708.94	300.17
709.28	299.06
709.61	297.94
709.94	296.99
710.28	296.01
710.61	294.98
710.95	293.83
711.28	292.93
711.61	291.85
711.95	290.81
712.28	289.73
712.61	288.61
712.95	287.72
713.28	286.77
713.61	285.67
713.95	284.63
714.28	283.63
714.61	282.69
714.95	281.81
715.28	280.86
715.61	279.84
715.95	278.92
716.28	278.03
716.61	277.24
716.95	276.38
717.28	275.43
717.61	274.61
717.94	273.80
718.28	272.77
718.61	272.05
718.94	271.26
719.27	270.55
719.61	269.85
719.94	269.11
720.27	268.35
720.60	267.66
720.94	266.93
721.27	266.37
721.60	265.78
721.93	265.21
722.27	264.63
722.60	264.12
722.93	263.50
723.26	262.92
723.59	262.24
723.93	261.59
724.26	261.04
724.59	260.46
724.92	259.84
725.25	259.49
725.59	258.96
725.92	258.42
726.25	257.92
726.58	257.49
726.91	256.97
727.24	256.46
727.57	256.08
727.91	255.59
728.24	255.08
728.57	254.50
728.90	254.01
729.23	253.57
729.56	253.21
729.89	252.74
730.22	252.20
730.55	251.77
730.89	251.34
731.22	250.88
731.55	250.40
731.88	250.06
732.21	249.42
732.54	248.92
732.87	248.44
733.20	247.95
733.53	247.48
733.86	247.09
734.19	246.64
734.52	246.14
734.85	245.91
735.18	245.50
735.51	245.26
735.84	244.73
736.17	244.33
736.50	243.82
736.83	243.74
737.16	243.42
737.49	242.99
737.82	242.59
738.15	242.21
738.48	241.80
738.81	241.34
739.14	241.12
739.47	240.81
739.80	240.48
740.13	240.23
740.46	239.85
740.79	239.50
741.12	239.22
741.45	238.89
741.78	238.41
742.11	238.06
742.44	237.67
742.77	237.53
743.10	237.21
743.43	236.96
743.75	236.36
744.08	236.32
744.41	236.01
744.74	235.72
745.07	235.43
745.40	235.17
745.73	235.04
746.06	234.71
746.39	234.42
746.71	234.15
747.04	233.79
747.37	233.55
747.70	233.24
748.03	232.98
748.36	232.79
748.68	232.63
749.01	232.38
749.34	232.12
749.67	231.80
750.00	231.58
750.33	231.35
750.65	231.14
750.98	230.69
751.31	230.52
751.64	230.27
751.97	230.15
752.29	229.92
752.62	229.58
752.95	229.31
753.28	228.99
753.60	228.73
753.93	228.50
754.26	228.28
754.59	228.06
754.91	227.74
755.24	227.51
755.57	227.24
755.90	227.00
756.22	226.74
756.55	226.54
756.88	226.28
757.20	225.94
757.53	225.72
757.86	225.44
758.19	225.29
758.51	225.16
758.84	224.82
759.17	224.65
759.49	224.46
759.82	224.36
760.15	224.33
760.47	224.08
760.80	223.91
761.13	223.76
761.45	223.55
761.78	223.45
762.11	223.27
762.43	223.09
762.76	222.93
763.08	222.86
763.41	222.70
763.74	222.54
764.06	222.48
764.39	222.35
764.71	222.17
765.04	221.96
765.37	221.75
765.69	221.67
766.02	221.54
766.34	221.41
766.67	221.21
767.00	221.15
767.32	221.21
767.65	221.24
767.97	221.12
768.30	221.04
768.62	220.89
768.95	220.80
769.27	220.68
769.60	220.61
769.92	220.46
770.25	220.33
770.57	220.23
770.90	220.11
771.22	219.95
771.55	219.91
771.87	219.77
772.20	219.64
772.52	219.65
772.85	219.73
773.17	219.64
773.50	219.55
773.82	219.35
774.15	219.20
774.47	218.94
774.80	218.86
775.12	218.75
775.45	218.65
775.77	218.54
776.09	218.48
776.42	218.43
776.74	218.30
777.07	218.20
777.39	218.19
777.72	218.13
778.04	218.09
778.36	218.04
778.69	218.09
779.01	218.10
779.33	217.91
779.66	217.63
779.98	217.54
780.31	217.49
780.63	217.51
780.95	217.46
781.28	217.43
781.60	217.28
781.92	217.27
782.25	217.23
782.57	217.15
782.89	217.03
783.22	216.93
783.54	216.86
783.86	216.84
784.19	216.74
784.51	216.71
784.83	216.65
785.16	216.50
785.48	216.34
785.80	216.24
786.12	216.26
786.45	216.28
786.77	216.30
787.09	216.21
787.42	216.05
787.74	215.95
788.06	215.89
788.38	215.88
788.71	215.78
789.03	215.74
789.35	215.67
789.67	215.56
789.99	215.51
790.32	215.52
790.64	215.46
790.96	215.55
791.28	215.45
791.61	215.35
791.93	215.34
792.25	215.32
792.57	215.39
792.89	215.22
793.21	215.10
793.54	215.02
793.86	214.99
794.18	214.96
794.50	214.90
794.82	214.85
795.14	214.87
795.47	214.85
795.79	214.77
796.11	214.76
796.43	214.76
796.75	214.70
797.07	214.66
797.39	214.66
797.71	214.50
798.04	214.48
798.36	214.49
798.68	214.47
799.00	214.40
799.32	214.26
799.64	214.29
799.96	214.27
800.28	214.23
800.60	214.17
800.92	214.15
801.24	214.13
801.56	214.15
801.89	214.03
802.21	213.96
802.53	213.98
802.85	213.93
803.17	213.98
803.49	213.93
803.81	213.82
804.13	213.67
804.45	213.63
804.77	213.62
805.09	213.54
805.41	213.50
805.73	213.50
806.05	213.50
806.37	213.45
806.69	213.44
807.01	213.42
807.33	213.39
807.65	213.36
807.97	213.46
808.28	213.35
808.60	213.35
808.92	213.34
809.24	213.38
809.56	213.37
809.88	213.27
810.20	213.29
810.52	213.29
810.84	213.24
811.16	213.20
811.48	213.06
811.80	213.18
812.12	213.19
812.43	213.12
812.75	213.08
813.07	213.09
813.39	213.06
813.71	213.03
814.03	213.02
814.35	212.99
814.67	212.92
814.98	212.91
815.30	212.88
815.62	212.83
815.94	212.76
816.26	212.73
816.58	212.72
816.89	212.69
817.21	212.69
817.53	212.80
817.85	212.79
818.17	212.83
818.48	212.71
818.80	212.64
819.12	212.64
819.44	212.65
819.76	212.60
820.07	212.65
820.39	212.69
820.71	212.71
821.03	212.65
821.34	212.59
821.66	212.68
821.98	212.73
822.30	212.74
822.61	212.81
822.93	212.85
823.25	212.83
823.57	212.83
823.88	212.86
824.20	212.78
824.52	212.80
824.83	212.82
825.15	212.80
825.47	212.88
825.79	212.96
826.10	212.95
826.42	212.97
826.74	212.97
827.05	212.85
827.37	212.83
827.69	212.84
828.00	212.83
828.32	212.79
828.64	212.73
828.95	212.80
829.27	212.75
829.58	212.74
829.90	212.76
830.22	212.75
830.53	212.75
830.85	212.77
831.17	212.68
831.48	212.63
831.80	212.63
832.11	212.60
832.43	212.53
832.75	212.52
833.06	212.55
833.38	212.47
833.69	212.58
834.01	212.61
834.32	212.60
834.64	212.60
834.96	212.52
835.27	212.49
835.59	212.39
835.90	212.39
836.22	212.35
836.53	212.31
836.85	212.29
837.16	212.47
837.48	212.42
837.79	212.49
838.11	212.53
838.42	212.58
838.74	212.57
839.05	212.61
839.37	212.53
839.68	212.48
840.00	212.48
840.31	212.46
840.63	212.42
840.94	212.41
841.26	212.42
841.57	212.51
841.88	212.60
842.20	212.55
842.51	212.44
842.83	212.48
843.14	212.67
843.46	212.63
843.77	212.44
844.08	212.51
844.40	212.48
844.71	212.49
845.03	212.49
845.34	212.45
845.65	212.41
845.97	212.44
846.28	212.39
846.60	212.36
846.91	212.28
847.22	212.27
847.54	212.27
847.85	212.20
848.16	212.07
848.48	211.99
848.79	212.08
849.10	212.23
849.42	212.20
849.73	212.01
850.04	211.99
850.36	211.95
850.67	211.91
850.98	211.88
851.30	211.85
851.61	211.73
851.92	211.79
852.23	211.79
852.55	211.79
852.86	211.81
853.17	211.81
853.49	211.86
853.80	211.85
854.11	211.93
854.42	211.94
854.74	212.01
855.05	212.04
855.36	212.00
855.67	211.90
855.99	211.95
856.30	212.11
856.61	212.13
856.92	212.13
857.23	212.10
857.55	212.16
857.86	212.14
858.17	212.24
858.48	212.20
858.79	212.16
859.11	212.18
859.42	212.18
859.73	212.21
860.04	212.16
860.35	212.10
860.66	211.95
860.98	211.95
861.29	211.94
861.60	211.92
861.91	211.91
862.22	211.90
862.53	211.83
862.84	211.58
863.16	211.65
863.47	211.64
863.78	211.60
864.09	211.60
864.40	211.64
864.71	211.58
865.02	211.52
865.33	211.54
865.64	211.53
865.95	211.48
866.27	211.56
866.58	211.60
866.89	211.65
867.20	211.65
867.51	211.63
867.82	211.62
868.13	211.65
868.44	211.61
868.75	211.62
869.06	211.62
869.37	211.70
869.68	211.66
869.99	211.63
870.30	211.66
870.61	211.65
870.92	211.64
871.23	211.63
871.54	211.66
871.85	211.67
872.16	211.68
872.47	211.74
872.78	211.63
873.09	211.60
873.40	211.61
873.71	211.60
874.02	211.61
874.33	211.52
874.64	211.41
874.95	211.42
875.26	211.38
875.56	211.37
875.87	211.38
876.18	211.34
876.49	211.50
876.80	211.53
877.11	211.44
877.42	211.44
877.73	211.44
878.04	211.34
878.35	211.35
878.66	211.36
878.96	211.26
879.27	211.24
879.58	211.21
879.89	211.12
880.20	211.17
880.51	211.17
880.82	211.21
881.12	211.30
881.43	211.25
881.74	211.20
882.05	211.15
882.36	211.12
882.67	211.13
882.97	210.96
883.28	210.90
883.59	210.92
883.90	210.91
884.21	210.95
884.51	211.04
884.82	210.97
885.13	210.95
885.44	210.97
885.74	210.97
886.05	211.02
886.36	211.09
886.67	211.11
886.98	211.19
887.28	211.19
887.59	211.15
887.90	211.10
888.20	211.07
888.51	211.17
888.82	211.18
889.13	211.15
889.43	211.25
889.74	211.29
890.05	211.24
890.35	211.21
890.66	211.22
890.97	211.20
891.28	211.22
891.58	211.23
891.89	211.24
892.20	211.21
892.50	211.14
892.81	211.10
893.12	211.04
893.42	210.99
893.73	210.99
894.04	211.04
894.34	211.10
894.65	211.10
894.95	211.06
895.26	211.06
895.57	211.18
895.87	211.05
896.18	211.01
896.48	211.04
896.79	210.99
897.10	211.04
897.40	211.01
897.71	211.04
898.01	210.97
898.32	211.05
898.63	211.12
898.93	211.15
899.24	211.25
899.54	211.24
899.85	211.22
900.15	211.23
900.46	211.20
900.76	211.24
901.07	211.32
901.38	211.31
901.68	211.32
901.99	211.19
902.29	211.21
902.60	211.25
902.90	211.27
903.21	211.26
903.51	211.19
903.82	211.19
904.12	211.15
904.43	211.17
904.73	211.17
905.03	211.19
905.34	211.37
905.64	211.28
905.95	211.31
906.25	211.37
906.56	211.43
906.86	211.39
907.17	211.41
907.47	211.42
907.77	211.45
908.08	211.41
908.38	211.49
908.69	211.56
908.99	211.60
909.30	211.59
909.60	211.65
909.90	211.72
910.21	211.67
910.51	211.64
910.81	211.70
911.12	211.65
911.42	211.55
911.73	211.37
912.03	211.39
912.33	211.41
912.64	211.33
912.94	211.30
913.24	211.29
913.55	211.27
913.85	211.15
914.15	211.17
914.46	211.20
914.76	211.18
915.06	211.14
915.37	211.05
915.67	211.04
915.97	211.05
916.27	210.95
916.58	210.99
916.88	210.98
917.18	210.92
917.49	211.09
917.79	211.07
918.09	211.04
918.39	211.07
918.70	211.05
919.00	211.10
919.30	211.10
919.60	211.06
919.91	211.06
920.21	211.18
920.51	211.11
920.81	211.05
921.12	211.08
921.42	211.05
921.72	211.15
922.02	211.17
922.32	211.10
922.63	211.15
922.93	211.25
923.23	211.25
923.53	211.26
923.83	211.08
924.13	211.12
924.44	211.14
924.74	211.18
925.04	211.14
925.34	211.12
925.64	211.11
925.94	211.19
926.24	211.28
926.55	211.25
926.85	211.33
927.15	211.40
927.45	211.34
927.75	211.43
928.05	211.40
928.35	211.35
928.65	211.44
928.95	211.40
929.26	211.24
929.56	211.29
929.86	211.28
930.16	211.29
930.46	211.28
930.76	211.34
931.06	211.27
931.36	211.24
931.66	211.27
931.96	211.22
932.26	211.24
932.56	211.16
932.86	211.16
933.16	211.10
933.46	210.99
933.76	211.01
934.06	210.96
934.36	210.98
934.66	211.01
934.96	210.95
935.26	210.92
935.56	211.02
935.86	211.00
936.16	211.01
936.46	211.03
936.76	211.02
937.06	210.96
937.36	210.94
937.66	211.01
937.96	210.97
938.26	210.93
938.56	210.91
938.86	210.89
939.16	210.91
939.46	210.90
939.76	210.99
940.06	210.95
940.35	210.83
940.65	210.78
940.95	210.73
941.25	210.72
941.55	210.79
941.85	210.80
942.15	210.89
942.45	210.90
942.75	210.81
943.04	210.80
943.34	210.80
943.64	210.78
943.94	210.72
944.24	210.72
944.54	210.74
944.84	210.71
945.13	210.64
945.43	210.62
945.73	210.62
946.03	210.59
946.33	210.55
946.62	210.58
946.92	210.59
947.22	210.63
947.52	210.68
947.82	210.64
948.11	210.64
948.41	210.47
948.71	210.40
949.01	210.46
949.31	210.52
949.60	210.50
949.90	210.53
950.20	210.55
950.50	210.53
950.79	210.60
951.09	210.64
951.39	210.67
951.69	210.63
951.98	210.64
952.28	210.69
952.58	210.70
952.87	210.66
953.17	210.70
953.47	210.72
953.76	210.65
954.06	210.65
954.36	210.62
954.66	210.67
954.95	210.76
955.25	210.75
955.55	210.65
955.84	210.61
956.14	210.61
956.44	210.61
956.73	210.62
957.03	210.54
957.32	210.56
957.62	210.54
957.92	210.50
958.21	210.49
958.51	210.67
958.81	210.75
959.10	210.87
959.40	210.85
959.69	210.85
959.99	210.82
960.29	210.81
960.58	210.78
960.88	210.77
961.17	210.68
961.47	210.73
961.76	210.78
962.06	210.88
962.36	210.85
962.65	210.89
962.95	210.93
963.24	210.97
963.54	210.94
963.83	210.97
964.13	211.03
964.42	210.97
964.72	210.77
965.01	210.70
965.31	210.67
965.60	210.61
965.90	210.67
966.19	210.74
966.49	210.79
966.78	210.78
967.08	210.87
967.37	210.95
967.67	210.83
967.96	210.81
968.26	210.76
968.55	210.80
968.85	210.75
969.14	210.69
969.43	210.63
969.73	210.62
970.02	210.62
970.32	210.60
970.61	210.63
970.91	210.62
971.20	210.63
971.49	210.56
971.79	210.59
972.08	210.55
972.38	210.56
972.67	210.60
972.96	210.54
973.26	210.50
973.55	210.55
973.85	210.62
974.14	210.64
974.43	210.66
974.73	210.68
975.02	210.72
975.31	210.75
975.61	210.76
975.90	210.75
976.19	210.69
976.49	210.75
976.78	210.80
977.07	210.82
977.37	210.89
977.66	210.93
977.95	210.93
978.24	210.90
978.54	210.87
978.83	210.81
979.12	210.95
979.42	210.96
979.71	210.92
980.00	210.92
980.29	210.98
980.59	210.99
980.88	210.99
981.17	210.99
981.46	211.02
981.76	211.07
982.05	211.06
982.34	211.08
982.63	211.01
982.93	210.95
983.22	210.95
983.51	210.90
983.80	210.90
984.09	210.92
984.39	210.96
984.68	210.98
984.97	210.96
985.26	210.88
985.55	210.83
985.85	210.76
986.14	210.78
986.43	210.73
986.72	210.69
987.01	210.65
987.30	210.55
987.59	210.55
987.89	210.54
988.18	210.61
988.47	210.66
988.76	210.62
989.05	210.65
989.34	210.68
989.63	210.69
989.92	210.68
990.22	210.65
990.51	210.55
990.80	210.56
991.09	210.50
991.38	210.48
991.67	210.47
991.96	210.57
992.25	210.63
992.54	210.57
992.83	210.54
993.12	210.53
993.41	210.64
993.70	210.61
993.99	210.63
994.28	210.61
994.58	210.58
994.87	210.54
995.16	210.51
995.45	210.46
995.74	210.46
996.03	210.49
996.32	210.48
996.61	210.52
996.90	210.51
997.19	210.61
997.48	210.60
997.77	210.57
998.06	210.48
998.34	210.38
998.63	210.44
998.92	210.49
999.21	210.57
999.50	210.50
999.79	210.48
1000.08	210.45
1000.37	210.44
1000.66	210.45
1000.95	210.53
1001.24	210.54
1001.53	210.56
1001.82	210.48
1002.11	210.46
1002.40	210.54
1002.68	210.57
1002.97	210.65
1003.26	210.66
1003.55	210.66
1003.84	210.71
1004.13	210.81
1004.42	210.83
1004.71	210.81
1004.99	210.80
1005.28	210.77
1005.57	210.87
1005.86	210.86
1006.15	210.86
1006.44	210.82
1006.72	210.85
1007.01	210.86
1007.30	210.89
1007.59	210.95
1007.88	210.97
1008.17	210.95
1008.45	210.92
1008.74	210.87
1009.03	210.80
1009.32	210.81
1009.60	210.79
1009.89	210.83
1010.18	210.75
1010.47	210.73
1010.76	210.70
1011.04	210.64
1011.33	210.65
1011.62	210.61
1011.91	210.64
1012.19	210.67
1012.48	210.71
1012.77	210.70
1013.05	210.78
1013.34	210.78
1013.63	210.69
1013.92	210.72
1014.20	210.72
1014.49	210.72
1014.78	210.75
1015.06	210.72
1015.35	210.66
1015.64	210.68
1015.92	210.65
1016.21	210.67
1016.50	210.65
1016.78	210.72
1017.07	210.78
1017.36	210.75
1017.64	210.72
1017.93	210.69
1018.22	210.66
1018.50	210.60
1018.79	210.55
1019.08	210.50
1019.36	210.46
1019.65	210.46
1019.93	210.50
1020.22	210.54
1020.51	210.65
1020.79	210.61
1021.08	210.60
1021.36	209.70
1021.65	210.00
1021.94	211.10
1022.22	209.95
1022.51	210.35
1022.79	211.45
1023.08	210.60
1023.36	213.65
1023.65	209.95
>>>>>End Processed Spectral Data<<<<<
