SpectraSuite Data File
++++++++++++++++++++++++++++++++++++
Date: Mon Feb 25 17:30:44 EST 2013
User: group
Dark Spectrum Present: No
Reference Spectrum Present: No
Number of Sampled Component Spectra: 1
Spectrometers: USB2E7196
Integration Time (usec): 52000 (USB2E7196)
Spectra Averaged: 20 (USB2E7196)
Boxcar Smoothing: 10 (USB2E7196)
Correct for Electrical Dark: No (USB2E7196)
Strobe/Lamp Enabled: No (USB2E7196)
Correct for Detector Non-linearity: No (USB2E7196)
Correct for Stray Light: No (USB2E7196)
Number of Pixels in Processed Spectrum: 2048
>>>>>Begin Processed Spectral Data<<<<<
339.09	0.00
339.48	198.15
339.86	200.45
340.24	202.20
340.63	202.00
341.01	207.35
341.39	205.50
341.78	207.65
342.16	208.00
342.54	209.00
342.93	198.22
343.31	208.23
343.69	208.78
344.07	209.30
344.46	209.75
344.84	210.21
345.22	210.45
345.60	210.72
345.99	210.99
346.37	211.17
346.75	211.24
347.13	211.32
347.52	211.44
347.90	211.51
348.28	211.46
348.66	211.58
349.05	211.49
349.43	211.60
349.81	211.67
350.19	211.74
350.57	211.80
350.96	211.90
351.34	212.07
351.72	212.23
352.10	212.30
352.48	212.40
352.87	212.45
353.25	212.52
353.63	212.61
354.01	212.58
354.39	212.64
354.77	212.70
355.15	212.78
355.54	212.82
355.92	212.94
356.30	213.06
356.68	213.16
357.06	213.26
357.44	213.24
357.82	213.27
358.20	213.36
358.58	213.43
358.97	213.48
359.35	213.47
359.73	213.53
360.11	213.53
360.49	213.57
360.87	213.65
361.25	213.65
361.63	213.75
362.01	213.81
362.39	213.89
362.77	213.95
363.15	213.98
363.53	213.99
363.91	213.93
364.29	213.89
364.67	213.73
365.05	213.74
365.43	213.73
365.81	213.74
366.19	213.82
366.57	213.83
366.95	213.80
367.33	213.74
367.71	213.73
368.09	213.74
368.47	213.69
368.85	213.60
369.23	213.65
369.61	213.54
369.99	213.55
370.37	213.55
370.75	213.63
371.13	213.56
371.51	213.50
371.89	213.53
372.27	213.62
372.65	213.57
373.03	213.55
373.41	213.52
373.78	213.51
374.16	213.38
374.54	213.31
374.92	213.29
375.30	213.28
375.68	213.21
376.06	213.16
376.44	213.05
376.82	213.06
377.19	212.98
377.57	212.89
377.95	212.80
378.33	212.78
378.71	212.65
379.09	212.60
379.47	212.62
379.84	212.55
380.22	212.42
380.60	212.40
380.98	212.35
381.36	212.32
381.73	212.21
382.11	212.24
382.49	212.30
382.87	212.25
383.25	212.24
383.62	212.34
384.00	212.35
384.38	212.36
384.76	212.38
385.13	212.44
385.51	212.49
385.89	212.44
386.27	212.31
386.64	212.31
387.02	212.25
387.40	212.21
387.78	212.17
388.15	212.13
388.53	212.12
388.91	212.15
389.29	212.12
389.66	212.21
390.04	212.17
390.42	212.12
390.79	212.06
391.17	212.01
391.55	211.81
391.92	211.72
392.30	211.70
392.68	211.55
393.05	211.42
393.43	211.34
393.81	211.42
394.18	211.38
394.56	211.30
394.94	211.42
395.31	211.37
395.69	211.45
396.06	211.50
396.44	211.50
396.82	211.43
397.19	211.52
397.57	211.47
397.95	211.49
398.32	211.47
398.70	211.54
399.07	211.63
399.45	211.68
399.82	211.75
400.20	211.81
400.58	211.87
400.95	211.86
401.33	212.03
401.70	212.14
402.08	212.26
402.45	212.40
402.83	212.52
403.20	212.57
403.58	212.60
403.95	212.72
404.33	212.82
404.71	212.92
405.08	213.10
405.46	213.22
405.83	213.30
406.21	213.41
406.58	213.51
406.96	213.65
407.33	213.85
407.70	214.00
408.08	214.26
408.45	214.49
408.83	214.83
409.20	215.01
409.58	215.11
409.95	215.35
410.33	215.73
410.70	215.95
411.08	216.33
411.45	216.76
411.82	217.11
412.20	217.55
412.57	218.07
412.95	218.32
413.32	218.85
413.69	219.42
414.07	220.00
414.44	220.68
414.82	221.22
415.19	221.96
415.56	222.73
415.94	223.46
416.31	224.42
416.68	225.27
417.06	226.27
417.43	227.27
417.81	228.38
418.18	229.35
418.55	230.47
418.93	231.68
419.30	232.92
419.67	234.38
420.04	235.78
420.42	237.28
420.79	239.09
421.16	240.78
421.54	242.55
421.91	244.29
422.28	246.14
422.66	248.20
423.03	250.21
423.40	252.24
423.77	254.41
424.15	256.53
424.52	258.77
424.89	261.26
425.26	263.72
425.64	265.97
426.01	268.52
426.38	271.14
426.75	273.89
427.13	276.65
427.50	279.41
427.87	282.43
428.24	285.31
428.61	288.08
428.99	291.30
429.36	294.64
429.73	298.15
430.10	301.53
430.47	304.99
430.85	308.53
431.22	312.38
431.59	316.52
431.96	320.29
432.33	324.58
432.70	328.60
433.08	333.39
433.45	337.97
433.82	342.42
434.19	347.41
434.56	352.26
434.93	356.94
435.30	361.61
435.68	366.84
436.05	371.95
436.42	377.12
436.79	381.55
437.16	386.57
437.53	391.61
437.90	396.72
438.27	401.66
438.64	406.76
439.01	411.50
439.38	415.64
439.75	419.77
440.13	424.47
440.50	428.86
440.87	432.34
441.24	436.11
441.61	440.34
441.98	443.37
442.35	446.87
442.72	450.31
443.09	453.70
443.46	455.57
443.83	456.97
444.20	458.05
444.57	459.82
444.94	460.48
445.31	461.25
445.68	461.97
446.05	462.25
446.42	461.72
446.79	460.95
447.16	460.15
447.53	459.62
447.90	457.51
448.27	455.42
448.64	452.71
449.01	450.50
449.37	446.91
449.74	443.50
450.11	439.59
450.48	435.33
450.85	430.88
451.22	426.98
451.59	423.40
451.96	419.83
452.33	415.23
452.70	411.02
453.07	406.04
453.43	400.99
453.80	396.12
454.17	391.42
454.54	387.10
454.91	382.48
455.28	377.92
455.65	373.67
456.02	369.55
456.38	365.85
456.75	361.45
457.12	357.72
457.49	353.95
457.86	350.23
458.23	347.10
458.59	343.65
458.96	340.26
459.33	337.13
459.70	334.05
460.07	331.54
460.43	328.78
460.80	326.29
461.17	323.99
461.54	321.66
461.91	319.38
462.27	317.05
462.64	315.00
463.01	312.76
463.38	310.65
463.74	308.44
464.11	306.64
464.48	305.04
464.85	303.24
465.21	302.02
465.58	300.55
465.95	298.78
466.32	297.41
466.68	296.07
467.05	294.79
467.42	293.47
467.78	292.12
468.15	290.79
468.52	289.79
468.88	288.42
469.25	287.30
469.62	286.41
469.98	285.43
470.35	284.54
470.72	283.75
471.08	282.88
471.45	282.24
471.82	281.53
472.18	280.66
472.55	280.17
472.92	279.41
473.28	278.86
473.65	278.40
474.02	277.80
474.38	277.45
474.75	277.05
475.11	276.70
475.48	276.44
475.85	276.26
476.21	276.05
476.58	275.95
476.94	275.90
477.31	275.90
477.67	275.90
478.04	275.98
478.41	276.12
478.77	276.48
479.14	276.63
479.50	276.85
479.87	277.28
480.23	277.68
480.60	278.03
480.96	278.48
481.33	279.12
481.69	279.83
482.06	280.40
482.42	280.99
482.79	281.72
483.15	282.63
483.52	283.69
483.88	284.65
484.25	285.79
484.61	286.81
484.98	287.93
485.34	289.29
485.71	290.67
486.07	292.07
486.44	293.35
486.80	294.83
487.17	296.39
487.53	298.07
487.90	299.76
488.26	301.70
488.62	303.77
488.99	305.72
489.35	307.82
489.72	310.04
490.08	312.49
490.44	314.96
490.81	317.45
491.17	320.00
491.54	322.87
491.90	325.75
492.26	328.96
492.63	332.23
492.99	335.64
493.36	339.19
493.72	342.96
494.08	346.93
494.45	351.16
494.81	355.64
495.17	360.11
495.54	365.05
495.90	370.11
496.26	375.24
496.63	380.74
496.99	386.42
497.35	392.43
497.72	398.62
498.08	405.12
498.44	411.79
498.80	418.95
499.17	426.28
499.53	434.04
499.89	442.06
500.26	450.11
500.62	458.37
500.98	467.19
501.34	476.23
501.71	485.77
502.07	495.34
502.43	505.24
502.79	515.59
503.16	526.08
503.52	536.84
503.88	548.15
504.24	559.64
504.60	571.44
504.97	583.56
505.33	595.96
505.69	608.99
506.05	622.45
506.41	635.89
506.78	649.47
507.14	663.34
507.50	677.69
507.86	692.53
508.22	707.71
508.59	722.93
508.95	738.84
509.31	754.65
509.67	771.12
510.03	787.74
510.39	804.94
510.75	822.56
511.12	840.39
511.48	858.36
511.84	876.75
512.20	895.30
512.56	914.47
512.92	933.71
513.28	952.96
513.64	972.51
514.00	992.25
514.37	1012.42
514.73	1033.04
515.09	1053.57
515.45	1074.02
515.81	1094.86
516.17	1116.11
516.53	1136.97
516.89	1158.31
517.25	1179.64
517.61	1201.14
517.97	1222.18
518.33	1243.15
518.69	1264.62
519.05	1286.32
519.41	1308.05
519.77	1330.18
520.13	1351.83
520.49	1373.44
520.85	1396.00
521.21	1418.15
521.57	1440.58
521.93	1462.30
522.29	1484.53
522.65	1506.69
523.01	1529.13
523.37	1550.85
523.73	1572.54
524.09	1594.51
524.45	1616.45
524.81	1638.32
525.17	1660.29
525.53	1682.62
525.89	1704.76
526.25	1726.36
526.61	1747.34
526.97	1768.60
527.33	1789.22
527.68	1810.20
528.04	1831.14
528.40	1850.52
528.76	1870.50
529.12	1890.65
529.48	1911.73
529.84	1931.55
530.20	1951.18
530.56	1970.75
530.91	1991.07
531.27	2011.16
531.63	2030.75
531.99	2049.91
532.35	2068.92
532.71	2087.33
533.07	2106.46
533.42	2124.35
533.78	2142.58
534.14	2160.46
534.50	2177.26
534.86	2195.08
535.21	2211.48
535.57	2228.48
535.93	2245.61
536.29	2262.13
536.65	2278.26
537.00	2292.95
537.36	2307.61
537.72	2322.46
538.08	2337.20
538.44	2351.76
538.79	2366.06
539.15	2380.38
539.51	2394.49
539.87	2409.14
540.22	2423.40
540.58	2437.33
540.94	2451.51
541.29	2464.16
541.65	2476.33
542.01	2488.83
542.37	2500.40
542.72	2512.05
543.08	2522.71
543.44	2534.17
543.79	2544.07
544.15	2553.86
544.51	2564.97
544.87	2575.65
545.22	2584.63
545.58	2592.96
545.94	2599.98
546.29	2606.52
546.65	2612.41
547.01	2618.28
547.36	2623.24
547.72	2628.03
548.07	2631.56
548.43	2634.76
548.79	2638.23
549.14	2642.32
549.50	2646.68
549.86	2650.24
550.21	2654.21
550.57	2658.10
550.92	2660.29
551.28	2662.73
551.64	2664.76
551.99	2666.64
552.35	2667.94
552.70	2670.40
553.06	2672.83
553.41	2675.79
553.77	2678.31
554.13	2680.17
554.48	2681.76
554.84	2683.12
555.19	2683.63
555.55	2684.24
555.90	2684.82
556.26	2685.16
556.61	2684.76
556.97	2682.97
557.32	2682.45
557.68	2680.22
558.03	2678.54
558.39	2676.95
558.74	2676.08
559.10	2674.92
559.45	2673.05
559.81	2671.87
560.16	2669.00
560.52	2666.50
560.87	2663.25
561.23	2659.26
561.58	2657.00
561.94	2654.00
562.29	2650.31
562.64	2647.79
563.00	2645.06
563.35	2642.59
563.71	2640.68
564.06	2638.56
564.42	2636.77
564.77	2634.11
565.12	2632.47
565.48	2629.16
565.83	2625.96
566.19	2622.70
566.54	2618.24
566.89	2614.04
567.25	2610.20
567.60	2606.92
567.96	2603.20
568.31	2599.41
568.66	2595.67
569.02	2590.87
569.37	2585.86
569.72	2581.87
570.08	2576.58
570.43	2571.04
570.78	2565.44
571.14	2558.90
571.49	2552.20
571.84	2545.99
572.20	2538.96
572.55	2532.47
572.90	2525.84
573.26	2519.01
573.61	2511.90
573.96	2505.75
574.31	2498.10
574.67	2490.12
575.02	2481.64
575.37	2472.97
575.72	2464.22
576.08	2456.65
576.43	2448.27
576.78	2440.49
577.13	2432.54
577.49	2424.72
577.84	2417.17
578.19	2409.30
578.54	2402.30
578.90	2395.45
579.25	2387.32
579.60	2378.51
579.95	2369.26
580.30	2361.40
580.66	2353.83
581.01	2345.13
581.36	2336.18
581.71	2328.04
582.06	2319.77
582.42	2311.72
582.77	2302.82
583.12	2294.22
583.47	2285.84
583.82	2277.69
584.17	2268.32
584.53	2259.65
584.88	2250.93
585.23	2241.84
585.58	2232.56
585.93	2223.14
586.28	2214.17
586.63	2205.55
586.98	2197.49
587.34	2189.42
587.69	2180.20
588.04	2170.83
588.39	2162.73
588.74	2153.64
589.09	2144.96
589.44	2135.69
589.79	2127.39
590.14	2119.90
590.49	2111.88
590.84	2103.19
591.19	2095.07
591.54	2086.99
591.89	2077.02
592.25	2068.22
592.60	2058.85
592.95	2049.89
593.30	2040.64
593.65	2031.16
594.00	2021.72
594.35	2013.70
594.70	2004.68
595.05	1996.52
595.40	1987.98
595.75	1978.45
596.10	1970.68
596.45	1962.64
596.80	1955.17
597.15	1947.09
597.50	1938.42
597.85	1930.27
598.19	1921.73
598.54	1913.19
598.89	1905.43
599.24	1898.87
599.59	1891.56
599.94	1885.11
600.29	1877.62
600.64	1870.03
600.99	1862.08
601.34	1855.14
601.69	1846.42
602.04	1838.87
602.39	1830.96
602.74	1823.31
603.08	1817.19
603.43	1810.27
603.78	1802.23
604.13	1794.23
604.48	1786.37
604.83	1779.34
605.18	1772.13
605.53	1765.00
605.87	1757.78
606.22	1751.27
606.57	1743.47
606.92	1735.80
607.27	1727.68
607.62	1720.67
607.96	1713.92
608.31	1707.79
608.66	1700.15
609.01	1693.05
609.36	1685.49
609.70	1677.73
610.05	1670.36
610.40	1662.26
610.75	1653.66
611.10	1646.26
611.44	1637.44
611.79	1628.82
612.14	1619.86
612.49	1610.76
612.83	1602.16
613.18	1592.62
613.53	1582.94
613.88	1573.47
614.22	1564.80
614.57	1555.68
614.92	1546.44
615.27	1537.07
615.61	1527.44
615.96	1518.83
616.31	1510.44
616.65	1502.60
617.00	1494.68
617.35	1486.29
617.70	1477.75
618.04	1469.23
618.39	1460.15
618.74	1452.08
619.08	1443.63
619.43	1435.40
619.78	1427.82
620.12	1419.80
620.47	1412.36
620.82	1404.00
621.16	1396.10
621.51	1387.76
621.85	1379.72
622.20	1371.42
622.55	1363.47
622.89	1355.36
623.24	1347.66
623.59	1339.20
623.93	1330.57
624.28	1322.43
624.62	1314.66
624.97	1306.50
625.32	1298.83
625.66	1291.89
626.01	1284.83
626.35	1277.80
626.70	1270.35
627.04	1263.04
627.39	1255.80
627.73	1248.35
628.08	1241.75
628.43	1234.62
628.77	1227.60
629.12	1220.65
629.46	1214.27
629.81	1207.42
630.15	1200.41
630.50	1193.00
630.84	1186.14
631.19	1179.40
631.53	1172.68
631.88	1164.94
632.22	1157.55
632.57	1150.87
632.91	1143.41
633.26	1136.00
633.60	1129.09
633.95	1122.49
634.29	1115.13
634.64	1108.29
634.98	1101.67
635.32	1094.90
635.67	1088.74
636.01	1082.30
636.36	1075.69
636.70	1069.10
637.05	1062.56
637.39	1056.38
637.73	1050.14
638.08	1044.33
638.42	1038.43
638.77	1031.79
639.11	1025.79
639.45	1019.96
639.80	1013.44
640.14	1007.25
640.49	1001.20
640.83	995.11
641.17	989.00
641.52	983.20
641.86	977.12
642.20	971.15
642.55	964.61
642.89	958.08
643.23	951.67
643.58	945.87
643.92	939.70
644.26	933.46
644.61	927.42
644.95	921.50
645.29	915.20
645.64	908.74
645.98	902.88
646.32	897.10
646.66	891.16
647.01	885.48
647.35	879.80
647.69	873.63
648.04	867.86
648.38	861.96
648.72	856.19
649.06	850.17
649.41	843.98
649.75	838.54
650.09	832.82
650.43	827.09
650.78	820.96
651.12	815.03
651.46	809.58
651.80	803.91
652.14	797.91
652.49	792.24
652.83	786.70
653.17	780.82
653.51	775.08
653.85	769.38
654.20	763.58
654.54	757.77
654.88	752.49
655.22	746.63
655.56	740.80
655.90	734.79
656.25	729.28
656.59	724.11
656.93	718.81
657.27	713.70
657.61	708.24
657.95	703.23
658.29	698.19
658.64	693.12
658.98	687.96
659.32	682.80
659.66	677.70
660.00	672.50
660.34	667.36
660.68	662.34
661.02	657.46
661.36	652.75
661.70	648.10
662.05	643.42
662.39	639.15
662.73	635.06
663.07	631.01
663.41	626.66
663.75	622.19
664.09	617.51
664.43	612.92
664.77	608.84
665.11	604.51
665.45	600.25
665.79	595.79
666.13	591.46
666.47	587.52
666.81	583.51
667.15	579.51
667.49	575.83
667.83	572.03
668.17	568.21
668.51	564.50
668.85	560.82
669.19	557.14
669.53	553.27
669.87	549.22
670.21	545.51
670.55	541.70
670.89	538.35
671.23	535.00
671.57	531.59
671.91	528.04
672.25	524.63
672.58	521.20
672.92	517.92
673.26	514.99
673.60	511.70
673.94	508.46
674.28	505.16
674.62	502.10
674.96	499.07
675.30	496.06
675.64	492.99
675.97	489.87
676.31	487.04
676.65	484.04
676.99	481.55
677.33	478.55
677.67	475.82
678.01	472.80
678.34	469.97
678.68	467.17
679.02	464.26
679.36	461.40
679.70	458.59
680.04	455.86
680.37	452.81
680.71	450.10
681.05	447.49
681.39	444.98
681.73	442.36
682.06	439.69
682.40	437.11
682.74	434.40
683.08	431.93
683.42	429.15
683.75	426.65
684.09	424.01
684.43	421.66
684.77	419.19
685.10	416.75
685.44	414.24
685.78	411.80
686.12	409.64
686.45	407.51
686.79	405.26
687.13	403.15
687.46	401.05
687.80	398.84
688.14	396.58
688.48	394.42
688.81	392.21
689.15	390.12
689.49	388.03
689.82	385.90
690.16	383.68
690.50	381.47
690.83	379.41
691.17	377.24
691.51	374.98
691.84	372.80
692.18	370.71
692.52	368.95
692.85	367.17
693.19	365.22
693.52	363.26
693.86	361.41
694.20	359.45
694.53	357.58
694.87	355.81
695.21	353.95
695.54	352.00
695.88	350.10
696.21	348.27
696.55	346.56
696.88	344.92
697.22	343.25
697.56	341.69
697.89	340.14
698.23	338.48
698.56	336.97
698.90	335.56
699.23	333.98
699.57	332.31
699.90	330.82
700.24	329.25
700.58	327.73
700.91	326.23
701.25	324.89
701.58	323.57
701.92	322.12
702.25	320.78
702.59	319.51
702.92	318.34
703.26	316.97
703.59	315.68
703.93	314.55
704.26	313.33
704.60	312.21
704.93	310.91
705.26	309.76
705.60	308.60
705.93	307.32
706.27	306.20
706.60	305.10
706.94	303.91
707.27	302.76
707.61	301.61
707.94	300.46
708.27	299.23
708.61	298.04
708.94	296.95
709.28	295.80
709.61	294.75
709.94	293.66
710.28	292.63
710.61	291.66
710.95	290.47
711.28	289.55
711.61	288.43
711.95	287.41
712.28	286.44
712.61	285.54
712.95	284.66
713.28	283.75
713.61	282.79
713.95	281.83
714.28	281.04
714.61	280.01
714.95	279.21
715.28	278.25
715.61	277.32
715.95	276.46
716.28	275.60
716.61	274.80
716.95	273.90
717.28	273.15
717.61	272.35
717.94	271.67
718.28	270.83
718.61	270.22
718.94	269.55
719.27	268.78
719.61	268.08
719.94	267.37
720.27	266.64
720.60	265.92
720.94	265.28
721.27	264.55
721.60	264.09
721.93	263.46
722.27	262.99
722.60	262.50
722.93	261.81
723.26	261.28
723.59	260.64
723.93	260.09
724.26	259.48
724.59	258.85
724.92	258.18
725.25	257.62
725.59	256.98
725.92	256.48
726.25	256.01
726.58	255.46
726.91	255.00
727.24	254.50
727.57	254.09
727.91	253.52
728.24	253.04
728.57	252.42
728.90	252.01
729.23	251.38
729.56	250.97
729.89	250.58
730.22	250.12
730.55	249.64
730.89	249.20
731.22	248.80
731.55	248.38
731.88	247.90
732.21	247.49
732.54	247.07
732.87	246.63
733.20	246.18
733.53	245.70
733.86	245.22
734.19	244.84
734.52	244.40
734.85	244.07
735.18	243.74
735.51	243.50
735.84	243.02
736.17	242.80
736.50	242.38
736.83	242.28
737.16	241.86
737.49	241.60
737.82	241.23
738.15	240.89
738.48	240.57
738.81	240.28
739.14	239.90
739.47	239.55
739.80	239.15
740.13	238.86
740.46	238.58
740.79	238.23
741.12	237.86
741.45	237.59
741.78	237.28
742.11	237.01
742.44	236.74
742.77	236.46
743.10	236.09
743.43	235.71
743.75	235.16
744.08	235.16
744.41	234.79
744.74	234.48
745.07	234.09
745.40	233.87
745.73	233.70
746.06	233.53
746.39	233.30
746.71	233.02
747.04	232.74
747.37	232.46
747.70	232.23
748.03	232.00
748.36	231.74
748.68	231.48
749.01	231.12
749.34	230.87
749.67	230.72
750.00	230.53
750.33	230.40
750.65	230.17
750.98	229.74
751.31	229.52
751.64	229.29
751.97	229.21
752.29	228.92
752.62	228.60
752.95	228.28
753.28	227.98
753.60	227.86
753.93	227.71
754.26	227.55
754.59	227.32
754.91	227.09
755.24	226.85
755.57	226.68
755.90	226.51
756.22	226.31
756.55	226.11
756.88	225.95
757.20	225.68
757.53	225.47
757.86	225.34
758.19	225.20
758.51	225.06
758.84	224.87
759.17	224.76
759.49	224.64
759.82	224.57
760.15	224.57
760.47	224.29
760.80	223.99
761.13	223.84
761.45	223.65
761.78	223.54
762.11	223.43
762.43	223.19
762.76	223.05
763.08	222.95
763.41	222.75
763.74	222.59
764.06	222.38
764.39	222.30
764.71	222.13
765.04	222.02
765.37	221.88
765.69	221.68
766.02	221.49
766.34	221.33
766.67	221.16
767.00	221.00
767.32	221.06
767.65	221.11
767.97	220.97
768.30	220.89
768.62	220.83
768.95	220.74
769.27	220.68
769.60	220.62
769.92	220.46
770.25	220.30
770.57	220.15
770.90	220.12
771.22	219.96
771.55	219.82
771.87	219.69
772.20	219.56
772.52	219.61
772.85	219.75
773.17	219.70
773.50	219.56
773.82	219.49
774.15	219.29
774.47	219.10
774.80	219.01
775.12	218.95
775.45	218.80
775.77	218.60
776.09	218.55
776.42	218.43
776.74	218.34
777.07	218.31
777.39	218.24
777.72	218.17
778.04	218.17
778.36	218.13
778.69	218.05
779.01	217.93
779.33	217.76
779.66	217.46
779.98	217.42
780.31	217.37
780.63	217.36
780.95	217.40
781.28	217.31
781.60	217.27
781.92	217.28
782.25	217.23
782.57	217.32
782.89	217.23
783.22	217.25
783.54	217.13
783.86	217.08
784.19	217.02
784.51	216.97
784.83	216.90
785.16	216.83
785.48	216.80
785.80	216.83
786.12	216.75
786.45	216.65
786.77	216.57
787.09	216.49
787.42	216.29
787.74	216.19
788.06	216.18
788.38	216.08
788.71	215.94
789.03	215.90
789.35	215.87
789.67	215.81
789.99	215.70
790.32	215.69
790.64	215.69
790.96	215.76
791.28	215.70
791.61	215.66
791.93	215.51
792.25	215.41
792.57	215.54
792.89	215.43
793.21	215.46
793.54	215.43
793.86	215.40
794.18	215.38
794.50	215.24
794.82	215.15
795.14	215.20
795.47	215.21
795.79	215.15
796.11	215.08
796.43	215.01
796.75	214.99
797.07	214.88
797.39	214.80
797.71	214.62
798.04	214.55
798.36	214.48
798.68	214.52
799.00	214.48
799.32	214.34
799.64	214.37
799.96	214.32
800.28	214.31
800.60	214.23
800.92	214.20
801.24	214.24
801.56	214.19
801.89	214.03
802.21	213.98
802.53	213.91
802.85	213.83
803.17	213.91
803.49	213.81
803.81	213.83
804.13	213.75
804.45	213.80
804.77	213.86
805.09	213.83
805.41	213.82
805.73	213.85
806.05	213.78
806.37	213.71
806.69	213.66
807.01	213.63
807.33	213.67
807.65	213.62
807.97	213.68
808.28	213.69
808.60	213.68
808.92	213.60
809.24	213.76
809.56	213.70
809.88	213.60
810.20	213.63
810.52	213.58
810.84	213.55
811.16	213.41
811.48	213.30
811.80	213.34
812.12	213.26
812.43	213.27
812.75	213.24
813.07	213.23
813.39	213.24
813.71	213.19
814.03	213.07
814.35	213.12
814.67	212.90
814.98	212.93
815.30	212.98
815.62	212.97
815.94	212.78
816.26	212.75
816.58	212.74
816.89	212.72
817.21	212.72
817.53	212.73
817.85	212.72
818.17	212.69
818.48	212.63
818.80	212.69
819.12	212.65
819.44	212.61
819.76	212.56
820.07	212.56
820.39	212.50
820.71	212.59
821.03	212.60
821.34	212.65
821.66	212.62
821.98	212.58
822.30	212.52
822.61	212.60
822.93	212.59
823.25	212.51
823.57	212.49
823.88	212.62
824.20	212.61
824.52	212.65
824.83	212.66
825.15	212.55
825.47	212.46
825.79	212.43
826.10	212.36
826.42	212.31
826.74	212.35
827.05	212.40
827.37	212.36
827.69	212.25
828.00	212.26
828.32	212.22
828.64	212.21
828.95	212.38
829.27	212.34
829.58	212.31
829.90	212.34
830.22	212.37
830.53	212.34
830.85	212.30
831.17	212.24
831.48	212.32
831.80	212.36
832.11	212.37
832.43	212.44
832.75	212.51
833.06	212.62
833.38	212.53
833.69	212.50
834.01	212.46
834.32	212.45
834.64	212.44
834.96	212.45
835.27	212.49
835.59	212.43
835.90	212.34
836.22	212.42
836.53	212.43
836.85	212.34
837.16	212.38
837.48	212.40
837.79	212.48
838.11	212.46
838.42	212.48
838.74	212.48
839.05	212.43
839.37	212.35
839.68	212.25
840.00	212.22
840.31	212.24
840.63	212.25
840.94	212.20
841.26	212.13
841.57	212.18
841.88	212.10
842.20	212.04
842.51	212.07
842.83	212.02
843.14	212.16
843.46	212.15
843.77	212.05
844.08	212.01
844.40	211.99
844.71	211.96
845.03	211.89
845.34	211.91
845.65	211.84
845.97	211.87
846.28	211.86
846.60	211.90
846.91	211.90
847.22	211.92
847.54	212.02
847.85	212.08
848.16	211.99
848.48	211.94
848.79	211.97
849.10	211.97
849.42	212.00
849.73	211.84
850.04	211.94
850.36	211.89
850.67	211.94
850.98	211.88
851.30	211.89
851.61	211.89
851.92	211.87
852.23	211.86
852.55	211.90
852.86	211.96
853.17	211.96
853.49	211.96
853.80	211.97
854.11	212.01
854.42	212.02
854.74	212.00
855.05	212.08
855.36	212.03
855.67	212.08
855.99	212.07
856.30	212.23
856.61	212.16
856.92	212.18
857.23	212.12
857.55	212.15
857.86	212.12
858.17	212.20
858.48	212.18
858.79	212.19
859.11	212.21
859.42	212.21
859.73	212.22
860.04	212.22
860.35	212.13
860.66	212.07
860.98	212.07
861.29	212.16
861.60	212.16
861.91	212.18
862.22	212.15
862.53	212.09
862.84	211.95
863.16	212.00
863.47	211.98
863.78	212.03
864.09	212.04
864.40	211.99
864.71	211.99
865.02	212.02
865.33	212.02
865.64	211.89
865.95	211.85
866.27	211.95
866.58	211.95
866.89	211.98
867.20	211.92
867.51	211.87
867.82	211.85
868.13	211.89
868.44	211.89
868.75	211.99
869.06	211.96
869.37	211.94
869.68	211.85
869.99	211.87
870.30	211.84
870.61	211.83
870.92	211.78
871.23	211.72
871.54	211.78
871.85	211.84
872.16	211.95
872.47	211.90
872.78	211.75
873.09	211.73
873.40	211.76
873.71	211.74
874.02	211.72
874.33	211.63
874.64	211.56
874.95	211.55
875.26	211.36
875.56	211.31
875.87	211.33
876.18	211.26
876.49	211.34
876.80	211.35
877.11	211.25
877.42	211.30
877.73	211.36
878.04	211.26
878.35	211.20
878.66	211.20
878.96	211.22
879.27	211.18
879.58	211.20
879.89	211.09
880.20	211.14
880.51	211.18
880.82	211.18
881.12	211.16
881.43	211.10
881.74	211.14
882.05	211.20
882.36	211.11
882.67	211.19
882.97	211.06
883.28	211.05
883.59	211.07
883.90	211.10
884.21	211.13
884.51	211.17
884.82	211.09
885.13	211.06
885.44	211.03
885.74	211.05
886.05	211.07
886.36	211.15
886.67	211.09
886.98	211.15
887.28	211.19
887.59	211.22
887.90	211.26
888.20	211.23
888.51	211.24
888.82	211.23
889.13	211.21
889.43	211.38
889.74	211.34
890.05	211.32
890.35	211.33
890.66	211.19
890.97	211.15
891.28	211.26
891.58	211.27
891.89	211.29
892.20	211.32
892.50	211.26
892.81	211.27
893.12	211.33
893.42	211.25
893.73	211.27
894.04	211.23
894.34	211.26
894.65	211.21
894.95	211.22
895.26	211.32
895.57	211.42
895.87	211.25
896.18	211.22
896.48	211.32
896.79	211.28
897.10	211.38
897.40	211.44
897.71	211.37
898.01	211.33
898.32	211.36
898.63	211.42
898.93	211.37
899.24	211.34
899.54	211.30
899.85	211.35
900.15	211.41
900.46	211.44
900.76	211.45
901.07	211.53
901.38	211.55
901.68	211.45
901.99	211.31
902.29	211.35
902.60	211.36
902.90	211.30
903.21	211.37
903.51	211.35
903.82	211.31
904.12	211.33
904.43	211.29
904.73	211.27
905.03	211.17
905.34	211.42
905.64	211.43
905.95	211.42
906.25	211.35
906.56	211.23
906.86	211.23
907.17	211.09
907.47	211.05
907.77	210.99
908.08	211.00
908.38	211.01
908.69	210.98
908.99	211.05
909.30	211.08
909.60	210.99
909.90	211.02
910.21	211.03
910.51	211.02
910.81	211.02
911.12	211.00
911.42	211.00
911.73	210.81
912.03	210.83
912.33	210.83
912.64	210.79
912.94	210.79
913.24	210.79
913.55	210.84
913.85	210.85
914.15	210.92
914.46	210.95
914.76	210.96
915.06	210.99
915.37	210.98
915.67	210.93
915.97	210.95
916.27	210.90
916.58	210.86
916.88	210.84
917.18	210.84
917.49	210.98
917.79	210.99
918.09	211.02
918.39	211.08
918.70	211.08
919.00	211.08
919.30	211.12
919.60	211.11
919.91	211.13
920.21	211.16
920.51	211.07
920.81	211.07
921.12	211.12
921.42	211.08
921.72	211.04
922.02	211.09
922.32	211.06
922.63	210.99
922.93	211.10
923.23	211.11
923.53	211.15
923.83	210.95
924.13	210.99
924.44	210.91
924.74	210.93
925.04	211.02
925.34	211.07
925.64	211.05
925.94	211.04
926.24	211.16
926.55	211.12
926.85	211.20
927.15	211.19
927.45	211.19
927.75	211.16
928.05	211.15
928.35	211.09
928.65	211.17
928.95	211.26
929.26	211.19
929.56	211.24
929.86	211.24
930.16	211.34
930.46	211.34
930.76	211.35
931.06	211.24
931.36	211.14
931.66	211.20
931.96	211.22
932.26	211.24
932.56	211.11
932.86	211.15
933.16	211.11
933.46	211.11
933.76	211.16
934.06	211.21
934.36	211.33
934.66	211.39
934.96	211.36
935.26	211.40
935.56	211.45
935.86	211.44
936.16	211.48
936.46	211.46
936.76	211.38
937.06	211.36
937.36	211.39
937.66	211.37
937.96	211.41
938.26	211.38
938.56	211.47
938.86	211.48
939.16	211.52
939.46	211.56
939.76	211.55
940.06	211.49
940.35	211.49
940.65	211.34
940.95	211.29
941.25	211.21
941.55	211.23
941.85	211.21
942.15	211.24
942.45	211.20
942.75	211.18
943.04	211.21
943.34	211.28
943.64	211.24
943.94	211.26
944.24	211.18
944.54	211.17
944.84	211.08
945.13	211.12
945.43	211.13
945.73	211.14
946.03	211.21
946.33	211.20
946.62	211.24
946.92	211.33
947.22	211.38
947.52	211.41
947.82	211.33
948.11	211.30
948.41	211.19
948.71	211.25
949.01	211.25
949.31	211.23
949.60	211.21
949.90	211.27
950.20	211.25
950.50	211.25
950.79	211.27
951.09	211.28
951.39	211.25
951.69	211.11
951.98	211.13
952.28	211.13
952.58	211.16
952.87	211.09
953.17	211.03
953.47	211.01
953.76	211.04
954.06	211.02
954.36	211.00
954.66	211.04
954.95	211.02
955.25	211.06
955.55	211.13
955.84	211.15
956.14	211.13
956.44	211.13
956.73	211.13
957.03	211.15
957.32	211.11
957.62	211.14
957.92	211.27
958.21	211.28
958.51	211.46
958.81	211.42
959.10	211.39
959.40	211.46
959.69	211.48
959.99	211.45
960.29	211.41
960.58	211.44
960.88	211.48
961.17	211.49
961.47	211.44
961.76	211.38
962.06	211.40
962.36	211.36
962.65	211.38
962.95	211.37
963.24	211.34
963.54	211.39
963.83	211.31
964.13	211.19
964.42	211.16
964.72	210.96
965.01	210.95
965.31	211.05
965.60	210.99
965.90	211.07
966.19	211.08
966.49	211.15
966.78	211.09
967.08	211.09
967.37	211.03
967.67	211.00
967.96	211.08
968.26	210.99
968.55	210.97
968.85	210.96
969.14	210.89
969.43	210.86
969.73	210.82
970.02	210.90
970.32	210.93
970.61	210.87
970.91	210.83
971.20	210.81
971.49	210.76
971.79	210.76
972.08	210.65
972.38	210.62
972.67	210.55
972.96	210.59
973.26	210.61
973.55	210.71
973.85	210.73
974.14	210.69
974.43	210.81
974.73	210.81
975.02	210.80
975.31	210.90
975.61	210.87
975.90	210.82
976.19	210.75
976.49	210.81
976.78	210.85
977.07	210.90
977.37	210.91
977.66	210.95
977.95	210.98
978.24	211.00
978.54	211.02
978.83	211.04
979.12	211.03
979.42	211.01
979.71	210.93
980.00	210.95
980.29	210.97
980.59	210.89
980.88	210.98
981.17	210.92
981.46	210.84
981.76	210.84
982.05	210.93
982.34	210.99
982.63	210.98
982.93	210.99
983.22	211.05
983.51	211.05
983.80	211.02
984.09	211.00
984.39	210.97
984.68	210.97
984.97	211.00
985.26	210.97
985.55	210.93
985.85	210.85
986.14	210.80
986.43	210.78
986.72	210.77
987.01	210.71
987.30	210.77
987.59	210.76
987.89	210.83
988.18	210.81
988.47	210.76
988.76	210.73
989.05	210.69
989.34	210.58
989.63	210.64
989.92	210.61
990.22	210.60
990.51	210.62
990.80	210.60
991.09	210.62
991.38	210.68
991.67	210.66
991.96	210.77
992.25	210.84
992.54	210.84
992.83	210.86
993.12	210.95
993.41	210.93
993.70	211.02
993.99	211.03
994.28	211.11
994.58	211.17
994.87	211.17
995.16	211.15
995.45	211.21
995.74	211.18
996.03	211.18
996.32	211.23
996.61	211.26
996.90	211.26
997.19	211.26
997.48	211.24
997.77	211.23
998.06	211.22
998.34	211.20
998.63	211.19
998.92	211.19
999.21	211.18
999.50	211.18
999.79	211.07
1000.08	211.06
1000.37	211.03
1000.66	211.00
1000.95	211.06
1001.24	211.09
1001.53	211.08
1001.82	211.06
1002.11	211.02
1002.40	210.94
1002.68	210.97
1002.97	211.10
1003.26	211.05
1003.55	211.07
1003.84	211.06
1004.13	211.08
1004.42	211.02
1004.71	211.04
1004.99	210.95
1005.28	210.92
1005.57	210.91
1005.86	210.94
1006.15	210.98
1006.44	210.91
1006.72	210.90
1007.01	210.81
1007.30	210.78
1007.59	210.71
1007.88	210.72
1008.17	210.76
1008.45	210.80
1008.74	210.69
1009.03	210.56
1009.32	210.64
1009.60	210.51
1009.89	210.46
1010.18	210.40
1010.47	210.39
1010.76	210.38
1011.04	210.44
1011.33	210.53
1011.62	210.58
1011.91	210.65
1012.19	210.64
1012.48	210.66
1012.77	210.61
1013.05	210.74
1013.34	210.72
1013.63	210.77
1013.92	210.78
1014.20	210.78
1014.49	210.81
1014.78	210.86
1015.06	210.86
1015.35	210.80
1015.64	210.87
1015.92	210.98
1016.21	210.95
1016.50	210.97
1016.78	211.02
1017.07	211.07
1017.36	210.93
1017.64	210.92
1017.93	210.91
1018.22	210.84
1018.50	210.82
1018.79	210.81
1019.08	210.74
1019.36	210.82
1019.65	210.81
1019.93	210.83
1020.22	210.83
1020.51	210.89
1020.79	210.86
1021.08	209.85
1021.36	210.30
1021.65	210.15
1021.94	211.25
1022.22	211.40
1022.51	210.95
1022.79	211.10
1023.08	211.15
1023.36	212.60
1023.65	210.50
>>>>>End Processed Spectral Data<<<<<
