SpectraSuite Data File
++++++++++++++++++++++++++++++++++++
Date: Mon Feb 25 17:34:41 EST 2013
User: group
Dark Spectrum Present: No
Reference Spectrum Present: No
Number of Sampled Component Spectra: 1
Spectrometers: USB2E7196
Integration Time (usec): 52000 (USB2E7196)
Spectra Averaged: 20 (USB2E7196)
Boxcar Smoothing: 10 (USB2E7196)
Correct for Electrical Dark: No (USB2E7196)
Strobe/Lamp Enabled: No (USB2E7196)
Correct for Detector Non-linearity: No (USB2E7196)
Correct for Stray Light: No (USB2E7196)
Number of Pixels in Processed Spectrum: 2048
>>>>>Begin Processed Spectral Data<<<<<
339.09	0.00
339.48	197.85
339.86	200.20
340.24	202.40
340.63	203.05
341.01	206.95
341.39	205.50
341.78	206.50
342.16	209.20
342.54	207.95
342.93	198.22
343.31	208.15
343.69	208.73
344.07	209.21
344.46	209.62
344.84	209.98
345.22	210.15
345.60	210.41
345.99	210.62
346.37	210.77
346.75	210.90
347.13	211.02
347.52	211.07
347.90	211.26
348.28	211.34
348.66	211.46
349.05	211.41
349.43	211.51
349.81	211.51
350.19	211.58
350.57	211.63
350.96	211.64
351.34	211.83
351.72	211.97
352.10	212.07
352.48	212.17
352.87	212.28
353.25	212.38
353.63	212.46
354.01	212.54
354.39	212.59
354.77	212.73
355.15	212.88
355.54	212.97
355.92	212.96
356.30	213.05
356.68	213.19
357.06	213.23
357.44	213.25
357.82	213.35
358.20	213.37
358.58	213.41
358.97	213.49
359.35	213.62
359.73	213.70
360.11	213.71
360.49	213.75
360.87	213.80
361.25	213.90
361.63	213.97
362.01	214.08
362.39	214.09
362.77	214.08
363.15	214.08
363.53	214.16
363.91	214.13
364.29	214.15
364.67	214.05
365.05	214.15
365.43	214.15
365.81	214.21
366.19	214.24
366.57	214.29
366.95	214.29
367.33	214.27
367.71	214.24
368.09	214.33
368.47	214.31
368.85	214.25
369.23	214.19
369.61	214.16
369.99	214.15
370.37	214.15
370.75	214.28
371.13	214.21
371.51	214.09
371.89	214.07
372.27	214.08
372.65	214.04
373.03	214.01
373.41	213.93
373.78	213.85
374.16	213.80
374.54	213.67
374.92	213.60
375.30	213.47
375.68	213.44
376.06	213.40
376.44	213.31
376.82	213.34
377.19	213.35
377.57	213.29
377.95	213.17
378.33	213.13
378.71	212.90
379.09	212.84
379.47	212.85
379.84	212.86
380.22	212.70
380.60	212.61
380.98	212.49
381.36	212.46
381.73	212.43
382.11	212.33
382.49	212.35
382.87	212.34
383.25	212.33
383.62	212.45
384.00	212.36
384.38	212.34
384.76	212.33
385.13	212.34
385.51	212.33
385.89	212.32
386.27	212.28
386.64	212.34
387.02	212.31
387.40	212.22
387.78	212.15
388.15	212.18
388.53	212.10
388.91	212.14
389.29	212.05
389.66	211.98
390.04	211.94
390.42	211.90
390.79	211.83
391.17	211.81
391.55	211.65
391.92	211.54
392.30	211.59
392.68	211.55
393.05	211.51
393.43	211.46
393.81	211.42
394.18	211.37
394.56	211.36
394.94	211.42
395.31	211.45
395.69	211.53
396.06	211.54
396.44	211.65
396.82	211.65
397.19	211.87
397.57	211.89
397.95	212.00
398.32	211.98
398.70	212.07
399.07	212.10
399.45	212.10
399.82	212.23
400.20	212.29
400.58	212.34
400.95	212.34
401.33	212.43
401.70	212.59
402.08	212.70
402.45	212.75
402.83	212.85
403.20	212.90
403.58	212.94
403.95	213.10
404.33	213.15
404.71	213.29
405.08	213.39
405.46	213.52
405.83	213.70
406.21	213.83
406.58	213.96
406.96	214.11
407.33	214.36
407.70	214.55
408.08	214.85
408.45	215.09
408.83	215.37
409.20	215.52
409.58	215.70
409.95	216.01
410.33	216.27
410.70	216.50
411.08	216.91
411.45	217.27
411.82	217.59
412.20	218.06
412.57	218.53
412.95	218.89
413.32	219.40
413.69	219.85
414.07	220.54
414.44	221.12
414.82	221.85
415.19	222.49
415.56	223.23
415.94	223.88
416.31	224.74
416.68	225.58
417.06	226.66
417.43	227.70
417.81	228.78
418.18	229.99
418.55	231.34
418.93	232.53
419.30	233.79
419.67	235.15
420.04	236.60
420.42	238.12
420.79	239.92
421.16	241.69
421.54	243.61
421.91	245.43
422.28	247.35
422.66	249.34
423.03	251.40
423.40	253.58
423.77	255.85
424.15	258.09
424.52	260.44
424.89	263.01
425.26	265.37
425.64	267.70
426.01	270.35
426.38	273.00
426.75	275.85
427.13	278.75
427.50	281.78
427.87	284.89
428.24	287.92
428.61	290.82
428.99	294.04
429.36	297.52
429.73	300.95
430.10	304.50
430.47	308.10
430.85	311.77
431.22	315.56
431.59	319.75
431.96	323.67
432.33	328.08
432.70	332.41
433.08	337.37
433.45	342.04
433.82	346.59
434.19	351.73
434.56	356.71
434.93	361.45
435.30	366.10
435.68	371.27
436.05	376.51
436.42	381.67
436.79	386.38
437.16	391.48
437.53	396.80
437.90	402.07
438.27	407.21
438.64	412.63
439.01	417.60
439.38	422.01
439.75	426.28
440.13	431.25
440.50	435.75
440.87	439.58
441.24	443.50
441.61	447.73
441.98	450.87
442.35	454.48
442.72	458.31
443.09	461.88
443.46	464.08
443.83	465.48
444.20	466.70
444.57	468.45
444.94	469.10
445.31	470.00
445.68	470.82
446.05	471.03
446.42	470.29
446.79	469.52
447.16	468.65
447.53	468.06
447.90	465.79
448.27	463.68
448.64	460.60
449.01	458.43
449.37	454.76
449.74	451.18
450.11	447.14
450.48	442.46
450.85	437.92
451.22	433.98
451.59	430.28
451.96	426.58
452.33	421.82
452.70	417.52
453.07	412.25
453.43	406.89
453.80	401.92
454.17	397.14
454.54	392.61
454.91	387.70
455.28	382.99
455.65	378.55
456.02	374.14
456.38	370.51
456.75	365.84
457.12	361.92
457.49	358.00
457.86	354.15
458.23	350.99
458.59	347.49
458.96	343.91
459.33	340.64
459.70	337.50
460.07	334.94
460.43	332.08
460.80	329.46
461.17	327.10
461.54	324.68
461.91	322.30
462.27	319.92
462.64	317.81
463.01	315.52
463.38	313.39
463.74	311.17
464.11	309.27
464.48	307.63
464.85	305.89
465.21	304.62
465.58	303.10
465.95	301.34
466.32	299.85
466.68	298.39
467.05	297.10
467.42	295.69
467.78	294.25
468.15	292.87
468.52	291.83
468.88	290.44
469.25	289.23
469.62	288.33
469.98	287.29
470.35	286.47
470.72	285.55
471.08	284.63
471.45	283.80
471.82	283.00
472.18	282.07
472.55	281.47
472.92	280.65
473.28	280.07
473.65	279.50
474.02	278.92
474.38	278.52
474.75	278.10
475.11	277.72
475.48	277.49
475.85	277.31
476.21	277.01
476.58	276.85
476.94	276.80
477.31	276.73
477.67	276.83
478.04	276.85
478.41	277.05
478.77	277.26
479.14	277.44
479.50	277.73
479.87	278.13
480.23	278.46
480.60	278.80
480.96	279.24
481.33	279.95
481.69	280.66
482.06	281.23
482.42	281.84
482.79	282.64
483.15	283.57
483.52	284.52
483.88	285.53
484.25	286.62
484.61	287.63
484.98	288.67
485.34	289.82
485.71	291.16
486.07	292.52
486.44	293.91
486.80	295.50
487.17	297.09
487.53	298.91
487.90	300.80
488.26	302.92
488.62	304.97
488.99	306.92
489.35	309.04
489.72	311.42
490.08	313.90
490.44	316.40
490.81	318.95
491.17	321.66
491.54	324.59
491.90	327.66
492.26	330.84
492.63	334.18
492.99	337.59
493.36	341.16
493.72	345.04
494.08	349.13
494.45	353.32
494.81	357.83
495.17	362.36
495.54	367.18
495.90	372.08
496.26	377.40
496.63	382.97
496.99	388.74
497.35	394.77
497.72	400.95
498.08	407.37
498.44	414.10
498.80	421.23
499.17	428.62
499.53	436.22
499.89	444.23
500.26	452.46
500.62	460.76
500.98	469.80
501.34	478.87
501.71	488.25
502.07	497.81
502.43	507.73
502.79	517.96
503.16	528.66
503.52	539.52
503.88	550.60
504.24	562.02
504.60	574.01
504.97	586.25
505.33	598.84
505.69	612.13
506.05	625.69
506.41	639.25
506.78	653.05
507.14	667.28
507.50	681.98
507.86	697.02
508.22	712.70
508.59	728.16
508.95	744.20
509.31	760.39
509.67	777.40
510.03	794.42
510.39	812.10
510.75	830.04
511.12	848.23
511.48	866.65
511.84	885.40
512.20	903.96
512.56	923.43
512.92	942.81
513.28	962.25
513.64	981.84
514.00	1001.90
514.37	1022.25
514.73	1043.12
515.09	1063.97
515.45	1084.73
515.81	1105.89
516.17	1127.39
516.53	1148.77
516.89	1170.48
517.25	1192.08
517.61	1213.81
517.97	1235.34
518.33	1256.65
518.69	1278.59
519.05	1300.85
519.41	1323.22
519.77	1346.11
520.13	1368.16
520.49	1390.70
520.85	1413.68
521.21	1436.46
521.57	1459.47
521.93	1481.79
522.29	1504.50
522.65	1527.19
523.01	1550.10
523.37	1572.41
523.73	1594.64
524.09	1617.18
524.45	1639.64
524.81	1662.20
525.17	1684.89
525.53	1707.55
525.89	1730.44
526.25	1752.60
526.61	1773.93
526.97	1795.75
527.33	1817.15
527.68	1838.96
528.04	1860.24
528.40	1880.76
528.76	1901.53
529.12	1922.49
529.48	1944.29
529.84	1964.97
530.20	1985.37
530.56	2005.97
530.91	2026.80
531.27	2047.55
531.63	2067.74
531.99	2087.87
532.35	2107.20
532.71	2126.19
533.07	2145.97
533.42	2164.50
533.78	2183.60
534.14	2202.50
534.50	2219.79
534.86	2238.08
535.21	2254.84
535.57	2272.90
535.93	2290.19
536.29	2307.40
536.65	2324.10
537.00	2339.60
537.36	2355.07
537.72	2370.85
538.08	2386.18
538.44	2401.35
538.79	2416.53
539.15	2431.30
539.51	2446.03
539.87	2461.40
540.22	2476.25
540.58	2491.10
540.94	2505.81
541.29	2518.85
541.65	2531.26
542.01	2544.79
542.37	2556.78
542.72	2569.44
543.08	2580.26
543.44	2592.39
543.79	2602.77
544.15	2613.23
544.51	2624.70
544.87	2635.61
545.22	2644.75
545.58	2653.51
545.94	2661.24
546.29	2668.05
546.65	2674.56
547.01	2681.04
547.36	2686.75
547.72	2692.35
548.07	2696.48
548.43	2700.30
548.79	2704.42
549.14	2709.21
549.50	2713.57
549.86	2717.80
550.21	2722.20
550.57	2726.85
550.92	2729.52
551.28	2732.24
551.64	2735.04
551.99	2737.24
552.35	2739.41
552.70	2742.17
553.06	2745.01
553.41	2748.31
553.77	2751.48
554.13	2754.04
554.48	2756.21
554.84	2757.69
555.19	2758.34
555.55	2758.62
555.90	2759.50
556.26	2760.34
556.61	2760.41
556.97	2759.31
557.32	2758.76
557.68	2756.84
558.03	2755.11
558.39	2753.90
558.74	2753.63
559.10	2752.39
559.45	2750.68
559.81	2749.40
560.16	2746.72
560.52	2744.26
560.87	2741.26
561.23	2737.65
561.58	2735.34
561.94	2732.03
562.29	2728.72
562.64	2726.75
563.00	2724.60
563.35	2722.50
563.71	2720.24
564.06	2718.09
564.42	2716.49
564.77	2714.41
565.12	2712.75
565.48	2709.88
565.83	2706.95
566.19	2704.03
566.54	2699.96
566.89	2696.01
567.25	2692.33
567.60	2689.08
567.96	2685.58
568.31	2681.81
568.66	2677.76
569.02	2673.27
569.37	2668.04
569.72	2664.05
570.08	2658.56
570.43	2652.55
570.78	2646.68
571.14	2640.52
571.49	2633.90
571.84	2627.92
572.20	2620.65
572.55	2614.09
572.90	2607.21
573.26	2600.08
573.61	2592.88
573.96	2586.13
574.31	2578.50
574.67	2570.33
575.02	2562.05
575.37	2553.38
575.72	2544.47
576.08	2536.70
576.43	2527.93
576.78	2520.35
577.13	2512.31
577.49	2504.28
577.84	2497.06
578.19	2489.57
578.54	2482.12
578.90	2475.35
579.25	2466.64
579.60	2457.70
579.95	2448.11
580.30	2440.13
580.66	2431.92
581.01	2422.58
581.36	2413.09
581.71	2404.55
582.06	2395.67
582.42	2387.47
582.77	2378.30
583.12	2369.43
583.47	2361.01
583.82	2352.50
584.17	2343.34
584.53	2334.00
584.88	2325.12
585.23	2315.55
585.58	2305.83
585.93	2295.96
586.28	2286.37
586.63	2277.30
586.98	2269.00
587.34	2260.61
587.69	2251.28
588.04	2242.03
588.39	2233.82
588.74	2224.75
589.09	2216.19
589.44	2206.62
589.79	2197.95
590.14	2189.94
590.49	2181.46
590.84	2172.09
591.19	2163.98
591.54	2154.97
591.89	2144.83
592.25	2135.47
592.60	2126.01
592.95	2116.09
593.30	2106.65
593.65	2096.84
594.00	2086.97
594.35	2078.52
594.70	2068.99
595.05	2060.12
595.40	2051.23
595.75	2041.28
596.10	2033.17
596.45	2024.53
596.80	2016.70
597.15	2008.01
597.50	1998.65
597.85	1990.12
598.19	1981.39
598.54	1972.60
598.89	1964.73
599.24	1957.69
599.59	1950.21
599.94	1943.21
600.29	1935.53
600.64	1927.44
600.99	1918.90
601.34	1911.41
601.69	1902.06
602.04	1894.25
602.39	1885.93
602.74	1878.00
603.08	1871.15
603.43	1863.75
603.78	1855.35
604.13	1847.46
604.48	1839.25
604.83	1832.34
605.18	1825.25
605.53	1817.53
605.87	1809.81
606.22	1802.37
606.57	1794.72
606.92	1786.61
607.27	1778.16
607.62	1770.95
607.96	1764.21
608.31	1757.92
608.66	1750.13
609.01	1743.01
609.36	1734.96
609.70	1727.19
610.05	1719.29
610.40	1711.40
610.75	1702.86
611.10	1695.16
611.44	1685.70
611.79	1676.77
612.14	1667.44
612.49	1657.78
612.83	1649.12
613.18	1639.08
613.53	1629.47
613.88	1619.54
614.22	1610.19
614.57	1601.07
614.92	1591.42
615.27	1581.86
615.61	1571.93
615.96	1562.88
616.31	1554.09
616.65	1546.04
617.00	1537.33
617.35	1528.78
617.70	1519.78
618.04	1510.78
618.39	1501.42
618.74	1493.02
619.08	1484.38
619.43	1476.05
619.78	1468.17
620.12	1459.92
620.47	1452.37
620.82	1444.01
621.16	1435.70
621.51	1427.43
621.85	1419.04
622.20	1410.74
622.55	1402.33
622.89	1394.09
623.24	1386.17
623.59	1377.37
623.93	1368.83
624.28	1360.43
624.62	1351.95
624.97	1343.36
625.32	1335.20
625.66	1327.78
626.01	1320.51
626.35	1313.23
626.70	1305.40
627.04	1297.80
627.39	1289.93
627.73	1282.25
628.08	1275.12
628.43	1267.91
628.77	1260.30
629.12	1252.87
629.46	1245.95
629.81	1238.37
630.15	1230.91
630.50	1223.43
630.84	1216.13
631.19	1208.90
631.53	1202.18
631.88	1194.50
632.22	1186.89
632.57	1180.00
632.91	1172.42
633.26	1164.95
633.60	1157.72
633.95	1150.70
634.29	1143.01
634.64	1136.33
634.98	1129.13
635.32	1121.94
635.67	1115.21
636.01	1108.69
636.36	1102.00
636.70	1095.33
637.05	1088.95
637.39	1082.63
637.73	1076.28
638.08	1070.50
638.42	1064.53
638.77	1058.00
639.11	1051.91
639.45	1045.91
639.80	1039.29
640.14	1032.92
640.49	1026.56
640.83	1020.09
641.17	1013.80
641.52	1007.94
641.86	1001.48
642.20	995.26
642.55	988.40
642.89	981.79
643.23	975.33
643.58	969.21
643.92	962.58
644.26	956.24
644.61	950.06
644.95	943.80
645.29	937.30
645.64	930.48
645.98	924.25
646.32	918.21
646.66	912.10
647.01	906.15
647.35	900.12
647.69	893.78
648.04	887.84
648.38	881.92
648.72	875.78
649.06	869.68
649.41	863.66
649.75	858.13
650.09	852.40
650.43	846.34
650.78	839.96
651.12	833.83
651.46	828.03
651.80	822.09
652.14	816.24
652.49	810.30
652.83	804.61
653.17	798.23
653.51	792.33
653.85	786.60
654.20	780.63
654.54	774.88
654.88	769.40
655.22	763.59
655.56	757.43
655.90	751.43
656.25	745.79
656.59	740.37
656.93	735.04
657.27	729.79
657.61	724.25
657.95	719.33
658.29	714.29
658.64	709.03
658.98	703.86
659.32	698.35
659.66	693.19
660.00	687.88
660.34	682.95
660.68	677.75
661.02	672.68
661.36	668.12
661.70	663.26
662.05	658.54
662.39	654.14
662.73	649.93
663.07	645.84
663.41	641.33
663.75	636.65
664.09	632.02
664.43	627.24
664.77	622.97
665.11	618.45
665.45	614.06
665.79	609.67
666.13	605.16
666.47	600.84
666.81	596.72
667.15	592.60
667.49	588.70
667.83	584.73
668.17	580.81
668.51	576.77
668.85	572.91
669.19	569.23
669.53	565.26
669.87	561.13
670.21	557.02
670.55	552.97
670.89	549.46
671.23	545.97
671.57	542.41
671.91	538.67
672.25	534.88
672.58	531.35
672.92	527.95
673.26	524.75
673.60	521.54
673.94	518.01
674.28	514.80
674.62	511.48
674.96	508.37
675.30	505.13
675.64	501.89
675.97	498.74
676.31	495.57
676.65	492.66
676.99	489.98
677.33	487.11
677.67	484.34
678.01	481.21
678.34	478.16
678.68	475.35
679.02	472.43
679.36	469.70
679.70	466.80
680.04	463.82
680.37	460.70
680.71	457.83
681.05	455.25
681.39	452.56
681.73	449.85
682.06	447.27
682.40	444.69
682.74	442.09
683.08	439.54
683.42	436.95
683.75	434.35
684.09	431.62
684.43	429.11
684.77	426.51
685.10	424.00
685.44	421.36
685.78	418.79
686.12	416.54
686.45	414.22
686.79	411.95
687.13	409.78
687.46	407.65
687.80	405.54
688.14	403.22
688.48	401.01
688.81	398.87
689.15	396.59
689.49	394.30
689.82	392.14
690.16	389.68
690.50	387.38
690.83	385.04
691.17	382.88
691.51	380.70
691.84	378.67
692.18	376.54
692.52	374.63
692.85	372.72
693.19	370.84
693.52	368.85
693.86	366.88
694.20	364.98
694.53	363.01
694.87	361.00
695.21	359.21
695.54	357.22
695.88	355.28
696.21	353.47
696.55	351.71
696.88	349.82
697.22	348.14
697.56	346.55
697.89	344.92
698.23	343.18
698.56	341.54
698.90	340.00
699.23	338.44
699.57	336.87
699.90	335.22
700.24	333.48
700.58	331.85
700.91	330.37
701.25	328.90
701.58	327.55
701.92	326.09
702.25	324.56
702.59	323.16
702.92	321.78
703.26	320.48
703.59	319.25
703.93	318.17
704.26	317.04
704.60	315.69
704.93	314.43
705.26	313.20
705.60	311.98
705.93	310.65
706.27	309.51
706.60	308.30
706.94	307.21
707.27	305.99
707.61	304.79
707.94	303.60
708.27	302.41
708.61	301.23
708.94	300.13
709.28	299.07
709.61	297.94
709.94	296.87
710.28	295.61
710.61	294.47
710.95	293.20
711.28	292.18
711.61	291.14
711.95	290.17
712.28	289.12
712.61	288.10
712.95	287.18
713.28	286.30
713.61	285.41
713.95	284.44
714.28	283.59
714.61	282.71
714.95	281.83
715.28	280.87
715.61	279.96
715.95	279.13
716.28	278.15
716.61	277.37
716.95	276.49
717.28	275.72
717.61	274.86
717.94	274.17
718.28	273.25
718.61	272.50
718.94	271.74
719.27	271.04
719.61	270.37
719.94	269.69
720.27	268.88
720.60	268.10
720.94	267.42
721.27	266.85
721.60	266.23
721.93	265.54
722.27	265.00
722.60	264.33
722.93	263.67
723.26	263.26
723.59	262.60
723.93	262.03
724.26	261.48
724.59	260.96
724.92	260.35
725.25	259.90
725.59	259.31
725.92	258.82
726.25	258.30
726.58	257.72
726.91	257.14
727.24	256.64
727.57	256.16
727.91	255.57
728.24	255.06
728.57	254.52
728.90	254.03
729.23	253.48
729.56	253.10
729.89	252.61
730.22	251.97
730.55	251.48
730.89	251.02
731.22	250.55
731.55	250.06
731.88	249.53
732.21	248.98
732.54	248.56
732.87	247.94
733.20	247.46
733.53	246.94
733.86	246.50
734.19	245.99
734.52	245.60
734.85	245.26
735.18	244.80
735.51	244.44
735.84	244.02
736.17	243.60
736.50	243.13
736.83	243.00
737.16	242.65
737.49	242.23
737.82	241.78
738.15	241.41
738.48	241.01
738.81	240.71
739.14	240.30
739.47	239.90
739.80	239.71
740.13	239.40
740.46	239.17
740.79	238.78
741.12	238.49
741.45	238.11
741.78	237.76
742.11	237.44
742.44	237.09
742.77	236.83
743.10	236.56
743.43	236.27
743.75	235.81
744.08	235.75
744.41	235.42
744.74	235.12
745.07	234.80
745.40	234.59
745.73	234.39
746.06	234.20
746.39	233.94
746.71	233.59
747.04	233.25
747.37	232.91
747.70	232.65
748.03	232.42
748.36	232.20
748.68	231.92
749.01	231.64
749.34	231.41
749.67	231.08
750.00	230.79
750.33	230.57
750.65	230.33
750.98	229.83
751.31	229.60
751.64	229.42
751.97	229.22
752.29	228.93
752.62	228.57
752.95	228.31
753.28	228.08
753.60	227.86
753.93	227.76
754.26	227.57
754.59	227.41
754.91	227.21
755.24	227.00
755.57	226.85
755.90	226.60
756.22	226.44
756.55	226.30
756.88	226.13
757.20	225.90
757.53	225.53
757.86	225.39
758.19	225.22
758.51	225.06
758.84	224.86
759.17	224.72
759.49	224.64
759.82	224.51
760.15	224.35
760.47	224.15
760.80	223.89
761.13	223.76
761.45	223.55
761.78	223.35
762.11	223.19
762.43	223.00
762.76	222.99
763.08	222.77
763.41	222.70
763.74	222.61
764.06	222.52
764.39	222.49
764.71	222.35
765.04	222.30
765.37	222.22
765.69	222.11
766.02	221.97
766.34	221.86
766.67	221.69
767.00	221.65
767.32	221.70
767.65	221.74
767.97	221.63
768.30	221.54
768.62	221.46
768.95	221.34
769.27	221.24
769.60	221.07
769.92	220.98
770.25	220.82
770.57	220.66
770.90	220.53
771.22	220.43
771.55	220.30
771.87	220.12
772.20	219.97
772.52	220.01
772.85	220.10
773.17	219.96
773.50	219.88
773.82	219.72
774.15	219.53
774.47	219.29
774.80	219.14
775.12	219.04
775.45	218.93
775.77	218.79
776.09	218.70
776.42	218.64
776.74	218.61
777.07	218.50
777.39	218.45
777.72	218.41
778.04	218.32
778.36	218.28
778.69	218.24
779.01	218.11
779.33	217.96
779.66	217.70
779.98	217.61
780.31	217.53
780.63	217.53
780.95	217.44
781.28	217.37
781.60	217.31
781.92	217.30
782.25	217.18
782.57	217.08
782.89	216.96
783.22	216.82
783.54	216.66
783.86	216.58
784.19	216.48
784.51	216.36
784.83	216.28
785.16	216.18
785.48	216.10
785.80	216.05
786.12	216.01
786.45	215.97
786.77	215.95
787.09	215.91
787.42	215.83
787.74	215.80
788.06	215.75
788.38	215.72
788.71	215.60
789.03	215.64
789.35	215.71
789.67	215.67
789.99	215.69
790.32	215.66
790.64	215.60
790.96	215.72
791.28	215.63
791.61	215.53
791.93	215.50
792.25	215.44
792.57	215.57
792.89	215.39
793.21	215.37
793.54	215.30
793.86	215.22
794.18	215.11
794.50	215.03
794.82	215.08
795.14	215.02
795.47	215.10
795.79	215.05
796.11	215.01
796.43	214.95
796.75	214.90
797.07	214.92
797.39	214.92
797.71	214.75
798.04	214.76
798.36	214.85
798.68	214.79
799.00	214.77
799.32	214.61
799.64	214.61
799.96	214.51
800.28	214.55
800.60	214.54
800.92	214.58
801.24	214.53
801.56	214.45
801.89	214.40
802.21	214.30
802.53	214.26
802.85	214.16
803.17	214.24
803.49	214.21
803.81	214.17
804.13	214.16
804.45	214.16
804.77	214.17
805.09	214.11
805.41	214.12
805.73	214.15
806.05	214.08
806.37	214.14
806.69	214.12
807.01	214.04
807.33	214.03
807.65	213.93
807.97	214.01
808.28	213.95
808.60	213.92
808.92	213.90
809.24	213.97
809.56	214.02
809.88	213.90
810.20	213.91
810.52	213.90
810.84	213.85
811.16	213.75
811.48	213.73
811.80	213.77
812.12	213.72
812.43	213.71
812.75	213.72
813.07	213.66
813.39	213.68
813.71	213.64
814.03	213.61
814.35	213.55
814.67	213.42
814.98	213.40
815.30	213.37
815.62	213.33
815.94	213.24
816.26	213.17
816.58	213.11
816.89	213.01
817.21	212.92
817.53	212.96
817.85	212.94
818.17	212.83
818.48	212.70
818.80	212.73
819.12	212.65
819.44	212.56
819.76	212.47
820.07	212.46
820.39	212.43
820.71	212.45
821.03	212.45
821.34	212.43
821.66	212.38
821.98	212.38
822.30	212.31
822.61	212.32
822.93	212.33
823.25	212.34
823.57	212.30
823.88	212.38
824.20	212.32
824.52	212.35
824.83	212.34
825.15	212.31
825.47	212.32
825.79	212.31
826.10	212.28
826.42	212.23
826.74	212.23
827.05	212.24
827.37	212.19
827.69	212.21
828.00	212.22
828.32	212.28
828.64	212.30
828.95	212.36
829.27	212.33
829.58	212.30
829.90	212.35
830.22	212.44
830.53	212.33
830.85	212.29
831.17	212.26
831.48	212.29
831.80	212.34
832.11	212.31
832.43	212.29
832.75	212.33
833.06	212.51
833.38	212.44
833.69	212.47
834.01	212.43
834.32	212.44
834.64	212.45
834.96	212.44
835.27	212.41
835.59	212.45
835.90	212.41
836.22	212.39
836.53	212.37
836.85	212.30
837.16	212.55
837.48	212.51
837.79	212.54
838.11	212.49
838.42	212.48
838.74	212.53
839.05	212.50
839.37	212.54
839.68	212.43
840.00	212.34
840.31	212.29
840.63	212.29
840.94	212.25
841.26	212.19
841.57	212.10
841.88	212.14
842.20	212.08
842.51	212.10
842.83	212.10
843.14	212.19
843.46	212.22
843.77	212.02
844.08	212.04
844.40	212.03
844.71	212.06
845.03	211.97
845.34	211.96
845.65	211.95
845.97	211.93
846.28	211.95
846.60	212.09
846.91	212.11
847.22	212.11
847.54	212.17
847.85	212.17
848.16	212.23
848.48	212.11
848.79	212.18
849.10	212.15
849.42	212.15
849.73	212.01
850.04	212.02
850.36	212.02
850.67	212.05
850.98	212.01
851.30	212.02
851.61	212.11
851.92	212.06
852.23	212.09
852.55	212.06
852.86	212.09
853.17	212.03
853.49	212.01
853.80	212.01
854.11	212.00
854.42	211.99
854.74	212.05
855.05	212.06
855.36	211.90
855.67	211.94
855.99	211.94
856.30	212.13
856.61	212.07
856.92	212.06
857.23	212.06
857.55	212.04
857.86	212.03
858.17	212.05
858.48	212.02
858.79	211.95
859.11	211.97
859.42	211.90
859.73	211.90
860.04	211.86
860.35	211.78
860.66	211.72
860.98	211.79
861.29	211.72
861.60	211.72
861.91	211.76
862.22	211.67
862.53	211.65
862.84	211.45
863.16	211.52
863.47	211.44
863.78	211.40
864.09	211.41
864.40	211.38
864.71	211.36
865.02	211.40
865.33	211.37
865.64	211.33
865.95	211.31
866.27	211.39
866.58	211.39
866.89	211.51
867.20	211.46
867.51	211.47
867.82	211.50
868.13	211.58
868.44	211.61
868.75	211.69
869.06	211.70
869.37	211.62
869.68	211.55
869.99	211.59
870.30	211.58
870.61	211.58
870.92	211.51
871.23	211.41
871.54	211.39
871.85	211.45
872.16	211.51
872.47	211.46
872.78	211.37
873.09	211.45
873.40	211.37
873.71	211.38
874.02	211.30
874.33	211.23
874.64	211.18
874.95	211.15
875.26	211.03
875.56	211.05
875.87	211.04
876.18	210.99
876.49	211.19
876.80	211.20
877.11	211.17
877.42	211.22
877.73	211.30
878.04	211.25
878.35	211.26
878.66	211.21
878.96	211.23
879.27	211.23
879.58	211.21
879.89	211.20
880.20	211.25
880.51	211.25
880.82	211.24
881.12	211.24
881.43	211.19
881.74	211.18
882.05	211.08
882.36	211.17
882.67	211.24
882.97	211.05
883.28	211.07
883.59	211.04
883.90	211.04
884.21	210.96
884.51	210.97
884.82	210.97
885.13	210.96
885.44	210.95
885.74	210.96
886.05	210.92
886.36	210.98
886.67	210.95
886.98	211.06
887.28	211.11
887.59	211.17
887.90	211.19
888.20	211.22
888.51	211.31
888.82	211.26
889.13	211.26
889.43	211.37
889.74	211.32
890.05	211.36
890.35	211.38
890.66	211.41
890.97	211.43
891.28	211.39
891.58	211.45
891.89	211.50
892.20	211.43
892.50	211.36
892.81	211.35
893.12	211.29
893.42	211.21
893.73	211.22
894.04	211.15
894.34	211.20
894.65	211.20
894.95	211.14
895.26	211.18
895.57	211.18
895.87	211.08
896.18	211.13
896.48	211.13
896.79	211.11
897.10	211.06
897.40	211.03
897.71	211.10
898.01	211.06
898.32	211.10
898.63	211.12
898.93	211.20
899.24	211.20
899.54	211.27
899.85	211.30
900.15	211.25
900.46	211.26
900.76	211.27
901.07	211.21
901.38	211.30
901.68	211.31
901.99	211.30
902.29	211.29
902.60	211.26
902.90	211.25
903.21	211.31
903.51	211.37
903.82	211.45
904.12	211.38
904.43	211.36
904.73	211.28
905.03	211.35
905.34	211.49
905.64	211.47
905.95	211.41
906.25	211.42
906.56	211.40
906.86	211.39
907.17	211.35
907.47	211.41
907.77	211.35
908.08	211.32
908.38	211.37
908.69	211.38
908.99	211.40
909.30	211.40
909.60	211.32
909.90	211.33
910.21	211.28
910.51	211.30
910.81	211.37
911.12	211.40
911.42	211.39
911.73	211.23
912.03	211.28
912.33	211.35
912.64	211.28
912.94	211.31
913.24	211.28
913.55	211.25
913.85	211.27
914.15	211.33
914.46	211.36
914.76	211.27
915.06	211.30
915.37	211.27
915.67	211.29
915.97	211.36
916.27	211.38
916.58	211.39
916.88	211.36
917.18	211.34
917.49	211.48
917.79	211.41
918.09	211.39
918.39	211.38
918.70	211.40
919.00	211.47
919.30	211.58
919.60	211.63
919.91	211.69
920.21	211.74
920.51	211.69
920.81	211.70
921.12	211.77
921.42	211.74
921.72	211.82
922.02	211.84
922.32	211.84
922.63	211.76
922.93	211.94
923.23	211.92
923.53	211.89
923.83	211.85
924.13	211.93
924.44	211.94
924.74	212.00
925.04	211.98
925.34	211.91
925.64	211.86
925.94	211.86
926.24	212.00
926.55	211.93
926.85	211.93
927.15	211.97
927.45	212.02
927.75	211.97
928.05	211.96
928.35	211.94
928.65	211.98
928.95	212.05
929.26	211.92
929.56	212.00
929.86	212.01
930.16	211.90
930.46	211.90
930.76	211.92
931.06	211.87
931.36	211.85
931.66	211.87
931.96	211.90
932.26	211.83
932.56	211.71
932.86	211.73
933.16	211.76
933.46	211.65
933.76	211.58
934.06	211.63
934.36	211.69
934.66	211.71
934.96	211.74
935.26	211.75
935.56	211.74
935.86	211.64
936.16	211.65
936.46	211.66
936.76	211.60
937.06	211.52
937.36	211.51
937.66	211.55
937.96	211.63
938.26	211.52
938.56	211.56
938.86	211.55
939.16	211.64
939.46	211.61
939.76	211.61
940.06	211.57
940.35	211.57
940.65	211.40
940.95	211.39
941.25	211.27
941.55	211.21
941.85	211.24
942.15	211.32
942.45	211.29
942.75	211.28
943.04	211.24
943.34	211.34
943.64	211.25
943.94	211.20
944.24	211.14
944.54	211.19
944.84	211.20
945.13	211.10
945.43	210.96
945.73	210.94
946.03	210.91
946.33	210.91
946.62	210.86
946.92	210.90
947.22	210.86
947.52	210.81
947.82	210.80
948.11	210.71
948.41	210.69
948.71	210.68
949.01	210.68
949.31	210.74
949.60	210.66
949.90	210.60
950.20	210.49
950.50	210.47
950.79	210.39
951.09	210.35
951.39	210.36
951.69	210.36
951.98	210.45
952.28	210.47
952.58	210.41
952.87	210.43
953.17	210.41
953.47	210.40
953.76	210.43
954.06	210.50
954.36	210.45
954.66	210.43
954.95	210.40
955.25	210.42
955.55	210.40
955.84	210.43
956.14	210.58
956.44	210.69
956.73	210.71
957.03	210.73
957.32	210.72
957.62	210.73
957.92	210.73
958.21	210.68
958.51	210.91
958.81	211.01
959.10	210.99
959.40	211.10
959.69	211.07
959.99	211.09
960.29	210.98
960.58	210.99
960.88	211.01
961.17	211.00
961.47	211.05
961.76	211.00
962.06	210.96
962.36	210.90
962.65	210.84
962.95	210.81
963.24	210.86
963.54	210.88
963.83	210.87
964.13	210.94
964.42	210.90
964.72	210.73
965.01	210.67
965.31	210.63
965.60	210.52
965.90	210.69
966.19	210.65
966.49	210.67
966.78	210.70
967.08	210.69
967.37	210.74
967.67	210.66
967.96	210.73
968.26	210.75
968.55	210.73
968.85	210.76
969.14	210.70
969.43	210.65
969.73	210.65
970.02	210.72
970.32	210.65
970.61	210.65
970.91	210.55
971.20	210.58
971.49	210.65
971.79	210.74
972.08	210.60
972.38	210.67
972.67	210.73
972.96	210.78
973.26	210.76
973.55	210.79
973.85	210.81
974.14	210.76
974.43	210.74
974.73	210.75
975.02	210.81
975.31	210.87
975.61	210.91
975.90	210.90
976.19	210.82
976.49	210.83
976.78	210.83
977.07	210.92
977.37	210.90
977.66	210.87
977.95	210.83
978.24	210.84
978.54	210.78
978.83	210.74
979.12	210.64
979.42	210.68
979.71	210.66
980.00	210.67
980.29	210.70
980.59	210.76
980.88	210.88
981.17	210.81
981.46	210.86
981.76	210.79
982.05	210.90
982.34	210.90
982.63	210.94
982.93	210.97
983.22	210.98
983.51	210.97
983.80	211.03
984.09	211.02
984.39	211.08
984.68	211.12
984.97	211.17
985.26	211.16
985.55	211.10
985.85	211.06
986.14	211.08
986.43	211.15
986.72	211.09
987.01	210.97
987.30	210.99
987.59	210.97
987.89	210.96
988.18	210.83
988.47	210.89
988.76	210.90
989.05	210.82
989.34	210.80
989.63	210.87
989.92	210.84
990.22	210.81
990.51	210.75
990.80	210.72
991.09	210.71
991.38	210.79
991.67	210.77
991.96	210.77
992.25	210.78
992.54	210.77
992.83	210.79
993.12	210.78
993.41	210.80
993.70	210.85
993.99	210.90
994.28	210.97
994.58	210.94
994.87	210.87
995.16	210.88
995.45	210.86
995.74	210.78
996.03	210.75
996.32	210.77
996.61	210.83
996.90	210.86
997.19	210.86
997.48	210.88
997.77	210.92
998.06	210.94
998.34	210.98
998.63	210.95
998.92	210.99
999.21	210.98
999.50	210.94
999.79	210.87
1000.08	210.83
1000.37	210.82
1000.66	210.84
1000.95	210.97
1001.24	211.00
1001.53	210.98
1001.82	210.97
1002.11	210.97
1002.40	211.03
1002.68	211.00
1002.97	211.09
1003.26	211.00
1003.55	210.96
1003.84	210.98
1004.13	211.03
1004.42	210.95
1004.71	210.94
1004.99	210.93
1005.28	211.03
1005.57	211.07
1005.86	211.03
1006.15	211.11
1006.44	211.06
1006.72	210.97
1007.01	210.89
1007.30	210.93
1007.59	210.96
1007.88	210.98
1008.17	210.98
1008.45	210.91
1008.74	210.90
1009.03	210.80
1009.32	210.86
1009.60	210.86
1009.89	210.85
1010.18	210.80
1010.47	210.81
1010.76	210.84
1011.04	210.88
1011.33	210.91
1011.62	210.87
1011.91	210.90
1012.19	210.95
1012.48	210.96
1012.77	211.03
1013.05	211.08
1013.34	211.05
1013.63	211.06
1013.92	211.06
1014.20	211.05
1014.49	211.09
1014.78	211.12
1015.06	211.05
1015.35	210.97
1015.64	211.00
1015.92	211.05
1016.21	211.01
1016.50	210.98
1016.78	210.89
1017.07	210.82
1017.36	210.72
1017.64	210.65
1017.93	210.67
1018.22	210.57
1018.50	210.60
1018.79	210.62
1019.08	210.60
1019.36	210.62
1019.65	210.62
1019.93	210.68
1020.22	210.72
1020.51	210.75
1020.79	210.65
1021.08	210.65
1021.36	210.40
1021.65	210.90
1021.94	211.35
1022.22	211.30
1022.51	211.25
1022.79	211.60
1023.08	210.95
1023.36	212.10
1023.65	209.15
>>>>>End Processed Spectral Data<<<<<
