SpectraSuite Data File
++++++++++++++++++++++++++++++++++++
Date: Mon Feb 25 17:33:02 EST 2013
User: group
Dark Spectrum Present: No
Reference Spectrum Present: No
Number of Sampled Component Spectra: 1
Spectrometers: USB2E7196
Integration Time (usec): 52000 (USB2E7196)
Spectra Averaged: 20 (USB2E7196)
Boxcar Smoothing: 10 (USB2E7196)
Correct for Electrical Dark: No (USB2E7196)
Strobe/Lamp Enabled: No (USB2E7196)
Correct for Detector Non-linearity: No (USB2E7196)
Correct for Stray Light: No (USB2E7196)
Number of Pixels in Processed Spectrum: 2048
>>>>>Begin Processed Spectral Data<<<<<
339.09	0.00
339.48	199.00
339.86	200.25
340.24	202.60
340.63	203.25
341.01	207.05
341.39	205.90
341.78	205.85
342.16	208.90
342.54	208.25
342.93	197.80
343.31	207.78
343.69	208.30
344.07	208.77
344.46	209.10
344.84	209.51
345.22	209.65
345.60	209.94
345.99	210.17
346.37	210.27
346.75	210.35
347.13	210.44
347.52	210.48
347.90	210.63
348.28	210.67
348.66	210.74
349.05	210.72
349.43	210.80
349.81	210.86
350.19	210.95
350.57	211.05
350.96	211.23
351.34	211.35
351.72	211.51
352.10	211.60
352.48	211.73
352.87	211.79
353.25	211.93
353.63	211.99
354.01	212.15
354.39	212.25
354.77	212.43
355.15	212.60
355.54	212.72
355.92	212.71
356.30	212.87
356.68	213.07
357.06	213.26
357.44	213.31
357.82	213.32
358.20	213.42
358.58	213.46
358.97	213.50
359.35	213.59
359.73	213.60
360.11	213.67
360.49	213.71
360.87	213.73
361.25	213.83
361.63	213.94
362.01	214.01
362.39	214.04
362.77	214.06
363.15	214.06
363.53	214.08
363.91	214.22
364.29	214.19
364.67	214.05
365.05	214.00
365.43	214.08
365.81	214.24
366.19	214.36
366.57	214.48
366.95	214.46
367.33	214.42
367.71	214.46
368.09	214.47
368.47	214.48
368.85	214.49
369.23	214.42
369.61	214.32
369.99	214.24
370.37	214.27
370.75	214.36
371.13	214.36
371.51	214.30
371.89	214.20
372.27	214.19
372.65	214.28
373.03	214.25
373.41	214.19
373.78	214.12
374.16	214.00
374.54	213.86
374.92	213.77
375.30	213.75
375.68	213.68
376.06	213.60
376.44	213.53
376.82	213.48
377.19	213.41
377.57	213.33
377.95	213.23
378.33	213.15
378.71	212.96
379.09	212.90
379.47	212.87
379.84	212.80
380.22	212.80
380.60	212.71
380.98	212.71
381.36	212.66
381.73	212.61
382.11	212.56
382.49	212.59
382.87	212.52
383.25	212.48
383.62	212.69
384.00	212.69
384.38	212.72
384.76	212.70
385.13	212.73
385.51	212.79
385.89	212.72
386.27	212.66
386.64	212.62
387.02	212.55
387.40	212.50
387.78	212.48
388.15	212.37
388.53	212.25
388.91	212.21
389.29	212.15
389.66	212.11
390.04	212.03
390.42	211.99
390.79	211.95
391.17	211.97
391.55	211.71
391.92	211.62
392.30	211.55
392.68	211.51
393.05	211.51
393.43	211.42
393.81	211.45
394.18	211.38
394.56	211.46
394.94	211.54
395.31	211.52
395.69	211.57
396.06	211.56
396.44	211.65
396.82	211.58
397.19	211.63
397.57	211.64
397.95	211.70
398.32	211.63
398.70	211.77
399.07	211.78
399.45	211.84
399.82	211.91
400.20	211.95
400.58	211.99
400.95	211.95
401.33	212.11
401.70	212.30
402.08	212.47
402.45	212.50
402.83	212.56
403.20	212.70
403.58	212.74
403.95	212.89
404.33	212.95
404.71	213.05
405.08	213.30
405.46	213.39
405.83	213.53
406.21	213.75
406.58	213.85
406.96	213.99
407.33	214.08
407.70	214.31
408.08	214.62
408.45	214.85
408.83	215.13
409.20	215.30
409.58	215.48
409.95	215.76
410.33	216.02
410.70	216.25
411.08	216.56
411.45	216.93
411.82	217.27
412.20	217.76
412.57	218.33
412.95	218.56
413.32	219.16
413.69	219.67
414.07	220.21
414.44	220.85
414.82	221.56
415.19	222.32
415.56	223.03
415.94	223.85
416.31	224.78
416.68	225.63
417.06	226.65
417.43	227.60
417.81	228.73
418.18	229.90
418.55	231.12
418.93	232.38
419.30	233.76
419.67	235.12
420.04	236.49
420.42	238.00
420.79	239.83
421.16	241.51
421.54	243.33
421.91	245.16
422.28	247.11
422.66	249.10
423.03	251.18
423.40	253.26
423.77	255.40
424.15	257.58
424.52	259.92
424.89	262.40
425.26	264.88
425.64	267.14
426.01	269.66
426.38	272.38
426.75	275.13
427.13	277.77
427.50	280.74
427.87	283.76
428.24	286.86
428.61	289.85
428.99	293.12
429.36	296.54
429.73	300.04
430.10	303.40
430.47	306.91
430.85	310.57
431.22	314.47
431.59	318.60
431.96	322.51
432.33	326.83
432.70	331.09
433.08	335.96
433.45	340.68
433.82	345.29
434.19	350.45
434.56	355.41
434.93	360.29
435.30	365.15
435.68	370.46
436.05	375.60
436.42	380.72
436.79	385.31
437.16	390.42
437.53	395.70
437.90	400.96
438.27	406.15
438.64	411.50
439.01	416.39
439.38	420.73
439.75	424.98
440.13	429.76
440.50	434.30
440.87	437.99
441.24	441.65
441.61	445.85
441.98	448.84
442.35	452.48
442.72	455.99
443.09	459.40
443.46	461.44
443.83	462.76
444.20	463.86
444.57	465.77
444.94	466.57
445.31	467.26
445.68	468.02
446.05	468.26
446.42	467.60
446.79	466.83
447.16	465.96
447.53	465.38
447.90	463.25
448.27	461.18
448.64	458.29
449.01	456.21
449.37	452.60
449.74	449.08
450.11	444.86
450.48	440.37
450.85	435.79
451.22	431.82
451.59	427.99
451.96	424.43
452.33	419.50
452.70	415.16
453.07	410.07
453.43	404.81
453.80	399.75
454.17	394.88
454.54	390.40
454.91	385.60
455.28	380.94
455.65	376.63
456.02	372.25
456.38	368.54
456.75	363.89
457.12	360.00
457.49	356.18
457.86	352.53
458.23	349.39
458.59	345.91
458.96	342.34
459.33	339.30
459.70	336.13
460.07	333.59
460.43	330.69
460.80	328.00
461.17	325.69
461.54	323.31
461.91	321.07
462.27	318.77
462.64	316.75
463.01	314.44
463.38	312.33
463.74	310.14
464.11	308.22
464.48	306.67
464.85	304.87
465.21	303.51
465.58	302.04
465.95	300.32
466.32	298.95
466.68	297.64
467.05	296.28
467.42	294.93
467.78	293.58
468.15	292.29
468.52	291.44
468.88	290.07
469.25	288.83
469.62	287.89
469.98	286.87
470.35	285.92
470.72	285.09
471.08	284.12
471.45	283.35
471.82	282.58
472.18	281.66
472.55	281.16
472.92	280.45
473.28	279.91
473.65	279.33
474.02	278.61
474.38	278.17
474.75	277.75
475.11	277.30
475.48	277.00
475.85	276.72
476.21	276.45
476.58	276.41
476.94	276.40
477.31	276.25
477.67	276.09
478.04	276.21
478.41	276.27
478.77	276.60
479.14	276.67
479.50	276.99
479.87	277.49
480.23	277.85
480.60	278.30
480.96	278.67
481.33	279.39
481.69	280.11
482.06	280.74
482.42	281.48
482.79	282.29
483.15	283.23
483.52	284.22
483.88	285.13
484.25	286.17
484.61	287.27
484.98	288.50
485.34	289.89
485.71	291.25
486.07	292.71
486.44	294.05
486.80	295.67
487.17	297.20
487.53	298.84
487.90	300.63
488.26	302.63
488.62	304.70
488.99	306.58
489.35	308.74
489.72	311.04
490.08	313.31
490.44	315.80
490.81	318.43
491.17	321.05
491.54	323.95
491.90	327.01
492.26	330.12
492.63	333.39
492.99	336.83
493.36	340.41
493.72	344.35
494.08	348.34
494.45	352.59
494.81	357.13
495.17	361.83
495.54	366.72
495.90	371.69
496.26	376.86
496.63	382.40
496.99	388.12
497.35	394.16
497.72	400.42
498.08	406.89
498.44	413.61
498.80	420.90
499.17	428.20
499.53	435.73
499.89	443.80
500.26	451.96
500.62	460.20
500.98	469.01
501.34	477.94
501.71	487.32
502.07	496.96
502.43	506.83
502.79	516.86
503.16	527.62
503.52	538.38
503.88	549.68
504.24	561.28
504.60	573.09
504.97	585.45
505.33	598.03
505.69	611.29
506.05	624.67
506.41	638.24
506.78	652.04
507.14	666.31
507.50	680.66
507.86	695.68
508.22	710.99
508.59	726.70
508.95	742.83
509.31	759.10
509.67	775.80
510.03	792.80
510.39	810.47
510.75	827.91
511.12	846.07
511.48	864.50
511.84	883.13
512.20	901.74
512.56	921.02
512.92	940.36
513.28	959.82
513.64	979.72
514.00	999.57
514.37	1020.02
514.73	1040.84
515.09	1061.60
515.45	1082.52
515.81	1103.86
516.17	1124.86
516.53	1146.30
516.89	1167.75
517.25	1189.39
517.61	1211.15
517.97	1232.90
518.33	1254.67
518.69	1276.37
519.05	1298.12
519.41	1320.24
519.77	1343.10
520.13	1365.17
520.49	1387.40
520.85	1410.07
521.21	1432.55
521.57	1455.47
521.93	1477.39
522.29	1500.00
522.65	1522.64
523.01	1545.09
523.37	1567.18
523.73	1589.67
524.09	1611.74
524.45	1634.27
524.81	1656.47
525.17	1678.89
525.53	1701.19
525.89	1723.48
526.25	1745.69
526.61	1767.18
526.97	1788.69
527.33	1809.83
527.68	1831.15
528.04	1852.25
528.40	1872.45
528.76	1893.26
529.12	1913.78
529.48	1935.68
529.84	1955.93
530.20	1976.45
530.56	1996.90
530.91	2017.69
531.27	2038.10
531.63	2057.80
531.99	2077.41
532.35	2096.81
532.71	2115.81
533.07	2135.07
533.42	2153.66
533.78	2172.30
534.14	2190.95
534.50	2208.43
534.86	2226.84
535.21	2243.70
535.57	2261.58
535.93	2279.09
536.29	2296.00
536.65	2312.87
537.00	2328.16
537.36	2343.50
537.72	2358.78
538.08	2374.08
538.44	2389.25
538.79	2404.50
539.15	2419.48
539.51	2434.20
539.87	2449.38
540.22	2463.55
540.58	2478.69
540.94	2492.90
541.29	2506.03
541.65	2518.29
542.01	2531.49
542.37	2543.03
542.72	2555.43
543.08	2566.60
543.44	2578.65
543.79	2588.80
544.15	2598.89
544.51	2609.88
544.87	2621.15
545.22	2630.00
545.58	2638.58
545.94	2645.64
546.29	2652.11
546.65	2658.75
547.01	2664.79
547.36	2670.23
547.72	2675.77
548.07	2679.55
548.43	2683.77
548.79	2687.60
549.14	2692.00
549.50	2696.15
549.86	2700.28
550.21	2704.10
550.57	2708.01
550.92	2710.40
551.28	2713.08
551.64	2715.75
551.99	2718.10
552.35	2719.34
552.70	2722.28
553.06	2725.08
553.41	2728.49
553.77	2731.30
554.13	2733.42
554.48	2735.77
554.84	2737.32
555.19	2738.06
555.55	2738.70
555.90	2738.95
556.26	2739.42
556.61	2739.43
556.97	2738.44
557.32	2737.88
557.68	2736.25
558.03	2734.96
558.39	2733.30
558.74	2732.99
559.10	2731.60
559.45	2729.71
559.81	2728.67
560.16	2726.13
560.52	2723.31
560.87	2720.12
561.23	2716.20
561.58	2714.02
561.94	2710.91
562.29	2707.18
562.64	2705.19
563.00	2702.70
563.35	2700.71
563.71	2698.94
564.06	2696.95
564.42	2694.91
564.77	2692.41
565.12	2690.62
565.48	2687.28
565.83	2684.30
566.19	2680.72
566.54	2676.44
566.89	2672.81
567.25	2669.30
567.60	2666.33
567.96	2662.95
568.31	2659.40
568.66	2655.90
569.02	2651.03
569.37	2645.65
569.72	2641.81
570.08	2636.49
570.43	2630.64
570.78	2624.87
571.14	2618.83
571.49	2611.99
571.84	2606.30
572.20	2599.67
572.55	2593.13
572.90	2586.32
573.26	2579.65
573.61	2572.73
573.96	2566.18
574.31	2557.95
574.67	2549.60
575.02	2540.47
575.37	2531.57
575.72	2522.76
576.08	2515.08
576.43	2506.37
576.78	2498.58
577.13	2490.59
577.49	2482.50
577.84	2474.86
578.19	2467.08
578.54	2459.30
578.90	2452.59
579.25	2443.47
579.60	2434.44
579.95	2425.03
580.30	2417.03
580.66	2408.44
581.01	2399.06
581.36	2389.70
581.71	2381.72
582.06	2373.17
582.42	2365.27
582.77	2356.27
583.12	2347.24
583.47	2338.51
583.82	2330.41
584.17	2321.28
584.53	2311.79
584.88	2302.85
585.23	2293.81
585.58	2284.27
585.93	2274.44
586.28	2265.06
586.63	2256.55
586.98	2247.88
587.34	2239.90
587.69	2230.78
588.04	2221.70
588.39	2213.55
588.74	2205.15
589.09	2196.29
589.44	2186.78
589.79	2178.33
590.14	2170.65
590.49	2162.44
590.84	2153.43
591.19	2145.05
591.54	2136.39
591.89	2126.65
592.25	2117.74
592.60	2108.18
592.95	2098.80
593.30	2089.48
593.65	2079.25
594.00	2069.43
594.35	2061.18
594.70	2051.67
595.05	2042.90
595.40	2034.42
595.75	2024.80
596.10	2016.55
596.45	2007.89
596.80	2000.10
597.15	1991.73
597.50	1982.60
597.85	1974.08
598.19	1965.47
598.54	1957.10
598.89	1949.19
599.24	1942.73
599.59	1935.16
599.94	1928.15
600.29	1920.48
600.64	1912.61
600.99	1904.76
601.34	1897.51
601.69	1888.77
602.04	1880.76
602.39	1872.57
602.74	1864.74
603.08	1858.46
603.43	1851.12
603.78	1843.32
604.13	1835.15
604.48	1827.13
604.83	1819.94
605.18	1812.90
605.53	1805.14
605.87	1797.20
606.22	1790.20
606.57	1781.95
606.92	1773.52
607.27	1765.39
607.62	1758.21
607.96	1751.13
608.31	1744.90
608.66	1737.13
609.01	1729.70
609.36	1722.00
609.70	1714.22
610.05	1706.43
610.40	1697.88
610.75	1689.33
611.10	1681.59
611.44	1672.81
611.79	1663.79
612.14	1654.50
612.49	1644.86
612.83	1636.38
613.18	1626.76
613.53	1616.87
613.88	1607.13
614.22	1598.25
614.57	1588.94
614.92	1579.50
615.27	1570.25
615.61	1560.40
615.96	1551.63
616.31	1543.03
616.65	1535.17
617.00	1526.79
617.35	1517.88
617.70	1508.90
618.04	1499.82
618.39	1490.32
618.74	1481.65
619.08	1473.10
619.43	1464.98
619.78	1457.15
620.12	1448.93
620.47	1441.41
620.82	1433.33
621.16	1425.05
621.51	1416.90
621.85	1408.58
622.20	1400.12
622.55	1391.82
622.89	1383.58
623.24	1375.53
623.59	1367.01
623.93	1358.12
624.28	1349.68
624.62	1341.66
624.97	1333.55
625.32	1325.74
625.66	1318.65
626.01	1311.63
626.35	1304.32
626.70	1296.39
627.04	1288.92
627.39	1281.17
627.73	1273.56
628.08	1266.52
628.43	1259.22
628.77	1251.63
629.12	1244.23
629.46	1237.32
629.81	1230.00
630.15	1222.65
630.50	1215.16
630.84	1207.88
631.19	1200.82
631.53	1194.10
631.88	1186.66
632.22	1179.17
632.57	1172.12
632.91	1164.60
633.26	1156.98
633.60	1149.81
633.95	1143.02
634.29	1135.69
634.64	1128.96
634.98	1121.73
635.32	1114.52
635.67	1108.14
636.01	1101.62
636.36	1094.90
636.70	1088.34
637.05	1081.95
637.39	1075.80
637.73	1069.60
638.08	1063.85
638.42	1057.92
638.77	1051.30
639.11	1045.00
639.45	1038.83
639.80	1032.25
640.14	1026.04
640.49	1019.78
640.83	1013.47
641.17	1007.11
641.52	1001.22
641.86	994.93
642.20	988.87
642.55	982.21
642.89	975.66
643.23	969.14
643.58	963.30
643.92	957.10
644.26	950.70
644.61	944.42
644.95	938.45
645.29	932.07
645.64	925.38
645.98	919.33
646.32	913.41
646.66	907.54
647.01	901.63
647.35	895.52
647.69	889.20
648.04	883.22
648.38	877.39
648.72	871.14
649.06	864.93
649.41	858.92
649.75	853.28
650.09	847.72
650.43	841.91
650.78	835.66
651.12	829.33
651.46	823.65
651.80	817.82
652.14	811.78
652.49	805.77
652.83	799.95
653.17	793.81
653.51	787.90
653.85	782.21
654.20	776.43
654.54	770.78
654.88	765.55
655.22	759.71
655.56	753.79
655.90	748.13
656.25	742.62
656.59	737.13
656.93	731.92
657.27	726.50
657.61	721.01
657.95	715.99
658.29	710.87
658.64	705.69
658.98	700.45
659.32	694.94
659.66	689.71
660.00	684.59
660.34	679.46
660.68	674.38
661.02	669.23
661.36	664.45
661.70	659.46
662.05	654.57
662.39	650.06
662.73	645.75
663.07	641.41
663.41	637.05
663.75	632.53
664.09	627.68
664.43	623.03
664.77	618.69
665.11	614.14
665.45	609.90
665.79	605.53
666.13	601.20
666.47	597.02
666.81	592.82
667.15	588.72
667.49	584.95
667.83	580.92
668.17	577.07
668.51	573.27
668.85	569.54
669.19	565.85
669.53	562.17
669.87	558.10
670.21	554.04
670.55	550.14
670.89	546.65
671.23	543.25
671.57	539.58
671.91	535.99
672.25	532.40
672.58	528.90
672.92	525.41
673.26	522.27
673.60	519.10
673.94	515.79
674.28	512.51
674.62	509.27
674.96	506.12
675.30	503.01
675.64	499.72
675.97	496.40
676.31	493.33
676.65	490.22
676.99	487.53
677.33	484.65
677.67	481.70
678.01	478.55
678.34	475.60
678.68	472.85
679.02	469.92
679.36	467.06
679.70	464.16
680.04	461.25
680.37	458.17
680.71	455.27
681.05	452.64
681.39	449.95
681.73	447.27
682.06	444.75
682.40	442.03
682.74	439.48
683.08	437.04
683.42	434.38
683.75	431.84
684.09	429.18
684.43	426.75
684.77	424.12
685.10	421.61
685.44	419.01
685.78	416.50
686.12	414.23
686.45	411.86
686.79	409.63
687.13	407.52
687.46	405.35
687.80	403.23
688.14	400.94
688.48	398.77
688.81	396.53
689.15	394.29
689.49	392.01
689.82	389.83
690.16	387.55
690.50	385.33
690.83	383.13
691.17	380.99
691.51	378.84
691.84	376.82
692.18	374.92
692.52	373.07
692.85	371.07
693.19	369.16
693.52	367.32
693.86	365.37
694.20	363.50
694.53	361.59
694.87	359.63
695.21	357.78
695.54	355.86
695.88	353.97
696.21	352.20
696.55	350.57
696.88	348.78
697.22	347.01
697.56	345.43
697.89	343.75
698.23	342.10
698.56	340.40
698.90	338.94
699.23	337.20
699.57	335.58
699.90	334.06
700.24	332.44
700.58	330.83
700.91	329.30
701.25	327.89
701.58	326.50
701.92	325.03
702.25	323.63
702.59	322.30
702.92	320.93
703.26	319.49
703.59	318.19
703.93	317.08
704.26	315.89
704.60	314.59
704.93	313.39
705.26	312.15
705.60	310.99
705.93	309.70
706.27	308.62
706.60	307.49
706.94	306.46
707.27	305.31
707.61	304.17
707.94	303.07
708.27	301.74
708.61	300.55
708.94	299.47
709.28	298.28
709.61	297.18
709.94	296.06
710.28	295.00
710.61	293.97
710.95	292.70
711.28	291.76
711.61	290.72
711.95	289.72
712.28	288.60
712.61	287.58
712.95	286.60
713.28	285.60
713.61	284.70
713.95	283.74
714.28	282.86
714.61	281.88
714.95	280.90
715.28	280.03
715.61	279.07
715.95	278.13
716.28	277.24
716.61	276.36
716.95	275.46
717.28	274.69
717.61	273.87
717.94	273.10
718.28	272.22
718.61	271.54
718.94	270.76
719.27	270.05
719.61	269.39
719.94	268.76
720.27	268.00
720.60	267.24
720.94	266.49
721.27	265.75
721.60	265.17
721.93	264.53
722.27	263.92
722.60	263.36
722.93	262.77
723.26	262.30
723.59	261.69
723.93	261.19
724.26	260.64
724.59	260.01
724.92	259.45
725.25	258.96
725.59	258.29
725.92	257.87
726.25	257.32
726.58	256.81
726.91	256.16
727.24	255.61
727.57	255.14
727.91	254.52
728.24	254.06
728.57	253.54
728.90	253.16
729.23	252.60
729.56	252.24
729.89	251.72
730.22	251.19
730.55	250.79
730.89	250.34
731.22	249.82
731.55	249.34
731.88	248.90
732.21	248.47
732.54	248.03
732.87	247.59
733.20	247.24
733.53	246.76
733.86	246.41
734.19	246.08
734.52	245.69
734.85	245.50
735.18	245.08
735.51	244.77
735.84	244.38
736.17	244.11
736.50	243.67
736.83	243.60
737.16	243.23
737.49	242.90
737.82	242.51
738.15	242.20
738.48	241.96
738.81	241.61
739.14	241.15
739.47	240.82
739.80	240.43
740.13	240.10
740.46	239.72
740.79	239.38
741.12	239.04
741.45	238.70
741.78	238.36
742.11	238.10
742.44	237.75
742.77	237.47
743.10	237.13
743.43	236.80
743.75	236.35
744.08	236.26
744.41	235.87
744.74	235.62
745.07	235.29
745.40	234.98
745.73	234.78
746.06	234.52
746.39	234.23
746.71	233.87
747.04	233.59
747.37	233.38
747.70	233.16
748.03	232.90
748.36	232.64
748.68	232.30
749.01	231.99
749.34	231.67
749.67	231.40
750.00	231.21
750.33	231.06
750.65	230.78
750.98	230.32
751.31	230.12
751.64	229.92
751.97	229.77
752.29	229.51
752.62	229.14
752.95	228.91
753.28	228.70
753.60	228.54
753.93	228.37
754.26	228.13
754.59	227.86
754.91	227.63
755.24	227.37
755.57	227.25
755.90	227.05
756.22	226.94
756.55	226.65
756.88	226.45
757.20	226.18
757.53	225.96
757.86	225.79
758.19	225.63
758.51	225.40
758.84	225.15
759.17	224.95
759.49	224.84
759.82	224.76
760.15	224.60
760.47	224.37
760.80	224.13
761.13	224.04
761.45	223.90
761.78	223.71
762.11	223.61
762.43	223.33
762.76	223.15
763.08	223.01
763.41	222.91
763.74	222.73
764.06	222.55
764.39	222.29
764.71	222.19
765.04	222.04
765.37	221.83
765.69	221.66
766.02	221.57
766.34	221.45
766.67	221.33
767.00	221.23
767.32	221.29
767.65	221.33
767.97	221.14
768.30	220.97
768.62	220.91
768.95	220.72
769.27	220.65
769.60	220.58
769.92	220.37
770.25	220.24
770.57	220.16
770.90	220.06
771.22	220.05
771.55	219.99
771.87	219.90
772.20	219.84
772.52	219.89
772.85	219.99
773.17	219.88
773.50	219.72
773.82	219.56
774.15	219.35
774.47	219.12
774.80	218.98
775.12	218.94
775.45	218.82
775.77	218.79
776.09	218.76
776.42	218.66
776.74	218.70
777.07	218.66
777.39	218.55
777.72	218.45
778.04	218.40
778.36	218.22
778.69	218.09
779.01	218.03
779.33	217.85
779.66	217.55
779.98	217.43
780.31	217.33
780.63	217.35
780.95	217.26
781.28	217.12
781.60	217.12
781.92	217.00
782.25	216.98
782.57	216.91
782.89	216.80
783.22	216.73
783.54	216.55
783.86	216.56
784.19	216.47
784.51	216.46
784.83	216.39
785.16	216.35
785.48	216.30
785.80	216.29
786.12	216.27
786.45	216.23
786.77	216.24
787.09	216.23
787.42	216.16
787.74	216.10
788.06	216.11
788.38	216.09
788.71	216.07
789.03	215.93
789.35	215.88
789.67	215.74
789.99	215.70
790.32	215.73
790.64	215.68
790.96	215.78
791.28	215.69
791.61	215.68
791.93	215.62
792.25	215.59
792.57	215.67
792.89	215.58
793.21	215.53
793.54	215.43
793.86	215.37
794.18	215.33
794.50	215.26
794.82	215.21
795.14	215.08
795.47	215.05
795.79	215.08
796.11	215.05
796.43	215.11
796.75	215.09
797.07	215.02
797.39	214.91
797.71	214.72
798.04	214.66
798.36	214.59
798.68	214.60
799.00	214.57
799.32	214.42
799.64	214.35
799.96	214.30
800.28	214.26
800.60	214.23
800.92	214.16
801.24	214.21
801.56	214.17
801.89	214.19
802.21	214.14
802.53	214.09
802.85	214.11
803.17	214.11
803.49	214.07
803.81	213.99
804.13	213.90
804.45	213.89
804.77	213.92
805.09	213.84
805.41	213.75
805.73	213.64
806.05	213.57
806.37	213.54
806.69	213.55
807.01	213.52
807.33	213.47
807.65	213.44
807.97	213.44
808.28	213.32
808.60	213.28
808.92	213.29
809.24	213.34
809.56	213.25
809.88	213.18
810.20	213.19
810.52	213.27
810.84	213.25
811.16	213.28
811.48	213.22
811.80	213.34
812.12	213.30
812.43	213.46
812.75	213.50
813.07	213.47
813.39	213.46
813.71	213.48
814.03	213.45
814.35	213.40
814.67	213.33
814.98	213.42
815.30	213.37
815.62	213.31
815.94	213.12
816.26	213.14
816.58	213.09
816.89	213.02
817.21	213.00
817.53	213.04
817.85	212.95
818.17	212.97
818.48	212.89
818.80	212.96
819.12	212.84
819.44	212.77
819.76	212.77
820.07	212.80
820.39	212.77
820.71	212.84
821.03	212.90
821.34	212.88
821.66	212.89
821.98	212.96
822.30	212.95
822.61	213.17
822.93	213.10
823.25	213.10
823.57	213.16
823.88	213.08
824.20	213.03
824.52	213.09
824.83	213.07
825.15	213.01
825.47	212.97
825.79	213.04
826.10	213.03
826.42	213.03
826.74	212.98
827.05	213.00
827.37	212.95
827.69	212.89
828.00	212.87
828.32	212.79
828.64	212.74
828.95	212.80
829.27	212.71
829.58	212.78
829.90	212.81
830.22	212.71
830.53	212.69
830.85	212.71
831.17	212.61
831.48	212.58
831.80	212.61
832.11	212.57
832.43	212.49
832.75	212.46
833.06	212.54
833.38	212.50
833.69	212.49
834.01	212.48
834.32	212.46
834.64	212.49
834.96	212.53
835.27	212.51
835.59	212.49
835.90	212.45
836.22	212.43
836.53	212.40
836.85	212.43
837.16	212.61
837.48	212.54
837.79	212.63
838.11	212.66
838.42	212.69
838.74	212.71
839.05	212.64
839.37	212.62
839.68	212.53
840.00	212.47
840.31	212.47
840.63	212.45
840.94	212.46
841.26	212.36
841.57	212.40
841.88	212.41
842.20	212.36
842.51	212.33
842.83	212.30
843.14	212.39
843.46	212.42
843.77	212.40
844.08	212.48
844.40	212.37
844.71	212.35
845.03	212.32
845.34	212.35
845.65	212.39
845.97	212.40
846.28	212.38
846.60	212.46
846.91	212.42
847.22	212.41
847.54	212.38
847.85	212.38
848.16	212.33
848.48	212.29
848.79	212.37
849.10	212.37
849.42	212.43
849.73	212.31
850.04	212.26
850.36	212.14
850.67	212.13
850.98	212.12
851.30	212.12
851.61	212.06
851.92	211.99
852.23	212.05
852.55	212.05
852.86	212.10
853.17	212.07
853.49	212.11
853.80	212.11
854.11	212.18
854.42	212.19
854.74	212.12
855.05	212.10
855.36	211.98
855.67	211.96
855.99	211.87
856.30	212.07
856.61	212.04
856.92	211.97
857.23	211.88
857.55	211.90
857.86	211.85
858.17	211.94
858.48	211.88
858.79	211.85
859.11	211.82
859.42	211.79
859.73	211.77
860.04	211.78
860.35	211.72
860.66	211.56
860.98	211.60
861.29	211.61
861.60	211.56
861.91	211.52
862.22	211.54
862.53	211.48
862.84	211.24
863.16	211.30
863.47	211.33
863.78	211.30
864.09	211.32
864.40	211.26
864.71	211.18
865.02	211.23
865.33	211.17
865.64	211.16
865.95	211.17
866.27	211.26
866.58	211.23
866.89	211.27
867.20	211.36
867.51	211.31
867.82	211.35
868.13	211.46
868.44	211.60
868.75	211.62
869.06	211.64
869.37	211.70
869.68	211.60
869.99	211.68
870.30	211.74
870.61	211.72
870.92	211.74
871.23	211.75
871.54	211.78
871.85	211.81
872.16	211.87
872.47	211.80
872.78	211.69
873.09	211.65
873.40	211.66
873.71	211.71
874.02	211.71
874.33	211.67
874.64	211.56
874.95	211.56
875.26	211.48
875.56	211.53
875.87	211.50
876.18	211.45
876.49	211.56
876.80	211.55
877.11	211.52
877.42	211.58
877.73	211.52
878.04	211.50
878.35	211.54
878.66	211.50
878.96	211.45
879.27	211.50
879.58	211.54
879.89	211.53
880.20	211.45
880.51	211.43
880.82	211.42
881.12	211.45
881.43	211.41
881.74	211.39
882.05	211.36
882.36	211.39
882.67	211.46
882.97	211.29
883.28	211.25
883.59	211.30
883.90	211.30
884.21	211.36
884.51	211.33
884.82	211.28
885.13	211.26
885.44	211.33
885.74	211.30
886.05	211.29
886.36	211.27
886.67	211.31
886.98	211.42
887.28	211.40
887.59	211.44
887.90	211.38
888.20	211.36
888.51	211.40
888.82	211.38
889.13	211.42
889.43	211.51
889.74	211.58
890.05	211.52
890.35	211.45
890.66	211.42
890.97	211.49
891.28	211.45
891.58	211.51
891.89	211.57
892.20	211.60
892.50	211.61
892.81	211.62
893.12	211.56
893.42	211.49
893.73	211.60
894.04	211.68
894.34	211.79
894.65	211.83
894.95	211.77
895.26	211.72
895.57	211.80
895.87	211.70
896.18	211.70
896.48	211.70
896.79	211.75
897.10	211.82
897.40	211.74
897.71	211.75
898.01	211.67
898.32	211.62
898.63	211.55
898.93	211.50
899.24	211.51
899.54	211.56
899.85	211.57
900.15	211.49
900.46	211.41
900.76	211.39
901.07	211.41
901.38	211.40
901.68	211.45
901.99	211.30
902.29	211.27
902.60	211.20
902.90	211.14
903.21	211.13
903.51	211.10
903.82	211.23
904.12	211.25
904.43	211.28
904.73	211.30
905.03	211.25
905.34	211.44
905.64	211.39
905.95	211.37
906.25	211.34
906.56	211.30
906.86	211.30
907.17	211.20
907.47	211.20
907.77	211.20
908.08	211.18
908.38	211.30
908.69	211.31
908.99	211.39
909.30	211.41
909.60	211.45
909.90	211.50
910.21	211.42
910.51	211.39
910.81	211.33
911.12	211.33
911.42	211.41
911.73	211.27
912.03	211.35
912.33	211.37
912.64	211.37
912.94	211.46
913.24	211.43
913.55	211.46
913.85	211.43
914.15	211.45
914.46	211.51
914.76	211.43
915.06	211.47
915.37	211.43
915.67	211.52
915.97	211.53
916.27	211.49
916.58	211.40
916.88	211.40
917.18	211.35
917.49	211.40
917.79	211.37
918.09	211.40
918.39	211.37
918.70	211.35
919.00	211.39
919.30	211.41
919.60	211.43
919.91	211.44
920.21	211.48
920.51	211.41
920.81	211.38
921.12	211.40
921.42	211.33
921.72	211.35
922.02	211.30
922.32	211.32
922.63	211.26
922.93	211.45
923.23	211.44
923.53	211.54
923.83	211.49
924.13	211.54
924.44	211.54
924.74	211.60
925.04	211.62
925.34	211.57
925.64	211.45
925.94	211.47
926.24	211.57
926.55	211.55
926.85	211.64
927.15	211.57
927.45	211.50
927.75	211.47
928.05	211.41
928.35	211.39
928.65	211.39
928.95	211.42
929.26	211.29
929.56	211.36
929.86	211.33
930.16	211.32
930.46	211.29
930.76	211.15
931.06	211.05
931.36	211.02
931.66	211.05
931.96	211.10
932.26	211.10
932.56	210.95
932.86	210.95
933.16	210.94
933.46	210.94
933.76	210.97
934.06	211.05
934.36	211.13
934.66	211.13
934.96	211.10
935.26	211.04
935.56	211.09
935.86	211.02
936.16	211.02
936.46	210.92
936.76	210.86
937.06	210.96
937.36	210.94
937.66	210.88
937.96	210.89
938.26	210.84
938.56	210.82
938.86	210.86
939.16	210.87
939.46	210.91
939.76	211.03
940.06	210.96
940.35	210.90
940.65	210.78
940.95	210.78
941.25	210.68
941.55	210.71
941.85	210.69
942.15	210.80
942.45	210.85
942.75	210.84
943.04	210.84
943.34	210.85
943.64	210.86
943.94	210.82
944.24	210.85
944.54	210.92
944.84	210.84
945.13	210.79
945.43	210.71
945.73	210.64
946.03	210.56
946.33	210.59
946.62	210.60
946.92	210.70
947.22	210.65
947.52	210.71
947.82	210.77
948.11	210.76
948.41	210.61
948.71	210.60
949.01	210.65
949.31	210.67
949.60	210.64
949.90	210.67
950.20	210.78
950.50	210.73
950.79	210.67
951.09	210.74
951.39	210.79
951.69	210.85
951.98	210.84
952.28	210.88
952.58	210.93
952.87	210.96
953.17	210.91
953.47	210.95
953.76	210.97
954.06	210.86
954.36	210.83
954.66	210.82
954.95	210.82
955.25	210.83
955.55	210.88
955.84	210.85
956.14	210.89
956.44	210.88
956.73	210.87
957.03	210.97
957.32	210.99
957.62	210.93
957.92	210.96
958.21	210.98
958.51	211.14
958.81	211.15
959.10	211.11
959.40	211.14
959.69	211.21
959.99	211.20
960.29	211.22
960.58	211.26
960.88	211.38
961.17	211.37
961.47	211.40
961.76	211.36
962.06	211.46
962.36	211.44
962.65	211.45
962.95	211.41
963.24	211.32
963.54	211.30
963.83	211.33
964.13	211.33
964.42	211.32
964.72	211.17
965.01	211.18
965.31	211.28
965.60	211.31
965.90	211.33
966.19	211.30
966.49	211.30
966.78	211.29
967.08	211.27
967.37	211.27
967.67	211.22
967.96	211.21
968.26	211.13
968.55	211.07
968.85	211.00
969.14	211.05
969.43	210.99
969.73	211.02
970.02	211.05
970.32	211.05
970.61	211.06
970.91	211.00
971.20	210.96
971.49	210.87
971.79	210.80
972.08	210.70
972.38	210.66
972.67	210.73
972.96	210.69
973.26	210.66
973.55	210.76
973.85	210.70
974.14	210.76
974.43	210.76
974.73	210.74
975.02	210.76
975.31	210.72
975.61	210.81
975.90	210.72
976.19	210.67
976.49	210.68
976.78	210.65
977.07	210.70
977.37	210.73
977.66	210.70
977.95	210.77
978.24	210.80
978.54	210.95
978.83	210.87
979.12	210.93
979.42	210.90
979.71	210.83
980.00	210.90
980.29	210.92
980.59	210.93
980.88	211.02
981.17	211.07
981.46	211.14
981.76	211.09
982.05	211.16
982.34	211.24
982.63	211.12
982.93	211.16
983.22	211.15
983.51	211.13
983.80	211.18
984.09	211.17
984.39	211.17
984.68	211.11
984.97	211.11
985.26	211.04
985.55	211.09
985.85	211.12
986.14	211.17
986.43	211.10
986.72	211.08
987.01	210.99
987.30	210.90
987.59	210.85
987.89	210.92
988.18	210.88
988.47	210.85
988.76	210.91
989.05	210.88
989.34	210.84
989.63	210.88
989.92	210.90
990.22	210.90
990.51	210.91
990.80	210.84
991.09	210.90
991.38	210.87
991.67	210.88
991.96	210.82
992.25	210.80
992.54	210.80
992.83	210.82
993.12	210.87
993.41	210.92
993.70	211.01
993.99	210.96
994.28	210.98
994.58	210.92
994.87	210.91
995.16	210.89
995.45	210.90
995.74	210.88
996.03	210.84
996.32	210.83
996.61	210.79
996.90	210.82
997.19	210.83
997.48	210.87
997.77	210.82
998.06	210.81
998.34	210.76
998.63	210.80
998.92	210.76
999.21	210.78
999.50	210.76
999.79	210.71
1000.08	210.74
1000.37	210.69
1000.66	210.76
1000.95	210.81
1001.24	210.74
1001.53	210.74
1001.82	210.68
1002.11	210.65
1002.40	210.66
1002.68	210.73
1002.97	210.84
1003.26	210.76
1003.55	210.81
1003.84	210.78
1004.13	210.88
1004.42	210.86
1004.71	210.80
1004.99	210.85
1005.28	210.83
1005.57	210.83
1005.86	210.83
1006.15	210.80
1006.44	210.77
1006.72	210.70
1007.01	210.59
1007.30	210.70
1007.59	210.67
1007.88	210.65
1008.17	210.65
1008.45	210.53
1008.74	210.43
1009.03	210.33
1009.32	210.37
1009.60	210.33
1009.89	210.32
1010.18	210.18
1010.47	210.20
1010.76	210.21
1011.04	210.20
1011.33	210.15
1011.62	210.16
1011.91	210.10
1012.19	210.16
1012.48	210.21
1012.77	210.30
1013.05	210.41
1013.34	210.37
1013.63	210.33
1013.92	210.40
1014.20	210.45
1014.49	210.53
1014.78	210.60
1015.06	210.60
1015.35	210.62
1015.64	210.65
1015.92	210.77
1016.21	210.79
1016.50	210.80
1016.78	210.84
1017.07	210.81
1017.36	210.88
1017.64	210.81
1017.93	210.85
1018.22	210.78
1018.50	210.74
1018.79	210.72
1019.08	210.63
1019.36	210.65
1019.65	210.72
1019.93	210.74
1020.22	210.72
1020.51	210.74
1020.79	210.74
1021.08	210.15
1021.36	209.95
1021.65	211.00
1021.94	209.60
1022.22	210.90
1022.51	210.55
1022.79	211.40
1023.08	210.75
1023.36	211.30
1023.65	210.80
>>>>>End Processed Spectral Data<<<<<
