SpectraSuite Data File
++++++++++++++++++++++++++++++++++++
Date: Mon Feb 25 17:30:30 EST 2013
User: group
Dark Spectrum Present: No
Reference Spectrum Present: No
Number of Sampled Component Spectra: 1
Spectrometers: USB2E7196
Integration Time (usec): 52000 (USB2E7196)
Spectra Averaged: 20 (USB2E7196)
Boxcar Smoothing: 10 (USB2E7196)
Correct for Electrical Dark: No (USB2E7196)
Strobe/Lamp Enabled: No (USB2E7196)
Correct for Detector Non-linearity: No (USB2E7196)
Correct for Stray Light: No (USB2E7196)
Number of Pixels in Processed Spectrum: 2048
>>>>>Begin Processed Spectral Data<<<<<
339.09	0.00
339.48	198.50
339.86	199.70
340.24	201.00
340.63	202.60
341.01	206.65
341.39	206.35
341.78	207.45
342.16	207.60
342.54	207.85
342.93	198.01
343.31	208.03
343.69	208.53
344.07	209.07
344.46	209.53
344.84	209.96
345.22	210.19
345.60	210.30
345.99	210.50
346.37	210.70
346.75	210.85
347.13	210.91
347.52	210.99
347.90	211.03
348.28	211.14
348.66	211.17
349.05	211.07
349.43	211.13
349.81	211.13
350.19	211.17
350.57	211.27
350.96	211.39
351.34	211.50
351.72	211.62
352.10	211.65
352.48	211.75
352.87	211.80
353.25	211.87
353.63	212.05
354.01	212.11
354.39	212.18
354.77	212.24
355.15	212.34
355.54	212.33
355.92	212.39
356.30	212.43
356.68	212.58
357.06	212.68
357.44	212.73
357.82	212.85
358.20	212.97
358.58	213.05
358.97	213.08
359.35	213.11
359.73	213.28
360.11	213.37
360.49	213.44
360.87	213.41
361.25	213.44
361.63	213.54
362.01	213.56
362.39	213.57
362.77	213.70
363.15	213.72
363.53	213.75
363.91	213.77
364.29	213.82
364.67	213.69
365.05	213.70
365.43	213.66
365.81	213.71
366.19	213.68
366.57	213.72
366.95	213.69
367.33	213.62
367.71	213.55
368.09	213.59
368.47	213.54
368.85	213.64
369.23	213.58
369.61	213.51
369.99	213.59
370.37	213.55
370.75	213.60
371.13	213.54
371.51	213.56
371.89	213.61
372.27	213.58
372.65	213.56
373.03	213.54
373.41	213.57
373.78	213.52
374.16	213.45
374.54	213.33
374.92	213.33
375.30	213.34
375.68	213.28
376.06	213.16
376.44	213.14
376.82	213.09
377.19	213.10
377.57	213.11
377.95	213.00
378.33	213.01
378.71	212.79
379.09	212.80
379.47	212.78
379.84	212.66
380.22	212.61
380.60	212.55
380.98	212.56
381.36	212.49
381.73	212.34
382.11	212.37
382.49	212.40
382.87	212.26
383.25	212.32
383.62	212.44
384.00	212.38
384.38	212.28
384.76	212.27
385.13	212.34
385.51	212.27
385.89	212.17
386.27	212.11
386.64	212.11
387.02	212.04
387.40	211.98
387.78	211.96
388.15	211.92
388.53	211.88
388.91	211.80
389.29	211.77
389.66	211.83
390.04	211.81
390.42	211.74
390.79	211.85
391.17	211.81
391.55	211.67
391.92	211.69
392.30	211.76
392.68	211.66
393.05	211.57
393.43	211.57
393.81	211.66
394.18	211.62
394.56	211.66
394.94	211.65
395.31	211.71
395.69	211.80
396.06	211.88
396.44	211.91
396.82	211.95
397.19	212.10
397.57	212.06
397.95	212.07
398.32	212.04
398.70	212.02
399.07	212.09
399.45	212.11
399.82	212.12
400.20	212.11
400.58	212.25
400.95	212.24
401.33	212.32
401.70	212.53
402.08	212.65
402.45	212.71
402.83	212.83
403.20	212.85
403.58	212.89
403.95	213.02
404.33	213.14
404.71	213.19
405.08	213.35
405.46	213.49
405.83	213.59
406.21	213.79
406.58	213.91
406.96	214.05
407.33	214.27
407.70	214.47
408.08	214.84
408.45	215.00
408.83	215.28
409.20	215.45
409.58	215.54
409.95	215.82
410.33	216.04
410.70	216.35
411.08	216.71
411.45	217.09
411.82	217.45
412.20	217.90
412.57	218.41
412.95	218.73
413.32	219.25
413.69	219.86
414.07	220.42
414.44	221.09
414.82	221.70
415.19	222.35
415.56	223.09
415.94	223.69
416.31	224.61
416.68	225.47
417.06	226.43
417.43	227.39
417.81	228.41
418.18	229.51
418.55	230.61
418.93	231.81
419.30	233.09
419.67	234.40
420.04	235.79
420.42	237.25
420.79	239.05
421.16	240.74
421.54	242.44
421.91	244.23
422.28	246.07
422.66	248.05
423.03	250.11
423.40	252.12
423.77	254.32
424.15	256.39
424.52	258.63
424.89	261.14
425.26	263.48
425.64	265.78
426.01	268.30
426.38	271.01
426.75	273.75
427.13	276.39
427.50	279.27
427.87	282.20
428.24	285.18
428.61	287.97
428.99	291.08
429.36	294.47
429.73	297.81
430.10	301.05
430.47	304.49
430.85	307.91
431.22	311.76
431.59	315.77
431.96	319.62
432.33	323.79
432.70	327.85
433.08	332.61
433.45	337.16
433.82	341.69
434.19	346.57
434.56	351.33
434.93	356.11
435.30	360.61
435.68	365.70
436.05	370.82
436.42	375.74
436.79	380.36
437.16	385.37
437.53	390.56
437.90	395.77
438.27	400.83
438.64	406.12
439.01	410.78
439.38	415.15
439.75	419.31
440.13	424.12
440.50	428.46
440.87	432.24
441.24	435.97
441.61	440.16
441.98	443.14
442.35	446.67
442.72	450.20
443.09	453.76
443.46	455.87
443.83	457.15
444.20	458.27
444.57	460.04
444.94	460.72
445.31	461.57
445.68	462.38
446.05	462.55
446.42	461.97
446.79	461.17
447.16	460.32
447.53	459.63
447.90	457.52
448.27	455.61
448.64	452.64
449.01	450.37
449.37	446.85
449.74	443.60
450.11	439.55
450.48	435.12
450.85	430.58
451.22	426.71
451.59	423.11
451.96	419.64
452.33	415.00
452.70	410.77
453.07	405.73
453.43	400.54
453.80	395.70
454.17	391.02
454.54	386.83
454.91	382.13
455.28	377.57
455.65	373.23
456.02	368.92
456.38	365.41
456.75	360.96
457.12	357.13
457.49	353.27
457.86	349.67
458.23	346.63
458.59	343.35
458.96	339.89
459.33	336.76
459.70	333.70
460.07	331.20
460.43	328.36
460.80	325.72
461.17	323.48
461.54	321.10
461.91	318.72
462.27	316.35
462.64	314.35
463.01	312.27
463.38	310.29
463.74	308.13
464.11	306.26
464.48	304.81
464.85	303.00
465.21	301.76
465.58	300.41
465.95	298.66
466.32	297.18
466.68	295.87
467.05	294.52
467.42	293.19
467.78	291.78
468.15	290.49
468.52	289.60
468.88	288.35
469.25	287.19
469.62	286.43
469.98	285.45
470.35	284.52
470.72	283.67
471.08	282.83
471.45	282.21
471.82	281.41
472.18	280.55
472.55	280.09
472.92	279.39
473.28	278.73
473.65	278.19
474.02	277.71
474.38	277.28
474.75	276.95
475.11	276.55
475.48	276.30
475.85	276.11
476.21	275.92
476.58	275.78
476.94	275.76
477.31	275.70
477.67	275.61
478.04	275.66
478.41	275.78
478.77	276.08
479.14	276.14
479.50	276.46
479.87	276.83
480.23	277.19
480.60	277.51
480.96	277.96
481.33	278.63
481.69	279.13
482.06	279.74
482.42	280.34
482.79	281.13
483.15	281.93
483.52	282.90
483.88	283.78
484.25	284.76
484.61	285.83
484.98	286.92
485.34	288.25
485.71	289.61
486.07	290.95
486.44	292.21
486.80	293.76
487.17	295.34
487.53	297.14
487.90	298.89
488.26	300.81
488.62	302.83
488.99	304.89
489.35	307.13
489.72	309.40
490.08	311.79
490.44	314.19
490.81	316.82
491.17	319.39
491.54	322.29
491.90	325.34
492.26	328.48
492.63	331.73
492.99	335.31
493.36	338.92
493.72	342.79
494.08	346.80
494.45	351.06
494.81	355.52
495.17	360.09
495.54	365.03
495.90	370.01
496.26	375.23
496.63	380.68
496.99	386.47
497.35	392.40
497.72	398.67
498.08	405.23
498.44	411.92
498.80	419.11
499.17	426.56
499.53	434.08
499.89	442.02
500.26	450.09
500.62	458.30
500.98	466.99
501.34	476.01
501.71	485.46
502.07	494.95
502.43	504.90
502.79	514.97
503.16	525.52
503.52	536.27
503.88	547.34
504.24	558.81
504.60	570.39
504.97	582.68
505.33	595.00
505.69	608.14
506.05	621.55
506.41	635.05
506.78	648.67
507.14	662.79
507.50	677.16
507.86	691.91
508.22	707.26
508.59	722.61
508.95	738.36
509.31	754.16
509.67	771.01
510.03	787.64
510.39	805.07
510.75	822.67
511.12	840.75
511.48	859.01
511.84	877.45
512.20	895.86
512.56	914.76
512.92	933.84
513.28	952.95
513.64	972.40
514.00	992.08
514.37	1012.03
514.73	1032.44
515.09	1053.15
515.45	1073.75
515.81	1094.36
516.17	1115.51
516.53	1136.50
516.89	1158.04
517.25	1178.91
517.61	1200.26
517.97	1221.16
518.33	1242.01
518.69	1263.14
519.05	1284.94
519.41	1306.73
519.77	1329.18
520.13	1350.80
520.49	1372.68
520.85	1395.09
521.21	1417.13
521.57	1439.55
521.93	1461.12
522.29	1483.37
522.65	1505.29
523.01	1527.40
523.37	1549.03
523.73	1570.74
524.09	1592.61
524.45	1614.14
524.81	1636.04
525.17	1657.89
525.53	1679.96
525.89	1701.93
526.25	1723.49
526.61	1743.94
526.97	1764.94
527.33	1785.77
527.68	1806.49
528.04	1827.21
528.40	1846.91
528.76	1866.97
529.12	1886.86
529.48	1908.03
529.84	1927.67
530.20	1947.39
530.56	1967.19
530.91	1987.45
531.27	2007.19
531.63	2026.33
531.99	2045.63
532.35	2064.37
532.71	2083.02
533.07	2101.69
533.42	2119.74
533.78	2138.12
534.14	2156.28
534.50	2172.76
534.86	2189.92
535.21	2206.26
535.57	2223.33
535.93	2240.08
536.29	2256.32
536.65	2272.26
537.00	2287.00
537.36	2301.93
537.72	2316.27
538.08	2330.74
538.44	2345.41
538.79	2360.30
539.15	2374.61
539.51	2388.44
539.87	2403.09
540.22	2416.82
540.58	2431.04
540.94	2444.84
541.29	2457.08
541.65	2468.99
542.01	2481.68
542.37	2492.75
542.72	2504.65
543.08	2515.01
543.44	2526.27
543.79	2535.74
544.15	2545.75
544.51	2556.20
544.87	2566.26
545.22	2575.40
545.58	2583.57
545.94	2590.36
546.29	2595.98
546.65	2602.03
547.01	2607.85
547.36	2613.07
547.72	2618.10
548.07	2621.51
548.43	2624.91
548.79	2628.48
549.14	2632.54
549.50	2636.29
549.86	2640.05
550.21	2643.79
550.57	2647.31
550.92	2649.45
551.28	2652.12
551.64	2654.11
551.99	2656.36
552.35	2658.03
552.70	2660.44
553.06	2662.90
553.41	2665.40
553.77	2668.11
554.13	2670.19
554.48	2671.83
554.84	2672.88
555.19	2673.11
555.55	2673.66
555.90	2673.99
556.26	2674.24
556.61	2673.70
556.97	2672.27
557.32	2671.59
557.68	2669.61
558.03	2667.96
558.39	2665.96
558.74	2665.07
559.10	2663.64
559.45	2661.21
559.81	2659.75
560.16	2656.70
560.52	2653.80
560.87	2650.80
561.23	2646.86
561.58	2644.31
561.94	2641.25
562.29	2637.47
562.64	2635.24
563.00	2632.72
563.35	2630.15
563.71	2628.34
564.06	2626.21
564.42	2624.46
564.77	2622.07
565.12	2620.13
565.48	2616.98
565.83	2614.03
566.19	2611.00
566.54	2606.93
566.89	2603.40
567.25	2599.24
567.60	2596.19
567.96	2592.53
568.31	2588.94
568.66	2584.95
569.02	2580.13
569.37	2574.85
569.72	2570.93
570.08	2565.71
570.43	2560.01
570.78	2554.36
571.14	2547.98
571.49	2541.00
571.84	2534.64
572.20	2527.79
572.55	2521.18
572.90	2514.72
573.26	2508.15
573.61	2501.18
573.96	2494.66
574.31	2486.73
574.67	2478.81
575.02	2470.41
575.37	2462.03
575.72	2453.22
576.08	2446.04
576.43	2437.82
576.78	2429.99
577.13	2422.06
577.49	2413.83
577.84	2406.05
578.19	2398.64
578.54	2391.20
578.90	2384.54
579.25	2376.63
579.60	2367.87
579.95	2358.89
580.30	2350.95
580.66	2342.94
581.01	2333.99
581.36	2324.43
581.71	2316.60
582.06	2308.55
582.42	2300.69
582.77	2292.07
583.12	2283.37
583.47	2274.94
583.82	2266.52
584.17	2257.86
584.53	2248.81
584.88	2240.31
585.23	2231.46
585.58	2221.99
585.93	2212.57
586.28	2203.78
586.63	2194.84
586.98	2186.88
587.34	2178.49
587.69	2169.31
588.04	2160.45
588.39	2152.42
588.74	2144.29
589.09	2135.53
589.44	2126.32
589.79	2117.76
590.14	2110.25
590.49	2102.46
590.84	2093.51
591.19	2085.84
591.54	2077.21
591.89	2067.57
592.25	2058.82
592.60	2050.12
592.95	2041.27
593.30	2032.37
593.65	2023.01
594.00	2013.96
594.35	2005.72
594.70	1997.15
595.05	1989.33
595.40	1980.96
595.75	1971.63
596.10	1963.73
596.45	1955.60
596.80	1948.03
597.15	1940.09
597.50	1930.82
597.85	1922.42
598.19	1914.28
598.54	1905.77
598.89	1898.51
599.24	1892.17
599.59	1884.80
599.94	1877.81
600.29	1870.30
600.64	1862.58
600.99	1854.20
601.34	1847.02
601.69	1838.59
602.04	1830.84
602.39	1822.64
602.74	1814.91
603.08	1808.61
603.43	1801.61
603.78	1793.83
604.13	1785.97
604.48	1778.36
604.83	1771.90
605.18	1765.10
605.53	1757.70
605.87	1750.50
606.22	1743.52
606.57	1735.76
606.92	1728.09
607.27	1720.07
607.62	1713.13
607.96	1706.49
608.31	1700.68
608.66	1693.33
609.01	1685.97
609.36	1678.40
609.70	1670.75
610.05	1663.11
610.40	1655.11
610.75	1646.83
611.10	1639.26
611.44	1630.42
611.79	1621.68
612.14	1612.50
612.49	1603.06
612.83	1594.81
613.18	1585.50
613.53	1576.12
613.88	1566.73
614.22	1557.98
614.57	1549.25
614.92	1540.13
615.27	1531.13
615.61	1521.80
615.96	1513.00
616.31	1505.01
616.65	1497.54
617.00	1489.68
617.35	1481.55
617.70	1472.95
618.04	1464.24
618.39	1455.15
618.74	1447.23
619.08	1438.80
619.43	1431.09
619.78	1423.63
620.12	1415.64
620.47	1408.05
620.82	1400.01
621.16	1391.98
621.51	1383.91
621.85	1375.76
622.20	1367.43
622.55	1359.22
622.89	1351.20
623.24	1343.68
623.59	1335.07
623.93	1326.32
624.28	1318.21
624.62	1310.05
624.97	1302.08
625.32	1294.34
625.66	1287.56
626.01	1280.49
626.35	1273.41
626.70	1265.67
627.04	1258.43
627.39	1251.05
627.73	1243.52
628.08	1236.81
628.43	1229.61
628.77	1222.51
629.12	1215.25
629.46	1208.93
629.81	1202.19
630.15	1195.16
630.50	1187.94
630.84	1180.94
631.19	1174.25
631.53	1167.52
631.88	1160.39
632.22	1152.77
632.57	1146.09
632.91	1138.64
633.26	1131.39
633.60	1124.30
633.95	1117.90
634.29	1110.75
634.64	1104.39
634.98	1097.47
635.32	1090.72
635.67	1084.69
636.01	1078.22
636.36	1071.84
636.70	1065.23
637.05	1058.40
637.39	1052.04
637.73	1045.77
638.08	1040.15
638.42	1034.27
638.77	1028.09
639.11	1021.85
639.45	1016.46
639.80	1010.20
640.14	1003.98
640.49	997.95
640.83	991.98
641.17	985.60
641.52	979.76
641.86	973.33
642.20	967.58
642.55	960.86
642.89	954.32
643.23	948.11
643.58	942.30
643.92	936.09
644.26	930.34
644.61	924.39
644.95	918.48
645.29	912.24
645.64	905.78
645.98	899.65
646.32	893.98
646.66	887.92
647.01	882.20
647.35	876.55
647.69	870.51
648.04	864.75
648.38	858.92
648.72	852.92
649.06	846.83
649.41	840.82
649.75	835.23
650.09	829.67
650.43	823.99
650.78	817.75
651.12	811.72
651.46	806.04
651.80	800.25
652.14	794.35
652.49	788.66
652.83	783.13
653.17	777.16
653.51	771.57
653.85	765.99
654.20	760.33
654.54	754.68
654.88	749.39
655.22	743.80
655.56	738.23
655.90	732.50
656.25	727.16
656.59	721.90
656.93	716.96
657.27	711.85
657.61	706.36
657.95	701.52
658.29	696.65
658.64	691.74
658.98	686.75
659.32	681.61
659.66	676.66
660.00	671.42
660.34	666.32
660.68	661.21
661.02	656.33
661.36	651.68
661.70	646.87
662.05	642.14
662.39	637.69
662.73	633.50
663.07	629.38
663.41	625.10
663.75	620.71
664.09	616.05
664.43	611.50
664.77	607.29
665.11	602.89
665.45	598.68
665.79	594.18
666.13	589.88
666.47	585.87
666.81	581.63
667.15	577.74
667.49	574.12
667.83	570.44
668.17	566.55
668.51	562.72
668.85	559.18
669.19	555.63
669.53	551.87
669.87	547.95
670.21	544.21
670.55	540.42
670.89	537.06
671.23	533.77
671.57	530.48
671.91	527.04
672.25	523.63
672.58	520.22
672.92	517.03
673.26	513.94
673.60	510.73
673.94	507.44
674.28	504.23
674.62	501.09
674.96	497.88
675.30	494.94
675.64	491.85
675.97	488.67
676.31	485.69
676.65	482.80
676.99	480.07
677.33	477.18
677.67	474.38
678.01	471.34
678.34	468.40
678.68	465.57
679.02	462.68
679.36	459.90
679.70	457.17
680.04	454.20
680.37	451.44
680.71	448.81
681.05	446.32
681.39	443.64
681.73	441.10
682.06	438.65
682.40	436.08
682.74	433.50
683.08	431.17
683.42	428.52
683.75	426.05
684.09	423.53
684.43	421.17
684.77	418.66
685.10	416.18
685.44	413.78
685.78	411.24
686.12	409.12
686.45	406.89
686.79	404.56
687.13	402.53
687.46	400.24
687.80	398.05
688.14	395.89
688.48	393.85
688.81	391.58
689.15	389.38
689.49	387.17
689.82	385.04
690.16	382.70
690.50	380.54
690.83	378.31
691.17	376.08
691.51	373.97
691.84	371.96
692.18	369.97
692.52	368.01
692.85	366.27
693.19	364.41
693.52	362.54
693.86	360.62
694.20	358.70
694.53	356.93
694.87	354.97
695.21	352.98
695.54	351.16
695.88	349.40
696.21	347.62
696.55	345.96
696.88	344.31
697.22	342.65
697.56	341.18
697.89	339.65
698.23	338.18
698.56	336.63
698.90	335.21
699.23	333.68
699.57	332.21
699.90	330.57
700.24	328.96
700.58	327.56
700.91	326.21
701.25	324.83
701.58	323.46
701.92	322.05
702.25	320.83
702.59	319.48
702.92	318.20
703.26	316.85
703.59	315.54
703.93	314.41
704.26	313.23
704.60	311.94
704.93	310.71
705.26	309.41
705.60	308.22
705.93	306.81
706.27	305.73
706.60	304.65
706.94	303.55
707.27	302.40
707.61	301.21
707.94	300.14
708.27	299.01
708.61	297.88
708.94	296.89
709.28	295.72
709.61	294.67
709.94	293.66
710.28	292.61
710.61	291.70
710.95	290.59
711.28	289.69
711.61	288.72
711.95	287.85
712.28	286.93
712.61	285.90
712.95	285.14
713.28	284.30
713.61	283.32
713.95	282.50
714.28	281.60
714.61	280.60
714.95	279.70
715.28	278.91
715.61	277.95
715.95	277.11
716.28	276.29
716.61	275.51
716.95	274.64
717.28	273.88
717.61	272.96
717.94	272.10
718.28	271.20
718.61	270.44
718.94	269.58
719.27	268.88
719.61	268.23
719.94	267.48
720.27	266.66
720.60	266.00
720.94	265.23
721.27	264.68
721.60	264.08
721.93	263.45
722.27	262.78
722.60	262.35
722.93	261.70
723.26	261.20
723.59	260.61
723.93	260.09
724.26	259.44
724.59	258.92
724.92	258.44
725.25	258.03
725.59	257.51
725.92	257.07
726.25	256.60
726.58	256.12
726.91	255.61
727.24	255.10
727.57	254.53
727.91	254.03
728.24	253.52
728.57	253.07
728.90	252.61
729.23	252.11
729.56	251.65
729.89	251.19
730.22	250.67
730.55	250.15
730.89	249.74
731.22	249.34
731.55	248.90
731.88	248.45
732.21	247.97
732.54	247.47
732.87	247.03
733.20	246.48
733.53	246.01
733.86	245.67
734.19	245.28
734.52	244.90
734.85	244.63
735.18	244.21
735.51	243.80
735.84	243.43
736.17	243.07
736.50	242.57
736.83	242.45
737.16	242.13
737.49	241.84
737.82	241.46
738.15	241.15
738.48	240.80
738.81	240.44
739.14	240.03
739.47	239.74
739.80	239.37
740.13	239.06
740.46	238.70
740.79	238.29
741.12	237.87
741.45	237.55
741.78	237.20
742.11	236.90
742.44	236.60
742.77	236.29
743.10	236.01
743.43	235.71
743.75	235.19
744.08	235.00
744.41	234.62
744.74	234.26
745.07	233.95
745.40	233.68
745.73	233.45
746.06	233.25
746.39	232.98
746.71	232.77
747.04	232.53
747.37	232.27
747.70	232.03
748.03	231.88
748.36	231.63
748.68	231.47
749.01	231.26
749.34	231.00
749.67	230.72
750.00	230.50
750.33	230.42
750.65	230.19
750.98	229.76
751.31	229.52
751.64	229.34
751.97	229.26
752.29	229.01
752.62	228.74
752.95	228.48
753.28	228.25
753.60	227.97
753.93	227.84
754.26	227.63
754.59	227.45
754.91	227.24
755.24	227.07
755.57	226.76
755.90	226.49
756.22	226.28
756.55	226.09
756.88	225.81
757.20	225.52
757.53	225.29
757.86	225.13
758.19	225.01
758.51	224.79
758.84	224.53
759.17	224.36
759.49	224.22
759.82	224.10
760.15	223.92
760.47	223.73
760.80	223.42
761.13	223.31
761.45	223.10
761.78	222.87
762.11	222.76
762.43	222.64
762.76	222.50
763.08	222.49
763.41	222.37
763.74	222.27
764.06	222.11
764.39	222.01
764.71	221.84
765.04	221.65
765.37	221.52
765.69	221.38
766.02	221.30
766.34	221.13
766.67	220.96
767.00	220.90
767.32	220.89
767.65	220.94
767.97	220.82
768.30	220.76
768.62	220.72
768.95	220.55
769.27	220.44
769.60	220.33
769.92	220.16
770.25	220.02
770.57	219.99
770.90	219.89
771.22	219.75
771.55	219.65
771.87	219.57
772.20	219.49
772.52	219.48
772.85	219.60
773.17	219.53
773.50	219.47
773.82	219.37
774.15	219.21
774.47	218.99
774.80	218.92
775.12	218.80
775.45	218.67
775.77	218.56
776.09	218.47
776.42	218.39
776.74	218.35
777.07	218.22
777.39	218.12
777.72	218.08
778.04	218.03
778.36	217.97
778.69	217.88
779.01	217.79
779.33	217.60
779.66	217.26
779.98	217.20
780.31	217.08
780.63	216.99
780.95	216.92
781.28	216.86
781.60	216.78
781.92	216.71
782.25	216.65
782.57	216.67
782.89	216.66
783.22	216.61
783.54	216.47
783.86	216.47
784.19	216.32
784.51	216.30
784.83	216.27
785.16	216.25
785.48	216.24
785.80	216.29
786.12	216.20
786.45	216.12
786.77	216.12
787.09	216.08
787.42	216.06
787.74	216.02
788.06	215.99
788.38	215.87
788.71	215.85
789.03	215.82
789.35	215.75
789.67	215.64
789.99	215.62
790.32	215.54
790.64	215.50
790.96	215.57
791.28	215.48
791.61	215.44
791.93	215.39
792.25	215.33
792.57	215.34
792.89	215.37
793.21	215.31
793.54	215.21
793.86	215.18
794.18	215.10
794.50	215.09
794.82	215.04
795.14	215.09
795.47	214.99
795.79	214.91
796.11	214.85
796.43	214.79
796.75	214.65
797.07	214.66
797.39	214.65
797.71	214.60
798.04	214.53
798.36	214.48
798.68	214.48
799.00	214.49
799.32	214.32
799.64	214.31
799.96	214.38
800.28	214.34
800.60	214.30
800.92	214.37
801.24	214.30
801.56	214.31
801.89	214.24
802.21	214.27
802.53	214.30
802.85	214.24
803.17	214.32
803.49	214.32
803.81	214.27
804.13	214.20
804.45	214.13
804.77	214.09
805.09	214.04
805.41	213.99
805.73	213.91
806.05	213.90
806.37	213.84
806.69	213.82
807.01	213.85
807.33	213.84
807.65	213.75
807.97	213.79
808.28	213.65
808.60	213.68
808.92	213.61
809.24	213.65
809.56	213.65
809.88	213.55
810.20	213.55
810.52	213.61
810.84	213.60
811.16	213.53
811.48	213.49
811.80	213.58
812.12	213.54
812.43	213.55
812.75	213.53
813.07	213.50
813.39	213.48
813.71	213.45
814.03	213.38
814.35	213.36
814.67	213.28
814.98	213.36
815.30	213.31
815.62	213.28
815.94	213.18
816.26	213.13
816.58	213.06
816.89	213.05
817.21	212.90
817.53	212.92
817.85	212.96
818.17	212.91
818.48	212.77
818.80	212.77
819.12	212.78
819.44	212.70
819.76	212.69
820.07	212.68
820.39	212.59
820.71	212.60
821.03	212.55
821.34	212.52
821.66	212.44
821.98	212.47
822.30	212.45
822.61	212.46
822.93	212.55
823.25	212.55
823.57	212.57
823.88	212.68
824.20	212.64
824.52	212.68
824.83	212.72
825.15	212.75
825.47	212.75
825.79	212.74
826.10	212.71
826.42	212.67
826.74	212.64
827.05	212.61
827.37	212.61
827.69	212.64
828.00	212.65
828.32	212.70
828.64	212.58
828.95	212.65
829.27	212.67
829.58	212.60
829.90	212.62
830.22	212.57
830.53	212.48
830.85	212.45
831.17	212.32
831.48	212.31
831.80	212.22
832.11	212.18
832.43	212.15
832.75	212.16
833.06	212.29
833.38	212.17
833.69	212.18
834.01	212.17
834.32	212.09
834.64	212.05
834.96	212.04
835.27	212.12
835.59	212.04
835.90	211.90
836.22	211.90
836.53	211.87
836.85	211.87
837.16	212.10
837.48	212.10
837.79	212.17
838.11	212.19
838.42	212.24
838.74	212.22
839.05	212.18
839.37	212.18
839.68	212.09
840.00	212.09
840.31	212.12
840.63	212.07
840.94	212.14
841.26	212.16
841.57	212.15
841.88	212.10
842.20	212.12
842.51	212.10
842.83	212.06
843.14	212.26
843.46	212.28
843.77	212.14
844.08	212.08
844.40	212.04
844.71	211.95
845.03	211.96
845.34	211.99
845.65	211.98
845.97	211.99
846.28	211.90
846.60	211.89
846.91	211.87
847.22	211.94
847.54	211.92
847.85	211.87
848.16	211.80
848.48	211.72
848.79	211.75
849.10	211.82
849.42	211.84
849.73	211.64
850.04	211.57
850.36	211.51
850.67	211.60
850.98	211.56
851.30	211.62
851.61	211.49
851.92	211.53
852.23	211.55
852.55	211.48
852.86	211.55
853.17	211.63
853.49	211.66
853.80	211.70
854.11	211.68
854.42	211.75
854.74	211.84
855.05	211.94
855.36	211.86
855.67	211.91
855.99	211.86
856.30	212.07
856.61	212.06
856.92	212.07
857.23	212.06
857.55	212.06
857.86	212.04
858.17	212.12
858.48	212.03
858.79	212.00
859.11	212.06
859.42	212.08
859.73	212.04
860.04	211.97
860.35	211.80
860.66	211.80
860.98	211.85
861.29	211.75
861.60	211.74
861.91	211.94
862.22	211.90
862.53	211.93
862.84	211.73
863.16	211.81
863.47	211.75
863.78	211.75
864.09	211.75
864.40	211.81
864.71	211.85
865.02	211.88
865.33	211.91
865.64	211.88
865.95	211.87
866.27	212.05
866.58	212.08
866.89	212.19
867.20	212.18
867.51	212.10
867.82	212.11
868.13	212.12
868.44	211.96
868.75	212.00
869.06	212.02
869.37	212.04
869.68	212.02
869.99	211.97
870.30	211.97
870.61	212.01
870.92	211.94
871.23	211.93
871.54	212.02
871.85	212.00
872.16	212.07
872.47	212.05
872.78	211.93
873.09	211.93
873.40	211.92
873.71	211.94
874.02	211.91
874.33	211.94
874.64	211.87
874.95	211.89
875.26	211.86
875.56	211.79
875.87	211.74
876.18	211.70
876.49	211.95
876.80	211.91
877.11	211.85
877.42	211.95
877.73	211.93
878.04	211.86
878.35	211.90
878.66	211.92
878.96	211.94
879.27	211.91
879.58	211.89
879.89	211.85
880.20	211.85
880.51	211.86
880.82	211.79
881.12	211.83
881.43	211.88
881.74	211.79
882.05	211.82
882.36	211.86
882.67	211.85
882.97	211.67
883.28	211.67
883.59	211.71
883.90	211.70
884.21	211.66
884.51	211.63
884.82	211.53
885.13	211.48
885.44	211.43
885.74	211.48
886.05	211.47
886.36	211.50
886.67	211.45
886.98	211.55
887.28	211.65
887.59	211.60
887.90	211.53
888.20	211.53
888.51	211.62
888.82	211.56
889.13	211.54
889.43	211.67
889.74	211.66
890.05	211.64
890.35	211.51
890.66	211.60
890.97	211.55
891.28	211.53
891.58	211.55
891.89	211.54
892.20	211.46
892.50	211.45
892.81	211.39
893.12	211.42
893.42	211.32
893.73	211.26
894.04	211.29
894.34	211.31
894.65	211.35
894.95	211.26
895.26	211.27
895.57	211.39
895.87	211.20
896.18	211.25
896.48	211.29
896.79	211.36
897.10	211.31
897.40	211.40
897.71	211.42
898.01	211.42
898.32	211.39
898.63	211.36
898.93	211.34
899.24	211.41
899.54	211.37
899.85	211.39
900.15	211.39
900.46	211.37
900.76	211.36
901.07	211.38
901.38	211.40
901.68	211.43
901.99	211.34
902.29	211.37
902.60	211.36
902.90	211.28
903.21	211.23
903.51	211.22
903.82	211.23
904.12	211.27
904.43	211.18
904.73	211.17
905.03	211.18
905.34	211.43
905.64	211.40
905.95	211.38
906.25	211.28
906.56	211.20
906.86	211.17
907.17	211.18
907.47	211.20
907.77	211.14
908.08	211.12
908.38	211.10
908.69	211.08
908.99	211.08
909.30	211.15
909.60	211.13
909.90	211.16
910.21	211.10
910.51	211.05
910.81	211.18
911.12	211.25
911.42	211.25
911.73	211.02
912.03	210.99
912.33	210.95
912.64	211.03
912.94	211.09
913.24	211.10
913.55	211.07
913.85	210.97
914.15	211.02
914.46	211.04
914.76	211.06
915.06	211.06
915.37	210.94
915.67	210.94
915.97	210.96
916.27	210.89
916.58	210.88
916.88	210.84
917.18	210.74
917.49	210.75
917.79	210.80
918.09	210.82
918.39	210.92
918.70	211.08
919.00	211.01
919.30	211.17
919.60	211.17
919.91	211.18
920.21	211.25
920.51	211.22
920.81	211.23
921.12	211.28
921.42	211.29
921.72	211.38
922.02	211.33
922.32	211.32
922.63	211.30
922.93	211.37
923.23	211.46
923.53	211.49
923.83	211.43
924.13	211.43
924.44	211.40
924.74	211.46
925.04	211.45
925.34	211.50
925.64	211.41
925.94	211.42
926.24	211.52
926.55	211.49
926.85	211.51
927.15	211.54
927.45	211.48
927.75	211.51
928.05	211.47
928.35	211.50
928.65	211.60
928.95	211.68
929.26	211.58
929.56	211.62
929.86	211.62
930.16	211.58
930.46	211.50
930.76	211.46
931.06	211.42
931.36	211.35
931.66	211.34
931.96	211.28
932.26	211.32
932.56	211.28
932.86	211.30
933.16	211.24
933.46	211.11
933.76	211.15
934.06	211.15
934.36	211.28
934.66	211.26
934.96	211.17
935.26	211.14
935.56	211.24
935.86	211.11
936.16	211.03
936.46	210.94
936.76	210.95
937.06	210.99
937.36	210.89
937.66	210.85
937.96	210.88
938.26	210.84
938.56	210.81
938.86	210.84
939.16	210.85
939.46	210.88
939.76	210.97
940.06	210.89
940.35	210.85
940.65	210.67
940.95	210.64
941.25	210.59
941.55	210.59
941.85	210.58
942.15	210.68
942.45	210.82
942.75	210.97
943.04	211.03
943.34	211.06
943.64	211.07
943.94	211.05
944.24	211.06
944.54	211.07
944.84	211.03
945.13	210.89
945.43	210.84
945.73	210.91
946.03	210.90
946.33	210.88
946.62	210.89
946.92	210.95
947.22	210.96
947.52	211.05
947.82	211.03
948.11	210.93
948.41	210.85
948.71	210.78
949.01	210.70
949.31	210.69
949.60	210.63
949.90	210.61
950.20	210.61
950.50	210.62
950.79	210.65
951.09	210.69
951.39	210.72
951.69	210.74
951.98	210.75
952.28	210.71
952.58	210.79
952.87	210.81
953.17	210.83
953.47	210.81
953.76	210.79
954.06	210.82
954.36	210.84
954.66	210.90
954.95	210.89
955.25	210.93
955.55	210.95
955.84	210.95
956.14	211.01
956.44	211.10
956.73	211.00
957.03	211.04
957.32	211.06
957.62	211.08
957.92	211.10
958.21	211.09
958.51	211.34
958.81	211.37
959.10	211.40
959.40	211.45
959.69	211.49
959.99	211.51
960.29	211.46
960.58	211.52
960.88	211.57
961.17	211.54
961.47	211.55
961.76	211.53
962.06	211.59
962.36	211.56
962.65	211.54
962.95	211.61
963.24	211.59
963.54	211.60
963.83	211.60
964.13	211.55
964.42	211.54
964.72	211.38
965.01	211.36
965.31	211.31
965.60	211.22
965.90	211.28
966.19	211.19
966.49	211.20
966.78	211.14
967.08	211.12
967.37	211.21
967.67	211.24
967.96	211.20
968.26	211.21
968.55	211.25
968.85	211.25
969.14	211.21
969.43	211.18
969.73	211.15
970.02	211.15
970.32	211.15
970.61	211.06
970.91	211.03
971.20	211.01
971.49	211.01
971.79	211.08
972.08	210.99
972.38	211.07
972.67	211.11
972.96	211.11
973.26	211.11
973.55	211.08
973.85	211.05
974.14	211.04
974.43	210.98
974.73	210.95
975.02	210.94
975.31	210.92
975.61	210.90
975.90	210.85
976.19	210.85
976.49	210.91
976.78	210.96
977.07	210.91
977.37	210.86
977.66	210.81
977.95	210.78
978.24	210.82
978.54	210.85
978.83	210.75
979.12	210.80
979.42	210.77
979.71	210.76
980.00	210.75
980.29	210.75
980.59	210.80
980.88	210.80
981.17	210.73
981.46	210.78
981.76	210.75
982.05	210.80
982.34	210.78
982.63	210.78
982.93	210.79
983.22	210.80
983.51	210.78
983.80	210.80
984.09	210.78
984.39	210.82
984.68	210.79
984.97	210.88
985.26	210.80
985.55	210.79
985.85	210.76
986.14	210.79
986.43	210.82
986.72	210.75
987.01	210.75
987.30	210.76
987.59	210.70
987.89	210.75
988.18	210.71
988.47	210.68
988.76	210.64
989.05	210.63
989.34	210.64
989.63	210.67
989.92	210.70
990.22	210.73
990.51	210.59
990.80	210.60
991.09	210.60
991.38	210.67
991.67	210.66
991.96	210.59
992.25	210.55
992.54	210.53
992.83	210.58
993.12	210.58
993.41	210.58
993.70	210.73
993.99	210.81
994.28	210.81
994.58	210.83
994.87	210.78
995.16	210.80
995.45	210.71
995.74	210.78
996.03	210.77
996.32	210.72
996.61	210.86
996.90	210.82
997.19	210.82
997.48	210.90
997.77	210.82
998.06	210.94
998.34	210.94
998.63	210.95
998.92	210.95
999.21	210.98
999.50	211.11
999.79	210.99
1000.08	210.92
1000.37	210.96
1000.66	210.98
1000.95	211.10
1001.24	211.05
1001.53	211.18
1001.82	211.13
1002.11	211.18
1002.40	211.23
1002.68	211.20
1002.97	211.31
1003.26	211.30
1003.55	211.18
1003.84	211.32
1004.13	211.30
1004.42	211.35
1004.71	211.35
1004.99	211.34
1005.28	211.35
1005.57	211.30
1005.86	211.27
1006.15	211.27
1006.44	211.31
1006.72	211.38
1007.01	211.31
1007.30	211.35
1007.59	211.29
1007.88	211.27
1008.17	211.30
1008.45	211.29
1008.74	211.24
1009.03	211.13
1009.32	211.16
1009.60	211.18
1009.89	211.09
1010.18	211.03
1010.47	210.95
1010.76	210.91
1011.04	210.87
1011.33	211.04
1011.62	210.97
1011.91	210.97
1012.19	210.97
1012.48	210.88
1012.77	210.76
1013.05	210.86
1013.34	210.83
1013.63	210.80
1013.92	210.85
1014.20	210.78
1014.49	210.74
1014.78	210.75
1015.06	210.69
1015.35	210.61
1015.64	210.61
1015.92	210.68
1016.21	210.68
1016.50	210.82
1016.78	210.88
1017.07	210.90
1017.36	210.67
1017.64	210.67
1017.93	210.72
1018.22	210.73
1018.50	210.69
1018.79	210.80
1019.08	210.67
1019.36	210.69
1019.65	210.72
1019.93	210.69
1020.22	210.75
1020.51	210.88
1020.79	210.83
1021.08	211.25
1021.36	209.30
1021.65	211.85
1021.94	209.80
1022.22	211.05
1022.51	210.70
1022.79	211.10
1023.08	211.60
1023.36	213.20
1023.65	209.55
>>>>>End Processed Spectral Data<<<<<
