SpectraSuite Data File
++++++++++++++++++++++++++++++++++++
Date: Mon Feb 25 17:31:59 EST 2013
User: group
Dark Spectrum Present: No
Reference Spectrum Present: No
Number of Sampled Component Spectra: 1
Spectrometers: USB2E7196
Integration Time (usec): 52000 (USB2E7196)
Spectra Averaged: 20 (USB2E7196)
Boxcar Smoothing: 10 (USB2E7196)
Correct for Electrical Dark: No (USB2E7196)
Strobe/Lamp Enabled: No (USB2E7196)
Correct for Detector Non-linearity: No (USB2E7196)
Correct for Stray Light: No (USB2E7196)
Number of Pixels in Processed Spectrum: 2048
>>>>>Begin Processed Spectral Data<<<<<
339.09	0.00
339.48	199.80
339.86	200.15
340.24	201.90
340.63	204.00
341.01	208.40
341.39	207.40
341.78	209.10
342.16	209.55
342.54	209.60
342.93	198.75
343.31	208.80
343.69	209.25
344.07	209.77
344.46	210.18
344.84	210.54
345.22	210.65
345.60	210.84
345.99	210.97
346.37	211.11
346.75	211.20
347.13	211.24
347.52	211.34
347.90	211.43
348.28	211.49
348.66	211.59
349.05	211.55
349.43	211.65
349.81	211.59
350.19	211.56
350.57	211.61
350.96	211.58
351.34	211.68
351.72	211.85
352.10	211.88
352.48	211.96
352.87	212.00
353.25	212.07
353.63	212.14
354.01	212.13
354.39	212.16
354.77	212.21
355.15	212.32
355.54	212.30
355.92	212.32
356.30	212.41
356.68	212.57
357.06	212.65
357.44	212.68
357.82	212.75
358.20	212.85
358.58	212.87
358.97	212.97
359.35	212.93
359.73	213.00
360.11	213.12
360.49	213.21
360.87	213.21
361.25	213.25
361.63	213.38
362.01	213.48
362.39	213.41
362.77	213.54
363.15	213.55
363.53	213.65
363.91	213.60
364.29	213.58
364.67	213.40
365.05	213.42
365.43	213.51
365.81	213.60
366.19	213.71
366.57	213.86
366.95	213.86
367.33	213.92
367.71	213.92
368.09	213.88
368.47	213.88
368.85	213.92
369.23	213.99
369.61	213.83
369.99	213.83
370.37	213.95
370.75	213.92
371.13	213.83
371.51	213.79
371.89	213.82
372.27	213.77
372.65	213.81
373.03	213.75
373.41	213.75
373.78	213.65
374.16	213.51
374.54	213.42
374.92	213.41
375.30	213.37
375.68	213.32
376.06	213.32
376.44	213.18
376.82	213.16
377.19	213.09
377.57	213.05
377.95	213.02
378.33	212.85
378.71	212.78
379.09	212.80
379.47	212.75
379.84	212.72
380.22	212.67
380.60	212.59
380.98	212.47
381.36	212.40
381.73	212.34
382.11	212.32
382.49	212.20
382.87	212.13
383.25	212.14
383.62	212.19
384.00	212.09
384.38	212.08
384.76	212.06
385.13	212.05
385.51	211.99
385.89	211.91
386.27	211.95
386.64	211.93
387.02	211.88
387.40	211.82
387.78	211.80
388.15	211.76
388.53	211.77
388.91	211.83
389.29	211.73
389.66	211.73
390.04	211.63
390.42	211.65
390.79	211.57
391.17	211.50
391.55	211.36
391.92	211.34
392.30	211.38
392.68	211.39
393.05	211.42
393.43	211.48
393.81	211.46
394.18	211.46
394.56	211.39
394.94	211.46
395.31	211.47
395.69	211.52
396.06	211.56
396.44	211.55
396.82	211.48
397.19	211.60
397.57	211.58
397.95	211.68
398.32	211.69
398.70	211.78
399.07	211.87
399.45	211.89
399.82	211.93
400.20	211.92
400.58	211.92
400.95	211.90
401.33	211.99
401.70	212.18
402.08	212.24
402.45	212.40
402.83	212.51
403.20	212.59
403.58	212.64
403.95	212.75
404.33	212.83
404.71	212.99
405.08	213.17
405.46	213.34
405.83	213.46
406.21	213.60
406.58	213.72
406.96	213.88
407.33	214.04
407.70	214.23
408.08	214.54
408.45	214.78
408.83	214.97
409.20	215.22
409.58	215.34
409.95	215.56
410.33	215.79
410.70	216.05
411.08	216.45
411.45	216.81
411.82	217.23
412.20	217.70
412.57	218.20
412.95	218.46
413.32	219.01
413.69	219.52
414.07	220.09
414.44	220.77
414.82	221.32
415.19	222.10
415.56	222.85
415.94	223.60
416.31	224.47
416.68	225.36
417.06	226.32
417.43	227.31
417.81	228.51
418.18	229.56
418.55	230.72
418.93	231.82
419.30	233.19
419.67	234.57
420.04	235.95
420.42	237.40
420.79	239.19
421.16	240.92
421.54	242.71
421.91	244.51
422.28	246.34
422.66	248.42
423.03	250.44
423.40	252.49
423.77	254.72
424.15	256.89
424.52	259.20
424.89	261.72
425.26	264.18
425.64	266.42
426.01	269.01
426.38	271.65
426.75	274.42
427.13	277.08
427.50	279.95
427.87	283.01
428.24	286.14
428.61	289.06
428.99	292.25
429.36	295.76
429.73	299.21
430.10	302.65
430.47	306.14
430.85	309.76
431.22	313.63
431.59	317.72
431.96	321.59
432.33	325.87
432.70	330.02
433.08	334.82
433.45	339.45
433.82	344.03
434.19	349.10
434.56	354.07
434.93	358.91
435.30	363.65
435.68	368.91
436.05	374.08
436.42	379.21
436.79	383.79
437.16	388.81
437.53	394.13
437.90	399.35
438.27	404.59
438.64	409.87
439.01	414.66
439.38	419.03
439.75	423.24
440.13	428.01
440.50	432.59
440.87	436.36
441.24	440.01
441.61	444.21
441.98	447.27
442.35	450.74
442.72	454.37
443.09	457.68
443.46	459.64
443.83	460.97
444.20	462.08
444.57	463.88
444.94	464.54
445.31	465.32
445.68	465.99
446.05	466.11
446.42	465.46
446.79	464.89
447.16	464.01
447.53	463.54
447.90	461.37
448.27	459.17
448.64	456.19
449.01	454.17
449.37	450.64
449.74	447.11
450.11	443.15
450.48	438.60
450.85	434.28
451.22	430.40
451.59	426.65
451.96	423.05
452.33	418.38
452.70	414.10
453.07	408.94
453.43	403.85
453.80	398.95
454.17	394.25
454.54	389.75
454.91	384.94
455.28	380.19
455.65	376.00
456.02	371.74
456.38	368.08
456.75	363.56
457.12	359.62
457.49	355.94
457.86	352.15
458.23	349.03
458.59	345.47
458.96	342.08
459.33	339.00
459.70	336.01
460.07	333.48
460.43	330.71
460.80	328.08
461.17	325.72
461.54	323.30
461.91	321.02
462.27	318.63
462.64	316.66
463.01	314.47
463.38	312.34
463.74	310.17
464.11	308.37
464.48	306.82
464.85	305.19
465.21	303.88
465.58	302.58
465.95	300.89
466.32	299.49
466.68	297.99
467.05	296.70
467.42	295.29
467.78	293.81
468.15	292.54
468.52	291.60
468.88	290.33
469.25	289.13
469.62	288.11
469.98	287.18
470.35	286.21
470.72	285.37
471.08	284.34
471.45	283.60
471.82	282.88
472.18	281.97
472.55	281.34
472.92	280.57
473.28	279.93
473.65	279.27
474.02	278.78
474.38	278.45
474.75	277.99
475.11	277.55
475.48	277.35
475.85	277.12
476.21	276.85
476.58	276.81
476.94	276.69
477.31	276.65
477.67	276.61
478.04	276.63
478.41	276.76
478.77	277.20
479.14	277.21
479.50	277.38
479.87	277.79
480.23	278.18
480.60	278.56
480.96	278.96
481.33	279.60
481.69	280.18
482.06	280.73
482.42	281.30
482.79	282.18
483.15	283.03
483.52	283.96
483.88	284.93
484.25	285.95
484.61	287.07
484.98	288.23
485.34	289.38
485.71	290.79
486.07	292.12
486.44	293.45
486.80	295.14
487.17	296.75
487.53	298.38
487.90	300.10
488.26	302.06
488.62	304.04
488.99	306.07
489.35	308.19
489.72	310.50
490.08	312.90
490.44	315.25
490.81	317.93
491.17	320.56
491.54	323.50
491.90	326.42
492.26	329.67
492.63	332.98
492.99	336.52
493.36	340.11
493.72	343.96
494.08	347.89
494.45	352.13
494.81	356.62
495.17	361.11
495.54	366.01
495.90	371.01
496.26	376.26
496.63	381.88
496.99	387.67
497.35	393.62
497.72	399.91
498.08	406.44
498.44	413.04
498.80	420.17
499.17	427.45
499.53	435.09
499.89	442.95
500.26	451.02
500.62	459.31
500.98	468.14
501.34	477.32
501.71	486.72
502.07	496.30
502.43	506.26
502.79	516.66
503.16	527.40
503.52	538.27
503.88	549.35
504.24	560.71
504.60	572.60
504.97	584.82
505.33	597.33
505.69	610.55
506.05	624.15
506.41	637.72
506.78	651.52
507.14	665.51
507.50	679.99
507.86	695.00
508.22	710.33
508.59	725.80
508.95	741.63
509.31	757.77
509.67	774.33
510.03	791.29
510.39	808.73
510.75	826.13
511.12	844.07
511.48	862.50
511.84	881.27
512.20	899.70
512.56	918.90
512.92	938.53
513.28	957.79
513.64	977.23
514.00	996.87
514.37	1017.05
514.73	1037.94
515.09	1058.64
515.45	1079.22
515.81	1100.29
516.17	1121.57
516.53	1142.72
516.89	1164.13
517.25	1185.67
517.61	1207.22
517.97	1228.31
518.33	1250.13
518.69	1272.16
519.05	1294.17
519.41	1316.22
519.77	1338.61
520.13	1360.43
520.49	1382.09
520.85	1404.63
521.21	1426.91
521.57	1449.94
521.93	1471.77
522.29	1494.47
522.65	1516.89
523.01	1539.13
523.37	1560.96
523.73	1583.07
524.09	1605.40
524.45	1627.61
524.81	1649.93
525.17	1672.12
525.53	1694.64
525.89	1716.67
526.25	1738.02
526.61	1758.98
526.97	1780.35
527.33	1801.73
527.68	1823.20
528.04	1844.50
528.40	1865.01
528.76	1885.75
529.12	1906.21
529.48	1927.84
529.84	1947.84
530.20	1968.09
530.56	1988.56
530.91	2009.40
531.27	2029.60
531.63	2049.23
531.99	2069.02
532.35	2088.07
532.71	2106.99
533.07	2126.39
533.42	2144.74
533.78	2163.57
534.14	2182.11
534.50	2199.46
534.86	2217.19
535.21	2234.01
535.57	2251.46
535.93	2268.25
536.29	2284.98
536.65	2301.57
537.00	2316.70
537.36	2331.83
537.72	2346.95
538.08	2361.90
538.44	2376.78
538.79	2391.79
539.15	2406.73
539.51	2421.10
539.87	2436.34
540.22	2450.52
540.58	2465.13
540.94	2479.25
541.29	2492.10
541.65	2504.19
542.01	2516.79
542.37	2528.74
542.72	2540.60
543.08	2551.37
543.44	2563.29
543.79	2573.27
544.15	2583.19
544.51	2594.24
544.87	2604.96
545.22	2614.16
545.58	2622.47
545.94	2629.75
546.29	2636.15
546.65	2642.20
547.01	2648.31
547.36	2653.51
547.72	2659.18
548.07	2663.01
548.43	2667.00
548.79	2670.72
549.14	2675.27
549.50	2679.71
549.86	2683.55
550.21	2687.54
550.57	2691.36
550.92	2693.99
551.28	2696.59
551.64	2699.23
551.99	2701.43
552.35	2702.75
552.70	2705.25
553.06	2708.16
553.41	2711.00
553.77	2713.82
554.13	2716.05
554.48	2718.10
554.84	2719.61
555.19	2719.89
555.55	2720.48
555.90	2720.75
556.26	2721.39
556.61	2721.03
556.97	2719.50
557.32	2718.89
557.68	2717.04
558.03	2715.81
558.39	2713.83
558.74	2713.47
559.10	2711.92
559.45	2709.95
559.81	2708.98
560.16	2706.48
560.52	2704.01
560.87	2700.89
561.23	2697.12
561.58	2694.40
561.94	2691.01
562.29	2686.94
562.64	2684.82
563.00	2681.97
563.35	2679.69
563.71	2677.67
564.06	2675.58
564.42	2673.77
564.77	2671.09
565.12	2669.37
565.48	2666.18
565.83	2663.32
566.19	2660.17
566.54	2655.85
566.89	2652.04
567.25	2648.40
567.60	2644.94
567.96	2641.40
568.31	2638.02
568.66	2634.19
569.02	2630.06
569.37	2624.65
569.72	2621.01
570.08	2615.57
570.43	2610.09
570.78	2604.54
571.14	2597.93
571.49	2591.07
571.84	2585.22
572.20	2577.96
572.55	2571.51
572.90	2564.77
573.26	2557.81
573.61	2550.54
573.96	2544.25
574.31	2536.27
574.67	2528.11
575.02	2519.58
575.37	2510.62
575.72	2501.60
576.08	2494.35
576.43	2485.31
576.78	2477.85
577.13	2469.87
577.49	2461.88
577.84	2454.33
578.19	2446.45
578.54	2439.34
578.90	2432.76
579.25	2424.18
579.60	2415.66
579.95	2406.48
580.30	2398.53
580.66	2390.43
581.01	2381.34
581.36	2371.86
581.71	2363.89
582.06	2355.25
582.42	2347.17
582.77	2338.42
583.12	2329.52
583.47	2320.69
583.82	2312.44
584.17	2303.18
584.53	2293.92
584.88	2285.12
585.23	2276.02
585.58	2266.75
585.93	2257.39
586.28	2248.28
586.63	2239.57
586.98	2231.72
587.34	2223.48
587.69	2214.27
588.04	2205.20
588.39	2196.85
588.74	2188.26
589.09	2179.56
589.44	2170.45
589.79	2161.94
590.14	2154.15
590.49	2145.88
590.84	2136.43
591.19	2128.55
591.54	2120.45
591.89	2110.65
592.25	2101.28
592.60	2091.91
592.95	2082.61
593.30	2073.10
593.65	2063.13
594.00	2053.31
594.35	2044.71
594.70	2035.39
595.05	2026.50
595.40	2018.21
595.75	2009.04
596.10	2000.91
596.45	1992.30
596.80	1984.61
597.15	1976.46
597.50	1967.33
597.85	1959.04
598.19	1950.74
598.54	1942.20
598.89	1933.90
599.24	1927.33
599.59	1920.22
599.94	1913.23
600.29	1905.68
600.64	1897.89
600.99	1889.90
601.34	1883.25
601.69	1874.74
602.04	1866.96
602.39	1859.40
602.74	1851.27
603.08	1844.80
603.43	1837.45
603.78	1829.73
604.13	1821.29
604.48	1813.39
604.83	1806.68
605.18	1799.91
605.53	1792.50
605.87	1784.73
606.22	1777.90
606.57	1769.95
606.92	1761.95
607.27	1754.00
607.62	1746.68
607.96	1739.82
608.31	1733.78
608.66	1725.80
609.01	1718.15
609.36	1710.44
609.70	1702.47
610.05	1694.72
610.40	1686.46
610.75	1678.27
611.10	1670.55
611.44	1661.90
611.79	1652.92
612.14	1643.41
612.49	1633.80
612.83	1625.30
613.18	1615.84
613.53	1606.58
613.88	1597.01
614.22	1588.28
614.57	1578.90
614.92	1569.32
615.27	1559.96
615.61	1550.17
615.96	1541.02
616.31	1532.65
616.65	1524.68
617.00	1516.21
617.35	1507.73
617.70	1498.74
618.04	1489.57
618.39	1480.20
618.74	1471.81
619.08	1463.16
619.43	1455.03
619.78	1447.29
620.12	1439.20
620.47	1431.72
620.82	1423.08
621.16	1414.86
621.51	1406.50
621.85	1398.53
622.20	1390.50
622.55	1382.22
622.89	1373.94
623.24	1366.22
623.59	1357.67
623.93	1348.97
624.28	1340.93
624.62	1332.84
624.97	1324.73
625.32	1317.27
625.66	1309.95
626.01	1302.80
626.35	1295.76
626.70	1288.24
627.04	1280.81
627.39	1273.38
627.73	1265.84
628.08	1259.10
628.43	1251.94
628.77	1244.65
629.12	1237.06
629.46	1230.52
629.81	1223.44
630.15	1216.24
630.50	1209.00
630.84	1201.97
631.19	1195.05
631.53	1188.22
631.88	1180.79
632.22	1173.24
632.57	1166.20
632.91	1158.94
633.26	1151.48
633.60	1144.23
633.95	1137.55
634.29	1130.26
634.64	1123.45
634.98	1116.42
635.32	1109.28
635.67	1102.83
636.01	1096.17
636.36	1089.40
636.70	1082.52
637.05	1076.05
637.39	1069.70
637.73	1063.14
638.08	1057.25
638.42	1051.17
638.77	1044.63
639.11	1038.44
639.45	1032.61
639.80	1026.15
640.14	1019.78
640.49	1013.46
640.83	1007.24
641.17	1000.81
641.52	994.69
641.86	988.16
642.20	981.73
642.55	975.10
642.89	968.60
643.23	962.13
643.58	956.46
643.92	949.96
644.26	943.79
644.61	937.73
644.95	931.91
645.29	925.57
645.64	919.29
645.98	913.32
646.32	907.42
646.66	901.26
647.01	895.29
647.35	889.44
647.69	883.43
648.04	877.52
648.38	871.59
648.72	865.63
649.06	859.57
649.41	853.86
649.75	848.16
650.09	842.44
650.43	836.65
650.78	830.44
651.12	824.45
651.46	818.69
651.80	812.87
652.14	806.82
652.49	800.73
652.83	795.00
653.17	788.87
653.51	782.88
653.85	777.34
654.20	771.64
654.54	765.87
654.88	760.44
655.22	754.64
655.56	748.68
655.90	742.96
656.25	737.43
656.59	731.90
656.93	726.72
657.27	721.32
657.61	715.97
657.95	710.91
658.29	705.92
658.64	700.83
658.98	695.65
659.32	690.44
659.66	685.56
660.00	680.10
660.34	674.83
660.68	669.83
661.02	664.77
661.36	660.06
661.70	655.32
662.05	650.63
662.39	646.31
662.73	642.15
663.07	637.76
663.41	633.50
663.75	629.03
664.09	624.41
664.43	619.98
664.77	615.54
665.11	611.25
665.45	606.88
665.79	602.35
666.13	597.96
666.47	593.74
666.81	589.50
667.15	585.61
667.49	581.97
667.83	578.07
668.17	574.09
668.51	570.16
668.85	566.41
669.19	562.70
669.53	558.80
669.87	554.80
670.21	550.93
670.55	547.03
670.89	543.66
671.23	540.16
671.57	536.64
671.91	533.11
672.25	529.40
672.58	526.07
672.92	522.72
673.26	519.57
673.60	516.31
673.94	513.03
674.28	509.74
674.62	506.54
674.96	503.40
675.30	500.49
675.64	497.37
675.97	494.30
676.31	491.25
676.65	488.28
676.99	485.64
677.33	482.78
677.67	479.88
678.01	476.78
678.34	473.81
678.68	471.01
679.02	468.11
679.36	465.43
679.70	462.44
680.04	459.62
680.37	456.60
680.71	453.90
681.05	451.27
681.39	448.68
681.73	445.91
682.06	443.40
682.40	440.68
682.74	438.06
683.08	435.60
683.42	432.91
683.75	430.43
684.09	427.71
684.43	425.37
684.77	422.89
685.10	420.37
685.44	417.86
685.78	415.27
686.12	413.03
686.45	410.54
686.79	408.37
687.13	406.26
687.46	404.26
687.80	402.07
688.14	399.78
688.48	397.48
688.81	395.35
689.15	393.06
689.49	390.97
689.82	388.76
690.16	386.37
690.50	384.15
690.83	381.84
691.17	379.63
691.51	377.36
691.84	375.32
692.18	373.28
692.52	371.34
692.85	369.54
693.19	367.70
693.52	365.85
693.86	363.82
694.20	361.92
694.53	359.97
694.87	358.00
695.21	356.19
695.54	354.24
695.88	352.29
696.21	350.50
696.55	348.75
696.88	346.98
697.22	345.30
697.56	343.79
697.89	342.22
698.23	340.68
698.56	339.09
698.90	337.55
699.23	335.96
699.57	334.41
699.90	332.75
700.24	331.03
700.58	329.43
700.91	328.03
701.25	326.61
701.58	325.17
701.92	323.79
702.25	322.31
702.59	321.09
702.92	319.85
703.26	318.54
703.59	317.24
703.93	316.13
704.26	314.81
704.60	313.51
704.93	312.24
705.26	311.00
705.60	309.84
705.93	308.51
706.27	307.33
706.60	306.27
706.94	305.27
707.27	304.08
707.61	303.04
707.94	301.83
708.27	300.52
708.61	299.34
708.94	298.28
709.28	297.18
709.61	296.08
709.94	295.08
710.28	294.09
710.61	293.01
710.95	291.87
711.28	291.02
711.61	289.99
711.95	289.10
712.28	288.10
712.61	287.11
712.95	286.24
713.28	285.39
713.61	284.36
713.95	283.41
714.28	282.63
714.61	281.65
714.95	280.75
715.28	279.93
715.61	279.03
715.95	278.22
716.28	277.44
716.61	276.63
716.95	275.75
717.28	274.86
717.61	274.07
717.94	273.37
718.28	272.53
718.61	271.76
718.94	271.04
719.27	270.30
719.61	269.60
719.94	268.92
720.27	268.13
720.60	267.43
720.94	266.72
721.27	266.02
721.60	265.46
721.93	264.90
722.27	264.37
722.60	263.86
722.93	263.17
723.26	262.57
723.59	261.92
723.93	261.35
724.26	260.83
724.59	260.25
724.92	259.66
725.25	259.13
725.59	258.65
725.92	258.10
726.25	257.54
726.58	256.98
726.91	256.43
727.24	256.00
727.57	255.45
727.91	254.85
728.24	254.50
728.57	254.04
728.90	253.68
729.23	253.05
729.56	252.65
729.89	252.14
730.22	251.59
730.55	251.20
730.89	250.74
731.22	250.18
731.55	249.83
731.88	249.33
732.21	248.85
732.54	248.40
732.87	247.95
733.20	247.59
733.53	247.16
733.86	246.70
734.19	246.26
734.52	245.95
734.85	245.72
735.18	245.21
735.51	244.79
735.84	244.27
736.17	244.02
736.50	243.55
736.83	243.37
737.16	243.10
737.49	242.68
737.82	242.21
738.15	241.93
738.48	241.52
738.81	241.12
739.14	240.78
739.47	240.39
739.80	240.01
740.13	239.68
740.46	239.29
740.79	238.99
741.12	238.63
741.45	238.24
741.78	237.90
742.11	237.65
742.44	237.35
742.77	237.12
743.10	236.79
743.43	236.51
743.75	236.06
744.08	235.95
744.41	235.62
744.74	235.35
745.07	235.03
745.40	234.75
745.73	234.55
746.06	234.26
746.39	234.06
746.71	233.78
747.04	233.48
747.37	233.25
747.70	233.00
748.03	232.77
748.36	232.62
748.68	232.33
749.01	232.03
749.34	231.80
749.67	231.54
750.00	231.23
750.33	231.04
750.65	230.86
750.98	230.38
751.31	230.24
751.64	230.06
751.97	229.93
752.29	229.70
752.62	229.41
752.95	229.19
753.28	228.84
753.60	228.65
753.93	228.50
754.26	228.35
754.59	228.06
754.91	227.86
755.24	227.56
755.57	227.26
755.90	227.06
756.22	226.80
756.55	226.60
756.88	226.34
757.20	226.05
757.53	225.75
757.86	225.59
758.19	225.39
758.51	225.20
758.84	224.95
759.17	224.79
759.49	224.58
759.82	224.47
760.15	224.40
760.47	224.20
760.80	223.98
761.13	223.84
761.45	223.72
761.78	223.48
762.11	223.41
762.43	223.28
762.76	223.08
763.08	222.99
763.41	222.83
763.74	222.75
764.06	222.62
764.39	222.55
764.71	222.39
765.04	222.25
765.37	222.10
765.69	221.97
766.02	221.77
766.34	221.62
766.67	221.52
767.00	221.41
767.32	221.42
767.65	221.34
767.97	221.19
768.30	221.06
768.62	221.03
768.95	220.88
769.27	220.86
769.60	220.82
769.92	220.64
770.25	220.52
770.57	220.41
770.90	220.26
771.22	220.10
771.55	220.03
771.87	219.86
772.20	219.72
772.52	219.72
772.85	219.83
773.17	219.80
773.50	219.65
773.82	219.48
774.15	219.23
774.47	219.09
774.80	219.00
775.12	218.89
775.45	218.75
775.77	218.62
776.09	218.50
776.42	218.39
776.74	218.40
777.07	218.37
777.39	218.30
777.72	218.23
778.04	218.20
778.36	218.04
778.69	217.98
779.01	217.98
779.33	217.79
779.66	217.53
779.98	217.43
780.31	217.30
780.63	217.27
780.95	217.28
781.28	217.27
781.60	217.18
781.92	217.13
782.25	217.09
782.57	217.09
782.89	216.98
783.22	216.88
783.54	216.78
783.86	216.70
784.19	216.66
784.51	216.67
784.83	216.62
785.16	216.64
785.48	216.62
785.80	216.56
786.12	216.56
786.45	216.52
786.77	216.51
787.09	216.45
787.42	216.43
787.74	216.34
788.06	216.25
788.38	216.20
788.71	216.11
789.03	216.08
789.35	216.06
789.67	216.06
789.99	216.04
790.32	215.96
790.64	215.89
790.96	215.91
791.28	215.79
791.61	215.71
791.93	215.70
792.25	215.59
792.57	215.68
792.89	215.53
793.21	215.49
793.54	215.44
793.86	215.49
794.18	215.43
794.50	215.33
794.82	215.33
795.14	215.31
795.47	215.37
795.79	215.35
796.11	215.19
796.43	215.16
796.75	215.09
797.07	215.05
797.39	215.04
797.71	214.96
798.04	214.86
798.36	214.77
798.68	214.66
799.00	214.72
799.32	214.65
799.64	214.68
799.96	214.61
800.28	214.59
800.60	214.53
800.92	214.51
801.24	214.43
801.56	214.41
801.89	214.30
802.21	214.26
802.53	214.16
802.85	214.20
803.17	214.27
803.49	214.22
803.81	214.20
804.13	214.13
804.45	214.02
804.77	214.09
805.09	214.12
805.41	214.05
805.73	213.93
806.05	213.78
806.37	213.82
806.69	213.85
807.01	213.79
807.33	213.79
807.65	213.68
807.97	213.78
808.28	213.68
808.60	213.65
808.92	213.62
809.24	213.70
809.56	213.63
809.88	213.52
810.20	213.47
810.52	213.45
810.84	213.45
811.16	213.46
811.48	213.41
811.80	213.49
812.12	213.52
812.43	213.54
812.75	213.58
813.07	213.52
813.39	213.51
813.71	213.55
814.03	213.41
814.35	213.37
814.67	213.32
814.98	213.30
815.30	213.34
815.62	213.32
815.94	213.20
816.26	213.22
816.58	213.15
816.89	213.15
817.21	213.15
817.53	213.12
817.85	213.12
818.17	213.17
818.48	213.05
818.80	213.05
819.12	213.09
819.44	213.04
819.76	212.98
820.07	212.89
820.39	212.83
820.71	212.87
821.03	212.90
821.34	212.87
821.66	212.91
821.98	212.96
822.30	212.90
822.61	212.97
822.93	212.94
823.25	212.91
823.57	212.91
823.88	212.94
824.20	212.92
824.52	212.95
824.83	212.89
825.15	212.84
825.47	212.82
825.79	212.77
826.10	212.70
826.42	212.70
826.74	212.73
827.05	212.75
827.37	212.77
827.69	212.76
828.00	212.81
828.32	212.72
828.64	212.64
828.95	212.73
829.27	212.64
829.58	212.68
829.90	212.64
830.22	212.61
830.53	212.49
830.85	212.46
831.17	212.38
831.48	212.34
831.80	212.39
832.11	212.37
832.43	212.33
832.75	212.32
833.06	212.40
833.38	212.35
833.69	212.27
834.01	212.24
834.32	212.26
834.64	212.20
834.96	212.20
835.27	212.24
835.59	212.16
835.90	212.18
836.22	212.12
836.53	212.15
836.85	212.16
837.16	212.38
837.48	212.37
837.79	212.42
838.11	212.45
838.42	212.40
838.74	212.43
839.05	212.40
839.37	212.46
839.68	212.31
840.00	212.29
840.31	212.34
840.63	212.35
840.94	212.33
841.26	212.28
841.57	212.31
841.88	212.24
842.20	212.18
842.51	212.12
842.83	212.12
843.14	212.23
843.46	212.23
843.77	212.10
844.08	212.06
844.40	211.97
844.71	211.91
845.03	211.87
845.34	211.81
845.65	211.80
845.97	211.82
846.28	211.84
846.60	211.90
846.91	211.85
847.22	211.80
847.54	211.83
847.85	211.80
848.16	211.75
848.48	211.73
848.79	211.78
849.10	211.80
849.42	211.81
849.73	211.66
850.04	211.67
850.36	211.60
850.67	211.65
850.98	211.70
851.30	211.77
851.61	211.78
851.92	211.77
852.23	211.83
852.55	211.75
852.86	211.76
853.17	211.72
853.49	211.79
853.80	211.82
854.11	211.80
854.42	211.86
854.74	211.84
855.05	211.85
855.36	211.77
855.67	211.76
855.99	211.74
856.30	211.93
856.61	211.92
856.92	211.91
857.23	211.87
857.55	211.84
857.86	211.73
858.17	211.79
858.48	211.82
858.79	211.80
859.11	211.85
859.42	211.83
859.73	211.80
860.04	211.78
860.35	211.75
860.66	211.69
860.98	211.63
861.29	211.67
861.60	211.67
861.91	211.69
862.22	211.64
862.53	211.64
862.84	211.46
863.16	211.49
863.47	211.46
863.78	211.46
864.09	211.50
864.40	211.52
864.71	211.49
865.02	211.50
865.33	211.45
865.64	211.40
865.95	211.42
866.27	211.54
866.58	211.57
866.89	211.57
867.20	211.56
867.51	211.56
867.82	211.57
868.13	211.62
868.44	211.61
868.75	211.70
869.06	211.66
869.37	211.77
869.68	211.63
869.99	211.71
870.30	211.67
870.61	211.62
870.92	211.62
871.23	211.59
871.54	211.57
871.85	211.63
872.16	211.65
872.47	211.60
872.78	211.52
873.09	211.42
873.40	211.40
873.71	211.39
874.02	211.41
874.33	211.40
874.64	211.31
874.95	211.35
875.26	211.26
875.56	211.30
875.87	211.16
876.18	211.26
876.49	211.40
876.80	211.39
877.11	211.35
877.42	211.36
877.73	211.28
878.04	211.32
878.35	211.26
878.66	211.25
878.96	211.30
879.27	211.25
879.58	211.33
879.89	211.34
880.20	211.47
880.51	211.51
880.82	211.50
881.12	211.57
881.43	211.55
881.74	211.53
882.05	211.43
882.36	211.47
882.67	211.40
882.97	211.17
883.28	211.24
883.59	211.27
883.90	211.23
884.21	211.28
884.51	211.28
884.82	211.35
885.13	211.32
885.44	211.29
885.74	211.24
886.05	211.21
886.36	211.22
886.67	211.10
886.98	211.11
887.28	211.08
887.59	211.11
887.90	211.16
888.20	211.21
888.51	211.28
888.82	211.21
889.13	211.27
889.43	211.51
889.74	211.49
890.05	211.49
890.35	211.54
890.66	211.56
890.97	211.50
891.28	211.40
891.58	211.38
891.89	211.37
892.20	211.43
892.50	211.43
892.81	211.40
893.12	211.44
893.42	211.38
893.73	211.42
894.04	211.33
894.34	211.23
894.65	211.23
894.95	211.24
895.26	211.24
895.57	211.31
895.87	211.05
896.18	211.05
896.48	211.01
896.79	210.99
897.10	211.08
897.40	211.10
897.71	211.12
898.01	211.16
898.32	211.20
898.63	211.22
898.93	211.19
899.24	211.21
899.54	211.19
899.85	211.15
900.15	211.14
900.46	211.19
900.76	211.23
901.07	211.14
901.38	211.17
901.68	211.26
901.99	211.15
902.29	211.23
902.60	211.22
902.90	211.27
903.21	211.29
903.51	211.21
903.82	211.21
904.12	211.21
904.43	211.19
904.73	211.20
905.03	211.22
905.34	211.40
905.64	211.44
905.95	211.46
906.25	211.44
906.56	211.41
906.86	211.32
907.17	211.39
907.47	211.43
907.77	211.41
908.08	211.34
908.38	211.34
908.69	211.30
908.99	211.31
909.30	211.36
909.60	211.38
909.90	211.40
910.21	211.40
910.51	211.44
910.81	211.48
911.12	211.45
911.42	211.44
911.73	211.27
912.03	211.24
912.33	211.19
912.64	211.24
912.94	211.24
913.24	211.29
913.55	211.22
913.85	211.27
914.15	211.26
914.46	211.33
914.76	211.34
915.06	211.33
915.37	211.29
915.67	211.22
915.97	211.18
916.27	211.16
916.58	211.12
916.88	211.07
917.18	210.99
917.49	211.08
917.79	211.04
918.09	211.02
918.39	211.00
918.70	211.06
919.00	211.11
919.30	211.15
919.60	211.10
919.91	211.05
920.21	211.03
920.51	211.00
920.81	210.91
921.12	210.95
921.42	211.00
921.72	211.05
922.02	211.20
922.32	211.22
922.63	211.25
922.93	211.31
923.23	211.40
923.53	211.38
923.83	211.25
924.13	211.27
924.44	211.34
924.74	211.39
925.04	211.45
925.34	211.41
925.64	211.34
925.94	211.32
926.24	211.43
926.55	211.43
926.85	211.46
927.15	211.45
927.45	211.40
927.75	211.36
928.05	211.31
928.35	211.14
928.65	211.13
928.95	211.14
929.26	211.12
929.56	211.13
929.86	211.18
930.16	211.16
930.46	211.20
930.76	211.12
931.06	211.04
931.36	210.92
931.66	210.86
931.96	210.93
932.26	210.92
932.56	210.88
932.86	210.90
933.16	210.90
933.46	210.89
933.76	210.95
934.06	210.98
934.36	211.03
934.66	211.05
934.96	211.08
935.26	211.05
935.56	211.08
935.86	210.99
936.16	211.05
936.46	211.11
936.76	211.04
937.06	211.02
937.36	211.03
937.66	210.99
937.96	211.05
938.26	211.01
938.56	211.02
938.86	211.04
939.16	211.07
939.46	211.11
939.76	211.14
940.06	211.08
940.35	211.07
940.65	211.03
940.95	211.10
941.25	211.03
941.55	211.00
941.85	210.96
942.15	210.96
942.45	210.96
942.75	210.88
943.04	210.91
943.34	211.00
943.64	211.03
943.94	211.06
944.24	211.11
944.54	211.14
944.84	211.15
945.13	211.13
945.43	211.01
945.73	210.95
946.03	210.97
946.33	210.98
946.62	210.97
946.92	210.95
947.22	210.91
947.52	210.93
947.82	210.94
948.11	210.93
948.41	210.90
948.71	210.81
949.01	210.82
949.31	210.81
949.60	210.81
949.90	210.83
950.20	210.82
950.50	210.78
950.79	210.77
951.09	210.81
951.39	210.74
951.69	210.76
951.98	210.81
952.28	210.81
952.58	210.83
952.87	210.83
953.17	210.84
953.47	210.82
953.76	210.84
954.06	210.79
954.36	210.76
954.66	210.85
954.95	210.83
955.25	210.90
955.55	210.90
955.84	210.78
956.14	210.75
956.44	210.77
956.73	210.75
957.03	210.74
957.32	210.78
957.62	210.82
957.92	210.88
958.21	210.86
958.51	211.01
958.81	211.01
959.10	210.95
959.40	210.94
959.69	210.95
959.99	210.97
960.29	210.93
960.58	210.93
960.88	210.98
961.17	211.06
961.47	211.05
961.76	211.05
962.06	211.13
962.36	211.09
962.65	211.10
962.95	211.07
963.24	211.05
963.54	210.99
963.83	211.01
964.13	211.00
964.42	210.97
964.72	210.81
965.01	210.81
965.31	210.87
965.60	210.90
965.90	211.05
966.19	211.02
966.49	211.10
966.78	211.07
967.08	211.04
967.37	211.00
967.67	211.00
967.96	211.07
968.26	211.03
968.55	211.14
968.85	211.17
969.14	211.27
969.43	211.29
969.73	211.29
970.02	211.27
970.32	211.26
970.61	211.30
970.91	211.28
971.20	211.28
971.49	211.25
971.79	211.26
972.08	211.12
972.38	211.11
972.67	211.07
972.96	211.20
973.26	211.11
973.55	211.20
973.85	211.25
974.14	211.16
974.43	211.27
974.73	211.23
975.02	211.16
975.31	211.15
975.61	211.10
975.90	211.08
976.19	211.05
976.49	211.06
976.78	211.08
977.07	211.09
977.37	211.08
977.66	211.05
977.95	211.06
978.24	211.08
978.54	211.11
978.83	211.09
979.12	211.01
979.42	211.00
979.71	210.82
980.00	210.73
980.29	210.77
980.59	210.68
980.88	210.61
981.17	210.59
981.46	210.56
981.76	210.61
982.05	210.72
982.34	210.83
982.63	210.79
982.93	210.72
983.22	210.73
983.51	210.76
983.80	210.89
984.09	210.88
984.39	210.89
984.68	210.89
984.97	210.90
985.26	210.86
985.55	210.95
985.85	210.97
986.14	211.01
986.43	211.08
986.72	211.12
987.01	211.19
987.30	211.23
987.59	211.22
987.89	211.26
988.18	211.16
988.47	211.05
988.76	211.07
989.05	211.08
989.34	211.07
989.63	211.13
989.92	211.09
990.22	211.09
990.51	211.04
990.80	211.06
991.09	211.11
991.38	211.15
991.67	211.12
991.96	211.22
992.25	211.25
992.54	211.21
992.83	211.19
993.12	211.16
993.41	211.21
993.70	211.31
993.99	211.23
994.28	211.30
994.58	211.39
994.87	211.40
995.16	211.44
995.45	211.46
995.74	211.41
996.03	211.45
996.32	211.44
996.61	211.50
996.90	211.48
997.19	211.45
997.48	211.44
997.77	211.36
998.06	211.36
998.34	211.35
998.63	211.27
998.92	211.28
999.21	211.31
999.50	211.32
999.79	211.21
1000.08	211.30
1000.37	211.25
1000.66	211.16
1000.95	211.15
1001.24	211.20
1001.53	211.22
1001.82	211.21
1002.11	211.15
1002.40	211.21
1002.68	211.28
1002.97	211.39
1003.26	211.44
1003.55	211.48
1003.84	211.59
1004.13	211.62
1004.42	211.57
1004.71	211.62
1004.99	211.57
1005.28	211.60
1005.57	211.56
1005.86	211.58
1006.15	211.58
1006.44	211.60
1006.72	211.67
1007.01	211.64
1007.30	211.61
1007.59	211.62
1007.88	211.60
1008.17	211.60
1008.45	211.57
1008.74	211.51
1009.03	211.44
1009.32	211.43
1009.60	211.35
1009.89	211.37
1010.18	211.36
1010.47	211.40
1010.76	211.42
1011.04	211.45
1011.33	211.47
1011.62	211.48
1011.91	211.52
1012.19	211.44
1012.48	211.43
1012.77	211.41
1013.05	211.55
1013.34	211.50
1013.63	211.45
1013.92	211.44
1014.20	211.40
1014.49	211.39
1014.78	211.41
1015.06	211.40
1015.35	211.41
1015.64	211.47
1015.92	211.39
1016.21	211.34
1016.50	211.32
1016.78	211.30
1017.07	211.28
1017.36	211.20
1017.64	211.16
1017.93	211.15
1018.22	211.15
1018.50	211.10
1018.79	211.13
1019.08	211.00
1019.36	210.99
1019.65	210.98
1019.93	211.04
1020.22	211.06
1020.51	211.12
1020.79	211.02
1021.08	210.25
1021.36	210.00
1021.65	211.50
1021.94	210.75
1022.22	210.65
1022.51	210.70
1022.79	212.05
1023.08	210.90
1023.36	212.60
1023.65	210.45
>>>>>End Processed Spectral Data<<<<<
