SpectraSuite Data File
++++++++++++++++++++++++++++++++++++
Date: Mon Feb 25 17:34:16 EST 2013
User: group
Dark Spectrum Present: No
Reference Spectrum Present: No
Number of Sampled Component Spectra: 1
Spectrometers: USB2E7196
Integration Time (usec): 52000 (USB2E7196)
Spectra Averaged: 20 (USB2E7196)
Boxcar Smoothing: 10 (USB2E7196)
Correct for Electrical Dark: No (USB2E7196)
Strobe/Lamp Enabled: No (USB2E7196)
Correct for Detector Non-linearity: No (USB2E7196)
Correct for Stray Light: No (USB2E7196)
Number of Pixels in Processed Spectrum: 2048
>>>>>Begin Processed Spectral Data<<<<<
339.09	0.00
339.48	199.05
339.86	199.70
340.24	201.95
340.63	202.25
341.01	207.35
341.39	206.30
341.78	207.90
342.16	209.70
342.54	210.10
342.93	198.33
343.31	208.40
343.69	208.94
344.07	209.38
344.46	209.84
344.84	210.27
345.22	210.44
345.60	210.64
345.99	210.80
346.37	210.92
346.75	210.97
347.13	211.08
347.52	211.14
347.90	211.22
348.28	211.28
348.66	211.29
349.05	211.23
349.43	211.24
349.81	211.43
350.19	211.45
350.57	211.50
350.96	211.50
351.34	211.58
351.72	211.67
352.10	211.83
352.48	211.88
352.87	211.92
353.25	212.03
353.63	212.18
354.01	212.19
354.39	212.25
354.77	212.39
355.15	212.51
355.54	212.52
355.92	212.48
356.30	212.56
356.68	212.83
357.06	212.95
357.44	213.02
357.82	212.96
358.20	213.04
358.58	213.11
358.97	213.25
359.35	213.34
359.73	213.45
360.11	213.50
360.49	213.56
360.87	213.65
361.25	213.65
361.63	213.69
362.01	213.79
362.39	213.82
362.77	213.76
363.15	213.78
363.53	213.92
363.91	214.02
364.29	214.02
364.67	213.86
365.05	213.86
365.43	213.95
365.81	214.01
366.19	214.02
366.57	213.98
366.95	213.94
367.33	213.91
367.71	213.87
368.09	213.90
368.47	213.90
368.85	213.90
369.23	213.92
369.61	213.85
369.99	213.92
370.37	213.92
370.75	214.02
371.13	213.99
371.51	213.94
371.89	213.91
372.27	213.89
372.65	213.90
373.03	213.84
373.41	213.79
373.78	213.72
374.16	213.68
374.54	213.65
374.92	213.55
375.30	213.46
375.68	213.41
376.06	213.37
376.44	213.27
376.82	213.18
377.19	213.17
377.57	213.13
377.95	212.99
378.33	212.88
378.71	212.72
379.09	212.58
379.47	212.52
379.84	212.46
380.22	212.44
380.60	212.30
380.98	212.25
381.36	212.17
381.73	212.09
382.11	212.06
382.49	212.03
382.87	212.05
383.25	211.95
383.62	212.07
384.00	211.98
384.38	212.03
384.76	212.01
385.13	212.02
385.51	211.98
385.89	211.98
386.27	211.90
386.64	211.90
387.02	211.91
387.40	211.81
387.78	211.78
388.15	211.75
388.53	211.71
388.91	211.71
389.29	211.71
389.66	211.78
390.04	211.70
390.42	211.76
390.79	211.73
391.17	211.75
391.55	211.55
391.92	211.55
392.30	211.46
392.68	211.51
393.05	211.47
393.43	211.50
393.81	211.53
394.18	211.57
394.56	211.57
394.94	211.66
395.31	211.68
395.69	211.75
396.06	211.79
396.44	211.76
396.82	211.75
397.19	211.76
397.57	211.69
397.95	211.78
398.32	211.71
398.70	211.72
399.07	211.89
399.45	211.96
399.82	211.99
400.20	212.07
400.58	212.05
400.95	212.04
401.33	212.12
401.70	212.22
402.08	212.23
402.45	212.33
402.83	212.38
403.20	212.46
403.58	212.43
403.95	212.51
404.33	212.66
404.71	212.76
405.08	212.91
405.46	213.03
405.83	213.07
406.21	213.14
406.58	213.26
406.96	213.35
407.33	213.52
407.70	213.62
408.08	213.98
408.45	214.20
408.83	214.50
409.20	214.74
409.58	214.89
409.95	215.19
410.33	215.45
410.70	215.73
411.08	216.07
411.45	216.46
411.82	216.86
412.20	217.30
412.57	217.85
412.95	218.25
413.32	218.80
413.69	219.41
414.07	220.03
414.44	220.64
414.82	221.27
415.19	221.95
415.56	222.75
415.94	223.41
416.31	224.30
416.68	225.11
417.06	226.10
417.43	227.13
417.81	228.28
418.18	229.38
418.55	230.60
418.93	231.99
419.30	233.36
419.67	234.82
420.04	236.30
420.42	237.70
420.79	239.52
421.16	241.28
421.54	243.04
421.91	244.89
422.28	246.88
422.66	248.95
423.03	251.01
423.40	253.11
423.77	255.37
424.15	257.60
424.52	260.02
424.89	262.57
425.26	265.06
425.64	267.34
426.01	269.93
426.38	272.62
426.75	275.30
427.13	278.09
427.50	280.97
427.87	284.03
428.24	287.22
428.61	290.21
428.99	293.56
429.36	297.20
429.73	300.64
430.10	304.14
430.47	307.74
430.85	311.39
431.22	315.36
431.59	319.60
431.96	323.58
432.33	327.98
432.70	332.15
433.08	337.08
433.45	341.88
433.82	346.55
434.19	351.63
434.56	356.60
434.93	361.35
435.30	366.20
435.68	371.59
436.05	376.68
436.42	381.78
436.79	386.47
437.16	391.55
437.53	396.99
437.90	402.28
438.27	407.51
438.64	412.92
439.01	417.95
439.38	422.22
439.75	426.50
440.13	431.25
440.50	435.82
440.87	439.64
441.24	443.49
441.61	447.77
441.98	450.90
442.35	454.59
442.72	458.24
443.09	461.88
443.46	464.00
443.83	465.50
444.20	466.63
444.57	468.32
444.94	468.87
445.31	469.61
445.68	470.36
446.05	470.45
446.42	469.76
446.79	468.85
447.16	468.02
447.53	467.41
447.90	465.36
448.27	463.31
448.64	460.32
449.01	458.16
449.37	454.49
449.74	450.97
450.11	446.73
450.48	442.20
450.85	437.46
451.22	433.43
451.59	429.64
451.96	426.01
452.33	421.29
452.70	417.04
453.07	411.93
453.43	406.62
453.80	401.71
454.17	397.01
454.54	392.57
454.91	387.80
455.28	382.96
455.65	378.52
456.02	374.21
456.38	370.47
456.75	365.69
457.12	361.85
457.49	358.07
457.86	354.35
458.23	351.25
458.59	347.68
458.96	344.14
459.33	340.96
459.70	337.80
460.07	335.19
460.43	332.27
460.80	329.63
461.17	327.35
461.54	324.80
461.91	322.38
462.27	319.92
462.64	317.79
463.01	315.60
463.38	313.45
463.74	311.15
464.11	309.20
464.48	307.64
464.85	305.81
465.21	304.43
465.58	303.05
465.95	301.31
466.32	299.88
466.68	298.45
467.05	297.06
467.42	295.76
467.78	294.34
468.15	293.03
468.52	291.93
468.88	290.49
469.25	289.28
469.62	288.32
469.98	287.37
470.35	286.47
470.72	285.56
471.08	284.66
471.45	283.86
471.82	283.08
472.18	282.19
472.55	281.66
472.92	280.90
473.28	280.28
473.65	279.75
474.02	279.19
474.38	278.74
474.75	278.38
475.11	278.00
475.48	277.67
475.85	277.44
476.21	277.23
476.58	277.13
476.94	277.16
477.31	277.18
477.67	277.18
478.04	277.14
478.41	277.31
478.77	277.57
479.14	277.68
479.50	277.95
479.87	278.37
480.23	278.66
480.60	278.96
480.96	279.38
481.33	279.97
481.69	280.59
482.06	281.23
482.42	281.83
482.79	282.50
483.15	283.42
483.52	284.45
483.88	285.35
484.25	286.30
484.61	287.31
484.98	288.30
485.34	289.47
485.71	290.79
486.07	292.21
486.44	293.57
486.80	295.12
487.17	296.74
487.53	298.45
487.90	300.16
488.26	302.13
488.62	304.11
488.99	306.06
489.35	308.16
489.72	310.43
490.08	312.81
490.44	315.28
490.81	318.07
491.17	320.71
491.54	323.66
491.90	326.70
492.26	329.86
492.63	333.24
492.99	336.82
493.36	340.55
493.72	344.35
494.08	348.45
494.45	352.67
494.81	357.22
495.17	361.76
495.54	366.76
495.90	371.88
496.26	377.20
496.63	382.72
496.99	388.65
497.35	394.70
497.72	401.00
498.08	407.53
498.44	414.12
498.80	421.30
499.17	428.83
499.53	436.53
499.89	444.54
500.26	452.60
500.62	461.02
500.98	469.80
501.34	478.90
501.71	488.21
502.07	497.96
502.43	507.73
502.79	518.13
503.16	528.77
503.52	539.59
503.88	550.73
504.24	562.26
504.60	573.97
504.97	586.27
505.33	598.81
505.69	612.19
506.05	625.60
506.41	639.15
506.78	652.74
507.14	666.97
507.50	681.61
507.86	696.61
508.22	712.01
508.59	727.64
508.95	743.73
509.31	759.97
509.67	776.68
510.03	793.76
510.39	811.26
510.75	828.89
511.12	847.08
511.48	865.57
511.84	884.29
512.20	903.15
512.56	922.37
512.92	941.87
513.28	961.27
513.64	981.05
514.00	1001.14
514.37	1021.68
514.73	1042.31
515.09	1063.15
515.45	1084.00
515.81	1105.25
516.17	1126.46
516.53	1147.69
516.89	1169.55
517.25	1191.24
517.61	1213.11
517.97	1234.68
518.33	1256.28
518.69	1278.30
519.05	1300.32
519.41	1322.77
519.77	1345.58
520.13	1368.07
520.49	1390.30
520.85	1413.16
521.21	1435.75
521.57	1458.62
521.93	1480.73
522.29	1503.86
522.65	1526.63
523.01	1549.36
523.37	1571.60
523.73	1594.22
524.09	1616.66
524.45	1638.99
524.81	1661.31
525.17	1683.82
525.53	1706.65
525.89	1729.37
526.25	1751.10
526.61	1772.62
526.97	1794.54
527.33	1815.67
527.68	1836.91
528.04	1858.13
528.40	1878.51
528.76	1899.32
529.12	1920.02
529.48	1942.23
529.84	1962.75
530.20	1983.07
530.56	2003.81
530.91	2024.65
531.27	2045.27
531.63	2065.61
531.99	2085.55
532.35	2104.78
532.71	2123.94
533.07	2143.45
533.42	2162.07
533.78	2181.46
534.14	2200.08
534.50	2217.15
534.86	2235.59
535.21	2252.71
535.57	2271.12
535.93	2288.41
536.29	2305.37
536.65	2322.08
537.00	2337.11
537.36	2352.30
537.72	2367.59
538.08	2382.78
538.44	2398.03
538.79	2413.19
539.15	2427.81
539.51	2442.40
539.87	2458.15
540.22	2472.69
540.58	2487.55
540.94	2502.33
541.29	2515.11
541.65	2527.58
542.01	2541.04
542.37	2552.72
542.72	2565.10
543.08	2575.89
543.44	2588.44
543.79	2598.97
544.15	2609.45
544.51	2620.63
544.87	2631.80
545.22	2641.52
545.58	2650.34
545.94	2657.65
546.29	2664.26
546.65	2670.98
547.01	2677.53
547.36	2683.00
547.72	2688.75
548.07	2692.95
548.43	2696.48
548.79	2700.63
549.14	2705.46
549.50	2709.66
549.86	2714.10
550.21	2718.41
550.57	2722.93
550.92	2725.34
551.28	2728.19
551.64	2730.74
551.99	2733.49
552.35	2735.02
552.70	2737.69
553.06	2740.44
553.41	2743.63
553.77	2746.65
554.13	2748.78
554.48	2750.89
554.84	2752.92
555.19	2753.89
555.55	2754.21
555.90	2754.95
556.26	2755.56
556.61	2755.69
556.97	2754.79
557.32	2754.12
557.68	2752.26
558.03	2750.72
558.39	2749.53
558.74	2749.02
559.10	2748.15
559.45	2746.07
559.81	2745.32
560.16	2742.77
560.52	2740.62
560.87	2737.72
561.23	2734.11
561.58	2732.08
561.94	2728.72
562.29	2724.63
562.64	2722.12
563.00	2719.90
563.35	2717.87
563.71	2716.00
564.06	2713.75
564.42	2711.87
564.77	2709.73
565.12	2708.08
565.48	2704.73
565.83	2701.52
566.19	2698.42
566.54	2694.02
566.89	2690.34
567.25	2686.42
567.60	2683.33
567.96	2679.57
568.31	2675.95
568.66	2672.35
569.02	2667.81
569.37	2662.98
569.72	2659.08
570.08	2653.79
570.43	2647.92
570.78	2642.15
571.14	2635.91
571.49	2629.44
571.84	2623.45
572.20	2616.35
572.55	2609.55
572.90	2602.76
573.26	2595.61
573.61	2588.46
573.96	2582.05
574.31	2574.27
574.67	2566.10
575.02	2557.13
575.37	2548.42
575.72	2539.64
576.08	2531.65
576.43	2522.97
576.78	2514.85
577.13	2506.95
577.49	2498.67
577.84	2491.26
578.19	2483.52
578.54	2476.08
578.90	2469.22
579.25	2460.32
579.60	2451.16
579.95	2441.74
580.30	2433.62
580.66	2425.69
581.01	2416.63
581.36	2407.27
581.71	2398.86
582.06	2390.03
582.42	2381.90
582.77	2372.69
583.12	2363.40
583.47	2354.75
583.82	2346.40
584.17	2337.17
584.53	2327.72
584.88	2318.85
585.23	2309.42
585.58	2299.72
585.93	2289.80
586.28	2280.29
586.63	2271.66
586.98	2263.49
587.34	2255.05
587.69	2245.87
588.04	2236.39
588.39	2228.01
588.74	2219.19
589.09	2210.23
589.44	2201.04
589.79	2192.66
590.14	2184.67
590.49	2176.54
590.84	2167.49
591.19	2159.07
591.54	2150.33
591.89	2140.37
592.25	2131.28
592.60	2121.74
592.95	2112.53
593.30	2103.20
593.65	2093.21
594.00	2083.16
594.35	2074.86
594.70	2065.81
595.05	2056.90
595.40	2048.02
595.75	2038.34
596.10	2029.68
596.45	2021.26
596.80	2013.24
597.15	2004.53
597.50	1995.47
597.85	1986.82
598.19	1978.20
598.54	1969.47
598.89	1961.65
599.24	1954.80
599.59	1947.21
599.94	1940.39
600.29	1932.48
600.64	1924.22
600.99	1915.79
601.34	1908.65
601.69	1899.65
602.04	1891.39
602.39	1883.24
602.74	1875.56
603.08	1868.88
603.43	1861.77
603.78	1853.69
604.13	1845.50
604.48	1837.59
604.83	1830.44
605.18	1823.53
605.53	1815.70
605.87	1807.95
606.22	1800.77
606.57	1792.69
606.92	1784.41
607.27	1775.92
607.62	1768.54
607.96	1761.70
608.31	1755.63
608.66	1747.70
609.01	1740.09
609.36	1732.58
609.70	1724.57
610.05	1717.01
610.40	1708.55
610.75	1700.03
611.10	1691.98
611.44	1682.81
611.79	1673.79
612.14	1664.33
612.49	1654.42
612.83	1645.79
613.18	1636.08
613.53	1626.30
613.88	1616.90
614.22	1607.85
614.57	1598.37
614.92	1589.06
615.27	1579.78
615.61	1569.76
615.96	1560.81
616.31	1552.21
616.65	1544.13
617.00	1535.80
617.35	1526.77
617.70	1517.86
618.04	1508.68
618.39	1499.34
618.74	1490.91
619.08	1481.95
619.43	1473.65
619.78	1465.87
620.12	1457.85
620.47	1450.02
620.82	1441.50
621.16	1432.78
621.51	1424.44
621.85	1416.19
622.20	1407.50
622.55	1398.84
622.89	1390.65
623.24	1382.61
623.59	1373.90
623.93	1365.05
624.28	1356.69
624.62	1348.15
624.97	1339.99
625.32	1332.02
625.66	1324.61
626.01	1317.44
626.35	1310.43
626.70	1302.78
627.04	1295.30
627.39	1287.67
627.73	1279.87
628.08	1273.29
628.43	1266.14
628.77	1258.61
629.12	1251.15
629.46	1244.53
629.81	1237.31
630.15	1230.00
630.50	1222.59
630.84	1215.44
631.19	1208.24
631.53	1201.37
631.88	1194.06
632.22	1186.48
632.57	1179.72
632.91	1172.05
633.26	1164.33
633.60	1156.95
633.95	1150.08
634.29	1142.61
634.64	1135.64
634.98	1128.78
635.32	1121.22
635.67	1114.63
636.01	1107.98
636.36	1101.42
636.70	1094.67
637.05	1088.10
637.39	1081.57
637.73	1075.39
638.08	1069.32
638.42	1063.38
638.77	1056.78
639.11	1050.29
639.45	1044.30
639.80	1037.74
640.14	1031.53
640.49	1025.52
640.83	1019.33
641.17	1012.81
641.52	1006.76
641.86	1000.22
642.20	994.00
642.55	987.52
642.89	981.04
643.23	974.70
643.58	968.68
643.92	962.26
644.26	956.10
644.61	950.01
644.95	943.56
645.29	937.16
645.64	930.42
645.98	924.22
646.32	918.51
646.66	912.27
647.01	906.15
647.35	900.25
647.69	893.95
648.04	887.77
648.38	881.86
648.72	875.62
649.06	869.28
649.41	863.32
649.75	857.48
650.09	851.43
650.43	845.38
650.78	839.09
651.12	832.93
651.46	827.08
651.80	820.97
652.14	815.00
652.49	809.21
652.83	803.51
653.17	797.40
653.51	791.42
653.85	785.64
654.20	779.59
654.54	773.58
654.88	767.95
655.22	762.28
655.56	756.33
655.90	750.52
656.25	744.88
656.59	739.36
656.93	733.97
657.27	728.92
657.61	723.44
657.95	718.28
658.29	713.08
658.64	707.86
658.98	702.55
659.32	697.22
659.66	691.95
660.00	686.59
660.34	681.45
660.68	676.37
661.02	671.17
661.36	666.50
661.70	661.80
662.05	657.00
662.39	652.54
662.73	648.20
663.07	643.79
663.41	639.56
663.75	634.93
664.09	630.22
664.43	625.31
664.77	620.98
665.11	616.40
665.45	611.99
665.79	607.51
666.13	603.14
666.47	599.05
666.81	594.80
667.15	590.71
667.49	586.84
667.83	582.76
668.17	579.04
668.51	575.18
668.85	571.53
669.19	567.93
669.53	563.90
669.87	559.95
670.21	556.26
670.55	552.20
670.89	548.66
671.23	545.35
671.57	542.01
671.91	538.43
672.25	534.83
672.58	531.29
672.92	527.91
673.26	524.82
673.60	521.47
673.94	518.20
674.28	514.83
674.62	511.71
674.96	508.49
675.30	505.40
675.64	502.17
675.97	498.89
676.31	495.75
676.65	492.82
676.99	490.06
677.33	487.04
677.67	484.19
678.01	481.00
678.34	477.98
678.68	474.99
679.02	472.09
679.36	469.29
679.70	466.48
680.04	463.47
680.37	460.38
680.71	457.54
681.05	454.84
681.39	452.17
681.73	449.40
682.06	446.97
682.40	444.15
682.74	441.52
683.08	438.95
683.42	436.26
683.75	433.61
684.09	430.95
684.43	428.44
684.77	425.87
685.10	423.41
685.44	420.82
685.78	418.38
686.12	416.05
686.45	413.80
686.79	411.49
687.13	409.29
687.46	407.16
687.80	404.94
688.14	402.60
688.48	400.50
688.81	398.17
689.15	395.80
689.49	393.51
689.82	391.33
690.16	388.94
690.50	386.75
690.83	384.50
691.17	382.16
691.51	379.90
691.84	377.88
692.18	375.81
692.52	373.92
692.85	372.07
693.19	370.15
693.52	368.05
693.86	366.11
694.20	364.22
694.53	362.27
694.87	360.39
695.21	358.49
695.54	356.47
695.88	354.64
696.21	352.81
696.55	351.11
696.88	349.34
697.22	347.70
697.56	346.05
697.89	344.47
698.23	342.84
698.56	341.23
698.90	339.63
699.23	338.04
699.57	336.43
699.90	334.70
700.24	333.06
700.58	331.45
700.91	329.93
701.25	328.58
701.58	327.17
701.92	325.68
702.25	324.30
702.59	322.94
702.92	321.54
703.26	320.18
703.59	318.91
703.93	317.75
704.26	316.48
704.60	315.19
704.93	313.86
705.26	312.75
705.60	311.50
705.93	310.23
706.27	309.00
706.60	307.75
706.94	306.77
707.27	305.55
707.61	304.37
707.94	303.26
708.27	301.94
708.61	300.78
708.94	299.61
709.28	298.43
709.61	297.39
709.94	296.39
710.28	295.26
710.61	294.33
710.95	293.18
711.28	292.20
711.61	291.25
711.95	290.31
712.28	289.19
712.61	288.28
712.95	287.38
713.28	286.47
713.61	285.50
713.95	284.47
714.28	283.64
714.61	282.68
714.95	281.77
715.28	280.86
715.61	279.91
715.95	279.00
716.28	278.13
716.61	277.28
716.95	276.32
717.28	275.51
717.61	274.48
717.94	273.70
718.28	272.91
718.61	272.11
718.94	271.38
719.27	270.63
719.61	269.94
719.94	269.19
720.27	268.49
720.60	267.81
720.94	267.03
721.27	266.34
721.60	265.76
721.93	264.98
722.27	264.44
722.60	263.90
722.93	263.32
723.26	262.78
723.59	262.09
723.93	261.60
724.26	261.11
724.59	260.62
724.92	259.97
725.25	259.32
725.59	258.72
725.92	258.23
726.25	257.73
726.58	257.17
726.91	256.55
727.24	255.96
727.57	255.47
727.91	254.97
728.24	254.47
728.57	254.02
728.90	253.69
729.23	253.11
729.56	252.76
729.89	252.25
730.22	251.75
730.55	251.38
730.89	250.90
731.22	250.36
731.55	249.86
731.88	249.55
732.21	249.11
732.54	248.60
732.87	248.11
733.20	247.67
733.53	247.24
733.86	246.90
734.19	246.41
734.52	246.05
734.85	245.82
735.18	245.34
735.51	244.95
735.84	244.47
736.17	244.15
736.50	243.57
736.83	243.50
737.16	243.14
737.49	242.77
737.82	242.35
738.15	242.03
738.48	241.74
738.81	241.30
739.14	240.93
739.47	240.63
739.80	240.28
740.13	239.97
740.46	239.54
740.79	239.09
741.12	238.82
741.45	238.42
741.78	238.01
742.11	237.79
742.44	237.45
742.77	237.15
743.10	236.86
743.43	236.55
743.75	236.02
744.08	235.86
744.41	235.51
744.74	235.23
745.07	234.91
745.40	234.61
745.73	234.43
746.06	234.15
746.39	233.85
746.71	233.50
747.04	233.19
747.37	233.00
747.70	232.89
748.03	232.61
748.36	232.39
748.68	232.09
749.01	231.75
749.34	231.54
749.67	231.31
750.00	231.02
750.33	230.91
750.65	230.61
750.98	230.23
751.31	230.00
751.64	229.76
751.97	229.66
752.29	229.38
752.62	229.10
752.95	228.88
753.28	228.69
753.60	228.50
753.93	228.30
754.26	228.01
754.59	227.69
754.91	227.49
755.24	227.31
755.57	227.16
755.90	226.98
756.22	226.65
756.55	226.50
756.88	226.31
757.20	226.00
757.53	225.83
757.86	225.61
758.19	225.46
758.51	225.35
758.84	224.99
759.17	224.83
759.49	224.56
759.82	224.48
760.15	224.28
760.47	224.06
760.80	223.92
761.13	223.84
761.45	223.75
761.78	223.62
762.11	223.42
762.43	223.18
762.76	223.06
763.08	223.08
763.41	222.91
763.74	222.76
764.06	222.62
764.39	222.48
764.71	222.34
765.04	222.17
765.37	222.00
765.69	221.94
766.02	221.78
766.34	221.67
766.67	221.49
767.00	221.42
767.32	221.45
767.65	221.42
767.97	221.24
768.30	221.11
768.62	220.93
768.95	220.77
769.27	220.66
769.60	220.57
769.92	220.36
770.25	220.15
770.57	220.03
770.90	219.91
771.22	219.77
771.55	219.71
771.87	219.60
772.20	219.45
772.52	219.52
772.85	219.67
773.17	219.60
773.50	219.45
773.82	219.32
774.15	219.17
774.47	218.88
774.80	218.77
775.12	218.58
775.45	218.51
775.77	218.52
776.09	218.45
776.42	218.37
776.74	218.34
777.07	218.26
777.39	218.13
777.72	218.08
778.04	218.01
778.36	217.84
778.69	217.77
779.01	217.71
779.33	217.47
779.66	217.19
779.98	217.13
780.31	217.13
780.63	217.09
780.95	217.03
781.28	217.00
781.60	217.02
781.92	217.06
782.25	217.04
782.57	216.91
782.89	216.84
783.22	216.76
783.54	216.59
783.86	216.58
784.19	216.57
784.51	216.53
784.83	216.41
785.16	216.42
785.48	216.37
785.80	216.31
786.12	216.25
786.45	216.16
786.77	216.10
787.09	215.98
787.42	215.92
787.74	215.86
788.06	215.76
788.38	215.69
788.71	215.62
789.03	215.60
789.35	215.58
789.67	215.54
789.99	215.49
790.32	215.49
790.64	215.51
790.96	215.59
791.28	215.48
791.61	215.51
791.93	215.40
792.25	215.34
792.57	215.51
792.89	215.41
793.21	215.44
793.54	215.39
793.86	215.33
794.18	215.28
794.50	215.24
794.82	215.30
795.14	215.29
795.47	215.31
795.79	215.21
796.11	215.19
796.43	215.12
796.75	215.13
797.07	215.16
797.39	215.08
797.71	214.96
798.04	214.91
798.36	214.87
798.68	214.91
799.00	214.92
799.32	214.74
799.64	214.80
799.96	214.76
800.28	214.76
800.60	214.75
800.92	214.74
801.24	214.72
801.56	214.60
801.89	214.51
802.21	214.40
802.53	214.36
802.85	214.32
803.17	214.35
803.49	214.23
803.81	214.17
804.13	214.16
804.45	214.06
804.77	214.05
805.09	214.04
805.41	213.94
805.73	213.87
806.05	213.83
806.37	213.77
806.69	213.72
807.01	213.67
807.33	213.63
807.65	213.48
807.97	213.46
808.28	213.45
808.60	213.40
808.92	213.37
809.24	213.42
809.56	213.37
809.88	213.36
810.20	213.38
810.52	213.39
810.84	213.37
811.16	213.37
811.48	213.39
811.80	213.38
812.12	213.40
812.43	213.42
812.75	213.45
813.07	213.43
813.39	213.42
813.71	213.33
814.03	213.34
814.35	213.43
814.67	213.29
814.98	213.31
815.30	213.26
815.62	213.26
815.94	213.16
816.26	213.15
816.58	213.06
816.89	212.98
817.21	212.85
817.53	212.80
817.85	212.75
818.17	212.73
818.48	212.70
818.80	212.70
819.12	212.65
819.44	212.52
819.76	212.51
820.07	212.47
820.39	212.49
820.71	212.49
821.03	212.45
821.34	212.46
821.66	212.45
821.98	212.49
822.30	212.43
822.61	212.50
822.93	212.47
823.25	212.53
823.57	212.53
823.88	212.57
824.20	212.62
824.52	212.68
824.83	212.58
825.15	212.54
825.47	212.50
825.79	212.45
826.10	212.46
826.42	212.36
826.74	212.32
827.05	212.27
827.37	212.20
827.69	212.14
828.00	212.15
828.32	212.09
828.64	212.13
828.95	212.25
829.27	212.19
829.58	212.19
829.90	212.08
830.22	212.05
830.53	212.06
830.85	211.97
831.17	211.84
831.48	211.95
831.80	211.91
832.11	211.93
832.43	211.94
832.75	211.93
833.06	211.98
833.38	211.99
833.69	211.98
834.01	212.01
834.32	212.00
834.64	211.98
834.96	211.98
835.27	211.92
835.59	211.91
835.90	211.94
836.22	211.93
836.53	211.95
836.85	212.00
837.16	212.21
837.48	212.22
837.79	212.31
838.11	212.15
838.42	212.22
838.74	212.19
839.05	212.19
839.37	212.19
839.68	212.16
840.00	212.16
840.31	212.22
840.63	212.19
840.94	212.22
841.26	212.22
841.57	212.22
841.88	212.22
842.20	212.13
842.51	212.03
842.83	212.01
843.14	212.16
843.46	212.17
843.77	212.02
844.08	211.94
844.40	211.90
844.71	211.95
845.03	211.91
845.34	211.93
845.65	211.86
845.97	211.90
846.28	211.89
846.60	211.85
846.91	211.85
847.22	211.94
847.54	211.96
847.85	211.96
848.16	212.02
848.48	212.02
848.79	212.12
849.10	212.16
849.42	212.20
849.73	212.08
850.04	212.03
850.36	211.98
850.67	212.08
850.98	212.10
851.30	212.16
851.61	212.15
851.92	212.15
852.23	212.26
852.55	212.22
852.86	212.30
853.17	212.40
853.49	212.45
853.80	212.40
854.11	212.47
854.42	212.51
854.74	212.48
855.05	212.46
855.36	212.37
855.67	212.36
855.99	212.36
856.30	212.54
856.61	212.54
856.92	212.56
857.23	212.53
857.55	212.51
857.86	212.44
858.17	212.49
858.48	212.50
858.79	212.46
859.11	212.53
859.42	212.41
859.73	212.32
860.04	212.27
860.35	212.25
860.66	212.20
860.98	212.16
861.29	212.15
861.60	212.16
861.91	212.19
862.22	212.27
862.53	212.29
862.84	212.03
863.16	212.07
863.47	211.98
863.78	211.93
864.09	211.95
864.40	211.94
864.71	211.90
865.02	211.90
865.33	211.85
865.64	211.80
865.95	211.81
866.27	211.92
866.58	211.92
866.89	211.93
867.20	211.81
867.51	211.80
867.82	211.79
868.13	211.87
868.44	211.81
868.75	211.80
869.06	211.78
869.37	211.81
869.68	211.78
869.99	211.82
870.30	211.86
870.61	211.94
870.92	211.96
871.23	211.98
871.54	211.97
871.85	211.95
872.16	211.90
872.47	211.91
872.78	211.81
873.09	211.81
873.40	211.74
873.71	211.81
874.02	211.79
874.33	211.68
874.64	211.52
874.95	211.55
875.26	211.43
875.56	211.37
875.87	211.39
876.18	211.35
876.49	211.45
876.80	211.46
877.11	211.35
877.42	211.37
877.73	211.33
878.04	211.29
878.35	211.34
878.66	211.33
878.96	211.29
879.27	211.24
879.58	211.18
879.89	211.20
880.20	211.20
880.51	211.17
880.82	211.20
881.12	211.23
881.43	211.14
881.74	211.13
882.05	211.12
882.36	211.09
882.67	211.12
882.97	210.98
883.28	210.95
883.59	210.90
883.90	210.91
884.21	210.90
884.51	210.91
884.82	210.92
885.13	210.96
885.44	210.99
885.74	211.03
886.05	211.08
886.36	211.07
886.67	210.99
886.98	211.08
887.28	211.14
887.59	211.16
887.90	211.23
888.20	211.26
888.51	211.27
888.82	211.18
889.13	211.20
889.43	211.35
889.74	211.34
890.05	211.33
890.35	211.37
890.66	211.38
890.97	211.39
891.28	211.39
891.58	211.37
891.89	211.31
892.20	211.30
892.50	211.25
892.81	211.26
893.12	211.32
893.42	211.27
893.73	211.30
894.04	211.36
894.34	211.31
894.65	211.32
894.95	211.35
895.26	211.45
895.57	211.52
895.87	211.35
896.18	211.41
896.48	211.52
896.79	211.48
897.10	211.44
897.40	211.41
897.71	211.34
898.01	211.28
898.32	211.33
898.63	211.34
898.93	211.38
899.24	211.37
899.54	211.36
899.85	211.28
900.15	211.20
900.46	211.16
900.76	211.19
901.07	211.19
901.38	211.18
901.68	211.19
901.99	211.12
902.29	211.13
902.60	211.09
902.90	211.02
903.21	210.91
903.51	210.93
903.82	210.93
904.12	210.93
904.43	211.00
904.73	211.03
905.03	210.95
905.34	211.13
905.64	211.09
905.95	211.04
906.25	211.11
906.56	211.13
906.86	211.14
907.17	211.18
907.47	211.19
907.77	211.20
908.08	211.15
908.38	211.15
908.69	211.16
908.99	211.17
909.30	211.15
909.60	211.21
909.90	211.24
910.21	211.25
910.51	211.28
910.81	211.26
911.12	211.25
911.42	211.33
911.73	211.12
912.03	211.19
912.33	211.29
912.64	211.30
912.94	211.23
913.24	211.20
913.55	211.13
913.85	211.05
914.15	211.01
914.46	211.08
914.76	211.08
915.06	211.05
915.37	211.04
915.67	211.09
915.97	211.07
916.27	211.04
916.58	210.98
916.88	210.94
917.18	211.00
917.49	211.17
917.79	211.15
918.09	211.13
918.39	211.16
918.70	211.05
919.00	210.98
919.30	211.06
919.60	211.06
919.91	211.07
920.21	211.09
920.51	210.99
920.81	210.86
921.12	210.89
921.42	210.85
921.72	210.83
922.02	210.78
922.32	210.76
922.63	210.69
922.93	210.80
923.23	210.84
923.53	210.80
923.83	210.59
924.13	210.63
924.44	210.65
924.74	210.75
925.04	210.83
925.34	210.88
925.64	210.84
925.94	210.80
926.24	210.92
926.55	210.94
926.85	211.05
927.15	211.15
927.45	211.08
927.75	211.05
928.05	211.05
928.35	211.09
928.65	211.19
928.95	211.25
929.26	211.21
929.56	211.24
929.86	211.20
930.16	211.21
930.46	211.14
930.76	211.15
931.06	210.98
931.36	210.93
931.66	211.01
931.96	211.01
932.26	211.01
932.56	210.95
932.86	210.90
933.16	210.87
933.46	210.88
933.76	210.87
934.06	211.00
934.36	211.04
934.66	210.99
934.96	210.89
935.26	210.87
935.56	210.82
935.86	210.74
936.16	210.73
936.46	210.76
936.76	210.83
937.06	210.82
937.36	210.83
937.66	210.83
937.96	210.79
938.26	210.81
938.56	210.81
938.86	210.78
939.16	210.87
939.46	210.90
939.76	210.83
940.06	210.84
940.35	210.89
940.65	210.87
940.95	210.94
941.25	211.00
941.55	211.04
941.85	211.11
942.15	211.20
942.45	211.26
942.75	211.26
943.04	211.13
943.34	211.17
943.64	211.18
943.94	211.14
944.24	211.09
944.54	211.05
944.84	211.09
945.13	211.06
945.43	211.09
945.73	211.07
946.03	211.12
946.33	211.10
946.62	211.00
946.92	210.93
947.22	210.81
947.52	210.82
947.82	210.79
948.11	210.75
948.41	210.69
948.71	210.65
949.01	210.60
949.31	210.69
949.60	210.64
949.90	210.70
950.20	210.75
950.50	210.77
950.79	210.76
951.09	210.75
951.39	210.81
951.69	210.70
951.98	210.71
952.28	210.67
952.58	210.75
952.87	210.72
953.17	210.81
953.47	210.90
953.76	210.88
954.06	210.83
954.36	210.79
954.66	210.76
954.95	210.80
955.25	210.84
955.55	210.83
955.84	210.80
956.14	210.77
956.44	210.77
956.73	210.75
957.03	210.80
957.32	210.83
957.62	210.77
957.92	210.83
958.21	210.80
958.51	211.02
958.81	210.96
959.10	211.02
959.40	211.02
959.69	211.05
959.99	211.09
960.29	211.11
960.58	211.12
960.88	211.18
961.17	211.19
961.47	211.20
961.76	211.22
962.06	211.25
962.36	211.13
962.65	211.19
962.95	211.16
963.24	211.10
963.54	211.06
963.83	211.05
964.13	211.06
964.42	211.08
964.72	210.97
965.01	210.89
965.31	210.85
965.60	210.81
965.90	210.83
966.19	210.75
966.49	210.74
966.78	210.73
967.08	210.71
967.37	210.64
967.67	210.62
967.96	210.64
968.26	210.61
968.55	210.71
968.85	210.57
969.14	210.57
969.43	210.62
969.73	210.65
970.02	210.70
970.32	210.72
970.61	210.67
970.91	210.56
971.20	210.55
971.49	210.56
971.79	210.58
972.08	210.49
972.38	210.52
972.67	210.57
972.96	210.58
973.26	210.61
973.55	210.75
973.85	210.74
974.14	210.69
974.43	210.72
974.73	210.61
975.02	210.62
975.31	210.64
975.61	210.52
975.90	210.43
976.19	210.37
976.49	210.30
976.78	210.36
977.07	210.38
977.37	210.43
977.66	210.44
977.95	210.40
978.24	210.39
978.54	210.44
978.83	210.37
979.12	210.38
979.42	210.43
979.71	210.29
980.00	210.37
980.29	210.51
980.59	210.56
980.88	210.70
981.17	210.75
981.46	210.72
981.76	210.81
982.05	210.95
982.34	211.02
982.63	211.04
982.93	211.05
983.22	211.12
983.51	211.12
983.80	211.18
984.09	211.30
984.39	211.35
984.68	211.32
984.97	211.37
985.26	211.39
985.55	211.33
985.85	211.35
986.14	211.34
986.43	211.31
986.72	211.25
987.01	211.27
987.30	211.25
987.59	211.28
987.89	211.29
988.18	211.23
988.47	211.19
988.76	211.25
989.05	211.19
989.34	211.13
989.63	211.21
989.92	211.07
990.22	210.94
990.51	210.95
990.80	210.93
991.09	210.99
991.38	210.95
991.67	210.90
991.96	210.94
992.25	210.83
992.54	210.76
992.83	210.74
993.12	210.64
993.41	210.68
993.70	210.76
993.99	210.82
994.28	210.87
994.58	210.85
994.87	210.87
995.16	210.97
995.45	210.97
995.74	210.90
996.03	210.99
996.32	211.05
996.61	211.07
996.90	211.07
997.19	210.99
997.48	211.01
997.77	211.03
998.06	210.97
998.34	211.00
998.63	211.01
998.92	211.04
999.21	211.07
999.50	211.13
999.79	211.05
1000.08	211.08
1000.37	211.07
1000.66	211.09
1000.95	211.08
1001.24	211.06
1001.53	211.05
1001.82	211.10
1002.11	211.07
1002.40	211.11
1002.68	211.15
1002.97	211.28
1003.26	211.36
1003.55	211.35
1003.84	211.33
1004.13	211.38
1004.42	211.41
1004.71	211.41
1004.99	211.40
1005.28	211.45
1005.57	211.39
1005.86	211.43
1006.15	211.32
1006.44	211.25
1006.72	211.20
1007.01	211.15
1007.30	211.10
1007.59	211.11
1007.88	211.05
1008.17	211.02
1008.45	210.97
1008.74	210.89
1009.03	210.77
1009.32	210.70
1009.60	210.76
1009.89	210.81
1010.18	210.78
1010.47	210.74
1010.76	210.71
1011.04	210.72
1011.33	210.71
1011.62	210.73
1011.91	210.61
1012.19	210.66
1012.48	210.71
1012.77	210.75
1013.05	210.83
1013.34	210.81
1013.63	210.81
1013.92	210.82
1014.20	210.85
1014.49	210.88
1014.78	210.84
1015.06	210.77
1015.35	210.81
1015.64	210.74
1015.92	210.75
1016.21	210.74
1016.50	210.73
1016.78	210.79
1017.07	210.84
1017.36	210.86
1017.64	210.84
1017.93	210.90
1018.22	210.89
1018.50	210.87
1018.79	210.83
1019.08	210.75
1019.36	210.80
1019.65	210.71
1019.93	210.76
1020.22	210.71
1020.51	210.76
1020.79	210.75
1021.08	210.75
1021.36	210.75
1021.65	210.15
1021.94	210.75
1022.22	211.55
1022.51	209.25
1022.79	211.00
1023.08	210.20
1023.36	212.50
1023.65	209.60
>>>>>End Processed Spectral Data<<<<<
