SpectraSuite Data File
++++++++++++++++++++++++++++++++++++
Date: Mon Feb 25 17:33:22 EST 2013
User: group
Dark Spectrum Present: No
Reference Spectrum Present: No
Number of Sampled Component Spectra: 1
Spectrometers: USB2E7196
Integration Time (usec): 52000 (USB2E7196)
Spectra Averaged: 20 (USB2E7196)
Boxcar Smoothing: 10 (USB2E7196)
Correct for Electrical Dark: No (USB2E7196)
Strobe/Lamp Enabled: No (USB2E7196)
Correct for Detector Non-linearity: No (USB2E7196)
Correct for Stray Light: No (USB2E7196)
Number of Pixels in Processed Spectrum: 2048
>>>>>Begin Processed Spectral Data<<<<<
339.09	0.00
339.48	198.45
339.86	200.75
340.24	202.30
340.63	202.65
341.01	208.10
341.39	207.25
341.78	208.45
342.16	207.40
342.54	209.10
342.93	198.18
343.31	208.21
343.69	208.72
344.07	209.15
344.46	209.55
344.84	209.94
345.22	210.07
345.60	210.23
345.99	210.37
346.37	210.58
346.75	210.64
347.13	210.72
347.52	210.80
347.90	210.86
348.28	210.84
348.66	210.93
349.05	210.89
349.43	210.90
349.81	211.02
350.19	211.06
350.57	211.06
350.96	211.14
351.34	211.17
351.72	211.35
352.10	211.44
352.48	211.48
352.87	211.65
353.25	211.73
353.63	211.75
354.01	211.80
354.39	211.83
354.77	211.93
355.15	212.10
355.54	212.15
355.92	212.17
356.30	212.29
356.68	212.43
357.06	212.55
357.44	212.63
357.82	212.66
358.20	212.77
358.58	212.86
358.97	212.98
359.35	213.14
359.73	213.22
360.11	213.36
360.49	213.49
360.87	213.48
361.25	213.56
361.63	213.73
362.01	213.83
362.39	213.92
362.77	214.00
363.15	213.99
363.53	214.00
363.91	214.12
364.29	214.20
364.67	214.15
365.05	214.23
365.43	214.25
365.81	214.34
366.19	214.45
366.57	214.60
366.95	214.58
367.33	214.55
367.71	214.55
368.09	214.54
368.47	214.47
368.85	214.41
369.23	214.42
369.61	214.40
369.99	214.43
370.37	214.43
370.75	214.49
371.13	214.44
371.51	214.46
371.89	214.43
372.27	214.46
372.65	214.46
373.03	214.52
373.41	214.49
373.78	214.50
374.16	214.37
374.54	214.30
374.92	214.21
375.30	214.16
375.68	214.14
376.06	214.06
376.44	214.11
376.82	214.07
377.19	214.04
377.57	213.93
377.95	213.81
378.33	213.71
378.71	213.54
379.09	213.57
379.47	213.49
379.84	213.36
380.22	213.21
380.60	213.14
380.98	212.96
381.36	212.91
381.73	212.78
382.11	212.78
382.49	212.71
382.87	212.69
383.25	212.73
383.62	212.82
384.00	212.75
384.38	212.61
384.76	212.61
385.13	212.61
385.51	212.53
385.89	212.46
386.27	212.43
386.64	212.45
387.02	212.24
387.40	212.22
387.78	212.19
388.15	212.14
388.53	212.04
388.91	212.04
389.29	211.96
389.66	211.87
390.04	211.86
390.42	211.88
390.79	211.85
391.17	211.78
391.55	211.63
391.92	211.57
392.30	211.70
392.68	211.64
393.05	211.56
393.43	211.62
393.81	211.60
394.18	211.60
394.56	211.60
394.94	211.67
395.31	211.65
395.69	211.80
396.06	211.78
396.44	211.77
396.82	211.78
397.19	211.88
397.57	211.97
397.95	211.93
398.32	211.82
398.70	211.83
399.07	211.89
399.45	211.88
399.82	211.93
400.20	211.89
400.58	211.98
400.95	211.96
401.33	212.00
401.70	212.14
402.08	212.19
402.45	212.24
402.83	212.40
403.20	212.49
403.58	212.51
403.95	212.72
404.33	212.93
404.71	213.01
405.08	213.23
405.46	213.34
405.83	213.46
406.21	213.61
406.58	213.80
406.96	213.91
407.33	214.05
407.70	214.28
408.08	214.63
408.45	214.85
408.83	215.15
409.20	215.45
409.58	215.66
409.95	215.97
410.33	216.30
410.70	216.56
411.08	216.87
411.45	217.17
411.82	217.46
412.20	217.87
412.57	218.47
412.95	218.80
413.32	219.25
413.69	219.77
414.07	220.28
414.44	220.90
414.82	221.57
415.19	222.32
415.56	223.13
415.94	223.84
416.31	224.79
416.68	225.68
417.06	226.67
417.43	227.76
417.81	228.84
418.18	229.91
418.55	231.12
418.93	232.41
419.30	233.72
419.67	235.14
420.04	236.53
420.42	237.96
420.79	239.75
421.16	241.49
421.54	243.28
421.91	245.20
422.28	247.00
422.66	249.05
423.03	251.09
423.40	253.03
423.77	255.25
424.15	257.50
424.52	259.80
424.89	262.32
425.26	264.65
425.64	266.99
426.01	269.53
426.38	272.21
426.75	274.90
427.13	277.80
427.50	280.77
427.87	283.85
428.24	286.89
428.61	289.74
428.99	293.06
429.36	296.65
429.73	300.13
430.10	303.70
430.47	307.23
430.85	310.90
431.22	314.89
431.59	319.09
431.96	322.95
432.33	327.26
432.70	331.41
433.08	336.34
433.45	341.08
433.82	345.71
434.19	350.85
434.56	355.92
434.93	360.61
435.30	365.36
435.68	370.58
436.05	375.80
436.42	381.07
436.79	385.76
437.16	390.76
437.53	396.12
437.90	401.40
438.27	406.56
438.64	411.97
439.01	417.01
439.38	421.30
439.75	425.55
440.13	430.36
440.50	434.94
440.87	438.76
441.24	442.50
441.61	446.70
441.98	449.74
442.35	453.32
442.72	457.00
443.09	460.42
443.46	462.53
443.83	463.92
444.20	464.94
444.57	466.65
444.94	467.46
445.31	468.24
445.68	469.00
446.05	469.27
446.42	468.51
446.79	467.54
447.16	466.77
447.53	466.08
447.90	463.97
448.27	461.93
448.64	458.95
449.01	456.81
449.37	453.20
449.74	449.74
450.11	445.58
450.48	441.10
450.85	436.56
451.22	432.55
451.59	428.75
451.96	425.24
452.33	420.49
452.70	416.08
453.07	410.84
453.43	405.52
453.80	400.49
454.17	395.72
454.54	391.25
454.91	386.29
455.28	381.51
455.65	377.18
456.02	372.77
456.38	369.07
456.75	364.46
457.12	360.61
457.49	356.67
457.86	352.90
458.23	349.64
458.59	346.10
458.96	342.58
459.33	339.47
459.70	336.25
460.07	333.77
460.43	330.98
460.80	328.33
461.17	326.00
461.54	323.47
461.91	321.10
462.27	318.64
462.64	316.64
463.01	314.48
463.38	312.32
463.74	310.12
464.11	308.17
464.48	306.64
464.85	304.85
465.21	303.56
465.58	302.11
465.95	300.38
466.32	299.03
466.68	297.64
467.05	296.21
467.42	294.87
467.78	293.41
468.15	292.07
468.52	291.10
468.88	289.74
469.25	288.63
469.62	287.75
469.98	286.85
470.35	285.92
470.72	285.09
471.08	284.16
471.45	283.39
471.82	282.65
472.18	281.72
472.55	281.17
472.92	280.49
473.28	279.88
473.65	279.45
474.02	278.87
474.38	278.45
474.75	278.09
475.11	277.69
475.48	277.42
475.85	277.16
476.21	276.95
476.58	276.89
476.94	276.84
477.31	276.80
477.67	276.78
478.04	276.82
478.41	276.98
478.77	277.32
479.14	277.47
479.50	277.63
479.87	277.96
480.23	278.24
480.60	278.59
480.96	279.09
481.33	279.65
481.69	280.31
482.06	280.95
482.42	281.56
482.79	282.22
483.15	283.05
483.52	284.01
483.88	284.95
484.25	285.90
484.61	286.97
484.98	288.08
485.34	289.35
485.71	290.67
486.07	292.05
486.44	293.37
486.80	294.89
487.17	296.55
487.53	298.33
487.90	300.28
488.26	302.23
488.62	304.25
488.99	306.21
489.35	308.31
489.72	310.64
490.08	313.16
490.44	315.64
490.81	318.26
491.17	320.88
491.54	323.81
491.90	326.78
492.26	329.96
492.63	333.30
492.99	336.76
493.36	340.41
493.72	344.34
494.08	348.29
494.45	352.65
494.81	357.24
495.17	361.78
495.54	366.74
495.90	371.81
496.26	377.09
496.63	382.57
496.99	388.31
497.35	394.22
497.72	400.42
498.08	406.99
498.44	413.67
498.80	420.87
499.17	428.21
499.53	435.88
499.89	443.82
500.26	451.93
500.62	460.23
500.98	469.08
501.34	478.26
501.71	487.80
502.07	497.28
502.43	507.20
502.79	517.54
503.16	528.11
503.52	538.99
503.88	550.07
504.24	561.70
504.60	573.65
504.97	586.07
505.33	598.64
505.69	611.85
506.05	625.35
506.41	639.00
506.78	652.67
507.14	666.97
507.50	681.44
507.86	696.42
508.22	711.92
508.59	727.50
508.95	743.30
509.31	759.38
509.67	776.22
510.03	793.02
510.39	810.57
510.75	828.28
511.12	846.39
511.48	864.91
511.84	883.45
512.20	902.00
512.56	921.04
512.92	940.71
513.28	960.37
513.64	980.20
514.00	1000.02
514.37	1020.46
514.73	1041.17
515.09	1062.23
515.45	1083.30
515.81	1104.43
516.17	1125.72
516.53	1147.16
516.89	1169.08
517.25	1190.78
517.61	1212.48
517.97	1233.65
518.33	1255.08
518.69	1276.73
519.05	1298.69
519.41	1320.90
519.77	1343.58
520.13	1366.00
520.49	1388.03
520.85	1410.64
521.21	1433.08
521.57	1456.02
521.93	1478.06
522.29	1500.94
522.65	1523.37
523.01	1545.82
523.37	1568.12
523.73	1590.51
524.09	1612.82
524.45	1634.80
524.81	1657.05
525.17	1679.67
525.53	1702.51
525.89	1725.13
526.25	1747.10
526.61	1768.53
526.97	1790.41
527.33	1811.66
527.68	1833.00
528.04	1854.22
528.40	1874.35
528.76	1895.13
529.12	1915.98
529.48	1937.88
529.84	1958.11
530.20	1978.19
530.56	1998.56
530.91	2019.23
531.27	2039.68
531.63	2059.64
531.99	2079.70
532.35	2098.99
532.71	2118.13
533.07	2137.52
533.42	2156.16
533.78	2175.28
534.14	2193.89
534.50	2210.89
534.86	2228.84
535.21	2245.88
535.57	2263.89
535.93	2281.39
536.29	2298.45
536.65	2315.01
537.00	2330.38
537.36	2345.89
537.72	2361.52
538.08	2376.77
538.44	2391.80
538.79	2407.32
539.15	2422.12
539.51	2437.22
539.87	2452.56
540.22	2467.03
540.58	2482.06
540.94	2496.38
541.29	2509.24
541.65	2521.42
542.01	2535.03
542.37	2547.00
542.72	2559.30
543.08	2569.86
543.44	2581.77
543.79	2591.75
544.15	2602.01
544.51	2613.11
544.87	2624.15
545.22	2633.37
545.58	2642.04
545.94	2649.75
546.29	2655.88
546.65	2662.49
547.01	2668.30
547.36	2673.83
547.72	2679.20
548.07	2683.10
548.43	2686.98
548.79	2690.95
549.14	2695.42
549.50	2699.58
549.86	2703.75
550.21	2707.88
550.57	2712.30
550.92	2715.10
551.28	2718.02
551.64	2720.72
551.99	2723.13
552.35	2724.92
552.70	2727.82
553.06	2730.58
553.41	2733.56
553.77	2736.60
554.13	2738.57
554.48	2740.65
554.84	2741.97
555.19	2742.50
555.55	2743.16
555.90	2743.93
556.26	2744.55
556.61	2744.71
556.97	2743.51
557.32	2743.08
557.68	2741.24
558.03	2739.76
558.39	2738.22
558.74	2738.03
559.10	2737.09
559.45	2735.41
559.81	2733.96
560.16	2731.40
560.52	2728.94
560.87	2725.76
561.23	2721.72
561.58	2719.59
561.94	2716.47
562.29	2712.82
562.64	2710.74
563.00	2708.40
563.35	2706.22
563.71	2704.56
564.06	2702.39
564.42	2700.60
564.77	2698.18
565.12	2696.37
565.48	2693.11
565.83	2690.00
566.19	2686.66
566.54	2682.43
566.89	2678.60
567.25	2674.75
567.60	2671.73
567.96	2668.26
568.31	2664.92
568.66	2661.55
569.02	2656.94
569.37	2651.80
569.72	2647.96
570.08	2642.68
570.43	2636.71
570.78	2630.75
571.14	2624.29
571.49	2617.60
571.84	2611.68
572.20	2604.60
572.55	2598.08
572.90	2591.42
573.26	2584.44
573.61	2577.27
573.96	2570.33
574.31	2562.21
574.67	2554.14
575.02	2545.16
575.37	2536.27
575.72	2527.01
576.08	2519.50
576.43	2510.80
576.78	2503.01
577.13	2495.07
577.49	2486.89
577.84	2479.29
578.19	2471.80
578.54	2464.51
578.90	2458.03
579.25	2449.43
579.60	2440.57
579.95	2431.38
580.30	2423.36
580.66	2415.35
581.01	2406.07
581.36	2397.10
581.71	2388.84
582.06	2380.41
582.42	2372.45
582.77	2363.50
583.12	2355.00
583.47	2346.28
583.82	2338.08
584.17	2328.78
584.53	2319.68
584.88	2310.97
585.23	2301.45
585.58	2291.65
585.93	2281.64
586.28	2272.19
586.63	2263.23
586.98	2255.05
587.34	2246.50
587.69	2237.26
588.04	2228.23
588.39	2220.18
588.74	2210.94
589.09	2202.21
589.44	2192.40
589.79	2183.90
590.14	2175.89
590.49	2167.17
590.84	2157.85
591.19	2149.64
591.54	2141.01
591.89	2130.75
592.25	2121.57
592.60	2112.34
592.95	2102.94
593.30	2093.54
593.65	2083.67
594.00	2073.98
594.35	2065.58
594.70	2056.32
595.05	2047.69
595.40	2038.76
595.75	2029.14
596.10	2020.87
596.45	2012.29
596.80	2004.75
597.15	1996.16
597.50	1987.00
597.85	1978.76
598.19	1970.31
598.54	1961.40
598.89	1953.45
599.24	1946.64
599.59	1939.07
599.94	1932.02
600.29	1924.18
600.64	1916.40
600.99	1908.13
601.34	1900.94
601.69	1892.05
602.04	1883.88
602.39	1875.82
602.74	1868.00
603.08	1861.15
603.43	1854.00
603.78	1846.10
604.13	1838.10
604.48	1830.05
604.83	1823.16
605.18	1815.81
605.53	1808.07
605.87	1800.72
606.22	1793.38
606.57	1785.66
606.92	1777.58
607.27	1769.17
607.62	1761.95
607.96	1755.03
608.31	1748.94
608.66	1740.83
609.01	1733.37
609.36	1725.56
609.70	1717.32
610.05	1709.49
610.40	1701.24
610.75	1692.79
611.10	1685.12
611.44	1675.75
611.79	1666.30
612.14	1656.72
612.49	1647.08
612.83	1638.17
613.18	1628.29
613.53	1618.96
613.88	1609.21
614.22	1600.09
614.57	1590.97
614.92	1581.35
615.27	1571.73
615.61	1561.51
615.96	1552.55
616.31	1544.12
616.65	1536.67
617.00	1528.40
617.35	1519.69
617.70	1510.83
618.04	1501.57
618.39	1491.92
618.74	1483.83
619.08	1475.60
619.43	1467.49
619.78	1460.00
620.12	1452.03
620.47	1444.26
620.82	1435.49
621.16	1427.09
621.51	1418.89
621.85	1410.76
622.20	1402.65
622.55	1394.49
622.89	1386.43
623.24	1378.46
623.59	1369.69
623.93	1360.79
624.28	1352.70
624.62	1344.60
624.97	1336.32
625.32	1328.62
625.66	1321.47
626.01	1314.18
626.35	1307.00
626.70	1299.13
627.04	1291.42
627.39	1283.70
627.73	1276.00
628.08	1269.23
628.43	1261.97
628.77	1254.60
629.12	1246.90
629.46	1240.20
629.81	1232.95
630.15	1225.59
630.50	1218.16
630.84	1210.83
631.19	1203.58
631.53	1196.42
631.88	1188.67
632.22	1181.16
632.57	1174.21
632.91	1166.54
633.26	1158.71
633.60	1151.39
633.95	1144.89
634.29	1137.43
634.64	1130.75
634.98	1123.83
635.32	1116.81
635.67	1110.21
636.01	1103.46
636.36	1096.91
636.70	1090.26
637.05	1083.60
637.39	1077.34
637.73	1071.15
638.08	1065.38
638.42	1059.49
638.77	1052.86
639.11	1046.89
639.45	1040.73
639.80	1034.14
640.14	1027.81
640.49	1021.82
640.83	1015.65
641.17	1009.14
641.52	1003.12
641.86	996.65
642.20	990.36
642.55	983.42
642.89	976.86
643.23	970.44
643.58	964.51
643.92	957.99
644.26	951.74
644.61	945.59
644.95	939.59
645.29	933.14
645.64	926.39
645.98	920.42
646.32	914.30
646.66	908.28
647.01	902.27
647.35	896.37
647.69	890.02
648.04	884.04
648.38	877.99
648.72	872.07
649.06	866.01
649.41	860.01
649.75	854.59
650.09	849.02
650.43	843.12
650.78	836.87
651.12	830.67
651.46	824.82
651.80	818.90
652.14	812.87
652.49	806.85
652.83	801.17
653.17	795.15
653.51	789.20
653.85	783.46
654.20	777.63
654.54	771.74
654.88	766.32
655.22	760.34
655.56	754.52
655.90	748.71
656.25	743.08
656.59	737.48
656.93	732.01
657.27	726.71
657.61	721.22
657.95	716.14
658.29	710.94
658.64	705.89
658.98	700.75
659.32	695.37
659.66	690.17
660.00	684.87
660.34	679.49
660.68	674.36
661.02	669.23
661.36	664.41
661.70	659.67
662.05	654.92
662.39	650.65
662.73	646.38
663.07	641.90
663.41	637.42
663.75	632.97
664.09	628.41
664.43	623.74
664.77	619.46
665.11	614.98
665.45	610.73
665.79	606.21
666.13	601.66
666.47	597.38
666.81	593.25
667.15	589.18
667.49	585.51
667.83	581.63
668.17	577.81
668.51	574.04
668.85	570.30
669.19	566.54
669.53	562.50
669.87	558.30
670.21	554.46
670.55	550.54
670.89	547.03
671.23	543.65
671.57	540.24
671.91	536.60
672.25	533.05
672.58	529.57
672.92	526.08
673.26	522.98
673.60	519.74
673.94	516.45
674.28	513.17
674.62	509.96
674.96	506.74
675.30	503.76
675.64	500.54
675.97	497.23
676.31	494.15
676.65	491.23
676.99	488.61
677.33	485.64
677.67	482.85
678.01	479.77
678.34	476.71
678.68	473.68
679.02	470.77
679.36	467.96
679.70	465.17
680.04	462.22
680.37	459.03
680.71	456.24
681.05	453.69
681.39	451.04
681.73	448.26
682.06	445.76
682.40	443.07
682.74	440.62
683.08	438.23
683.42	435.62
683.75	433.15
684.09	430.43
684.43	427.98
684.77	425.37
685.10	422.91
685.44	420.32
685.78	417.90
686.12	415.66
686.45	413.28
686.79	410.97
687.13	408.99
687.46	406.95
687.80	404.74
688.14	402.32
688.48	400.09
688.81	397.81
689.15	395.51
689.49	393.36
689.82	390.99
690.16	388.61
690.50	386.33
690.83	384.03
691.17	381.81
691.51	379.71
691.84	377.52
692.18	375.44
692.52	373.57
692.85	371.67
693.19	369.64
693.52	367.72
693.86	365.73
694.20	363.74
694.53	361.75
694.87	359.71
695.21	357.86
695.54	355.83
695.88	353.99
696.21	352.24
696.55	350.35
696.88	348.58
697.22	346.90
697.56	345.34
697.89	343.70
698.23	342.07
698.56	340.32
698.90	338.91
699.23	337.31
699.57	335.62
699.90	333.81
700.24	332.25
700.58	330.58
700.91	329.03
701.25	327.62
701.58	326.31
701.92	324.92
702.25	323.53
702.59	322.20
702.92	320.79
703.26	319.38
703.59	318.10
703.93	316.96
704.26	315.66
704.60	314.34
704.93	313.04
705.26	311.83
705.60	310.65
705.93	309.37
706.27	308.15
706.60	307.09
706.94	306.13
707.27	304.82
707.61	303.80
707.94	302.70
708.27	301.45
708.61	300.29
708.94	299.06
709.28	297.90
709.61	296.79
709.94	295.85
710.28	294.79
710.61	293.70
710.95	292.61
711.28	291.72
711.61	290.68
711.95	289.74
712.28	288.67
712.61	287.68
712.95	286.78
713.28	285.84
713.61	284.82
713.95	283.84
714.28	283.04
714.61	282.04
714.95	281.08
715.28	280.23
715.61	279.27
715.95	278.49
716.28	277.63
716.61	276.87
716.95	276.00
717.28	275.24
717.61	274.49
717.94	273.64
718.28	272.74
718.61	272.01
718.94	271.19
719.27	270.56
719.61	269.81
719.94	269.11
720.27	268.51
720.60	267.84
720.94	267.17
721.27	266.41
721.60	265.91
721.93	265.35
722.27	264.75
722.60	264.14
722.93	263.56
723.26	263.03
723.59	262.35
723.93	261.69
724.26	261.11
724.59	260.50
724.92	259.93
725.25	259.48
725.59	258.90
725.92	258.39
726.25	257.93
726.58	257.47
726.91	256.89
727.24	256.32
727.57	255.79
727.91	255.22
728.24	254.86
728.57	254.28
728.90	253.83
729.23	253.25
729.56	252.87
729.89	252.41
730.22	251.86
730.55	251.49
730.89	251.03
731.22	250.49
731.55	250.06
731.88	249.62
732.21	249.10
732.54	248.72
732.87	248.27
733.20	247.73
733.53	247.28
733.86	246.91
734.19	246.47
734.52	246.04
734.85	245.84
735.18	245.38
735.51	245.10
735.84	244.67
736.17	244.36
736.50	243.88
736.83	243.73
737.16	243.37
737.49	242.96
737.82	242.62
738.15	242.30
738.48	241.87
738.81	241.50
739.14	241.11
739.47	240.70
739.80	240.38
740.13	240.15
740.46	239.77
740.79	239.39
741.12	239.04
741.45	238.68
741.78	238.25
742.11	238.02
742.44	237.60
742.77	237.28
743.10	236.96
743.43	236.65
743.75	236.15
744.08	236.12
744.41	235.78
744.74	235.48
745.07	235.11
745.40	234.87
745.73	234.67
746.06	234.38
746.39	234.08
746.71	233.78
747.04	233.44
747.37	233.17
747.70	232.94
748.03	232.72
748.36	232.48
748.68	232.22
749.01	231.88
749.34	231.61
749.67	231.34
750.00	231.08
750.33	230.93
750.65	230.72
750.98	230.22
751.31	230.04
751.64	229.77
751.97	229.69
752.29	229.47
752.62	229.14
752.95	228.90
753.28	228.69
753.60	228.47
753.93	228.29
754.26	228.14
754.59	227.89
754.91	227.63
755.24	227.45
755.57	227.20
755.90	226.97
756.22	226.77
756.55	226.55
756.88	226.38
757.20	226.05
757.53	225.79
757.86	225.57
758.19	225.38
758.51	225.20
758.84	224.90
759.17	224.78
759.49	224.62
759.82	224.57
760.15	224.40
760.47	224.30
760.80	224.07
761.13	223.91
761.45	223.75
761.78	223.65
762.11	223.55
762.43	223.45
762.76	223.29
763.08	223.11
763.41	223.03
763.74	222.94
764.06	222.81
764.39	222.65
764.71	222.54
765.04	222.39
765.37	222.28
765.69	222.15
766.02	221.95
766.34	221.83
766.67	221.67
767.00	221.57
767.32	221.46
767.65	221.40
767.97	221.30
768.30	221.19
768.62	221.02
768.95	220.84
769.27	220.64
769.60	220.64
769.92	220.64
770.25	220.51
770.57	220.33
770.90	220.26
771.22	220.11
771.55	220.07
771.87	219.97
772.20	219.82
772.52	219.90
772.85	220.04
773.17	219.93
773.50	219.78
773.82	219.67
774.15	219.53
774.47	219.33
774.80	219.21
775.12	219.11
775.45	219.05
775.77	218.99
776.09	218.92
776.42	218.80
776.74	218.69
777.07	218.62
777.39	218.60
777.72	218.49
778.04	218.46
778.36	218.31
778.69	218.22
779.01	218.20
779.33	217.93
779.66	217.63
779.98	217.60
780.31	217.54
780.63	217.51
780.95	217.44
781.28	217.36
781.60	217.23
781.92	217.15
782.25	217.14
782.57	217.12
782.89	217.09
783.22	216.96
783.54	216.79
783.86	216.67
784.19	216.55
784.51	216.54
784.83	216.43
785.16	216.43
785.48	216.39
785.80	216.37
786.12	216.34
786.45	216.27
786.77	216.25
787.09	216.15
787.42	216.08
787.74	216.08
788.06	216.11
788.38	216.05
788.71	216.04
789.03	216.00
789.35	215.91
789.67	215.77
789.99	215.82
790.32	215.80
790.64	215.83
790.96	215.91
791.28	215.84
791.61	215.77
791.93	215.71
792.25	215.63
792.57	215.72
792.89	215.67
793.21	215.64
793.54	215.56
793.86	215.50
794.18	215.42
794.50	215.26
794.82	215.16
795.14	215.23
795.47	215.14
795.79	215.04
796.11	214.97
796.43	214.98
796.75	214.89
797.07	214.85
797.39	214.75
797.71	214.57
798.04	214.54
798.36	214.54
798.68	214.48
799.00	214.45
799.32	214.24
799.64	214.28
799.96	214.20
800.28	214.16
800.60	214.14
800.92	214.11
801.24	214.20
801.56	214.18
801.89	214.13
802.21	214.13
802.53	214.09
802.85	214.04
803.17	214.12
803.49	214.05
803.81	214.03
804.13	214.00
804.45	213.94
804.77	213.94
805.09	213.88
805.41	213.84
805.73	213.78
806.05	213.73
806.37	213.61
806.69	213.57
807.01	213.53
807.33	213.59
807.65	213.50
807.97	213.40
808.28	213.41
808.60	213.34
808.92	213.25
809.24	213.28
809.56	213.23
809.88	213.14
810.20	213.10
810.52	213.10
810.84	213.08
811.16	213.10
811.48	213.03
811.80	213.12
812.12	213.17
812.43	213.22
812.75	213.21
813.07	213.24
813.39	213.22
813.71	213.17
814.03	213.07
814.35	213.09
814.67	213.11
814.98	212.99
815.30	212.96
815.62	212.88
815.94	212.77
816.26	212.81
816.58	212.79
816.89	212.80
817.21	212.77
817.53	212.71
817.85	212.70
818.17	212.74
818.48	212.60
818.80	212.59
819.12	212.55
819.44	212.54
819.76	212.47
820.07	212.44
820.39	212.40
820.71	212.31
821.03	212.32
821.34	212.28
821.66	212.28
821.98	212.34
822.30	212.39
822.61	212.48
822.93	212.46
823.25	212.40
823.57	212.32
823.88	212.41
824.20	212.44
824.52	212.41
824.83	212.37
825.15	212.42
825.47	212.35
825.79	212.26
826.10	212.25
826.42	212.27
826.74	212.44
827.05	212.44
827.37	212.57
827.69	212.54
828.00	212.54
828.32	212.58
828.64	212.49
828.95	212.55
829.27	212.48
829.58	212.38
829.90	212.41
830.22	212.45
830.53	212.33
830.85	212.30
831.17	212.24
831.48	212.21
831.80	212.24
832.11	212.18
832.43	212.19
832.75	212.12
833.06	212.20
833.38	212.01
833.69	212.04
834.01	211.94
834.32	211.85
834.64	211.79
834.96	211.80
835.27	211.83
835.59	211.77
835.90	211.78
836.22	211.89
836.53	211.85
836.85	211.78
837.16	211.97
837.48	211.93
837.79	212.05
838.11	212.05
838.42	211.90
838.74	211.94
839.05	211.93
839.37	211.99
839.68	211.85
840.00	211.87
840.31	211.90
840.63	211.95
840.94	211.97
841.26	211.94
841.57	211.95
841.88	211.92
842.20	211.87
842.51	211.88
842.83	211.87
843.14	211.98
843.46	212.08
843.77	211.98
844.08	212.04
844.40	211.98
844.71	211.88
845.03	211.91
845.34	211.89
845.65	211.88
845.97	211.84
846.28	211.84
846.60	211.81
846.91	211.79
847.22	211.72
847.54	211.73
847.85	211.76
848.16	211.74
848.48	211.71
848.79	211.81
849.10	211.84
849.42	211.83
849.73	211.66
850.04	211.62
850.36	211.49
850.67	211.52
850.98	211.49
851.30	211.51
851.61	211.58
851.92	211.62
852.23	211.66
852.55	211.73
852.86	211.78
853.17	211.81
853.49	211.81
853.80	211.87
854.11	211.85
854.42	211.86
854.74	211.84
855.05	211.79
855.36	211.70
855.67	211.65
855.99	211.62
856.30	211.80
856.61	211.85
856.92	211.85
857.23	211.82
857.55	211.81
857.86	211.82
858.17	211.82
858.48	211.75
858.79	211.76
859.11	211.72
859.42	211.75
859.73	211.78
860.04	211.76
860.35	211.77
860.66	211.71
860.98	211.70
861.29	211.69
861.60	211.72
861.91	211.80
862.22	211.76
862.53	211.72
862.84	211.53
863.16	211.47
863.47	211.48
863.78	211.44
864.09	211.43
864.40	211.45
864.71	211.41
865.02	211.42
865.33	211.37
865.64	211.35
865.95	211.29
866.27	211.34
866.58	211.28
866.89	211.26
867.20	211.32
867.51	211.30
867.82	211.36
868.13	211.35
868.44	211.28
868.75	211.35
869.06	211.33
869.37	211.42
869.68	211.37
869.99	211.41
870.30	211.48
870.61	211.51
870.92	211.48
871.23	211.45
871.54	211.51
871.85	211.52
872.16	211.58
872.47	211.60
872.78	211.53
873.09	211.56
873.40	211.50
873.71	211.52
874.02	211.52
874.33	211.46
874.64	211.49
874.95	211.53
875.26	211.45
875.56	211.47
875.87	211.49
876.18	211.52
876.49	211.70
876.80	211.66
877.11	211.62
877.42	211.67
877.73	211.75
878.04	211.64
878.35	211.68
878.66	211.66
878.96	211.64
879.27	211.62
879.58	211.64
879.89	211.65
880.20	211.67
880.51	211.61
880.82	211.68
881.12	211.63
881.43	211.60
881.74	211.57
882.05	211.58
882.36	211.54
882.67	211.50
882.97	211.30
883.28	211.31
883.59	211.31
883.90	211.32
884.21	211.30
884.51	211.34
884.82	211.35
885.13	211.37
885.44	211.37
885.74	211.42
886.05	211.43
886.36	211.36
886.67	211.36
886.98	211.51
887.28	211.46
887.59	211.53
887.90	211.53
888.20	211.57
888.51	211.68
888.82	211.65
889.13	211.70
889.43	211.89
889.74	211.85
890.05	211.80
890.35	211.74
890.66	211.69
890.97	211.70
891.28	211.66
891.58	211.63
891.89	211.64
892.20	211.53
892.50	211.46
892.81	211.56
893.12	211.49
893.42	211.45
893.73	211.42
894.04	211.43
894.34	211.40
894.65	211.38
894.95	211.25
895.26	211.23
895.57	211.33
895.87	211.08
896.18	211.10
896.48	211.10
896.79	211.14
897.10	211.19
897.40	211.16
897.71	211.15
898.01	211.11
898.32	211.13
898.63	211.23
898.93	211.27
899.24	211.29
899.54	211.31
899.85	211.25
900.15	211.24
900.46	211.20
900.76	211.29
901.07	211.32
901.38	211.29
901.68	211.30
901.99	211.15
902.29	211.20
902.60	211.21
902.90	211.14
903.21	211.16
903.51	211.15
903.82	211.20
904.12	211.16
904.43	211.24
904.73	211.19
905.03	211.18
905.34	211.35
905.64	211.34
905.95	211.37
906.25	211.41
906.56	211.40
906.86	211.45
907.17	211.41
907.47	211.39
907.77	211.44
908.08	211.37
908.38	211.42
908.69	211.39
908.99	211.40
909.30	211.50
909.60	211.47
909.90	211.51
910.21	211.50
910.51	211.49
910.81	211.46
911.12	211.46
911.42	211.39
911.73	211.23
912.03	211.17
912.33	211.20
912.64	211.15
912.94	211.15
913.24	211.06
913.55	210.98
913.85	210.97
914.15	210.88
914.46	210.97
914.76	210.91
915.06	210.90
915.37	210.85
915.67	210.86
915.97	210.84
916.27	210.78
916.58	210.80
916.88	210.84
917.18	210.75
917.49	210.89
917.79	210.93
918.09	210.95
918.39	211.03
918.70	210.97
919.00	210.96
919.30	211.08
919.60	211.10
919.91	211.10
920.21	211.15
920.51	211.22
920.81	211.18
921.12	211.23
921.42	211.31
921.72	211.32
922.02	211.35
922.32	211.39
922.63	211.40
922.93	211.46
923.23	211.45
923.53	211.53
923.83	211.41
924.13	211.45
924.44	211.43
924.74	211.41
925.04	211.48
925.34	211.50
925.64	211.37
925.94	211.34
926.24	211.40
926.55	211.39
926.85	211.37
927.15	211.38
927.45	211.46
927.75	211.38
928.05	211.40
928.35	211.37
928.65	211.38
928.95	211.43
929.26	211.39
929.56	211.43
929.86	211.40
930.16	211.41
930.46	211.37
930.76	211.42
931.06	211.35
931.36	211.27
931.66	211.28
931.96	211.33
932.26	211.32
932.56	211.39
932.86	211.31
933.16	211.31
933.46	211.36
933.76	211.30
934.06	211.37
934.36	211.47
934.66	211.44
934.96	211.44
935.26	211.43
935.56	211.46
935.86	211.34
936.16	211.32
936.46	211.30
936.76	211.29
937.06	211.20
937.36	211.32
937.66	211.42
937.96	211.50
938.26	211.45
938.56	211.54
938.86	211.48
939.16	211.58
939.46	211.62
939.76	211.56
940.06	211.51
940.35	211.47
940.65	211.31
940.95	211.31
941.25	211.22
941.55	211.15
941.85	211.07
942.15	211.20
942.45	211.26
942.75	211.27
943.04	211.20
943.34	211.23
943.64	211.15
943.94	211.02
944.24	210.94
944.54	210.98
944.84	210.95
945.13	210.90
945.43	210.79
945.73	210.74
946.03	210.79
946.33	210.78
946.62	210.80
946.92	210.79
947.22	210.83
947.52	210.86
947.82	210.93
948.11	210.91
948.41	210.82
948.71	210.75
949.01	210.77
949.31	210.86
949.60	210.83
949.90	210.85
950.20	210.92
950.50	210.92
950.79	210.88
951.09	210.90
951.39	210.88
951.69	210.95
951.98	210.99
952.28	210.93
952.58	210.86
952.87	210.82
953.17	210.84
953.47	210.80
953.76	210.81
954.06	210.70
954.36	210.77
954.66	210.80
954.95	210.83
955.25	210.85
955.55	210.76
955.84	210.73
956.14	210.66
956.44	210.69
956.73	210.64
957.03	210.64
957.32	210.59
957.62	210.57
957.92	210.56
958.21	210.50
958.51	210.68
958.81	210.78
959.10	210.84
959.40	210.90
959.69	210.90
959.99	210.91
960.29	210.90
960.58	210.82
960.88	210.84
961.17	210.83
961.47	210.80
961.76	210.86
962.06	210.95
962.36	210.97
962.65	210.90
962.95	210.90
963.24	210.93
963.54	210.97
963.83	211.01
964.13	211.03
964.42	211.02
964.72	210.95
965.01	210.94
965.31	210.85
965.60	210.82
965.90	210.97
966.19	210.95
966.49	211.00
966.78	211.00
967.08	211.04
967.37	211.02
967.67	210.99
967.96	211.03
968.26	210.93
968.55	210.99
968.85	211.02
969.14	211.07
969.43	211.03
969.73	210.97
970.02	210.99
970.32	210.92
970.61	210.95
970.91	210.92
971.20	210.90
971.49	210.93
971.79	210.91
972.08	210.72
972.38	210.75
972.67	210.72
972.96	210.78
973.26	210.64
973.55	210.69
973.85	210.74
974.14	210.69
974.43	210.76
974.73	210.71
975.02	210.67
975.31	210.68
975.61	210.75
975.90	210.75
976.19	210.73
976.49	210.76
976.78	210.78
977.07	210.72
977.37	210.74
977.66	210.75
977.95	210.72
978.24	210.80
978.54	210.84
978.83	210.81
979.12	210.72
979.42	210.76
979.71	210.76
980.00	210.68
980.29	210.74
980.59	210.68
980.88	210.65
981.17	210.58
981.46	210.53
981.76	210.45
982.05	210.57
982.34	210.55
982.63	210.52
982.93	210.50
983.22	210.52
983.51	210.47
983.80	210.54
984.09	210.58
984.39	210.58
984.68	210.52
984.97	210.56
985.26	210.61
985.55	210.60
985.85	210.53
986.14	210.60
986.43	210.60
986.72	210.61
987.01	210.67
987.30	210.76
987.59	210.71
987.89	210.75
988.18	210.67
988.47	210.66
988.76	210.76
989.05	210.76
989.34	210.76
989.63	210.79
989.92	210.65
990.22	210.59
990.51	210.53
990.80	210.54
991.09	210.56
991.38	210.62
991.67	210.70
991.96	210.74
992.25	210.70
992.54	210.63
992.83	210.57
993.12	210.59
993.41	210.61
993.70	210.71
993.99	210.69
994.28	210.72
994.58	210.72
994.87	210.64
995.16	210.60
995.45	210.60
995.74	210.61
996.03	210.70
996.32	210.76
996.61	210.87
996.90	210.87
997.19	210.87
997.48	210.81
997.77	210.78
998.06	210.80
998.34	210.75
998.63	210.75
998.92	210.82
999.21	210.80
999.50	210.78
999.79	210.82
1000.08	210.84
1000.37	210.79
1000.66	210.85
1000.95	210.89
1001.24	210.92
1001.53	210.98
1001.82	210.98
1002.11	210.97
1002.40	210.94
1002.68	210.97
1002.97	211.08
1003.26	211.02
1003.55	211.00
1003.84	211.05
1004.13	211.10
1004.42	211.15
1004.71	211.16
1004.99	211.12
1005.28	211.15
1005.57	211.24
1005.86	211.13
1006.15	211.15
1006.44	211.13
1006.72	211.18
1007.01	211.15
1007.30	211.16
1007.59	211.12
1007.88	211.12
1008.17	211.16
1008.45	211.18
1008.74	211.03
1009.03	210.94
1009.32	210.96
1009.60	211.02
1009.89	210.93
1010.18	210.87
1010.47	210.88
1010.76	210.85
1011.04	210.89
1011.33	210.96
1011.62	210.86
1011.91	210.87
1012.19	210.86
1012.48	210.90
1012.77	210.81
1013.05	210.93
1013.34	210.95
1013.63	210.97
1013.92	210.99
1014.20	210.94
1014.49	210.90
1014.78	210.98
1015.06	210.96
1015.35	211.02
1015.64	211.04
1015.92	211.08
1016.21	211.12
1016.50	211.10
1016.78	211.18
1017.07	211.16
1017.36	211.02
1017.64	211.01
1017.93	211.01
1018.22	211.00
1018.50	211.04
1018.79	211.10
1019.08	210.98
1019.36	210.94
1019.65	210.99
1019.93	211.01
1020.22	210.99
1020.51	211.20
1020.79	211.19
1021.08	210.95
1021.36	211.65
1021.65	211.80
1021.94	210.20
1022.22	210.40
1022.51	212.30
1022.79	211.80
1023.08	210.45
1023.36	214.30
1023.65	210.90
>>>>>End Processed Spectral Data<<<<<
