SpectraSuite Data File
++++++++++++++++++++++++++++++++++++
Date: Mon Feb 25 17:35:02 EST 2013
User: group
Dark Spectrum Present: No
Reference Spectrum Present: No
Number of Sampled Component Spectra: 1
Spectrometers: USB2E7196
Integration Time (usec): 52000 (USB2E7196)
Spectra Averaged: 20 (USB2E7196)
Boxcar Smoothing: 10 (USB2E7196)
Correct for Electrical Dark: No (USB2E7196)
Strobe/Lamp Enabled: No (USB2E7196)
Correct for Detector Non-linearity: No (USB2E7196)
Correct for Stray Light: No (USB2E7196)
Number of Pixels in Processed Spectrum: 2048
>>>>>Begin Processed Spectral Data<<<<<
339.09	0.00
339.48	198.80
339.86	201.40
340.24	201.55
340.63	201.90
341.01	206.55
341.39	205.40
341.78	206.15
342.16	209.20
342.54	208.25
342.93	198.06
343.31	208.06
343.69	208.60
344.07	208.94
344.46	209.45
344.84	209.88
345.22	210.20
345.60	210.48
345.99	210.73
346.37	210.87
346.75	211.05
347.13	211.17
347.52	211.24
347.90	211.39
348.28	211.37
348.66	211.42
349.05	211.37
349.43	211.59
349.81	211.69
350.19	211.78
350.57	211.79
350.96	211.93
351.34	212.05
351.72	212.15
352.10	212.37
352.48	212.32
352.87	212.35
353.25	212.29
353.63	212.30
354.01	212.35
354.39	212.40
354.77	212.47
355.15	212.50
355.54	212.60
355.92	212.59
356.30	212.63
356.68	212.83
357.06	212.96
357.44	212.91
357.82	213.03
358.20	213.13
358.58	213.20
358.97	213.21
359.35	213.33
359.73	213.43
360.11	213.43
360.49	213.56
360.87	213.69
361.25	213.77
361.63	213.92
362.01	213.98
362.39	214.05
362.77	214.07
363.15	214.07
363.53	214.13
363.91	214.21
364.29	214.32
364.67	214.20
365.05	214.14
365.43	214.08
365.81	214.14
366.19	214.22
366.57	214.28
366.95	214.26
367.33	214.22
367.71	214.19
368.09	214.20
368.47	214.18
368.85	214.13
369.23	214.18
369.61	214.15
369.99	214.18
370.37	214.18
370.75	214.29
371.13	214.31
371.51	214.30
371.89	214.20
372.27	214.13
372.65	214.07
373.03	214.10
373.41	214.08
373.78	213.97
374.16	213.82
374.54	213.67
374.92	213.66
375.30	213.57
375.68	213.55
376.06	213.58
376.44	213.59
376.82	213.52
377.19	213.40
377.57	213.33
377.95	213.21
378.33	213.10
378.71	212.91
379.09	212.91
379.47	212.86
379.84	212.85
380.22	212.77
380.60	212.73
380.98	212.73
381.36	212.64
381.73	212.60
382.11	212.61
382.49	212.61
382.87	212.55
383.25	212.58
383.62	212.69
384.00	212.55
384.38	212.44
384.76	212.54
385.13	212.64
385.51	212.60
385.89	212.51
386.27	212.51
386.64	212.56
387.02	212.47
387.40	212.33
387.78	212.28
388.15	212.25
388.53	212.23
388.91	212.21
389.29	212.21
389.66	212.23
390.04	212.15
390.42	212.21
390.79	212.15
391.17	212.07
391.55	211.93
391.92	211.95
392.30	212.02
392.68	211.90
393.05	211.81
393.43	211.82
393.81	211.85
394.18	211.81
394.56	211.74
394.94	211.78
395.31	211.84
395.69	211.89
396.06	211.97
396.44	211.90
396.82	211.81
397.19	211.88
397.57	211.90
397.95	211.90
398.32	211.82
398.70	211.87
399.07	211.95
399.45	211.92
399.82	211.90
400.20	211.92
400.58	212.01
400.95	212.05
401.33	212.07
401.70	212.29
402.08	212.32
402.45	212.37
402.83	212.44
403.20	212.47
403.58	212.50
403.95	212.55
404.33	212.67
404.71	212.79
405.08	213.00
405.46	213.06
405.83	213.24
406.21	213.35
406.58	213.52
406.96	213.71
407.33	213.91
407.70	214.19
408.08	214.46
408.45	214.70
408.83	214.95
409.20	215.19
409.58	215.27
409.95	215.59
410.33	215.89
410.70	216.19
411.08	216.56
411.45	216.97
411.82	217.42
412.20	217.94
412.57	218.48
412.95	218.81
413.32	219.41
413.69	219.93
414.07	220.59
414.44	221.20
414.82	221.70
415.19	222.42
415.56	223.09
415.94	223.82
416.31	224.71
416.68	225.54
417.06	226.63
417.43	227.67
417.81	228.74
418.18	229.89
418.55	231.14
418.93	232.45
419.30	233.73
419.67	235.08
420.04	236.51
420.42	238.14
420.79	239.97
421.16	241.65
421.54	243.62
421.91	245.46
422.28	247.45
422.66	249.59
423.03	251.71
423.40	253.89
423.77	256.19
424.15	258.39
424.52	260.86
424.89	263.40
425.26	265.90
425.64	268.35
426.01	270.96
426.38	273.65
426.75	276.42
427.13	279.21
427.50	282.26
427.87	285.35
428.24	288.34
428.61	291.14
428.99	294.37
429.36	297.85
429.73	301.33
430.10	304.72
430.47	308.25
430.85	311.79
431.22	315.69
431.59	319.87
431.96	323.96
432.33	328.34
432.70	332.59
433.08	337.57
433.45	342.21
433.82	346.82
434.19	351.88
434.56	356.94
434.93	361.79
435.30	366.55
435.68	371.85
436.05	377.18
436.42	382.45
436.79	387.19
437.16	392.14
437.53	397.57
437.90	402.95
438.27	408.18
438.64	413.69
439.01	418.64
439.38	422.91
439.75	426.93
440.13	431.86
440.50	436.35
440.87	439.94
441.24	443.76
441.61	447.96
441.98	451.11
442.35	454.81
442.72	458.59
443.09	461.99
443.46	464.00
443.83	465.37
444.20	466.54
444.57	468.41
444.94	469.30
445.31	469.98
445.68	470.70
446.05	470.85
446.42	470.12
446.79	469.36
447.16	468.47
447.53	467.94
447.90	465.59
448.27	463.55
448.64	460.64
449.01	458.56
449.37	454.95
449.74	451.37
450.11	447.07
450.48	442.48
450.85	437.91
451.22	433.95
451.59	430.15
451.96	426.54
452.33	421.63
452.70	417.14
453.07	412.01
453.43	406.66
453.80	401.73
454.17	396.99
454.54	392.45
454.91	387.71
455.28	382.93
455.65	378.57
456.02	374.12
456.38	370.45
456.75	365.77
457.12	361.85
457.49	358.06
457.86	354.23
458.23	350.95
458.59	347.50
458.96	343.99
459.33	340.75
459.70	337.58
460.07	335.07
460.43	332.27
460.80	329.50
461.17	327.15
461.54	324.76
461.91	322.36
462.27	319.97
462.64	317.85
463.01	315.54
463.38	313.45
463.74	311.22
464.11	309.32
464.48	307.60
464.85	305.81
465.21	304.45
465.58	303.07
465.95	301.34
466.32	299.89
466.68	298.41
467.05	296.94
467.42	295.50
467.78	293.98
468.15	292.57
468.52	291.54
468.88	290.23
469.25	288.97
469.62	288.06
469.98	286.99
470.35	286.09
470.72	285.30
471.08	284.34
471.45	283.62
471.82	282.90
472.18	282.04
472.55	281.48
472.92	280.77
473.28	280.11
473.65	279.51
474.02	278.92
474.38	278.48
474.75	278.11
475.11	277.76
475.48	277.46
475.85	277.20
476.21	276.96
476.58	276.87
476.94	276.79
477.31	276.58
477.67	276.57
478.04	276.58
478.41	276.70
478.77	276.94
479.14	276.99
479.50	277.21
479.87	277.53
480.23	277.93
480.60	278.31
480.96	278.69
481.33	279.35
481.69	279.96
482.06	280.59
482.42	281.27
482.79	281.97
483.15	282.92
483.52	283.98
483.88	285.02
484.25	285.98
484.61	287.13
484.98	288.34
485.34	289.70
485.71	291.08
486.07	292.51
486.44	293.92
486.80	295.49
487.17	297.04
487.53	298.87
487.90	300.69
488.26	302.57
488.62	304.68
488.99	306.81
489.35	308.96
489.72	311.37
490.08	313.88
490.44	316.30
490.81	318.93
491.17	321.54
491.54	324.40
491.90	327.45
492.26	330.52
492.63	333.90
492.99	337.25
493.36	340.92
493.72	344.82
494.08	348.71
494.45	353.07
494.81	357.63
495.17	362.29
495.54	367.15
495.90	372.28
496.26	377.52
496.63	383.02
496.99	388.81
497.35	394.75
497.72	400.90
498.08	407.54
498.44	414.27
498.80	421.49
499.17	428.99
499.53	436.65
499.89	444.89
500.26	453.01
500.62	461.40
500.98	470.14
501.34	479.20
501.71	488.79
502.07	498.41
502.43	508.29
502.79	518.50
503.16	529.25
503.52	540.16
503.88	551.48
504.24	562.84
504.60	574.84
504.97	587.18
505.33	599.80
505.69	613.05
506.05	626.67
506.41	640.19
506.78	653.98
507.14	668.17
507.50	682.81
507.86	697.86
508.22	713.42
508.59	728.87
508.95	744.99
509.31	761.10
509.67	778.03
510.03	795.06
510.39	812.81
510.75	830.69
511.12	848.86
511.48	867.23
511.84	886.20
512.20	904.86
512.56	924.10
512.92	943.88
513.28	963.42
513.64	983.16
514.00	1003.43
514.37	1023.85
514.73	1044.85
515.09	1065.61
515.45	1086.42
515.81	1107.69
516.17	1129.23
516.53	1150.72
516.89	1172.54
517.25	1194.01
517.61	1215.88
517.97	1237.26
518.33	1258.65
518.69	1280.27
519.05	1302.50
519.41	1324.72
519.77	1347.48
520.13	1369.78
520.49	1391.70
520.85	1414.55
521.21	1437.00
521.57	1459.82
521.93	1481.93
522.29	1504.79
522.65	1527.23
523.01	1550.03
523.37	1572.29
523.73	1594.67
524.09	1617.25
524.45	1639.71
524.81	1662.58
525.17	1685.06
525.53	1707.57
525.89	1730.27
526.25	1752.73
526.61	1774.48
526.97	1796.23
527.33	1817.48
527.68	1839.20
528.04	1860.84
528.40	1881.38
528.76	1902.35
529.12	1923.17
529.48	1945.06
529.84	1965.40
530.20	1986.11
530.56	2006.52
530.91	2027.32
531.27	2048.22
531.63	2068.17
531.99	2088.08
532.35	2107.40
532.71	2126.72
533.07	2146.72
533.42	2165.58
533.78	2184.78
534.14	2203.24
534.50	2220.63
534.86	2239.22
535.21	2256.03
535.57	2273.86
535.93	2291.16
536.29	2308.36
536.65	2325.34
537.00	2341.10
537.36	2356.67
537.72	2372.65
538.08	2388.35
538.44	2404.13
538.79	2419.46
539.15	2434.55
539.51	2449.21
539.87	2464.47
540.22	2479.32
540.58	2494.40
540.94	2508.98
541.29	2521.96
541.65	2534.60
542.01	2548.22
542.37	2559.99
542.72	2572.62
543.08	2583.58
543.44	2595.64
543.79	2606.11
544.15	2616.58
544.51	2627.86
544.87	2639.35
545.22	2648.02
545.58	2656.38
545.94	2663.53
546.29	2670.36
546.65	2676.91
547.01	2683.42
547.36	2689.18
547.72	2694.70
548.07	2698.70
548.43	2702.81
548.79	2706.93
549.14	2711.88
549.50	2716.22
549.86	2720.78
550.21	2725.14
550.57	2729.91
550.92	2733.04
551.28	2736.19
551.64	2738.86
551.99	2741.27
552.35	2742.61
552.70	2745.75
553.06	2748.76
553.41	2751.96
553.77	2754.68
554.13	2757.15
554.48	2759.36
554.84	2760.99
555.19	2762.09
555.55	2762.58
555.90	2763.32
556.26	2764.04
556.61	2763.91
556.97	2762.79
557.32	2762.07
557.68	2760.08
558.03	2758.41
558.39	2756.95
558.74	2756.31
559.10	2755.22
559.45	2753.30
559.81	2752.07
560.16	2749.44
560.52	2747.42
560.87	2744.38
561.23	2740.95
561.58	2738.58
561.94	2735.49
562.29	2731.77
562.64	2729.43
563.00	2727.23
563.35	2725.06
563.71	2723.46
564.06	2721.15
564.42	2719.54
564.77	2717.27
565.12	2715.68
565.48	2712.80
565.83	2710.03
566.19	2706.80
566.54	2702.69
566.89	2699.20
567.25	2695.90
567.60	2692.88
567.96	2689.01
568.31	2685.83
568.66	2682.18
569.02	2677.29
569.37	2672.41
569.72	2668.74
570.08	2663.26
570.43	2657.69
570.78	2651.83
571.14	2645.29
571.49	2638.82
571.84	2632.64
572.20	2625.60
572.55	2618.84
572.90	2612.04
573.26	2604.90
573.61	2597.94
573.96	2591.50
574.31	2583.59
574.67	2575.29
575.02	2566.73
575.37	2558.22
575.72	2548.75
576.08	2540.80
576.43	2532.30
576.78	2524.28
577.13	2515.82
577.49	2507.57
577.84	2500.02
578.19	2492.24
578.54	2484.85
578.90	2477.90
579.25	2469.13
579.60	2460.04
579.95	2450.75
580.30	2442.63
580.66	2434.21
581.01	2424.65
581.36	2414.86
581.71	2406.24
582.06	2397.70
582.42	2389.43
582.77	2380.42
583.12	2371.62
583.47	2362.94
583.82	2354.67
584.17	2345.10
584.53	2336.00
584.88	2326.95
585.23	2317.16
585.58	2307.49
585.93	2297.46
586.28	2287.87
586.63	2278.92
586.98	2270.66
587.34	2262.34
587.69	2253.00
588.04	2244.04
588.39	2235.92
588.74	2226.99
589.09	2218.04
589.44	2208.27
589.79	2199.54
590.14	2191.16
590.49	2182.74
590.84	2173.42
591.19	2164.86
591.54	2156.25
591.89	2146.24
592.25	2136.99
592.60	2127.50
592.95	2117.75
593.30	2108.45
593.65	2098.54
594.00	2088.92
594.35	2080.45
594.70	2070.98
595.05	2061.88
595.40	2052.75
595.75	2043.03
596.10	2034.67
596.45	2026.03
596.80	2018.16
597.15	2009.66
597.50	2000.40
597.85	1991.70
598.19	1982.90
598.54	1974.24
598.89	1966.14
599.24	1959.31
599.59	1952.01
599.94	1944.82
600.29	1937.08
600.64	1928.64
600.99	1920.44
601.34	1912.90
601.69	1903.99
602.04	1895.86
602.39	1887.76
602.74	1879.58
603.08	1872.84
603.43	1865.70
603.78	1857.52
604.13	1849.28
604.48	1841.32
604.83	1834.63
605.18	1827.62
605.53	1820.03
605.87	1812.24
606.22	1804.98
606.57	1796.68
606.92	1788.10
607.27	1780.05
607.62	1772.69
607.96	1765.95
608.31	1759.59
608.66	1751.67
609.01	1744.05
609.36	1736.39
609.70	1728.39
610.05	1720.56
610.40	1712.22
610.75	1703.43
611.10	1695.74
611.44	1686.55
611.79	1677.24
612.14	1667.37
612.49	1657.50
612.83	1648.77
613.18	1638.95
613.53	1629.72
613.88	1619.85
614.22	1611.03
614.57	1601.47
614.92	1592.26
615.27	1582.76
615.61	1572.70
615.96	1563.82
616.31	1555.01
616.65	1546.81
617.00	1538.38
617.35	1529.78
617.70	1520.70
618.04	1511.84
618.39	1502.52
618.74	1494.20
619.08	1485.44
619.43	1477.17
619.78	1469.45
620.12	1461.31
620.47	1453.59
620.82	1444.85
621.16	1436.68
621.51	1428.27
621.85	1419.95
622.20	1411.22
622.55	1402.64
622.89	1394.15
623.24	1386.05
623.59	1377.33
623.93	1368.65
624.28	1360.34
624.62	1352.10
624.97	1343.67
625.32	1335.70
625.66	1328.20
626.01	1320.90
626.35	1313.70
626.70	1306.20
627.04	1298.80
627.39	1291.07
627.73	1283.20
628.08	1275.97
628.43	1268.70
628.77	1261.05
629.12	1253.47
629.46	1246.71
629.81	1239.52
630.15	1232.47
630.50	1224.93
630.84	1217.79
631.19	1210.62
631.53	1203.66
631.88	1195.97
632.22	1188.60
632.57	1181.46
632.91	1173.87
633.26	1166.18
633.60	1158.76
633.95	1151.74
634.29	1144.13
634.64	1137.27
634.98	1130.46
635.32	1123.54
635.67	1116.97
636.01	1110.34
636.36	1103.79
636.70	1097.08
637.05	1090.73
637.39	1084.28
637.73	1077.93
638.08	1072.14
638.42	1066.30
638.77	1059.61
639.11	1053.30
639.45	1047.28
639.80	1040.54
640.14	1034.11
640.49	1027.74
640.83	1021.50
641.17	1015.34
641.52	1009.27
641.86	1002.70
642.20	996.34
642.55	989.67
642.89	983.20
643.23	976.78
643.58	970.81
643.92	964.27
644.26	957.60
644.61	951.50
644.95	945.35
645.29	938.70
645.64	931.85
645.98	925.71
646.32	919.84
646.66	913.52
647.01	907.74
647.35	901.98
647.69	895.82
648.04	889.74
648.38	883.50
648.72	877.32
649.06	871.25
649.41	865.24
649.75	859.44
650.09	853.65
650.43	847.56
650.78	841.28
651.12	835.12
651.46	829.41
651.80	823.22
652.14	817.27
652.49	811.40
652.83	805.49
653.17	799.41
653.51	793.35
653.85	787.49
654.20	781.46
654.54	775.51
654.88	769.95
655.22	764.17
655.56	758.20
655.90	752.50
656.25	746.69
656.59	741.12
656.93	735.90
657.27	730.52
657.61	725.28
657.95	719.97
658.29	714.79
658.64	709.54
658.98	704.42
659.32	698.93
659.66	693.78
660.00	688.50
660.34	683.18
660.68	678.05
661.02	673.07
661.36	668.46
661.70	663.58
662.05	658.80
662.39	654.28
662.73	649.99
663.07	645.51
663.41	641.19
663.75	636.69
664.09	631.64
664.43	626.87
664.77	622.50
665.11	618.15
665.45	613.72
665.79	609.30
666.13	604.82
666.47	600.57
666.81	596.29
667.15	592.19
667.49	588.33
667.83	584.43
668.17	580.42
668.51	576.51
668.85	572.71
669.19	569.05
669.53	565.12
669.87	560.91
670.21	557.10
670.55	553.14
670.89	549.49
671.23	546.27
671.57	542.70
671.91	538.93
672.25	535.37
672.58	531.87
672.92	528.40
673.26	525.17
673.60	521.96
673.94	518.75
674.28	515.50
674.62	512.26
674.96	508.94
675.30	505.80
675.64	502.51
675.97	499.41
676.31	496.23
676.65	493.33
676.99	490.72
677.33	487.55
677.67	484.69
678.01	481.60
678.34	478.53
678.68	475.56
679.02	472.69
679.36	469.85
679.70	467.11
680.04	464.14
680.37	461.23
680.71	458.39
681.05	455.72
681.39	453.02
681.73	450.34
682.06	447.95
682.40	445.50
682.74	442.89
683.08	440.20
683.42	437.58
683.75	434.99
684.09	432.33
684.43	429.99
684.77	427.38
685.10	424.95
685.44	422.44
685.78	420.07
686.12	417.78
686.45	415.26
686.79	412.96
687.13	410.79
687.46	408.49
687.80	406.27
688.14	403.85
688.48	401.63
688.81	399.33
689.15	396.88
689.49	394.53
689.82	392.27
690.16	389.96
690.50	387.76
690.83	385.44
691.17	383.23
691.51	380.89
691.84	378.75
692.18	376.64
692.52	374.67
692.85	372.67
693.19	370.74
693.52	368.86
693.86	366.75
694.20	364.88
694.53	363.05
694.87	361.09
695.21	359.21
695.54	357.27
695.88	355.38
696.21	353.55
696.55	351.75
696.88	349.89
697.22	348.17
697.56	346.44
697.89	344.84
698.23	343.19
698.56	341.66
698.90	340.17
699.23	338.47
699.57	336.79
699.90	335.19
700.24	333.44
700.58	331.72
700.91	330.13
701.25	328.63
701.58	327.11
701.92	325.59
702.25	324.15
702.59	322.75
702.92	321.40
703.26	320.08
703.59	318.84
703.93	317.80
704.26	316.52
704.60	315.31
704.93	313.94
705.26	312.57
705.60	311.30
705.93	309.99
706.27	308.90
706.60	307.74
706.94	306.61
707.27	305.42
707.61	304.28
707.94	303.15
708.27	301.94
708.61	300.82
708.94	299.78
709.28	298.56
709.61	297.51
709.94	296.51
710.28	295.46
710.61	294.27
710.95	293.04
711.28	292.07
711.61	290.93
711.95	290.00
712.28	289.00
712.61	287.99
712.95	287.10
713.28	286.22
713.61	285.26
713.95	284.27
714.28	283.34
714.61	282.38
714.95	281.56
715.28	280.63
715.61	279.73
715.95	278.71
716.28	278.00
716.61	277.06
716.95	276.21
717.28	275.34
717.61	274.61
717.94	273.76
718.28	272.94
718.61	272.21
718.94	271.39
719.27	270.69
719.61	270.01
719.94	269.23
720.27	268.43
720.60	267.72
720.94	267.00
721.27	266.35
721.60	265.73
721.93	265.12
722.27	264.54
722.60	263.85
722.93	263.32
723.26	262.65
723.59	262.14
723.93	261.54
724.26	261.01
724.59	260.33
724.92	259.93
725.25	259.35
725.59	258.73
725.92	258.21
726.25	257.69
726.58	257.15
726.91	256.66
727.24	256.15
727.57	255.57
727.91	255.09
728.24	254.62
728.57	254.13
728.90	253.56
729.23	253.08
729.56	252.69
729.89	252.18
730.22	251.61
730.55	251.14
730.89	250.64
731.22	250.19
731.55	249.74
731.88	249.11
732.21	248.63
732.54	248.19
732.87	247.80
733.20	247.38
733.53	246.95
733.86	246.58
734.19	246.09
734.52	245.78
734.85	245.47
735.18	245.09
735.51	244.75
735.84	244.40
736.17	244.04
736.50	243.62
736.83	243.51
737.16	243.15
737.49	242.72
737.82	242.31
738.15	241.96
738.48	241.67
738.81	241.41
739.14	241.05
739.47	240.71
739.80	240.31
740.13	239.98
740.46	239.54
740.79	239.10
741.12	238.77
741.45	238.46
741.78	238.09
742.11	237.85
742.44	237.53
742.77	237.25
743.10	236.88
743.43	236.54
743.75	235.96
744.08	235.95
744.41	235.68
744.74	235.35
745.07	235.07
745.40	234.74
745.73	234.49
746.06	234.22
746.39	233.99
746.71	233.72
747.04	233.36
747.37	233.15
747.70	232.97
748.03	232.78
748.36	232.47
748.68	232.12
749.01	231.68
749.34	231.47
749.67	231.21
750.00	230.99
750.33	230.79
750.65	230.60
750.98	230.13
751.31	229.93
751.64	229.81
751.97	229.64
752.29	229.39
752.62	229.13
752.95	228.92
753.28	228.65
753.60	228.44
753.93	228.28
754.26	228.10
754.59	227.82
754.91	227.52
755.24	227.32
755.57	227.17
755.90	227.08
756.22	226.81
756.55	226.59
756.88	226.39
757.20	226.20
757.53	225.91
757.86	225.70
758.19	225.52
758.51	225.26
758.84	224.97
759.17	224.81
759.49	224.58
759.82	224.40
760.15	224.26
760.47	224.10
760.80	223.90
761.13	223.73
761.45	223.57
761.78	223.51
762.11	223.39
762.43	223.21
762.76	222.99
763.08	222.90
763.41	222.80
763.74	222.66
764.06	222.47
764.39	222.38
764.71	222.27
765.04	222.07
765.37	221.89
765.69	221.79
766.02	221.66
766.34	221.55
766.67	221.44
767.00	221.34
767.32	221.30
767.65	221.27
767.97	221.10
768.30	220.95
768.62	220.76
768.95	220.60
769.27	220.48
769.60	220.46
769.92	220.28
770.25	220.10
770.57	220.02
770.90	219.91
771.22	219.90
771.55	219.75
771.87	219.67
772.20	219.63
772.52	219.61
772.85	219.72
773.17	219.67
773.50	219.53
773.82	219.42
774.15	219.23
774.47	219.03
774.80	218.95
775.12	218.90
775.45	218.81
775.77	218.70
776.09	218.65
776.42	218.50
776.74	218.47
777.07	218.38
777.39	218.24
777.72	218.11
778.04	217.98
778.36	217.93
778.69	217.84
779.01	217.80
779.33	217.60
779.66	217.37
779.98	217.30
780.31	217.23
780.63	217.22
780.95	217.21
781.28	217.15
781.60	217.10
781.92	217.06
782.25	217.04
782.57	217.06
782.89	216.97
783.22	216.92
783.54	216.81
783.86	216.76
784.19	216.68
784.51	216.75
784.83	216.67
785.16	216.62
785.48	216.58
785.80	216.49
786.12	216.45
786.45	216.35
786.77	216.25
787.09	216.18
787.42	216.11
787.74	216.03
788.06	215.97
788.38	215.94
788.71	215.80
789.03	215.69
789.35	215.69
789.67	215.66
789.99	215.64
790.32	215.63
790.64	215.60
790.96	215.70
791.28	215.50
791.61	215.48
791.93	215.48
792.25	215.39
792.57	215.49
792.89	215.46
793.21	215.43
793.54	215.31
793.86	215.27
794.18	215.23
794.50	215.16
794.82	215.13
795.14	215.09
795.47	215.14
795.79	215.09
796.11	214.93
796.43	214.82
796.75	214.75
797.07	214.73
797.39	214.69
797.71	214.52
798.04	214.45
798.36	214.37
798.68	214.27
799.00	214.28
799.32	214.11
799.64	213.99
799.96	214.01
800.28	214.00
800.60	213.92
800.92	213.95
801.24	213.96
801.56	213.94
801.89	213.88
802.21	213.80
802.53	213.76
802.85	213.80
803.17	213.88
803.49	213.80
803.81	213.72
804.13	213.65
804.45	213.65
804.77	213.72
805.09	213.69
805.41	213.66
805.73	213.60
806.05	213.55
806.37	213.60
806.69	213.51
807.01	213.53
807.33	213.54
807.65	213.42
807.97	213.39
808.28	213.32
808.60	213.28
808.92	213.27
809.24	213.41
809.56	213.27
809.88	213.18
810.20	213.15
810.52	213.18
810.84	213.11
811.16	213.01
811.48	212.98
811.80	213.04
812.12	212.97
812.43	212.97
812.75	213.01
813.07	212.93
813.39	212.97
813.71	212.95
814.03	212.98
814.35	212.95
814.67	212.89
814.98	212.96
815.30	212.92
815.62	212.79
815.94	212.65
816.26	212.75
816.58	212.75
816.89	212.80
817.21	212.77
817.53	212.80
817.85	212.89
818.17	212.82
818.48	212.80
818.80	212.82
819.12	212.80
819.44	212.75
819.76	212.82
820.07	212.77
820.39	212.73
820.71	212.73
821.03	212.70
821.34	212.71
821.66	212.65
821.98	212.67
822.30	212.72
822.61	212.85
822.93	212.84
823.25	212.78
823.57	212.75
823.88	212.73
824.20	212.76
824.52	212.79
824.83	212.80
825.15	212.76
825.47	212.77
825.79	212.85
826.10	212.88
826.42	212.83
826.74	212.86
827.05	212.89
827.37	212.82
827.69	212.81
828.00	212.75
828.32	212.79
828.64	212.77
828.95	212.89
829.27	212.76
829.58	212.63
829.90	212.70
830.22	212.70
830.53	212.72
830.85	212.61
831.17	212.59
831.48	212.60
831.80	212.61
832.11	212.64
832.43	212.56
832.75	212.52
833.06	212.57
833.38	212.52
833.69	212.52
834.01	212.53
834.32	212.55
834.64	212.55
834.96	212.54
835.27	212.47
835.59	212.42
835.90	212.43
836.22	212.42
836.53	212.40
836.85	212.34
837.16	212.47
837.48	212.56
837.79	212.52
838.11	212.54
838.42	212.49
838.74	212.45
839.05	212.42
839.37	212.49
839.68	212.44
840.00	212.39
840.31	212.37
840.63	212.36
840.94	212.31
841.26	212.25
841.57	212.28
841.88	212.30
842.20	212.28
842.51	212.26
842.83	212.32
843.14	212.42
843.46	212.40
843.77	212.31
844.08	212.24
844.40	212.17
844.71	212.09
845.03	212.07
845.34	212.02
845.65	211.99
845.97	211.91
846.28	211.86
846.60	211.87
846.91	211.82
847.22	211.82
847.54	211.87
847.85	211.90
848.16	211.76
848.48	211.73
848.79	211.80
849.10	211.80
849.42	211.79
849.73	211.59
850.04	211.62
850.36	211.52
850.67	211.57
850.98	211.56
851.30	211.61
851.61	211.56
851.92	211.59
852.23	211.67
852.55	211.65
852.86	211.70
853.17	211.72
853.49	211.76
853.80	211.76
854.11	211.69
854.42	211.74
854.74	211.76
855.05	211.78
855.36	211.63
855.67	211.65
855.99	211.70
856.30	211.96
856.61	211.93
856.92	211.97
857.23	211.96
857.55	211.93
857.86	211.87
858.17	211.97
858.48	211.96
858.79	211.89
859.11	211.89
859.42	211.85
859.73	211.81
860.04	211.74
860.35	211.73
860.66	211.71
860.98	211.65
861.29	211.65
861.60	211.62
861.91	211.68
862.22	211.58
862.53	211.55
862.84	211.33
863.16	211.42
863.47	211.37
863.78	211.37
864.09	211.39
864.40	211.48
864.71	211.50
865.02	211.46
865.33	211.50
865.64	211.49
865.95	211.51
866.27	211.60
866.58	211.60
866.89	211.57
867.20	211.59
867.51	211.56
867.82	211.58
868.13	211.61
868.44	211.50
868.75	211.52
869.06	211.46
869.37	211.41
869.68	211.35
869.99	211.33
870.30	211.31
870.61	211.36
870.92	211.25
871.23	211.19
871.54	211.20
871.85	211.27
872.16	211.18
872.47	211.12
872.78	211.01
873.09	211.06
873.40	211.08
873.71	211.05
874.02	211.07
874.33	211.08
874.64	211.08
874.95	211.17
875.26	211.15
875.56	211.20
875.87	211.25
876.18	211.22
876.49	211.42
876.80	211.37
877.11	211.30
877.42	211.31
877.73	211.34
878.04	211.32
878.35	211.34
878.66	211.38
878.96	211.42
879.27	211.43
879.58	211.41
879.89	211.38
880.20	211.46
880.51	211.45
880.82	211.42
881.12	211.37
881.43	211.34
881.74	211.38
882.05	211.42
882.36	211.39
882.67	211.39
882.97	211.16
883.28	211.15
883.59	211.17
883.90	211.31
884.21	211.34
884.51	211.30
884.82	211.16
885.13	211.21
885.44	211.22
885.74	211.20
886.05	211.16
886.36	211.22
886.67	211.15
886.98	211.19
887.28	211.20
887.59	211.25
887.90	211.24
888.20	211.24
888.51	211.22
888.82	211.21
889.13	211.24
889.43	211.43
889.74	211.49
890.05	211.48
890.35	211.36
890.66	211.31
890.97	211.34
891.28	211.41
891.58	211.35
891.89	211.33
892.20	211.30
892.50	211.30
892.81	211.19
893.12	211.18
893.42	211.14
893.73	211.17
894.04	211.21
894.34	211.23
894.65	211.18
894.95	211.14
895.26	211.18
895.57	211.27
895.87	211.17
896.18	211.15
896.48	211.19
896.79	211.25
897.10	211.27
897.40	211.28
897.71	211.25
898.01	211.36
898.32	211.36
898.63	211.34
898.93	211.36
899.24	211.42
899.54	211.45
899.85	211.47
900.15	211.45
900.46	211.43
900.76	211.48
901.07	211.51
901.38	211.62
901.68	211.65
901.99	211.55
902.29	211.47
902.60	211.43
902.90	211.41
903.21	211.36
903.51	211.35
903.82	211.36
904.12	211.34
904.43	211.31
904.73	211.31
905.03	211.37
905.34	211.57
905.64	211.58
905.95	211.58
906.25	211.63
906.56	211.66
906.86	211.65
907.17	211.61
907.47	211.65
907.77	211.56
908.08	211.57
908.38	211.59
908.69	211.60
908.99	211.69
909.30	211.69
909.60	211.69
909.90	211.67
910.21	211.57
910.51	211.60
910.81	211.58
911.12	211.55
911.42	211.53
911.73	211.39
912.03	211.33
912.33	211.39
912.64	211.33
912.94	211.32
913.24	211.29
913.55	211.25
913.85	211.23
914.15	211.30
914.46	211.26
914.76	211.20
915.06	211.28
915.37	211.22
915.67	211.24
915.97	211.25
916.27	211.22
916.58	211.32
916.88	211.27
917.18	211.20
917.49	211.34
917.79	211.40
918.09	211.38
918.39	211.40
918.70	211.38
919.00	211.32
919.30	211.34
919.60	211.37
919.91	211.43
920.21	211.45
920.51	211.35
920.81	211.37
921.12	211.46
921.42	211.46
921.72	211.49
922.02	211.44
922.32	211.43
922.63	211.48
922.93	211.52
923.23	211.57
923.53	211.62
923.83	211.48
924.13	211.42
924.44	211.40
924.74	211.46
925.04	211.46
925.34	211.53
925.64	211.52
925.94	211.45
926.24	211.49
926.55	211.41
926.85	211.46
927.15	211.39
927.45	211.26
927.75	211.21
928.05	211.17
928.35	211.20
928.65	211.28
928.95	211.25
929.26	211.21
929.56	211.23
929.86	211.14
930.16	211.14
930.46	211.13
930.76	211.11
931.06	211.02
931.36	210.97
931.66	211.05
931.96	211.03
932.26	211.10
932.56	210.99
932.86	211.04
933.16	211.05
933.46	211.03
933.76	211.05
934.06	211.06
934.36	211.13
934.66	211.08
934.96	211.03
935.26	211.05
935.56	211.01
935.86	210.99
936.16	211.05
936.46	211.04
936.76	211.05
937.06	211.05
937.36	211.09
937.66	211.10
937.96	211.05
938.26	211.00
938.56	211.03
938.86	211.08
939.16	211.08
939.46	211.05
939.76	211.10
940.06	211.07
940.35	211.00
940.65	210.90
940.95	210.95
941.25	210.93
941.55	210.87
941.85	210.86
942.15	210.92
942.45	211.01
942.75	211.02
943.04	211.05
943.34	211.15
943.64	211.12
943.94	211.09
944.24	210.97
944.54	210.98
944.84	210.86
945.13	210.79
945.43	210.79
945.73	210.79
946.03	210.77
946.33	210.79
946.62	210.84
946.92	210.82
947.22	210.78
947.52	210.80
947.82	210.92
948.11	210.92
948.41	210.82
948.71	210.70
949.01	210.69
949.31	210.71
949.60	210.66
949.90	210.72
950.20	210.73
950.50	210.76
950.79	210.78
951.09	210.86
951.39	210.90
951.69	210.90
951.98	210.92
952.28	210.91
952.58	210.95
952.87	210.95
953.17	210.98
953.47	210.98
953.76	211.01
954.06	210.94
954.36	210.94
954.66	210.95
954.95	210.99
955.25	210.95
955.55	210.94
955.84	210.86
956.14	210.90
956.44	210.87
956.73	210.82
957.03	210.80
957.32	210.80
957.62	210.77
957.92	210.74
958.21	210.72
958.51	210.93
958.81	210.96
959.10	210.94
959.40	211.01
959.69	211.08
959.99	211.04
960.29	210.99
960.58	211.00
960.88	211.00
961.17	210.99
961.47	211.11
961.76	211.08
962.06	211.11
962.36	211.01
962.65	211.04
962.95	211.05
963.24	211.01
963.54	211.00
963.83	211.06
964.13	211.10
964.42	211.06
964.72	210.92
965.01	210.90
965.31	210.90
965.60	210.86
965.90	210.86
966.19	210.81
966.49	210.87
966.78	210.79
967.08	210.88
967.37	210.96
967.67	210.85
967.96	210.91
968.26	210.96
968.55	211.02
968.85	211.08
969.14	211.11
969.43	211.17
969.73	211.14
970.02	211.08
970.32	211.03
970.61	210.99
970.91	210.90
971.20	210.95
971.49	210.96
971.79	210.91
972.08	210.90
972.38	210.89
972.67	210.90
972.96	210.97
973.26	210.89
973.55	210.89
973.85	210.93
974.14	210.85
974.43	210.83
974.73	210.75
975.02	210.67
975.31	210.69
975.61	210.66
975.90	210.61
976.19	210.62
976.49	210.64
976.78	210.66
977.07	210.67
977.37	210.63
977.66	210.70
977.95	210.69
978.24	210.64
978.54	210.72
978.83	210.68
979.12	210.71
979.42	210.74
979.71	210.67
980.00	210.63
980.29	210.63
980.59	210.63
980.88	210.69
981.17	210.67
981.46	210.65
981.76	210.67
982.05	210.78
982.34	210.80
982.63	210.85
982.93	210.95
983.22	211.04
983.51	211.00
983.80	210.94
984.09	210.92
984.39	210.95
984.68	210.90
984.97	210.91
985.26	210.88
985.55	210.88
985.85	210.85
986.14	210.92
986.43	210.99
986.72	210.97
987.01	210.88
987.30	210.99
987.59	211.00
987.89	210.97
988.18	210.91
988.47	210.89
988.76	210.80
989.05	210.70
989.34	210.66
989.63	210.74
989.92	210.69
990.22	210.73
990.51	210.73
990.80	210.75
991.09	210.75
991.38	210.79
991.67	210.78
991.96	210.74
992.25	210.70
992.54	210.72
992.83	210.72
993.12	210.66
993.41	210.59
993.70	210.66
993.99	210.69
994.28	210.66
994.58	210.70
994.87	210.74
995.16	210.74
995.45	210.73
995.74	210.69
996.03	210.68
996.32	210.71
996.61	210.73
996.90	210.65
997.19	210.65
997.48	210.59
997.77	210.57
998.06	210.62
998.34	210.64
998.63	210.58
998.92	210.59
999.21	210.67
999.50	210.74
999.79	210.72
1000.08	210.73
1000.37	210.78
1000.66	210.75
1000.95	210.75
1001.24	210.75
1001.53	210.76
1001.82	210.70
1002.11	210.81
1002.40	210.83
1002.68	210.92
1002.97	211.17
1003.26	211.11
1003.55	211.12
1003.84	211.09
1004.13	211.15
1004.42	211.17
1004.71	211.12
1004.99	211.09
1005.28	211.15
1005.57	211.11
1005.86	211.14
1006.15	211.10
1006.44	211.10
1006.72	211.15
1007.01	211.17
1007.30	211.26
1007.59	211.23
1007.88	211.26
1008.17	211.23
1008.45	211.21
1008.74	211.14
1009.03	211.01
1009.32	211.10
1009.60	211.04
1009.89	211.11
1010.18	211.01
1010.47	210.96
1010.76	211.00
1011.04	211.08
1011.33	211.05
1011.62	211.10
1011.91	211.06
1012.19	211.06
1012.48	211.03
1012.77	211.02
1013.05	211.10
1013.34	211.04
1013.63	211.06
1013.92	211.07
1014.20	211.09
1014.49	211.06
1014.78	210.96
1015.06	210.90
1015.35	210.86
1015.64	210.84
1015.92	210.83
1016.21	210.89
1016.50	210.91
1016.78	210.92
1017.07	210.91
1017.36	210.90
1017.64	210.81
1017.93	210.84
1018.22	210.86
1018.50	210.84
1018.79	210.78
1019.08	210.67
1019.36	210.72
1019.65	210.69
1019.93	210.74
1020.22	210.73
1020.51	210.75
1020.79	210.83
1021.08	210.85
1021.36	209.60
1021.65	210.50
1021.94	210.65
1022.22	211.65
1022.51	210.50
1022.79	211.80
1023.08	211.45
1023.36	211.30
1023.65	211.00
>>>>>End Processed Spectral Data<<<<<
