SpectraSuite Data File
++++++++++++++++++++++++++++++++++++
Date: Mon Feb 25 17:36:34 EST 2013
User: group
Dark Spectrum Present: No
Reference Spectrum Present: No
Number of Sampled Component Spectra: 1
Spectrometers: USB2E7196
Integration Time (usec): 52000 (USB2E7196)
Spectra Averaged: 20 (USB2E7196)
Boxcar Smoothing: 10 (USB2E7196)
Correct for Electrical Dark: No (USB2E7196)
Strobe/Lamp Enabled: No (USB2E7196)
Correct for Detector Non-linearity: No (USB2E7196)
Correct for Stray Light: No (USB2E7196)
Number of Pixels in Processed Spectrum: 2048
>>>>>Begin Processed Spectral Data<<<<<
339.09	0.00
339.48	198.45
339.86	199.90
340.24	201.15
340.63	202.00
341.01	206.10
341.39	205.60
341.78	207.40
342.16	208.15
342.54	208.45
342.93	198.19
343.31	208.24
343.69	208.77
344.07	209.20
344.46	209.65
344.84	210.19
345.22	210.51
345.60	210.87
345.99	211.17
346.37	211.39
346.75	211.64
347.13	211.87
347.52	212.03
347.90	212.27
348.28	212.37
348.66	212.51
349.05	212.74
349.43	212.81
349.81	212.90
350.19	212.96
350.57	213.08
350.96	213.24
351.34	213.40
351.72	213.63
352.10	213.92
352.48	214.11
352.87	214.16
353.25	214.27
353.63	214.36
354.01	214.47
354.39	214.63
354.77	214.70
355.15	214.76
355.54	214.81
355.92	214.79
356.30	214.91
356.68	215.17
357.06	215.20
357.44	215.15
357.82	215.24
358.20	215.35
358.58	215.39
358.97	215.54
359.35	215.63
359.73	215.67
360.11	215.71
360.49	215.82
360.87	215.92
361.25	216.02
361.63	216.14
362.01	216.16
362.39	216.10
362.77	216.12
363.15	216.16
363.53	216.30
363.91	216.34
364.29	216.38
364.67	216.17
365.05	216.14
365.43	216.29
365.81	216.35
366.19	216.41
366.57	216.57
366.95	216.52
367.33	216.50
367.71	216.50
368.09	216.51
368.47	216.57
368.85	216.56
369.23	216.54
369.61	216.42
369.99	216.48
370.37	216.53
370.75	216.70
371.13	216.70
371.51	216.52
371.89	216.50
372.27	216.39
372.65	216.37
373.03	216.38
373.41	216.32
373.78	216.32
374.16	216.20
374.54	216.02
374.92	215.99
375.30	215.90
375.68	215.85
376.06	215.81
376.44	215.67
376.82	215.58
377.19	215.58
377.57	215.49
377.95	215.35
378.33	215.32
378.71	215.09
379.09	215.03
379.47	215.03
379.84	215.03
380.22	214.99
380.60	214.90
380.98	214.91
381.36	214.86
381.73	214.81
382.11	214.87
382.49	214.88
382.87	214.87
383.25	214.89
383.62	215.13
384.00	215.12
384.38	215.03
384.76	215.10
385.13	215.06
385.51	215.11
385.89	215.14
386.27	215.17
386.64	215.22
387.02	215.21
387.40	215.26
387.78	215.23
388.15	215.27
388.53	215.30
388.91	215.26
389.29	215.23
389.66	215.22
390.04	215.17
390.42	215.25
390.79	215.21
391.17	215.21
391.55	214.95
391.92	214.92
392.30	214.94
392.68	214.88
393.05	214.95
393.43	215.00
393.81	215.05
394.18	214.91
394.56	214.97
394.94	215.02
395.31	215.05
395.69	215.12
396.06	215.26
396.44	215.33
396.82	215.33
397.19	215.60
397.57	215.70
397.95	215.93
398.32	216.04
398.70	216.22
399.07	216.45
399.45	216.65
399.82	216.92
400.20	217.21
400.58	217.49
400.95	217.69
401.33	217.91
401.70	218.30
402.08	218.75
402.45	219.06
402.83	219.52
403.20	220.00
403.58	220.46
403.95	220.95
404.33	221.52
404.71	222.12
405.08	222.78
405.46	223.54
405.83	224.20
406.21	224.95
406.58	225.85
406.96	226.87
407.33	227.86
407.70	228.95
408.08	230.23
408.45	231.67
408.83	233.11
409.20	234.63
409.58	236.02
409.95	237.72
410.33	239.65
410.70	241.57
411.08	243.65
411.45	245.97
411.82	248.37
412.20	250.97
412.57	253.96
412.95	256.85
413.32	259.92
413.69	263.41
414.07	266.99
414.44	270.95
414.82	274.95
415.19	279.64
415.56	284.45
415.94	289.70
416.31	295.34
416.68	300.95
417.06	307.35
417.43	313.54
417.81	320.66
418.18	327.91
418.55	335.78
418.93	344.21
419.30	352.72
419.67	361.84
420.04	371.40
420.42	381.48
420.79	392.59
421.16	404.32
421.54	416.03
421.91	428.50
422.28	441.49
422.66	455.36
423.03	468.55
423.40	482.84
423.77	498.05
424.15	513.48
424.52	529.82
424.89	547.49
425.26	564.86
425.64	581.30
426.01	599.65
426.38	618.97
426.75	638.41
427.13	658.79
427.50	680.20
427.87	702.94
428.24	725.54
428.61	747.56
428.99	770.77
429.36	796.80
429.73	822.13
430.10	847.38
430.47	873.41
430.85	901.43
431.22	930.25
431.59	960.10
431.96	989.77
432.33	1022.36
432.70	1054.15
433.08	1091.42
433.45	1126.77
433.82	1161.98
434.19	1200.61
434.56	1238.34
434.93	1275.48
435.30	1312.58
435.68	1353.35
436.05	1394.27
436.42	1434.92
436.79	1472.53
437.16	1513.10
437.53	1556.39
437.90	1599.03
438.27	1641.17
438.64	1684.82
439.01	1725.62
439.38	1763.44
439.75	1798.93
440.13	1839.65
440.50	1878.04
440.87	1910.02
441.24	1943.74
441.61	1980.30
441.98	2008.90
442.35	2041.78
442.72	2074.04
443.09	2105.16
443.46	2126.15
443.83	2141.21
444.20	2155.03
444.57	2173.96
444.94	2184.76
445.31	2195.50
445.68	2205.15
446.05	2212.20
446.42	2211.99
446.79	2210.85
447.16	2209.25
447.53	2209.17
447.90	2197.64
448.27	2186.35
448.64	2168.68
449.01	2156.00
449.37	2131.78
449.74	2107.97
450.11	2078.22
450.48	2047.51
450.85	2015.91
451.22	1988.23
451.59	1961.80
451.96	1936.71
452.33	1901.75
452.70	1870.26
453.07	1832.25
453.43	1794.18
453.80	1756.63
454.17	1720.76
454.54	1686.99
454.91	1650.02
455.28	1614.26
455.65	1580.91
456.02	1545.10
456.38	1516.18
456.75	1480.31
457.12	1450.50
457.49	1420.90
457.86	1393.39
458.23	1367.70
458.59	1340.05
458.96	1312.24
459.33	1287.59
459.70	1262.54
460.07	1242.76
460.43	1220.00
460.80	1198.21
461.17	1179.52
461.54	1159.52
461.91	1140.78
462.27	1121.70
462.64	1105.76
463.01	1087.48
463.38	1069.54
463.74	1054.19
464.11	1039.34
464.48	1026.14
464.85	1011.38
465.21	1000.08
465.58	987.74
465.95	973.68
466.32	961.75
466.68	949.80
467.05	937.72
467.42	926.16
467.78	913.77
468.15	902.19
468.52	893.47
468.88	882.43
469.25	872.81
469.62	864.37
469.98	855.69
470.35	847.49
470.72	840.31
471.08	832.38
471.45	825.16
471.82	817.40
472.18	809.38
472.55	803.87
472.92	797.41
473.28	791.61
473.65	785.92
474.02	780.32
474.38	775.62
474.75	771.93
475.11	767.45
475.48	764.07
475.85	761.19
476.21	758.43
476.58	756.00
476.94	754.02
477.31	752.01
477.67	749.75
478.04	748.09
478.41	746.77
478.77	745.99
479.14	744.90
479.50	744.84
479.87	745.31
480.23	745.75
480.60	745.57
480.96	745.92
481.33	747.30
481.69	748.77
482.06	749.81
482.42	750.46
482.79	752.06
483.15	754.70
483.52	758.00
483.88	760.70
484.25	763.64
484.61	766.73
484.98	769.92
485.34	774.03
485.71	778.54
486.07	783.46
486.44	788.43
486.80	793.94
487.17	799.74
487.53	806.19
487.90	812.84
488.26	820.02
488.62	827.56
488.99	835.06
489.35	843.05
489.72	852.16
490.08	861.92
490.44	871.58
490.81	881.25
491.17	890.88
491.54	901.96
491.90	912.75
492.26	924.38
492.63	936.54
492.99	949.09
493.36	961.62
493.72	974.82
494.08	988.70
494.45	1003.20
494.81	1018.33
495.17	1033.43
495.54	1049.25
495.90	1066.21
496.26	1083.30
496.63	1100.74
496.99	1118.24
497.35	1136.01
497.72	1154.39
498.08	1172.87
498.44	1191.69
498.80	1211.69
499.17	1231.69
499.53	1252.16
499.89	1273.31
500.26	1294.40
500.62	1315.25
500.98	1337.46
501.34	1359.70
501.71	1382.27
502.07	1404.90
502.43	1427.86
502.79	1450.86
503.16	1473.95
503.52	1496.75
503.88	1519.36
504.24	1542.46
504.60	1566.17
504.97	1590.26
505.33	1614.14
505.69	1639.35
506.05	1664.28
506.41	1688.53
506.78	1712.66
507.14	1737.33
507.50	1762.07
507.86	1786.83
508.22	1812.33
508.59	1836.93
508.95	1862.16
509.31	1886.96
509.67	1912.23
510.03	1937.09
510.39	1962.76
510.75	1987.89
511.12	2012.48
511.48	2037.33
511.84	2062.14
512.20	2086.34
512.56	2110.87
512.92	2135.11
513.28	2159.20
513.64	2183.12
514.00	2206.74
514.37	2230.22
514.73	2253.46
515.09	2275.96
515.45	2298.68
515.81	2321.06
516.17	2343.77
516.53	2365.07
516.89	2386.52
517.25	2406.67
517.61	2426.58
517.97	2446.02
518.33	2464.89
518.69	2484.50
519.05	2504.46
519.41	2523.95
519.77	2543.72
520.13	2562.60
520.49	2580.78
520.85	2598.24
521.21	2615.38
521.57	2633.32
521.93	2649.70
522.29	2666.97
522.65	2684.13
523.01	2700.61
523.37	2715.72
523.73	2731.13
524.09	2746.39
524.45	2761.51
524.81	2776.41
525.17	2792.02
525.53	2806.76
525.89	2822.43
526.25	2836.89
526.61	2849.26
526.97	2862.54
527.33	2875.65
527.68	2888.57
528.04	2901.94
528.40	2914.28
528.76	2927.01
529.12	2938.26
529.48	2950.44
529.84	2960.30
530.20	2971.25
530.56	2982.62
530.91	2994.80
531.27	3005.31
531.63	3016.04
531.99	3026.03
532.35	3036.25
532.71	3045.87
533.07	3057.17
533.42	3066.30
533.78	3076.85
534.14	3087.11
534.50	3096.06
534.86	3105.03
535.21	3112.51
535.57	3121.26
535.93	3129.45
536.29	3136.47
536.65	3144.99
537.00	3152.73
537.36	3161.64
537.72	3168.25
538.08	3175.55
538.44	3182.45
538.79	3189.20
539.15	3196.30
539.51	3203.56
539.87	3210.97
540.22	3217.52
540.58	3223.48
540.94	3230.10
541.29	3234.67
541.65	3237.60
542.01	3241.95
542.37	3245.99
542.72	3251.68
543.08	3255.16
543.44	3259.43
543.79	3262.95
544.15	3265.57
544.51	3269.60
544.87	3272.52
545.22	3275.22
545.58	3276.54
545.94	3278.01
546.29	3279.44
546.65	3280.45
547.01	3281.45
547.36	3282.53
547.72	3283.73
548.07	3283.10
548.43	3282.65
548.79	3282.13
549.14	3284.60
549.50	3285.77
549.86	3286.56
550.21	3285.45
550.57	3285.35
550.92	3284.56
551.28	3283.86
551.64	3283.43
551.99	3282.08
552.35	3281.75
552.70	3281.74
553.06	3281.52
553.41	3281.09
553.77	3281.25
554.13	3280.68
554.48	3280.90
554.84	3280.43
555.19	3278.76
555.55	3278.71
555.90	3278.26
556.26	3277.82
556.61	3276.42
556.97	3273.89
557.32	3270.95
557.68	3268.48
558.03	3265.99
558.39	3263.84
558.74	3263.76
559.10	3263.11
559.45	3262.48
559.81	3260.95
560.16	3259.07
560.52	3258.45
560.87	3256.38
561.23	3252.77
561.58	3249.71
561.94	3244.94
562.29	3240.14
562.64	3236.86
563.00	3232.93
563.35	3228.72
563.71	3225.44
564.06	3222.83
564.42	3219.82
564.77	3217.30
565.12	3215.10
565.48	3212.19
565.83	3209.31
566.19	3206.32
566.54	3202.15
566.89	3196.99
567.25	3191.97
567.60	3188.01
567.96	3182.25
568.31	3177.49
568.66	3173.85
569.02	3170.53
569.37	3167.32
569.72	3164.24
570.08	3160.25
570.43	3154.82
570.78	3150.56
571.14	3145.74
571.49	3140.62
571.84	3136.48
572.20	3130.72
572.55	3125.54
572.90	3119.60
573.26	3113.10
573.61	3105.01
573.96	3097.85
574.31	3090.82
574.67	3084.18
575.02	3076.83
575.37	3069.39
575.72	3062.21
576.08	3054.86
576.43	3046.32
576.78	3038.44
577.13	3030.45
577.49	3022.84
577.84	3015.93
578.19	3007.58
578.54	2999.42
578.90	2990.82
579.25	2981.72
579.60	2972.58
579.95	2963.30
580.30	2954.87
580.66	2946.45
581.01	2937.82
581.36	2928.13
581.71	2919.83
582.06	2910.71
582.42	2902.63
582.77	2893.09
583.12	2883.35
583.47	2873.84
583.82	2864.58
584.17	2854.64
584.53	2845.30
584.88	2834.91
585.23	2824.75
585.58	2815.65
585.93	2805.42
586.28	2795.96
586.63	2786.22
586.98	2776.88
587.34	2767.54
587.69	2757.43
588.04	2747.97
588.39	2738.67
588.74	2728.21
589.09	2718.14
589.44	2707.13
589.79	2695.36
590.14	2685.87
590.49	2675.19
590.84	2665.40
591.19	2655.48
591.54	2644.93
591.89	2633.31
592.25	2622.96
592.60	2611.45
592.95	2599.82
593.30	2589.15
593.65	2578.30
594.00	2567.96
594.35	2558.32
594.70	2547.25
595.05	2536.80
595.40	2524.71
595.75	2512.97
596.10	2502.63
596.45	2491.24
596.80	2481.55
597.15	2471.11
597.50	2460.19
597.85	2450.21
598.19	2437.86
598.54	2426.15
598.89	2415.43
599.24	2405.07
599.59	2394.46
599.94	2385.15
600.29	2375.32
600.64	2364.85
600.99	2352.69
601.34	2341.98
601.69	2330.08
602.04	2319.11
602.39	2308.80
602.74	2300.18
603.08	2291.56
603.43	2283.21
603.78	2273.65
604.13	2263.59
604.48	2253.34
604.83	2243.70
605.18	2234.07
605.53	2224.60
605.87	2214.94
606.22	2205.18
606.57	2195.38
606.92	2184.49
607.27	2173.69
607.62	2163.44
607.96	2153.43
608.31	2145.06
608.66	2134.17
609.01	2123.82
609.36	2113.37
609.70	2102.14
610.05	2089.59
610.40	2077.32
610.75	2065.24
611.10	2054.23
611.44	2041.90
611.79	2031.00
612.14	2019.42
612.49	2006.74
612.83	1995.50
613.18	1983.35
613.53	1971.76
613.88	1959.26
614.22	1947.44
614.57	1935.16
614.92	1922.64
615.27	1910.29
615.61	1897.33
615.96	1885.58
616.31	1874.48
616.65	1863.63
617.00	1852.71
617.35	1842.17
617.70	1830.55
618.04	1818.69
618.39	1806.49
618.74	1795.68
619.08	1783.56
619.43	1771.36
619.78	1760.53
620.12	1749.95
620.47	1740.10
620.82	1728.98
621.16	1718.70
621.51	1708.46
621.85	1697.78
622.20	1686.67
622.55	1675.41
622.89	1664.71
623.24	1654.21
623.59	1643.16
623.93	1632.16
624.28	1621.08
624.62	1610.46
624.97	1600.14
625.32	1589.83
625.66	1580.14
626.01	1570.06
626.35	1561.10
626.70	1552.14
627.04	1542.47
627.39	1531.82
627.73	1521.51
628.08	1512.28
628.43	1502.77
628.77	1493.57
629.12	1483.92
629.46	1474.73
629.81	1465.44
630.15	1455.71
630.50	1446.10
630.84	1436.54
631.19	1426.76
631.53	1417.47
631.88	1407.96
632.22	1399.25
632.57	1390.97
632.91	1382.23
633.26	1373.59
633.60	1364.53
633.95	1355.86
634.29	1347.49
634.64	1339.54
634.98	1330.54
635.32	1321.70
635.67	1313.56
636.01	1305.06
636.36	1296.93
636.70	1288.72
637.05	1280.75
637.39	1272.93
637.73	1264.78
638.08	1257.59
638.42	1250.40
638.77	1242.99
639.11	1235.40
639.45	1227.44
639.80	1219.10
640.14	1211.05
640.49	1203.05
640.83	1194.80
641.17	1186.73
641.52	1178.63
641.86	1170.28
642.20	1162.71
642.55	1154.23
642.89	1145.23
643.23	1136.84
643.58	1129.18
643.92	1121.32
644.26	1113.29
644.61	1105.43
644.95	1097.36
645.29	1089.08
645.64	1080.51
645.98	1072.39
646.32	1064.75
646.66	1057.31
647.01	1049.74
647.35	1042.09
647.69	1034.26
648.04	1026.73
648.38	1018.81
648.72	1011.20
649.06	1003.91
649.41	996.40
649.75	988.85
650.09	982.15
650.43	975.30
650.78	968.19
651.12	960.86
651.46	954.20
651.80	947.53
652.14	941.19
652.49	934.45
652.83	927.96
653.17	920.67
653.51	913.68
653.85	906.88
654.20	900.57
654.54	894.02
654.88	887.66
655.22	881.15
655.56	874.35
655.90	867.54
656.25	860.33
656.59	853.84
656.93	847.78
657.27	841.35
657.61	834.64
657.95	828.40
658.29	822.63
658.64	816.72
658.98	810.66
659.32	804.36
659.66	798.35
660.00	792.54
660.34	787.21
660.68	781.46
661.02	775.31
661.36	769.33
661.70	763.63
662.05	758.12
662.39	752.82
662.73	747.78
663.07	743.06
663.41	738.63
663.75	733.78
664.09	728.75
664.43	723.73
664.77	718.92
665.11	713.91
665.45	709.04
665.79	704.14
666.13	699.57
666.47	695.09
666.81	690.65
667.15	686.03
667.49	681.65
667.83	677.46
668.17	673.39
668.51	669.19
668.85	664.85
669.19	660.65
669.53	656.28
669.87	651.75
670.21	647.29
670.55	642.82
670.89	638.50
671.23	634.51
671.57	630.27
671.91	626.13
672.25	622.06
672.58	617.85
672.92	613.68
673.26	609.59
673.60	605.80
673.94	601.94
674.28	598.32
674.62	594.45
674.96	590.25
675.30	586.30
675.64	582.43
675.97	578.81
676.31	575.46
676.65	572.20
676.99	569.43
677.33	566.37
677.67	562.95
678.01	559.46
678.34	556.02
678.68	552.85
679.02	549.61
679.36	546.35
679.70	542.96
680.04	539.89
680.37	536.58
680.71	533.22
681.05	530.06
681.39	526.81
681.73	523.63
682.06	520.75
682.40	517.85
682.74	514.92
683.08	511.78
683.42	508.43
683.75	505.19
684.09	501.85
684.43	498.70
684.77	495.81
685.10	492.83
685.44	489.73
685.78	486.81
686.12	484.05
686.45	481.13
686.79	478.41
687.13	475.61
687.46	472.98
687.80	470.18
688.14	467.46
688.48	464.87
688.81	462.21
689.15	459.80
689.49	457.06
689.82	454.08
690.16	451.34
690.50	448.59
690.83	445.87
691.17	443.13
691.51	440.36
691.84	437.92
692.18	435.50
692.52	433.21
692.85	430.75
693.19	428.26
693.52	425.96
693.86	423.58
694.20	421.12
694.53	418.56
694.87	416.10
695.21	413.60
695.54	411.14
695.88	408.89
696.21	406.49
696.55	404.32
696.88	402.46
697.22	400.47
697.56	398.70
697.89	396.73
698.23	394.82
698.56	392.82
698.90	390.79
699.23	388.89
699.57	386.95
699.90	385.06
700.24	382.99
700.58	380.99
700.91	379.14
701.25	377.40
701.58	375.75
701.92	374.06
702.25	372.45
702.59	370.84
702.92	368.98
703.26	367.25
703.59	365.68
703.93	364.22
704.26	362.65
704.60	360.83
704.93	359.20
705.26	357.61
705.60	356.15
705.93	354.66
706.27	353.21
706.60	351.68
706.94	350.17
707.27	348.62
707.61	347.07
707.94	345.60
708.27	343.99
708.61	342.58
708.94	341.30
709.28	339.88
709.61	338.31
709.94	337.01
710.28	335.48
710.61	333.97
710.95	332.27
711.28	330.93
711.61	329.57
711.95	328.22
712.28	326.80
712.61	325.45
712.95	324.18
713.28	322.89
713.61	321.63
713.95	320.37
714.28	319.29
714.61	318.13
714.95	316.94
715.28	315.71
715.61	314.31
715.95	312.93
716.28	311.65
716.61	310.49
716.95	309.24
717.28	308.10
717.61	307.08
717.94	305.98
718.28	304.78
718.61	303.73
718.94	302.68
719.27	301.62
719.61	300.63
719.94	299.64
720.27	298.54
720.60	297.53
720.94	296.72
721.27	295.82
721.60	295.00
721.93	294.11
722.27	293.31
722.60	292.59
722.93	291.86
723.26	291.10
723.59	290.28
723.93	289.45
724.26	288.75
724.59	287.85
724.92	287.07
725.25	286.34
725.59	285.54
725.92	284.77
726.25	284.13
726.58	283.27
726.91	282.48
727.24	281.79
727.57	281.09
727.91	280.17
728.24	279.43
728.57	278.58
728.90	277.91
729.23	277.20
729.56	276.54
729.89	275.75
730.22	275.06
730.55	274.26
730.89	273.60
731.22	272.90
731.55	272.29
731.88	271.73
732.21	271.12
732.54	270.45
732.87	269.85
733.20	269.23
733.53	268.71
733.86	268.15
734.19	267.60
734.52	267.07
734.85	266.71
735.18	266.11
735.51	265.67
735.84	265.13
736.17	264.56
736.50	263.92
736.83	263.63
737.16	263.10
737.49	262.71
737.82	262.27
738.15	261.70
738.48	261.11
738.81	260.59
739.14	259.92
739.47	259.38
739.80	258.79
740.13	258.26
740.46	257.74
740.79	257.14
741.12	256.55
741.45	255.99
741.78	255.39
742.11	254.93
742.44	254.43
742.77	253.98
743.10	253.46
743.43	252.94
743.75	252.16
744.08	251.88
744.41	251.40
744.74	250.87
745.07	250.44
745.40	250.06
745.73	249.60
746.06	249.23
746.39	248.91
746.71	248.51
747.04	248.03
747.37	247.62
747.70	247.31
748.03	246.85
748.36	246.54
748.68	246.06
749.01	245.60
749.34	245.18
749.67	244.73
750.00	244.36
750.33	244.09
750.65	243.80
750.98	243.15
751.31	242.78
751.64	242.40
751.97	242.07
752.29	241.64
752.62	241.16
752.95	240.78
753.28	240.40
753.60	240.04
753.93	239.80
754.26	239.42
754.59	238.99
754.91	238.72
755.24	238.33
755.57	238.05
755.90	237.77
756.22	237.48
756.55	237.15
756.88	236.84
757.20	236.53
757.53	236.14
757.86	235.94
758.19	235.64
758.51	235.40
758.84	235.08
759.17	234.83
759.49	234.68
759.82	234.54
760.15	234.21
760.47	233.95
760.80	233.65
761.13	233.48
761.45	233.22
761.78	232.95
762.11	232.62
762.43	232.34
762.76	232.06
763.08	231.85
763.41	231.62
763.74	231.38
764.06	231.15
764.39	230.99
764.71	230.74
765.04	230.51
765.37	230.29
765.69	230.06
766.02	229.84
766.34	229.58
766.67	229.24
767.00	229.05
767.32	228.91
767.65	228.86
767.97	228.64
768.30	228.44
768.62	228.22
768.95	228.05
769.27	227.85
769.60	227.74
769.92	227.43
770.25	227.16
770.57	227.01
770.90	226.77
771.22	226.52
771.55	226.28
771.87	226.08
772.20	225.84
772.52	225.80
772.85	225.82
773.17	225.69
773.50	225.49
773.82	225.40
774.15	225.17
774.47	224.86
774.80	224.71
775.12	224.61
775.45	224.50
775.77	224.41
776.09	224.30
776.42	224.10
776.74	224.05
777.07	223.97
777.39	223.79
777.72	223.64
778.04	223.61
778.36	223.52
778.69	223.38
779.01	223.23
779.33	223.03
779.66	222.72
779.98	222.55
780.31	222.47
780.63	222.41
780.95	222.36
781.28	222.23
781.60	222.10
781.92	222.02
782.25	221.94
782.57	221.84
782.89	221.75
783.22	221.68
783.54	221.55
783.86	221.48
784.19	221.36
784.51	221.30
784.83	221.13
785.16	221.02
785.48	221.00
785.80	220.98
786.12	220.85
786.45	220.78
786.77	220.77
787.09	220.70
787.42	220.59
787.74	220.46
788.06	220.45
788.38	220.29
788.71	220.18
789.03	220.16
789.35	220.05
789.67	219.90
789.99	219.76
790.32	219.67
790.64	219.54
790.96	219.65
791.28	219.55
791.61	219.47
791.93	219.44
792.25	219.31
792.57	219.39
792.89	219.26
793.21	219.20
793.54	219.14
793.86	219.05
794.18	218.98
794.50	218.92
794.82	218.78
795.14	218.73
795.47	218.65
795.79	218.46
796.11	218.40
796.43	218.35
796.75	218.28
797.07	218.25
797.39	218.28
797.71	218.09
798.04	218.01
798.36	217.99
798.68	217.92
799.00	217.86
799.32	217.68
799.64	217.67
799.96	217.60
800.28	217.52
800.60	217.49
800.92	217.41
801.24	217.37
801.56	217.33
801.89	217.28
802.21	217.23
802.53	217.15
802.85	217.17
803.17	217.21
803.49	217.17
803.81	217.05
804.13	216.94
804.45	216.84
804.77	216.82
805.09	216.83
805.41	216.75
805.73	216.66
806.05	216.55
806.37	216.44
806.69	216.40
807.01	216.36
807.33	216.28
807.65	216.15
807.97	216.16
808.28	216.06
808.60	216.11
808.92	216.00
809.24	216.07
809.56	215.97
809.88	215.94
810.20	215.95
810.52	215.95
810.84	215.81
811.16	215.80
811.48	215.77
811.80	215.72
812.12	215.70
812.43	215.70
812.75	215.66
813.07	215.68
813.39	215.63
813.71	215.49
814.03	215.46
814.35	215.46
814.67	215.28
814.98	215.20
815.30	215.12
815.62	215.14
815.94	215.00
816.26	214.93
816.58	214.81
816.89	214.74
817.21	214.68
817.53	214.72
817.85	214.65
818.17	214.54
818.48	214.46
818.80	214.41
819.12	214.38
819.44	214.35
819.76	214.27
820.07	214.23
820.39	214.23
820.71	214.22
821.03	214.19
821.34	214.16
821.66	214.21
821.98	214.16
822.30	214.08
822.61	214.19
822.93	214.12
823.25	214.13
823.57	214.09
823.88	214.11
824.20	213.97
824.52	214.02
824.83	214.01
825.15	214.03
825.47	214.02
825.79	213.97
826.10	213.97
826.42	213.96
826.74	213.99
827.05	213.97
827.37	213.93
827.69	213.89
828.00	213.93
828.32	213.98
828.64	213.99
828.95	214.02
829.27	213.96
829.58	213.95
829.90	213.98
830.22	213.95
830.53	213.89
830.85	213.94
831.17	213.86
831.48	213.86
831.80	213.80
832.11	213.81
832.43	213.77
832.75	213.70
833.06	213.85
833.38	213.74
833.69	213.64
834.01	213.61
834.32	213.55
834.64	213.54
834.96	213.46
835.27	213.34
835.59	213.32
835.90	213.23
836.22	213.23
836.53	213.16
836.85	213.11
837.16	213.23
837.48	213.26
837.79	213.28
838.11	213.32
838.42	213.24
838.74	213.24
839.05	213.27
839.37	213.21
839.68	212.95
840.00	212.97
840.31	213.09
840.63	213.06
840.94	213.10
841.26	213.08
841.57	213.08
841.88	213.15
842.20	213.08
842.51	213.03
842.83	213.03
843.14	213.14
843.46	213.13
843.77	213.07
844.08	213.00
844.40	212.96
844.71	212.87
845.03	212.92
845.34	212.87
845.65	212.76
845.97	212.80
846.28	212.88
846.60	212.81
846.91	212.73
847.22	212.73
847.54	212.76
847.85	212.74
848.16	212.68
848.48	212.62
848.79	212.68
849.10	212.74
849.42	212.79
849.73	212.62
850.04	212.61
850.36	212.52
850.67	212.53
850.98	212.47
851.30	212.47
851.61	212.42
851.92	212.34
852.23	212.45
852.55	212.45
852.86	212.44
853.17	212.46
853.49	212.43
853.80	212.41
854.11	212.36
854.42	212.30
854.74	212.23
855.05	212.14
855.36	212.00
855.67	211.92
855.99	211.78
856.30	211.98
856.61	211.96
856.92	211.98
857.23	211.97
857.55	211.99
857.86	211.94
858.17	211.96
858.48	212.00
858.79	211.92
859.11	211.91
859.42	211.84
859.73	211.83
860.04	211.82
860.35	211.77
860.66	211.74
860.98	211.76
861.29	211.82
861.60	211.90
861.91	211.98
862.22	212.05
862.53	212.04
862.84	211.78
863.16	211.80
863.47	211.72
863.78	211.71
864.09	211.73
864.40	211.82
864.71	211.74
865.02	211.70
865.33	211.74
865.64	211.75
865.95	211.80
866.27	211.92
866.58	211.92
866.89	211.94
867.20	211.90
867.51	211.87
867.82	211.95
868.13	211.98
868.44	211.90
868.75	211.90
869.06	211.95
869.37	212.00
869.68	212.01
869.99	212.11
870.30	212.13
870.61	212.12
870.92	212.02
871.23	212.09
871.54	212.15
871.85	212.17
872.16	212.20
872.47	212.16
872.78	212.09
873.09	212.15
873.40	212.19
873.71	212.21
874.02	212.28
874.33	212.22
874.64	212.16
874.95	212.25
875.26	212.21
875.56	212.18
875.87	212.15
876.18	212.13
876.49	212.23
876.80	212.22
877.11	212.20
877.42	212.23
877.73	212.22
878.04	212.24
878.35	212.16
878.66	212.19
878.96	212.09
879.27	212.04
879.58	211.98
879.89	211.95
880.20	212.03
880.51	212.01
880.82	211.94
881.12	211.92
881.43	211.80
881.74	211.75
882.05	211.75
882.36	211.80
882.67	211.77
882.97	211.60
883.28	211.57
883.59	211.55
883.90	211.50
884.21	211.49
884.51	211.43
884.82	211.54
885.13	211.50
885.44	211.55
885.74	211.48
886.05	211.43
886.36	211.42
886.67	211.33
886.98	211.34
887.28	211.43
887.59	211.43
887.90	211.47
888.20	211.46
888.51	211.47
888.82	211.42
889.13	211.46
889.43	211.65
889.74	211.61
890.05	211.62
890.35	211.65
890.66	211.61
890.97	211.63
891.28	211.52
891.58	211.52
891.89	211.51
892.20	211.55
892.50	211.59
892.81	211.60
893.12	211.62
893.42	211.56
893.73	211.54
894.04	211.50
894.34	211.57
894.65	211.61
894.95	211.64
895.26	211.62
895.57	211.73
895.87	211.54
896.18	211.57
896.48	211.63
896.79	211.62
897.10	211.73
897.40	211.69
897.71	211.71
898.01	211.66
898.32	211.69
898.63	211.67
898.93	211.69
899.24	211.62
899.54	211.57
899.85	211.59
900.15	211.56
900.46	211.65
900.76	211.61
901.07	211.53
901.38	211.46
901.68	211.47
901.99	211.35
902.29	211.33
902.60	211.33
902.90	211.27
903.21	211.29
903.51	211.21
903.82	211.24
904.12	211.23
904.43	211.24
904.73	211.31
905.03	211.39
905.34	211.52
905.64	211.59
905.95	211.59
906.25	211.56
906.56	211.55
906.86	211.61
907.17	211.58
907.47	211.65
907.77	211.68
908.08	211.66
908.38	211.64
908.69	211.64
908.99	211.72
909.30	211.79
909.60	211.77
909.90	211.81
910.21	211.76
910.51	211.75
910.81	211.75
911.12	211.71
911.42	211.60
911.73	211.42
912.03	211.40
912.33	211.43
912.64	211.45
912.94	211.40
913.24	211.32
913.55	211.31
913.85	211.28
914.15	211.26
914.46	211.31
914.76	211.26
915.06	211.27
915.37	211.20
915.67	211.12
915.97	211.15
916.27	211.09
916.58	211.12
916.88	211.10
917.18	211.10
917.49	211.22
917.79	211.24
918.09	211.27
918.39	211.30
918.70	211.29
919.00	211.23
919.30	211.35
919.60	211.36
919.91	211.31
920.21	211.31
920.51	211.28
920.81	211.26
921.12	211.36
921.42	211.37
921.72	211.35
922.02	211.31
922.32	211.29
922.63	211.31
922.93	211.41
923.23	211.39
923.53	211.41
923.83	211.24
924.13	211.20
924.44	211.18
924.74	211.20
925.04	211.18
925.34	211.20
925.64	211.10
925.94	211.06
926.24	211.20
926.55	211.15
926.85	211.13
927.15	211.06
927.45	211.00
927.75	210.99
928.05	211.04
928.35	211.13
928.65	211.15
928.95	211.15
929.26	211.04
929.56	211.03
929.86	211.01
930.16	210.98
930.46	211.00
930.76	211.07
931.06	210.95
931.36	210.96
931.66	210.95
931.96	211.06
932.26	211.06
932.56	211.05
932.86	211.07
933.16	211.13
933.46	211.14
933.76	211.15
934.06	211.17
934.36	211.17
934.66	211.14
934.96	211.09
935.26	211.08
935.56	211.09
935.86	211.08
936.16	211.03
936.46	211.09
936.76	211.09
937.06	211.01
937.36	211.03
937.66	210.99
937.96	210.98
938.26	210.87
938.56	210.87
938.86	210.83
939.16	210.90
939.46	210.95
939.76	210.97
940.06	210.99
940.35	210.97
940.65	210.86
940.95	210.80
941.25	210.74
941.55	210.76
941.85	210.76
942.15	210.82
942.45	210.92
942.75	210.90
943.04	210.96
943.34	211.05
943.64	211.04
943.94	211.08
944.24	211.20
944.54	211.20
944.84	211.23
945.13	211.19
945.43	211.13
945.73	211.07
946.03	211.03
946.33	211.02
946.62	211.03
946.92	211.07
947.22	211.08
947.52	211.16
947.82	211.17
948.11	211.12
948.41	211.08
948.71	211.04
949.01	211.09
949.31	211.03
949.60	210.95
949.90	211.02
950.20	211.04
950.50	210.97
950.79	211.01
951.09	210.97
951.39	210.99
951.69	211.00
951.98	211.08
952.28	211.12
952.58	211.08
952.87	211.01
953.17	211.06
953.47	211.13
953.76	211.12
954.06	211.08
954.36	211.12
954.66	211.13
954.95	211.14
955.25	211.13
955.55	211.20
955.84	211.21
956.14	211.21
956.44	211.20
956.73	211.16
957.03	211.10
957.32	211.17
957.62	211.10
957.92	211.10
958.21	211.02
958.51	211.21
958.81	211.28
959.10	211.32
959.40	211.30
959.69	211.27
959.99	211.28
960.29	211.26
960.58	211.25
960.88	211.30
961.17	211.24
961.47	211.23
961.76	211.18
962.06	211.19
962.36	211.16
962.65	211.12
962.95	211.15
963.24	211.17
963.54	211.15
963.83	211.16
964.13	211.15
964.42	211.07
964.72	210.95
965.01	210.91
965.31	210.90
965.60	210.86
965.90	210.92
966.19	210.87
966.49	210.89
966.78	210.90
967.08	210.85
967.37	210.91
967.67	210.89
967.96	210.89
968.26	210.92
968.55	210.89
968.85	210.85
969.14	210.85
969.43	210.87
969.73	210.85
970.02	210.89
970.32	210.90
970.61	210.91
970.91	210.85
971.20	210.84
971.49	210.79
971.79	210.78
972.08	210.75
972.38	210.80
972.67	210.75
972.96	210.74
973.26	210.71
973.55	210.76
973.85	210.79
974.14	210.73
974.43	210.70
974.73	210.69
975.02	210.78
975.31	210.74
975.61	210.71
975.90	210.73
976.19	210.71
976.49	210.64
976.78	210.74
977.07	210.69
977.37	210.73
977.66	210.78
977.95	210.81
978.24	210.78
978.54	210.80
978.83	210.87
979.12	210.85
979.42	210.82
979.71	210.75
980.00	210.72
980.29	210.80
980.59	210.77
980.88	210.86
981.17	210.82
981.46	210.88
981.76	210.80
982.05	210.85
982.34	210.89
982.63	210.96
982.93	210.89
983.22	210.98
983.51	210.92
983.80	210.93
984.09	210.92
984.39	210.93
984.68	210.85
984.97	210.88
985.26	210.90
985.55	210.96
985.85	210.99
986.14	211.01
986.43	211.06
986.72	211.08
987.01	210.98
987.30	211.00
987.59	210.95
987.89	211.05
988.18	210.97
988.47	210.91
988.76	210.89
989.05	210.89
989.34	210.90
989.63	210.94
989.92	210.91
990.22	210.86
990.51	210.87
990.80	210.95
991.09	210.96
991.38	210.97
991.67	210.95
991.96	210.90
992.25	210.86
992.54	210.77
992.83	210.74
993.12	210.74
993.41	210.79
993.70	210.86
993.99	210.90
994.28	211.02
994.58	211.09
994.87	211.11
995.16	211.16
995.45	211.11
995.74	211.13
996.03	211.19
996.32	211.31
996.61	211.32
996.90	211.27
997.19	211.23
997.48	211.24
997.77	211.29
998.06	211.27
998.34	211.30
998.63	211.30
998.92	211.25
999.21	211.27
999.50	211.19
999.79	211.15
1000.08	211.10
1000.37	211.01
1000.66	210.98
1000.95	210.94
1001.24	210.95
1001.53	211.00
1001.82	210.98
1002.11	210.90
1002.40	210.97
1002.68	211.02
1002.97	211.12
1003.26	211.09
1003.55	211.05
1003.84	211.01
1004.13	211.16
1004.42	211.12
1004.71	211.18
1004.99	211.30
1005.28	211.46
1005.57	211.51
1005.86	211.46
1006.15	211.44
1006.44	211.44
1006.72	211.45
1007.01	211.47
1007.30	211.42
1007.59	211.42
1007.88	211.38
1008.17	211.41
1008.45	211.34
1008.74	211.23
1009.03	211.14
1009.32	211.16
1009.60	211.16
1009.89	211.18
1010.18	211.08
1010.47	211.08
1010.76	211.02
1011.04	210.93
1011.33	210.88
1011.62	210.85
1011.91	210.84
1012.19	210.87
1012.48	210.91
1012.77	210.88
1013.05	210.97
1013.34	210.99
1013.63	210.91
1013.92	210.92
1014.20	210.92
1014.49	210.87
1014.78	210.93
1015.06	210.92
1015.35	210.97
1015.64	211.03
1015.92	211.05
1016.21	211.03
1016.50	211.01
1016.78	211.06
1017.07	211.15
1017.36	211.08
1017.64	211.07
1017.93	211.14
1018.22	211.14
1018.50	211.06
1018.79	211.13
1019.08	211.03
1019.36	211.02
1019.65	211.05
1019.93	211.11
1020.22	211.12
1020.51	211.28
1020.79	211.21
1021.08	211.25
1021.36	210.10
1021.65	211.80
1021.94	210.75
1022.22	210.35
1022.51	211.10
1022.79	212.00
1023.08	210.80
1023.36	214.05
1023.65	210.10
>>>>>End Processed Spectral Data<<<<<
