SpectraSuite Data File
++++++++++++++++++++++++++++++++++++
Date: Mon Feb 25 17:30:12 EST 2013
User: group
Dark Spectrum Present: No
Reference Spectrum Present: No
Number of Sampled Component Spectra: 1
Spectrometers: USB2E7196
Integration Time (usec): 52000 (USB2E7196)
Spectra Averaged: 20 (USB2E7196)
Boxcar Smoothing: 10 (USB2E7196)
Correct for Electrical Dark: No (USB2E7196)
Strobe/Lamp Enabled: No (USB2E7196)
Correct for Detector Non-linearity: No (USB2E7196)
Correct for Stray Light: No (USB2E7196)
Number of Pixels in Processed Spectrum: 2048
>>>>>Begin Processed Spectral Data<<<<<
339.09	0.00
339.48	198.60
339.86	202.20
340.24	202.00
340.63	202.90
341.01	207.50
341.39	206.30
341.78	207.10
342.16	208.95
342.54	208.55
342.93	198.56
343.31	208.59
343.69	209.16
344.07	209.56
344.46	209.94
344.84	210.38
345.22	210.62
345.60	210.85
345.99	211.07
346.37	211.19
346.75	211.29
347.13	211.30
347.52	211.40
347.90	211.49
348.28	211.58
348.66	211.63
349.05	211.57
349.43	211.64
349.81	211.63
350.19	211.64
350.57	211.70
350.96	211.67
351.34	211.77
351.72	211.90
352.10	211.99
352.48	212.06
352.87	212.08
353.25	212.08
353.63	212.11
354.01	212.15
354.39	212.23
354.77	212.29
355.15	212.48
355.54	212.55
355.92	212.50
356.30	212.46
356.68	212.64
357.06	212.66
357.44	212.68
357.82	212.70
358.20	212.83
358.58	212.87
358.97	213.09
359.35	213.17
359.73	213.21
360.11	213.23
360.49	213.29
360.87	213.38
361.25	213.41
361.63	213.53
362.01	213.56
362.39	213.60
362.77	213.69
363.15	213.62
363.53	213.54
363.91	213.64
364.29	213.66
364.67	213.53
365.05	213.60
365.43	213.67
365.81	213.78
366.19	213.88
366.57	214.02
366.95	214.00
367.33	214.00
367.71	214.01
368.09	214.04
368.47	214.13
368.85	214.07
369.23	214.11
369.61	214.01
369.99	214.10
370.37	214.07
370.75	214.15
371.13	214.07
371.51	214.11
371.89	214.07
372.27	214.05
372.65	214.01
373.03	213.96
373.41	213.92
373.78	213.83
374.16	213.67
374.54	213.50
374.92	213.39
375.30	213.33
375.68	213.19
376.06	213.18
376.44	213.10
376.82	213.08
377.19	213.13
377.57	213.16
377.95	213.02
378.33	212.97
378.71	212.80
379.09	212.80
379.47	212.75
379.84	212.65
380.22	212.64
380.60	212.49
380.98	212.48
381.36	212.42
381.73	212.32
382.11	212.28
382.49	212.29
382.87	212.25
383.25	212.19
383.62	212.35
384.00	212.29
384.38	212.20
384.76	212.21
385.13	212.17
385.51	212.14
385.89	212.10
386.27	212.07
386.64	212.03
387.02	212.05
387.40	212.04
387.78	212.00
388.15	212.00
388.53	211.99
388.91	212.01
389.29	212.05
389.66	212.03
390.04	211.97
390.42	211.97
390.79	211.95
391.17	211.94
391.55	211.76
391.92	211.77
392.30	211.73
392.68	211.62
393.05	211.58
393.43	211.50
393.81	211.48
394.18	211.48
394.56	211.55
394.94	211.50
395.31	211.50
395.69	211.63
396.06	211.62
396.44	211.63
396.82	211.53
397.19	211.46
397.57	211.56
397.95	211.64
398.32	211.65
398.70	211.64
399.07	211.73
399.45	211.71
399.82	211.66
400.20	211.71
400.58	211.84
400.95	211.82
401.33	211.91
401.70	212.03
402.08	212.08
402.45	212.11
402.83	212.18
403.20	212.23
403.58	212.25
403.95	212.37
404.33	212.52
404.71	212.64
405.08	212.90
405.46	212.93
405.83	213.04
406.21	213.19
406.58	213.37
406.96	213.46
407.33	213.70
407.70	213.93
408.08	214.27
408.45	214.37
408.83	214.61
409.20	214.80
409.58	215.01
409.95	215.31
410.33	215.60
410.70	215.89
411.08	216.23
411.45	216.59
411.82	216.90
412.20	217.25
412.57	217.76
412.95	218.07
413.32	218.60
413.69	219.11
414.07	219.65
414.44	220.23
414.82	220.85
415.19	221.49
415.56	222.16
415.94	222.84
416.31	223.76
416.68	224.64
417.06	225.66
417.43	226.64
417.81	227.59
418.18	228.70
418.55	229.93
418.93	231.16
419.30	232.43
419.67	233.74
420.04	235.24
420.42	236.64
420.79	238.42
421.16	240.05
421.54	241.79
421.91	243.55
422.28	245.37
422.66	247.36
423.03	249.38
423.40	251.54
423.77	253.70
424.15	255.82
424.52	258.02
424.89	260.48
425.26	262.83
425.64	265.17
426.01	267.57
426.38	270.13
426.75	272.75
427.13	275.47
427.50	278.46
427.87	281.38
428.24	284.39
428.61	287.20
428.99	290.43
429.36	293.85
429.73	297.14
430.10	300.56
430.47	303.91
430.85	307.43
431.22	311.05
431.59	315.08
431.96	318.88
432.33	323.22
432.70	327.20
433.08	332.01
433.45	336.56
433.82	341.11
434.19	346.07
434.56	350.94
434.93	355.60
435.30	360.10
435.68	365.20
436.05	370.13
436.42	375.03
436.79	379.52
437.16	384.28
437.53	389.52
437.90	394.60
438.27	399.60
438.64	404.88
439.01	409.72
439.38	413.90
439.75	418.03
440.13	422.52
440.50	426.97
440.87	430.55
441.24	434.23
441.61	438.19
441.98	441.15
442.35	444.57
442.72	448.08
443.09	451.49
443.46	453.55
443.83	454.97
444.20	456.19
444.57	457.83
444.94	458.69
445.31	459.34
445.68	460.11
446.05	460.40
446.42	459.56
446.79	458.79
447.16	457.95
447.53	457.40
447.90	455.40
448.27	453.35
448.64	450.56
449.01	448.47
449.37	445.05
449.74	441.64
450.11	437.66
450.48	433.28
450.85	428.90
451.22	425.09
451.59	421.40
451.96	417.83
452.33	413.30
452.70	409.13
453.07	404.27
453.43	399.23
453.80	394.44
454.17	389.91
454.54	385.63
454.91	380.96
455.28	376.33
455.65	372.03
456.02	367.86
456.38	364.13
456.75	359.68
457.12	356.01
457.49	352.29
457.86	348.75
458.23	345.65
458.59	342.26
458.96	338.78
459.33	335.80
459.70	332.85
460.07	330.42
460.43	327.62
460.80	325.02
461.17	322.71
461.54	320.34
461.91	318.06
462.27	315.81
462.64	313.85
463.01	311.88
463.38	309.91
463.74	307.82
464.11	306.05
464.48	304.48
464.85	302.77
465.21	301.53
465.58	300.04
465.95	298.39
466.32	296.99
466.68	295.61
467.05	294.30
467.42	292.92
467.78	291.57
468.15	290.23
468.52	289.29
468.88	288.00
469.25	286.81
469.62	285.98
469.98	285.00
470.35	284.11
470.72	283.14
471.08	282.27
471.45	281.49
471.82	280.75
472.18	279.86
472.55	279.22
472.92	278.56
473.28	278.00
473.65	277.38
474.02	276.82
474.38	276.45
474.75	276.08
475.11	275.72
475.48	275.41
475.85	275.33
476.21	275.06
476.58	274.94
476.94	274.95
477.31	274.91
477.67	274.80
478.04	274.89
478.41	275.03
478.77	275.32
479.14	275.45
479.50	275.72
479.87	276.16
480.23	276.64
480.60	276.94
480.96	277.43
481.33	278.20
481.69	278.78
482.06	279.39
482.42	280.09
482.79	280.77
483.15	281.75
483.52	282.70
483.88	283.73
484.25	284.80
484.61	285.89
484.98	286.88
485.34	288.23
485.71	289.51
486.07	290.91
486.44	292.23
486.80	293.73
487.17	295.38
487.53	297.02
487.90	298.77
488.26	300.68
488.62	302.76
488.99	304.68
489.35	306.84
489.72	309.16
490.08	311.50
490.44	313.96
490.81	316.48
491.17	319.07
491.54	321.92
491.90	324.88
492.26	328.00
492.63	331.44
492.99	334.88
493.36	338.65
493.72	342.47
494.08	346.48
494.45	350.80
494.81	355.25
495.17	359.84
495.54	364.80
495.90	369.94
496.26	375.04
496.63	380.60
496.99	386.40
497.35	392.41
497.72	398.60
498.08	405.09
498.44	411.80
498.80	418.99
499.17	426.35
499.53	433.98
499.89	441.90
500.26	449.94
500.62	458.21
500.98	466.87
501.34	475.91
501.71	485.32
502.07	494.89
502.43	504.69
502.79	514.92
503.16	525.30
503.52	536.00
503.88	547.06
504.24	558.49
504.60	570.12
504.97	582.15
505.33	594.62
505.69	607.77
506.05	621.02
506.41	634.32
506.78	647.97
507.14	661.81
507.50	676.15
507.86	690.79
508.22	706.06
508.59	721.34
508.95	737.13
509.31	753.06
509.67	769.57
510.03	786.25
510.39	803.48
510.75	820.98
511.12	838.86
511.48	857.10
511.84	875.51
512.20	894.10
512.56	912.98
512.92	932.15
513.28	951.21
513.64	970.63
514.00	990.09
514.37	1009.92
514.73	1030.20
515.09	1050.55
515.45	1070.92
515.81	1091.36
516.17	1112.42
516.53	1133.35
516.89	1154.58
517.25	1175.59
517.61	1196.85
517.97	1217.85
518.33	1238.92
518.69	1260.10
519.05	1281.65
519.41	1303.29
519.77	1325.22
520.13	1346.69
520.49	1368.10
520.85	1390.19
521.21	1411.98
521.57	1434.35
521.93	1455.99
522.29	1478.38
522.65	1500.28
523.01	1522.38
523.37	1544.23
523.73	1565.92
524.09	1587.56
524.45	1609.24
524.81	1631.19
525.17	1653.21
525.53	1674.88
525.89	1696.58
526.25	1717.82
526.61	1738.56
526.97	1759.72
527.33	1780.00
527.68	1801.02
528.04	1821.74
528.40	1841.57
528.76	1861.94
529.12	1881.84
529.48	1902.71
529.84	1922.40
530.20	1942.31
530.56	1962.20
530.91	1982.06
531.27	2001.62
531.63	2020.73
531.99	2039.80
532.35	2057.96
532.71	2075.85
533.07	2094.86
533.42	2112.74
533.78	2131.27
534.14	2149.04
534.50	2165.02
534.86	2182.60
535.21	2198.38
535.57	2215.60
535.93	2232.58
536.29	2248.51
536.65	2264.63
537.00	2279.27
537.36	2293.79
537.72	2308.16
538.08	2322.43
538.44	2336.71
538.79	2351.51
539.15	2365.55
539.51	2379.06
539.87	2393.95
540.22	2407.52
540.58	2421.85
540.94	2435.64
541.29	2447.71
541.65	2459.36
542.01	2472.05
542.37	2483.45
542.72	2495.27
543.08	2505.49
543.44	2516.49
543.79	2525.88
544.15	2535.50
544.51	2545.81
544.87	2556.38
545.22	2565.03
545.58	2572.95
545.94	2579.79
546.29	2585.37
546.65	2591.42
547.01	2597.14
547.36	2601.78
547.72	2607.13
548.07	2610.07
548.43	2613.27
548.79	2616.56
549.14	2620.61
549.50	2624.46
549.86	2628.04
550.21	2631.55
550.57	2635.10
550.92	2636.91
551.28	2639.35
551.64	2641.07
551.99	2643.06
552.35	2643.82
552.70	2646.17
553.06	2648.78
553.41	2651.25
553.77	2653.53
554.13	2655.16
554.48	2657.14
554.84	2658.14
555.19	2658.00
555.55	2658.26
555.90	2658.41
556.26	2658.84
556.61	2658.22
556.97	2656.83
557.32	2655.70
557.68	2653.82
558.03	2652.03
558.39	2649.94
558.74	2649.43
559.10	2648.25
559.45	2646.19
559.81	2645.05
560.16	2642.07
560.52	2638.95
560.87	2636.12
561.23	2632.32
561.58	2629.58
561.94	2625.98
562.29	2622.43
562.64	2620.26
563.00	2617.35
563.35	2614.84
563.71	2612.58
564.06	2610.29
564.42	2608.26
564.77	2605.65
565.12	2603.55
565.48	2599.92
565.83	2597.21
566.19	2593.40
566.54	2588.78
566.89	2584.59
567.25	2580.46
567.60	2577.00
567.96	2573.32
568.31	2569.53
568.66	2565.66
569.02	2561.31
569.37	2556.24
569.72	2552.41
570.08	2546.93
570.43	2541.70
570.78	2536.01
571.14	2529.67
571.49	2523.06
571.84	2516.96
572.20	2510.37
572.55	2503.94
572.90	2497.37
573.26	2490.42
573.61	2483.41
573.96	2477.69
574.31	2470.21
574.67	2462.48
575.02	2454.48
575.37	2445.83
575.72	2436.85
576.08	2429.59
576.43	2421.18
576.78	2413.78
577.13	2405.71
577.49	2398.30
577.84	2390.76
578.19	2383.41
578.54	2376.38
578.90	2370.02
579.25	2361.77
579.60	2352.69
579.95	2343.89
580.30	2336.65
580.66	2328.84
581.01	2320.25
581.36	2310.93
581.71	2302.97
582.06	2294.67
582.42	2286.93
582.77	2278.81
583.12	2270.68
583.47	2262.61
583.82	2254.76
584.17	2245.73
584.53	2236.95
584.88	2227.94
585.23	2219.22
585.58	2210.20
585.93	2200.56
586.28	2191.47
586.63	2182.98
586.98	2175.25
587.34	2167.24
587.69	2157.87
588.04	2149.09
588.39	2141.33
588.74	2132.67
589.09	2124.47
589.44	2115.28
589.79	2106.86
590.14	2099.20
590.49	2090.95
590.84	2081.98
591.19	2074.24
591.54	2065.89
591.89	2056.47
592.25	2047.87
592.60	2038.54
592.95	2029.51
593.30	2020.73
593.65	2011.32
594.00	2001.92
594.35	1994.26
594.70	1985.27
595.05	1977.32
595.40	1968.78
595.75	1959.57
596.10	1952.03
596.45	1944.01
596.80	1936.67
597.15	1928.73
597.50	1919.83
597.85	1911.80
598.19	1903.67
598.54	1895.15
598.89	1887.55
599.24	1881.02
599.59	1874.08
599.94	1867.68
600.29	1860.22
600.64	1852.82
600.99	1844.73
601.34	1838.16
601.69	1829.62
602.04	1821.92
602.39	1814.03
602.74	1806.71
603.08	1800.19
603.43	1793.03
603.78	1785.01
604.13	1777.13
604.48	1769.55
604.83	1763.03
605.18	1756.44
605.53	1749.15
605.87	1741.86
606.22	1735.11
606.57	1727.43
606.92	1719.74
607.27	1712.09
607.62	1705.23
607.96	1698.58
608.31	1692.86
608.66	1685.19
609.01	1677.91
609.36	1670.64
609.70	1663.05
610.05	1655.47
610.40	1647.75
610.75	1639.41
611.10	1632.18
611.44	1623.46
611.79	1614.78
612.14	1605.83
612.49	1596.50
612.83	1587.98
613.18	1578.92
613.53	1569.67
613.88	1560.54
614.22	1551.87
614.57	1542.44
614.92	1533.16
615.27	1524.00
615.61	1514.38
615.96	1505.76
616.31	1497.58
616.65	1489.92
617.00	1482.01
617.35	1473.90
617.70	1465.16
618.04	1456.59
618.39	1447.60
618.74	1439.66
619.08	1431.35
619.43	1423.50
619.78	1415.93
620.12	1408.09
620.47	1400.35
620.82	1392.30
621.16	1384.28
621.51	1376.15
621.85	1368.36
622.20	1360.20
622.55	1352.02
622.89	1344.15
623.24	1336.54
623.59	1328.24
623.93	1319.76
624.28	1311.63
624.62	1303.66
624.97	1295.73
625.32	1288.26
625.66	1281.04
626.01	1274.01
626.35	1267.01
626.70	1259.56
627.04	1252.27
627.39	1245.07
627.73	1237.93
628.08	1231.29
628.43	1224.21
628.77	1217.28
629.12	1210.08
629.46	1203.72
629.81	1197.00
630.15	1190.02
630.50	1182.75
630.84	1175.59
631.19	1168.59
631.53	1161.99
631.88	1154.69
632.22	1147.56
632.57	1140.81
632.91	1133.55
633.26	1126.39
633.60	1119.45
633.95	1112.94
634.29	1106.07
634.64	1099.39
634.98	1092.56
635.32	1085.70
635.67	1079.46
636.01	1072.94
636.36	1066.65
636.70	1060.40
637.05	1053.98
637.39	1047.77
637.73	1041.78
638.08	1036.07
638.42	1030.42
638.77	1024.16
639.11	1018.11
639.45	1012.40
639.80	1006.05
640.14	999.90
640.49	993.86
640.83	987.89
641.17	981.63
641.52	975.50
641.86	969.39
642.20	963.42
642.55	956.93
642.89	950.61
643.23	944.29
643.58	938.48
643.92	931.99
644.26	926.05
644.61	920.07
644.95	914.05
645.29	908.07
645.64	901.75
645.98	895.79
646.32	890.12
646.66	883.98
647.01	878.24
647.35	872.59
647.69	866.53
648.04	860.66
648.38	854.78
648.72	848.98
649.06	842.91
649.41	836.94
649.75	831.50
650.09	825.80
650.43	820.06
650.78	813.96
651.12	808.21
651.46	802.48
651.80	796.74
652.14	790.97
652.49	785.19
652.83	779.68
653.17	773.79
653.51	768.10
653.85	762.82
654.20	757.20
654.54	751.51
654.88	746.08
655.22	740.38
655.56	734.66
655.90	728.88
656.25	723.42
656.59	718.18
656.93	713.07
657.27	708.16
657.61	702.94
657.95	697.99
658.29	692.97
658.64	688.04
658.98	683.02
659.32	677.79
659.66	672.80
660.00	667.62
660.34	662.64
660.68	657.43
661.02	652.40
661.36	647.76
661.70	642.97
662.05	638.67
662.39	634.45
662.73	630.20
663.07	626.19
663.41	622.11
663.75	617.81
664.09	613.23
664.43	608.51
664.77	604.33
665.11	600.16
665.45	595.88
665.79	591.35
666.13	587.20
666.47	583.03
666.81	579.06
667.15	575.21
667.49	571.52
667.83	567.97
668.17	564.18
668.51	560.49
668.85	557.09
669.19	553.38
669.53	549.43
669.87	545.56
670.21	541.76
670.55	537.86
670.89	534.38
671.23	531.00
671.57	527.70
671.91	524.20
672.25	520.67
672.58	517.35
672.92	514.15
673.26	511.04
673.60	508.09
673.94	504.83
674.28	501.65
674.62	498.47
674.96	495.29
675.30	492.35
675.64	489.17
675.97	486.10
676.31	483.05
676.65	480.35
676.99	477.81
677.33	475.05
677.67	472.26
678.01	469.27
678.34	466.35
678.68	463.62
679.02	460.78
679.36	458.04
679.70	455.34
680.04	452.61
680.37	449.73
680.71	446.92
681.05	444.38
681.39	441.62
681.73	438.99
682.06	436.60
682.40	434.12
682.74	431.61
683.08	429.05
683.42	426.54
683.75	424.07
684.09	421.55
684.43	419.08
684.77	416.64
685.10	414.18
685.44	411.84
685.78	409.32
686.12	407.18
686.45	404.94
686.79	402.69
687.13	400.74
687.46	398.63
687.80	396.58
688.14	394.36
688.48	392.44
688.81	390.29
689.15	388.00
689.49	385.80
689.82	383.71
690.16	381.52
690.50	379.41
690.83	377.22
691.17	375.07
691.51	373.00
691.84	371.05
692.18	369.09
692.52	367.28
692.85	365.58
693.19	363.74
693.52	361.84
693.86	359.98
694.20	358.09
694.53	356.30
694.87	354.38
695.21	352.60
695.54	350.72
695.88	348.96
696.21	347.20
696.55	345.48
696.88	343.84
697.22	342.23
697.56	340.62
697.89	339.05
698.23	337.49
698.56	335.94
698.90	334.53
699.23	333.01
699.57	331.39
699.90	329.77
700.24	328.06
700.58	326.57
700.91	325.05
701.25	323.66
701.58	322.33
701.92	320.94
702.25	319.48
702.59	318.05
702.92	316.66
703.26	315.38
703.59	314.13
703.93	313.01
704.26	311.76
704.60	310.50
704.93	309.25
705.26	307.97
705.60	306.84
705.93	305.51
706.27	304.35
706.60	303.29
706.94	302.24
707.27	301.21
707.61	300.10
707.94	299.02
708.27	297.84
708.61	296.74
708.94	295.77
709.28	294.73
709.61	293.72
709.94	292.72
710.28	291.82
710.61	290.85
710.95	289.67
711.28	288.79
711.61	287.86
711.95	286.95
712.28	285.98
712.61	285.06
712.95	284.25
713.28	283.41
713.61	282.52
713.95	281.64
714.28	280.80
714.61	279.95
714.95	279.09
715.28	278.20
715.61	277.20
715.95	276.23
716.28	275.36
716.61	274.49
716.95	273.68
717.28	272.78
717.61	272.01
717.94	271.32
718.28	270.52
718.61	269.77
718.94	268.99
719.27	268.30
719.61	267.57
719.94	266.83
720.27	266.10
720.60	265.33
720.94	264.64
721.27	263.88
721.60	263.26
721.93	262.67
722.27	262.14
722.60	261.52
722.93	261.00
723.26	260.58
723.59	260.01
723.93	259.49
724.26	258.92
724.59	258.33
724.92	257.79
725.25	257.20
725.59	256.74
725.92	256.25
726.25	255.81
726.58	255.38
726.91	254.84
727.24	254.33
727.57	253.85
727.91	253.35
728.24	252.93
728.57	252.41
728.90	251.99
729.23	251.41
729.56	251.18
729.89	250.74
730.22	250.27
730.55	249.76
730.89	249.30
731.22	248.85
731.55	248.36
731.88	247.95
732.21	247.55
732.54	247.08
732.87	246.69
733.20	246.21
733.53	245.77
733.86	245.36
734.19	244.97
734.52	244.68
734.85	244.40
735.18	244.08
735.51	243.76
735.84	243.36
736.17	243.07
736.50	242.56
736.83	242.38
737.16	242.00
737.49	241.72
737.82	241.34
738.15	241.03
738.48	240.71
738.81	240.29
739.14	239.87
739.47	239.46
739.80	239.10
740.13	238.81
740.46	238.46
740.79	238.13
741.12	237.78
741.45	237.40
741.78	237.07
742.11	236.80
742.44	236.53
742.77	236.31
743.10	236.02
743.43	235.69
743.75	235.21
744.08	235.17
744.41	234.88
744.74	234.58
745.07	234.25
745.40	234.08
745.73	233.94
746.06	233.70
746.39	233.42
746.71	233.12
747.04	232.81
747.37	232.52
747.70	232.31
748.03	232.11
748.36	231.86
748.68	231.51
749.01	231.23
749.34	230.92
749.67	230.64
750.00	230.39
750.33	230.25
750.65	230.07
750.98	229.54
751.31	229.32
751.64	229.11
751.97	228.94
752.29	228.68
752.62	228.37
752.95	228.15
753.28	227.96
753.60	227.80
753.93	227.64
754.26	227.45
754.59	227.16
754.91	226.97
755.24	226.85
755.57	226.65
755.90	226.49
756.22	226.30
756.55	226.13
756.88	225.92
757.20	225.65
757.53	225.44
757.86	225.33
758.19	225.19
758.51	225.03
758.84	224.82
759.17	224.65
759.49	224.44
759.82	224.34
760.15	224.25
760.47	224.04
760.80	223.87
761.13	223.68
761.45	223.53
761.78	223.42
762.11	223.20
762.43	223.11
762.76	222.87
763.08	222.77
763.41	222.58
763.74	222.46
764.06	222.24
764.39	222.08
764.71	221.92
765.04	221.79
765.37	221.62
765.69	221.50
766.02	221.34
766.34	221.26
766.67	221.17
767.00	221.10
767.32	221.14
767.65	221.11
767.97	220.99
768.30	220.91
768.62	220.74
768.95	220.63
769.27	220.40
769.60	220.35
769.92	220.18
770.25	220.08
770.57	219.94
770.90	219.90
771.22	219.75
771.55	219.66
771.87	219.54
772.20	219.47
772.52	219.48
772.85	219.61
773.17	219.49
773.50	219.32
773.82	219.13
774.15	218.95
774.47	218.71
774.80	218.69
775.12	218.59
775.45	218.48
775.77	218.42
776.09	218.37
776.42	218.19
776.74	218.14
777.07	218.03
777.39	217.94
777.72	217.81
778.04	217.70
778.36	217.60
778.69	217.53
779.01	217.49
779.33	217.36
779.66	217.05
779.98	216.97
780.31	216.95
780.63	217.01
780.95	216.97
781.28	216.94
781.60	216.82
781.92	216.74
782.25	216.60
782.57	216.52
782.89	216.47
783.22	216.40
783.54	216.40
783.86	216.34
784.19	216.26
784.51	216.32
784.83	216.29
785.16	216.19
785.48	216.20
785.80	216.11
786.12	216.00
786.45	215.95
786.77	215.95
787.09	215.88
787.42	215.78
787.74	215.66
788.06	215.58
788.38	215.54
788.71	215.51
789.03	215.54
789.35	215.51
789.67	215.49
789.99	215.47
790.32	215.38
790.64	215.34
790.96	215.50
791.28	215.40
791.61	215.36
791.93	215.38
792.25	215.25
792.57	215.37
792.89	215.33
793.21	215.28
793.54	215.24
793.86	215.14
794.18	215.04
794.50	214.99
794.82	214.97
795.14	214.99
795.47	214.96
795.79	214.95
796.11	214.86
796.43	214.76
796.75	214.74
797.07	214.72
797.39	214.73
797.71	214.62
798.04	214.61
798.36	214.60
798.68	214.57
799.00	214.58
799.32	214.44
799.64	214.39
799.96	214.41
800.28	214.40
800.60	214.41
800.92	214.42
801.24	214.44
801.56	214.40
801.89	214.37
802.21	214.36
802.53	214.27
802.85	214.32
803.17	214.41
803.49	214.37
803.81	214.38
804.13	214.38
804.45	214.25
804.77	214.32
805.09	214.33
805.41	214.32
805.73	214.27
806.05	214.15
806.37	214.21
806.69	214.22
807.01	214.20
807.33	214.15
807.65	214.08
807.97	214.16
808.28	214.18
808.60	214.22
808.92	214.21
809.24	214.36
809.56	214.30
809.88	214.20
810.20	214.20
810.52	214.16
810.84	214.11
811.16	214.16
811.48	214.03
811.80	214.09
812.12	213.99
812.43	214.06
812.75	214.06
813.07	214.02
813.39	214.00
813.71	213.93
814.03	213.94
814.35	213.89
814.67	213.71
814.98	213.69
815.30	213.59
815.62	213.52
815.94	213.34
816.26	213.28
816.58	213.27
816.89	213.31
817.21	213.20
817.53	213.21
817.85	213.15
818.17	213.17
818.48	213.06
818.80	213.12
819.12	212.94
819.44	212.94
819.76	212.89
820.07	212.81
820.39	212.78
820.71	212.79
821.03	212.77
821.34	212.77
821.66	212.75
821.98	212.68
822.30	212.69
822.61	212.80
822.93	212.81
823.25	212.80
823.57	212.72
823.88	212.82
824.20	212.77
824.52	212.83
824.83	212.81
825.15	212.76
825.47	212.67
825.79	212.77
826.10	212.73
826.42	212.70
826.74	212.65
827.05	212.65
827.37	212.59
827.69	212.62
828.00	212.62
828.32	212.56
828.64	212.61
828.95	212.68
829.27	212.64
829.58	212.65
829.90	212.63
830.22	212.74
830.53	212.58
830.85	212.55
831.17	212.39
831.48	212.32
831.80	212.31
832.11	212.35
832.43	212.30
832.75	212.26
833.06	212.34
833.38	212.35
833.69	212.33
834.01	212.29
834.32	212.19
834.64	212.10
834.96	212.21
835.27	212.12
835.59	212.05
835.90	211.98
836.22	211.95
836.53	211.93
836.85	211.80
837.16	212.07
837.48	212.06
837.79	212.12
838.11	212.13
838.42	212.10
838.74	212.09
839.05	212.06
839.37	212.08
839.68	211.98
840.00	211.94
840.31	211.99
840.63	212.00
840.94	212.10
841.26	212.12
841.57	212.07
841.88	212.13
842.20	212.04
842.51	212.02
842.83	211.95
843.14	212.07
843.46	212.10
843.77	211.97
844.08	211.96
844.40	211.89
844.71	211.85
845.03	211.83
845.34	211.84
845.65	211.86
845.97	211.82
846.28	211.83
846.60	211.88
846.91	211.80
847.22	211.85
847.54	211.84
847.85	211.86
848.16	211.78
848.48	211.71
848.79	211.90
849.10	211.97
849.42	212.00
849.73	211.88
850.04	211.84
850.36	211.71
850.67	211.72
850.98	211.72
851.30	211.81
851.61	211.78
851.92	211.75
852.23	211.78
852.55	211.80
852.86	211.83
853.17	211.87
853.49	211.93
853.80	211.91
854.11	211.92
854.42	211.88
854.74	211.89
855.05	211.88
855.36	211.73
855.67	211.69
855.99	211.71
856.30	211.88
856.61	211.93
856.92	211.95
857.23	211.93
857.55	211.92
857.86	211.85
858.17	211.98
858.48	211.96
858.79	211.94
859.11	211.99
859.42	211.90
859.73	211.83
860.04	211.84
860.35	211.73
860.66	211.68
860.98	211.73
861.29	211.71
861.60	211.79
861.91	211.83
862.22	211.76
862.53	211.75
862.84	211.53
863.16	211.50
863.47	211.49
863.78	211.48
864.09	211.49
864.40	211.49
864.71	211.45
865.02	211.41
865.33	211.40
865.64	211.36
865.95	211.46
866.27	211.57
866.58	211.57
866.89	211.66
867.20	211.65
867.51	211.59
867.82	211.64
868.13	211.67
868.44	211.66
868.75	211.74
869.06	211.72
869.37	211.76
869.68	211.71
869.99	211.78
870.30	211.75
870.61	211.76
870.92	211.80
871.23	211.70
871.54	211.77
871.85	211.76
872.16	211.80
872.47	211.75
872.78	211.63
873.09	211.66
873.40	211.67
873.71	211.64
874.02	211.73
874.33	211.70
874.64	211.61
874.95	211.57
875.26	211.53
875.56	211.54
875.87	211.54
876.18	211.55
876.49	211.66
876.80	211.79
877.11	211.76
877.42	211.74
877.73	211.79
878.04	211.73
878.35	211.73
878.66	211.72
878.96	211.64
879.27	211.57
879.58	211.56
879.89	211.48
880.20	211.52
880.51	211.43
880.82	211.38
881.12	211.32
881.43	211.30
881.74	211.22
882.05	211.19
882.36	211.18
882.67	211.20
882.97	210.95
883.28	210.80
883.59	210.81
883.90	210.79
884.21	210.86
884.51	210.90
884.82	210.94
885.13	210.89
885.44	210.94
885.74	210.99
886.05	210.95
886.36	210.95
886.67	210.89
886.98	211.04
887.28	211.04
887.59	211.12
887.90	211.14
888.20	211.16
888.51	211.22
888.82	211.20
889.13	211.24
889.43	211.41
889.74	211.42
890.05	211.43
890.35	211.41
890.66	211.26
890.97	211.19
891.28	211.15
891.58	211.13
891.89	211.13
892.20	211.04
892.50	211.06
892.81	211.08
893.12	211.08
893.42	211.00
893.73	211.00
894.04	210.95
894.34	210.99
894.65	211.00
894.95	210.95
895.26	210.94
895.57	210.96
895.87	210.80
896.18	210.83
896.48	210.88
896.79	210.92
897.10	211.03
897.40	211.03
897.71	211.02
898.01	211.06
898.32	211.08
898.63	211.14
898.93	211.17
899.24	211.20
899.54	211.19
899.85	211.13
900.15	211.19
900.46	211.20
900.76	211.26
901.07	211.21
901.38	211.31
901.68	211.37
901.99	211.34
902.29	211.35
902.60	211.39
902.90	211.36
903.21	211.33
903.51	211.29
903.82	211.34
904.12	211.38
904.43	211.37
904.73	211.33
905.03	211.31
905.34	211.43
905.64	211.38
905.95	211.41
906.25	211.40
906.56	211.42
906.86	211.40
907.17	211.32
907.47	211.39
907.77	211.27
908.08	211.21
908.38	211.19
908.69	211.26
908.99	211.26
909.30	211.28
909.60	211.31
909.90	211.31
910.21	211.31
910.51	211.27
910.81	211.23
911.12	211.26
911.42	211.30
911.73	211.11
912.03	211.10
912.33	211.12
912.64	211.16
912.94	211.08
913.24	211.05
913.55	211.01
913.85	210.92
914.15	210.98
914.46	211.01
914.76	210.98
915.06	210.98
915.37	210.97
915.67	210.89
915.97	210.92
916.27	210.94
916.58	210.98
916.88	210.96
917.18	211.01
917.49	211.16
917.79	211.14
918.09	211.20
918.39	211.28
918.70	211.29
919.00	211.24
919.30	211.39
919.60	211.44
919.91	211.45
920.21	211.52
920.51	211.50
920.81	211.49
921.12	211.50
921.42	211.51
921.72	211.50
922.02	211.58
922.32	211.59
922.63	211.61
922.93	211.67
923.23	211.72
923.53	211.73
923.83	211.51
924.13	211.62
924.44	211.63
924.74	211.65
925.04	211.70
925.34	211.72
925.64	211.60
925.94	211.60
926.24	211.70
926.55	211.70
926.85	211.67
927.15	211.69
927.45	211.74
927.75	211.70
928.05	211.73
928.35	211.63
928.65	211.55
928.95	211.51
929.26	211.36
929.56	211.40
929.86	211.33
930.16	211.31
930.46	211.14
930.76	211.11
931.06	211.01
931.36	210.94
931.66	211.01
931.96	211.00
932.26	211.00
932.56	210.93
932.86	210.93
933.16	210.92
933.46	210.88
933.76	210.82
934.06	210.83
934.36	210.86
934.66	210.91
934.96	210.94
935.26	210.90
935.56	210.99
935.86	210.90
936.16	210.97
936.46	211.01
936.76	211.09
937.06	211.05
937.36	211.07
937.66	211.04
937.96	210.95
938.26	210.94
938.56	210.90
938.86	210.92
939.16	211.02
939.46	211.07
939.76	211.08
940.06	211.06
940.35	211.05
940.65	210.95
940.95	210.94
941.25	210.85
941.55	210.89
941.85	210.83
942.15	210.86
942.45	210.90
942.75	210.85
943.04	210.80
943.34	210.75
943.64	210.73
943.94	210.68
944.24	210.77
944.54	210.75
944.84	210.68
945.13	210.59
945.43	210.50
945.73	210.44
946.03	210.41
946.33	210.39
946.62	210.39
946.92	210.35
947.22	210.40
947.52	210.47
947.82	210.47
948.11	210.50
948.41	210.43
948.71	210.36
949.01	210.43
949.31	210.45
949.60	210.52
949.90	210.54
950.20	210.60
950.50	210.55
950.79	210.55
951.09	210.61
951.39	210.66
951.69	210.58
951.98	210.64
952.28	210.68
952.58	210.68
952.87	210.65
953.17	210.69
953.47	210.63
953.76	210.61
954.06	210.54
954.36	210.52
954.66	210.51
954.95	210.46
955.25	210.48
955.55	210.52
955.84	210.43
956.14	210.50
956.44	210.49
956.73	210.44
957.03	210.45
957.32	210.46
957.62	210.44
957.92	210.50
958.21	210.50
958.51	210.65
958.81	210.65
959.10	210.61
959.40	210.62
959.69	210.73
959.99	210.77
960.29	210.82
960.58	210.83
960.88	210.99
961.17	210.99
961.47	211.03
961.76	211.06
962.06	211.10
962.36	211.01
962.65	210.96
962.95	211.02
963.24	211.08
963.54	211.11
963.83	211.18
964.13	211.18
964.42	211.14
964.72	211.00
965.01	211.12
965.31	211.16
965.60	211.13
965.90	211.20
966.19	211.17
966.49	211.21
966.78	211.14
967.08	211.09
967.37	211.19
967.67	211.08
967.96	211.07
968.26	211.12
968.55	211.21
968.85	211.30
969.14	211.28
969.43	211.18
969.73	211.14
970.02	211.05
970.32	211.05
970.61	211.07
970.91	211.11
971.20	211.03
971.49	211.00
971.79	211.10
972.08	210.87
972.38	210.90
972.67	210.88
972.96	210.96
973.26	210.88
973.55	210.85
973.85	210.91
974.14	210.89
974.43	210.86
974.73	210.76
975.02	210.73
975.31	210.67
975.61	210.70
975.90	210.65
976.19	210.73
976.49	210.72
976.78	210.70
977.07	210.64
977.37	210.68
977.66	210.76
977.95	210.67
978.24	210.77
978.54	210.76
978.83	210.73
979.12	210.72
979.42	210.78
979.71	210.77
980.00	210.70
980.29	210.71
980.59	210.65
980.88	210.70
981.17	210.69
981.46	210.74
981.76	210.75
982.05	210.84
982.34	210.83
982.63	210.77
982.93	210.82
983.22	210.86
983.51	210.86
983.80	210.86
984.09	210.82
984.39	210.81
984.68	210.78
984.97	210.79
985.26	210.80
985.55	210.85
985.85	210.82
986.14	210.89
986.43	210.87
986.72	210.90
987.01	210.86
987.30	210.76
987.59	210.71
987.89	210.73
988.18	210.72
988.47	210.64
988.76	210.68
989.05	210.63
989.34	210.52
989.63	210.52
989.92	210.39
990.22	210.42
990.51	210.41
990.80	210.39
991.09	210.43
991.38	210.38
991.67	210.31
991.96	210.33
992.25	210.30
992.54	210.26
992.83	210.40
993.12	210.40
993.41	210.53
993.70	210.61
993.99	210.63
994.28	210.57
994.58	210.61
994.87	210.57
995.16	210.55
995.45	210.59
995.74	210.51
996.03	210.59
996.32	210.66
996.61	210.65
996.90	210.67
997.19	210.63
997.48	210.67
997.77	210.60
998.06	210.56
998.34	210.55
998.63	210.55
998.92	210.47
999.21	210.48
999.50	210.49
999.79	210.45
1000.08	210.41
1000.37	210.52
1000.66	210.56
1000.95	210.69
1001.24	210.74
1001.53	210.77
1001.82	210.84
1002.11	210.79
1002.40	210.71
1002.68	210.77
1002.97	210.87
1003.26	210.80
1003.55	210.76
1003.84	210.82
1004.13	210.92
1004.42	210.91
1004.71	210.88
1004.99	210.86
1005.28	210.89
1005.57	210.85
1005.86	210.87
1006.15	210.94
1006.44	210.88
1006.72	210.85
1007.01	210.75
1007.30	210.80
1007.59	210.78
1007.88	210.75
1008.17	210.79
1008.45	210.80
1008.74	210.78
1009.03	210.74
1009.32	210.83
1009.60	210.85
1009.89	210.84
1010.18	210.79
1010.47	210.81
1010.76	210.79
1011.04	210.71
1011.33	210.75
1011.62	210.72
1011.91	210.76
1012.19	210.72
1012.48	210.69
1012.77	210.75
1013.05	210.86
1013.34	210.78
1013.63	210.80
1013.92	210.88
1014.20	210.87
1014.49	210.86
1014.78	210.95
1015.06	210.90
1015.35	210.90
1015.64	210.85
1015.92	210.85
1016.21	210.81
1016.50	210.79
1016.78	210.85
1017.07	210.94
1017.36	210.92
1017.64	210.91
1017.93	210.91
1018.22	210.87
1018.50	210.92
1018.79	210.86
1019.08	210.76
1019.36	210.81
1019.65	210.82
1019.93	210.78
1020.22	210.85
1020.51	210.97
1020.79	210.80
1021.08	210.10
1021.36	210.85
1021.65	210.50
1021.94	210.55
1022.22	211.45
1022.51	211.00
1022.79	211.70
1023.08	211.55
1023.36	213.35
1023.65	209.15
>>>>>End Processed Spectral Data<<<<<
