SpectraSuite Data File
++++++++++++++++++++++++++++++++++++
Date: Mon Feb 25 17:32:39 EST 2013
User: group
Dark Spectrum Present: No
Reference Spectrum Present: No
Number of Sampled Component Spectra: 1
Spectrometers: USB2E7196
Integration Time (usec): 52000 (USB2E7196)
Spectra Averaged: 20 (USB2E7196)
Boxcar Smoothing: 10 (USB2E7196)
Correct for Electrical Dark: No (USB2E7196)
Strobe/Lamp Enabled: No (USB2E7196)
Correct for Detector Non-linearity: No (USB2E7196)
Correct for Stray Light: No (USB2E7196)
Number of Pixels in Processed Spectrum: 2048
>>>>>Begin Processed Spectral Data<<<<<
339.09	0.00
339.48	199.50
339.86	200.60
340.24	202.15
340.63	203.15
341.01	207.00
341.39	207.35
341.78	209.15
342.16	208.80
342.54	208.10
342.93	198.58
343.31	208.57
343.69	209.15
344.07	209.57
344.46	210.05
344.84	210.41
345.22	210.67
345.60	210.85
345.99	210.98
346.37	211.15
346.75	211.36
347.13	211.45
347.52	211.51
347.90	211.53
348.28	211.61
348.66	211.65
349.05	211.50
349.43	211.58
349.81	211.48
350.19	211.44
350.57	211.46
350.96	211.44
351.34	211.51
351.72	211.54
352.10	211.69
352.48	211.67
352.87	211.78
353.25	211.74
353.63	211.82
354.01	211.82
354.39	211.86
354.77	211.85
355.15	211.98
355.54	212.05
355.92	212.03
356.30	212.10
356.68	212.29
357.06	212.40
357.44	212.46
357.82	212.58
358.20	212.66
358.58	212.77
358.97	212.92
359.35	213.04
359.73	213.13
360.11	213.17
360.49	213.28
360.87	213.31
361.25	213.50
361.63	213.62
362.01	213.72
362.39	213.76
362.77	213.85
363.15	213.80
363.53	213.86
363.91	213.98
364.29	214.03
364.67	213.88
365.05	214.00
365.43	214.00
365.81	214.09
366.19	214.18
366.57	214.24
366.95	214.18
367.33	214.14
367.71	214.07
368.09	214.12
368.47	214.10
368.85	214.07
369.23	214.02
369.61	213.92
369.99	213.95
370.37	213.91
370.75	213.96
371.13	213.94
371.51	213.94
371.89	213.92
372.27	213.94
372.65	213.99
373.03	213.90
373.41	213.85
373.78	213.73
374.16	213.68
374.54	213.63
374.92	213.64
375.30	213.62
375.68	213.65
376.06	213.61
376.44	213.58
376.82	213.53
377.19	213.49
377.57	213.40
377.95	213.29
378.33	213.28
378.71	213.13
379.09	213.08
379.47	213.05
379.84	212.93
380.22	212.83
380.60	212.77
380.98	212.69
381.36	212.70
381.73	212.66
382.11	212.65
382.49	212.57
382.87	212.44
383.25	212.43
383.62	212.55
384.00	212.48
384.38	212.46
384.76	212.48
385.13	212.47
385.51	212.48
385.89	212.40
386.27	212.28
386.64	212.30
387.02	212.26
387.40	212.10
387.78	212.16
388.15	212.13
388.53	212.08
388.91	212.05
389.29	211.94
389.66	211.90
390.04	211.80
390.42	211.83
390.79	211.76
391.17	211.69
391.55	211.49
391.92	211.47
392.30	211.48
392.68	211.49
393.05	211.49
393.43	211.48
393.81	211.50
394.18	211.53
394.56	211.50
394.94	211.58
395.31	211.66
395.69	211.69
396.06	211.70
396.44	211.73
396.82	211.75
397.19	211.87
397.57	211.96
397.95	212.03
398.32	212.01
398.70	212.13
399.07	212.23
399.45	212.21
399.82	212.23
400.20	212.21
400.58	212.21
400.95	212.20
401.33	212.32
401.70	212.48
402.08	212.52
402.45	212.59
402.83	212.66
403.20	212.76
403.58	212.88
403.95	213.08
404.33	213.19
404.71	213.30
405.08	213.49
405.46	213.63
405.83	213.73
406.21	213.89
406.58	214.05
406.96	214.21
407.33	214.37
407.70	214.57
408.08	214.88
408.45	215.14
408.83	215.35
409.20	215.57
409.58	215.77
409.95	216.12
410.33	216.48
410.70	216.73
411.08	217.08
411.45	217.37
411.82	217.61
412.20	217.99
412.57	218.56
412.95	218.89
413.32	219.36
413.69	219.90
414.07	220.43
414.44	221.06
414.82	221.70
415.19	222.42
415.56	223.19
415.94	223.92
416.31	224.78
416.68	225.66
417.06	226.60
417.43	227.59
417.81	228.70
418.18	229.79
418.55	230.92
418.93	232.11
419.30	233.47
419.67	234.93
420.04	236.34
420.42	237.79
420.79	239.52
421.16	241.20
421.54	243.01
421.91	244.87
422.28	246.77
422.66	248.77
423.03	250.85
423.40	252.88
423.77	255.08
424.15	257.38
424.52	259.80
424.89	262.37
425.26	264.80
425.64	267.10
426.01	269.65
426.38	272.33
426.75	275.16
427.13	277.90
427.50	280.72
427.87	283.80
428.24	286.79
428.61	289.67
428.99	293.00
429.36	296.53
429.73	300.05
430.10	303.44
430.47	307.04
430.85	310.63
431.22	314.52
431.59	318.67
431.96	322.47
432.33	326.73
432.70	330.87
433.08	335.73
433.45	340.29
433.82	344.78
434.19	349.94
434.56	354.76
434.93	359.50
435.30	364.26
435.68	369.49
436.05	374.73
436.42	380.02
436.79	384.58
437.16	389.60
437.53	394.79
437.90	400.05
438.27	405.22
438.64	410.52
439.01	415.41
439.38	419.79
439.75	423.98
440.13	428.83
440.50	433.30
440.87	437.06
441.24	440.97
441.61	445.26
441.98	448.28
442.35	451.91
442.72	455.49
443.09	459.09
443.46	461.09
443.83	462.46
444.20	463.45
444.57	465.31
444.94	466.00
445.31	466.81
445.68	467.57
446.05	467.85
446.42	467.27
446.79	466.57
447.16	465.75
447.53	465.12
447.90	463.04
448.27	461.00
448.64	458.15
449.01	456.00
449.37	452.45
449.74	448.97
450.11	444.87
450.48	440.46
450.85	435.93
451.22	432.08
451.59	428.32
451.96	424.84
452.33	420.02
452.70	415.73
453.07	410.60
453.43	405.39
453.80	400.28
454.17	395.55
454.54	391.03
454.91	386.20
455.28	381.49
455.65	377.03
456.02	372.74
456.38	369.00
456.75	364.41
457.12	360.48
457.49	356.66
457.86	353.02
458.23	349.87
458.59	346.33
458.96	342.80
459.33	339.73
459.70	336.63
460.07	334.05
460.43	331.26
460.80	328.68
461.17	326.36
461.54	323.86
461.91	321.49
462.27	319.15
462.64	317.03
463.01	314.91
463.38	312.77
463.74	310.54
464.11	308.57
464.48	306.90
464.85	305.18
465.21	303.91
465.58	302.43
465.95	300.71
466.32	299.28
466.68	297.86
467.05	296.41
467.42	295.01
467.78	293.70
468.15	292.21
468.52	291.19
468.88	289.85
469.25	288.71
469.62	287.83
469.98	286.81
470.35	285.88
470.72	285.03
471.08	284.20
471.45	283.43
471.82	282.75
472.18	281.87
472.55	281.21
472.92	280.47
473.28	279.87
473.65	279.30
474.02	278.73
474.38	278.37
474.75	278.02
475.11	277.60
475.48	277.34
475.85	277.20
476.21	276.97
476.58	276.95
476.94	277.03
477.31	276.90
477.67	276.84
478.04	276.89
478.41	276.98
478.77	277.23
479.14	277.36
479.50	277.60
479.87	278.00
480.23	278.47
480.60	278.83
480.96	279.24
481.33	279.85
481.69	280.49
482.06	281.06
482.42	281.64
482.79	282.30
483.15	283.11
483.52	284.08
483.88	284.99
484.25	285.82
484.61	286.80
484.98	287.90
485.34	289.18
485.71	290.58
486.07	292.05
486.44	293.32
486.80	294.93
487.17	296.50
487.53	298.19
487.90	299.98
488.26	301.91
488.62	303.93
488.99	305.94
489.35	308.02
489.72	310.39
490.08	312.84
490.44	315.35
490.81	317.94
491.17	320.59
491.54	323.55
491.90	326.64
492.26	329.79
492.63	333.17
492.99	336.67
493.36	340.25
493.72	344.04
494.08	348.12
494.45	352.38
494.81	356.86
495.17	361.51
495.54	366.45
495.90	371.47
496.26	376.75
496.63	382.27
496.99	388.12
497.35	394.12
497.72	400.37
498.08	406.95
498.44	413.80
498.80	421.01
499.17	428.33
499.53	435.96
499.89	443.92
500.26	452.04
500.62	460.20
500.98	469.06
501.34	478.13
501.71	487.51
502.07	497.12
502.43	506.96
502.79	517.16
503.16	527.80
503.52	538.67
503.88	549.88
504.24	561.37
504.60	573.24
504.97	585.37
505.33	597.84
505.69	611.03
506.05	624.29
506.41	637.73
506.78	651.40
507.14	665.59
507.50	680.11
507.86	695.12
508.22	710.68
508.59	726.09
508.95	742.04
509.31	758.21
509.67	774.92
510.03	791.95
510.39	809.57
510.75	827.27
511.12	845.22
511.48	863.53
511.84	882.23
512.20	900.75
512.56	920.26
512.92	939.70
513.28	959.21
513.64	979.10
514.00	999.14
514.37	1019.52
514.73	1040.26
515.09	1061.08
515.45	1081.64
515.81	1102.80
516.17	1124.21
516.53	1145.64
516.89	1167.39
517.25	1188.83
517.61	1210.62
517.97	1232.16
518.33	1253.72
518.69	1275.71
519.05	1297.69
519.41	1319.62
519.77	1342.49
520.13	1364.47
520.49	1386.42
520.85	1408.87
521.21	1431.35
521.57	1454.24
521.93	1476.24
522.29	1499.06
522.65	1521.40
523.01	1544.02
523.37	1565.85
523.73	1588.00
524.09	1610.01
524.45	1632.05
524.81	1654.55
525.17	1676.79
525.53	1699.05
525.89	1721.55
526.25	1743.08
526.61	1764.28
526.97	1786.00
527.33	1806.80
527.68	1828.19
528.04	1849.38
528.40	1869.97
528.76	1890.60
529.12	1911.18
529.48	1932.89
529.84	1953.09
530.20	1973.55
530.56	1993.61
530.91	2014.63
531.27	2034.96
531.63	2054.96
531.99	2074.94
532.35	2093.95
532.71	2112.83
533.07	2132.24
533.42	2150.06
533.78	2169.35
534.14	2187.97
534.50	2204.81
534.86	2222.90
535.21	2239.43
535.57	2257.49
535.93	2274.55
536.29	2291.37
536.65	2307.75
537.00	2323.14
537.36	2338.17
537.72	2353.27
538.08	2368.91
538.44	2383.95
538.79	2399.24
539.15	2413.94
539.51	2428.30
539.87	2443.55
540.22	2458.04
540.58	2472.93
540.94	2487.80
541.29	2500.61
541.65	2512.81
542.01	2526.47
542.37	2538.16
542.72	2550.59
543.08	2561.52
543.44	2573.55
543.79	2583.61
544.15	2593.86
544.51	2604.78
544.87	2616.04
545.22	2625.34
545.58	2633.44
545.94	2640.64
546.29	2646.80
546.65	2653.27
547.01	2659.38
547.36	2664.90
547.72	2670.48
548.07	2673.99
548.43	2677.65
548.79	2681.58
549.14	2686.03
549.50	2690.44
549.86	2694.51
550.21	2698.35
550.57	2702.13
550.92	2704.42
551.28	2707.38
551.64	2709.80
551.99	2712.43
552.35	2713.84
552.70	2716.54
553.06	2719.60
553.41	2722.70
553.77	2726.04
554.13	2728.09
554.48	2729.98
554.84	2731.31
555.19	2731.78
555.55	2732.60
555.90	2733.32
556.26	2733.45
556.61	2733.47
556.97	2731.70
557.32	2731.17
557.68	2729.84
558.03	2728.33
558.39	2726.83
558.74	2726.27
559.10	2725.03
559.45	2722.90
559.81	2721.77
560.16	2719.18
560.52	2716.54
560.87	2713.21
561.23	2708.97
561.58	2706.90
561.94	2703.75
562.29	2700.14
562.64	2697.87
563.00	2695.46
563.35	2693.04
563.71	2691.35
564.06	2689.13
564.42	2687.53
564.77	2685.48
565.12	2683.46
565.48	2680.43
565.83	2677.60
566.19	2674.13
566.54	2670.05
566.89	2666.11
567.25	2662.26
567.60	2658.81
567.96	2655.25
568.31	2652.15
568.66	2648.56
569.02	2643.85
569.37	2639.05
569.72	2635.23
570.08	2630.09
570.43	2624.26
570.78	2618.40
571.14	2612.22
571.49	2605.59
571.84	2599.80
572.20	2592.46
572.55	2585.49
572.90	2578.86
573.26	2571.94
573.61	2564.62
573.96	2558.07
574.31	2550.32
574.67	2542.19
575.02	2533.87
575.37	2525.15
575.72	2516.02
576.08	2508.53
576.43	2499.79
576.78	2492.04
577.13	2483.97
577.49	2475.71
577.84	2467.98
578.19	2460.33
578.54	2452.76
578.90	2446.04
579.25	2437.33
579.60	2428.65
579.95	2419.85
580.30	2411.55
580.66	2403.52
581.01	2394.63
581.36	2385.37
581.71	2376.99
582.06	2368.53
582.42	2360.37
582.77	2351.45
583.12	2342.63
583.47	2334.00
583.82	2326.01
584.17	2316.85
584.53	2307.84
584.88	2299.27
585.23	2290.24
585.58	2280.87
585.93	2271.14
586.28	2261.86
586.63	2253.10
586.98	2244.97
587.34	2236.51
587.69	2227.25
588.04	2217.90
588.39	2209.69
588.74	2200.85
589.09	2191.96
589.44	2182.30
589.79	2173.74
590.14	2165.88
590.49	2157.30
590.84	2147.97
591.19	2139.75
591.54	2130.94
591.89	2120.68
592.25	2111.44
592.60	2102.20
592.95	2092.71
593.30	2083.54
593.65	2073.65
594.00	2063.79
594.35	2055.15
594.70	2046.03
595.05	2037.53
595.40	2028.81
595.75	2019.28
596.10	2011.09
596.45	2003.02
596.80	1995.50
597.15	1987.08
597.50	1977.89
597.85	1969.65
598.19	1961.18
598.54	1952.35
598.89	1944.77
599.24	1938.34
599.59	1930.84
599.94	1923.43
600.29	1915.91
600.64	1907.98
600.99	1899.80
601.34	1892.81
601.69	1884.01
602.04	1875.88
602.39	1867.79
602.74	1860.09
603.08	1853.70
603.43	1846.64
603.78	1838.23
604.13	1830.08
604.48	1822.00
604.83	1815.45
605.18	1808.30
605.53	1800.61
605.87	1793.16
606.22	1785.49
606.57	1777.56
606.92	1769.56
607.27	1761.60
607.62	1754.30
607.96	1747.62
608.31	1741.43
608.66	1733.46
609.01	1726.09
609.36	1718.44
609.70	1710.74
610.05	1703.01
610.40	1694.42
610.75	1685.78
611.10	1678.60
611.44	1669.47
611.79	1660.73
612.14	1651.10
612.49	1641.75
612.83	1633.17
613.18	1623.33
613.53	1613.87
613.88	1603.92
614.22	1595.14
614.57	1585.68
614.92	1576.29
615.27	1566.73
615.61	1556.89
615.96	1548.17
616.31	1539.76
616.65	1531.80
617.00	1523.38
617.35	1514.45
617.70	1505.69
618.04	1496.56
618.39	1487.03
618.74	1478.84
619.08	1470.18
619.43	1462.03
619.78	1454.40
620.12	1446.21
620.47	1438.79
620.82	1430.43
621.16	1422.55
621.51	1413.81
621.85	1405.85
622.20	1397.33
622.55	1389.02
622.89	1381.05
623.24	1373.06
623.59	1364.29
623.93	1355.58
624.28	1347.26
624.62	1339.23
624.97	1331.05
625.32	1323.23
625.66	1315.75
626.01	1308.45
626.35	1301.33
626.70	1293.77
627.04	1285.95
627.39	1278.47
627.73	1270.72
628.08	1263.95
628.43	1256.36
628.77	1249.18
629.12	1241.82
629.46	1235.26
629.81	1228.08
630.15	1220.62
630.50	1213.00
630.84	1205.83
631.19	1198.69
631.53	1191.73
631.88	1184.10
632.22	1176.77
632.57	1169.97
632.91	1162.67
633.26	1155.13
633.60	1147.76
633.95	1140.96
634.29	1133.68
634.64	1127.16
634.98	1120.01
635.32	1112.86
635.67	1106.39
636.01	1099.67
636.36	1092.95
636.70	1086.37
637.05	1079.83
637.39	1073.65
637.73	1067.54
638.08	1061.63
638.42	1055.87
638.77	1049.48
639.11	1043.37
639.45	1037.32
639.80	1030.91
640.14	1024.53
640.49	1018.36
640.83	1012.03
641.17	1005.64
641.52	999.47
641.86	992.81
642.20	986.70
642.55	980.14
642.89	973.75
643.23	967.40
643.58	961.41
643.92	954.87
644.26	948.57
644.61	942.20
644.95	936.00
645.29	929.80
645.64	923.13
645.98	916.84
646.32	911.08
646.66	904.91
647.01	898.88
647.35	892.96
647.69	886.67
648.04	881.00
648.38	875.04
648.72	869.12
649.06	863.10
649.41	857.11
649.75	851.43
650.09	845.61
650.43	839.66
650.78	833.55
651.12	827.54
651.46	821.76
651.80	815.85
652.14	809.92
652.49	804.02
652.83	798.31
653.17	792.23
653.51	786.23
653.85	780.54
654.20	774.70
654.54	769.01
654.88	763.62
655.22	757.77
655.56	751.72
655.90	746.00
656.25	740.40
656.59	735.06
656.93	729.75
657.27	724.61
657.61	719.23
657.95	714.11
658.29	708.94
658.64	703.89
658.98	698.71
659.32	693.47
659.66	688.25
660.00	682.86
660.34	677.88
660.68	672.61
661.02	667.59
661.36	662.92
661.70	657.94
662.05	653.24
662.39	648.80
662.73	644.59
663.07	640.17
663.41	635.91
663.75	631.29
664.09	626.61
664.43	621.84
664.77	617.54
665.11	612.98
665.45	608.56
665.79	604.06
666.13	599.71
666.47	595.37
666.81	591.28
667.15	587.33
667.49	583.47
667.83	579.66
668.17	575.71
668.51	571.94
668.85	568.24
669.19	564.57
669.53	560.44
669.87	556.47
670.21	552.78
670.55	548.77
670.89	545.35
671.23	542.00
671.57	538.46
671.91	534.87
672.25	531.36
672.58	527.84
672.92	524.48
673.26	521.34
673.60	518.14
673.94	514.60
674.28	511.40
674.62	508.26
674.96	505.15
675.30	502.13
675.64	498.79
675.97	495.65
676.31	492.63
676.65	489.89
676.99	487.12
677.33	483.92
677.67	481.04
678.01	477.77
678.34	474.74
678.68	471.92
679.02	468.99
679.36	466.24
679.70	463.43
680.04	460.54
680.37	457.64
680.71	454.87
681.05	452.37
681.39	449.57
681.73	446.92
682.06	444.47
682.40	441.80
682.74	439.20
683.08	436.65
683.42	433.90
683.75	431.31
684.09	428.61
684.43	426.33
684.77	423.75
685.10	421.30
685.44	418.82
685.78	416.45
686.12	414.14
686.45	411.79
686.79	409.56
687.13	407.31
687.46	404.99
687.80	402.84
688.14	400.53
688.48	398.46
688.81	396.14
689.15	393.80
689.49	391.57
689.82	389.33
690.16	386.96
690.50	384.79
690.83	382.53
691.17	380.35
691.51	378.14
691.84	376.11
692.18	374.16
692.52	372.17
692.85	370.26
693.19	368.34
693.52	366.34
693.86	364.49
694.20	362.65
694.53	360.78
694.87	358.65
695.21	356.77
695.54	354.73
695.88	352.85
696.21	350.98
696.55	349.23
696.88	347.50
697.22	345.83
697.56	344.21
697.89	342.57
698.23	341.05
698.56	339.46
698.90	337.98
699.23	336.37
699.57	334.72
699.90	333.09
700.24	331.54
700.58	330.01
700.91	328.47
701.25	327.04
701.58	325.70
701.92	324.43
702.25	323.13
702.59	321.83
702.92	320.50
703.26	319.21
703.59	318.02
703.93	316.96
704.26	315.82
704.60	314.57
704.93	313.36
705.26	312.19
705.60	311.03
705.93	309.65
706.27	308.50
706.60	307.50
706.94	306.41
707.27	305.25
707.61	304.14
707.94	302.98
708.27	301.71
708.61	300.55
708.94	299.42
709.28	298.32
709.61	297.20
709.94	296.12
710.28	295.04
710.61	293.96
710.95	292.72
711.28	291.80
711.61	290.75
711.95	289.79
712.28	288.68
712.61	287.69
712.95	286.85
713.28	285.98
713.61	284.93
713.95	283.97
714.28	282.98
714.61	282.10
714.95	281.20
715.28	280.31
715.61	279.33
715.95	278.44
716.28	277.50
716.61	276.57
716.95	275.72
717.28	274.88
717.61	274.05
717.94	273.28
718.28	272.34
718.61	271.61
718.94	270.80
719.27	270.10
719.61	269.35
719.94	268.58
720.27	267.74
720.60	267.10
720.94	266.36
721.27	265.83
721.60	265.14
721.93	264.46
722.27	263.91
722.60	263.39
722.93	262.79
723.26	262.20
723.59	261.64
723.93	261.11
724.26	260.47
724.59	259.89
724.92	259.34
725.25	258.80
725.59	258.19
725.92	257.83
726.25	257.33
726.58	256.70
726.91	256.16
727.24	255.65
727.57	255.10
727.91	254.52
728.24	254.00
728.57	253.47
728.90	253.10
729.23	252.56
729.56	252.21
729.89	251.64
730.22	251.17
730.55	250.72
730.89	250.27
731.22	249.85
731.55	249.43
731.88	248.95
732.21	248.57
732.54	248.13
732.87	247.61
733.20	247.23
733.53	246.89
733.86	246.51
734.19	246.18
734.52	245.81
734.85	245.62
735.18	245.13
735.51	244.80
735.84	244.36
736.17	244.04
736.50	243.50
736.83	243.36
737.16	243.02
737.49	242.62
737.82	242.33
738.15	242.06
738.48	241.69
738.81	241.43
739.14	240.94
739.47	240.60
739.80	240.15
740.13	239.71
740.46	239.28
740.79	238.86
741.12	238.49
741.45	238.11
741.78	237.70
742.11	237.49
742.44	237.23
742.77	236.97
743.10	236.60
743.43	236.31
743.75	235.92
744.08	235.83
744.41	235.52
744.74	235.08
745.07	234.71
745.40	234.45
745.73	234.17
746.06	233.97
746.39	233.71
746.71	233.49
747.04	233.20
747.37	233.00
747.70	232.90
748.03	232.64
748.36	232.44
748.68	232.15
749.01	231.79
749.34	231.46
749.67	231.25
750.00	231.07
750.33	230.95
750.65	230.65
750.98	230.17
751.31	229.97
751.64	229.90
751.97	229.80
752.29	229.56
752.62	229.35
752.95	229.02
753.28	228.79
753.60	228.59
753.93	228.49
754.26	228.30
754.59	228.01
754.91	227.79
755.24	227.56
755.57	227.37
755.90	227.17
756.22	227.00
756.55	226.75
756.88	226.58
757.20	226.26
757.53	226.08
757.86	225.91
758.19	225.80
758.51	225.53
758.84	225.30
759.17	225.05
759.49	224.89
759.82	224.83
760.15	224.66
760.47	224.48
760.80	224.22
761.13	224.05
761.45	223.83
761.78	223.60
762.11	223.46
762.43	223.33
762.76	223.23
763.08	223.07
763.41	222.95
763.74	222.80
764.06	222.67
764.39	222.53
764.71	222.38
765.04	222.19
765.37	222.05
765.69	221.90
766.02	221.86
766.34	221.70
766.67	221.62
767.00	221.51
767.32	221.41
767.65	221.42
767.97	221.29
768.30	221.20
768.62	221.16
768.95	221.04
769.27	220.97
769.60	220.84
769.92	220.69
770.25	220.54
770.57	220.41
770.90	220.30
771.22	220.19
771.55	220.14
771.87	220.06
772.20	219.98
772.52	219.96
772.85	220.06
773.17	219.95
773.50	219.81
773.82	219.73
774.15	219.56
774.47	219.35
774.80	219.30
775.12	219.27
775.45	219.17
775.77	219.07
776.09	218.98
776.42	218.88
776.74	218.86
777.07	218.76
777.39	218.63
777.72	218.55
778.04	218.47
778.36	218.30
778.69	218.26
779.01	218.20
779.33	218.08
779.66	217.81
779.98	217.66
780.31	217.63
780.63	217.61
780.95	217.64
781.28	217.60
781.60	217.50
781.92	217.39
782.25	217.41
782.57	217.35
782.89	217.29
783.22	217.21
783.54	217.14
783.86	217.10
784.19	217.07
784.51	217.01
784.83	217.01
785.16	217.05
785.48	216.92
785.80	216.83
786.12	216.73
786.45	216.63
786.77	216.66
787.09	216.53
787.42	216.46
787.74	216.41
788.06	216.32
788.38	216.30
788.71	216.21
789.03	216.04
789.35	216.01
789.67	215.92
789.99	215.89
790.32	215.79
790.64	215.80
790.96	215.86
791.28	215.80
791.61	215.69
791.93	215.64
792.25	215.64
792.57	215.73
792.89	215.66
793.21	215.64
793.54	215.53
793.86	215.44
794.18	215.36
794.50	215.25
794.82	215.20
795.14	215.10
795.47	215.14
795.79	215.15
796.11	215.11
796.43	215.10
796.75	215.11
797.07	215.10
797.39	215.02
797.71	214.85
798.04	214.82
798.36	214.81
798.68	214.72
799.00	214.69
799.32	214.55
799.64	214.56
799.96	214.53
800.28	214.53
800.60	214.54
800.92	214.51
801.24	214.51
801.56	214.47
801.89	214.48
802.21	214.39
802.53	214.27
802.85	214.30
803.17	214.32
803.49	214.28
803.81	214.22
804.13	214.15
804.45	214.18
804.77	214.14
805.09	214.12
805.41	214.13
805.73	214.09
806.05	214.05
806.37	214.00
806.69	213.94
807.01	213.99
807.33	214.03
807.65	213.97
807.97	214.01
808.28	214.05
808.60	213.99
808.92	214.05
809.24	214.20
809.56	214.05
809.88	213.94
810.20	213.92
810.52	213.92
810.84	213.90
811.16	213.85
811.48	213.82
811.80	213.83
812.12	213.85
812.43	213.83
812.75	213.81
813.07	213.73
813.39	213.76
813.71	213.66
814.03	213.52
814.35	213.47
814.67	213.41
814.98	213.35
815.30	213.38
815.62	213.27
815.94	213.12
816.26	213.14
816.58	213.05
816.89	213.02
817.21	213.02
817.53	213.03
817.85	212.97
818.17	212.96
818.48	212.83
818.80	212.80
819.12	212.75
819.44	212.71
819.76	212.74
820.07	212.72
820.39	212.72
820.71	212.79
821.03	212.87
821.34	212.80
821.66	212.78
821.98	212.81
822.30	212.80
822.61	212.93
822.93	212.81
823.25	212.93
823.57	212.92
823.88	212.93
824.20	212.89
824.52	212.92
824.83	212.89
825.15	212.82
825.47	212.80
825.79	212.82
826.10	212.78
826.42	212.68
826.74	212.75
827.05	212.73
827.37	212.74
827.69	212.66
828.00	212.63
828.32	212.61
828.64	212.53
828.95	212.60
829.27	212.55
829.58	212.66
829.90	212.60
830.22	212.58
830.53	212.49
830.85	212.48
831.17	212.45
831.48	212.45
831.80	212.57
832.11	212.57
832.43	212.53
832.75	212.53
833.06	212.68
833.38	212.52
833.69	212.48
834.01	212.50
834.32	212.50
834.64	212.51
834.96	212.53
835.27	212.52
835.59	212.50
835.90	212.45
836.22	212.45
836.53	212.39
836.85	212.38
837.16	212.58
837.48	212.63
837.79	212.69
838.11	212.77
838.42	212.78
838.74	212.74
839.05	212.71
839.37	212.75
839.68	212.70
840.00	212.76
840.31	212.80
840.63	212.70
840.94	212.70
841.26	212.63
841.57	212.62
841.88	212.64
842.20	212.59
842.51	212.52
842.83	212.49
843.14	212.71
843.46	212.70
843.77	212.57
844.08	212.55
844.40	212.48
844.71	212.35
845.03	212.25
845.34	212.22
845.65	212.29
845.97	212.32
846.28	212.22
846.60	212.20
846.91	212.18
847.22	212.17
847.54	212.19
847.85	212.28
848.16	212.20
848.48	212.18
848.79	212.22
849.10	212.25
849.42	212.23
849.73	211.99
850.04	212.01
850.36	211.99
850.67	211.99
850.98	212.01
851.30	212.07
851.61	212.05
851.92	212.05
852.23	212.02
852.55	211.98
852.86	212.07
853.17	212.13
853.49	212.11
853.80	212.18
854.11	212.17
854.42	212.17
854.74	212.18
855.05	212.14
855.36	212.03
855.67	211.97
855.99	211.99
856.30	212.14
856.61	212.08
856.92	212.02
857.23	211.99
857.55	211.90
857.86	211.85
858.17	211.87
858.48	211.93
858.79	211.94
859.11	211.96
859.42	211.91
859.73	211.87
860.04	211.90
860.35	211.79
860.66	211.70
860.98	211.65
861.29	211.67
861.60	211.66
861.91	211.71
862.22	211.71
862.53	211.68
862.84	211.51
863.16	211.58
863.47	211.56
863.78	211.60
864.09	211.72
864.40	211.78
864.71	211.74
865.02	211.70
865.33	211.68
865.64	211.57
865.95	211.55
866.27	211.62
866.58	211.58
866.89	211.70
867.20	211.74
867.51	211.74
867.82	211.68
868.13	211.77
868.44	211.75
868.75	211.81
869.06	211.75
869.37	211.83
869.68	211.78
869.99	211.80
870.30	211.78
870.61	211.69
870.92	211.65
871.23	211.66
871.54	211.66
871.85	211.64
872.16	211.70
872.47	211.73
872.78	211.61
873.09	211.55
873.40	211.50
873.71	211.53
874.02	211.50
874.33	211.58
874.64	211.48
874.95	211.54
875.26	211.52
875.56	211.62
875.87	211.58
876.18	211.54
876.49	211.72
876.80	211.75
877.11	211.78
877.42	211.79
877.73	211.84
878.04	211.84
878.35	211.85
878.66	211.90
878.96	211.82
879.27	211.86
879.58	211.96
879.89	212.00
880.20	212.03
880.51	211.98
880.82	211.97
881.12	212.00
881.43	211.96
881.74	211.89
882.05	211.82
882.36	211.83
882.67	211.91
882.97	211.74
883.28	211.67
883.59	211.62
883.90	211.58
884.21	211.54
884.51	211.51
884.82	211.53
885.13	211.48
885.44	211.50
885.74	211.45
886.05	211.44
886.36	211.32
886.67	211.29
886.98	211.43
887.28	211.43
887.59	211.43
887.90	211.45
888.20	211.48
888.51	211.55
888.82	211.50
889.13	211.47
889.43	211.59
889.74	211.60
890.05	211.62
890.35	211.60
890.66	211.59
890.97	211.55
891.28	211.54
891.58	211.58
891.89	211.55
892.20	211.59
892.50	211.59
892.81	211.64
893.12	211.56
893.42	211.42
893.73	211.34
894.04	211.31
894.34	211.30
894.65	211.32
894.95	211.24
895.26	211.23
895.57	211.25
895.87	211.05
896.18	211.06
896.48	211.05
896.79	211.04
897.10	211.10
897.40	211.13
897.71	211.12
898.01	211.05
898.32	211.10
898.63	211.07
898.93	210.97
899.24	210.93
899.54	210.97
899.85	211.00
900.15	211.02
900.46	211.05
900.76	211.03
901.07	211.01
901.38	211.02
901.68	211.02
901.99	211.00
902.29	211.05
902.60	211.04
902.90	211.01
903.21	211.08
903.51	211.07
903.82	211.15
904.12	211.13
904.43	211.15
904.73	211.15
905.03	211.18
905.34	211.45
905.64	211.43
905.95	211.43
906.25	211.43
906.56	211.45
906.86	211.48
907.17	211.40
907.47	211.40
907.77	211.40
908.08	211.39
908.38	211.37
908.69	211.39
908.99	211.46
909.30	211.47
909.60	211.39
909.90	211.40
910.21	211.28
910.51	211.29
910.81	211.32
911.12	211.33
911.42	211.31
911.73	211.15
912.03	211.24
912.33	211.19
912.64	211.17
912.94	211.16
913.24	211.09
913.55	211.18
913.85	211.14
914.15	211.17
914.46	211.24
914.76	211.26
915.06	211.23
915.37	211.21
915.67	211.32
915.97	211.42
916.27	211.38
916.58	211.43
916.88	211.41
917.18	211.35
917.49	211.45
917.79	211.44
918.09	211.36
918.39	211.37
918.70	211.47
919.00	211.57
919.30	211.67
919.60	211.69
919.91	211.67
920.21	211.72
920.51	211.69
920.81	211.68
921.12	211.64
921.42	211.66
921.72	211.65
922.02	211.59
922.32	211.56
922.63	211.57
922.93	211.62
923.23	211.59
923.53	211.67
923.83	211.54
924.13	211.53
924.44	211.60
924.74	211.60
925.04	211.56
925.34	211.55
925.64	211.45
925.94	211.43
926.24	211.48
926.55	211.47
926.85	211.44
927.15	211.38
927.45	211.44
927.75	211.50
928.05	211.48
928.35	211.41
928.65	211.40
928.95	211.38
929.26	211.28
929.56	211.37
929.86	211.29
930.16	211.27
930.46	211.25
930.76	211.24
931.06	211.22
931.36	211.16
931.66	211.10
931.96	211.12
932.26	211.16
932.56	211.10
932.86	211.11
933.16	211.17
933.46	211.20
933.76	211.11
934.06	211.07
934.36	211.11
934.66	211.16
934.96	211.18
935.26	211.20
935.56	211.19
935.86	211.07
936.16	211.13
936.46	211.10
936.76	211.09
937.06	211.09
937.36	211.04
937.66	211.03
937.96	211.02
938.26	211.00
938.56	210.93
938.86	210.96
939.16	210.94
939.46	210.97
939.76	210.94
940.06	210.97
940.35	210.91
940.65	210.84
940.95	210.82
941.25	210.73
941.55	210.71
941.85	210.73
942.15	210.85
942.45	210.91
942.75	210.85
943.04	210.81
943.34	210.81
943.64	210.78
943.94	210.78
944.24	210.79
944.54	210.71
944.84	210.73
945.13	210.67
945.43	210.65
945.73	210.62
946.03	210.64
946.33	210.58
946.62	210.61
946.92	210.60
947.22	210.61
947.52	210.60
947.82	210.59
948.11	210.63
948.41	210.58
948.71	210.50
949.01	210.55
949.31	210.60
949.60	210.58
949.90	210.65
950.20	210.64
950.50	210.64
950.79	210.64
951.09	210.67
951.39	210.72
951.69	210.73
951.98	210.75
952.28	210.75
952.58	210.85
952.87	210.82
953.17	210.85
953.47	210.79
953.76	210.85
954.06	210.79
954.36	210.76
954.66	210.70
954.95	210.70
955.25	210.81
955.55	210.83
955.84	210.84
956.14	210.78
956.44	210.82
956.73	210.83
957.03	210.95
957.32	211.00
957.62	210.93
957.92	210.92
958.21	210.90
958.51	211.05
958.81	211.06
959.10	211.06
959.40	211.09
959.69	211.17
959.99	211.18
960.29	211.22
960.58	211.22
960.88	211.34
961.17	211.37
961.47	211.34
961.76	211.26
962.06	211.38
962.36	211.45
962.65	211.41
962.95	211.47
963.24	211.45
963.54	211.46
963.83	211.50
964.13	211.51
964.42	211.49
964.72	211.41
965.01	211.35
965.31	211.38
965.60	211.38
965.90	211.49
966.19	211.39
966.49	211.41
966.78	211.40
967.08	211.37
967.37	211.40
967.67	211.34
967.96	211.44
968.26	211.35
968.55	211.35
968.85	211.41
969.14	211.38
969.43	211.38
969.73	211.41
970.02	211.40
970.32	211.42
970.61	211.33
970.91	211.27
971.20	211.25
971.49	211.21
971.79	211.16
972.08	211.04
972.38	211.13
972.67	211.13
972.96	211.16
973.26	211.19
973.55	211.19
973.85	211.14
974.14	211.10
974.43	211.08
974.73	211.06
975.02	211.01
975.31	210.99
975.61	210.99
975.90	210.86
976.19	210.92
976.49	210.91
976.78	210.98
977.07	211.00
977.37	211.06
977.66	211.10
977.95	211.15
978.24	211.13
978.54	211.14
978.83	211.20
979.12	211.19
979.42	211.14
979.71	211.15
980.00	211.18
980.29	211.16
980.59	211.17
980.88	211.30
981.17	211.33
981.46	211.30
981.76	211.33
982.05	211.45
982.34	211.40
982.63	211.36
982.93	211.39
983.22	211.42
983.51	211.41
983.80	211.42
984.09	211.40
984.39	211.40
984.68	211.35
984.97	211.27
985.26	211.25
985.55	211.23
985.85	211.14
986.14	211.20
986.43	211.22
986.72	211.17
987.01	211.00
987.30	210.97
987.59	210.94
987.89	210.91
988.18	210.85
988.47	210.79
988.76	210.84
989.05	210.85
989.34	210.81
989.63	210.81
989.92	210.80
990.22	210.70
990.51	210.65
990.80	210.69
991.09	210.80
991.38	210.82
991.67	210.87
991.96	210.90
992.25	210.86
992.54	210.85
992.83	210.86
993.12	210.84
993.41	210.88
993.70	210.97
993.99	210.96
994.28	210.96
994.58	210.96
994.87	210.95
995.16	210.92
995.45	210.87
995.74	210.82
996.03	210.84
996.32	210.92
996.61	210.94
996.90	210.93
997.19	210.84
997.48	210.85
997.77	210.77
998.06	210.77
998.34	210.77
998.63	210.76
998.92	210.73
999.21	210.82
999.50	210.85
999.79	210.84
1000.08	210.81
1000.37	210.73
1000.66	210.75
1000.95	210.81
1001.24	210.84
1001.53	210.91
1001.82	210.97
1002.11	210.86
1002.40	210.94
1002.68	211.05
1002.97	211.19
1003.26	211.22
1003.55	211.21
1003.84	211.23
1004.13	211.32
1004.42	211.29
1004.71	211.27
1004.99	211.35
1005.28	211.33
1005.57	211.34
1005.86	211.33
1006.15	211.39
1006.44	211.43
1006.72	211.46
1007.01	211.47
1007.30	211.48
1007.59	211.46
1007.88	211.40
1008.17	211.50
1008.45	211.39
1008.74	211.33
1009.03	211.25
1009.32	211.21
1009.60	211.19
1009.89	211.22
1010.18	211.07
1010.47	211.07
1010.76	211.15
1011.04	211.15
1011.33	211.22
1011.62	211.18
1011.91	211.11
1012.19	211.15
1012.48	211.16
1012.77	211.16
1013.05	211.13
1013.34	211.07
1013.63	211.09
1013.92	211.11
1014.20	211.08
1014.49	211.11
1014.78	211.13
1015.06	211.04
1015.35	211.01
1015.64	211.10
1015.92	211.12
1016.21	211.18
1016.50	211.18
1016.78	211.17
1017.07	211.13
1017.36	211.02
1017.64	210.94
1017.93	211.03
1018.22	210.96
1018.50	210.95
1018.79	210.89
1019.08	210.88
1019.36	210.92
1019.65	210.88
1019.93	210.90
1020.22	210.92
1020.51	211.03
1020.79	211.00
1021.08	210.50
1021.36	210.40
1021.65	209.85
1021.94	211.85
1022.22	210.90
1022.51	210.60
1022.79	211.35
1023.08	210.95
1023.36	213.65
1023.65	211.05
>>>>>End Processed Spectral Data<<<<<
