SpectraSuite Data File
++++++++++++++++++++++++++++++++++++
Date: Mon Feb 25 17:32:53 EST 2013
User: group
Dark Spectrum Present: No
Reference Spectrum Present: No
Number of Sampled Component Spectra: 1
Spectrometers: USB2E7196
Integration Time (usec): 52000 (USB2E7196)
Spectra Averaged: 20 (USB2E7196)
Boxcar Smoothing: 10 (USB2E7196)
Correct for Electrical Dark: No (USB2E7196)
Strobe/Lamp Enabled: No (USB2E7196)
Correct for Detector Non-linearity: No (USB2E7196)
Correct for Stray Light: No (USB2E7196)
Number of Pixels in Processed Spectrum: 2048
>>>>>Begin Processed Spectral Data<<<<<
339.09	0.00
339.48	200.00
339.86	201.05
340.24	201.40
340.63	203.60
341.01	207.60
341.39	205.80
341.78	207.25
342.16	208.45
342.54	209.00
342.93	198.26
343.31	208.33
343.69	208.87
344.07	209.30
344.46	209.76
344.84	210.14
345.22	210.26
345.60	210.52
345.99	210.71
346.37	210.90
346.75	210.99
347.13	211.10
347.52	211.12
347.90	211.25
348.28	211.34
348.66	211.45
349.05	211.39
349.43	211.45
349.81	211.48
350.19	211.57
350.57	211.62
350.96	211.72
351.34	211.74
351.72	211.76
352.10	211.84
352.48	211.89
352.87	211.97
353.25	212.05
353.63	212.07
354.01	212.19
354.39	212.21
354.77	212.33
355.15	212.42
355.54	212.54
355.92	212.52
356.30	212.50
356.68	212.67
357.06	212.76
357.44	212.74
357.82	212.79
358.20	212.87
358.58	212.97
358.97	212.97
359.35	213.03
359.73	213.10
360.11	213.17
360.49	213.25
360.87	213.22
361.25	213.28
361.63	213.46
362.01	213.46
362.39	213.52
362.77	213.59
363.15	213.66
363.53	213.65
363.91	213.67
364.29	213.68
364.67	213.59
365.05	213.62
365.43	213.65
365.81	213.78
366.19	213.84
366.57	213.92
366.95	213.96
367.33	213.99
367.71	214.05
368.09	214.10
368.47	214.12
368.85	214.15
369.23	214.20
369.61	214.07
369.99	214.07
370.37	214.06
370.75	214.09
371.13	213.99
371.51	213.94
371.89	213.96
372.27	214.03
372.65	214.07
373.03	214.06
373.41	214.08
373.78	213.96
374.16	213.79
374.54	213.62
374.92	213.53
375.30	213.56
375.68	213.49
376.06	213.48
376.44	213.42
376.82	213.39
377.19	213.36
377.57	213.35
377.95	213.34
378.33	213.25
378.71	213.03
379.09	213.07
379.47	213.09
379.84	213.06
380.22	212.93
380.60	212.74
380.98	212.70
381.36	212.67
381.73	212.62
382.11	212.73
382.49	212.79
382.87	212.75
383.25	212.58
383.62	212.70
384.00	212.60
384.38	212.58
384.76	212.58
385.13	212.57
385.51	212.49
385.89	212.40
386.27	212.35
386.64	212.41
387.02	212.32
387.40	212.27
387.78	212.23
388.15	212.24
388.53	212.27
388.91	212.18
389.29	212.13
389.66	212.19
390.04	212.11
390.42	211.99
390.79	212.00
391.17	212.00
391.55	211.82
391.92	211.76
392.30	211.80
392.68	211.73
393.05	211.74
393.43	211.75
393.81	211.76
394.18	211.84
394.56	211.82
394.94	211.83
395.31	211.80
395.69	211.80
396.06	211.80
396.44	211.82
396.82	211.87
397.19	211.99
397.57	211.95
397.95	211.98
398.32	211.98
398.70	212.01
399.07	212.18
399.45	212.27
399.82	212.32
400.20	212.24
400.58	212.33
400.95	212.27
401.33	212.43
401.70	212.63
402.08	212.65
402.45	212.78
402.83	212.94
403.20	213.04
403.58	213.13
403.95	213.25
404.33	213.36
404.71	213.46
405.08	213.64
405.46	213.77
405.83	213.90
406.21	214.13
406.58	214.28
406.96	214.31
407.33	214.43
407.70	214.68
408.08	215.04
408.45	215.24
408.83	215.49
409.20	215.69
409.58	215.86
409.95	216.15
410.33	216.42
410.70	216.68
411.08	217.00
411.45	217.37
411.82	217.75
412.20	218.17
412.57	218.71
412.95	219.04
413.32	219.52
413.69	220.04
414.07	220.55
414.44	221.21
414.82	221.81
415.19	222.53
415.56	223.24
415.94	224.01
416.31	224.90
416.68	225.88
417.06	226.83
417.43	227.79
417.81	228.84
418.18	229.99
418.55	231.23
418.93	232.51
419.30	233.88
419.67	235.24
420.04	236.69
420.42	238.17
420.79	239.95
421.16	241.69
421.54	243.50
421.91	245.41
422.28	247.28
422.66	249.35
423.03	251.43
423.40	253.51
423.77	255.63
424.15	257.85
424.52	260.05
424.89	262.64
425.26	265.07
425.64	267.39
426.01	269.94
426.38	272.57
426.75	275.29
427.13	278.02
427.50	281.02
427.87	283.98
428.24	286.98
428.61	289.85
428.99	293.04
429.36	296.51
429.73	299.96
430.10	303.40
430.47	306.89
430.85	310.40
431.22	314.30
431.59	318.52
431.96	322.39
432.33	326.83
432.70	330.99
433.08	335.84
433.45	340.45
433.82	345.00
434.19	350.11
434.56	355.15
434.93	359.93
435.30	364.74
435.68	369.92
436.05	375.11
436.42	380.20
436.79	384.92
437.16	390.04
437.53	395.35
437.90	400.50
438.27	405.74
438.64	411.14
439.01	415.96
439.38	420.26
439.75	424.46
440.13	429.25
440.50	433.83
440.87	437.63
441.24	441.52
441.61	445.76
441.98	448.85
442.35	452.50
442.72	456.11
443.09	459.49
443.46	461.67
443.83	463.05
444.20	464.19
444.57	465.90
444.94	466.63
445.31	467.51
445.68	468.40
446.05	468.64
446.42	468.04
446.79	467.29
447.16	466.26
447.53	465.64
447.90	463.57
448.27	461.35
448.64	458.35
449.01	456.20
449.37	452.55
449.74	449.00
450.11	444.72
450.48	440.26
450.85	435.62
451.22	431.65
451.59	427.92
451.96	424.43
452.33	419.72
452.70	415.42
453.07	410.14
453.43	404.80
453.80	399.78
454.17	395.04
454.54	390.63
454.91	385.99
455.28	381.28
455.65	376.75
456.02	372.47
456.38	368.62
456.75	363.99
457.12	360.20
457.49	356.37
457.86	352.70
458.23	349.47
458.59	346.00
458.96	342.53
459.33	339.39
459.70	336.26
460.07	333.74
460.43	330.81
460.80	328.11
461.17	325.78
461.54	323.32
461.91	320.90
462.27	318.47
462.64	316.40
463.01	314.18
463.38	312.17
463.74	309.99
464.11	308.22
464.48	306.58
464.85	304.75
465.21	303.47
465.58	302.08
465.95	300.32
466.32	299.01
466.68	297.69
467.05	296.29
467.42	294.86
467.78	293.40
468.15	292.02
468.52	291.03
468.88	289.77
469.25	288.59
469.62	287.66
469.98	286.67
470.35	285.77
470.72	284.92
471.08	283.99
471.45	283.25
471.82	282.50
472.18	281.62
472.55	281.04
472.92	280.26
473.28	279.58
473.65	279.09
474.02	278.46
474.38	277.95
474.75	277.64
475.11	277.32
475.48	277.08
475.85	276.96
476.21	276.73
476.58	276.63
476.94	276.70
477.31	276.65
477.67	276.67
478.04	276.76
478.41	276.95
478.77	277.24
479.14	277.30
479.50	277.61
479.87	278.01
480.23	278.36
480.60	278.60
480.96	279.09
481.33	279.61
481.69	280.21
482.06	280.84
482.42	281.51
482.79	282.22
483.15	283.05
483.52	283.95
483.88	284.90
484.25	285.84
484.61	286.84
484.98	288.03
485.34	289.33
485.71	290.62
486.07	292.10
486.44	293.35
486.80	294.88
487.17	296.39
487.53	298.15
487.90	299.97
488.26	302.01
488.62	304.02
488.99	306.01
489.35	308.10
489.72	310.34
490.08	312.63
490.44	315.09
490.81	317.73
491.17	320.41
491.54	323.42
491.90	326.55
492.26	329.80
492.63	333.03
492.99	336.48
493.36	340.11
493.72	344.00
494.08	348.21
494.45	352.56
494.81	357.14
495.17	361.69
495.54	366.63
495.90	371.70
496.26	377.02
496.63	382.59
496.99	388.52
497.35	394.50
497.72	400.90
498.08	407.35
498.44	414.10
498.80	421.20
499.17	428.46
499.53	435.95
499.89	443.78
500.26	452.02
500.62	460.24
500.98	469.04
501.34	477.89
501.71	487.24
502.07	496.93
502.43	506.79
502.79	517.13
503.16	527.73
503.52	538.59
503.88	549.65
504.24	561.08
504.60	572.77
504.97	585.06
505.33	597.44
505.69	610.87
506.05	624.27
506.41	637.78
506.78	651.66
507.14	665.81
507.50	680.33
507.86	695.23
508.22	710.72
508.59	726.32
508.95	742.51
509.31	758.60
509.67	775.22
510.03	792.15
510.39	809.57
510.75	827.21
511.12	845.37
511.48	863.74
511.84	882.46
512.20	901.37
512.56	920.74
512.92	940.21
513.28	959.39
513.64	979.18
514.00	999.29
514.37	1019.60
514.73	1040.35
515.09	1061.20
515.45	1081.86
515.81	1102.99
516.17	1124.27
516.53	1145.61
516.89	1167.17
517.25	1188.65
517.61	1210.48
517.97	1232.04
518.33	1253.53
518.69	1274.91
519.05	1297.12
519.41	1319.46
519.77	1341.81
520.13	1363.82
520.49	1386.10
520.85	1408.80
521.21	1431.21
521.57	1454.03
521.93	1475.89
522.29	1498.72
522.65	1521.13
523.01	1543.97
523.37	1566.11
523.73	1588.63
524.09	1610.75
524.45	1633.29
524.81	1655.78
525.17	1677.99
525.53	1700.51
525.89	1722.80
526.25	1745.15
526.61	1766.31
526.97	1787.98
527.33	1809.43
527.68	1830.98
528.04	1851.99
528.40	1872.19
528.76	1892.90
529.12	1913.50
529.48	1935.51
529.84	1956.04
530.20	1976.55
530.56	1996.79
530.91	2017.67
531.27	2037.69
531.63	2057.47
531.99	2077.13
532.35	2096.16
532.71	2115.21
533.07	2134.70
533.42	2153.07
533.78	2171.92
534.14	2190.49
534.50	2207.58
534.86	2225.37
535.21	2242.07
535.57	2259.83
535.93	2277.34
536.29	2294.33
536.65	2310.78
537.00	2325.96
537.36	2341.13
537.72	2356.23
538.08	2371.33
538.44	2386.30
538.79	2401.76
539.15	2416.77
539.51	2431.52
539.87	2446.86
540.22	2461.53
540.58	2476.26
540.94	2491.51
541.29	2504.11
541.65	2516.26
542.01	2529.43
542.37	2541.55
542.72	2553.74
543.08	2564.81
543.44	2576.59
543.79	2586.71
544.15	2597.03
544.51	2607.80
544.87	2619.05
545.22	2628.17
545.58	2636.56
545.94	2643.94
546.29	2650.53
546.65	2656.84
547.01	2662.77
547.36	2668.22
547.72	2673.50
548.07	2677.36
548.43	2680.41
548.79	2684.32
549.14	2689.25
549.50	2693.29
549.86	2697.26
550.21	2701.50
550.57	2705.55
550.92	2708.33
551.28	2711.03
551.64	2713.81
551.99	2716.26
552.35	2717.49
552.70	2720.41
553.06	2723.54
553.41	2726.31
553.77	2728.86
554.13	2730.81
554.48	2732.77
554.84	2734.10
555.19	2734.69
555.55	2735.24
555.90	2736.13
556.26	2737.21
556.61	2736.96
556.97	2736.08
557.32	2735.28
557.68	2733.47
558.03	2732.15
558.39	2730.76
558.74	2730.28
559.10	2729.04
559.45	2727.51
559.81	2726.34
560.16	2723.79
560.52	2721.10
560.87	2718.15
561.23	2714.81
561.58	2712.68
561.94	2709.61
562.29	2706.30
562.64	2704.24
563.00	2701.57
563.35	2699.47
563.71	2697.28
564.06	2694.92
564.42	2692.93
564.77	2690.66
565.12	2688.90
565.48	2685.44
565.83	2681.96
566.19	2678.62
566.54	2674.43
566.89	2670.29
567.25	2666.50
567.60	2663.01
567.96	2659.37
568.31	2655.96
568.66	2651.47
569.02	2646.79
569.37	2641.87
569.72	2638.00
570.08	2632.40
570.43	2626.96
570.78	2620.81
571.14	2614.44
571.49	2607.85
571.84	2601.99
572.20	2595.25
572.55	2588.66
572.90	2581.89
573.26	2575.05
573.61	2567.98
573.96	2561.06
574.31	2553.33
574.67	2545.20
575.02	2536.91
575.37	2528.37
575.72	2519.52
576.08	2512.21
576.43	2503.82
576.78	2495.66
577.13	2487.37
577.49	2479.56
577.84	2471.61
578.19	2464.04
578.54	2456.82
578.90	2450.49
579.25	2441.68
579.60	2432.47
579.95	2423.16
580.30	2415.48
580.66	2407.37
581.01	2398.42
581.36	2389.32
581.71	2380.99
582.06	2372.35
582.42	2364.22
582.77	2355.10
583.12	2346.15
583.47	2337.36
583.82	2328.98
584.17	2319.63
584.53	2310.63
584.88	2301.56
585.23	2292.64
585.58	2283.15
585.93	2273.12
586.28	2263.23
586.63	2254.34
586.98	2246.22
587.34	2237.84
587.69	2228.16
588.04	2219.25
588.39	2211.06
588.74	2202.43
589.09	2193.78
589.44	2184.24
589.79	2175.21
590.14	2167.41
590.49	2159.03
590.84	2150.25
591.19	2141.94
591.54	2133.84
591.89	2123.58
592.25	2114.39
592.60	2104.94
592.95	2095.59
593.30	2086.60
593.65	2077.11
594.00	2067.53
594.35	2059.18
594.70	2049.87
595.05	2041.55
595.40	2032.56
595.75	2022.78
596.10	2014.42
596.45	2005.79
596.80	1997.94
597.15	1989.91
597.50	1980.67
597.85	1972.28
598.19	1963.33
598.54	1954.60
598.89	1946.67
599.24	1940.03
599.59	1932.78
599.94	1925.90
600.29	1918.01
600.64	1909.84
600.99	1901.23
601.34	1893.84
601.69	1884.90
602.04	1877.03
602.39	1868.69
602.74	1861.21
603.08	1854.81
603.43	1847.41
603.78	1839.50
604.13	1831.51
604.48	1823.59
604.83	1816.46
605.18	1809.44
605.53	1802.18
605.87	1794.63
606.22	1787.29
606.57	1779.31
606.92	1771.17
607.27	1762.74
607.62	1755.69
607.96	1749.15
608.31	1743.18
608.66	1735.64
609.01	1728.17
609.36	1720.56
609.70	1712.58
610.05	1704.72
610.40	1696.23
610.75	1687.77
611.10	1680.12
611.44	1671.03
611.79	1661.99
612.14	1652.89
612.49	1643.20
612.83	1634.34
613.18	1624.99
613.53	1615.42
613.88	1605.77
614.22	1596.79
614.57	1587.55
614.92	1578.12
615.27	1568.33
615.61	1558.30
615.96	1549.21
616.31	1540.68
616.65	1532.77
617.00	1524.46
617.35	1515.50
617.70	1506.64
618.04	1497.67
618.39	1488.28
618.74	1480.09
619.08	1471.53
619.43	1463.29
619.78	1455.49
620.12	1447.70
620.47	1439.73
620.82	1431.50
621.16	1423.33
621.51	1414.93
621.85	1406.76
622.20	1398.41
622.55	1390.20
622.89	1382.17
623.24	1374.27
623.59	1365.81
623.93	1357.16
624.28	1349.07
624.62	1341.13
624.97	1332.89
625.32	1325.07
625.66	1317.72
626.01	1310.46
626.35	1303.23
626.70	1295.50
627.04	1287.96
627.39	1280.22
627.73	1272.92
628.08	1265.89
628.43	1258.42
628.77	1251.23
629.12	1243.91
629.46	1237.14
629.81	1229.95
630.15	1222.49
630.50	1215.16
630.84	1207.87
631.19	1200.59
631.53	1193.75
631.88	1186.20
632.22	1178.91
632.57	1172.23
632.91	1164.71
633.26	1157.16
633.60	1149.90
633.95	1143.16
634.29	1135.84
634.64	1129.19
634.98	1121.88
635.32	1114.83
635.67	1108.62
636.01	1101.72
636.36	1094.86
636.70	1088.38
637.05	1081.82
637.39	1075.72
637.73	1069.51
638.08	1063.76
638.42	1057.80
638.77	1051.16
639.11	1044.76
639.45	1038.66
639.80	1031.80
640.14	1025.51
640.49	1019.40
640.83	1013.06
641.17	1006.60
641.52	1000.52
641.86	993.96
642.20	987.93
642.55	981.28
642.89	974.72
643.23	968.50
643.58	962.65
643.92	955.94
644.26	949.72
644.61	943.54
644.95	937.43
645.29	930.97
645.64	924.44
645.98	918.26
646.32	912.46
646.66	906.35
647.01	900.49
647.35	894.65
647.69	888.34
648.04	882.65
648.38	876.81
648.72	870.94
649.06	864.69
649.41	858.71
649.75	853.00
650.09	847.19
650.43	841.34
650.78	835.09
651.12	828.99
651.46	823.31
651.80	817.27
652.14	811.21
652.49	805.14
652.83	799.32
653.17	793.34
653.51	787.47
653.85	781.69
654.20	775.90
654.54	770.04
654.88	764.66
655.22	758.61
655.56	752.76
655.90	746.85
656.25	741.21
656.59	735.54
656.93	730.29
657.27	725.02
657.61	719.56
657.95	714.58
658.29	709.68
658.64	704.41
658.98	699.34
659.32	693.99
659.66	688.99
660.00	683.53
660.34	678.35
660.68	673.23
661.02	668.25
661.36	663.46
661.70	658.58
662.05	653.80
662.39	649.47
662.73	645.14
663.07	640.86
663.41	636.49
663.75	631.94
664.09	627.19
664.43	622.57
664.77	618.28
665.11	613.69
665.45	609.19
665.79	604.81
666.13	600.36
666.47	596.18
666.81	592.05
667.15	588.10
667.49	584.26
667.83	580.33
668.17	576.37
668.51	572.58
668.85	569.01
669.19	565.44
669.53	561.47
669.87	557.49
670.21	553.74
670.55	549.92
670.89	546.60
671.23	543.25
671.57	539.62
671.91	536.07
672.25	532.56
672.58	529.13
672.92	525.65
673.26	522.50
673.60	519.20
673.94	515.75
674.28	512.53
674.62	509.52
674.96	506.49
675.30	503.51
675.64	500.15
675.97	496.85
676.31	493.61
676.65	490.71
676.99	487.95
677.33	484.86
677.67	481.95
678.01	478.75
678.34	475.66
678.68	472.91
679.02	469.83
679.36	467.07
679.70	464.34
680.04	461.44
680.37	458.44
680.71	455.68
681.05	453.03
681.39	450.29
681.73	447.42
682.06	444.86
682.40	442.19
682.74	439.69
683.08	437.24
683.42	434.62
683.75	432.10
684.09	429.46
684.43	426.95
684.77	424.44
685.10	422.01
685.44	419.48
685.78	416.94
686.12	414.70
686.45	412.32
686.79	409.92
687.13	407.78
687.46	405.67
687.80	403.49
688.14	401.26
688.48	399.17
688.81	396.94
689.15	394.67
689.49	392.39
689.82	390.11
690.16	387.65
690.50	385.50
690.83	383.21
691.17	380.96
691.51	378.86
691.84	376.71
692.18	374.68
692.52	372.84
692.85	371.01
693.19	369.12
693.52	367.15
693.86	365.23
694.20	363.35
694.53	361.44
694.87	359.44
695.21	357.59
695.54	355.57
695.88	353.62
696.21	351.70
696.55	350.01
696.88	348.33
697.22	346.70
697.56	345.04
697.89	343.43
698.23	341.84
698.56	340.27
698.90	338.86
699.23	337.22
699.57	335.61
699.90	333.97
700.24	332.35
700.58	330.72
700.91	329.19
701.25	327.76
701.58	326.32
701.92	324.92
702.25	323.48
702.59	322.21
702.92	320.87
703.26	319.54
703.59	318.17
703.93	317.05
704.26	315.84
704.60	314.52
704.93	313.21
705.26	311.98
705.60	310.72
705.93	309.41
706.27	308.23
706.60	307.07
706.94	305.97
707.27	304.75
707.61	303.66
707.94	302.51
708.27	301.25
708.61	300.08
708.94	298.96
709.28	297.79
709.61	296.77
709.94	295.81
710.28	294.74
710.61	293.76
710.95	292.58
711.28	291.64
711.61	290.64
711.95	289.74
712.28	288.79
712.61	287.70
712.95	286.75
713.28	285.89
713.61	284.95
713.95	283.91
714.28	283.12
714.61	282.24
714.95	281.32
715.28	280.38
715.61	279.38
715.95	278.50
716.28	277.65
716.61	276.75
716.95	275.83
717.28	275.06
717.61	274.23
717.94	273.45
718.28	272.56
718.61	271.81
718.94	271.04
719.27	270.18
719.61	269.55
719.94	268.97
720.27	268.15
720.60	267.39
720.94	266.70
721.27	265.97
721.60	265.30
721.93	264.64
722.27	264.06
722.60	263.61
722.93	262.99
723.26	262.43
723.59	261.79
723.93	261.23
724.26	260.67
724.59	260.13
724.92	259.55
725.25	258.98
725.59	258.35
725.92	257.81
726.25	257.32
726.58	256.82
726.91	256.20
727.24	255.71
727.57	255.23
727.91	254.61
728.24	254.15
728.57	253.68
728.90	253.28
729.23	252.79
729.56	252.34
729.89	251.87
730.22	251.38
730.55	250.86
730.89	250.38
731.22	249.82
731.55	249.45
731.88	249.03
732.21	248.62
732.54	248.14
732.87	247.70
733.20	247.38
733.53	246.90
733.86	246.48
734.19	246.09
734.52	245.78
734.85	245.56
735.18	245.14
735.51	244.80
735.84	244.45
736.17	244.18
736.50	243.75
736.83	243.66
737.16	243.23
737.49	242.98
737.82	242.66
738.15	242.34
738.48	241.90
738.81	241.56
739.14	241.14
739.47	240.91
739.80	240.59
740.13	240.19
740.46	239.86
740.79	239.50
741.12	239.08
741.45	238.74
741.78	238.42
742.11	238.19
742.44	237.81
742.77	237.55
743.10	237.20
743.43	236.90
743.75	236.33
744.08	236.36
744.41	236.03
744.74	235.71
745.07	235.37
745.40	235.14
745.73	234.87
746.06	234.60
746.39	234.25
746.71	233.94
747.04	233.69
747.37	233.35
747.70	233.05
748.03	232.90
748.36	232.63
748.68	232.37
749.01	232.03
749.34	231.79
749.67	231.49
750.00	231.27
750.33	231.07
750.65	230.83
750.98	230.33
751.31	230.10
751.64	229.79
751.97	229.71
752.29	229.36
752.62	229.09
752.95	228.87
753.28	228.63
753.60	228.37
753.93	228.18
754.26	227.98
754.59	227.76
754.91	227.44
755.24	227.29
755.57	227.07
755.90	226.88
756.22	226.70
756.55	226.42
756.88	226.25
757.20	225.96
757.53	225.72
757.86	225.51
758.19	225.31
758.51	225.20
758.84	224.85
759.17	224.65
759.49	224.45
759.82	224.45
760.15	224.31
760.47	224.20
760.80	224.01
761.13	223.91
761.45	223.72
761.78	223.55
762.11	223.35
762.43	223.17
762.76	222.95
763.08	222.82
763.41	222.74
763.74	222.54
764.06	222.40
764.39	222.21
764.71	222.08
765.04	221.91
765.37	221.74
765.69	221.63
766.02	221.54
766.34	221.39
766.67	221.11
767.00	221.03
767.32	220.99
767.65	220.99
767.97	220.87
768.30	220.78
768.62	220.75
768.95	220.62
769.27	220.47
769.60	220.41
769.92	220.24
770.25	220.16
770.57	220.05
770.90	219.94
771.22	219.89
771.55	219.86
771.87	219.79
772.20	219.77
772.52	219.82
772.85	219.92
773.17	219.87
773.50	219.77
773.82	219.67
774.15	219.46
774.47	219.22
774.80	219.10
775.12	219.01
775.45	218.91
775.77	218.78
776.09	218.77
776.42	218.70
776.74	218.73
777.07	218.58
777.39	218.52
777.72	218.47
778.04	218.42
778.36	218.27
778.69	218.21
779.01	218.16
779.33	217.95
779.66	217.70
779.98	217.62
780.31	217.57
780.63	217.54
780.95	217.58
781.28	217.49
781.60	217.43
781.92	217.39
782.25	217.35
782.57	217.39
782.89	217.27
783.22	217.28
783.54	217.20
783.86	217.13
784.19	217.04
784.51	216.99
784.83	216.97
785.16	216.93
785.48	216.91
785.80	216.78
786.12	216.77
786.45	216.75
786.77	216.74
787.09	216.70
787.42	216.55
787.74	216.44
788.06	216.40
788.38	216.36
788.71	216.25
789.03	216.17
789.35	216.05
789.67	215.97
789.99	215.83
790.32	215.72
790.64	215.65
790.96	215.78
791.28	215.76
791.61	215.65
791.93	215.62
792.25	215.51
792.57	215.59
792.89	215.51
793.21	215.42
793.54	215.34
793.86	215.25
794.18	215.28
794.50	215.22
794.82	215.14
795.14	215.08
795.47	215.12
795.79	215.10
796.11	215.05
796.43	215.01
796.75	214.98
797.07	214.95
797.39	215.02
797.71	214.77
798.04	214.73
798.36	214.68
798.68	214.54
799.00	214.58
799.32	214.48
799.64	214.48
799.96	214.42
800.28	214.40
800.60	214.40
800.92	214.35
801.24	214.34
801.56	214.36
801.89	214.25
802.21	214.25
802.53	214.15
802.85	214.16
803.17	214.22
803.49	214.21
803.81	214.19
804.13	214.06
804.45	214.06
804.77	214.03
805.09	213.98
805.41	213.99
805.73	213.89
806.05	213.85
806.37	213.76
806.69	213.75
807.01	213.74
807.33	213.76
807.65	213.73
807.97	213.71
808.28	213.71
808.60	213.78
808.92	213.70
809.24	213.80
809.56	213.77
809.88	213.65
810.20	213.59
810.52	213.59
810.84	213.57
811.16	213.52
811.48	213.46
811.80	213.55
812.12	213.58
812.43	213.60
812.75	213.56
813.07	213.56
813.39	213.57
813.71	213.46
814.03	213.35
814.35	213.26
814.67	213.18
814.98	213.09
815.30	213.06
815.62	213.01
815.94	212.87
816.26	212.90
816.58	212.89
816.89	212.96
817.21	212.91
817.53	212.95
817.85	212.92
818.17	212.96
818.48	212.86
818.80	212.90
819.12	212.87
819.44	212.81
819.76	212.80
820.07	212.78
820.39	212.81
820.71	212.80
821.03	212.79
821.34	212.77
821.66	212.72
821.98	212.70
822.30	212.66
822.61	212.77
822.93	212.65
823.25	212.60
823.57	212.57
823.88	212.56
824.20	212.54
824.52	212.60
824.83	212.52
825.15	212.50
825.47	212.39
825.79	212.36
826.10	212.33
826.42	212.26
826.74	212.24
827.05	212.25
827.37	212.28
827.69	212.26
828.00	212.26
828.32	212.30
828.64	212.30
828.95	212.37
829.27	212.42
829.58	212.49
829.90	212.52
830.22	212.43
830.53	212.36
830.85	212.35
831.17	212.26
831.48	212.31
831.80	212.25
832.11	212.29
832.43	212.27
832.75	212.33
833.06	212.45
833.38	212.34
833.69	212.29
834.01	212.30
834.32	212.33
834.64	212.39
834.96	212.41
835.27	212.41
835.59	212.47
835.90	212.33
836.22	212.26
836.53	212.26
836.85	212.29
837.16	212.44
837.48	212.40
837.79	212.46
838.11	212.41
838.42	212.48
838.74	212.51
839.05	212.48
839.37	212.43
839.68	212.31
840.00	212.42
840.31	212.40
840.63	212.32
840.94	212.26
841.26	212.23
841.57	212.20
841.88	212.23
842.20	212.08
842.51	212.04
842.83	212.02
843.14	212.22
843.46	212.17
843.77	212.12
844.08	212.08
844.40	212.08
844.71	212.08
845.03	212.04
845.34	211.94
845.65	211.94
845.97	211.98
846.28	211.99
846.60	211.95
846.91	211.94
847.22	211.91
847.54	211.97
847.85	211.93
848.16	211.92
848.48	211.84
848.79	211.95
849.10	211.98
849.42	211.96
849.73	211.74
850.04	211.73
850.36	211.74
850.67	211.79
850.98	211.81
851.30	211.81
851.61	211.76
851.92	211.76
852.23	211.80
852.55	211.77
852.86	211.78
853.17	211.76
853.49	211.81
853.80	211.90
854.11	211.91
854.42	211.93
854.74	211.81
855.05	211.75
855.36	211.65
855.67	211.65
855.99	211.66
856.30	211.92
856.61	211.92
856.92	211.84
857.23	211.85
857.55	211.75
857.86	211.69
858.17	211.77
858.48	211.77
858.79	211.75
859.11	211.76
859.42	211.72
859.73	211.74
860.04	211.72
860.35	211.58
860.66	211.49
860.98	211.52
861.29	211.69
861.60	211.75
861.91	211.76
862.22	211.69
862.53	211.67
862.84	211.35
863.16	211.40
863.47	211.37
863.78	211.36
864.09	211.39
864.40	211.43
864.71	211.49
865.02	211.49
865.33	211.44
865.64	211.45
865.95	211.47
866.27	211.57
866.58	211.58
866.89	211.71
867.20	211.81
867.51	211.79
867.82	211.75
868.13	211.78
868.44	211.86
868.75	211.96
869.06	211.98
869.37	212.07
869.68	212.00
869.99	211.98
870.30	212.02
870.61	212.00
870.92	212.01
871.23	211.91
871.54	211.97
871.85	212.03
872.16	212.03
872.47	212.02
872.78	211.94
873.09	211.94
873.40	211.92
873.71	211.84
874.02	211.81
874.33	211.74
874.64	211.72
874.95	211.63
875.26	211.59
875.56	211.56
875.87	211.52
876.18	211.49
876.49	211.72
876.80	211.66
877.11	211.59
877.42	211.58
877.73	211.65
878.04	211.59
878.35	211.60
878.66	211.58
878.96	211.61
879.27	211.57
879.58	211.57
879.89	211.50
880.20	211.55
880.51	211.55
880.82	211.56
881.12	211.54
881.43	211.54
881.74	211.47
882.05	211.46
882.36	211.48
882.67	211.54
882.97	211.33
883.28	211.35
883.59	211.45
883.90	211.45
884.21	211.42
884.51	211.43
884.82	211.43
885.13	211.39
885.44	211.31
885.74	211.32
886.05	211.35
886.36	211.45
886.67	211.44
886.98	211.50
887.28	211.53
887.59	211.59
887.90	211.53
888.20	211.57
888.51	211.60
888.82	211.55
889.13	211.55
889.43	211.73
889.74	211.65
890.05	211.58
890.35	211.55
890.66	211.53
890.97	211.52
891.28	211.53
891.58	211.63
891.89	211.68
892.20	211.65
892.50	211.57
892.81	211.53
893.12	211.49
893.42	211.48
893.73	211.52
894.04	211.45
894.34	211.51
894.65	211.51
894.95	211.60
895.26	211.64
895.57	211.68
895.87	211.46
896.18	211.56
896.48	211.63
896.79	211.64
897.10	211.65
897.40	211.64
897.71	211.58
898.01	211.52
898.32	211.58
898.63	211.62
898.93	211.65
899.24	211.62
899.54	211.62
899.85	211.53
900.15	211.45
900.46	211.48
900.76	211.48
901.07	211.53
901.38	211.44
901.68	211.46
901.99	211.43
902.29	211.44
902.60	211.36
902.90	211.30
903.21	211.27
903.51	211.21
903.82	211.30
904.12	211.35
904.43	211.32
904.73	211.24
905.03	211.22
905.34	211.40
905.64	211.34
905.95	211.32
906.25	211.30
906.56	211.33
906.86	211.31
907.17	211.25
907.47	211.20
907.77	211.25
908.08	211.14
908.38	211.16
908.69	211.19
908.99	211.26
909.30	211.32
909.60	211.35
909.90	211.35
910.21	211.25
910.51	211.18
910.81	211.22
911.12	211.24
911.42	211.25
911.73	211.09
912.03	211.10
912.33	211.13
912.64	211.20
912.94	211.15
913.24	211.12
913.55	211.21
913.85	211.21
914.15	211.20
914.46	211.27
914.76	211.22
915.06	211.19
915.37	211.17
915.67	211.15
915.97	211.20
916.27	211.21
916.58	211.25
916.88	211.24
917.18	211.18
917.49	211.31
917.79	211.28
918.09	211.28
918.39	211.33
918.70	211.35
919.00	211.33
919.30	211.48
919.60	211.54
919.91	211.51
920.21	211.49
920.51	211.47
920.81	211.44
921.12	211.49
921.42	211.53
921.72	211.57
922.02	211.48
922.32	211.46
922.63	211.47
922.93	211.60
923.23	211.60
923.53	211.61
923.83	211.52
924.13	211.57
924.44	211.57
924.74	211.64
925.04	211.66
925.34	211.61
925.64	211.50
925.94	211.40
926.24	211.44
926.55	211.39
926.85	211.36
927.15	211.41
927.45	211.36
927.75	211.28
928.05	211.26
928.35	211.30
928.65	211.31
928.95	211.28
929.26	211.14
929.56	211.20
929.86	211.25
930.16	211.24
930.46	211.17
930.76	211.17
931.06	211.07
931.36	210.99
931.66	211.02
931.96	211.04
932.26	211.06
932.56	211.03
932.86	211.15
933.16	211.19
933.46	211.13
933.76	211.16
934.06	211.21
934.36	211.23
934.66	211.19
934.96	211.11
935.26	211.11
935.56	211.13
935.86	211.08
936.16	211.05
936.46	210.95
936.76	210.97
937.06	210.94
937.36	210.93
937.66	210.98
937.96	211.05
938.26	211.06
938.56	211.10
938.86	211.10
939.16	211.05
939.46	211.03
939.76	211.03
940.06	210.98
940.35	210.92
940.65	210.79
940.95	210.84
941.25	210.83
941.55	210.84
941.85	210.78
942.15	210.83
942.45	210.83
942.75	210.88
943.04	210.86
943.34	210.90
943.64	210.92
943.94	210.84
944.24	210.83
944.54	210.82
944.84	210.75
945.13	210.69
945.43	210.64
945.73	210.64
946.03	210.70
946.33	210.67
946.62	210.77
946.92	210.89
947.22	210.91
947.52	210.89
947.82	210.88
948.11	210.90
948.41	210.83
948.71	210.81
949.01	210.76
949.31	210.82
949.60	210.78
949.90	210.78
950.20	210.85
950.50	210.80
950.79	210.74
951.09	210.88
951.39	210.91
951.69	210.95
951.98	210.96
952.28	210.91
952.58	211.00
952.87	210.98
953.17	210.96
953.47	210.90
953.76	210.96
954.06	211.01
954.36	211.05
954.66	211.04
954.95	211.06
955.25	211.14
955.55	211.11
955.84	211.11
956.14	211.15
956.44	211.14
956.73	211.13
957.03	211.13
957.32	211.04
957.62	211.00
957.92	211.04
958.21	211.10
958.51	211.29
958.81	211.27
959.10	211.24
959.40	211.26
959.69	211.35
959.99	211.32
960.29	211.26
960.58	211.25
960.88	211.42
961.17	211.42
961.47	211.43
961.76	211.39
962.06	211.44
962.36	211.42
962.65	211.44
962.95	211.49
963.24	211.60
963.54	211.64
963.83	211.71
964.13	211.67
964.42	211.57
964.72	211.45
965.01	211.43
965.31	211.47
965.60	211.43
965.90	211.50
966.19	211.45
966.49	211.48
966.78	211.46
967.08	211.35
967.37	211.36
967.67	211.29
967.96	211.36
968.26	211.37
968.55	211.42
968.85	211.41
969.14	211.43
969.43	211.35
969.73	211.27
970.02	211.19
970.32	211.16
970.61	211.18
970.91	211.11
971.20	211.06
971.49	210.98
971.79	211.01
972.08	210.85
972.38	210.93
972.67	210.90
972.96	210.90
973.26	210.83
973.55	210.87
973.85	210.91
974.14	210.92
974.43	210.89
974.73	210.85
975.02	210.85
975.31	210.76
975.61	210.76
975.90	210.82
976.19	210.85
976.49	210.90
976.78	210.90
977.07	210.92
977.37	210.93
977.66	210.96
977.95	210.98
978.24	210.98
978.54	211.03
978.83	211.13
979.12	211.10
979.42	211.13
979.71	211.10
980.00	211.08
980.29	211.02
980.59	211.05
980.88	211.10
981.17	211.07
981.46	211.10
981.76	211.07
982.05	211.06
982.34	211.12
982.63	211.09
982.93	211.07
983.22	211.05
983.51	211.16
983.80	211.22
984.09	211.21
984.39	211.25
984.68	211.16
984.97	211.10
985.26	211.12
985.55	211.19
985.85	211.20
986.14	211.20
986.43	211.21
986.72	211.17
987.01	211.02
987.30	211.03
987.59	210.96
987.89	211.01
988.18	210.95
988.47	210.90
988.76	210.87
989.05	210.88
989.34	210.95
989.63	210.89
989.92	210.83
990.22	210.82
990.51	210.85
990.80	210.91
991.09	210.91
991.38	210.94
991.67	210.87
991.96	210.81
992.25	210.77
992.54	210.73
992.83	210.72
993.12	210.79
993.41	210.81
993.70	210.90
993.99	210.91
994.28	210.95
994.58	211.01
994.87	211.08
995.16	211.10
995.45	211.05
995.74	210.98
996.03	210.99
996.32	210.92
996.61	210.89
996.90	210.77
997.19	210.79
997.48	210.80
997.77	210.78
998.06	210.82
998.34	210.87
998.63	210.85
998.92	210.80
999.21	210.85
999.50	210.89
999.79	210.83
1000.08	210.79
1000.37	210.81
1000.66	210.78
1000.95	210.76
1001.24	210.77
1001.53	210.76
1001.82	210.80
1002.11	210.77
1002.40	210.85
1002.68	210.93
1002.97	211.13
1003.26	211.06
1003.55	211.05
1003.84	211.07
1004.13	211.11
1004.42	211.11
1004.71	211.17
1004.99	211.20
1005.28	211.24
1005.57	211.07
1005.86	211.06
1006.15	211.08
1006.44	211.09
1006.72	211.10
1007.01	211.00
1007.30	210.95
1007.59	210.92
1007.88	210.95
1008.17	210.95
1008.45	210.89
1008.74	210.74
1009.03	210.65
1009.32	210.62
1009.60	210.59
1009.89	210.55
1010.18	210.45
1010.47	210.38
1010.76	210.41
1011.04	210.34
1011.33	210.35
1011.62	210.43
1011.91	210.43
1012.19	210.39
1012.48	210.33
1012.77	210.27
1013.05	210.36
1013.34	210.42
1013.63	210.45
1013.92	210.41
1014.20	210.43
1014.49	210.53
1014.78	210.57
1015.06	210.50
1015.35	210.55
1015.64	210.57
1015.92	210.60
1016.21	210.60
1016.50	210.68
1016.78	210.63
1017.07	210.65
1017.36	210.60
1017.64	210.60
1017.93	210.70
1018.22	210.73
1018.50	210.75
1018.79	210.75
1019.08	210.70
1019.36	210.66
1019.65	210.59
1019.93	210.66
1020.22	210.67
1020.51	210.69
1020.79	210.72
1021.08	211.10
1021.36	210.30
1021.65	210.20
1021.94	210.25
1022.22	210.20
1022.51	209.55
1022.79	212.00
1023.08	210.65
1023.36	212.80
1023.65	211.00
>>>>>End Processed Spectral Data<<<<<
