SpectraSuite Data File
++++++++++++++++++++++++++++++++++++
Date: Mon Feb 25 17:31:50 EST 2013
User: group
Dark Spectrum Present: No
Reference Spectrum Present: No
Number of Sampled Component Spectra: 1
Spectrometers: USB2E7196
Integration Time (usec): 52000 (USB2E7196)
Spectra Averaged: 20 (USB2E7196)
Boxcar Smoothing: 10 (USB2E7196)
Correct for Electrical Dark: No (USB2E7196)
Strobe/Lamp Enabled: No (USB2E7196)
Correct for Detector Non-linearity: No (USB2E7196)
Correct for Stray Light: No (USB2E7196)
Number of Pixels in Processed Spectrum: 2048
>>>>>Begin Processed Spectral Data<<<<<
339.09	0.00
339.48	197.70
339.86	199.70
340.24	201.30
340.63	202.85
341.01	207.40
341.39	204.80
341.78	206.50
342.16	207.85
342.54	208.05
342.93	197.71
343.31	207.67
343.69	208.23
344.07	208.68
344.46	209.12
344.84	209.55
345.22	209.73
345.60	210.09
345.99	210.28
346.37	210.44
346.75	210.55
347.13	210.64
347.52	210.76
347.90	210.82
348.28	210.85
348.66	210.98
349.05	211.01
349.43	211.09
349.81	211.14
350.19	211.20
350.57	211.31
350.96	211.42
351.34	211.58
351.72	211.71
352.10	211.89
352.48	211.97
352.87	212.05
353.25	212.07
353.63	212.11
354.01	212.20
354.39	212.22
354.77	212.30
355.15	212.35
355.54	212.33
355.92	212.35
356.30	212.44
356.68	212.57
357.06	212.67
357.44	212.67
357.82	212.70
358.20	212.80
358.58	212.88
358.97	212.97
359.35	213.09
359.73	213.22
360.11	213.28
360.49	213.40
360.87	213.44
361.25	213.52
361.63	213.47
362.01	213.54
362.39	213.62
362.77	213.71
363.15	213.79
363.53	213.84
363.91	213.84
364.29	213.89
364.67	213.74
365.05	213.76
365.43	213.85
365.81	213.99
366.19	214.03
366.57	214.07
366.95	214.04
367.33	213.96
367.71	213.93
368.09	213.93
368.47	213.88
368.85	213.84
369.23	213.94
369.61	214.01
369.99	214.05
370.37	214.11
370.75	214.12
371.13	214.09
371.51	214.08
371.89	214.13
372.27	214.13
372.65	214.12
373.03	214.14
373.41	214.02
373.78	213.92
374.16	213.80
374.54	213.67
374.92	213.63
375.30	213.64
375.68	213.60
376.06	213.61
376.44	213.55
376.82	213.52
377.19	213.40
377.57	213.26
377.95	213.15
378.33	213.07
378.71	212.97
379.09	212.89
379.47	212.87
379.84	212.76
380.22	212.71
380.60	212.66
380.98	212.55
381.36	212.51
381.73	212.44
382.11	212.47
382.49	212.45
382.87	212.37
383.25	212.32
383.62	212.45
384.00	212.30
384.38	212.18
384.76	212.10
385.13	212.17
385.51	212.31
385.89	212.25
386.27	212.30
386.64	212.26
387.02	212.30
387.40	212.15
387.78	212.17
388.15	212.15
388.53	212.07
388.91	212.08
389.29	212.04
389.66	212.05
390.04	212.00
390.42	212.07
390.79	212.07
391.17	212.01
391.55	211.79
391.92	211.85
392.30	211.97
392.68	211.94
393.05	211.91
393.43	211.76
393.81	211.87
394.18	211.74
394.56	211.75
394.94	211.75
395.31	211.79
395.69	211.87
396.06	211.87
396.44	211.89
396.82	211.88
397.19	211.99
397.57	212.02
397.95	212.09
398.32	211.98
398.70	212.07
399.07	212.10
399.45	212.11
399.82	212.18
400.20	212.19
400.58	212.26
400.95	212.24
401.33	212.34
401.70	212.44
402.08	212.57
402.45	212.64
402.83	212.70
403.20	212.82
403.58	212.81
403.95	212.93
404.33	213.05
404.71	213.09
405.08	213.31
405.46	213.36
405.83	213.49
406.21	213.65
406.58	213.85
406.96	213.97
407.33	214.15
407.70	214.27
408.08	214.54
408.45	214.80
408.83	214.97
409.20	215.22
409.58	215.34
409.95	215.56
410.33	215.92
410.70	216.22
411.08	216.59
411.45	216.97
411.82	217.30
412.20	217.84
412.57	218.52
412.95	218.76
413.32	219.32
413.69	219.81
414.07	220.34
414.44	220.90
414.82	221.54
415.19	222.30
415.56	223.00
415.94	223.75
416.31	224.58
416.68	225.51
417.06	226.44
417.43	227.41
417.81	228.50
418.18	229.54
418.55	230.72
418.93	231.94
419.30	233.26
419.67	234.64
420.04	235.98
420.42	237.34
420.79	239.12
421.16	240.79
421.54	242.62
421.91	244.47
422.28	246.31
422.66	248.37
423.03	250.33
423.40	252.51
423.77	254.69
424.15	256.92
424.52	259.21
424.89	261.78
425.26	264.25
425.64	266.54
426.01	269.11
426.38	271.77
426.75	274.46
427.13	277.17
427.50	280.02
427.87	283.07
428.24	286.08
428.61	288.99
428.99	292.11
429.36	295.50
429.73	298.99
430.10	302.47
430.47	305.92
430.85	309.55
431.22	313.36
431.59	317.45
431.96	321.24
432.33	325.56
432.70	329.80
433.08	334.69
433.45	339.32
433.82	343.92
434.19	348.97
434.56	353.97
434.93	358.76
435.30	363.45
435.68	368.61
436.05	373.67
436.42	378.77
436.79	383.64
437.16	388.67
437.53	394.03
437.90	399.18
438.27	404.36
438.64	409.65
439.01	414.64
439.38	418.94
439.75	423.28
440.13	428.11
440.50	432.43
440.87	436.08
441.24	439.75
441.61	443.88
441.98	446.82
442.35	450.26
442.72	453.89
443.09	457.42
443.46	459.60
443.83	461.10
444.20	462.23
444.57	463.75
444.94	464.46
445.31	465.15
445.68	465.81
446.05	466.03
446.42	465.42
446.79	464.57
447.16	463.74
447.53	463.11
447.90	460.92
448.27	458.87
448.64	455.90
449.01	453.82
449.37	450.21
449.74	446.84
450.11	442.92
450.48	438.45
450.85	433.93
451.22	429.98
451.59	426.27
451.96	422.74
452.33	418.07
452.70	413.74
453.07	408.66
453.43	403.57
453.80	398.60
454.17	393.85
454.54	389.26
454.91	384.59
455.28	379.88
455.65	375.61
456.02	371.40
456.38	367.72
456.75	363.19
457.12	359.35
457.49	355.64
457.86	351.84
458.23	348.57
458.59	345.11
458.96	341.60
459.33	338.44
459.70	335.32
460.07	332.85
460.43	330.09
460.80	327.32
461.17	324.94
461.54	322.49
461.91	320.23
462.27	317.91
462.64	315.76
463.01	313.53
463.38	311.47
463.74	309.27
464.11	307.42
464.48	305.85
464.85	304.19
465.21	302.82
465.58	301.36
465.95	299.68
466.32	298.28
466.68	296.84
467.05	295.44
467.42	294.05
467.78	292.63
468.15	291.30
468.52	290.40
468.88	289.10
469.25	287.89
469.62	286.92
469.98	286.06
470.35	285.27
470.72	284.45
471.08	283.40
471.45	282.63
471.82	281.95
472.18	281.09
472.55	280.50
472.92	279.65
473.28	279.05
473.65	278.55
474.02	277.95
474.38	277.56
474.75	277.21
475.11	276.90
475.48	276.63
475.85	276.42
476.21	276.23
476.58	276.14
476.94	276.20
477.31	276.12
477.67	276.02
478.04	275.97
478.41	276.13
478.77	276.49
479.14	276.58
479.50	276.83
479.87	277.23
480.23	277.62
480.60	278.06
480.96	278.53
481.33	279.16
481.69	279.77
482.06	280.37
482.42	281.02
482.79	281.61
483.15	282.47
483.52	283.43
483.88	284.33
484.25	285.32
484.61	286.34
484.98	287.49
485.34	288.77
485.71	290.22
486.07	291.61
486.44	292.85
486.80	294.48
487.17	296.08
487.53	297.69
487.90	299.48
488.26	301.43
488.62	303.47
488.99	305.46
489.35	307.70
489.72	310.09
490.08	312.51
490.44	315.03
490.81	317.73
491.17	320.36
491.54	323.20
491.90	326.23
492.26	329.44
492.63	332.74
492.99	336.13
493.36	339.66
493.72	343.38
494.08	347.36
494.45	351.56
494.81	355.97
495.17	360.64
495.54	365.52
495.90	370.52
496.26	375.72
496.63	381.26
496.99	386.91
497.35	392.75
497.72	399.11
498.08	405.66
498.44	412.27
498.80	419.50
499.17	426.93
499.53	434.65
499.89	442.66
500.26	450.83
500.62	459.22
500.98	467.96
501.34	477.22
501.71	486.77
502.07	496.45
502.43	506.47
502.79	516.58
503.16	527.16
503.52	538.07
503.88	549.36
504.24	560.77
504.60	572.68
504.97	585.03
505.33	597.30
505.69	610.47
506.05	623.93
506.41	637.54
506.78	651.36
507.14	665.45
507.50	679.86
507.86	694.66
508.22	710.01
508.59	725.68
508.95	741.45
509.31	757.58
509.67	774.26
510.03	791.05
510.39	808.41
510.75	826.16
511.12	844.01
511.48	862.25
511.84	880.85
512.20	899.37
512.56	918.66
512.92	938.08
513.28	957.49
513.64	977.00
514.00	996.86
514.37	1017.16
514.73	1037.65
515.09	1058.60
515.45	1079.58
515.81	1100.51
516.17	1121.39
516.53	1142.66
516.89	1164.09
517.25	1185.55
517.61	1207.21
517.97	1228.49
518.33	1249.68
518.69	1271.38
519.05	1293.17
519.41	1315.21
519.77	1337.58
520.13	1359.33
520.49	1381.28
520.85	1403.57
521.21	1426.02
521.57	1448.56
521.93	1470.18
522.29	1492.85
522.65	1515.03
523.01	1537.35
523.37	1559.49
523.73	1581.99
524.09	1603.95
524.45	1626.09
524.81	1647.92
525.17	1669.92
525.53	1692.51
525.89	1714.87
526.25	1736.68
526.61	1757.81
526.97	1779.42
527.33	1800.46
527.68	1821.81
528.04	1842.85
528.40	1863.23
528.76	1883.70
529.12	1904.43
529.48	1926.26
529.84	1946.49
530.20	1966.57
530.56	1986.64
530.91	2007.02
531.27	2026.93
531.63	2046.84
531.99	2066.52
532.35	2085.79
532.71	2104.57
533.07	2123.72
533.42	2141.93
533.78	2160.57
534.14	2178.63
534.50	2195.46
534.86	2213.49
535.21	2230.01
535.57	2247.77
535.93	2265.20
536.29	2281.88
536.65	2298.12
537.00	2312.96
537.36	2327.97
537.72	2343.19
538.08	2358.15
538.44	2373.30
538.79	2388.37
539.15	2403.17
539.51	2417.58
539.87	2432.57
540.22	2446.92
540.58	2461.60
540.94	2475.84
541.29	2488.63
541.65	2500.83
542.01	2513.91
542.37	2525.47
542.72	2537.88
543.08	2548.61
543.44	2560.09
543.79	2570.07
544.15	2580.18
544.51	2591.43
544.87	2602.10
545.22	2611.02
545.58	2619.65
545.94	2626.54
546.29	2632.72
546.65	2638.88
547.01	2644.78
547.36	2650.30
547.72	2655.66
548.07	2659.25
548.43	2663.34
548.79	2667.34
549.14	2672.10
549.50	2676.37
549.86	2680.13
550.21	2683.84
550.57	2687.85
550.92	2690.12
551.28	2692.53
551.64	2695.00
551.99	2697.00
552.35	2698.80
552.70	2701.40
553.06	2703.87
553.41	2707.17
553.77	2710.54
554.13	2712.48
554.48	2714.35
554.84	2715.60
555.19	2716.16
555.55	2716.82
555.90	2717.20
556.26	2717.47
556.61	2717.27
556.97	2715.79
557.32	2715.16
557.68	2713.37
558.03	2711.59
558.39	2709.85
558.74	2709.83
559.10	2708.67
559.45	2706.67
559.81	2705.43
560.16	2703.00
560.52	2700.43
560.87	2697.33
561.23	2693.49
561.58	2691.14
561.94	2687.93
562.29	2684.24
562.64	2681.82
563.00	2679.25
563.35	2676.51
563.71	2674.77
564.06	2672.70
564.42	2671.05
564.77	2668.84
565.12	2667.09
565.48	2664.00
565.83	2661.34
566.19	2657.86
566.54	2653.56
566.89	2649.68
567.25	2645.83
567.60	2642.13
567.96	2638.61
568.31	2635.01
568.66	2631.12
569.02	2626.67
569.37	2621.63
569.72	2617.91
570.08	2612.52
570.43	2606.69
570.78	2601.12
571.14	2594.60
571.49	2587.85
571.84	2581.97
572.20	2574.95
572.55	2568.18
572.90	2561.43
573.26	2554.78
573.61	2547.39
573.96	2541.09
574.31	2533.50
574.67	2525.47
575.02	2517.14
575.37	2508.28
575.72	2499.14
576.08	2491.52
576.43	2482.89
576.78	2475.20
577.13	2467.15
577.49	2459.25
577.84	2451.88
578.19	2444.28
578.54	2437.03
578.90	2430.28
579.25	2421.57
579.60	2412.65
579.95	2403.66
580.30	2395.63
580.66	2386.82
581.01	2378.13
581.36	2368.35
581.71	2360.08
582.06	2351.40
582.42	2343.34
582.77	2334.79
583.12	2325.96
583.47	2317.36
583.82	2309.18
584.17	2299.85
584.53	2290.88
584.88	2282.10
585.23	2272.94
585.58	2263.46
585.93	2253.87
586.28	2244.60
586.63	2235.85
586.98	2227.83
587.34	2219.45
587.69	2210.25
588.04	2201.56
588.39	2193.69
588.74	2185.16
589.09	2176.52
589.44	2167.42
589.79	2159.18
590.14	2151.20
590.49	2142.78
590.84	2133.55
591.19	2125.42
591.54	2117.22
591.89	2107.20
592.25	2098.17
592.60	2088.75
592.95	2079.36
593.30	2070.06
593.65	2060.44
594.00	2050.62
594.35	2042.48
594.70	2033.41
595.05	2025.12
595.40	2016.48
595.75	2006.86
596.10	1998.99
596.45	1990.33
596.80	1982.54
597.15	1974.18
597.50	1964.95
597.85	1956.85
598.19	1948.37
598.54	1939.55
598.89	1931.55
599.24	1924.91
599.59	1917.82
599.94	1910.98
600.29	1903.58
600.64	1895.67
600.99	1887.19
601.34	1880.43
601.69	1871.66
602.04	1863.65
602.39	1855.55
602.74	1847.79
603.08	1841.03
603.43	1833.42
603.78	1825.49
604.13	1817.29
604.48	1809.34
604.83	1802.69
605.18	1795.84
605.53	1788.45
605.87	1780.88
606.22	1773.79
606.57	1765.94
606.92	1757.65
607.27	1749.83
607.62	1742.55
607.96	1735.66
608.31	1729.40
608.66	1721.63
609.01	1714.13
609.36	1706.42
609.70	1698.72
610.05	1691.12
610.40	1682.98
610.75	1674.65
611.10	1667.06
611.44	1658.31
611.79	1649.30
612.14	1640.05
612.49	1630.49
612.83	1621.88
613.18	1612.38
613.53	1603.01
613.88	1593.38
614.22	1584.80
614.57	1575.55
614.92	1566.17
615.27	1557.01
615.61	1547.72
615.96	1538.77
616.31	1530.41
616.65	1522.84
617.00	1514.62
617.35	1505.87
617.70	1497.04
618.04	1488.11
618.39	1478.83
618.74	1470.60
619.08	1462.05
619.43	1454.07
619.78	1445.98
620.12	1438.07
620.47	1430.65
620.82	1422.17
621.16	1414.15
621.51	1405.60
621.85	1397.30
622.20	1389.12
622.55	1380.64
622.89	1372.42
623.24	1364.58
623.59	1356.08
623.93	1347.31
624.28	1338.99
624.62	1331.05
624.97	1323.09
625.32	1315.28
625.66	1308.22
626.01	1300.94
626.35	1293.94
626.70	1286.15
627.04	1279.07
627.39	1271.41
627.73	1263.88
628.08	1257.18
628.43	1249.89
628.77	1242.83
629.12	1235.49
629.46	1228.97
629.81	1222.08
630.15	1214.95
630.50	1207.36
630.84	1199.91
631.19	1192.64
631.53	1185.90
631.88	1178.28
632.22	1170.77
632.57	1164.05
632.91	1156.50
633.26	1148.89
633.60	1141.69
633.95	1134.83
634.29	1127.67
634.64	1121.06
634.98	1113.97
635.32	1106.97
635.67	1100.42
636.01	1093.74
636.36	1087.12
636.70	1080.27
637.05	1073.85
637.39	1067.41
637.73	1061.48
638.08	1056.08
638.42	1050.29
638.77	1043.73
639.11	1037.61
639.45	1031.60
639.80	1025.15
640.14	1018.87
640.49	1012.75
640.83	1006.62
641.17	1000.55
641.52	994.54
641.86	987.99
642.20	981.90
642.55	975.04
642.89	968.75
643.23	962.34
643.58	956.43
643.92	949.95
644.26	943.61
644.61	937.51
644.95	931.38
645.29	924.84
645.64	918.37
645.98	912.24
646.32	906.37
646.66	900.28
647.01	894.31
647.35	888.52
647.69	882.43
648.04	876.43
648.38	870.23
648.72	864.18
649.06	858.19
649.41	852.22
649.75	846.73
650.09	840.80
650.43	835.00
650.78	828.65
651.12	822.84
651.46	817.19
651.80	811.61
652.14	805.52
652.49	799.60
652.83	793.90
653.17	787.94
653.51	782.26
653.85	776.54
654.20	770.73
654.54	764.95
654.88	759.46
655.22	753.74
655.56	748.06
655.90	742.21
656.25	736.67
656.59	731.27
656.93	726.05
657.27	721.03
657.61	715.61
657.95	710.80
658.29	705.72
658.64	700.42
658.98	695.07
659.32	689.77
659.66	684.80
660.00	679.55
660.34	674.38
660.68	669.10
661.02	664.20
661.36	659.61
661.70	654.80
662.05	650.21
662.39	646.00
662.73	641.71
663.07	637.44
663.41	633.13
663.75	628.57
664.09	623.99
664.43	619.13
664.77	614.91
665.11	610.18
665.45	605.84
665.79	601.56
666.13	597.32
666.47	593.25
666.81	589.12
667.15	584.96
667.49	581.15
667.83	577.37
668.17	573.56
668.51	569.61
668.85	565.95
669.19	562.17
669.53	558.14
669.87	554.13
670.21	550.30
670.55	546.43
670.89	543.10
671.23	539.68
671.57	536.40
671.91	532.80
672.25	529.48
672.58	526.02
672.92	522.65
673.26	519.42
673.60	516.25
673.94	512.92
674.28	509.71
674.62	506.44
674.96	503.31
675.30	500.32
675.64	497.27
675.97	494.04
676.31	491.14
676.65	488.29
676.99	485.66
677.33	482.75
677.67	479.77
678.01	476.51
678.34	473.54
678.68	470.61
679.02	467.63
679.36	464.75
679.70	461.86
680.04	459.01
680.37	456.04
680.71	453.17
681.05	450.61
681.39	447.91
681.73	445.37
682.06	442.82
682.40	440.15
682.74	437.52
683.08	435.09
683.42	432.38
683.75	429.76
684.09	427.07
684.43	424.64
684.77	422.22
685.10	419.83
685.44	417.25
685.78	414.93
686.12	412.71
686.45	410.52
686.79	408.32
687.13	406.20
687.46	404.10
687.80	402.08
688.14	399.71
688.48	397.66
688.81	395.49
689.15	393.24
689.49	391.05
689.82	388.90
690.16	386.58
690.50	384.26
690.83	381.98
691.17	379.79
691.51	377.47
691.84	375.41
692.18	373.37
692.52	371.39
692.85	369.37
693.19	367.58
693.52	365.58
693.86	363.60
694.20	361.74
694.53	359.75
694.87	357.65
695.21	355.88
695.54	353.94
695.88	351.97
696.21	350.18
696.55	348.45
696.88	346.66
697.22	345.04
697.56	343.55
697.89	342.00
698.23	340.43
698.56	338.92
698.90	337.42
699.23	335.87
699.57	334.45
699.90	332.79
700.24	331.06
700.58	329.54
700.91	328.06
701.25	326.62
701.58	325.21
701.92	323.84
702.25	322.41
702.59	321.05
702.92	319.75
703.26	318.31
703.59	317.04
703.93	315.97
704.26	314.65
704.60	313.28
704.93	312.05
705.26	310.75
705.60	309.61
705.93	308.34
706.27	307.23
706.60	306.06
706.94	305.03
707.27	303.95
707.61	302.86
707.94	301.75
708.27	300.48
708.61	299.44
708.94	298.38
709.28	297.14
709.61	296.13
709.94	295.12
710.28	294.16
710.61	293.10
710.95	291.89
711.28	291.02
711.61	290.09
711.95	289.10
712.28	288.14
712.61	287.09
712.95	286.14
713.28	285.22
713.61	284.23
713.95	283.27
714.28	282.40
714.61	281.53
714.95	280.64
715.28	279.67
715.61	278.68
715.95	277.74
716.28	276.94
716.61	276.12
716.95	275.24
717.28	274.31
717.61	273.47
717.94	272.59
718.28	271.70
718.61	270.93
718.94	270.25
719.27	269.52
719.61	268.80
719.94	268.22
720.27	267.42
720.60	266.69
720.94	266.01
721.27	265.25
721.60	264.62
721.93	264.04
722.27	263.48
722.60	262.97
722.93	262.46
723.26	261.97
723.59	261.29
723.93	260.75
724.26	260.22
724.59	259.69
724.92	259.26
725.25	258.64
725.59	258.17
725.92	257.60
726.25	257.10
726.58	256.65
726.91	255.95
727.24	255.52
727.57	255.06
727.91	254.46
728.24	254.08
728.57	253.63
728.90	253.09
729.23	252.65
729.56	252.21
729.89	251.67
730.22	251.09
730.55	250.65
730.89	250.16
731.22	249.72
731.55	249.22
731.88	248.68
732.21	248.29
732.54	247.82
732.87	247.28
733.20	246.78
733.53	246.32
733.86	245.92
734.19	245.50
734.52	245.11
734.85	244.91
735.18	244.50
735.51	244.06
735.84	243.70
736.17	243.42
736.50	242.94
736.83	242.83
737.16	242.52
737.49	242.18
737.82	241.83
738.15	241.45
738.48	241.15
738.81	240.83
739.14	240.46
739.47	240.10
739.80	239.85
740.13	239.61
740.46	239.22
740.79	238.93
741.12	238.45
741.45	238.15
741.78	237.78
742.11	237.41
742.44	237.10
742.77	236.78
743.10	236.37
743.43	236.13
743.75	235.61
744.08	235.47
744.41	235.25
744.74	234.99
745.07	234.65
745.40	234.35
745.73	234.13
746.06	233.88
746.39	233.55
746.71	233.22
747.04	232.87
747.37	232.61
747.70	232.32
748.03	232.09
748.36	231.86
748.68	231.58
749.01	231.27
749.34	230.97
749.67	230.81
750.00	230.55
750.33	230.40
750.65	230.16
750.98	229.77
751.31	229.44
751.64	229.12
751.97	229.02
752.29	228.83
752.62	228.54
752.95	228.34
753.28	228.08
753.60	227.74
753.93	227.62
754.26	227.41
754.59	227.22
754.91	227.03
755.24	226.78
755.57	226.60
755.90	226.54
756.22	226.35
756.55	226.06
756.88	225.88
757.20	225.55
757.53	225.25
757.86	225.05
758.19	224.94
758.51	224.81
758.84	224.56
759.17	224.34
759.49	224.22
759.82	224.10
760.15	224.00
760.47	223.93
760.80	223.70
761.13	223.57
761.45	223.34
761.78	223.26
762.11	223.11
762.43	222.94
762.76	222.76
763.08	222.69
763.41	222.65
763.74	222.43
764.06	222.32
764.39	222.28
764.71	222.07
765.04	221.88
765.37	221.70
765.69	221.56
766.02	221.40
766.34	221.22
766.67	221.03
767.00	220.97
767.32	221.01
767.65	221.08
767.97	220.92
768.30	220.89
768.62	220.72
768.95	220.60
769.27	220.49
769.60	220.38
769.92	220.19
770.25	219.96
770.57	219.90
770.90	219.77
771.22	219.65
771.55	219.55
771.87	219.47
772.20	219.44
772.52	219.47
772.85	219.66
773.17	219.48
773.50	219.41
773.82	219.24
774.15	218.99
774.47	218.72
774.80	218.63
775.12	218.50
775.45	218.34
775.77	218.27
776.09	218.19
776.42	218.03
776.74	218.07
777.07	217.99
777.39	217.93
777.72	217.87
778.04	217.82
778.36	217.85
778.69	217.74
779.01	217.65
779.33	217.44
779.66	217.07
779.98	217.08
780.31	217.00
780.63	217.04
780.95	217.04
781.28	217.02
781.60	216.92
781.92	216.84
782.25	216.85
782.57	216.75
782.89	216.65
783.22	216.57
783.54	216.44
783.86	216.43
784.19	216.32
784.51	216.29
784.83	216.19
785.16	216.08
785.48	216.09
785.80	215.97
786.12	215.95
786.45	215.91
786.77	215.81
787.09	215.73
787.42	215.60
787.74	215.55
788.06	215.46
788.38	215.49
788.71	215.50
789.03	215.48
789.35	215.51
789.67	215.49
789.99	215.55
790.32	215.46
790.64	215.41
790.96	215.58
791.28	215.48
791.61	215.36
791.93	215.33
792.25	215.25
792.57	215.40
792.89	215.30
793.21	215.25
793.54	215.24
793.86	215.24
794.18	215.25
794.50	215.17
794.82	215.11
795.14	215.14
795.47	215.08
795.79	215.00
796.11	214.86
796.43	214.82
796.75	214.75
797.07	214.73
797.39	214.69
797.71	214.54
798.04	214.57
798.36	214.61
798.68	214.62
799.00	214.62
799.32	214.41
799.64	214.41
799.96	214.41
800.28	214.42
800.60	214.32
800.92	214.27
801.24	214.22
801.56	214.22
801.89	214.11
802.21	213.99
802.53	213.96
802.85	213.96
803.17	214.00
803.49	213.90
803.81	213.93
804.13	213.89
804.45	213.82
804.77	213.79
805.09	213.75
805.41	213.66
805.73	213.58
806.05	213.56
806.37	213.57
806.69	213.55
807.01	213.51
807.33	213.51
807.65	213.37
807.97	213.41
808.28	213.35
808.60	213.33
808.92	213.41
809.24	213.47
809.56	213.45
809.88	213.35
810.20	213.29
810.52	213.25
810.84	213.18
811.16	213.09
811.48	213.07
811.80	213.07
812.12	213.13
812.43	213.09
812.75	213.12
813.07	213.03
813.39	213.03
813.71	212.97
814.03	212.95
814.35	212.99
814.67	212.97
814.98	212.93
815.30	212.93
815.62	212.85
815.94	212.75
816.26	212.78
816.58	212.84
816.89	212.87
817.21	212.74
817.53	212.80
817.85	212.82
818.17	212.72
818.48	212.68
818.80	212.64
819.12	212.65
819.44	212.57
819.76	212.54
820.07	212.48
820.39	212.49
820.71	212.44
821.03	212.42
821.34	212.31
821.66	212.37
821.98	212.31
822.30	212.28
822.61	212.44
822.93	212.32
823.25	212.21
823.57	212.20
823.88	212.29
824.20	212.32
824.52	212.33
824.83	212.32
825.15	212.30
825.47	212.27
825.79	212.30
826.10	212.28
826.42	212.32
826.74	212.41
827.05	212.43
827.37	212.44
827.69	212.45
828.00	212.47
828.32	212.42
828.64	212.41
828.95	212.50
829.27	212.36
829.58	212.42
829.90	212.52
830.22	212.54
830.53	212.47
830.85	212.36
831.17	212.30
831.48	212.34
831.80	212.42
832.11	212.42
832.43	212.36
832.75	212.40
833.06	212.43
833.38	212.30
833.69	212.24
834.01	212.26
834.32	212.24
834.64	212.26
834.96	212.23
835.27	212.24
835.59	212.18
835.90	212.14
836.22	212.17
836.53	212.00
836.85	212.00
837.16	212.25
837.48	212.35
837.79	212.38
838.11	212.39
838.42	212.35
838.74	212.31
839.05	212.28
839.37	212.19
839.68	212.09
840.00	212.09
840.31	212.17
840.63	212.17
840.94	212.13
841.26	212.05
841.57	212.07
841.88	212.07
842.20	212.03
842.51	212.00
842.83	211.86
843.14	212.05
843.46	212.03
843.77	211.82
844.08	211.73
844.40	211.67
844.71	211.63
845.03	211.50
845.34	211.53
845.65	211.51
845.97	211.51
846.28	211.56
846.60	211.64
846.91	211.54
847.22	211.50
847.54	211.57
847.85	211.58
848.16	211.54
848.48	211.55
848.79	211.58
849.10	211.57
849.42	211.63
849.73	211.48
850.04	211.41
850.36	211.37
850.67	211.39
850.98	211.42
851.30	211.42
851.61	211.47
851.92	211.42
852.23	211.47
852.55	211.55
852.86	211.51
853.17	211.48
853.49	211.50
853.80	211.55
854.11	211.51
854.42	211.59
854.74	211.56
855.05	211.55
855.36	211.49
855.67	211.53
855.99	211.55
856.30	211.84
856.61	211.86
856.92	211.93
857.23	211.89
857.55	211.86
857.86	211.79
858.17	211.78
858.48	211.75
858.79	211.69
859.11	211.72
859.42	211.72
859.73	211.69
860.04	211.69
860.35	211.65
860.66	211.64
860.98	211.58
861.29	211.56
861.60	211.54
861.91	211.60
862.22	211.64
862.53	211.61
862.84	211.29
863.16	211.25
863.47	211.27
863.78	211.21
864.09	211.22
864.40	211.31
864.71	211.31
865.02	211.37
865.33	211.37
865.64	211.30
865.95	211.23
866.27	211.34
866.58	211.35
866.89	211.32
867.20	211.31
867.51	211.29
867.82	211.34
868.13	211.35
868.44	211.22
868.75	211.12
869.06	211.12
869.37	211.16
869.68	211.29
869.99	211.19
870.30	211.27
870.61	211.31
870.92	211.28
871.23	211.33
871.54	211.38
871.85	211.44
872.16	211.38
872.47	211.39
872.78	211.25
873.09	211.19
873.40	211.16
873.71	211.15
874.02	211.15
874.33	211.11
874.64	211.10
874.95	211.19
875.26	211.19
875.56	211.15
875.87	211.14
876.18	211.06
876.49	211.25
876.80	211.16
877.11	211.16
877.42	211.13
877.73	211.10
878.04	211.01
878.35	211.01
878.66	211.09
878.96	211.06
879.27	211.07
879.58	211.06
879.89	211.04
880.20	211.09
880.51	211.14
880.82	211.14
881.12	211.11
881.43	211.07
881.74	211.11
882.05	211.11
882.36	211.11
882.67	211.05
882.97	210.82
883.28	210.90
883.59	210.84
883.90	210.88
884.21	210.89
884.51	210.86
884.82	210.78
885.13	210.70
885.44	210.74
885.74	210.80
886.05	210.88
886.36	210.90
886.67	210.83
886.98	210.87
887.28	210.89
887.59	210.91
887.90	210.92
888.20	210.85
888.51	210.88
888.82	210.83
889.13	210.88
889.43	211.03
889.74	211.00
890.05	210.99
890.35	210.96
890.66	210.87
890.97	210.88
891.28	210.92
891.58	210.99
891.89	211.04
892.20	211.04
892.50	211.00
892.81	210.97
893.12	210.99
893.42	210.85
893.73	210.92
894.04	210.93
894.34	211.00
894.65	211.04
894.95	211.03
895.26	211.09
895.57	211.22
895.87	211.09
896.18	211.07
896.48	211.10
896.79	211.10
897.10	211.20
897.40	211.24
897.71	211.31
898.01	211.32
898.32	211.27
898.63	211.21
898.93	211.22
899.24	211.25
899.54	211.21
899.85	211.23
900.15	211.30
900.46	211.27
900.76	211.28
901.07	211.29
901.38	211.25
901.68	211.21
901.99	211.05
902.29	211.13
902.60	211.16
902.90	211.20
903.21	211.20
903.51	211.20
903.82	211.28
904.12	211.24
904.43	211.17
904.73	211.21
905.03	211.25
905.34	211.40
905.64	211.32
905.95	211.32
906.25	211.30
906.56	211.22
906.86	211.24
907.17	211.20
907.47	211.24
907.77	211.28
908.08	211.28
908.38	211.31
908.69	211.29
908.99	211.30
909.30	211.32
909.60	211.40
909.90	211.30
910.21	211.24
910.51	211.25
910.81	211.26
911.12	211.24
911.42	211.27
911.73	211.15
912.03	211.26
912.33	211.39
912.64	211.41
912.94	211.36
913.24	211.37
913.55	211.38
913.85	211.35
914.15	211.45
914.46	211.53
914.76	211.58
915.06	211.60
915.37	211.63
915.67	211.60
915.97	211.51
916.27	211.60
916.58	211.56
916.88	211.51
917.18	211.55
917.49	211.70
917.79	211.70
918.09	211.65
918.39	211.70
918.70	211.61
919.00	211.66
919.30	211.80
919.60	211.77
919.91	211.73
920.21	211.77
920.51	211.59
920.81	211.55
921.12	211.46
921.42	211.40
921.72	211.35
922.02	211.38
922.32	211.41
922.63	211.37
922.93	211.52
923.23	211.53
923.53	211.47
923.83	211.30
924.13	211.32
924.44	211.40
924.74	211.36
925.04	211.51
925.34	211.49
925.64	211.41
925.94	211.38
926.24	211.52
926.55	211.51
926.85	211.62
927.15	211.62
927.45	211.72
927.75	211.72
928.05	211.72
928.35	211.69
928.65	211.79
928.95	211.83
929.26	211.75
929.56	211.76
929.86	211.79
930.16	211.77
930.46	211.74
930.76	211.73
931.06	211.71
931.36	211.60
931.66	211.62
931.96	211.65
932.26	211.76
932.56	211.69
932.86	211.66
933.16	211.62
933.46	211.58
933.76	211.56
934.06	211.60
934.36	211.71
934.66	211.70
934.96	211.61
935.26	211.65
935.56	211.66
935.86	211.62
936.16	211.62
936.46	211.62
936.76	211.62
937.06	211.56
937.36	211.58
937.66	211.63
937.96	211.60
938.26	211.54
938.56	211.52
938.86	211.46
939.16	211.45
939.46	211.53
939.76	211.52
940.06	211.45
940.35	211.38
940.65	211.23
940.95	211.23
941.25	211.11
941.55	211.01
941.85	210.96
942.15	211.00
942.45	211.06
942.75	211.09
943.04	211.07
943.34	211.10
943.64	211.02
943.94	210.87
944.24	210.88
944.54	210.90
944.84	210.85
945.13	210.82
945.43	210.82
945.73	210.71
946.03	210.66
946.33	210.56
946.62	210.61
946.92	210.65
947.22	210.67
947.52	210.80
947.82	210.86
948.11	210.89
948.41	210.85
948.71	210.76
949.01	210.74
949.31	210.75
949.60	210.75
949.90	210.81
950.20	210.90
950.50	210.88
950.79	210.85
951.09	210.92
951.39	210.90
951.69	210.88
951.98	210.94
952.28	211.00
952.58	211.10
952.87	211.06
953.17	211.09
953.47	211.02
953.76	211.02
954.06	211.02
954.36	210.97
954.66	210.97
954.95	211.03
955.25	211.04
955.55	211.06
955.84	210.96
956.14	210.91
956.44	210.90
956.73	210.81
957.03	210.85
957.32	210.82
957.62	210.87
957.92	210.93
958.21	210.93
958.51	211.12
958.81	211.15
959.10	211.21
959.40	211.24
959.69	211.29
959.99	211.23
960.29	211.18
960.58	211.13
960.88	211.21
961.17	211.21
961.47	211.25
961.76	211.17
962.06	211.31
962.36	211.36
962.65	211.32
962.95	211.42
963.24	211.40
963.54	211.41
963.83	211.39
964.13	211.41
964.42	211.38
964.72	211.24
965.01	211.24
965.31	211.19
965.60	211.17
965.90	211.21
966.19	211.21
966.49	211.22
966.78	211.26
967.08	211.24
967.37	211.20
967.67	211.12
967.96	211.12
968.26	211.07
968.55	211.08
968.85	211.10
969.14	211.14
969.43	211.09
969.73	211.06
970.02	211.13
970.32	211.03
970.61	211.01
970.91	210.99
971.20	210.95
971.49	210.93
971.79	210.90
972.08	210.86
972.38	210.83
972.67	210.78
972.96	210.79
973.26	210.75
973.55	210.78
973.85	210.82
974.14	210.84
974.43	210.84
974.73	210.81
975.02	210.83
975.31	210.83
975.61	210.83
975.90	210.78
976.19	210.70
976.49	210.75
976.78	210.76
977.07	210.70
977.37	210.69
977.66	210.72
977.95	210.75
978.24	210.70
978.54	210.72
978.83	210.69
979.12	210.71
979.42	210.73
979.71	210.70
980.00	210.75
980.29	210.78
980.59	210.74
980.88	210.80
981.17	210.74
981.46	210.68
981.76	210.65
982.05	210.68
982.34	210.63
982.63	210.60
982.93	210.55
983.22	210.65
983.51	210.62
983.80	210.58
984.09	210.53
984.39	210.62
984.68	210.62
984.97	210.71
985.26	210.64
985.55	210.66
985.85	210.56
986.14	210.50
986.43	210.57
986.72	210.53
987.01	210.45
987.30	210.45
987.59	210.35
987.89	210.37
988.18	210.35
988.47	210.40
988.76	210.37
989.05	210.41
989.34	210.32
989.63	210.42
989.92	210.44
990.22	210.39
990.51	210.35
990.80	210.31
991.09	210.31
991.38	210.40
991.67	210.33
991.96	210.40
992.25	210.41
992.54	210.37
992.83	210.46
993.12	210.45
993.41	210.44
993.70	210.65
993.99	210.74
994.28	210.73
994.58	210.74
994.87	210.80
995.16	210.82
995.45	210.86
995.74	210.78
996.03	210.84
996.32	210.91
996.61	210.94
996.90	210.93
997.19	210.88
997.48	210.85
997.77	210.84
998.06	210.83
998.34	210.83
998.63	210.78
998.92	210.72
999.21	210.81
999.50	210.81
999.79	210.70
1000.08	210.68
1000.37	210.80
1000.66	210.81
1000.95	210.86
1001.24	210.86
1001.53	210.89
1001.82	210.93
1002.11	210.83
1002.40	210.82
1002.68	210.91
1002.97	211.07
1003.26	211.06
1003.55	211.00
1003.84	211.01
1004.13	211.08
1004.42	211.11
1004.71	211.11
1004.99	211.12
1005.28	211.14
1005.57	211.13
1005.86	211.13
1006.15	211.11
1006.44	210.98
1006.72	210.99
1007.01	210.93
1007.30	210.93
1007.59	210.92
1007.88	210.88
1008.17	210.98
1008.45	211.01
1008.74	210.90
1009.03	210.82
1009.32	210.86
1009.60	210.94
1009.89	210.98
1010.18	210.93
1010.47	210.87
1010.76	210.85
1011.04	210.85
1011.33	210.78
1011.62	210.81
1011.91	210.86
1012.19	210.87
1012.48	210.87
1012.77	210.89
1013.05	210.86
1013.34	210.88
1013.63	210.90
1013.92	210.88
1014.20	210.80
1014.49	210.80
1014.78	210.76
1015.06	210.69
1015.35	210.66
1015.64	210.60
1015.92	210.61
1016.21	210.63
1016.50	210.64
1016.78	210.73
1017.07	210.80
1017.36	210.80
1017.64	210.81
1017.93	210.78
1018.22	210.71
1018.50	210.74
1018.79	210.70
1019.08	210.68
1019.36	210.60
1019.65	210.49
1019.93	210.61
1020.22	210.66
1020.51	210.73
1020.79	210.73
1021.08	209.90
1021.36	210.45
1021.65	210.75
1021.94	210.20
1022.22	209.25
1022.51	209.75
1022.79	212.20
1023.08	211.10
1023.36	212.75
1023.65	210.10
>>>>>End Processed Spectral Data<<<<<
