SpectraSuite Data File
++++++++++++++++++++++++++++++++++++
Date: Mon Feb 25 17:35:17 EST 2013
User: group
Dark Spectrum Present: No
Reference Spectrum Present: No
Number of Sampled Component Spectra: 1
Spectrometers: USB2E7196
Integration Time (usec): 52000 (USB2E7196)
Spectra Averaged: 20 (USB2E7196)
Boxcar Smoothing: 10 (USB2E7196)
Correct for Electrical Dark: No (USB2E7196)
Strobe/Lamp Enabled: No (USB2E7196)
Correct for Detector Non-linearity: No (USB2E7196)
Correct for Stray Light: No (USB2E7196)
Number of Pixels in Processed Spectrum: 2048
>>>>>Begin Processed Spectral Data<<<<<
339.09	0.00
339.48	199.45
339.86	199.90
340.24	201.75
340.63	201.90
341.01	207.35
341.39	206.80
341.78	207.85
342.16	209.10
342.54	209.45
342.93	198.28
343.31	208.34
343.69	208.89
344.07	209.38
344.46	209.84
344.84	210.30
345.22	210.49
345.60	210.71
345.99	210.84
346.37	210.95
346.75	211.00
347.13	211.07
347.52	211.14
347.90	211.25
348.28	211.28
348.66	211.41
349.05	211.37
349.43	211.42
349.81	211.51
350.19	211.59
350.57	211.67
350.96	211.75
351.34	211.82
351.72	211.81
352.10	211.89
352.48	211.94
352.87	211.96
353.25	212.03
353.63	212.14
354.01	212.24
354.39	212.34
354.77	212.40
355.15	212.57
355.54	212.55
355.92	212.52
356.30	212.64
356.68	212.83
357.06	212.85
357.44	212.91
357.82	212.90
358.20	213.00
358.58	213.02
358.97	213.10
359.35	213.15
359.73	213.31
360.11	213.34
360.49	213.35
360.87	213.43
361.25	213.51
361.63	213.51
362.01	213.61
362.39	213.57
362.77	213.65
363.15	213.69
363.53	213.78
363.91	213.72
364.29	213.69
364.67	213.51
365.05	213.61
365.43	213.61
365.81	213.65
366.19	213.71
366.57	213.82
366.95	213.85
367.33	213.85
367.71	213.86
368.09	213.96
368.47	213.97
368.85	213.97
369.23	213.94
369.61	213.92
369.99	213.92
370.37	213.92
370.75	213.94
371.13	213.75
371.51	213.71
371.89	213.75
372.27	213.76
372.65	213.81
373.03	213.68
373.41	213.64
373.78	213.60
374.16	213.47
374.54	213.46
374.92	213.35
375.30	213.22
375.68	213.07
376.06	212.94
376.44	212.93
376.82	212.85
377.19	212.83
377.57	212.74
377.95	212.59
378.33	212.57
378.71	212.45
379.09	212.48
379.47	212.45
379.84	212.40
380.22	212.34
380.60	212.23
380.98	212.25
381.36	212.21
381.73	212.21
382.11	212.13
382.49	212.07
382.87	212.00
383.25	212.04
383.62	212.20
384.00	212.30
384.38	212.19
384.76	212.21
385.13	212.24
385.51	212.27
385.89	212.24
386.27	212.15
386.64	212.16
387.02	212.12
387.40	212.02
387.78	212.06
388.15	212.04
388.53	212.04
388.91	212.02
389.29	211.97
389.66	211.86
390.04	211.89
390.42	211.83
390.79	211.88
391.17	211.84
391.55	211.65
391.92	211.51
392.30	211.54
392.68	211.50
393.05	211.44
393.43	211.40
393.81	211.40
394.18	211.44
394.56	211.44
394.94	211.43
395.31	211.35
395.69	211.37
396.06	211.38
396.44	211.29
396.82	211.27
397.19	211.37
397.57	211.41
397.95	211.41
398.32	211.36
398.70	211.39
399.07	211.42
399.45	211.51
399.82	211.52
400.20	211.51
400.58	211.54
400.95	211.54
401.33	211.66
401.70	211.87
402.08	211.89
402.45	211.92
402.83	212.00
403.20	212.14
403.58	212.12
403.95	212.19
404.33	212.36
404.71	212.45
405.08	212.58
405.46	212.69
405.83	212.85
406.21	213.05
406.58	213.14
406.96	213.28
407.33	213.40
407.70	213.68
408.08	214.06
408.45	214.31
408.83	214.55
409.20	214.74
409.58	214.81
409.95	215.14
410.33	215.46
410.70	215.70
411.08	216.10
411.45	216.60
411.82	217.00
412.20	217.40
412.57	217.95
412.95	218.39
413.32	218.92
413.69	219.38
414.07	219.89
414.44	220.52
414.82	221.15
415.19	221.97
415.56	222.62
415.94	223.31
416.31	224.22
416.68	225.10
417.06	226.06
417.43	227.09
417.81	228.17
418.18	229.29
418.55	230.66
418.93	231.90
419.30	233.16
419.67	234.61
420.04	236.11
420.42	237.58
420.79	239.29
421.16	241.03
421.54	242.92
421.91	244.83
422.28	246.83
422.66	248.88
423.03	250.85
423.40	252.98
423.77	255.25
424.15	257.44
424.52	259.72
424.89	262.37
425.26	264.79
425.64	267.16
426.01	269.70
426.38	272.38
426.75	275.17
427.13	277.97
427.50	280.92
427.87	284.02
428.24	287.05
428.61	290.00
428.99	293.25
429.36	296.83
429.73	300.37
430.10	303.74
430.47	307.30
430.85	310.94
431.22	314.90
431.59	319.11
431.96	323.08
432.33	327.51
432.70	331.72
433.08	336.78
433.45	341.61
433.82	346.39
434.19	351.46
434.56	356.49
434.93	361.33
435.30	366.10
435.68	371.50
436.05	376.85
436.42	382.10
436.79	386.88
437.16	391.96
437.53	397.36
437.90	402.79
438.27	408.18
438.64	413.67
439.01	418.68
439.38	423.09
439.75	427.37
440.13	432.36
440.50	437.01
440.87	440.69
441.24	444.36
441.61	448.57
441.98	451.80
442.35	455.35
442.72	458.99
443.09	462.59
443.46	464.55
443.83	465.93
444.20	467.11
444.57	468.82
444.94	469.56
445.31	470.29
445.68	471.04
446.05	471.18
446.42	470.50
446.79	469.66
447.16	468.77
447.53	468.16
447.90	465.95
448.27	463.78
448.64	460.76
449.01	458.68
449.37	455.05
449.74	451.38
450.11	447.34
450.48	442.78
450.85	438.20
451.22	434.16
451.59	430.37
451.96	426.73
452.33	421.94
452.70	417.58
453.07	412.35
453.43	407.09
453.80	402.03
454.17	397.21
454.54	392.61
454.91	387.78
455.28	383.00
455.65	378.56
456.02	374.20
456.38	370.61
456.75	365.89
457.12	361.94
457.49	358.12
457.86	354.38
458.23	351.29
458.59	347.70
458.96	344.30
459.33	341.05
459.70	337.82
460.07	335.33
460.43	332.40
460.80	329.67
461.17	327.22
461.54	324.72
461.91	322.38
462.27	320.09
462.64	318.02
463.01	315.75
463.38	313.62
463.74	311.36
464.11	309.46
464.48	307.85
464.85	306.06
465.21	304.73
465.58	303.25
465.95	301.49
466.32	299.95
466.68	298.55
467.05	297.15
467.42	295.76
467.78	294.33
468.15	293.06
468.52	292.11
468.88	290.81
469.25	289.72
469.62	288.83
469.98	287.78
470.35	286.81
470.72	285.91
471.08	284.95
471.45	284.24
471.82	283.40
472.18	282.45
472.55	281.91
472.92	281.11
473.28	280.46
473.65	279.78
474.02	279.34
474.38	278.84
474.75	278.59
475.11	278.19
475.48	277.91
475.85	277.66
476.21	277.48
476.58	277.44
476.94	277.32
477.31	277.14
477.67	277.13
478.04	277.19
478.41	277.37
478.77	277.67
479.14	277.75
479.50	277.95
479.87	278.44
480.23	278.86
480.60	279.28
480.96	279.70
481.33	280.37
481.69	280.91
482.06	281.45
482.42	282.01
482.79	282.82
483.15	283.61
483.52	284.60
483.88	285.60
484.25	286.52
484.61	287.64
484.98	288.81
485.34	290.12
485.71	291.48
486.07	292.94
486.44	294.20
486.80	295.73
487.17	297.42
487.53	299.13
487.90	300.83
488.26	302.65
488.62	304.80
488.99	306.80
489.35	309.03
489.72	311.42
490.08	313.85
490.44	316.36
490.81	319.04
491.17	321.66
491.54	324.46
491.90	327.46
492.26	330.63
492.63	334.06
492.99	337.49
493.36	341.08
493.72	344.95
494.08	349.06
494.45	353.35
494.81	357.72
495.17	362.26
495.54	367.26
495.90	372.44
496.26	377.66
496.63	383.24
496.99	388.89
497.35	394.96
497.72	401.18
498.08	407.60
498.44	414.32
498.80	421.52
499.17	428.95
499.53	436.60
499.89	444.62
500.26	452.71
500.62	461.19
500.98	470.23
501.34	479.37
501.71	488.83
502.07	498.60
502.43	508.66
502.79	519.07
503.16	529.72
503.52	540.75
503.88	552.06
504.24	563.65
504.60	575.69
504.97	588.03
505.33	600.57
505.69	614.11
506.05	627.59
506.41	641.17
506.78	655.16
507.14	669.49
507.50	684.10
507.86	699.14
508.22	714.39
508.59	729.81
508.95	745.77
509.31	762.07
509.67	778.75
510.03	795.85
510.39	813.54
510.75	831.50
511.12	849.50
511.48	867.85
511.84	886.56
512.20	905.18
512.56	924.42
512.92	944.22
513.28	963.57
513.64	983.39
514.00	1003.41
514.37	1023.87
514.73	1044.55
515.09	1065.36
515.45	1086.41
515.81	1107.73
516.17	1129.18
516.53	1150.64
516.89	1172.31
517.25	1194.03
517.61	1215.64
517.97	1237.21
518.33	1258.57
518.69	1280.56
519.05	1302.92
519.41	1325.26
519.77	1348.17
520.13	1370.36
520.49	1392.31
520.85	1415.00
521.21	1437.38
521.57	1460.65
521.93	1482.88
522.29	1505.72
522.65	1528.27
523.01	1550.53
523.37	1572.79
523.73	1595.29
524.09	1617.66
524.45	1640.36
524.81	1662.90
525.17	1685.62
525.53	1708.33
525.89	1731.25
526.25	1753.52
526.61	1774.51
526.97	1796.41
527.33	1817.83
527.68	1839.52
528.04	1861.15
528.40	1881.88
528.76	1903.11
529.12	1923.59
529.48	1945.47
529.84	1966.08
530.20	1986.92
530.56	2007.81
530.91	2028.77
531.27	2049.28
531.63	2069.61
531.99	2089.52
532.35	2109.00
532.71	2128.20
533.07	2147.86
533.42	2166.30
533.78	2185.46
534.14	2204.67
534.50	2221.96
534.86	2240.18
535.21	2257.49
535.57	2275.61
535.93	2292.99
536.29	2310.05
536.65	2327.14
537.00	2342.51
537.36	2358.14
537.72	2373.69
538.08	2389.23
538.44	2404.75
538.79	2420.08
539.15	2435.19
539.51	2449.87
539.87	2465.49
540.22	2480.18
540.58	2495.30
540.94	2510.19
541.29	2523.07
541.65	2535.67
542.01	2549.53
542.37	2561.39
542.72	2573.82
543.08	2584.70
543.44	2596.94
543.79	2607.43
544.15	2617.86
544.51	2629.17
544.87	2640.25
545.22	2649.49
545.58	2657.88
545.94	2665.30
546.29	2672.45
546.65	2678.92
547.01	2685.47
547.36	2691.16
547.72	2696.82
548.07	2700.79
548.43	2704.70
548.79	2709.02
549.14	2713.45
549.50	2717.84
549.86	2722.32
550.21	2726.38
550.57	2731.10
550.92	2733.74
551.28	2737.15
551.64	2739.75
551.99	2742.28
552.35	2744.37
552.70	2747.22
553.06	2750.67
553.41	2754.16
553.77	2757.06
554.13	2759.49
554.48	2761.78
554.84	2763.14
555.19	2764.06
555.55	2765.13
555.90	2765.70
556.26	2766.33
556.61	2766.98
556.97	2765.50
557.32	2765.23
557.68	2763.60
558.03	2762.04
558.39	2760.60
558.74	2760.07
559.10	2759.19
559.45	2757.51
559.81	2756.40
560.16	2754.01
560.52	2751.11
560.87	2747.72
561.23	2743.93
561.58	2741.93
561.94	2738.60
562.29	2734.99
562.64	2732.72
563.00	2729.79
563.35	2727.64
563.71	2725.82
564.06	2723.41
564.42	2721.84
564.77	2719.45
565.12	2717.66
565.48	2714.22
565.83	2711.32
566.19	2707.53
566.54	2703.10
566.89	2698.94
567.25	2695.09
567.60	2691.96
567.96	2688.75
568.31	2685.72
568.66	2682.44
569.02	2677.31
569.37	2672.41
569.72	2668.59
570.08	2663.39
570.43	2657.61
570.78	2651.83
571.14	2645.26
571.49	2638.72
571.84	2632.69
572.20	2625.82
572.55	2619.28
572.90	2612.49
573.26	2605.62
573.61	2598.95
573.96	2592.42
574.31	2584.80
574.67	2576.54
575.02	2567.71
575.37	2558.88
575.72	2549.46
576.08	2541.14
576.43	2532.59
576.78	2524.52
577.13	2516.18
577.49	2507.86
577.84	2500.35
578.19	2492.65
578.54	2485.50
578.90	2478.51
579.25	2469.59
579.60	2460.15
579.95	2450.91
580.30	2443.25
580.66	2434.90
581.01	2425.22
581.36	2415.86
581.71	2407.46
582.06	2398.96
582.42	2390.75
582.77	2381.61
583.12	2372.80
583.47	2364.20
583.82	2355.85
584.17	2346.48
584.53	2337.42
584.88	2328.47
585.23	2319.21
585.58	2309.39
585.93	2299.44
586.28	2289.53
586.63	2280.58
586.98	2272.51
587.34	2263.85
587.69	2254.17
588.04	2244.88
588.39	2236.81
588.74	2227.73
589.09	2218.87
589.44	2209.32
589.79	2200.80
590.14	2192.78
590.49	2184.09
590.84	2174.97
591.19	2166.84
591.54	2158.35
591.89	2148.51
592.25	2139.41
592.60	2129.71
592.95	2120.42
593.30	2111.01
593.65	2101.50
594.00	2091.73
594.35	2083.20
594.70	2074.18
595.05	2065.41
595.40	2056.46
595.75	2046.62
596.10	2038.50
596.45	2029.75
596.80	2021.45
597.15	2012.84
597.50	2003.39
597.85	1994.88
598.19	1986.01
598.54	1977.06
598.89	1969.00
599.24	1961.79
599.59	1953.96
599.94	1946.79
600.29	1938.99
600.64	1930.74
600.99	1922.08
601.34	1914.84
601.69	1905.62
602.04	1897.03
602.39	1889.00
602.74	1881.36
603.08	1874.77
603.43	1867.33
603.78	1859.31
604.13	1851.32
604.48	1843.23
604.83	1836.57
605.18	1829.38
605.53	1821.84
605.87	1814.10
606.22	1806.77
606.57	1798.85
606.92	1790.65
607.27	1782.14
607.62	1774.73
607.96	1767.86
608.31	1761.58
608.66	1753.72
609.01	1746.52
609.36	1738.60
609.70	1730.37
610.05	1722.41
610.40	1714.14
610.75	1705.27
611.10	1697.59
611.44	1688.37
611.79	1678.93
612.14	1669.27
612.49	1659.46
612.83	1650.57
613.18	1640.68
613.53	1631.05
613.88	1621.23
614.22	1612.36
614.57	1603.45
614.92	1593.83
615.27	1584.39
615.61	1574.60
615.96	1565.57
616.31	1556.60
616.65	1549.05
617.00	1540.73
617.35	1531.89
617.70	1522.82
618.04	1513.76
618.39	1504.10
618.74	1495.73
619.08	1487.24
619.43	1479.12
619.78	1471.43
620.12	1463.20
620.47	1455.54
620.82	1446.79
621.16	1438.29
621.51	1429.64
621.85	1421.16
622.20	1412.87
622.55	1404.33
622.89	1395.98
623.24	1388.05
623.59	1379.56
623.93	1370.36
624.28	1361.87
624.62	1353.65
624.97	1345.15
625.32	1337.31
625.66	1329.95
626.01	1322.52
626.35	1315.34
626.70	1307.45
627.04	1299.82
627.39	1292.18
627.73	1284.46
628.08	1277.54
628.43	1270.19
628.77	1262.88
629.12	1255.50
629.46	1248.44
629.81	1241.02
630.15	1233.65
630.50	1225.93
630.84	1218.57
631.19	1211.66
631.53	1204.69
631.88	1196.98
632.22	1189.61
632.57	1182.82
632.91	1175.36
633.26	1167.86
633.60	1160.53
633.95	1153.64
634.29	1146.21
634.64	1139.41
634.98	1132.39
635.32	1125.25
635.67	1118.72
636.01	1111.80
636.36	1104.85
636.70	1098.13
637.05	1091.48
637.39	1085.08
637.73	1078.79
638.08	1072.80
638.42	1066.72
638.77	1060.19
639.11	1054.00
639.45	1047.95
639.80	1041.08
640.14	1034.46
640.49	1028.06
640.83	1021.71
641.17	1015.23
641.52	1009.20
641.86	1002.55
642.20	996.25
642.55	989.50
642.89	983.14
643.23	976.92
643.58	971.03
643.92	964.55
644.26	958.24
644.61	951.92
644.95	945.62
645.29	939.30
645.64	932.58
645.98	926.45
646.32	920.43
646.66	914.07
647.01	908.10
647.35	902.28
647.69	895.95
648.04	889.92
648.38	883.96
648.72	877.89
649.06	871.69
649.41	865.60
649.75	859.92
650.09	853.89
650.43	847.99
650.78	841.61
651.12	835.56
651.46	829.95
651.80	824.09
652.14	818.15
652.49	811.99
652.83	806.19
653.17	799.99
653.51	794.01
653.85	788.34
654.20	782.50
654.54	776.55
654.88	771.04
655.22	765.30
655.56	759.28
655.90	753.25
656.25	747.50
656.59	741.85
656.93	736.58
657.27	731.25
657.61	725.45
657.95	720.30
658.29	715.15
658.64	710.03
658.98	704.72
659.32	699.23
659.66	694.20
660.00	688.76
660.34	683.54
660.68	678.32
661.02	673.22
661.36	668.47
661.70	663.79
662.05	658.99
662.39	654.50
662.73	650.19
663.07	645.80
663.41	641.59
663.75	637.16
664.09	632.42
664.43	627.75
664.77	623.57
665.11	619.01
665.45	614.48
665.79	609.91
666.13	605.44
666.47	601.23
666.81	597.05
667.15	593.11
667.49	589.17
667.83	585.30
668.17	581.35
668.51	577.40
668.85	573.57
669.19	569.96
669.53	565.79
669.87	561.68
670.21	557.92
670.55	553.90
670.89	550.31
671.23	546.75
671.57	543.25
671.91	539.55
672.25	536.06
672.58	532.51
672.92	528.91
673.26	525.67
673.60	522.49
673.94	519.03
674.28	515.60
674.62	512.46
674.96	509.17
675.30	506.04
675.64	502.80
675.97	499.57
676.31	496.44
676.65	493.55
676.99	490.95
677.33	487.90
677.67	485.03
678.01	481.93
678.34	478.88
678.68	476.05
679.02	473.08
679.36	470.15
679.70	467.37
680.04	464.50
680.37	461.49
680.71	458.57
681.05	455.90
681.39	453.24
681.73	450.60
682.06	448.01
682.40	445.34
682.74	442.73
683.08	440.22
683.42	437.40
683.75	434.84
684.09	432.10
684.43	429.58
684.77	426.90
685.10	424.42
685.44	421.85
685.78	419.34
686.12	417.01
686.45	414.73
686.79	412.47
687.13	410.26
687.46	408.21
687.80	405.96
688.14	403.61
688.48	401.39
688.81	398.99
689.15	396.72
689.49	394.39
689.82	392.14
690.16	389.69
690.50	387.58
690.83	385.31
691.17	383.03
691.51	380.81
691.84	378.75
692.18	376.63
692.52	374.67
692.85	372.79
693.19	370.94
693.52	368.93
693.86	366.82
694.20	364.94
694.53	362.92
694.87	360.97
695.21	359.05
695.54	357.07
695.88	355.25
696.21	353.44
696.55	351.76
696.88	350.01
697.22	348.27
697.56	346.68
697.89	345.00
698.23	343.34
698.56	341.76
698.90	340.27
699.23	338.58
699.57	336.91
699.90	335.18
700.24	333.44
700.58	331.88
700.91	330.50
701.25	329.05
701.58	327.63
701.92	326.12
702.25	324.69
702.59	323.38
702.92	321.89
703.26	320.45
703.59	319.13
703.93	317.98
704.26	316.69
704.60	315.34
704.93	314.14
705.26	312.87
705.60	311.55
705.93	310.30
706.27	309.10
706.60	308.09
706.94	306.91
707.27	305.69
707.61	304.43
707.94	303.25
708.27	301.95
708.61	300.73
708.94	299.66
709.28	298.51
709.61	297.38
709.94	296.43
710.28	295.35
710.61	294.25
710.95	293.11
711.28	292.15
711.61	291.11
711.95	290.05
712.28	288.99
712.61	288.06
712.95	287.09
713.28	286.21
713.61	285.12
713.95	284.27
714.28	283.39
714.61	282.49
714.95	281.50
715.28	280.54
715.61	279.65
715.95	278.79
716.28	277.85
716.61	277.03
716.95	276.09
717.28	275.31
717.61	274.52
717.94	273.66
718.28	272.86
718.61	272.16
718.94	271.41
719.27	270.73
719.61	269.92
719.94	269.14
720.27	268.36
720.60	267.66
720.94	266.88
721.27	266.24
721.60	265.63
721.93	265.10
722.27	264.47
722.60	263.86
722.93	263.23
723.26	262.69
723.59	261.97
723.93	261.40
724.26	260.72
724.59	260.14
724.92	259.56
725.25	258.96
725.59	258.33
725.92	257.73
726.25	257.14
726.58	256.66
726.91	256.15
727.24	255.70
727.57	255.18
727.91	254.59
728.24	254.07
728.57	253.63
728.90	253.12
729.23	252.67
729.56	252.22
729.89	251.67
730.22	251.17
730.55	250.72
730.89	250.26
731.22	249.81
731.55	249.26
731.88	248.73
732.21	248.19
732.54	247.77
732.87	247.36
733.20	246.96
733.53	246.50
733.86	246.04
734.19	245.59
734.52	245.25
734.85	245.05
735.18	244.59
735.51	244.18
735.84	243.78
736.17	243.45
736.50	242.99
736.83	242.85
737.16	242.59
737.49	242.28
737.82	241.91
738.15	241.59
738.48	241.31
738.81	241.00
739.14	240.79
739.47	240.41
739.80	240.05
740.13	239.78
740.46	239.39
740.79	239.07
741.12	238.74
741.45	238.33
741.78	237.94
742.11	237.73
742.44	237.35
742.77	237.10
743.10	236.71
743.43	236.51
743.75	236.05
744.08	235.89
744.41	235.62
744.74	235.38
745.07	235.07
745.40	234.79
745.73	234.63
746.06	234.23
746.39	233.99
746.71	233.82
747.04	233.48
747.37	233.25
747.70	233.04
748.03	232.78
748.36	232.54
748.68	232.21
749.01	231.90
749.34	231.73
749.67	231.49
750.00	231.34
750.33	231.12
750.65	230.88
750.98	230.45
751.31	230.17
751.64	229.89
751.97	229.78
752.29	229.57
752.62	229.29
752.95	229.08
753.28	228.79
753.60	228.56
753.93	228.41
754.26	228.27
754.59	227.96
754.91	227.74
755.24	227.66
755.57	227.48
755.90	227.27
756.22	227.03
756.55	226.80
756.88	226.51
757.20	226.27
757.53	226.07
757.86	225.86
758.19	225.70
758.51	225.50
758.84	225.25
759.17	225.05
759.49	224.87
759.82	224.80
760.15	224.73
760.47	224.51
760.80	224.28
761.13	224.19
761.45	224.06
761.78	223.94
762.11	223.71
762.43	223.59
762.76	223.47
763.08	223.32
763.41	223.18
763.74	223.10
764.06	222.93
764.39	222.79
764.71	222.66
765.04	222.55
765.37	222.40
765.69	222.28
766.02	222.12
766.34	222.00
766.67	221.85
767.00	221.73
767.32	221.68
767.65	221.68
767.97	221.49
768.30	221.39
768.62	221.22
768.95	221.03
769.27	220.95
769.60	220.80
769.92	220.68
770.25	220.56
770.57	220.43
770.90	220.26
771.22	220.13
771.55	220.03
771.87	219.87
772.20	219.82
772.52	219.90
772.85	219.98
773.17	219.89
773.50	219.72
773.82	219.59
774.15	219.31
774.47	219.08
774.80	218.94
775.12	218.81
775.45	218.72
775.77	218.71
776.09	218.66
776.42	218.63
776.74	218.62
777.07	218.50
777.39	218.41
777.72	218.38
778.04	218.35
778.36	218.24
778.69	218.18
779.01	218.14
779.33	217.86
779.66	217.67
779.98	217.54
780.31	217.53
780.63	217.54
780.95	217.60
781.28	217.55
781.60	217.51
781.92	217.46
782.25	217.42
782.57	217.31
782.89	217.16
783.22	217.05
783.54	216.88
783.86	216.89
784.19	216.79
784.51	216.73
784.83	216.61
785.16	216.57
785.48	216.55
785.80	216.48
786.12	216.42
786.45	216.27
786.77	216.24
787.09	216.14
787.42	215.97
787.74	215.93
788.06	215.91
788.38	215.82
788.71	215.77
789.03	215.73
789.35	215.75
789.67	215.70
789.99	215.64
790.32	215.56
790.64	215.48
790.96	215.55
791.28	215.48
791.61	215.36
791.93	215.30
792.25	215.28
792.57	215.33
792.89	215.26
793.21	215.27
793.54	215.23
793.86	215.21
794.18	215.24
794.50	215.07
794.82	214.97
795.14	214.89
795.47	214.85
795.79	214.85
796.11	214.69
796.43	214.62
796.75	214.60
797.07	214.61
797.39	214.59
797.71	214.45
798.04	214.39
798.36	214.40
798.68	214.33
799.00	214.27
799.32	214.13
799.64	214.10
799.96	214.09
800.28	214.06
800.60	213.96
800.92	213.86
801.24	213.91
801.56	213.89
801.89	213.90
802.21	213.87
802.53	213.74
802.85	213.79
803.17	213.87
803.49	213.72
803.81	213.70
804.13	213.68
804.45	213.66
804.77	213.66
805.09	213.64
805.41	213.67
805.73	213.59
806.05	213.49
806.37	213.50
806.69	213.40
807.01	213.36
807.33	213.42
807.65	213.40
807.97	213.50
808.28	213.50
808.60	213.49
808.92	213.49
809.24	213.62
809.56	213.60
809.88	213.53
810.20	213.61
810.52	213.60
810.84	213.58
811.16	213.51
811.48	213.45
811.80	213.50
812.12	213.46
812.43	213.46
812.75	213.52
813.07	213.51
813.39	213.54
813.71	213.50
814.03	213.42
814.35	213.38
814.67	213.30
814.98	213.27
815.30	213.26
815.62	213.22
815.94	213.11
816.26	213.02
816.58	212.91
816.89	212.90
817.21	212.95
817.53	212.94
817.85	212.95
818.17	213.02
818.48	212.97
818.80	212.98
819.12	213.00
819.44	213.01
819.76	212.99
820.07	212.99
820.39	213.02
820.71	213.06
821.03	213.08
821.34	213.00
821.66	212.98
821.98	212.97
822.30	212.95
822.61	213.05
822.93	213.17
823.25	213.27
823.57	213.20
823.88	213.24
824.20	213.20
824.52	213.25
824.83	213.24
825.15	213.21
825.47	213.27
825.79	213.29
826.10	213.25
826.42	213.21
826.74	213.27
827.05	213.25
827.37	213.21
827.69	213.25
828.00	213.30
828.32	213.32
828.64	213.29
828.95	213.38
829.27	213.25
829.58	213.17
829.90	213.21
830.22	213.30
830.53	213.14
830.85	213.08
831.17	212.97
831.48	212.96
831.80	213.01
832.11	212.89
832.43	212.84
832.75	212.84
833.06	212.89
833.38	212.74
833.69	212.74
834.01	212.75
834.32	212.72
834.64	212.63
834.96	212.62
835.27	212.65
835.59	212.64
835.90	212.65
836.22	212.66
836.53	212.56
836.85	212.44
837.16	212.65
837.48	212.72
837.79	212.80
838.11	212.75
838.42	212.70
838.74	212.71
839.05	212.65
839.37	212.56
839.68	212.51
840.00	212.51
840.31	212.57
840.63	212.50
840.94	212.39
841.26	212.35
841.57	212.38
841.88	212.31
842.20	212.27
842.51	212.19
842.83	212.12
843.14	212.24
843.46	212.26
843.77	212.10
844.08	212.05
844.40	211.99
844.71	211.92
845.03	211.86
845.34	211.90
845.65	211.89
845.97	211.90
846.28	211.84
846.60	211.88
846.91	211.79
847.22	211.72
847.54	211.78
847.85	211.75
848.16	211.72
848.48	211.72
848.79	211.75
849.10	211.82
849.42	211.85
849.73	211.69
850.04	211.71
850.36	211.64
850.67	211.66
850.98	211.69
851.30	211.71
851.61	211.75
851.92	211.76
852.23	211.80
852.55	211.78
852.86	211.83
853.17	211.86
853.49	211.88
853.80	211.95
854.11	211.98
854.42	212.04
854.74	212.00
855.05	211.98
855.36	211.89
855.67	211.84
855.99	211.86
856.30	212.08
856.61	212.10
856.92	212.09
857.23	212.02
857.55	211.97
857.86	211.94
858.17	211.95
858.48	211.92
858.79	211.93
859.11	211.99
859.42	211.93
859.73	211.83
860.04	211.85
860.35	211.89
860.66	211.80
860.98	211.77
861.29	211.83
861.60	211.79
861.91	211.80
862.22	211.79
862.53	211.70
862.84	211.39
863.16	211.43
863.47	211.43
863.78	211.46
864.09	211.48
864.40	211.49
864.71	211.52
865.02	211.50
865.33	211.45
865.64	211.38
865.95	211.46
866.27	211.59
866.58	211.52
866.89	211.44
867.20	211.46
867.51	211.39
867.82	211.30
868.13	211.39
868.44	211.40
868.75	211.44
869.06	211.54
869.37	211.61
869.68	211.50
869.99	211.51
870.30	211.55
870.61	211.55
870.92	211.59
871.23	211.53
871.54	211.53
871.85	211.49
872.16	211.48
872.47	211.40
872.78	211.29
873.09	211.30
873.40	211.30
873.71	211.34
874.02	211.37
874.33	211.40
874.64	211.35
874.95	211.31
875.26	211.24
875.56	211.22
875.87	211.27
876.18	211.26
876.49	211.47
876.80	211.41
877.11	211.37
877.42	211.33
877.73	211.32
878.04	211.28
878.35	211.37
878.66	211.41
878.96	211.41
879.27	211.45
879.58	211.41
879.89	211.37
880.20	211.33
880.51	211.31
880.82	211.33
881.12	211.28
881.43	211.30
881.74	211.29
882.05	211.23
882.36	211.15
882.67	211.21
882.97	210.96
883.28	210.97
883.59	210.99
883.90	211.00
884.21	211.04
884.51	211.10
884.82	211.02
885.13	210.95
885.44	210.92
885.74	210.91
886.05	210.96
886.36	210.95
886.67	210.91
886.98	211.02
887.28	210.96
887.59	211.01
887.90	211.03
888.20	211.00
888.51	211.02
888.82	211.03
889.13	211.02
889.43	211.24
889.74	211.19
890.05	211.15
890.35	211.14
890.66	211.07
890.97	211.01
891.28	211.10
891.58	211.19
891.89	211.24
892.20	211.24
892.50	211.18
892.81	211.25
893.12	211.30
893.42	211.28
893.73	211.34
894.04	211.38
894.34	211.35
894.65	211.34
894.95	211.33
895.26	211.31
895.57	211.37
895.87	211.15
896.18	211.16
896.48	211.19
896.79	211.22
897.10	211.27
897.40	211.28
897.71	211.22
898.01	211.20
898.32	211.22
898.63	211.11
898.93	211.17
899.24	211.15
899.54	211.14
899.85	211.12
900.15	211.13
900.46	211.10
900.76	211.12
901.07	211.20
901.38	211.22
901.68	211.25
901.99	211.17
902.29	211.24
902.60	211.30
902.90	211.30
903.21	211.31
903.51	211.29
903.82	211.33
904.12	211.38
904.43	211.41
904.73	211.39
905.03	211.49
905.34	211.68
905.64	211.69
905.95	211.74
906.25	211.70
906.56	211.67
906.86	211.71
907.17	211.73
907.47	211.75
907.77	211.82
908.08	211.85
908.38	211.95
908.69	211.97
908.99	212.07
909.30	212.04
909.60	212.01
909.90	212.15
910.21	212.09
910.51	212.06
910.81	212.05
911.12	212.07
911.42	212.04
911.73	211.87
912.03	211.87
912.33	211.87
912.64	211.90
912.94	211.89
913.24	211.79
913.55	211.76
913.85	211.79
914.15	211.82
914.46	211.82
914.76	211.74
915.06	211.68
915.37	211.54
915.67	211.59
915.97	211.62
916.27	211.50
916.58	211.56
916.88	211.52
917.18	211.48
917.49	211.62
917.79	211.66
918.09	211.65
918.39	211.64
918.70	211.64
919.00	211.60
919.30	211.64
919.60	211.73
919.91	211.76
920.21	211.74
920.51	211.57
920.81	211.55
921.12	211.57
921.42	211.59
921.72	211.62
922.02	211.60
922.32	211.62
922.63	211.60
922.93	211.69
923.23	211.73
923.53	211.74
923.83	211.57
924.13	211.55
924.44	211.57
924.74	211.65
925.04	211.65
925.34	211.69
925.64	211.66
925.94	211.59
926.24	211.61
926.55	211.53
926.85	211.56
927.15	211.55
927.45	211.51
927.75	211.49
928.05	211.45
928.35	211.48
928.65	211.47
928.95	211.49
929.26	211.34
929.56	211.28
929.86	211.35
930.16	211.35
930.46	211.28
930.76	211.26
931.06	211.12
931.36	211.14
931.66	211.08
931.96	211.08
932.26	211.10
932.56	211.02
932.86	211.02
933.16	211.05
933.46	211.02
933.76	211.01
934.06	211.10
934.36	211.19
934.66	211.10
934.96	211.06
935.26	211.07
935.56	211.10
935.86	211.10
936.16	211.01
936.46	210.99
936.76	211.03
937.06	210.97
937.36	211.03
937.66	211.01
937.96	211.05
938.26	211.01
938.56	211.04
938.86	211.01
939.16	211.11
939.46	211.12
939.76	211.16
940.06	211.15
940.35	211.03
940.65	210.92
940.95	211.01
941.25	210.99
941.55	210.96
941.85	210.95
942.15	210.96
942.45	210.98
942.75	211.00
943.04	211.04
943.34	211.15
943.64	211.14
943.94	211.06
944.24	211.05
944.54	211.06
944.84	211.02
945.13	211.05
945.43	210.93
945.73	210.93
946.03	210.94
946.33	210.94
946.62	210.92
946.92	210.96
947.22	210.95
947.52	210.99
947.82	211.01
948.11	211.02
948.41	210.98
948.71	210.98
949.01	211.00
949.31	210.90
949.60	210.89
949.90	210.86
950.20	210.80
950.50	210.82
950.79	210.86
951.09	210.90
951.39	210.85
951.69	210.82
951.98	210.89
952.28	210.85
952.58	210.76
952.87	210.76
953.17	210.78
953.47	210.77
953.76	210.66
954.06	210.68
954.36	210.61
954.66	210.65
954.95	210.66
955.25	210.64
955.55	210.62
955.84	210.51
956.14	210.58
956.44	210.59
956.73	210.50
957.03	210.42
957.32	210.45
957.62	210.45
957.92	210.57
958.21	210.52
958.51	210.73
958.81	210.88
959.10	210.90
959.40	210.92
959.69	210.88
959.99	210.93
960.29	210.91
960.58	210.94
960.88	211.03
961.17	211.05
961.47	211.11
961.76	211.21
962.06	211.27
962.36	211.25
962.65	211.33
962.95	211.41
963.24	211.35
963.54	211.30
963.83	211.40
964.13	211.34
964.42	211.25
964.72	211.05
965.01	211.02
965.31	211.00
965.60	210.96
965.90	211.11
966.19	211.17
966.49	211.11
966.78	211.12
967.08	211.07
967.37	211.10
967.67	211.04
967.96	211.01
968.26	211.10
968.55	211.15
968.85	211.19
969.14	211.16
969.43	211.26
969.73	211.24
970.02	211.15
970.32	211.17
970.61	211.24
970.91	211.32
971.20	211.21
971.49	211.22
971.79	211.21
972.08	211.07
972.38	211.02
972.67	211.05
972.96	211.05
973.26	211.03
973.55	211.02
973.85	211.02
974.14	211.03
974.43	210.99
974.73	210.93
975.02	210.84
975.31	210.82
975.61	210.78
975.90	210.76
976.19	210.77
976.49	210.74
976.78	210.74
977.07	210.67
977.37	210.75
977.66	210.74
977.95	210.78
978.24	210.80
978.54	210.83
978.83	210.83
979.12	210.81
979.42	210.83
979.71	210.81
980.00	210.77
980.29	210.77
980.59	210.71
980.88	210.74
981.17	210.80
981.46	210.83
981.76	210.82
982.05	210.91
982.34	210.88
982.63	210.88
982.93	210.84
983.22	210.94
983.51	210.92
983.80	210.94
984.09	210.94
984.39	210.95
984.68	210.88
984.97	210.88
985.26	210.85
985.55	210.78
985.85	210.79
986.14	210.87
986.43	210.89
986.72	210.85
987.01	210.76
987.30	210.72
987.59	210.67
987.89	210.66
988.18	210.58
988.47	210.62
988.76	210.70
989.05	210.69
989.34	210.55
989.63	210.62
989.92	210.62
990.22	210.60
990.51	210.60
990.80	210.66
991.09	210.60
991.38	210.67
991.67	210.63
991.96	210.58
992.25	210.54
992.54	210.53
992.83	210.57
993.12	210.59
993.41	210.62
993.70	210.65
993.99	210.71
994.28	210.77
994.58	210.78
994.87	210.74
995.16	210.74
995.45	210.76
995.74	210.66
996.03	210.60
996.32	210.60
996.61	210.71
996.90	210.70
997.19	210.75
997.48	210.75
997.77	210.76
998.06	210.74
998.34	210.76
998.63	210.77
998.92	210.79
999.21	210.82
999.50	210.77
999.79	210.79
1000.08	210.78
1000.37	210.73
1000.66	210.68
1000.95	210.67
1001.24	210.62
1001.53	210.73
1001.82	210.75
1002.11	210.75
1002.40	210.75
1002.68	210.69
1002.97	210.74
1003.26	210.72
1003.55	210.69
1003.84	210.73
1004.13	210.74
1004.42	210.66
1004.71	210.67
1004.99	210.59
1005.28	210.60
1005.57	210.61
1005.86	210.61
1006.15	210.61
1006.44	210.61
1006.72	210.68
1007.01	210.68
1007.30	210.71
1007.59	210.58
1007.88	210.61
1008.17	210.63
1008.45	210.64
1008.74	210.52
1009.03	210.47
1009.32	210.45
1009.60	210.38
1009.89	210.38
1010.18	210.33
1010.47	210.38
1010.76	210.38
1011.04	210.42
1011.33	210.44
1011.62	210.47
1011.91	210.45
1012.19	210.40
1012.48	210.35
1012.77	210.34
1013.05	210.47
1013.34	210.43
1013.63	210.49
1013.92	210.40
1014.20	210.36
1014.49	210.35
1014.78	210.39
1015.06	210.37
1015.35	210.41
1015.64	210.44
1015.92	210.43
1016.21	210.47
1016.50	210.45
1016.78	210.43
1017.07	210.39
1017.36	210.36
1017.64	210.36
1017.93	210.38
1018.22	210.46
1018.50	210.49
1018.79	210.44
1019.08	210.40
1019.36	210.56
1019.65	210.56
1019.93	210.68
1020.22	210.75
1020.51	210.85
1020.79	210.91
1021.08	211.35
1021.36	210.00
1021.65	209.90
1021.94	212.75
1022.22	213.05
1022.51	210.70
1022.79	211.55
1023.08	211.00
1023.36	213.00
1023.65	211.30
>>>>>End Processed Spectral Data<<<<<
