SpectraSuite Data File
++++++++++++++++++++++++++++++++++++
Date: Mon Feb 25 17:29:44 EST 2013
User: group
Dark Spectrum Present: No
Reference Spectrum Present: No
Number of Sampled Component Spectra: 1
Spectrometers: USB2E7196
Integration Time (usec): 52000 (USB2E7196)
Spectra Averaged: 20 (USB2E7196)
Boxcar Smoothing: 10 (USB2E7196)
Correct for Electrical Dark: No (USB2E7196)
Strobe/Lamp Enabled: No (USB2E7196)
Correct for Detector Non-linearity: No (USB2E7196)
Correct for Stray Light: No (USB2E7196)
Number of Pixels in Processed Spectrum: 2048
>>>>>Begin Processed Spectral Data<<<<<
339.09	0.00
339.48	200.10
339.86	200.30
340.24	202.20
340.63	203.00
341.01	208.35
341.39	205.55
341.78	208.35
342.16	209.35
342.54	210.00
342.93	198.53
343.31	208.59
343.69	209.07
344.07	209.54
344.46	210.05
344.84	210.50
345.22	210.62
345.60	210.96
345.99	211.13
346.37	211.26
346.75	211.36
347.13	211.49
347.52	211.52
347.90	211.66
348.28	211.79
348.66	211.79
349.05	211.79
349.43	211.80
349.81	211.90
350.19	211.95
350.57	212.04
350.96	212.10
351.34	212.22
351.72	212.36
352.10	212.50
352.48	212.50
352.87	212.54
353.25	212.67
353.63	212.73
354.01	212.81
354.39	212.94
354.77	213.07
355.15	213.23
355.54	213.32
355.92	213.35
356.30	213.41
356.68	213.64
357.06	213.72
357.44	213.81
357.82	213.92
358.20	213.97
358.58	214.06
358.97	214.23
359.35	214.32
359.73	214.37
360.11	214.45
360.49	214.53
360.87	214.53
361.25	214.58
361.63	214.60
362.01	214.63
362.39	214.62
362.77	214.60
363.15	214.55
363.53	214.60
363.91	214.61
364.29	214.55
364.67	214.39
365.05	214.36
365.43	214.44
365.81	214.40
366.19	214.47
366.57	214.53
366.95	214.45
367.33	214.31
367.71	214.32
368.09	214.29
368.47	214.27
368.85	214.26
369.23	214.25
369.61	214.24
369.99	214.27
370.37	214.20
370.75	214.24
371.13	214.22
371.51	214.08
371.89	214.05
372.27	214.04
372.65	213.97
373.03	213.91
373.41	213.86
373.78	213.82
374.16	213.66
374.54	213.51
374.92	213.39
375.30	213.43
375.68	213.34
376.06	213.25
376.44	213.07
376.82	213.03
377.19	212.95
377.57	212.85
377.95	212.73
378.33	212.63
378.71	212.43
379.09	212.35
379.47	212.41
379.84	212.32
380.22	212.30
380.60	212.23
380.98	212.27
381.36	212.09
381.73	212.00
382.11	211.98
382.49	211.92
382.87	211.87
383.25	211.85
383.62	211.89
384.00	211.86
384.38	211.91
384.76	211.90
385.13	211.92
385.51	211.86
385.89	211.74
386.27	211.73
386.64	211.71
387.02	211.60
387.40	211.55
387.78	211.56
388.15	211.50
388.53	211.48
388.91	211.42
389.29	211.49
389.66	211.48
390.04	211.47
390.42	211.52
390.79	211.55
391.17	211.44
391.55	211.37
391.92	211.32
392.30	211.37
392.68	211.37
393.05	211.31
393.43	211.35
393.81	211.43
394.18	211.46
394.56	211.47
394.94	211.55
395.31	211.51
395.69	211.53
396.06	211.55
396.44	211.64
396.82	211.61
397.19	211.70
397.57	211.70
397.95	211.72
398.32	211.64
398.70	211.73
399.07	211.76
399.45	211.71
399.82	211.81
400.20	211.84
400.58	211.77
400.95	211.77
401.33	211.85
401.70	212.06
402.08	212.12
402.45	212.22
402.83	212.36
403.20	212.39
403.58	212.43
403.95	212.62
404.33	212.62
404.71	212.72
405.08	212.92
405.46	212.95
405.83	213.07
406.21	213.20
406.58	213.26
406.96	213.45
407.33	213.61
407.70	213.77
408.08	214.00
408.45	214.30
408.83	214.56
409.20	214.77
409.58	214.82
409.95	215.15
410.33	215.44
410.70	215.63
411.08	215.97
411.45	216.31
411.82	216.58
412.20	217.04
412.57	217.43
412.95	217.62
413.32	218.10
413.69	218.50
414.07	219.06
414.44	219.58
414.82	220.10
415.19	220.73
415.56	221.34
415.94	221.99
416.31	222.75
416.68	223.47
417.06	224.25
417.43	225.14
417.81	225.88
418.18	226.79
418.55	227.80
418.93	228.94
419.30	230.10
419.67	231.28
420.04	232.43
420.42	233.75
420.79	235.34
421.16	236.85
421.54	238.51
421.91	240.06
422.28	241.70
422.66	243.48
423.03	245.31
423.40	247.12
423.77	249.01
424.15	250.99
424.52	252.96
424.89	255.09
425.26	257.18
425.64	259.26
426.01	261.43
426.38	263.79
426.75	266.12
427.13	268.52
427.50	271.09
427.87	273.76
428.24	276.36
428.61	278.87
428.99	281.73
429.36	284.67
429.73	287.61
430.10	290.67
430.47	293.75
430.85	296.97
431.22	300.40
431.59	303.98
431.96	307.26
432.33	311.09
432.70	314.92
433.08	319.12
433.45	323.20
433.82	327.28
434.19	331.76
434.56	336.08
434.93	340.16
435.30	344.25
435.68	348.85
436.05	353.35
436.42	357.73
436.79	361.84
437.16	366.36
437.53	371.16
437.90	375.69
438.27	380.20
438.64	384.81
439.01	389.09
439.38	392.95
439.75	396.73
440.13	400.95
440.50	404.89
440.87	408.16
441.24	411.57
441.61	415.25
441.98	418.04
442.35	421.22
442.72	424.51
443.09	427.71
443.46	429.50
443.83	430.89
444.20	432.05
444.57	433.54
444.94	434.09
445.31	434.72
445.68	435.51
446.05	435.69
446.42	435.15
446.79	434.57
447.16	433.90
447.53	433.35
447.90	431.55
448.27	429.73
448.64	427.35
449.01	425.47
449.37	422.47
449.74	419.40
450.11	415.93
450.48	411.97
450.85	407.90
451.22	404.57
451.59	401.34
451.96	398.19
452.33	394.18
452.70	390.59
453.07	386.14
453.43	381.57
453.80	377.27
454.17	373.21
454.54	369.30
454.91	365.23
455.28	361.15
455.65	357.30
456.02	353.66
456.38	350.44
456.75	346.51
457.12	343.11
457.49	339.78
457.86	336.49
458.23	333.87
458.59	330.90
458.96	327.82
459.33	325.05
459.70	322.31
460.07	320.19
460.43	317.68
460.80	315.42
461.17	313.42
461.54	311.35
461.91	309.31
462.27	307.18
462.64	305.32
463.01	303.55
463.38	301.80
463.74	299.81
464.11	298.22
464.48	296.83
464.85	295.38
465.21	294.29
465.58	293.20
465.95	291.70
466.32	290.45
466.68	289.29
467.05	288.16
467.42	287.12
467.78	285.80
468.15	284.64
468.52	283.83
468.88	282.70
469.25	281.75
469.62	280.99
469.98	280.20
470.35	279.50
470.72	278.68
471.08	277.89
471.45	277.29
471.82	276.66
472.18	275.98
472.55	275.41
472.92	274.82
473.28	274.25
473.65	273.84
474.02	273.43
474.38	273.16
474.75	272.89
475.11	272.49
475.48	272.42
475.85	272.35
476.21	272.19
476.58	272.23
476.94	272.29
477.31	272.15
477.67	272.22
478.04	272.29
478.41	272.49
478.77	272.84
479.14	273.05
479.50	273.32
479.87	273.72
480.23	274.22
480.60	274.54
480.96	274.99
481.33	275.62
481.69	276.26
482.06	276.80
482.42	277.38
482.79	278.12
483.15	278.96
483.52	279.95
483.88	280.85
484.25	281.77
484.61	282.86
484.98	284.13
485.34	285.49
485.71	286.81
486.07	288.31
486.44	289.66
486.80	291.28
487.17	292.91
487.53	294.59
487.90	296.47
488.26	298.50
488.62	300.59
488.99	302.57
489.35	304.82
489.72	307.21
490.08	309.67
490.44	312.27
490.81	314.79
491.17	317.45
491.54	320.50
491.90	323.52
492.26	326.59
492.63	329.85
492.99	333.22
493.36	336.83
493.72	340.60
494.08	344.63
494.45	348.77
494.81	353.26
495.17	357.87
495.54	362.63
495.90	367.61
496.26	372.81
496.63	378.37
496.99	383.95
497.35	389.82
497.72	396.13
498.08	402.43
498.44	409.16
498.80	416.21
499.17	423.47
499.53	430.96
499.89	438.82
500.26	446.76
500.62	454.82
500.98	463.34
501.34	471.98
501.71	481.03
502.07	490.31
502.43	500.01
502.79	509.82
503.16	520.06
503.52	530.70
503.88	541.43
504.24	552.49
504.60	563.92
504.97	575.70
505.33	587.61
505.69	600.33
506.05	612.97
506.41	625.75
506.78	638.70
507.14	652.13
507.50	665.84
507.86	680.05
508.22	694.77
508.59	709.35
508.95	724.57
509.31	740.02
509.67	755.62
510.03	771.27
510.39	787.74
510.75	804.26
511.12	821.04
511.48	838.08
511.84	855.47
512.20	872.72
512.56	890.55
512.92	908.63
513.28	926.66
513.64	945.07
514.00	963.52
514.37	982.22
514.73	1001.37
515.09	1020.67
515.45	1039.70
515.81	1058.95
516.17	1078.43
516.53	1097.85
516.89	1117.29
517.25	1137.05
517.61	1157.14
517.97	1176.79
518.33	1196.42
518.69	1216.07
519.05	1236.01
519.41	1255.97
519.77	1276.43
520.13	1296.43
520.49	1316.40
520.85	1336.61
521.21	1356.90
521.57	1377.61
521.93	1397.42
522.29	1417.82
522.65	1437.60
523.01	1457.85
523.37	1477.47
523.73	1497.46
524.09	1517.41
524.45	1537.35
524.81	1557.39
525.17	1576.95
525.53	1596.34
525.89	1615.98
526.25	1635.44
526.61	1654.30
526.97	1673.22
527.33	1691.82
527.68	1710.36
528.04	1728.78
528.40	1746.49
528.76	1764.18
529.12	1781.73
529.48	1800.66
529.84	1818.33
530.20	1835.91
530.56	1853.27
530.91	1870.86
531.27	1888.18
531.63	1905.03
531.99	1921.93
532.35	1938.11
532.71	1954.11
533.07	1970.88
533.42	1986.36
533.78	2002.24
534.14	2017.69
534.50	2031.85
534.86	2046.84
535.21	2060.91
535.57	2075.48
535.93	2090.00
536.29	2104.00
536.65	2117.67
537.00	2129.83
537.36	2142.06
537.72	2154.25
538.08	2166.24
538.44	2178.80
538.79	2191.44
539.15	2203.16
539.51	2214.67
539.87	2226.86
540.22	2238.12
540.58	2249.78
540.94	2261.37
541.29	2271.18
541.65	2280.37
542.01	2290.96
542.37	2299.91
542.72	2309.50
543.08	2318.04
543.44	2326.71
543.79	2334.46
544.15	2342.05
544.51	2350.88
544.87	2359.10
545.22	2366.11
545.58	2372.75
545.94	2377.75
546.29	2381.78
546.65	2386.10
547.01	2390.02
547.36	2393.23
547.72	2396.98
548.07	2399.08
548.43	2400.82
548.79	2403.00
549.14	2405.87
549.50	2408.20
549.86	2410.58
550.21	2412.58
550.57	2414.50
550.92	2415.77
551.28	2416.73
551.64	2417.78
551.99	2418.27
552.35	2418.60
552.70	2419.62
553.06	2420.48
553.41	2421.78
553.77	2422.92
554.13	2423.74
554.48	2424.45
554.84	2424.73
555.19	2424.45
555.55	2423.56
555.90	2422.92
556.26	2421.77
556.61	2420.75
556.97	2418.40
557.32	2417.05
557.68	2414.38
558.03	2411.85
558.39	2409.44
558.74	2407.96
559.10	2406.00
559.45	2403.13
559.81	2400.92
560.16	2397.63
560.52	2394.39
560.87	2390.93
561.23	2386.85
561.58	2383.96
561.94	2380.16
562.29	2375.87
562.64	2372.54
563.00	2369.87
563.35	2367.27
563.71	2365.31
564.06	2362.35
564.42	2359.91
564.77	2356.90
565.12	2354.53
565.48	2350.92
565.83	2347.67
566.19	2344.20
566.54	2339.70
566.89	2335.45
567.25	2331.33
567.60	2328.10
567.96	2324.55
568.31	2320.67
568.66	2316.63
569.02	2312.02
569.37	2306.96
569.72	2303.17
570.08	2297.73
570.43	2292.20
570.78	2286.28
571.14	2280.12
571.49	2274.01
571.84	2268.59
572.20	2262.08
572.55	2255.99
572.90	2250.17
573.26	2243.29
573.61	2236.43
573.96	2230.04
574.31	2223.43
574.67	2216.13
575.02	2208.37
575.37	2200.56
575.72	2192.50
576.08	2185.75
576.43	2177.77
576.78	2170.70
577.13	2163.35
577.49	2156.29
577.84	2149.43
578.19	2143.02
578.54	2136.51
578.90	2130.34
579.25	2122.59
579.60	2114.48
579.95	2106.36
580.30	2099.24
580.66	2092.35
581.01	2084.52
581.36	2076.76
581.71	2069.22
582.06	2061.82
582.42	2054.52
582.77	2046.49
583.12	2038.70
583.47	2031.34
583.82	2024.13
584.17	2016.32
584.53	2008.44
584.88	2000.93
585.23	1993.13
585.58	1984.74
585.93	1976.44
586.28	1968.50
586.63	1960.91
586.98	1953.95
587.34	1946.75
587.69	1938.74
588.04	1930.69
588.39	1923.56
588.74	1915.95
589.09	1908.59
589.44	1900.32
589.79	1892.91
590.14	1886.25
590.49	1879.43
590.84	1871.53
591.19	1864.86
591.54	1857.50
591.89	1848.90
592.25	1841.18
592.60	1832.92
592.95	1825.19
593.30	1816.96
593.65	1808.58
594.00	1800.39
594.35	1793.48
594.70	1785.61
595.05	1778.50
595.40	1771.11
595.75	1763.35
596.10	1756.42
596.45	1749.10
596.80	1742.63
597.15	1735.64
597.50	1727.86
597.85	1720.25
598.19	1712.90
598.54	1705.38
598.89	1698.68
599.24	1693.16
599.59	1686.88
599.94	1680.98
600.29	1674.31
600.64	1667.81
600.99	1660.78
601.34	1654.92
601.69	1647.39
602.04	1640.56
602.39	1633.39
602.74	1626.75
603.08	1620.88
603.43	1614.62
603.78	1607.74
604.13	1600.87
604.48	1594.15
604.83	1588.41
605.18	1582.88
605.53	1576.57
605.87	1569.85
606.22	1563.97
606.57	1557.34
606.92	1550.32
607.27	1543.30
607.62	1537.03
607.96	1530.99
608.31	1525.87
608.66	1519.06
609.01	1512.44
609.36	1505.87
609.70	1499.01
610.05	1492.53
610.40	1485.56
610.75	1478.24
611.10	1471.86
611.44	1463.95
611.79	1456.39
612.14	1448.60
612.49	1440.24
612.83	1432.78
613.18	1424.83
613.53	1416.35
613.88	1407.98
614.22	1400.52
614.57	1392.65
614.92	1384.61
615.27	1376.71
615.61	1368.56
615.96	1360.98
616.31	1353.80
616.65	1347.30
617.00	1340.46
617.35	1333.06
617.70	1325.51
618.04	1318.04
618.39	1310.06
618.74	1303.23
619.08	1295.79
619.43	1288.67
619.78	1282.17
620.12	1275.31
620.47	1268.68
620.82	1261.68
621.16	1254.78
621.51	1247.60
621.85	1240.75
622.20	1233.60
622.55	1226.44
622.89	1219.25
623.24	1212.37
623.59	1205.05
623.93	1197.38
624.28	1190.40
624.62	1183.53
624.97	1176.66
625.32	1169.94
625.66	1163.92
626.01	1157.51
626.35	1151.13
626.70	1144.52
627.04	1138.14
627.39	1131.58
627.73	1125.13
628.08	1119.44
628.43	1113.17
628.77	1106.84
629.12	1100.42
629.46	1094.81
629.81	1088.71
630.15	1082.33
630.50	1075.97
630.84	1069.80
631.19	1063.96
631.53	1057.96
631.88	1051.54
632.22	1044.91
632.57	1039.09
632.91	1032.44
633.26	1026.11
633.60	1020.12
633.95	1014.17
634.29	1007.86
634.64	1002.10
634.98	996.30
635.32	990.09
635.67	984.52
636.01	978.93
636.36	973.06
636.70	967.45
637.05	961.87
637.39	956.55
637.73	951.10
638.08	946.00
638.42	940.78
638.77	935.18
639.11	929.80
639.45	924.85
639.80	919.13
640.14	913.75
640.49	908.40
640.83	903.14
641.17	897.80
641.52	892.67
641.86	887.04
642.20	881.91
642.55	876.14
642.89	870.44
643.23	864.65
643.58	859.70
643.92	853.99
644.26	848.56
644.61	843.24
644.95	837.98
645.29	832.52
645.64	826.99
645.98	821.68
646.32	816.52
646.66	811.10
647.01	806.09
647.35	801.01
647.69	795.49
648.04	790.32
648.38	784.98
648.72	779.66
649.06	774.45
649.41	768.90
649.75	763.93
650.09	759.02
650.43	754.04
650.78	748.70
651.12	743.39
651.46	738.52
651.80	733.34
652.14	728.24
652.49	723.17
652.83	718.05
653.17	712.85
653.51	707.89
653.85	702.98
654.20	697.85
654.54	692.75
654.88	688.25
655.22	683.32
655.56	678.33
655.90	673.26
656.25	668.36
656.59	663.50
656.93	659.11
657.27	654.55
657.61	649.90
657.95	645.42
658.29	641.00
658.64	636.62
658.98	632.17
659.32	627.42
659.66	622.87
660.00	618.23
660.34	613.74
660.68	609.29
661.02	604.84
661.36	600.72
661.70	596.57
662.05	592.38
662.39	588.35
662.73	584.73
663.07	581.08
663.41	577.35
663.75	573.52
664.09	569.37
664.43	565.19
664.77	561.53
665.11	557.79
665.45	554.15
665.79	550.19
666.13	546.41
666.47	542.91
666.81	539.48
667.15	536.17
667.49	533.01
667.83	529.71
668.17	526.29
668.51	523.10
668.85	519.85
669.19	516.77
669.53	513.45
669.87	509.77
670.21	506.39
670.55	503.06
670.89	500.09
671.23	497.07
671.57	494.31
671.91	491.19
672.25	488.05
672.58	485.03
672.92	482.16
673.26	479.30
673.60	476.47
673.94	473.54
674.28	470.66
674.62	467.73
674.96	464.82
675.30	462.35
675.64	459.52
675.97	456.72
676.31	454.07
676.65	451.56
676.99	449.31
677.33	446.73
677.67	444.09
678.01	441.42
678.34	438.93
678.68	436.40
679.02	433.90
679.36	431.45
679.70	429.08
680.04	426.49
680.37	424.17
680.71	421.84
681.05	419.54
681.39	417.24
681.73	414.89
682.06	412.69
682.40	410.42
682.74	408.22
683.08	406.21
683.42	403.90
683.75	401.77
684.09	399.62
684.43	397.55
684.77	395.49
685.10	393.38
685.44	391.20
685.78	389.03
686.12	387.00
686.45	384.99
686.79	382.90
687.13	381.17
687.46	379.25
687.80	377.26
688.14	375.30
688.48	373.38
688.81	371.61
689.15	369.71
689.49	367.77
689.82	365.79
690.16	363.72
690.50	361.73
690.83	359.75
691.17	357.79
691.51	355.89
691.84	354.03
692.18	352.23
692.52	350.57
692.85	348.96
693.19	347.40
693.52	345.75
693.86	344.02
694.20	342.37
694.53	340.70
694.87	339.06
695.21	337.50
695.54	335.82
695.88	334.11
696.21	332.50
696.55	331.00
696.88	329.51
697.22	328.05
697.56	326.75
697.89	325.35
698.23	323.96
698.56	322.58
698.90	321.30
699.23	319.94
699.57	318.53
699.90	317.09
700.24	315.64
700.58	314.25
700.91	312.97
701.25	311.81
701.58	310.55
701.92	309.32
702.25	308.03
702.59	306.88
702.92	305.75
703.26	304.69
703.59	303.56
703.93	302.57
704.26	301.54
704.60	300.38
704.93	299.26
705.26	298.19
705.60	297.09
705.93	296.07
706.27	295.02
706.60	294.00
706.94	293.06
707.27	291.99
707.61	291.00
707.94	290.03
708.27	288.89
708.61	287.94
708.94	286.95
709.28	286.01
709.61	285.00
709.94	284.12
710.28	283.14
710.61	282.19
710.95	281.11
711.28	280.23
711.61	279.37
711.95	278.54
712.28	277.70
712.61	276.84
712.95	275.90
713.28	275.21
713.61	274.42
713.95	273.60
714.28	272.88
714.61	272.05
714.95	271.27
715.28	270.44
715.61	269.60
715.95	268.87
716.28	268.14
716.61	267.46
716.95	266.71
717.28	266.06
717.61	265.37
717.94	264.73
718.28	264.01
718.61	263.37
718.94	262.79
719.27	262.14
719.61	261.61
719.94	261.10
720.27	260.36
720.60	259.80
720.94	259.20
721.27	258.58
721.60	258.12
721.93	257.54
722.27	257.10
722.60	256.69
722.93	256.20
723.26	255.69
723.59	255.18
723.93	254.65
724.26	254.11
724.59	253.62
724.92	253.11
725.25	252.70
725.59	252.17
725.92	251.68
726.25	251.19
726.58	250.73
726.91	250.31
727.24	249.85
727.57	249.41
727.91	248.96
728.24	248.59
728.57	248.16
728.90	247.82
729.23	247.39
729.56	246.95
729.89	246.50
730.22	246.08
730.55	245.58
730.89	245.19
731.22	244.80
731.55	244.39
731.88	244.02
732.21	243.62
732.54	243.25
732.87	242.81
733.20	242.42
733.53	241.94
733.86	241.56
734.19	241.22
734.52	240.86
734.85	240.65
735.18	240.31
735.51	239.97
735.84	239.73
736.17	239.36
736.50	239.02
736.83	238.90
737.16	238.67
737.49	238.46
737.82	238.14
738.15	237.84
738.48	237.57
738.81	237.29
739.14	236.98
739.47	236.61
739.80	236.39
740.13	236.09
740.46	235.86
740.79	235.44
741.12	235.10
741.45	234.82
741.78	234.42
742.11	234.24
742.44	233.95
742.77	233.62
743.10	233.37
743.43	233.10
743.75	232.66
744.08	232.59
744.41	232.32
744.74	232.10
745.07	231.84
745.40	231.61
745.73	231.40
746.06	231.16
746.39	230.99
746.71	230.76
747.04	230.50
747.37	230.29
747.70	230.20
748.03	230.05
748.36	229.87
748.68	229.61
749.01	229.30
749.34	229.12
749.67	228.96
750.00	228.77
750.33	228.65
750.65	228.39
750.98	227.91
751.31	227.70
751.64	227.44
751.97	227.34
752.29	227.16
752.62	226.90
752.95	226.64
753.28	226.37
753.60	226.13
753.93	226.05
754.26	225.92
754.59	225.63
754.91	225.47
755.24	225.20
755.57	225.01
755.90	224.88
756.22	224.67
756.55	224.44
756.88	224.27
757.20	224.01
757.53	223.88
757.86	223.74
758.19	223.61
758.51	223.51
758.84	223.21
759.17	223.04
759.49	222.96
759.82	222.95
760.15	222.85
760.47	222.73
760.80	222.48
761.13	222.38
761.45	222.24
761.78	222.11
762.11	222.03
762.43	221.91
762.76	221.77
763.08	221.71
763.41	221.58
763.74	221.45
764.06	221.25
764.39	221.18
764.71	221.06
765.04	220.99
765.37	220.85
765.69	220.73
766.02	220.60
766.34	220.40
766.67	220.23
767.00	220.23
767.32	220.29
767.65	220.35
767.97	220.18
768.30	220.16
768.62	220.07
768.95	219.94
769.27	219.85
769.60	219.75
769.92	219.58
770.25	219.50
770.57	219.43
770.90	219.40
771.22	219.31
771.55	219.26
771.87	219.07
772.20	219.01
772.52	219.08
772.85	219.14
773.17	219.12
773.50	218.99
773.82	218.84
774.15	218.60
774.47	218.30
774.80	218.17
775.12	218.03
775.45	217.89
775.77	217.83
776.09	217.77
776.42	217.71
776.74	217.66
777.07	217.61
777.39	217.51
777.72	217.35
778.04	217.21
778.36	217.10
778.69	217.08
779.01	216.94
779.33	216.81
779.66	216.56
779.98	216.42
780.31	216.37
780.63	216.39
780.95	216.29
781.28	216.28
781.60	216.22
781.92	216.20
782.25	216.12
782.57	216.08
782.89	215.97
783.22	215.85
783.54	215.73
783.86	215.59
784.19	215.52
784.51	215.58
784.83	215.53
785.16	215.44
785.48	215.36
785.80	215.39
786.12	215.34
786.45	215.34
786.77	215.32
787.09	215.20
787.42	215.03
787.74	215.00
788.06	215.10
788.38	214.99
788.71	214.97
789.03	214.93
789.35	214.94
789.67	214.89
789.99	214.84
790.32	214.85
790.64	214.82
790.96	214.93
791.28	214.82
791.61	214.77
791.93	214.75
792.25	214.72
792.57	214.77
792.89	214.62
793.21	214.56
793.54	214.53
793.86	214.58
794.18	214.60
794.50	214.59
794.82	214.48
795.14	214.57
795.47	214.49
795.79	214.53
796.11	214.36
796.43	214.42
796.75	214.41
797.07	214.41
797.39	214.41
797.71	214.24
798.04	214.20
798.36	214.22
798.68	214.22
799.00	214.23
799.32	214.10
799.64	214.13
799.96	214.16
800.28	214.15
800.60	214.15
800.92	214.10
801.24	214.03
801.56	214.04
801.89	213.93
802.21	213.83
802.53	213.77
802.85	213.90
803.17	213.90
803.49	213.87
803.81	213.85
804.13	213.89
804.45	213.84
804.77	213.85
805.09	213.81
805.41	213.79
805.73	213.71
806.05	213.67
806.37	213.66
806.69	213.58
807.01	213.55
807.33	213.45
807.65	213.43
807.97	213.50
808.28	213.42
808.60	213.43
808.92	213.55
809.24	213.60
809.56	213.53
809.88	213.43
810.20	213.36
810.52	213.35
810.84	213.27
811.16	213.30
811.48	213.25
811.80	213.20
812.12	213.16
812.43	213.22
812.75	213.22
813.07	213.20
813.39	213.21
813.71	213.27
814.03	213.25
814.35	213.25
814.67	213.18
814.98	213.13
815.30	213.08
815.62	212.99
815.94	212.86
816.26	212.81
816.58	212.82
816.89	212.87
817.21	212.78
817.53	212.77
817.85	212.72
818.17	212.72
818.48	212.75
818.80	212.80
819.12	212.74
819.44	212.70
819.76	212.70
820.07	212.69
820.39	212.58
820.71	212.64
821.03	212.63
821.34	212.62
821.66	212.70
821.98	212.68
822.30	212.66
822.61	212.79
822.93	212.83
823.25	212.85
823.57	212.74
823.88	212.85
824.20	212.81
824.52	212.88
824.83	212.89
825.15	212.78
825.47	212.65
825.79	212.66
826.10	212.66
826.42	212.64
826.74	212.65
827.05	212.66
827.37	212.66
827.69	212.64
828.00	212.60
828.32	212.50
828.64	212.54
828.95	212.65
829.27	212.54
829.58	212.47
829.90	212.42
830.22	212.47
830.53	212.38
830.85	212.34
831.17	212.27
831.48	212.24
831.80	212.34
832.11	212.35
832.43	212.28
832.75	212.22
833.06	212.30
833.38	212.18
833.69	212.19
834.01	212.13
834.32	212.05
834.64	212.04
834.96	212.01
835.27	211.90
835.59	211.81
835.90	211.76
836.22	211.75
836.53	211.72
836.85	211.76
837.16	211.95
837.48	211.92
837.79	211.96
838.11	211.98
838.42	211.89
838.74	211.90
839.05	211.91
839.37	211.94
839.68	211.84
840.00	211.83
840.31	211.84
840.63	211.86
840.94	211.82
841.26	211.76
841.57	211.84
841.88	211.85
842.20	211.81
842.51	211.85
842.83	211.84
843.14	211.95
843.46	211.85
843.77	211.73
844.08	211.75
844.40	211.69
844.71	211.69
845.03	211.63
845.34	211.63
845.65	211.63
845.97	211.64
846.28	211.67
846.60	211.64
846.91	211.54
847.22	211.53
847.54	211.59
847.85	211.61
848.16	211.56
848.48	211.56
848.79	211.64
849.10	211.62
849.42	211.65
849.73	211.55
850.04	211.57
850.36	211.48
850.67	211.52
850.98	211.51
851.30	211.46
851.61	211.52
851.92	211.52
852.23	211.57
852.55	211.61
852.86	211.59
853.17	211.66
853.49	211.70
853.80	211.72
854.11	211.80
854.42	211.83
854.74	211.85
855.05	211.84
855.36	211.75
855.67	211.73
855.99	211.77
856.30	211.88
856.61	211.87
856.92	211.90
857.23	211.88
857.55	211.85
857.86	211.82
858.17	211.85
858.48	211.84
858.79	211.79
859.11	211.72
859.42	211.69
859.73	211.65
860.04	211.69
860.35	211.64
860.66	211.56
860.98	211.56
861.29	211.54
861.60	211.60
861.91	211.61
862.22	211.58
862.53	211.56
862.84	211.37
863.16	211.42
863.47	211.38
863.78	211.34
864.09	211.35
864.40	211.36
864.71	211.38
865.02	211.42
865.33	211.39
865.64	211.34
865.95	211.31
866.27	211.47
866.58	211.42
866.89	211.50
867.20	211.47
867.51	211.41
867.82	211.37
868.13	211.40
868.44	211.45
868.75	211.54
869.06	211.50
869.37	211.58
869.68	211.48
869.99	211.53
870.30	211.53
870.61	211.68
870.92	211.70
871.23	211.66
871.54	211.71
871.85	211.79
872.16	211.81
872.47	211.83
872.78	211.70
873.09	211.73
873.40	211.67
873.71	211.66
874.02	211.70
874.33	211.74
874.64	211.68
874.95	211.63
875.26	211.59
875.56	211.57
875.87	211.52
876.18	211.57
876.49	211.72
876.80	211.79
877.11	211.66
877.42	211.72
877.73	211.75
878.04	211.64
878.35	211.63
878.66	211.71
878.96	211.74
879.27	211.69
879.58	211.64
879.89	211.56
880.20	211.64
880.51	211.65
880.82	211.61
881.12	211.68
881.43	211.66
881.74	211.62
882.05	211.65
882.36	211.68
882.67	211.66
882.97	211.44
883.28	211.42
883.59	211.40
883.90	211.45
884.21	211.47
884.51	211.51
884.82	211.50
885.13	211.41
885.44	211.40
885.74	211.37
886.05	211.45
886.36	211.53
886.67	211.42
886.98	211.47
887.28	211.48
887.59	211.43
887.90	211.43
888.20	211.53
888.51	211.51
888.82	211.50
889.13	211.55
889.43	211.73
889.74	211.70
890.05	211.67
890.35	211.56
890.66	211.48
890.97	211.48
891.28	211.47
891.58	211.58
891.89	211.60
892.20	211.65
892.50	211.58
892.81	211.50
893.12	211.61
893.42	211.57
893.73	211.68
894.04	211.65
894.34	211.66
894.65	211.60
894.95	211.61
895.26	211.62
895.57	211.70
895.87	211.51
896.18	211.47
896.48	211.50
896.79	211.57
897.10	211.59
897.40	211.62
897.71	211.62
898.01	211.49
898.32	211.43
898.63	211.40
898.93	211.42
899.24	211.45
899.54	211.30
899.85	211.32
900.15	211.25
900.46	211.29
900.76	211.32
901.07	211.31
901.38	211.31
901.68	211.33
901.99	211.22
902.29	211.17
902.60	211.20
902.90	211.17
903.21	211.12
903.51	211.10
903.82	211.08
904.12	211.05
904.43	211.08
904.73	211.09
905.03	211.07
905.34	211.19
905.64	211.23
905.95	211.30
906.25	211.23
906.56	211.25
906.86	211.25
907.17	211.23
907.47	211.21
907.77	211.16
908.08	211.16
908.38	211.20
908.69	211.30
908.99	211.33
909.30	211.40
909.60	211.33
909.90	211.37
910.21	211.29
910.51	211.27
910.81	211.31
911.12	211.35
911.42	211.45
911.73	211.28
912.03	211.22
912.33	211.18
912.64	211.10
912.94	211.05
913.24	211.05
913.55	211.00
913.85	211.00
914.15	211.00
914.46	210.89
914.76	210.83
915.06	210.81
915.37	210.79
915.67	210.77
915.97	210.84
916.27	210.76
916.58	210.80
916.88	210.85
917.18	210.78
917.49	210.92
917.79	210.87
918.09	210.89
918.39	210.98
918.70	211.03
919.00	211.05
919.30	211.16
919.60	211.13
919.91	211.14
920.21	211.16
920.51	211.12
920.81	211.17
921.12	211.31
921.42	211.30
921.72	211.33
922.02	211.29
922.32	211.33
922.63	211.39
922.93	211.48
923.23	211.49
923.53	211.52
923.83	211.38
924.13	211.38
924.44	211.46
924.74	211.47
925.04	211.49
925.34	211.55
925.64	211.43
925.94	211.43
926.24	211.50
926.55	211.44
926.85	211.43
927.15	211.44
927.45	211.32
927.75	211.31
928.05	211.26
928.35	211.20
928.65	211.16
928.95	211.17
929.26	211.00
929.56	210.98
929.86	210.97
930.16	210.90
930.46	210.91
930.76	210.85
931.06	210.76
931.36	210.73
931.66	210.79
931.96	210.80
932.26	210.86
932.56	210.81
932.86	210.86
933.16	210.99
933.46	210.90
933.76	210.93
934.06	210.99
934.36	211.07
934.66	211.12
934.96	211.11
935.26	211.11
935.56	211.23
935.86	211.15
936.16	211.14
936.46	211.12
936.76	211.13
937.06	211.11
937.36	211.13
937.66	211.12
937.96	211.13
938.26	211.08
938.56	211.05
938.86	211.04
939.16	211.10
939.46	211.07
939.76	211.12
940.06	211.08
940.35	210.95
940.65	210.83
940.95	210.88
941.25	210.80
941.55	210.78
941.85	210.73
942.15	210.80
942.45	210.80
942.75	210.83
943.04	210.82
943.34	210.87
943.64	210.81
943.94	210.72
944.24	210.64
944.54	210.63
944.84	210.60
945.13	210.60
945.43	210.51
945.73	210.45
946.03	210.47
946.33	210.51
946.62	210.56
946.92	210.60
947.22	210.58
947.52	210.65
947.82	210.68
948.11	210.67
948.41	210.66
948.71	210.60
949.01	210.60
949.31	210.63
949.60	210.56
949.90	210.59
950.20	210.66
950.50	210.71
950.79	210.72
951.09	210.67
951.39	210.66
951.69	210.64
951.98	210.67
952.28	210.72
952.58	210.70
952.87	210.60
953.17	210.61
953.47	210.61
953.76	210.62
954.06	210.60
954.36	210.61
954.66	210.61
954.95	210.69
955.25	210.75
955.55	210.70
955.84	210.72
956.14	210.75
956.44	210.73
956.73	210.73
957.03	210.73
957.32	210.82
957.62	210.81
957.92	210.82
958.21	210.83
958.51	210.95
958.81	210.92
959.10	210.98
959.40	211.03
959.69	210.99
959.99	210.99
960.29	210.92
960.58	210.92
960.88	210.95
961.17	210.89
961.47	210.87
961.76	210.80
962.06	210.88
962.36	210.89
962.65	210.90
962.95	210.86
963.24	210.86
963.54	210.86
963.83	210.90
964.13	210.98
964.42	210.95
964.72	210.84
965.01	210.88
965.31	210.94
965.60	210.86
965.90	211.00
966.19	210.99
966.49	211.06
966.78	211.00
967.08	211.06
967.37	211.07
967.67	211.04
967.96	211.12
968.26	211.04
968.55	211.06
968.85	211.06
969.14	211.08
969.43	211.10
969.73	211.07
970.02	211.01
970.32	210.95
970.61	210.98
970.91	211.01
971.20	211.03
971.49	211.02
971.79	211.10
972.08	210.96
972.38	211.01
972.67	210.97
972.96	211.08
973.26	210.96
973.55	211.04
973.85	211.08
974.14	211.08
974.43	211.11
974.73	211.12
975.02	211.11
975.31	211.11
975.61	211.15
975.90	211.15
976.19	211.19
976.49	211.27
976.78	211.29
977.07	211.29
977.37	211.33
977.66	211.33
977.95	211.30
978.24	211.32
978.54	211.41
978.83	211.38
979.12	211.40
979.42	211.45
979.71	211.44
980.00	211.44
980.29	211.50
980.59	211.52
980.88	211.51
981.17	211.48
981.46	211.52
981.76	211.49
982.05	211.58
982.34	211.51
982.63	211.49
982.93	211.52
983.22	211.53
983.51	211.46
983.80	211.48
984.09	211.54
984.39	211.57
984.68	211.48
984.97	211.50
985.26	211.39
985.55	211.40
985.85	211.33
986.14	211.31
986.43	211.28
986.72	211.24
987.01	211.22
987.30	211.30
987.59	211.25
987.89	211.22
988.18	211.15
988.47	211.19
988.76	211.15
989.05	211.01
989.34	210.94
989.63	210.92
989.92	210.88
990.22	210.84
990.51	210.73
990.80	210.71
991.09	210.73
991.38	210.75
991.67	210.77
991.96	210.80
992.25	210.81
992.54	210.78
992.83	210.78
993.12	210.82
993.41	210.81
993.70	210.87
993.99	210.96
994.28	210.95
994.58	210.99
994.87	211.01
995.16	211.11
995.45	211.15
995.74	211.10
996.03	211.10
996.32	211.08
996.61	211.18
996.90	211.15
997.19	211.17
997.48	211.22
997.77	211.20
998.06	211.18
998.34	211.16
998.63	211.09
998.92	211.14
999.21	211.13
999.50	211.09
999.79	211.01
1000.08	210.93
1000.37	210.94
1000.66	210.93
1000.95	210.91
1001.24	210.87
1001.53	210.85
1001.82	210.89
1002.11	210.88
1002.40	210.98
1002.68	211.05
1002.97	211.17
1003.26	211.13
1003.55	211.09
1003.84	211.07
1004.13	211.17
1004.42	211.15
1004.71	211.18
1004.99	211.11
1005.28	211.12
1005.57	211.13
1005.86	211.12
1006.15	211.17
1006.44	211.20
1006.72	211.21
1007.01	211.17
1007.30	211.19
1007.59	211.23
1007.88	211.28
1008.17	211.30
1008.45	211.15
1008.74	211.08
1009.03	211.03
1009.32	211.03
1009.60	210.96
1009.89	210.98
1010.18	210.83
1010.47	210.81
1010.76	210.88
1011.04	210.87
1011.33	210.86
1011.62	210.92
1011.91	210.98
1012.19	210.90
1012.48	210.86
1012.77	210.89
1013.05	211.07
1013.34	211.08
1013.63	211.03
1013.92	211.00
1014.20	210.97
1014.49	211.00
1014.78	210.96
1015.06	210.98
1015.35	210.93
1015.64	210.97
1015.92	210.98
1016.21	211.04
1016.50	211.05
1016.78	211.05
1017.07	211.08
1017.36	211.10
1017.64	211.01
1017.93	210.96
1018.22	210.88
1018.50	210.88
1018.79	210.80
1019.08	210.66
1019.36	210.68
1019.65	210.59
1019.93	210.58
1020.22	210.62
1020.51	210.76
1020.79	210.77
1021.08	208.60
1021.36	210.80
1021.65	210.50
1021.94	210.70
1022.22	211.55
1022.51	209.65
1022.79	210.70
1023.08	211.00
1023.36	213.35
1023.65	210.65
>>>>>End Processed Spectral Data<<<<<
