SpectraSuite Data File
++++++++++++++++++++++++++++++++++++
Date: Mon Feb 25 17:33:54 EST 2013
User: group
Dark Spectrum Present: No
Reference Spectrum Present: No
Number of Sampled Component Spectra: 1
Spectrometers: USB2E7196
Integration Time (usec): 52000 (USB2E7196)
Spectra Averaged: 20 (USB2E7196)
Boxcar Smoothing: 10 (USB2E7196)
Correct for Electrical Dark: No (USB2E7196)
Strobe/Lamp Enabled: No (USB2E7196)
Correct for Detector Non-linearity: No (USB2E7196)
Correct for Stray Light: No (USB2E7196)
Number of Pixels in Processed Spectrum: 2048
>>>>>Begin Processed Spectral Data<<<<<
339.09	0.00
339.48	199.85
339.86	199.35
340.24	201.30
340.63	204.30
341.01	208.55
341.39	206.00
341.78	207.45
342.16	209.15
342.54	209.20
342.93	198.60
343.31	208.67
343.69	209.21
344.07	209.79
344.46	210.35
344.84	210.77
345.22	210.92
345.60	211.21
345.99	211.45
346.37	211.58
346.75	211.76
347.13	211.82
347.52	211.88
347.90	211.93
348.28	212.00
348.66	212.10
349.05	212.03
349.43	212.01
349.81	212.14
350.19	212.20
350.57	212.23
350.96	212.37
351.34	212.49
351.72	212.54
352.10	212.59
352.48	212.53
352.87	212.57
353.25	212.61
353.63	212.59
354.01	212.67
354.39	212.70
354.77	212.72
355.15	212.89
355.54	213.00
355.92	213.10
356.30	213.16
356.68	213.27
357.06	213.35
357.44	213.31
357.82	213.30
358.20	213.40
358.58	213.40
358.97	213.45
359.35	213.45
359.73	213.51
360.11	213.60
360.49	213.72
360.87	213.62
361.25	213.69
361.63	213.87
362.01	213.84
362.39	213.85
362.77	213.86
363.15	213.79
363.53	213.80
363.91	213.83
364.29	213.82
364.67	213.64
365.05	213.66
365.43	213.71
365.81	213.72
366.19	213.70
366.57	213.79
366.95	213.69
367.33	213.64
367.71	213.62
368.09	213.60
368.47	213.56
368.85	213.60
369.23	213.60
369.61	213.48
369.99	213.54
370.37	213.57
370.75	213.64
371.13	213.63
371.51	213.50
371.89	213.42
372.27	213.40
372.65	213.40
373.03	213.36
373.41	213.32
373.78	213.27
374.16	213.15
374.54	213.08
374.92	213.04
375.30	213.00
375.68	212.95
376.06	212.90
376.44	212.83
376.82	212.81
377.19	212.73
377.57	212.61
377.95	212.48
378.33	212.36
378.71	212.20
379.09	212.11
379.47	212.08
379.84	212.02
380.22	211.95
380.60	211.86
380.98	211.76
381.36	211.69
381.73	211.58
382.11	211.65
382.49	211.61
382.87	211.58
383.25	211.54
383.62	211.66
384.00	211.60
384.38	211.58
384.76	211.56
385.13	211.59
385.51	211.59
385.89	211.53
386.27	211.53
386.64	211.52
387.02	211.51
387.40	211.55
387.78	211.54
388.15	211.58
388.53	211.53
388.91	211.56
389.29	211.53
389.66	211.64
390.04	211.52
390.42	211.53
390.79	211.55
391.17	211.50
391.55	211.34
391.92	211.36
392.30	211.41
392.68	211.36
393.05	211.44
393.43	211.44
393.81	211.48
394.18	211.45
394.56	211.45
394.94	211.44
395.31	211.43
395.69	211.51
396.06	211.55
396.44	211.60
396.82	211.61
397.19	211.76
397.57	211.68
397.95	211.75
398.32	211.70
398.70	211.70
399.07	211.84
399.45	211.93
399.82	211.90
400.20	211.89
400.58	212.01
400.95	211.90
401.33	212.00
401.70	212.21
402.08	212.28
402.45	212.33
402.83	212.50
403.20	212.54
403.58	212.64
403.95	212.72
404.33	212.88
404.71	212.98
405.08	213.17
405.46	213.30
405.83	213.51
406.21	213.69
406.58	213.90
406.96	214.00
407.33	214.13
407.70	214.31
408.08	214.61
408.45	214.80
408.83	215.05
409.20	215.35
409.58	215.46
409.95	215.81
410.33	216.16
410.70	216.40
411.08	216.76
411.45	217.05
411.82	217.40
412.20	217.77
412.57	218.31
412.95	218.61
413.32	219.24
413.69	219.76
414.07	220.35
414.44	220.97
414.82	221.66
415.19	222.39
415.56	223.14
415.94	223.87
416.31	224.75
416.68	225.70
417.06	226.58
417.43	227.54
417.81	228.63
418.18	229.75
418.55	230.95
418.93	232.20
419.30	233.52
419.67	234.93
420.04	236.41
420.42	237.81
420.79	239.59
421.16	241.30
421.54	243.12
421.91	244.95
422.28	246.85
422.66	248.85
423.03	250.92
423.40	253.00
423.77	255.22
424.15	257.47
424.52	259.83
424.89	262.42
425.26	264.92
425.64	267.30
426.01	269.88
426.38	272.59
426.75	275.46
427.13	278.32
427.50	281.35
427.87	284.50
428.24	287.67
428.61	290.70
428.99	293.87
429.36	297.30
429.73	300.76
430.10	304.23
430.47	307.85
430.85	311.45
431.22	315.43
431.59	319.64
431.96	323.45
432.33	327.78
432.70	332.05
433.08	336.99
433.45	341.70
433.82	346.29
434.19	351.36
434.56	356.28
434.93	361.18
435.30	365.94
435.68	371.20
436.05	376.44
436.42	381.55
436.79	386.43
437.16	391.51
437.53	396.90
437.90	402.08
438.27	407.25
438.64	412.70
439.01	417.58
439.38	421.85
439.75	426.22
440.13	431.07
440.50	435.62
440.87	439.22
441.24	442.92
441.61	447.17
441.98	450.28
442.35	454.02
442.72	457.66
443.09	461.08
443.46	463.15
443.83	464.46
444.20	465.69
444.57	467.31
444.94	468.17
445.31	468.87
445.68	469.74
446.05	470.00
446.42	469.25
446.79	468.51
447.16	467.71
447.53	467.00
447.90	464.83
448.27	462.69
448.64	460.00
449.01	457.89
449.37	454.22
449.74	450.71
450.11	446.46
450.48	441.88
450.85	437.28
451.22	433.23
451.59	429.49
451.96	425.75
452.33	420.95
452.70	416.62
453.07	411.54
453.43	406.28
453.80	401.13
454.17	396.41
454.54	391.87
454.91	387.00
455.28	382.39
455.65	378.00
456.02	373.64
456.38	369.85
456.75	365.24
457.12	361.41
457.49	357.64
457.86	353.82
458.23	350.57
458.59	347.08
458.96	343.57
459.33	340.42
459.70	337.27
460.07	334.74
460.43	331.82
460.80	329.03
461.17	326.65
461.54	324.31
461.91	322.00
462.27	319.57
462.64	317.54
463.01	315.25
463.38	313.16
463.74	310.94
464.11	309.04
464.48	307.34
464.85	305.55
465.21	304.16
465.58	302.79
465.95	301.04
466.32	299.60
466.68	298.20
467.05	296.76
467.42	295.43
467.78	293.97
468.15	292.58
468.52	291.54
468.88	290.23
469.25	288.99
469.62	288.08
469.98	287.13
470.35	286.23
470.72	285.32
471.08	284.34
471.45	283.60
471.82	282.73
472.18	281.92
472.55	281.33
472.92	280.56
473.28	279.95
473.65	279.42
474.02	278.85
474.38	278.40
474.75	278.09
475.11	277.64
475.48	277.40
475.85	277.21
476.21	277.00
476.58	276.80
476.94	276.80
477.31	276.65
477.67	276.63
478.04	276.68
478.41	276.94
478.77	277.30
479.14	277.42
479.50	277.66
479.87	278.06
480.23	278.45
480.60	278.81
480.96	279.22
481.33	279.81
481.69	280.41
482.06	281.03
482.42	281.66
482.79	282.39
483.15	283.22
483.52	284.25
483.88	285.17
484.25	286.23
484.61	287.19
484.98	288.35
485.34	289.57
485.71	290.90
486.07	292.19
486.44	293.40
486.80	294.93
487.17	296.59
487.53	298.29
487.90	300.12
488.26	302.10
488.62	304.23
488.99	306.23
489.35	308.40
489.72	310.66
490.08	313.04
490.44	315.50
490.81	318.13
491.17	320.70
491.54	323.63
491.90	326.59
492.26	329.82
492.63	333.00
492.99	336.48
493.36	340.14
493.72	344.06
494.08	348.18
494.45	352.52
494.81	357.03
495.17	361.67
495.54	366.59
495.90	371.76
496.26	376.78
496.63	382.55
496.99	388.26
497.35	394.30
497.72	400.60
498.08	407.21
498.44	414.06
498.80	421.40
499.17	428.96
499.53	436.71
499.89	444.67
500.26	452.90
500.62	461.34
500.98	470.13
501.34	479.13
501.71	488.59
502.07	498.20
502.43	508.15
502.79	518.31
503.16	528.88
503.52	539.66
503.88	551.03
504.24	562.34
504.60	574.25
504.97	586.45
505.33	599.06
505.69	612.38
506.05	625.65
506.41	639.03
506.78	652.64
507.14	666.76
507.50	681.44
507.86	696.58
508.22	712.09
508.59	727.65
508.95	743.73
509.31	760.01
509.67	776.75
510.03	793.93
510.39	811.70
510.75	829.50
511.12	847.70
511.48	865.95
511.84	884.64
512.20	903.52
512.56	922.90
512.92	942.51
513.28	961.96
513.64	981.89
514.00	1002.14
514.37	1022.82
514.73	1043.58
515.09	1064.43
515.45	1085.12
515.81	1106.21
516.17	1127.45
516.53	1148.80
516.89	1170.21
517.25	1192.00
517.61	1213.65
517.97	1235.00
518.33	1256.61
518.69	1278.20
519.05	1300.41
519.41	1322.79
519.77	1345.44
520.13	1367.78
520.49	1389.82
520.85	1412.71
521.21	1435.50
521.57	1458.39
521.93	1480.45
522.29	1503.45
522.65	1526.20
523.01	1549.07
523.37	1571.29
523.73	1593.93
524.09	1616.32
524.45	1638.78
524.81	1660.95
525.17	1683.01
525.53	1705.66
525.89	1728.26
526.25	1750.51
526.61	1771.95
526.97	1793.77
527.33	1815.21
527.68	1836.50
528.04	1857.88
528.40	1877.91
528.76	1898.60
529.12	1919.35
529.48	1941.21
529.84	1961.70
530.20	1981.70
530.56	2001.97
530.91	2023.08
531.27	2043.55
531.63	2063.55
531.99	2083.68
532.35	2103.17
532.71	2122.47
533.07	2142.06
533.42	2160.26
533.78	2179.27
534.14	2197.77
534.50	2215.24
534.86	2233.17
535.21	2250.32
535.57	2268.17
535.93	2285.76
536.29	2302.74
536.65	2319.25
537.00	2334.51
537.36	2349.89
537.72	2365.37
538.08	2380.87
538.44	2395.90
538.79	2411.34
539.15	2426.22
539.51	2440.85
539.87	2456.27
540.22	2470.94
540.58	2485.94
540.94	2500.79
541.29	2513.64
541.65	2526.25
542.01	2539.52
542.37	2551.35
542.72	2563.78
543.08	2574.72
543.44	2586.63
543.79	2596.87
544.15	2607.36
544.51	2618.47
544.87	2629.48
545.22	2639.06
545.58	2647.70
545.94	2655.17
546.29	2661.37
546.65	2668.01
547.01	2674.38
547.36	2680.07
547.72	2685.59
548.07	2689.34
548.43	2693.57
548.79	2697.68
549.14	2702.29
549.50	2706.47
549.86	2710.63
550.21	2714.31
550.57	2718.65
550.92	2721.42
551.28	2724.40
551.64	2727.10
551.99	2729.54
552.35	2731.43
552.70	2734.43
553.06	2737.20
553.41	2740.23
553.77	2743.67
554.13	2745.74
554.48	2747.81
554.84	2749.15
555.19	2749.83
555.55	2750.64
555.90	2750.97
556.26	2751.62
556.61	2751.58
556.97	2750.38
557.32	2750.04
557.68	2748.45
558.03	2746.82
558.39	2745.17
558.74	2744.53
559.10	2743.57
559.45	2741.87
559.81	2740.37
560.16	2737.60
560.52	2735.10
560.87	2731.85
561.23	2728.00
561.58	2726.08
561.94	2722.70
562.29	2718.95
562.64	2717.16
563.00	2714.80
563.35	2712.55
563.71	2710.80
564.06	2708.72
564.42	2706.99
564.77	2704.92
565.12	2703.50
565.48	2700.37
565.83	2697.56
566.19	2694.41
566.54	2689.89
566.89	2686.25
567.25	2682.59
567.60	2679.09
567.96	2675.49
568.31	2672.45
568.66	2668.55
569.02	2663.35
569.37	2658.21
569.72	2654.49
570.08	2648.87
570.43	2643.14
570.78	2637.31
571.14	2630.80
571.49	2624.40
571.84	2618.32
572.20	2611.18
572.55	2604.32
572.90	2597.88
573.26	2591.05
573.61	2583.94
573.96	2577.46
574.31	2569.23
574.67	2561.21
575.02	2552.76
575.37	2544.08
575.72	2534.77
576.08	2527.53
576.43	2519.17
576.78	2511.77
577.13	2503.75
577.49	2495.70
577.84	2487.93
578.19	2480.50
578.54	2473.24
578.90	2466.06
579.25	2457.41
579.60	2448.28
579.95	2439.00
580.30	2430.53
580.66	2422.00
581.01	2412.89
581.36	2403.49
581.71	2395.04
582.06	2386.41
582.42	2378.43
582.77	2369.38
583.12	2360.60
583.47	2351.50
583.82	2343.25
584.17	2333.71
584.53	2324.64
584.88	2315.90
585.23	2306.52
585.58	2296.57
585.93	2286.79
586.28	2277.46
586.63	2268.43
586.98	2259.90
587.34	2251.77
587.69	2242.93
588.04	2234.15
588.39	2225.76
588.74	2216.78
589.09	2208.09
589.44	2198.61
589.79	2189.79
590.14	2181.99
590.49	2173.49
590.84	2164.44
591.19	2156.28
591.54	2147.43
591.89	2137.09
592.25	2127.61
592.60	2118.30
592.95	2108.87
593.30	2099.24
593.65	2089.51
594.00	2080.07
594.35	2072.09
594.70	2062.56
595.05	2053.71
595.40	2044.47
595.75	2034.75
596.10	2026.25
596.45	2017.77
596.80	2009.85
597.15	2001.50
597.50	1992.22
597.85	1983.87
598.19	1975.13
598.54	1966.69
598.89	1958.99
599.24	1952.24
599.59	1944.80
599.94	1937.42
600.29	1929.70
600.64	1921.68
600.99	1913.00
601.34	1905.66
601.69	1896.73
602.04	1888.62
602.39	1880.02
602.74	1872.21
603.08	1865.54
603.43	1858.58
603.78	1850.56
604.13	1842.38
604.48	1834.38
604.83	1827.29
605.18	1820.05
605.53	1812.36
605.87	1804.09
606.22	1796.51
606.57	1788.46
606.92	1780.05
607.27	1772.03
607.62	1764.73
607.96	1757.95
608.31	1751.79
608.66	1743.92
609.01	1736.27
609.36	1728.46
609.70	1720.69
610.05	1713.11
610.40	1704.79
610.75	1696.02
611.10	1688.56
611.44	1679.31
611.79	1670.24
612.14	1661.10
612.49	1651.24
612.83	1642.46
613.18	1632.79
613.53	1623.40
613.88	1613.78
614.22	1605.23
614.57	1595.79
614.92	1586.47
615.27	1576.86
615.61	1567.08
615.96	1557.94
616.31	1549.45
616.65	1541.65
617.00	1533.37
617.35	1524.43
617.70	1515.51
618.04	1506.55
618.39	1496.70
618.74	1488.23
619.08	1479.33
619.43	1471.00
619.78	1463.46
620.12	1455.16
620.47	1447.61
620.82	1439.19
621.16	1430.98
621.51	1422.36
621.85	1414.40
622.20	1405.98
622.55	1397.82
622.89	1389.67
623.24	1381.72
623.59	1372.89
623.93	1364.11
624.28	1355.71
624.62	1347.58
624.97	1339.31
625.32	1331.64
625.66	1324.35
626.01	1317.34
626.35	1310.07
626.70	1302.12
627.04	1294.43
627.39	1286.90
627.73	1279.31
628.08	1272.31
628.43	1264.92
628.77	1257.32
629.12	1249.56
629.46	1242.74
629.81	1235.37
630.15	1227.91
630.50	1220.17
630.84	1213.05
631.19	1205.77
631.53	1199.03
631.88	1191.31
632.22	1183.79
632.57	1176.58
632.91	1169.01
633.26	1161.44
633.60	1154.37
633.95	1147.74
634.29	1140.51
634.64	1133.74
634.98	1126.55
635.32	1119.47
635.67	1112.98
636.01	1106.41
636.36	1099.90
636.70	1093.30
637.05	1086.49
637.39	1080.03
637.73	1074.07
638.08	1068.31
638.42	1062.53
638.77	1055.92
639.11	1049.96
639.45	1044.04
639.80	1037.46
640.14	1031.07
640.49	1024.94
640.83	1018.58
641.17	1012.17
641.52	1006.07
641.86	999.54
642.20	993.30
642.55	986.53
642.89	979.75
643.23	973.39
643.58	967.36
643.92	960.54
644.26	954.53
644.61	948.59
644.95	942.29
645.29	935.80
645.64	928.91
645.98	922.90
646.32	916.85
646.66	910.70
647.01	904.81
647.35	899.08
647.69	892.55
648.04	886.74
648.38	880.54
648.72	874.42
649.06	868.36
649.41	862.42
649.75	856.73
650.09	851.02
650.43	845.27
650.78	838.87
651.12	832.98
651.46	827.25
651.80	821.21
652.14	815.29
652.49	809.14
652.83	803.49
653.17	797.22
653.51	791.11
653.85	785.41
654.20	779.44
654.54	773.56
654.88	768.17
655.22	762.15
655.56	756.36
655.90	750.58
656.25	744.91
656.59	739.37
656.93	734.13
657.27	728.84
657.61	723.18
657.95	718.25
658.29	713.27
658.64	707.93
658.98	702.74
659.32	697.33
659.66	692.28
660.00	686.91
660.34	681.62
660.68	676.75
661.02	671.55
661.36	666.86
661.70	662.00
662.05	657.19
662.39	652.94
662.73	648.49
663.07	644.08
663.41	639.70
663.75	635.14
664.09	630.36
664.43	625.63
664.77	621.25
665.11	616.73
665.45	612.25
665.79	607.89
666.13	603.28
666.47	599.10
666.81	594.87
667.15	590.78
667.49	586.92
667.83	582.97
668.17	579.15
668.51	575.30
668.85	571.51
669.19	567.87
669.53	563.75
669.87	559.59
670.21	555.68
670.55	551.81
670.89	548.42
671.23	544.97
671.57	541.46
671.91	537.89
672.25	534.25
672.58	530.55
672.92	527.05
673.26	523.99
673.60	520.72
673.94	517.40
674.28	514.15
674.62	511.00
674.96	507.64
675.30	504.43
675.64	501.23
675.97	498.00
676.31	494.80
676.65	491.91
676.99	489.32
677.33	486.31
677.67	483.35
678.01	480.10
678.34	477.27
678.68	474.34
679.02	471.31
679.36	468.51
679.70	465.75
680.04	462.85
680.37	459.75
680.71	456.76
681.05	454.04
681.39	451.25
681.73	448.57
682.06	446.13
682.40	443.50
682.74	440.80
683.08	438.25
683.42	435.64
683.75	433.02
684.09	430.37
684.43	427.92
684.77	425.37
685.10	422.96
685.44	420.32
685.78	417.87
686.12	415.63
686.45	413.28
686.79	410.94
687.13	408.82
687.46	406.75
687.80	404.69
688.14	402.48
688.48	400.45
688.81	398.10
689.15	395.75
689.49	393.51
689.82	391.28
690.16	389.01
690.50	386.68
690.83	384.40
691.17	382.19
691.51	379.97
691.84	377.94
692.18	375.86
692.52	373.85
692.85	372.02
693.19	370.19
693.52	368.15
693.86	366.21
694.20	364.30
694.53	362.42
694.87	360.45
695.21	358.52
695.54	356.51
695.88	354.77
696.21	352.98
696.55	351.19
696.88	349.42
697.22	347.69
697.56	346.11
697.89	344.42
698.23	342.75
698.56	341.22
698.90	339.67
699.23	338.05
699.57	336.46
699.90	334.82
700.24	333.07
700.58	331.54
700.91	330.05
701.25	328.68
701.58	327.29
701.92	325.85
702.25	324.49
702.59	323.20
702.92	321.85
703.26	320.49
703.59	319.14
703.93	317.99
704.26	316.80
704.60	315.54
704.93	314.37
705.26	313.09
705.60	311.80
705.93	310.55
706.27	309.32
706.60	308.22
706.94	307.07
707.27	305.92
707.61	304.73
707.94	303.60
708.27	302.18
708.61	300.92
708.94	299.79
709.28	298.60
709.61	297.49
709.94	296.34
710.28	295.24
710.61	294.30
710.95	293.14
711.28	292.11
711.61	291.09
711.95	290.12
712.28	289.13
712.61	288.23
712.95	287.34
713.28	286.49
713.61	285.50
713.95	284.55
714.28	283.69
714.61	282.77
714.95	281.90
715.28	281.10
715.61	280.13
715.95	279.25
716.28	278.38
716.61	277.55
716.95	276.68
717.28	275.86
717.61	275.06
717.94	274.27
718.28	273.40
718.61	272.59
718.94	271.84
719.27	271.12
719.61	270.37
719.94	269.60
720.27	268.77
720.60	268.10
720.94	267.41
721.27	266.72
721.60	266.16
721.93	265.46
722.27	264.90
722.60	264.32
722.93	263.64
723.26	263.01
723.59	262.35
723.93	261.80
724.26	261.21
724.59	260.52
724.92	259.98
725.25	259.46
725.59	258.93
725.92	258.40
726.25	257.82
726.58	257.31
726.91	256.74
727.24	256.27
727.57	255.69
727.91	255.06
728.24	254.58
728.57	254.05
728.90	253.64
729.23	253.06
729.56	252.66
729.89	252.25
730.22	251.80
730.55	251.25
730.89	250.78
731.22	250.37
731.55	249.94
731.88	249.42
732.21	248.91
732.54	248.41
732.87	247.88
733.20	247.43
733.53	246.90
733.86	246.45
734.19	245.95
734.52	245.61
734.85	245.41
735.18	244.87
735.51	244.48
735.84	244.00
736.17	243.66
736.50	243.20
736.83	243.02
737.16	242.70
737.49	242.40
737.82	241.97
738.15	241.55
738.48	241.21
738.81	240.87
739.14	240.51
739.47	240.22
739.80	239.95
740.13	239.69
740.46	239.34
740.79	238.99
741.12	238.66
741.45	238.30
741.78	237.89
742.11	237.69
742.44	237.40
742.77	237.20
743.10	236.89
743.43	236.63
743.75	236.10
744.08	236.03
744.41	235.67
744.74	235.42
745.07	235.09
745.40	234.87
745.73	234.65
746.06	234.39
746.39	234.06
746.71	233.70
747.04	233.42
747.37	233.12
747.70	232.94
748.03	232.70
748.36	232.50
748.68	232.23
749.01	231.89
749.34	231.62
749.67	231.26
750.00	231.06
750.33	230.90
750.65	230.68
750.98	230.12
751.31	229.90
751.64	229.65
751.97	229.59
752.29	229.31
752.62	229.03
752.95	228.78
753.28	228.58
753.60	228.34
753.93	228.15
754.26	227.99
754.59	227.63
754.91	227.43
755.24	227.17
755.57	226.98
755.90	226.78
756.22	226.63
756.55	226.44
756.88	226.15
757.20	225.88
757.53	225.65
757.86	225.46
758.19	225.28
758.51	225.09
758.84	224.74
759.17	224.59
759.49	224.47
759.82	224.35
760.15	224.19
760.47	224.03
760.80	223.80
761.13	223.67
761.45	223.59
761.78	223.41
762.11	223.20
762.43	223.04
762.76	222.95
763.08	222.73
763.41	222.62
763.74	222.50
764.06	222.27
764.39	222.12
764.71	222.09
765.04	221.99
765.37	221.91
765.69	221.81
766.02	221.64
766.34	221.46
766.67	221.32
767.00	221.20
767.32	221.26
767.65	221.24
767.97	221.11
768.30	221.00
768.62	220.86
768.95	220.73
769.27	220.57
769.60	220.46
769.92	220.32
770.25	220.16
770.57	220.06
770.90	219.95
771.22	219.83
771.55	219.68
771.87	219.59
772.20	219.40
772.52	219.48
772.85	219.55
773.17	219.50
773.50	219.36
773.82	219.22
774.15	218.97
774.47	218.76
774.80	218.64
775.12	218.55
775.45	218.52
775.77	218.44
776.09	218.37
776.42	218.29
776.74	218.25
777.07	218.18
777.39	218.06
777.72	217.95
778.04	217.95
778.36	217.84
778.69	217.70
779.01	217.65
779.33	217.39
779.66	217.09
779.98	216.98
780.31	216.92
780.63	217.02
780.95	217.02
781.28	216.97
781.60	216.84
781.92	216.73
782.25	216.62
782.57	216.61
782.89	216.59
783.22	216.53
783.54	216.48
783.86	216.37
784.19	216.31
784.51	216.36
784.83	216.25
785.16	216.24
785.48	216.16
785.80	216.08
786.12	216.03
786.45	216.07
786.77	216.03
787.09	215.99
787.42	215.82
787.74	215.78
788.06	215.77
788.38	215.79
788.71	215.76
789.03	215.75
789.35	215.74
789.67	215.64
789.99	215.54
790.32	215.50
790.64	215.57
790.96	215.71
791.28	215.63
791.61	215.55
791.93	215.52
792.25	215.58
792.57	215.73
792.89	215.74
793.21	215.69
793.54	215.62
793.86	215.58
794.18	215.62
794.50	215.52
794.82	215.46
795.14	215.44
795.47	215.43
795.79	215.41
796.11	215.34
796.43	215.28
796.75	215.31
797.07	215.22
797.39	215.15
797.71	214.95
798.04	214.94
798.36	215.03
798.68	214.94
799.00	214.86
799.32	214.70
799.64	214.64
799.96	214.58
800.28	214.60
800.60	214.52
800.92	214.43
801.24	214.40
801.56	214.41
801.89	214.39
802.21	214.38
802.53	214.34
802.85	214.35
803.17	214.40
803.49	214.34
803.81	214.33
804.13	214.24
804.45	214.17
804.77	214.19
805.09	214.06
805.41	214.08
805.73	214.05
806.05	213.96
806.37	213.96
806.69	213.95
807.01	213.86
807.33	213.88
807.65	213.83
807.97	213.87
808.28	213.81
808.60	213.70
808.92	213.70
809.24	213.73
809.56	213.65
809.88	213.52
810.20	213.53
810.52	213.51
810.84	213.52
811.16	213.55
811.48	213.45
811.80	213.51
812.12	213.47
812.43	213.47
812.75	213.48
813.07	213.38
813.39	213.42
813.71	213.44
814.03	213.35
814.35	213.38
814.67	213.33
814.98	213.29
815.30	213.37
815.62	213.33
815.94	213.17
816.26	213.21
816.58	213.27
816.89	213.25
817.21	213.25
817.53	213.21
817.85	213.22
818.17	213.27
818.48	213.18
818.80	213.10
819.12	213.03
819.44	213.03
819.76	213.11
820.07	213.01
820.39	212.97
820.71	213.05
821.03	212.95
821.34	212.95
821.66	212.95
821.98	212.86
822.30	212.79
822.61	212.97
822.93	212.96
823.25	212.94
823.57	212.88
823.88	212.88
824.20	212.92
824.52	212.92
824.83	212.90
825.15	212.87
825.47	212.90
825.79	212.96
826.10	212.94
826.42	212.86
826.74	212.91
827.05	212.85
827.37	212.79
827.69	212.91
828.00	212.87
828.32	212.91
828.64	212.95
828.95	213.03
829.27	212.95
829.58	212.89
829.90	212.92
830.22	212.98
830.53	212.95
830.85	212.90
831.17	212.80
831.48	212.68
831.80	212.73
832.11	212.70
832.43	212.64
832.75	212.63
833.06	212.69
833.38	212.63
833.69	212.68
834.01	212.69
834.32	212.53
834.64	212.55
834.96	212.51
835.27	212.47
835.59	212.34
835.90	212.27
836.22	212.30
836.53	212.21
836.85	212.12
837.16	212.36
837.48	212.36
837.79	212.44
838.11	212.47
838.42	212.43
838.74	212.42
839.05	212.42
839.37	212.38
839.68	212.33
840.00	212.29
840.31	212.35
840.63	212.30
840.94	212.34
841.26	212.19
841.57	212.11
841.88	212.09
842.20	212.09
842.51	212.03
842.83	211.96
843.14	212.13
843.46	212.21
843.77	212.06
844.08	212.04
844.40	212.00
844.71	212.02
845.03	211.90
845.34	211.93
845.65	211.86
845.97	211.87
846.28	211.77
846.60	211.75
846.91	211.67
847.22	211.64
847.54	211.60
847.85	211.73
848.16	211.75
848.48	211.74
848.79	211.83
849.10	211.91
849.42	211.94
849.73	211.76
850.04	211.65
850.36	211.48
850.67	211.45
850.98	211.47
851.30	211.50
851.61	211.52
851.92	211.53
852.23	211.64
852.55	211.64
852.86	211.73
853.17	211.77
853.49	211.75
853.80	211.76
854.11	211.82
854.42	211.73
854.74	211.70
855.05	211.74
855.36	211.62
855.67	211.59
855.99	211.63
856.30	211.76
856.61	211.78
856.92	211.80
857.23	211.88
857.55	211.83
857.86	211.72
858.17	211.75
858.48	211.62
858.79	211.56
859.11	211.52
859.42	211.46
859.73	211.40
860.04	211.45
860.35	211.39
860.66	211.31
860.98	211.36
861.29	211.35
861.60	211.32
861.91	211.35
862.22	211.27
862.53	211.17
862.84	211.00
863.16	211.00
863.47	210.95
863.78	210.85
864.09	210.85
864.40	210.91
864.71	210.89
865.02	211.00
865.33	210.97
865.64	210.95
865.95	210.95
866.27	211.10
866.58	211.04
866.89	211.13
867.20	211.06
867.51	210.99
867.82	211.02
868.13	211.02
868.44	211.03
868.75	211.04
869.06	211.07
869.37	211.05
869.68	211.12
869.99	211.12
870.30	211.17
870.61	211.16
870.92	211.15
871.23	211.21
871.54	211.19
871.85	211.25
872.16	211.33
872.47	211.32
872.78	211.17
873.09	211.29
873.40	211.24
873.71	211.32
874.02	211.27
874.33	211.30
874.64	211.26
874.95	211.33
875.26	211.33
875.56	211.30
875.87	211.31
876.18	211.22
876.49	211.40
876.80	211.39
877.11	211.34
877.42	211.36
877.73	211.39
878.04	211.34
878.35	211.38
878.66	211.34
878.96	211.39
879.27	211.44
879.58	211.36
879.89	211.38
880.20	211.46
880.51	211.51
880.82	211.48
881.12	211.54
881.43	211.41
881.74	211.41
882.05	211.45
882.36	211.44
882.67	211.47
882.97	211.34
883.28	211.34
883.59	211.37
883.90	211.32
884.21	211.27
884.51	211.37
884.82	211.27
885.13	211.32
885.44	211.35
885.74	211.37
886.05	211.29
886.36	211.36
886.67	211.33
886.98	211.44
887.28	211.47
887.59	211.44
887.90	211.46
888.20	211.50
888.51	211.51
888.82	211.48
889.13	211.48
889.43	211.64
889.74	211.67
890.05	211.68
890.35	211.73
890.66	211.76
890.97	211.73
891.28	211.77
891.58	211.76
891.89	211.65
892.20	211.56
892.50	211.61
892.81	211.52
893.12	211.48
893.42	211.44
893.73	211.39
894.04	211.42
894.34	211.43
894.65	211.41
894.95	211.40
895.26	211.47
895.57	211.60
895.87	211.34
896.18	211.29
896.48	211.26
896.79	211.23
897.10	211.16
897.40	211.07
897.71	211.00
898.01	210.94
898.32	211.02
898.63	211.05
898.93	211.11
899.24	211.12
899.54	211.09
899.85	211.11
900.15	211.09
900.46	211.06
900.76	211.10
901.07	211.08
901.38	211.05
901.68	211.10
901.99	210.98
902.29	211.10
902.60	211.08
902.90	211.05
903.21	211.09
903.51	211.10
903.82	211.23
904.12	211.27
904.43	211.36
904.73	211.34
905.03	211.31
905.34	211.46
905.64	211.40
905.95	211.44
906.25	211.42
906.56	211.43
906.86	211.48
907.17	211.45
907.47	211.52
907.77	211.48
908.08	211.41
908.38	211.42
908.69	211.36
908.99	211.48
909.30	211.58
909.60	211.54
909.90	211.50
910.21	211.47
910.51	211.43
910.81	211.38
911.12	211.39
911.42	211.39
911.73	211.22
912.03	211.23
912.33	211.28
912.64	211.27
912.94	211.31
913.24	211.25
913.55	211.24
913.85	211.14
914.15	211.20
914.46	211.26
914.76	211.26
915.06	211.29
915.37	211.23
915.67	211.06
915.97	211.05
916.27	211.09
916.58	211.01
916.88	211.00
917.18	210.94
917.49	211.11
917.79	211.14
918.09	211.16
918.39	211.27
918.70	211.27
919.00	211.21
919.30	211.22
919.60	211.24
919.91	211.25
920.21	211.27
920.51	211.20
920.81	211.19
921.12	211.20
921.42	211.21
921.72	211.21
922.02	211.34
922.32	211.41
922.63	211.36
922.93	211.55
923.23	211.61
923.53	211.59
923.83	211.39
924.13	211.39
924.44	211.38
924.74	211.41
925.04	211.39
925.34	211.39
925.64	211.40
925.94	211.39
926.24	211.48
926.55	211.49
926.85	211.54
927.15	211.55
927.45	211.57
927.75	211.60
928.05	211.63
928.35	211.70
928.65	211.64
928.95	211.64
929.26	211.57
929.56	211.56
929.86	211.59
930.16	211.59
930.46	211.59
930.76	211.52
931.06	211.42
931.36	211.36
931.66	211.41
931.96	211.35
932.26	211.42
932.56	211.37
932.86	211.39
933.16	211.38
933.46	211.35
933.76	211.24
934.06	211.23
934.36	211.27
934.66	211.11
934.96	211.12
935.26	211.18
935.56	211.14
935.86	211.08
936.16	211.05
936.46	211.04
936.76	211.06
937.06	211.16
937.36	211.07
937.66	211.12
937.96	211.06
938.26	211.07
938.56	210.98
938.86	210.95
939.16	210.94
939.46	210.98
939.76	210.97
940.06	211.00
940.35	210.98
940.65	210.83
940.95	210.89
941.25	210.78
941.55	210.79
941.85	210.81
942.15	210.87
942.45	210.92
942.75	210.91
943.04	210.87
943.34	210.73
943.64	210.73
943.94	210.69
944.24	210.66
944.54	210.59
944.84	210.63
945.13	210.63
945.43	210.60
945.73	210.57
946.03	210.53
946.33	210.48
946.62	210.47
946.92	210.51
947.22	210.52
947.52	210.56
947.82	210.56
948.11	210.50
948.41	210.39
948.71	210.34
949.01	210.37
949.31	210.36
949.60	210.38
949.90	210.41
950.20	210.38
950.50	210.43
950.79	210.48
951.09	210.52
951.39	210.43
951.69	210.40
951.98	210.43
952.28	210.49
952.58	210.57
952.87	210.48
953.17	210.48
953.47	210.48
953.76	210.52
954.06	210.51
954.36	210.53
954.66	210.57
954.95	210.58
955.25	210.64
955.55	210.64
955.84	210.67
956.14	210.79
956.44	210.85
956.73	210.76
957.03	210.79
957.32	210.76
957.62	210.76
957.92	210.85
958.21	210.80
958.51	210.96
958.81	210.92
959.10	210.95
959.40	211.01
959.69	211.05
959.99	211.13
960.29	211.08
960.58	211.04
960.88	211.17
961.17	211.18
961.47	211.14
961.76	211.15
962.06	211.16
962.36	211.10
962.65	211.13
962.95	211.21
963.24	211.13
963.54	211.12
963.83	211.18
964.13	211.16
964.42	211.13
964.72	211.01
965.01	211.02
965.31	211.00
965.60	210.90
965.90	210.97
966.19	210.89
966.49	210.94
966.78	210.92
967.08	210.90
967.37	210.93
967.67	210.95
967.96	211.06
968.26	211.05
968.55	211.05
968.85	211.06
969.14	210.99
969.43	211.04
969.73	211.08
970.02	211.04
970.32	211.03
970.61	211.04
970.91	210.92
971.20	210.87
971.49	210.87
971.79	210.98
972.08	210.85
972.38	210.90
972.67	210.88
972.96	210.97
973.26	210.85
973.55	210.96
973.85	210.95
974.14	210.88
974.43	210.89
974.73	210.85
975.02	210.79
975.31	210.78
975.61	210.78
975.90	210.77
976.19	210.78
976.49	210.77
976.78	210.76
977.07	210.73
977.37	210.79
977.66	210.88
977.95	210.79
978.24	210.80
978.54	210.79
978.83	210.75
979.12	210.71
979.42	210.74
979.71	210.59
980.00	210.58
980.29	210.60
980.59	210.52
980.88	210.57
981.17	210.59
981.46	210.65
981.76	210.67
982.05	210.68
982.34	210.76
982.63	210.75
982.93	210.78
983.22	210.91
983.51	210.90
983.80	210.93
984.09	211.00
984.39	211.04
984.68	211.07
984.97	211.14
985.26	211.11
985.55	211.14
985.85	211.16
986.14	211.17
986.43	211.19
986.72	211.20
987.01	211.17
987.30	211.12
987.59	211.12
987.89	211.06
988.18	211.02
988.47	211.04
988.76	211.08
989.05	211.04
989.34	210.95
989.63	211.01
989.92	211.00
990.22	210.97
990.51	210.89
990.80	210.78
991.09	210.80
991.38	210.88
991.67	210.84
991.96	210.81
992.25	210.75
992.54	210.69
992.83	210.74
993.12	210.72
993.41	210.72
993.70	210.85
993.99	210.91
994.28	210.90
994.58	210.82
994.87	210.82
995.16	210.82
995.45	210.88
995.74	210.78
996.03	210.82
996.32	210.83
996.61	210.92
996.90	210.93
997.19	210.86
997.48	210.79
997.77	210.82
998.06	210.86
998.34	210.95
998.63	210.95
998.92	210.96
999.21	211.06
999.50	211.06
999.79	211.00
1000.08	211.05
1000.37	211.14
1000.66	211.20
1000.95	211.20
1001.24	211.26
1001.53	211.28
1001.82	211.35
1002.11	211.27
1002.40	211.27
1002.68	211.31
1002.97	211.46
1003.26	211.47
1003.55	211.50
1003.84	211.48
1004.13	211.46
1004.42	211.34
1004.71	211.34
1004.99	211.29
1005.28	211.29
1005.57	211.32
1005.86	211.29
1006.15	211.19
1006.44	211.04
1006.72	210.96
1007.01	210.89
1007.30	210.78
1007.59	210.75
1007.88	210.72
1008.17	210.72
1008.45	210.68
1008.74	210.62
1009.03	210.61
1009.32	210.67
1009.60	210.64
1009.89	210.63
1010.18	210.64
1010.47	210.63
1010.76	210.65
1011.04	210.67
1011.33	210.65
1011.62	210.79
1011.91	210.80
1012.19	210.88
1012.48	210.98
1012.77	211.01
1013.05	211.08
1013.34	211.19
1013.63	211.17
1013.92	211.22
1014.20	211.25
1014.49	211.31
1014.78	211.31
1015.06	211.26
1015.35	211.21
1015.64	211.22
1015.92	211.35
1016.21	211.35
1016.50	211.39
1016.78	211.45
1017.07	211.48
1017.36	211.43
1017.64	211.25
1017.93	211.23
1018.22	211.19
1018.50	211.13
1018.79	211.17
1019.08	211.09
1019.36	211.05
1019.65	211.00
1019.93	210.98
1020.22	211.05
1020.51	211.14
1020.79	211.08
1021.08	210.50
1021.36	210.45
1021.65	212.00
1021.94	209.90
1022.22	210.80
1022.51	209.70
1022.79	211.30
1023.08	212.25
1023.36	213.80
1023.65	210.00
>>>>>End Processed Spectral Data<<<<<
