SpectraSuite Data File
++++++++++++++++++++++++++++++++++++
Date: Mon Feb 25 17:35:40 EST 2013
User: group
Dark Spectrum Present: No
Reference Spectrum Present: No
Number of Sampled Component Spectra: 1
Spectrometers: USB2E7196
Integration Time (usec): 52000 (USB2E7196)
Spectra Averaged: 20 (USB2E7196)
Boxcar Smoothing: 10 (USB2E7196)
Correct for Electrical Dark: No (USB2E7196)
Strobe/Lamp Enabled: No (USB2E7196)
Correct for Detector Non-linearity: No (USB2E7196)
Correct for Stray Light: No (USB2E7196)
Number of Pixels in Processed Spectrum: 2048
>>>>>Begin Processed Spectral Data<<<<<
339.09	0.00
339.48	199.05
339.86	199.90
340.24	203.00
340.63	202.65
341.01	206.60
341.39	206.35
341.78	207.25
342.16	207.70
342.54	210.00
342.93	197.96
343.31	207.98
343.69	208.50
344.07	208.98
344.46	209.31
344.84	209.72
345.22	209.90
345.60	210.11
345.99	210.29
346.37	210.46
346.75	210.45
347.13	210.44
347.52	210.54
347.90	210.65
348.28	210.64
348.66	210.77
349.05	210.79
349.43	210.77
349.81	210.92
350.19	210.95
350.57	211.09
350.96	211.11
351.34	211.15
351.72	211.22
352.10	211.33
352.48	211.45
352.87	211.55
353.25	211.63
353.63	211.72
354.01	211.78
354.39	211.81
354.77	211.91
355.15	212.08
355.54	212.07
355.92	212.00
356.30	212.05
356.68	212.21
357.06	212.27
357.44	212.40
357.82	212.35
358.20	212.45
358.58	212.51
358.97	212.60
359.35	212.68
359.73	212.73
360.11	212.73
360.49	212.79
360.87	212.75
361.25	212.81
361.63	212.88
362.01	212.94
362.39	213.01
362.77	213.06
363.15	213.12
363.53	213.20
363.91	213.31
364.29	213.41
364.67	213.26
365.05	213.33
365.43	213.31
365.81	213.49
366.19	213.60
366.57	213.72
366.95	213.71
367.33	213.75
367.71	213.82
368.09	213.90
368.47	213.85
368.85	213.88
369.23	213.93
369.61	213.89
369.99	213.92
370.37	213.90
370.75	214.02
371.13	213.93
371.51	213.85
371.89	213.86
372.27	213.84
372.65	213.87
373.03	213.80
373.41	213.79
373.78	213.74
374.16	213.64
374.54	213.52
374.92	213.51
375.30	213.40
375.68	213.28
376.06	213.25
376.44	213.30
376.82	213.25
377.19	213.18
377.57	213.16
377.95	213.05
378.33	213.02
378.71	212.93
379.09	212.99
379.47	212.98
379.84	212.92
380.22	212.80
380.60	212.70
380.98	212.65
381.36	212.63
381.73	212.54
382.11	212.54
382.49	212.44
382.87	212.39
383.25	212.43
383.62	212.62
384.00	212.56
384.38	212.46
384.76	212.43
385.13	212.46
385.51	212.39
385.89	212.37
386.27	212.28
386.64	212.16
387.02	212.05
387.40	212.02
387.78	212.06
388.15	212.10
388.53	212.09
388.91	212.04
389.29	212.00
389.66	211.98
390.04	211.85
390.42	211.84
390.79	211.80
391.17	211.73
391.55	211.53
391.92	211.41
392.30	211.45
392.68	211.50
393.05	211.52
393.43	211.50
393.81	211.47
394.18	211.47
394.56	211.54
394.94	211.57
395.31	211.52
395.69	211.47
396.06	211.51
396.44	211.53
396.82	211.54
397.19	211.60
397.57	211.59
397.95	211.66
398.32	211.65
398.70	211.67
399.07	211.79
399.45	211.81
399.82	211.89
400.20	211.88
400.58	211.86
400.95	211.80
401.33	211.87
401.70	212.04
402.08	212.12
402.45	212.20
402.83	212.37
403.20	212.47
403.58	212.53
403.95	212.62
404.33	212.80
404.71	212.93
405.08	213.17
405.46	213.32
405.83	213.50
406.21	213.68
406.58	213.89
406.96	214.04
407.33	214.19
407.70	214.40
408.08	214.74
408.45	215.02
408.83	215.26
409.20	215.45
409.58	215.69
409.95	216.08
410.33	216.29
410.70	216.52
411.08	216.88
411.45	217.28
411.82	217.55
412.20	217.97
412.57	218.51
412.95	218.73
413.32	219.22
413.69	219.76
414.07	220.30
414.44	220.85
414.82	221.47
415.19	222.26
415.56	223.00
415.94	223.76
416.31	224.67
416.68	225.62
417.06	226.70
417.43	227.69
417.81	228.70
418.18	229.91
418.55	231.07
418.93	232.38
419.30	233.68
419.67	235.13
420.04	236.50
420.42	237.95
420.79	239.86
421.16	241.62
421.54	243.44
421.91	245.28
422.28	247.22
422.66	249.31
423.03	251.43
423.40	253.60
423.77	255.85
424.15	258.03
424.52	260.35
424.89	262.95
425.26	265.47
425.64	267.83
426.01	270.43
426.38	273.23
426.75	275.95
427.13	278.76
427.50	281.75
427.87	284.82
428.24	287.90
428.61	290.82
428.99	294.03
429.36	297.52
429.73	300.98
430.10	304.48
430.47	307.96
430.85	311.53
431.22	315.40
431.59	319.53
431.96	323.53
432.33	327.91
432.70	332.06
433.08	336.96
433.45	341.66
433.82	346.27
434.19	351.27
434.56	356.29
434.93	361.11
435.30	365.88
435.68	371.16
436.05	376.49
436.42	381.67
436.79	386.45
437.16	391.58
437.53	397.02
437.90	402.38
438.27	407.64
438.64	413.11
439.01	418.10
439.38	422.50
439.75	426.79
440.13	431.68
440.50	436.31
440.87	439.96
441.24	443.96
441.61	448.17
441.98	451.31
442.35	455.05
442.72	458.85
443.09	462.41
443.46	464.65
443.83	466.06
444.20	467.19
444.57	468.92
444.94	469.66
445.31	470.50
445.68	471.15
446.05	471.41
446.42	470.75
446.79	470.00
447.16	469.24
447.53	468.58
447.90	466.44
448.27	464.42
448.64	461.59
449.01	459.38
449.37	455.79
449.74	452.30
450.11	448.08
450.48	443.50
450.85	438.89
451.22	434.85
451.59	430.95
451.96	427.40
452.33	422.66
452.70	418.33
453.07	413.12
453.43	407.88
453.80	402.77
454.17	397.99
454.54	393.42
454.91	388.51
455.28	383.80
455.65	379.40
456.02	374.87
456.38	371.12
456.75	366.37
457.12	362.35
457.49	358.49
457.86	354.74
458.23	351.45
458.59	347.91
458.96	344.31
459.33	341.12
459.70	337.94
460.07	335.33
460.43	332.43
460.80	329.69
461.17	327.28
461.54	324.88
461.91	322.50
462.27	320.04
462.64	317.88
463.01	315.64
463.38	313.37
463.74	311.08
464.11	309.14
464.48	307.59
464.85	305.91
465.21	304.61
465.58	303.15
465.95	301.39
466.32	299.97
466.68	298.52
467.05	297.15
467.42	295.69
467.78	294.17
468.15	292.83
468.52	291.86
468.88	290.54
469.25	289.34
469.62	288.37
469.98	287.42
470.35	286.60
470.72	285.73
471.08	284.84
471.45	284.21
471.82	283.38
472.18	282.36
472.55	281.75
472.92	280.97
473.28	280.31
473.65	279.75
474.02	279.22
474.38	278.83
474.75	278.47
475.11	278.12
475.48	277.95
475.85	277.61
476.21	277.37
476.58	277.26
476.94	277.18
477.31	277.15
477.67	277.02
478.04	277.02
478.41	277.06
478.77	277.41
479.14	277.46
479.50	277.74
479.87	278.16
480.23	278.48
480.60	278.90
480.96	279.35
481.33	280.04
481.69	280.60
482.06	281.14
482.42	281.74
482.79	282.38
483.15	283.23
483.52	284.19
483.88	285.11
484.25	286.16
484.61	287.22
484.98	288.28
485.34	289.61
485.71	290.95
486.07	292.36
486.44	293.58
486.80	295.18
487.17	296.72
487.53	298.50
487.90	300.32
488.26	302.24
488.62	304.36
488.99	306.30
489.35	308.43
489.72	310.82
490.08	313.20
490.44	315.81
490.81	318.44
491.17	321.28
491.54	324.23
491.90	327.29
492.26	330.52
492.63	333.82
492.99	337.31
493.36	340.87
493.72	344.71
494.08	348.75
494.45	352.97
494.81	357.48
495.17	362.09
495.54	366.99
495.90	372.00
496.26	377.08
496.63	382.69
496.99	388.54
497.35	394.42
497.72	400.71
498.08	407.18
498.44	413.96
498.80	421.10
499.17	428.48
499.53	436.05
499.89	444.10
500.26	452.30
500.62	460.67
500.98	469.60
501.34	478.84
501.71	488.28
502.07	497.96
502.43	508.05
502.79	518.18
503.16	529.10
503.52	540.09
503.88	551.43
504.24	563.03
504.60	574.88
504.97	587.33
505.33	599.98
505.69	613.29
506.05	626.70
506.41	640.28
506.78	654.12
507.14	668.40
507.50	682.91
507.86	697.80
508.22	713.19
508.59	728.73
508.95	744.73
509.31	761.16
509.67	777.83
510.03	794.75
510.39	812.40
510.75	830.06
511.12	848.40
511.48	866.87
511.84	885.58
512.20	904.27
512.56	923.49
512.92	943.04
513.28	962.73
513.64	982.52
514.00	1002.53
514.37	1023.02
514.73	1043.62
515.09	1064.58
515.45	1085.67
515.81	1106.83
516.17	1128.17
516.53	1149.58
516.89	1171.18
517.25	1193.01
517.61	1214.76
517.97	1236.43
518.33	1258.00
518.69	1279.58
519.05	1301.76
519.41	1324.09
519.77	1346.84
520.13	1369.24
520.49	1391.59
520.85	1414.23
521.21	1437.16
521.57	1460.26
521.93	1482.44
522.29	1505.49
522.65	1528.30
523.01	1550.90
523.37	1573.23
523.73	1595.85
524.09	1618.31
524.45	1640.85
524.81	1663.36
525.17	1686.17
525.53	1709.00
525.89	1731.56
526.25	1754.09
526.61	1775.54
526.97	1797.50
527.33	1818.97
527.68	1840.65
528.04	1861.91
528.40	1882.65
528.76	1903.49
529.12	1924.58
529.48	1946.53
529.84	1967.28
530.20	1987.94
530.56	2008.80
530.91	2029.84
531.27	2050.54
531.63	2070.93
531.99	2090.97
532.35	2110.39
532.71	2129.13
533.07	2148.80
533.42	2167.48
533.78	2186.60
534.14	2205.48
534.50	2222.43
534.86	2240.68
535.21	2257.61
535.57	2275.82
535.93	2293.50
536.29	2310.45
536.65	2327.12
537.00	2342.62
537.36	2358.11
537.72	2373.36
538.08	2388.83
538.44	2404.44
538.79	2419.71
539.15	2434.48
539.51	2449.31
539.87	2464.76
540.22	2479.88
540.58	2494.90
540.94	2509.66
541.29	2522.65
541.65	2535.01
542.01	2548.70
542.37	2561.12
542.72	2573.66
543.08	2584.67
543.44	2596.37
543.79	2607.10
544.15	2617.73
544.51	2629.42
544.87	2640.73
545.22	2650.03
545.58	2658.51
545.94	2665.71
546.29	2672.62
546.65	2679.63
547.01	2685.97
547.36	2691.77
547.72	2697.47
548.07	2701.64
548.43	2705.67
548.79	2709.75
549.14	2714.92
549.50	2719.84
549.86	2723.72
550.21	2727.94
550.57	2732.32
550.92	2735.38
551.28	2738.31
551.64	2741.19
551.99	2743.59
552.35	2745.42
552.70	2748.39
553.06	2751.54
553.41	2754.98
553.77	2758.23
554.13	2760.20
554.48	2762.36
554.84	2763.86
555.19	2764.83
555.55	2765.46
555.90	2766.38
556.26	2767.29
556.61	2767.05
556.97	2765.83
557.32	2765.67
557.68	2764.16
558.03	2762.64
558.39	2761.51
558.74	2760.94
559.10	2759.79
559.45	2758.08
559.81	2757.00
560.16	2754.64
560.52	2752.53
560.87	2749.60
561.23	2745.98
561.58	2743.94
561.94	2740.99
562.29	2737.71
562.64	2735.56
563.00	2733.14
563.35	2730.85
563.71	2729.20
564.06	2727.42
564.42	2725.75
564.77	2723.60
565.12	2721.84
565.48	2718.79
565.83	2715.66
566.19	2712.66
566.54	2707.99
566.89	2703.97
567.25	2700.21
567.60	2696.86
567.96	2693.11
568.31	2689.69
568.66	2685.85
569.02	2681.38
569.37	2676.15
569.72	2672.08
570.08	2666.64
570.43	2660.90
570.78	2655.14
571.14	2648.54
571.49	2641.89
571.84	2635.76
572.20	2628.82
572.55	2622.53
572.90	2615.79
573.26	2608.65
573.61	2601.26
573.96	2595.07
574.31	2587.49
574.67	2579.08
575.02	2570.55
575.37	2561.71
575.72	2552.78
576.08	2544.71
576.43	2535.48
576.78	2527.58
577.13	2519.53
577.49	2510.89
577.84	2503.45
578.19	2495.62
578.54	2487.94
578.90	2480.68
579.25	2471.74
579.60	2462.35
579.95	2452.61
580.30	2444.88
580.66	2436.70
581.01	2427.77
581.36	2418.10
581.71	2409.62
582.06	2401.26
582.42	2392.80
582.77	2383.78
583.12	2374.53
583.47	2366.31
583.82	2358.25
584.17	2348.88
584.53	2339.55
584.88	2331.23
585.23	2321.51
585.58	2311.94
585.93	2302.42
586.28	2292.95
586.63	2284.07
586.98	2275.63
587.34	2267.25
587.69	2257.52
588.04	2248.27
588.39	2239.83
588.74	2230.78
589.09	2221.83
589.44	2212.02
589.79	2203.70
590.14	2195.62
590.49	2187.17
590.84	2177.74
591.19	2169.62
591.54	2160.76
591.89	2150.58
592.25	2140.98
592.60	2131.53
592.95	2122.25
593.30	2112.67
593.65	2102.81
594.00	2093.08
594.35	2084.68
594.70	2075.17
595.05	2066.47
595.40	2057.62
595.75	2047.75
596.10	2039.63
596.45	2030.87
596.80	2023.16
597.15	2014.54
597.50	2005.21
597.85	1996.72
598.19	1987.84
598.54	1978.90
598.89	1971.33
599.24	1964.76
599.59	1957.37
599.94	1950.20
600.29	1942.19
600.64	1934.10
600.99	1925.85
601.34	1918.61
601.69	1909.73
602.04	1901.64
602.39	1893.22
602.74	1885.03
603.08	1878.47
603.43	1871.13
603.78	1862.90
604.13	1854.80
604.48	1846.48
604.83	1839.20
605.18	1831.94
605.53	1824.08
605.87	1816.50
606.22	1808.96
606.57	1800.76
606.92	1792.24
607.27	1783.98
607.62	1776.46
607.96	1769.25
608.31	1762.99
608.66	1754.85
609.01	1747.13
609.36	1739.38
609.70	1731.47
610.05	1723.46
610.40	1714.87
610.75	1706.10
611.10	1698.44
611.44	1688.75
611.79	1679.64
612.14	1670.35
612.49	1660.70
612.83	1651.98
613.18	1641.92
613.53	1632.47
613.88	1622.58
614.22	1613.90
614.57	1604.39
614.92	1594.68
615.27	1585.53
615.61	1575.39
615.96	1566.31
616.31	1557.65
616.65	1549.78
617.00	1541.36
617.35	1532.73
617.70	1523.66
618.04	1514.61
618.39	1505.22
618.74	1497.05
619.08	1488.64
619.43	1480.54
619.78	1472.83
620.12	1464.44
620.47	1456.74
620.82	1448.14
621.16	1440.04
621.51	1431.28
621.85	1423.07
622.20	1414.83
622.55	1405.99
622.89	1397.61
623.24	1389.62
623.59	1381.01
623.93	1372.09
624.28	1363.19
624.62	1355.17
624.97	1346.78
625.32	1338.67
625.66	1330.93
626.01	1323.48
626.35	1316.01
626.70	1307.86
627.04	1300.08
627.39	1292.54
627.73	1284.63
628.08	1277.34
628.43	1269.65
628.77	1262.04
629.12	1254.70
629.46	1247.71
629.81	1240.46
630.15	1233.24
630.50	1225.64
630.84	1218.32
631.19	1210.95
631.53	1204.60
631.88	1196.71
632.22	1189.28
632.57	1182.41
632.91	1175.01
633.26	1167.51
633.60	1160.18
633.95	1153.64
634.29	1146.18
634.64	1139.37
634.98	1132.21
635.32	1125.31
635.67	1118.77
636.01	1112.24
636.36	1105.32
636.70	1098.81
637.05	1092.08
637.39	1085.55
637.73	1079.24
638.08	1073.33
638.42	1067.28
638.77	1060.49
639.11	1054.13
639.45	1048.01
639.80	1041.42
640.14	1034.89
640.49	1028.57
640.83	1022.35
641.17	1015.68
641.52	1009.50
641.86	1003.02
642.20	996.74
642.55	989.73
642.89	983.27
643.23	976.85
643.58	970.88
643.92	964.15
644.26	958.05
644.61	951.82
644.95	945.58
645.29	939.03
645.64	932.48
645.98	926.21
646.32	920.36
646.66	914.12
647.01	908.01
647.35	902.15
647.69	895.60
648.04	889.60
648.38	883.54
648.72	877.36
649.06	871.15
649.41	865.25
649.75	859.46
650.09	853.60
650.43	847.69
650.78	841.41
651.12	835.17
651.46	829.26
651.80	823.33
652.14	817.31
652.49	811.40
652.83	805.60
653.17	799.52
653.51	793.61
653.85	787.98
654.20	782.07
654.54	776.25
654.88	770.93
655.22	765.02
655.56	759.09
655.90	753.28
656.25	747.61
656.59	742.07
656.93	736.88
657.27	731.65
657.61	725.99
657.95	720.79
658.29	715.89
658.64	710.78
658.98	705.38
659.32	700.09
659.66	694.86
660.00	689.35
660.34	684.20
660.68	678.91
661.02	673.71
661.36	668.93
661.70	663.84
662.05	659.14
662.39	654.56
662.73	650.05
663.07	645.73
663.41	641.28
663.75	636.58
664.09	631.96
664.43	627.04
664.77	622.68
665.11	618.23
665.45	613.77
665.79	609.29
666.13	605.00
666.47	600.79
666.81	596.67
667.15	592.65
667.49	588.79
667.83	584.94
668.17	581.10
668.51	577.34
668.85	573.73
669.19	569.88
669.53	565.99
669.87	562.08
670.21	558.23
670.55	554.30
670.89	550.93
671.23	547.54
671.57	543.94
671.91	540.33
672.25	536.70
672.58	533.18
672.92	529.60
673.26	526.39
673.60	523.09
673.94	519.67
674.28	516.32
674.62	513.06
674.96	509.74
675.30	506.57
675.64	503.31
675.97	500.04
676.31	496.92
676.65	493.93
676.99	491.22
677.33	488.30
677.67	485.32
678.01	482.15
678.34	479.06
678.68	476.26
679.02	473.32
679.36	470.50
679.70	467.60
680.04	464.69
680.37	461.55
680.71	458.54
681.05	455.89
681.39	453.25
681.73	450.51
682.06	447.94
682.40	445.26
682.74	442.59
683.08	440.00
683.42	437.40
683.75	434.81
684.09	432.10
684.43	429.55
684.77	426.97
685.10	424.48
685.44	421.91
685.78	419.46
686.12	417.20
686.45	414.82
686.79	412.49
687.13	410.37
687.46	408.30
687.80	406.20
688.14	403.77
688.48	401.63
688.81	399.31
689.15	397.17
689.49	395.04
689.82	392.84
690.16	390.47
690.50	388.14
690.83	385.83
691.17	383.57
691.51	381.30
691.84	379.27
692.18	377.22
692.52	375.33
692.85	373.38
693.19	371.47
693.52	369.41
693.86	367.44
694.20	365.44
694.53	363.51
694.87	361.55
695.21	359.74
695.54	357.74
695.88	355.81
696.21	353.83
696.55	352.05
696.88	350.22
697.22	348.53
697.56	346.95
697.89	345.40
698.23	343.69
698.56	341.99
698.90	340.46
699.23	338.82
699.57	337.12
699.90	335.52
700.24	333.75
700.58	332.15
700.91	330.54
701.25	329.08
701.58	327.62
701.92	326.19
702.25	324.76
702.59	323.36
702.92	322.03
703.26	320.70
703.59	319.29
703.93	318.16
704.26	316.86
704.60	315.52
704.93	314.10
705.26	312.90
705.60	311.70
705.93	310.41
706.27	309.19
706.60	308.02
706.94	306.88
707.27	305.65
707.61	304.52
707.94	303.52
708.27	302.31
708.61	301.13
708.94	299.84
709.28	298.62
709.61	297.43
709.94	296.31
710.28	295.25
710.61	294.27
710.95	293.00
711.28	292.12
711.61	291.14
711.95	290.24
712.28	289.20
712.61	288.23
712.95	287.35
713.28	286.48
713.61	285.49
713.95	284.48
714.28	283.73
714.61	282.83
714.95	281.82
715.28	280.89
715.61	279.96
715.95	279.10
716.28	278.27
716.61	277.52
716.95	276.77
717.28	275.92
717.61	275.09
717.94	274.31
718.28	273.38
718.61	272.55
718.94	271.74
719.27	271.08
719.61	270.37
719.94	269.59
720.27	268.72
720.60	268.06
720.94	267.32
721.27	266.61
721.60	266.04
721.93	265.45
722.27	264.85
722.60	264.23
722.93	263.65
723.26	263.07
723.59	262.41
723.93	261.86
724.26	261.34
724.59	260.69
724.92	260.15
725.25	259.68
725.59	259.14
725.92	258.58
726.25	258.07
726.58	257.46
726.91	256.93
727.24	256.43
727.57	255.87
727.91	255.39
728.24	254.90
728.57	254.32
728.90	253.84
729.23	253.30
729.56	252.97
729.89	252.46
730.22	252.02
730.55	251.61
730.89	251.09
731.22	250.55
731.55	250.04
731.88	249.61
732.21	249.15
732.54	248.62
732.87	248.20
733.20	247.69
733.53	247.32
733.86	246.88
734.19	246.50
734.52	246.15
734.85	245.85
735.18	245.40
735.51	245.11
735.84	244.71
736.17	244.42
736.50	243.91
736.83	243.72
737.16	243.30
737.49	242.88
737.82	242.54
738.15	242.23
738.48	241.93
738.81	241.52
739.14	241.12
739.47	240.83
739.80	240.48
740.13	240.10
740.46	239.73
740.79	239.30
741.12	238.93
741.45	238.61
741.78	238.22
742.11	237.92
742.44	237.51
742.77	237.20
743.10	236.86
743.43	236.50
743.75	236.03
744.08	235.96
744.41	235.67
744.74	235.36
745.07	235.03
745.40	234.71
745.73	234.49
746.06	234.12
746.39	233.78
746.71	233.50
747.04	233.27
747.37	233.04
747.70	232.90
748.03	232.67
748.36	232.40
748.68	232.19
749.01	231.87
749.34	231.59
749.67	231.38
750.00	231.12
750.33	231.06
750.65	230.78
750.98	230.35
751.31	230.09
751.64	229.89
751.97	229.68
752.29	229.47
752.62	229.19
752.95	229.00
753.28	228.86
753.60	228.66
753.93	228.49
754.26	228.33
754.59	228.04
754.91	227.75
755.24	227.53
755.57	227.25
755.90	227.07
756.22	226.91
756.55	226.64
756.88	226.39
757.20	226.05
757.53	225.87
757.86	225.56
758.19	225.44
758.51	225.23
758.84	225.07
759.17	224.87
759.49	224.68
759.82	224.59
760.15	224.47
760.47	224.35
760.80	224.18
761.13	224.03
761.45	223.91
761.78	223.78
762.11	223.66
762.43	223.59
762.76	223.43
763.08	223.29
763.41	223.21
763.74	223.12
764.06	222.96
764.39	222.84
764.71	222.81
765.04	222.63
765.37	222.54
765.69	222.36
766.02	222.23
766.34	222.09
766.67	221.88
767.00	221.66
767.32	221.61
767.65	221.49
767.97	221.25
768.30	221.12
768.62	221.07
768.95	220.89
769.27	220.74
769.60	220.70
769.92	220.57
770.25	220.40
770.57	220.20
770.90	220.17
771.22	220.03
771.55	219.91
771.87	219.74
772.20	219.58
772.52	219.62
772.85	219.75
773.17	219.68
773.50	219.64
773.82	219.61
774.15	219.46
774.47	219.36
774.80	219.34
775.12	219.24
775.45	219.11
775.77	219.04
776.09	218.85
776.42	218.75
776.74	218.71
777.07	218.60
777.39	218.55
777.72	218.42
778.04	218.39
778.36	218.32
778.69	218.26
779.01	218.31
779.33	218.08
779.66	217.83
779.98	217.80
780.31	217.73
780.63	217.72
780.95	217.60
781.28	217.47
781.60	217.45
781.92	217.41
782.25	217.31
782.57	217.26
782.89	217.31
783.22	217.25
783.54	217.12
783.86	217.06
784.19	217.07
784.51	217.13
784.83	217.05
785.16	216.97
785.48	216.99
785.80	216.75
786.12	216.76
786.45	216.67
786.77	216.53
787.09	216.45
787.42	216.30
787.74	216.26
788.06	216.21
788.38	216.10
788.71	215.96
789.03	215.97
789.35	215.95
789.67	215.84
789.99	215.73
790.32	215.64
790.64	215.60
790.96	215.61
791.28	215.41
791.61	215.34
791.93	215.32
792.25	215.27
792.57	215.42
792.89	215.34
793.21	215.28
793.54	215.21
793.86	215.14
794.18	215.15
794.50	215.03
794.82	214.95
795.14	214.92
795.47	214.87
795.79	214.80
796.11	214.65
796.43	214.60
796.75	214.58
797.07	214.65
797.39	214.58
797.71	214.46
798.04	214.48
798.36	214.45
798.68	214.38
799.00	214.32
799.32	214.20
799.64	214.11
799.96	214.10
800.28	214.16
800.60	214.09
800.92	213.96
801.24	213.92
801.56	213.94
801.89	213.85
802.21	213.83
802.53	213.77
802.85	213.79
803.17	213.89
803.49	213.89
803.81	213.80
804.13	213.82
804.45	213.73
804.77	213.67
805.09	213.63
805.41	213.62
805.73	213.56
806.05	213.52
806.37	213.49
806.69	213.43
807.01	213.36
807.33	213.42
807.65	213.32
807.97	213.45
808.28	213.39
808.60	213.44
808.92	213.37
809.24	213.47
809.56	213.45
809.88	213.28
810.20	213.25
810.52	213.30
810.84	213.29
811.16	213.26
811.48	213.25
811.80	213.37
812.12	213.32
812.43	213.30
812.75	213.28
813.07	213.27
813.39	213.29
813.71	213.27
814.03	213.17
814.35	213.29
814.67	213.24
814.98	213.34
815.30	213.27
815.62	213.32
815.94	213.22
816.26	213.21
816.58	213.17
816.89	213.18
817.21	213.16
817.53	213.17
817.85	213.14
818.17	213.14
818.48	212.96
818.80	212.97
819.12	212.98
819.44	212.88
819.76	212.85
820.07	212.83
820.39	212.82
820.71	212.83
821.03	212.80
821.34	212.63
821.66	212.56
821.98	212.53
822.30	212.47
822.61	212.56
822.93	212.53
823.25	212.59
823.57	212.53
823.88	212.55
824.20	212.48
824.52	212.53
824.83	212.46
825.15	212.50
825.47	212.48
825.79	212.50
826.10	212.56
826.42	212.54
826.74	212.59
827.05	212.56
827.37	212.56
827.69	212.52
828.00	212.63
828.32	212.63
828.64	212.67
828.95	212.82
829.27	212.72
829.58	212.76
829.90	212.69
830.22	212.72
830.53	212.59
830.85	212.55
831.17	212.52
831.48	212.57
831.80	212.57
832.11	212.58
832.43	212.45
832.75	212.42
833.06	212.54
833.38	212.36
833.69	212.31
834.01	212.33
834.32	212.33
834.64	212.28
834.96	212.29
835.27	212.21
835.59	212.11
835.90	212.03
836.22	211.99
836.53	211.96
836.85	211.92
837.16	212.07
837.48	212.08
837.79	212.15
838.11	212.10
838.42	212.10
838.74	212.08
839.05	212.09
839.37	212.04
839.68	211.93
840.00	212.02
840.31	212.05
840.63	212.04
840.94	212.00
841.26	211.97
841.57	211.91
841.88	211.94
842.20	211.89
842.51	211.83
842.83	211.79
843.14	211.94
843.46	211.93
843.77	211.81
844.08	211.86
844.40	211.76
844.71	211.77
845.03	211.73
845.34	211.76
845.65	211.75
845.97	211.75
846.28	211.75
846.60	211.74
846.91	211.69
847.22	211.66
847.54	211.70
847.85	211.71
848.16	211.68
848.48	211.59
848.79	211.69
849.10	211.78
849.42	211.83
849.73	211.67
850.04	211.64
850.36	211.61
850.67	211.58
850.98	211.65
851.30	211.64
851.61	211.57
851.92	211.54
852.23	211.57
852.55	211.50
852.86	211.50
853.17	211.52
853.49	211.57
853.80	211.59
854.11	211.62
854.42	211.63
854.74	211.60
855.05	211.62
855.36	211.51
855.67	211.48
855.99	211.45
856.30	211.66
856.61	211.63
856.92	211.63
857.23	211.62
857.55	211.53
857.86	211.47
858.17	211.52
858.48	211.47
858.79	211.53
859.11	211.61
859.42	211.63
859.73	211.57
860.04	211.57
860.35	211.47
860.66	211.37
860.98	211.32
861.29	211.35
861.60	211.38
861.91	211.40
862.22	211.39
862.53	211.34
862.84	211.16
863.16	211.32
863.47	211.28
863.78	211.34
864.09	211.39
864.40	211.39
864.71	211.40
865.02	211.46
865.33	211.38
865.64	211.33
865.95	211.33
866.27	211.45
866.58	211.47
866.89	211.55
867.20	211.58
867.51	211.62
867.82	211.70
868.13	211.77
868.44	211.74
868.75	211.76
869.06	211.80
869.37	211.76
869.68	211.61
869.99	211.67
870.30	211.62
870.61	211.55
870.92	211.57
871.23	211.58
871.54	211.53
871.85	211.53
872.16	211.50
872.47	211.52
872.78	211.40
873.09	211.36
873.40	211.39
873.71	211.40
874.02	211.35
874.33	211.28
874.64	211.22
874.95	211.24
875.26	211.24
875.56	211.23
875.87	211.21
876.18	211.26
876.49	211.44
876.80	211.41
877.11	211.43
877.42	211.37
877.73	211.32
878.04	211.32
878.35	211.35
878.66	211.42
878.96	211.37
879.27	211.33
879.58	211.28
879.89	211.16
880.20	211.14
880.51	211.11
880.82	211.06
881.12	211.03
881.43	210.96
881.74	210.91
882.05	210.97
882.36	211.02
882.67	211.05
882.97	210.83
883.28	210.80
883.59	210.74
883.90	210.89
884.21	210.88
884.51	210.87
884.82	210.87
885.13	210.91
885.44	210.88
885.74	210.93
886.05	210.98
886.36	211.03
886.67	211.03
886.98	211.12
887.28	211.21
887.59	211.24
887.90	211.37
888.20	211.37
888.51	211.32
888.82	211.29
889.13	211.24
889.43	211.31
889.74	211.40
890.05	211.45
890.35	211.33
890.66	211.39
890.97	211.40
891.28	211.36
891.58	211.31
891.89	211.28
892.20	211.21
892.50	211.15
892.81	211.14
893.12	211.10
893.42	211.01
893.73	210.96
894.04	210.92
894.34	210.84
894.65	210.82
894.95	210.85
895.26	210.80
895.57	210.92
895.87	210.86
896.18	210.83
896.48	210.81
896.79	210.89
897.10	210.83
897.40	210.80
897.71	210.86
898.01	210.82
898.32	210.87
898.63	210.89
898.93	211.00
899.24	210.98
899.54	210.94
899.85	210.97
900.15	210.97
900.46	211.03
900.76	211.04
901.07	211.05
901.38	211.00
901.68	211.04
901.99	210.92
902.29	210.91
902.60	210.88
902.90	210.85
903.21	210.81
903.51	210.85
903.82	210.89
904.12	210.84
904.43	210.84
904.73	210.81
905.03	210.80
905.34	210.87
905.64	210.94
905.95	210.96
906.25	210.94
906.56	211.03
906.86	211.01
907.17	210.98
907.47	210.99
907.77	210.95
908.08	210.96
908.38	211.00
908.69	211.00
908.99	211.01
909.30	211.05
909.60	211.10
909.90	211.09
910.21	211.05
910.51	211.06
910.81	211.16
911.12	211.25
911.42	211.28
911.73	211.10
912.03	211.12
912.33	211.16
912.64	211.20
912.94	211.09
913.24	210.98
913.55	211.02
913.85	211.00
914.15	211.10
914.46	211.18
914.76	211.12
915.06	211.08
915.37	211.09
915.67	211.05
915.97	210.97
916.27	210.96
916.58	210.99
916.88	210.95
917.18	210.94
917.49	210.99
917.79	211.04
918.09	211.04
918.39	211.04
918.70	211.04
919.00	210.93
919.30	210.97
919.60	211.04
919.91	210.96
920.21	210.97
920.51	210.87
920.81	210.76
921.12	210.83
921.42	210.82
921.72	210.82
922.02	210.86
922.32	210.88
922.63	210.85
922.93	210.95
923.23	210.98
923.53	210.90
923.83	210.78
924.13	210.75
924.44	210.83
924.74	210.84
925.04	210.87
925.34	210.90
925.64	210.92
925.94	210.91
926.24	211.07
926.55	211.06
926.85	211.11
927.15	211.10
927.45	211.09
927.75	211.14
928.05	211.08
928.35	211.03
928.65	211.07
928.95	211.11
929.26	211.02
929.56	211.04
929.86	211.14
930.16	211.14
930.46	211.06
930.76	211.01
931.06	210.95
931.36	210.94
931.66	210.99
931.96	211.00
932.26	210.98
932.56	210.90
932.86	210.93
933.16	210.97
933.46	210.95
933.76	210.89
934.06	210.92
934.36	211.00
934.66	211.01
934.96	211.03
935.26	211.08
935.56	211.05
935.86	210.97
936.16	210.90
936.46	210.88
936.76	210.97
937.06	211.03
937.36	211.03
937.66	210.98
937.96	210.97
938.26	210.96
938.56	210.96
938.86	210.95
939.16	210.98
939.46	210.99
939.76	210.95
940.06	211.00
940.35	210.96
940.65	210.90
940.95	210.98
941.25	210.98
941.55	210.94
941.85	210.97
942.15	211.03
942.45	211.05
942.75	211.09
943.04	211.05
943.34	210.99
943.64	210.93
943.94	210.92
944.24	210.90
944.54	210.85
944.84	210.87
945.13	210.86
945.43	210.81
945.73	210.79
946.03	210.84
946.33	210.83
946.62	210.83
946.92	210.79
947.22	210.79
947.52	210.73
947.82	210.76
948.11	210.76
948.41	210.72
948.71	210.68
949.01	210.63
949.31	210.63
949.60	210.70
949.90	210.81
950.20	210.86
950.50	210.86
950.79	210.82
951.09	210.84
951.39	210.78
951.69	210.75
951.98	210.82
952.28	210.83
952.58	210.79
952.87	210.75
953.17	210.85
953.47	210.81
953.76	210.73
954.06	210.70
954.36	210.59
954.66	210.62
954.95	210.71
955.25	210.72
955.55	210.73
955.84	210.60
956.14	210.58
956.44	210.54
956.73	210.51
957.03	210.57
957.32	210.52
957.62	210.55
957.92	210.58
958.21	210.50
958.51	210.75
958.81	210.77
959.10	210.80
959.40	210.74
959.69	210.70
959.99	210.83
960.29	210.83
960.58	210.96
960.88	211.05
961.17	211.00
961.47	211.00
961.76	211.00
962.06	211.07
962.36	211.03
962.65	211.03
962.95	211.11
963.24	211.12
963.54	211.17
963.83	211.19
964.13	211.21
964.42	211.18
964.72	211.02
965.01	211.06
965.31	211.06
965.60	211.11
965.90	211.28
966.19	211.16
966.49	211.19
966.78	211.15
967.08	211.07
967.37	211.05
967.67	211.08
967.96	211.08
968.26	211.07
968.55	211.12
968.85	211.09
969.14	211.10
969.43	211.08
969.73	210.98
970.02	211.02
970.32	210.96
970.61	210.94
970.91	210.91
971.20	210.83
971.49	210.78
971.79	210.76
972.08	210.62
972.38	210.74
972.67	210.66
972.96	210.69
973.26	210.69
973.55	210.74
973.85	210.69
974.14	210.68
974.43	210.70
974.73	210.69
975.02	210.72
975.31	210.66
975.61	210.65
975.90	210.75
976.19	210.68
976.49	210.73
976.78	210.81
977.07	210.79
977.37	210.91
977.66	210.93
977.95	210.88
978.24	210.90
978.54	210.87
978.83	210.88
979.12	210.82
979.42	210.77
979.71	210.72
980.00	210.69
980.29	210.71
980.59	210.66
980.88	210.65
981.17	210.64
981.46	210.68
981.76	210.70
982.05	210.75
982.34	210.76
982.63	210.79
982.93	210.77
983.22	210.80
983.51	210.75
983.80	210.80
984.09	210.80
984.39	210.80
984.68	210.77
984.97	210.85
985.26	210.84
985.55	210.91
985.85	210.94
986.14	210.99
986.43	211.04
986.72	211.08
987.01	211.06
987.30	211.05
987.59	211.03
987.89	211.05
988.18	210.96
988.47	210.92
988.76	210.85
989.05	210.76
989.34	210.72
989.63	210.78
989.92	210.78
990.22	210.81
990.51	210.74
990.80	210.77
991.09	210.72
991.38	210.81
991.67	210.79
991.96	210.71
992.25	210.71
992.54	210.69
992.83	210.66
993.12	210.69
993.41	210.73
993.70	210.83
993.99	210.91
994.28	210.92
994.58	211.01
994.87	210.98
995.16	211.00
995.45	211.03
995.74	210.94
996.03	210.92
996.32	210.95
996.61	211.04
996.90	210.96
997.19	210.96
997.48	210.96
997.77	210.90
998.06	210.90
998.34	210.89
998.63	210.88
998.92	210.93
999.21	210.92
999.50	210.90
999.79	210.79
1000.08	210.80
1000.37	210.81
1000.66	210.72
1000.95	210.80
1001.24	210.87
1001.53	210.88
1001.82	210.92
1002.11	210.91
1002.40	210.90
1002.68	210.89
1002.97	211.08
1003.26	211.05
1003.55	210.98
1003.84	211.04
1004.13	211.18
1004.42	211.20
1004.71	211.22
1004.99	211.13
1005.28	211.27
1005.57	211.29
1005.86	211.26
1006.15	211.16
1006.44	211.10
1006.72	211.14
1007.01	211.10
1007.30	211.12
1007.59	211.14
1007.88	211.16
1008.17	211.17
1008.45	211.19
1008.74	211.19
1009.03	211.11
1009.32	211.10
1009.60	211.08
1009.89	211.06
1010.18	210.92
1010.47	210.89
1010.76	210.86
1011.04	210.91
1011.33	210.85
1011.62	210.82
1011.91	210.86
1012.19	210.86
1012.48	210.95
1012.77	210.93
1013.05	210.94
1013.34	210.90
1013.63	210.76
1013.92	210.65
1014.20	210.56
1014.49	210.53
1014.78	210.55
1015.06	210.39
1015.35	210.42
1015.64	210.45
1015.92	210.45
1016.21	210.48
1016.50	210.53
1016.78	210.57
1017.07	210.54
1017.36	210.52
1017.64	210.49
1017.93	210.49
1018.22	210.45
1018.50	210.31
1018.79	210.30
1019.08	210.31
1019.36	210.27
1019.65	210.37
1019.93	210.50
1020.22	210.60
1020.51	210.71
1020.79	210.69
1021.08	209.55
1021.36	208.35
1021.65	210.10
1021.94	210.75
1022.22	210.35
1022.51	210.90
1022.79	212.40
1023.08	211.25
1023.36	213.70
1023.65	210.80
>>>>>End Processed Spectral Data<<<<<
