SpectraSuite Data File
++++++++++++++++++++++++++++++++++++
Date: Mon Feb 25 17:31:32 EST 2013
User: group
Dark Spectrum Present: No
Reference Spectrum Present: No
Number of Sampled Component Spectra: 1
Spectrometers: USB2E7196
Integration Time (usec): 52000 (USB2E7196)
Spectra Averaged: 20 (USB2E7196)
Boxcar Smoothing: 10 (USB2E7196)
Correct for Electrical Dark: No (USB2E7196)
Strobe/Lamp Enabled: No (USB2E7196)
Correct for Detector Non-linearity: No (USB2E7196)
Correct for Stray Light: No (USB2E7196)
Number of Pixels in Processed Spectrum: 2048
>>>>>Begin Processed Spectral Data<<<<<
339.09	0.00
339.48	200.35
339.86	201.95
340.24	201.65
340.63	204.25
341.01	208.35
341.39	205.75
341.78	206.95
342.16	209.80
342.54	208.65
342.93	198.40
343.31	208.45
343.69	208.90
344.07	209.30
344.46	209.81
344.84	210.23
345.22	210.36
345.60	210.62
345.99	210.82
346.37	210.92
346.75	211.08
347.13	211.22
347.52	211.30
347.90	211.39
348.28	211.40
348.66	211.50
349.05	211.37
349.43	211.42
349.81	211.47
350.19	211.53
350.57	211.61
350.96	211.67
351.34	211.73
351.72	211.90
352.10	211.96
352.48	211.93
352.87	211.92
353.25	211.97
353.63	212.01
354.01	212.09
354.39	212.16
354.77	212.25
355.15	212.37
355.54	212.42
355.92	212.43
356.30	212.57
356.68	212.73
357.06	212.87
357.44	212.91
357.82	212.97
358.20	213.07
358.58	213.08
358.97	213.13
359.35	213.24
359.73	213.27
360.11	213.36
360.49	213.51
360.87	213.52
361.25	213.58
361.63	213.71
362.01	213.75
362.39	213.78
362.77	213.80
363.15	213.83
363.53	213.88
363.91	213.84
364.29	213.80
364.67	213.65
365.05	213.70
365.43	213.75
365.81	213.82
366.19	213.86
366.57	214.01
366.95	214.04
367.33	214.00
367.71	213.96
368.09	214.06
368.47	213.97
368.85	214.05
369.23	214.09
369.61	214.03
369.99	214.13
370.37	214.11
370.75	214.16
371.13	214.04
371.51	214.02
371.89	214.17
372.27	214.15
372.65	214.13
373.03	214.01
373.41	213.95
373.78	213.86
374.16	213.75
374.54	213.61
374.92	213.59
375.30	213.54
375.68	213.48
376.06	213.33
376.44	213.28
376.82	213.20
377.19	213.19
377.57	213.09
377.95	212.92
378.33	212.79
378.71	212.61
379.09	212.64
379.47	212.58
379.84	212.45
380.22	212.36
380.60	212.27
380.98	212.23
381.36	212.23
381.73	212.16
382.11	212.15
382.49	212.11
382.87	212.00
383.25	211.94
383.62	212.14
384.00	212.11
384.38	212.06
384.76	211.99
385.13	211.99
385.51	211.99
385.89	211.96
386.27	211.99
386.64	212.03
387.02	212.00
387.40	212.00
387.78	211.98
388.15	211.97
388.53	211.96
388.91	211.98
389.29	211.86
389.66	211.83
390.04	211.75
390.42	211.71
390.79	211.74
391.17	211.76
391.55	211.53
391.92	211.52
392.30	211.55
392.68	211.50
393.05	211.50
393.43	211.40
393.81	211.37
394.18	211.29
394.56	211.30
394.94	211.27
395.31	211.20
395.69	211.21
396.06	211.27
396.44	211.27
396.82	211.29
397.19	211.37
397.57	211.41
397.95	211.49
398.32	211.55
398.70	211.52
399.07	211.64
399.45	211.68
399.82	211.67
400.20	211.65
400.58	211.67
400.95	211.61
401.33	211.76
401.70	212.00
402.08	212.12
402.45	212.15
402.83	212.26
403.20	212.29
403.58	212.36
403.95	212.45
404.33	212.56
404.71	212.65
405.08	212.94
405.46	213.07
405.83	213.21
406.21	213.33
406.58	213.53
406.96	213.59
407.33	213.75
407.70	213.98
408.08	214.31
408.45	214.59
408.83	214.88
409.20	215.07
409.58	215.16
409.95	215.49
410.33	215.89
410.70	216.20
411.08	216.70
411.45	217.11
411.82	217.41
412.20	217.93
412.57	218.43
412.95	218.73
413.32	219.24
413.69	219.74
414.07	220.26
414.44	220.92
414.82	221.56
415.19	222.30
415.56	223.06
415.94	223.75
416.31	224.57
416.68	225.41
417.06	226.41
417.43	227.40
417.81	228.40
418.18	229.40
418.55	230.53
418.93	231.74
419.30	232.87
419.67	234.39
420.04	235.67
420.42	237.10
420.79	238.82
421.16	240.55
421.54	242.32
421.91	244.16
422.28	246.07
422.66	248.05
423.03	250.01
423.40	251.99
423.77	254.25
424.15	256.51
424.52	258.81
424.89	261.28
425.26	263.70
425.64	266.03
426.01	268.66
426.38	271.35
426.75	273.95
427.13	276.85
427.50	279.77
427.87	282.81
428.24	285.81
428.61	288.63
428.99	291.85
429.36	295.41
429.73	298.80
430.10	302.10
430.47	305.74
430.85	309.30
431.22	313.22
431.59	317.25
431.96	321.07
432.33	325.33
432.70	329.42
433.08	334.30
433.45	339.00
433.82	343.47
434.19	348.45
434.56	353.48
434.93	358.18
435.30	362.85
435.68	368.02
436.05	373.13
436.42	378.20
436.79	382.78
437.16	387.80
437.53	393.12
437.90	398.42
438.27	403.47
438.64	408.79
439.01	413.57
439.38	417.95
439.75	422.14
440.13	427.06
440.50	431.59
440.87	435.32
441.24	439.07
441.61	443.13
441.98	446.07
442.35	449.54
442.72	453.09
443.09	456.53
443.46	458.57
443.83	459.97
444.20	461.16
444.57	462.88
444.94	463.54
445.31	464.19
445.68	464.92
446.05	465.15
446.42	464.49
446.79	463.76
447.16	462.84
447.53	462.23
447.90	459.99
448.27	457.93
448.64	454.98
449.01	452.90
449.37	449.49
449.74	446.21
450.11	442.15
450.48	437.68
450.85	433.21
451.22	429.32
451.59	425.64
451.96	422.11
452.33	417.39
452.70	413.11
453.07	408.22
453.43	403.06
453.80	398.08
454.17	393.45
454.54	389.03
454.91	384.26
455.28	379.75
455.65	375.43
456.02	371.22
456.38	367.50
456.75	362.79
457.12	358.98
457.49	355.09
457.86	351.48
458.23	348.42
458.59	344.89
458.96	341.41
459.33	338.41
459.70	335.30
460.07	332.84
460.43	329.99
460.80	327.33
461.17	324.98
461.54	322.47
461.91	320.01
462.27	317.74
462.64	315.87
463.01	313.51
463.38	311.46
463.74	309.30
464.11	307.43
464.48	305.86
464.85	304.05
465.21	302.88
465.58	301.41
465.95	299.82
466.32	298.48
466.68	297.15
467.05	295.66
467.42	294.42
467.78	292.95
468.15	291.66
468.52	290.60
468.88	289.34
469.25	288.24
469.62	287.52
469.98	286.45
470.35	285.49
470.72	284.74
471.08	283.68
471.45	282.84
471.82	282.20
472.18	281.40
472.55	280.84
472.92	280.06
473.28	279.45
473.65	278.73
474.02	278.15
474.38	277.70
474.75	277.34
475.11	276.82
475.48	276.63
475.85	276.32
476.21	276.14
476.58	275.99
476.94	275.94
477.31	275.82
477.67	275.73
478.04	275.76
478.41	275.85
478.77	276.31
479.14	276.51
479.50	276.70
479.87	277.00
480.23	277.45
480.60	277.82
480.96	278.35
481.33	279.02
481.69	279.67
482.06	280.35
482.42	281.01
482.79	281.75
483.15	282.66
483.52	283.81
483.88	284.77
484.25	285.78
484.61	286.93
484.98	288.07
485.34	289.44
485.71	290.86
486.07	292.28
486.44	293.56
486.80	295.08
487.17	296.72
487.53	298.50
487.90	300.30
488.26	302.24
488.62	304.19
488.99	306.17
489.35	308.28
489.72	310.50
490.08	312.86
490.44	315.30
490.81	317.89
491.17	320.51
491.54	323.35
491.90	326.30
492.26	329.50
492.63	332.82
492.99	336.34
493.36	339.91
493.72	343.78
494.08	347.80
494.45	352.09
494.81	356.41
495.17	360.92
495.54	365.79
495.90	370.84
496.26	376.15
496.63	381.71
496.99	387.42
497.35	393.49
497.72	399.72
498.08	406.34
498.44	413.09
498.80	420.21
499.17	427.68
499.53	435.33
499.89	443.17
500.26	451.25
500.62	459.48
500.98	468.35
501.34	477.45
501.71	486.86
502.07	496.46
502.43	506.51
502.79	516.79
503.16	527.42
503.52	538.28
503.88	549.39
504.24	560.88
504.60	572.73
504.97	585.04
505.33	597.45
505.69	610.45
506.05	623.90
506.41	637.35
506.78	650.82
507.14	665.07
507.50	679.44
507.86	694.27
508.22	709.75
508.59	724.96
508.95	740.87
509.31	756.88
509.67	773.66
510.03	790.52
510.39	808.00
510.75	825.45
511.12	843.52
511.48	861.69
511.84	880.26
512.20	898.86
512.56	917.88
512.92	937.10
513.28	956.59
513.64	976.20
514.00	996.13
514.37	1016.54
514.73	1037.11
515.09	1058.07
515.45	1078.69
515.81	1099.47
516.17	1120.81
516.53	1141.85
516.89	1163.35
517.25	1184.30
517.61	1205.81
517.97	1227.12
518.33	1248.50
518.69	1269.81
519.05	1291.90
519.41	1313.91
519.77	1336.34
520.13	1358.13
520.49	1380.20
520.85	1402.71
521.21	1424.88
521.57	1447.41
521.93	1469.38
522.29	1491.90
522.65	1513.99
523.01	1536.40
523.37	1558.21
523.73	1580.30
524.09	1602.40
524.45	1624.26
524.81	1646.82
525.17	1668.90
525.53	1691.15
525.89	1713.25
526.25	1735.06
526.61	1755.98
526.97	1777.39
527.33	1798.60
527.68	1819.71
528.04	1841.04
528.40	1861.19
528.76	1881.70
529.12	1902.33
529.48	1923.81
529.84	1943.92
530.20	1963.95
530.56	1984.22
530.91	2004.93
531.27	2025.30
531.63	2045.04
531.99	2064.80
532.35	2083.49
532.71	2102.37
533.07	2121.30
533.42	2139.76
533.78	2158.51
534.14	2176.77
534.50	2193.72
534.86	2211.45
535.21	2228.20
535.57	2245.58
535.93	2262.56
536.29	2279.33
536.65	2295.56
537.00	2310.24
537.36	2325.01
537.72	2340.15
538.08	2355.13
538.44	2370.19
538.79	2384.63
539.15	2399.36
539.51	2413.57
539.87	2428.65
540.22	2442.87
540.58	2457.56
540.94	2471.72
541.29	2484.69
541.65	2496.71
542.01	2509.79
542.37	2520.94
542.72	2533.32
543.08	2543.77
543.44	2555.41
543.79	2565.56
544.15	2575.63
544.51	2586.64
544.87	2597.83
545.22	2607.08
545.58	2615.33
545.94	2622.10
546.29	2628.34
546.65	2634.11
547.01	2640.09
547.36	2645.39
547.72	2650.80
548.07	2654.37
548.43	2658.04
548.79	2661.29
549.14	2665.68
549.50	2669.56
549.86	2673.52
550.21	2676.80
550.57	2681.11
550.92	2683.48
551.28	2685.83
551.64	2687.90
551.99	2690.21
552.35	2691.43
552.70	2693.70
553.06	2696.06
553.41	2698.87
553.77	2702.23
554.13	2704.47
554.48	2706.47
554.84	2707.90
555.19	2708.27
555.55	2708.69
555.90	2709.01
556.26	2709.65
556.61	2709.65
556.97	2708.17
557.32	2707.73
557.68	2706.32
558.03	2704.37
558.39	2702.61
558.74	2702.19
559.10	2700.91
559.45	2698.88
559.81	2697.32
560.16	2694.47
560.52	2692.33
560.87	2689.29
561.23	2685.11
561.58	2682.86
561.94	2679.51
562.29	2675.63
562.64	2673.18
563.00	2670.76
563.35	2668.45
563.71	2666.50
564.06	2663.90
564.42	2662.25
564.77	2659.79
565.12	2657.96
565.48	2654.96
565.83	2651.96
566.19	2648.45
566.54	2644.23
566.89	2640.19
567.25	2636.63
567.60	2633.80
567.96	2629.78
568.31	2626.49
568.66	2622.75
569.02	2617.78
569.37	2613.03
569.72	2609.31
570.08	2604.10
570.43	2598.66
570.78	2593.00
571.14	2586.63
571.49	2580.23
571.84	2574.05
572.20	2567.15
572.55	2560.31
572.90	2553.58
573.26	2546.76
573.61	2539.56
573.96	2533.18
574.31	2525.33
574.67	2517.20
575.02	2508.59
575.37	2500.15
575.72	2491.20
576.08	2483.51
576.43	2475.16
576.78	2467.17
577.13	2459.15
577.49	2451.02
577.84	2443.25
578.19	2435.45
578.54	2428.21
578.90	2421.51
579.25	2412.80
579.60	2403.84
579.95	2394.78
580.30	2386.67
580.66	2378.67
581.01	2369.85
581.36	2360.66
581.71	2352.34
582.06	2343.97
582.42	2335.77
582.77	2326.61
583.12	2317.89
583.47	2309.35
583.82	2301.26
584.17	2292.10
584.53	2283.00
584.88	2274.56
585.23	2265.51
585.58	2255.97
585.93	2246.30
586.28	2237.15
586.63	2228.98
586.98	2220.86
587.34	2212.45
587.69	2203.49
588.04	2194.39
588.39	2186.22
588.74	2177.78
589.09	2169.53
589.44	2160.03
589.79	2151.32
590.14	2143.68
590.49	2135.54
590.84	2126.75
591.19	2118.51
591.54	2109.97
591.89	2100.15
592.25	2090.88
592.60	2081.60
592.95	2072.71
593.30	2063.28
593.65	2053.64
594.00	2043.85
594.35	2035.60
594.70	2026.96
595.05	2018.43
595.40	2009.94
595.75	2000.56
596.10	1992.11
596.45	1983.70
596.80	1976.24
597.15	1968.22
597.50	1959.46
597.85	1950.95
598.19	1942.45
598.54	1934.06
598.89	1926.44
599.24	1919.56
599.59	1912.18
599.94	1905.21
600.29	1897.61
600.64	1890.07
600.99	1881.73
601.34	1874.68
601.69	1866.21
602.04	1857.75
602.39	1849.70
602.74	1841.90
603.08	1835.46
603.43	1828.39
603.78	1820.84
604.13	1812.75
604.48	1804.65
604.83	1797.62
605.18	1790.62
605.53	1783.42
605.87	1776.05
606.22	1769.17
606.57	1761.56
606.92	1753.48
607.27	1745.51
607.62	1738.35
607.96	1731.37
608.31	1725.35
608.66	1717.59
609.01	1710.20
609.36	1703.03
609.70	1695.27
610.05	1687.33
610.40	1678.85
610.75	1670.71
611.10	1662.83
611.44	1653.97
611.79	1645.27
612.14	1636.04
612.49	1626.71
612.83	1617.65
613.18	1607.96
613.53	1598.25
613.88	1588.73
614.22	1580.19
614.57	1570.90
614.92	1561.43
615.27	1552.29
615.61	1542.68
615.96	1533.98
616.31	1525.55
616.65	1517.56
617.00	1509.26
617.35	1501.16
617.70	1492.70
618.04	1483.50
618.39	1474.40
618.74	1466.27
619.08	1458.02
619.43	1449.90
619.78	1442.10
620.12	1434.18
620.47	1426.58
620.82	1418.38
621.16	1410.34
621.51	1401.86
621.85	1394.15
622.20	1386.29
622.55	1377.87
622.89	1369.70
623.24	1361.77
623.59	1353.27
623.93	1344.84
624.28	1336.43
624.62	1328.22
624.97	1320.15
625.32	1312.60
625.66	1305.27
626.01	1297.94
626.35	1290.56
626.70	1283.15
627.04	1275.82
627.39	1268.35
627.73	1261.03
628.08	1254.24
628.43	1246.89
628.77	1239.69
629.12	1232.12
629.46	1225.04
629.81	1218.14
630.15	1210.72
630.50	1203.53
630.84	1196.26
631.19	1189.05
631.53	1182.47
631.88	1174.93
632.22	1167.29
632.57	1160.37
632.91	1152.85
633.26	1145.68
633.60	1138.63
633.95	1131.80
634.29	1124.49
634.64	1117.84
634.98	1110.65
635.32	1103.73
635.67	1097.37
636.01	1090.95
636.36	1084.26
636.70	1077.78
637.05	1071.17
637.39	1065.08
637.73	1058.65
638.08	1052.81
638.42	1047.13
638.77	1040.85
639.11	1034.71
639.45	1028.95
639.80	1022.33
640.14	1016.03
640.49	1009.90
640.83	1003.88
641.17	997.60
641.52	991.62
641.86	985.20
642.20	979.07
642.55	972.40
642.89	965.92
643.23	959.51
643.58	953.84
643.92	947.42
644.26	941.30
644.61	935.28
644.95	929.13
645.29	923.00
645.64	916.35
645.98	910.17
646.32	904.29
646.66	898.26
647.01	892.58
647.35	886.80
647.69	880.25
648.04	874.32
648.38	868.31
648.72	862.34
649.06	856.35
649.41	850.54
649.75	844.94
650.09	839.30
650.43	833.54
650.78	827.27
651.12	821.43
651.46	815.81
651.80	809.96
652.14	804.23
652.49	798.18
652.83	792.43
653.17	786.31
653.51	780.54
653.85	774.93
654.20	769.08
654.54	763.34
654.88	758.03
655.22	752.13
655.56	746.57
655.90	740.78
656.25	735.07
656.59	729.50
656.93	724.24
657.27	719.09
657.61	713.63
657.95	708.53
658.29	703.36
658.64	698.34
658.98	693.08
659.32	687.77
659.66	682.86
660.00	677.63
660.34	672.58
660.68	667.56
661.02	662.32
661.36	657.50
661.70	652.71
662.05	648.07
662.39	643.92
662.73	639.55
663.07	635.25
663.41	631.03
663.75	626.60
664.09	622.01
664.43	617.27
664.77	612.94
665.11	608.54
665.45	604.28
665.79	599.73
666.13	595.47
666.47	591.30
666.81	587.12
667.15	582.91
667.49	579.17
667.83	575.33
668.17	571.54
668.51	567.82
668.85	564.07
669.19	560.42
669.53	556.29
669.87	552.26
670.21	548.58
670.55	544.89
670.89	541.48
671.23	538.06
671.57	534.71
671.91	531.25
672.25	527.92
672.58	524.55
672.92	521.18
673.26	518.00
673.60	514.75
673.94	511.40
674.28	508.40
674.62	505.29
674.96	502.06
675.30	498.99
675.64	495.89
675.97	492.87
676.31	489.88
676.65	487.08
676.99	484.50
677.33	481.44
677.67	478.35
678.01	475.22
678.34	472.30
678.68	469.38
679.02	466.39
679.36	463.43
679.70	460.54
680.04	457.82
680.37	454.90
680.71	452.25
681.05	449.84
681.39	447.19
681.73	444.57
682.06	442.14
682.40	439.62
682.74	437.06
683.08	434.54
683.42	432.06
683.75	429.56
684.09	426.94
684.43	424.68
684.77	422.30
685.10	419.92
685.44	417.42
685.78	414.98
686.12	412.82
686.45	410.52
686.79	408.28
687.13	406.03
687.46	403.86
687.80	401.69
688.14	399.33
688.48	397.25
688.81	394.99
689.15	392.72
689.49	390.56
689.82	388.31
690.16	385.96
690.50	383.62
690.83	381.42
691.17	379.14
691.51	376.98
691.84	374.90
692.18	372.92
692.52	371.04
692.85	369.25
693.19	367.37
693.52	365.49
693.86	363.53
694.20	361.68
694.53	359.74
694.87	357.81
695.21	355.92
695.54	353.93
695.88	352.05
696.21	350.22
696.55	348.48
696.88	346.75
697.22	345.09
697.56	343.62
697.89	341.98
698.23	340.33
698.56	338.64
698.90	337.09
699.23	335.46
699.57	333.75
699.90	332.12
700.24	330.43
700.58	328.83
700.91	327.35
701.25	325.89
701.58	324.56
701.92	323.10
702.25	321.66
702.59	320.26
702.92	318.98
703.26	317.58
703.59	316.32
703.93	315.26
704.26	314.08
704.60	312.73
704.93	311.53
705.26	310.34
705.60	309.14
705.93	307.87
706.27	306.72
706.60	305.70
706.94	304.60
707.27	303.40
707.61	302.35
707.94	301.21
708.27	300.05
708.61	298.91
708.94	297.88
709.28	296.75
709.61	295.73
709.94	294.73
710.28	293.70
710.61	292.65
710.95	291.45
711.28	290.53
711.61	289.43
711.95	288.41
712.28	287.43
712.61	286.42
712.95	285.60
713.28	284.72
713.61	283.73
713.95	282.76
714.28	281.98
714.61	281.07
714.95	280.15
715.28	279.27
715.61	278.41
715.95	277.49
716.28	276.67
716.61	275.77
716.95	274.83
717.28	274.01
717.61	273.15
717.94	272.36
718.28	271.38
718.61	270.74
718.94	270.07
719.27	269.41
719.61	268.75
719.94	268.06
720.27	267.25
720.60	266.54
720.94	265.87
721.27	265.18
721.60	264.54
721.93	263.94
722.27	263.35
722.60	262.72
722.93	262.13
723.26	261.64
723.59	261.09
723.93	260.61
724.26	260.10
724.59	259.55
724.92	259.03
725.25	258.65
725.59	258.04
725.92	257.50
726.25	257.02
726.58	256.53
726.91	255.92
727.24	255.51
727.57	255.05
727.91	254.51
728.24	254.10
728.57	253.67
728.90	253.20
729.23	252.65
729.56	252.25
729.89	251.79
730.22	251.25
730.55	250.76
730.89	250.30
731.22	249.81
731.55	249.35
731.88	248.97
732.21	248.52
732.54	248.13
732.87	247.69
733.20	247.14
733.53	246.75
733.86	246.45
734.19	245.99
734.52	245.59
734.85	245.34
735.18	244.93
735.51	244.54
735.84	244.20
736.17	243.87
736.50	243.53
736.83	243.32
737.16	242.98
737.49	242.60
737.82	242.15
738.15	241.85
738.48	241.49
738.81	241.00
739.14	240.63
739.47	240.26
739.80	239.94
740.13	239.65
740.46	239.20
740.79	238.79
741.12	238.42
741.45	238.09
741.78	237.60
742.11	237.29
742.44	236.89
742.77	236.68
743.10	236.41
743.43	235.96
743.75	235.49
744.08	235.40
744.41	235.12
744.74	234.87
745.07	234.55
745.40	234.39
745.73	234.19
746.06	233.91
746.39	233.66
746.71	233.34
747.04	233.06
747.37	232.83
747.70	232.58
748.03	232.40
748.36	232.20
748.68	231.98
749.01	231.66
749.34	231.46
749.67	231.10
750.00	230.87
750.33	230.85
750.65	230.61
750.98	230.18
751.31	229.98
751.64	229.75
751.97	229.64
752.29	229.37
752.62	229.15
752.95	228.90
753.28	228.68
753.60	228.39
753.93	228.17
754.26	227.96
754.59	227.72
754.91	227.47
755.24	227.19
755.57	227.04
755.90	226.89
756.22	226.63
756.55	226.47
756.88	226.23
757.20	225.89
757.53	225.75
757.86	225.54
758.19	225.36
758.51	225.21
758.84	224.91
759.17	224.71
759.49	224.55
759.82	224.52
760.15	224.27
760.47	224.16
760.80	223.99
761.13	223.79
761.45	223.61
761.78	223.45
762.11	223.30
762.43	223.14
762.76	222.95
763.08	222.93
763.41	222.74
763.74	222.59
764.06	222.42
764.39	222.26
764.71	222.10
765.04	221.97
765.37	221.80
765.69	221.71
766.02	221.61
766.34	221.51
766.67	221.28
767.00	221.27
767.32	221.23
767.65	221.23
767.97	221.15
768.30	221.10
768.62	220.95
768.95	220.82
769.27	220.71
769.60	220.68
769.92	220.55
770.25	220.47
770.57	220.33
770.90	220.17
771.22	220.02
771.55	219.92
771.87	219.76
772.20	219.59
772.52	219.65
772.85	219.77
773.17	219.60
773.50	219.43
773.82	219.26
774.15	219.03
774.47	218.83
774.80	218.77
775.12	218.65
775.45	218.55
775.77	218.56
776.09	218.44
776.42	218.30
776.74	218.19
777.07	218.08
777.39	217.99
777.72	218.00
778.04	217.94
778.36	217.86
778.69	217.79
779.01	217.80
779.33	217.54
779.66	217.21
779.98	217.11
780.31	217.14
780.63	217.16
780.95	217.15
781.28	217.10
781.60	217.01
781.92	216.95
782.25	216.98
782.57	216.80
782.89	216.75
783.22	216.68
783.54	216.60
783.86	216.52
784.19	216.47
784.51	216.39
784.83	216.32
785.16	216.28
785.48	216.32
785.80	216.29
786.12	216.22
786.45	216.17
786.77	216.20
787.09	216.06
787.42	215.99
787.74	215.97
788.06	215.92
788.38	215.85
788.71	215.85
789.03	215.75
789.35	215.80
789.67	215.73
789.99	215.71
790.32	215.62
790.64	215.58
790.96	215.64
791.28	215.63
791.61	215.61
791.93	215.67
792.25	215.68
792.57	215.75
792.89	215.73
793.21	215.76
793.54	215.68
793.86	215.61
794.18	215.55
794.50	215.43
794.82	215.36
795.14	215.34
795.47	215.27
795.79	215.29
796.11	215.18
796.43	215.21
796.75	215.20
797.07	215.27
797.39	215.32
797.71	215.22
798.04	215.13
798.36	215.09
798.68	215.01
799.00	214.83
799.32	214.73
799.64	214.77
799.96	214.75
800.28	214.83
800.60	214.84
800.92	214.82
801.24	214.91
801.56	214.92
801.89	214.94
802.21	214.94
802.53	214.87
802.85	214.90
803.17	214.91
803.49	214.81
803.81	214.73
804.13	214.60
804.45	214.62
804.77	214.68
805.09	214.67
805.41	214.64
805.73	214.68
806.05	214.62
806.37	214.54
806.69	214.45
807.01	214.35
807.33	214.30
807.65	214.27
807.97	214.21
808.28	214.16
808.60	214.06
808.92	214.06
809.24	214.10
809.56	214.03
809.88	213.94
810.20	213.95
810.52	213.94
810.84	213.92
811.16	213.78
811.48	213.74
811.80	213.79
812.12	213.73
812.43	213.72
812.75	213.71
813.07	213.63
813.39	213.58
813.71	213.47
814.03	213.48
814.35	213.36
814.67	213.30
814.98	213.29
815.30	213.30
815.62	213.16
815.94	213.04
816.26	213.01
816.58	212.95
816.89	212.96
817.21	212.86
817.53	212.87
817.85	212.93
818.17	212.88
818.48	212.78
818.80	212.78
819.12	212.75
819.44	212.63
819.76	212.59
820.07	212.62
820.39	212.67
820.71	212.67
821.03	212.65
821.34	212.65
821.66	212.63
821.98	212.63
822.30	212.64
822.61	212.74
822.93	212.68
823.25	212.73
823.57	212.65
823.88	212.73
824.20	212.68
824.52	212.70
824.83	212.62
825.15	212.53
825.47	212.45
825.79	212.40
826.10	212.43
826.42	212.43
826.74	212.40
827.05	212.32
827.37	212.32
827.69	212.30
828.00	212.28
828.32	212.29
828.64	212.27
828.95	212.30
829.27	212.19
829.58	212.24
829.90	212.19
830.22	212.16
830.53	212.05
830.85	212.10
831.17	212.05
831.48	212.10
831.80	212.14
832.11	212.14
832.43	212.13
832.75	212.10
833.06	212.19
833.38	212.21
833.69	212.24
834.01	212.20
834.32	212.19
834.64	212.16
834.96	212.11
835.27	212.11
835.59	212.08
835.90	212.14
836.22	212.13
836.53	212.08
836.85	212.05
837.16	212.27
837.48	212.19
837.79	212.21
838.11	212.16
838.42	212.17
838.74	212.19
839.05	212.12
839.37	212.11
839.68	212.04
840.00	211.98
840.31	211.98
840.63	211.99
840.94	212.00
841.26	212.02
841.57	212.09
841.88	212.08
842.20	212.01
842.51	211.89
842.83	211.82
843.14	212.02
843.46	212.08
843.77	211.92
844.08	211.94
844.40	211.88
844.71	211.86
845.03	211.85
845.34	211.89
845.65	211.95
845.97	211.94
846.28	211.96
846.60	211.94
846.91	211.94
847.22	211.92
847.54	211.96
847.85	211.92
848.16	211.85
848.48	211.84
848.79	211.94
849.10	211.98
849.42	212.08
849.73	211.92
850.04	211.91
850.36	211.91
850.67	211.95
850.98	211.96
851.30	212.04
851.61	212.06
851.92	212.02
852.23	212.03
852.55	212.00
852.86	211.95
853.17	211.96
853.49	211.93
853.80	211.98
854.11	212.02
854.42	212.00
854.74	211.99
855.05	211.95
855.36	211.85
855.67	211.88
855.99	211.81
856.30	211.95
856.61	211.98
856.92	212.02
857.23	212.03
857.55	211.94
857.86	211.87
858.17	211.88
858.48	211.91
858.79	211.85
859.11	211.95
859.42	211.93
859.73	211.88
860.04	211.95
860.35	211.85
860.66	211.78
860.98	211.84
861.29	211.89
861.60	211.94
861.91	211.99
862.22	211.92
862.53	211.93
862.84	211.77
863.16	211.75
863.47	211.69
863.78	211.58
864.09	211.61
864.40	211.60
864.71	211.62
865.02	211.59
865.33	211.58
865.64	211.52
865.95	211.51
866.27	211.66
866.58	211.68
866.89	211.70
867.20	211.68
867.51	211.68
867.82	211.63
868.13	211.62
868.44	211.59
868.75	211.60
869.06	211.54
869.37	211.56
869.68	211.48
869.99	211.50
870.30	211.51
870.61	211.58
870.92	211.55
871.23	211.49
871.54	211.48
871.85	211.51
872.16	211.59
872.47	211.56
872.78	211.38
873.09	211.42
873.40	211.40
873.71	211.39
874.02	211.29
874.33	211.21
874.64	211.19
874.95	211.21
875.26	211.20
875.56	211.29
875.87	211.28
876.18	211.27
876.49	211.37
876.80	211.43
877.11	211.37
877.42	211.41
877.73	211.39
878.04	211.37
878.35	211.34
878.66	211.29
878.96	211.28
879.27	211.31
879.58	211.14
879.89	211.19
880.20	211.30
880.51	211.36
880.82	211.39
881.12	211.39
881.43	211.37
881.74	211.41
882.05	211.39
882.36	211.38
882.67	211.40
882.97	211.24
883.28	211.18
883.59	211.20
883.90	211.23
884.21	211.27
884.51	211.24
884.82	211.27
885.13	211.29
885.44	211.33
885.74	211.35
886.05	211.47
886.36	211.38
886.67	211.29
886.98	211.28
887.28	211.33
887.59	211.35
887.90	211.38
888.20	211.36
888.51	211.39
888.82	211.37
889.13	211.39
889.43	211.54
889.74	211.59
890.05	211.61
890.35	211.54
890.66	211.49
890.97	211.50
891.28	211.46
891.58	211.40
891.89	211.34
892.20	211.25
892.50	211.20
892.81	211.19
893.12	211.18
893.42	211.20
893.73	211.20
894.04	211.17
894.34	211.10
894.65	211.11
894.95	211.08
895.26	211.10
895.57	211.16
895.87	210.97
896.18	210.96
896.48	210.92
896.79	210.97
897.10	210.99
897.40	211.00
897.71	210.98
898.01	211.02
898.32	211.08
898.63	211.11
898.93	211.11
899.24	211.18
899.54	211.18
899.85	211.09
900.15	211.05
900.46	211.02
900.76	211.04
901.07	210.93
901.38	210.90
901.68	210.87
901.99	210.79
902.29	210.79
902.60	210.76
902.90	210.74
903.21	210.72
903.51	210.69
903.82	210.75
904.12	210.78
904.43	210.80
904.73	210.82
905.03	210.88
905.34	211.05
905.64	211.03
905.95	211.09
906.25	211.11
906.56	211.13
906.86	211.13
907.17	211.15
907.47	211.20
907.77	211.20
908.08	211.20
908.38	211.18
908.69	211.27
908.99	211.26
909.30	211.28
909.60	211.23
909.90	211.24
910.21	211.19
910.51	211.23
910.81	211.12
911.12	211.12
911.42	211.07
911.73	210.89
912.03	210.89
912.33	210.89
912.64	210.95
912.94	210.92
913.24	210.93
913.55	210.89
913.85	210.88
914.15	210.95
914.46	210.95
914.76	210.94
915.06	210.90
915.37	210.90
915.67	210.86
915.97	210.89
916.27	210.89
916.58	210.89
916.88	210.81
917.18	210.84
917.49	210.92
917.79	210.90
918.09	210.93
918.39	210.96
918.70	210.92
919.00	210.87
919.30	210.95
919.60	210.94
919.91	210.98
920.21	210.92
920.51	210.87
920.81	210.83
921.12	210.81
921.42	210.80
921.72	210.83
922.02	210.91
922.32	210.90
922.63	210.90
922.93	211.03
923.23	211.05
923.53	211.07
923.83	210.99
924.13	211.00
924.44	210.94
924.74	210.98
925.04	211.05
925.34	211.05
925.64	210.95
925.94	211.00
926.24	211.05
926.55	211.06
926.85	211.07
927.15	211.15
927.45	211.15
927.75	211.14
928.05	211.17
928.35	211.12
928.65	211.19
928.95	211.13
929.26	211.02
929.56	211.04
929.86	211.10
930.16	210.99
930.46	211.00
930.76	211.03
931.06	210.88
931.36	210.80
931.66	210.84
931.96	210.88
932.26	210.85
932.56	210.78
932.86	210.79
933.16	210.72
933.46	210.65
933.76	210.68
934.06	210.76
934.36	210.83
934.66	210.85
934.96	210.80
935.26	210.90
935.56	210.96
935.86	210.86
936.16	210.81
936.46	210.86
936.76	210.90
937.06	210.95
937.36	211.04
937.66	211.07
937.96	211.04
938.26	211.09
938.56	211.03
938.86	211.07
939.16	211.19
939.46	211.27
939.76	211.33
940.06	211.36
940.35	211.31
940.65	211.24
940.95	211.26
941.25	211.27
941.55	211.21
941.85	211.19
942.15	211.31
942.45	211.41
942.75	211.46
943.04	211.47
943.34	211.43
943.64	211.42
943.94	211.39
944.24	211.43
944.54	211.34
944.84	211.44
945.13	211.39
945.43	211.33
945.73	211.32
946.03	211.26
946.33	211.26
946.62	211.21
946.92	211.19
947.22	211.14
947.52	211.17
947.82	211.18
948.11	211.09
948.41	211.00
948.71	210.98
949.01	210.94
949.31	210.92
949.60	210.95
949.90	210.97
950.20	211.00
950.50	210.96
950.79	211.03
951.09	210.96
951.39	211.01
951.69	211.04
951.98	211.07
952.28	211.08
952.58	211.04
952.87	211.08
953.17	211.10
953.47	211.15
953.76	211.12
954.06	211.15
954.36	211.18
954.66	211.21
954.95	211.12
955.25	211.15
955.55	211.20
955.84	211.13
956.14	211.18
956.44	211.18
956.73	211.22
957.03	211.21
957.32	211.17
957.62	211.15
957.92	211.12
958.21	211.10
958.51	211.34
958.81	211.33
959.10	211.38
959.40	211.42
959.69	211.41
959.99	211.38
960.29	211.36
960.58	211.35
960.88	211.47
961.17	211.53
961.47	211.54
961.76	211.49
962.06	211.56
962.36	211.50
962.65	211.49
962.95	211.51
963.24	211.53
963.54	211.67
963.83	211.70
964.13	211.73
964.42	211.75
964.72	211.56
965.01	211.60
965.31	211.59
965.60	211.53
965.90	211.64
966.19	211.65
966.49	211.65
966.78	211.63
967.08	211.54
967.37	211.61
967.67	211.64
967.96	211.63
968.26	211.60
968.55	211.62
968.85	211.62
969.14	211.56
969.43	211.45
969.73	211.39
970.02	211.31
970.32	211.33
970.61	211.30
970.91	211.26
971.20	211.27
971.49	211.21
971.79	211.18
972.08	211.05
972.38	211.03
972.67	211.05
972.96	211.10
973.26	211.08
973.55	211.08
973.85	211.02
974.14	211.01
974.43	211.01
974.73	211.02
975.02	210.99
975.31	211.01
975.61	211.04
975.90	211.01
976.19	211.06
976.49	211.08
976.78	211.05
977.07	211.00
977.37	210.97
977.66	211.00
977.95	211.00
978.24	211.02
978.54	211.13
978.83	211.10
979.12	211.00
979.42	211.03
979.71	210.94
980.00	210.95
980.29	211.02
980.59	211.00
980.88	210.96
981.17	210.99
981.46	210.94
981.76	210.98
982.05	211.03
982.34	211.01
982.63	211.03
982.93	211.01
983.22	211.06
983.51	211.07
983.80	211.11
984.09	211.15
984.39	211.14
984.68	211.04
984.97	211.01
985.26	211.04
985.55	211.10
985.85	211.09
986.14	211.08
986.43	211.05
986.72	211.04
987.01	211.06
987.30	211.05
987.59	211.07
987.89	211.07
988.18	210.97
988.47	210.97
988.76	210.91
989.05	210.86
989.34	210.90
989.63	210.96
989.92	210.93
990.22	210.89
990.51	210.89
990.80	210.87
991.09	210.93
991.38	211.00
991.67	210.86
991.96	210.87
992.25	210.89
992.54	210.85
992.83	210.84
993.12	210.77
993.41	210.78
993.70	210.87
993.99	210.89
994.28	211.00
994.58	210.98
994.87	210.99
995.16	211.03
995.45	211.01
995.74	211.01
996.03	211.00
996.32	210.99
996.61	211.03
996.90	211.05
997.19	211.03
997.48	211.02
997.77	211.06
998.06	211.12
998.34	211.15
998.63	211.19
998.92	211.22
999.21	211.28
999.50	211.25
999.79	211.10
1000.08	210.98
1000.37	210.93
1000.66	210.95
1000.95	210.93
1001.24	210.90
1001.53	210.95
1001.82	210.89
1002.11	210.89
1002.40	210.99
1002.68	211.01
1002.97	211.11
1003.26	211.06
1003.55	211.00
1003.84	211.00
1004.13	210.98
1004.42	210.91
1004.71	210.90
1004.99	210.90
1005.28	210.92
1005.57	210.97
1005.86	210.99
1006.15	211.10
1006.44	211.06
1006.72	211.06
1007.01	211.05
1007.30	211.11
1007.59	211.07
1007.88	211.08
1008.17	211.06
1008.45	210.98
1008.74	210.89
1009.03	210.84
1009.32	210.92
1009.60	211.00
1009.89	211.03
1010.18	211.05
1010.47	211.08
1010.76	211.09
1011.04	211.09
1011.33	211.07
1011.62	211.06
1011.91	211.11
1012.19	211.14
1012.48	211.23
1012.77	211.25
1013.05	211.37
1013.34	211.38
1013.63	211.35
1013.92	211.33
1014.20	211.32
1014.49	211.35
1014.78	211.39
1015.06	211.32
1015.35	211.30
1015.64	211.32
1015.92	211.35
1016.21	211.27
1016.50	211.25
1016.78	211.29
1017.07	211.26
1017.36	211.25
1017.64	211.23
1017.93	211.26
1018.22	211.22
1018.50	211.21
1018.79	211.15
1019.08	211.03
1019.36	211.05
1019.65	211.00
1019.93	211.10
1020.22	211.05
1020.51	211.19
1020.79	211.15
1021.08	211.00
1021.36	211.40
1021.65	210.50
1021.94	210.50
1022.22	211.55
1022.51	210.40
1022.79	212.25
1023.08	209.65
1023.36	213.90
1023.65	210.55
>>>>>End Processed Spectral Data<<<<<
