SpectraSuite Data File
++++++++++++++++++++++++++++++++++++
Date: Mon Feb 25 17:35:53 EST 2013
User: group
Dark Spectrum Present: No
Reference Spectrum Present: No
Number of Sampled Component Spectra: 1
Spectrometers: USB2E7196
Integration Time (usec): 52000 (USB2E7196)
Spectra Averaged: 20 (USB2E7196)
Boxcar Smoothing: 10 (USB2E7196)
Correct for Electrical Dark: No (USB2E7196)
Strobe/Lamp Enabled: No (USB2E7196)
Correct for Detector Non-linearity: No (USB2E7196)
Correct for Stray Light: No (USB2E7196)
Number of Pixels in Processed Spectrum: 2048
>>>>>Begin Processed Spectral Data<<<<<
339.09	0.00
339.48	198.20
339.86	200.20
340.24	200.60
340.63	202.95
341.01	207.10
341.39	206.15
341.78	206.45
342.16	207.35
342.54	208.50
342.93	197.82
343.31	207.82
343.69	208.34
344.07	208.84
344.46	209.32
344.84	209.74
345.22	209.89
345.60	210.15
345.99	210.36
346.37	210.54
346.75	210.68
347.13	210.79
347.52	210.85
347.90	211.03
348.28	211.02
348.66	211.02
349.05	211.02
349.43	211.02
349.81	211.06
350.19	211.20
350.57	211.29
350.96	211.41
351.34	211.54
351.72	211.74
352.10	211.84
352.48	211.94
352.87	212.01
353.25	212.11
353.63	212.15
354.01	212.19
354.39	212.23
354.77	212.35
355.15	212.49
355.54	212.53
355.92	212.56
356.30	212.67
356.68	212.95
357.06	213.01
357.44	213.13
357.82	213.33
358.20	213.42
358.58	213.50
358.97	213.54
359.35	213.61
359.73	213.70
360.11	213.75
360.49	213.81
360.87	213.85
361.25	213.93
361.63	214.04
362.01	214.20
362.39	214.32
362.77	214.36
363.15	214.40
363.53	214.51
363.91	214.61
364.29	214.59
364.67	214.40
365.05	214.39
365.43	214.38
365.81	214.24
366.19	214.23
366.57	214.23
366.95	214.30
367.33	214.23
367.71	214.18
368.09	214.20
368.47	214.19
368.85	214.17
369.23	214.20
369.61	214.08
369.99	214.12
370.37	214.04
370.75	214.09
371.13	213.99
371.51	213.91
371.89	213.80
372.27	213.82
372.65	213.80
373.03	213.78
373.41	213.71
373.78	213.75
374.16	213.65
374.54	213.56
374.92	213.44
375.30	213.44
375.68	213.31
376.06	213.23
376.44	213.17
376.82	213.13
377.19	213.04
377.57	213.02
377.95	212.85
378.33	212.81
378.71	212.61
379.09	212.53
379.47	212.45
379.84	212.40
380.22	212.31
380.60	212.22
380.98	212.20
381.36	212.21
381.73	212.19
382.11	212.19
382.49	212.13
382.87	212.07
383.25	212.01
383.62	212.24
384.00	212.20
384.38	212.09
384.76	212.08
385.13	212.09
385.51	212.06
385.89	212.00
386.27	211.95
386.64	211.99
387.02	212.02
387.40	211.93
387.78	211.89
388.15	211.82
388.53	211.80
388.91	211.74
389.29	211.67
389.66	211.60
390.04	211.52
390.42	211.58
390.79	211.54
391.17	211.50
391.55	211.31
391.92	211.31
392.30	211.31
392.68	211.24
393.05	211.31
393.43	211.36
393.81	211.38
394.18	211.39
394.56	211.41
394.94	211.50
395.31	211.60
395.69	211.72
396.06	211.79
396.44	211.78
396.82	211.75
397.19	211.90
397.57	211.91
397.95	211.98
398.32	211.98
398.70	212.10
399.07	212.21
399.45	212.23
399.82	212.21
400.20	212.30
400.58	212.41
400.95	212.34
401.33	212.41
401.70	212.54
402.08	212.65
402.45	212.62
402.83	212.62
403.20	212.67
403.58	212.76
403.95	212.80
404.33	212.96
404.71	213.13
405.08	213.27
405.46	213.42
405.83	213.57
406.21	213.73
406.58	213.85
406.96	213.98
407.33	214.15
407.70	214.38
408.08	214.71
408.45	214.89
408.83	215.21
409.20	215.44
409.58	215.64
409.95	215.97
410.33	216.39
410.70	216.74
411.08	217.18
411.45	217.56
411.82	218.05
412.20	218.64
412.57	219.28
412.95	219.72
413.32	220.39
413.69	221.00
414.07	221.65
414.44	222.46
414.82	223.30
415.19	224.18
415.56	225.10
415.94	225.98
416.31	227.05
416.68	228.05
417.06	229.23
417.43	230.40
417.81	231.78
418.18	233.05
418.55	234.54
418.93	236.05
419.30	237.62
419.67	239.27
420.04	240.96
420.42	242.75
420.79	244.98
421.16	247.01
421.54	249.24
421.91	251.59
422.28	253.86
422.66	256.28
423.03	258.68
423.40	261.29
423.77	264.00
424.15	266.74
424.52	269.64
424.89	272.75
425.26	275.84
425.64	278.59
426.01	281.78
426.38	285.00
426.75	288.24
427.13	291.62
427.50	295.19
427.87	298.89
428.24	302.61
428.61	306.05
428.99	309.94
429.36	314.11
429.73	318.23
430.10	322.39
430.47	326.60
430.85	331.08
431.22	335.69
431.59	340.66
431.96	345.38
432.33	350.57
432.70	355.54
433.08	361.41
433.45	367.05
433.82	372.55
434.19	378.71
434.56	384.79
434.93	390.51
435.30	396.37
435.68	402.68
436.05	408.98
436.42	415.15
436.79	420.92
437.16	427.08
437.53	433.48
437.90	439.83
438.27	446.17
438.64	452.87
439.01	458.81
439.38	464.13
439.75	469.28
440.13	475.19
440.50	480.84
440.87	485.38
441.24	490.05
441.61	495.35
441.98	499.18
442.35	503.59
442.72	508.22
443.09	512.45
443.46	515.16
443.83	516.86
444.20	518.36
444.57	520.41
444.94	521.33
445.31	522.35
445.68	523.36
446.05	523.67
446.42	522.70
446.79	521.88
447.16	520.86
447.53	520.15
447.90	517.75
448.27	515.37
448.64	511.90
449.01	509.44
449.37	505.03
449.74	500.76
450.11	495.72
450.48	490.24
450.85	484.65
451.22	479.77
451.59	475.23
451.96	470.95
452.33	465.34
452.70	460.11
453.07	453.96
453.43	447.54
453.80	441.61
454.17	435.83
454.54	430.33
454.91	424.54
455.28	418.87
455.65	413.43
456.02	407.98
456.38	403.42
456.75	397.69
457.12	393.02
457.49	388.40
457.86	384.01
458.23	380.09
458.59	375.88
458.96	371.55
459.33	367.67
459.70	363.75
460.07	360.55
460.43	357.13
460.80	353.81
461.17	351.04
461.54	348.00
461.91	345.18
462.27	342.32
462.64	339.85
463.01	337.15
463.38	334.56
463.74	331.89
464.11	329.63
464.48	327.68
464.85	325.56
465.21	324.00
465.58	322.14
465.95	320.03
466.32	318.32
466.68	316.66
467.05	314.95
467.42	313.42
467.78	311.65
468.15	309.97
468.52	308.72
468.88	307.10
469.25	305.61
469.62	304.43
469.98	303.12
470.35	302.00
470.72	300.84
471.08	299.75
471.45	298.82
471.82	297.73
472.18	296.61
472.55	295.72
472.92	294.65
473.28	293.82
473.65	293.04
474.02	292.41
474.38	291.83
474.75	291.43
475.11	290.84
475.48	290.57
475.85	290.26
476.21	289.94
476.58	289.71
476.94	289.61
477.31	289.44
477.67	289.37
478.04	289.32
478.41	289.43
478.77	289.60
479.14	289.59
479.50	289.91
479.87	290.27
480.23	290.67
480.60	291.08
480.96	291.51
481.33	292.20
481.69	292.76
482.06	293.36
482.42	293.90
482.79	294.57
483.15	295.46
483.52	296.43
483.88	297.43
484.25	298.44
484.61	299.42
484.98	300.60
485.34	302.05
485.71	303.40
486.07	304.81
486.44	306.25
486.80	307.95
487.17	309.60
487.53	311.41
487.90	313.30
488.26	315.36
488.62	317.66
488.99	319.75
489.35	322.03
489.72	324.49
490.08	327.08
490.44	329.68
490.81	332.38
491.17	335.30
491.54	338.45
491.90	341.72
492.26	345.27
492.63	348.92
492.99	352.59
493.36	356.52
493.72	360.67
494.08	364.95
494.45	369.45
494.81	374.30
495.17	379.24
495.54	384.47
495.90	389.99
496.26	395.55
496.63	401.45
496.99	407.59
497.35	414.04
497.72	420.71
498.08	427.62
498.44	434.75
498.80	442.33
499.17	450.05
499.53	458.06
499.89	466.29
500.26	474.78
500.62	483.53
500.98	492.76
501.34	502.40
501.71	512.21
502.07	522.45
502.43	532.86
502.79	543.63
503.16	554.86
503.52	566.04
503.88	577.79
504.24	589.90
504.60	602.06
504.97	614.77
505.33	627.72
505.69	641.55
506.05	655.53
506.41	669.65
506.78	684.19
507.14	698.90
507.50	714.22
507.86	729.90
508.22	745.98
508.59	762.13
508.95	778.77
509.31	795.77
509.67	813.30
510.03	830.90
510.39	849.15
510.75	867.38
511.12	886.10
511.48	905.15
511.84	924.42
512.20	943.87
512.56	963.64
512.92	983.96
513.28	1004.05
513.64	1024.66
514.00	1045.29
514.37	1066.15
514.73	1087.70
515.09	1109.09
515.45	1130.38
515.81	1151.99
516.17	1173.81
516.53	1195.49
516.89	1217.28
517.25	1239.07
517.61	1261.19
517.97	1283.13
518.33	1305.22
518.69	1327.58
519.05	1350.12
519.41	1372.95
519.77	1396.00
520.13	1418.99
520.49	1441.70
520.85	1464.97
521.21	1487.58
521.57	1511.01
521.93	1533.33
522.29	1556.39
522.65	1579.37
523.01	1602.46
523.37	1624.81
523.73	1647.42
524.09	1670.05
524.45	1692.90
524.81	1715.82
525.17	1738.97
525.53	1761.69
525.89	1784.44
526.25	1807.02
526.61	1828.34
526.97	1850.20
527.33	1871.80
527.68	1893.35
528.04	1914.85
528.40	1935.55
528.76	1956.88
529.12	1977.90
529.48	2000.28
529.84	2021.11
530.20	2042.20
530.56	2063.04
530.91	2084.73
531.27	2106.05
531.63	2126.85
531.99	2147.74
532.35	2167.61
532.71	2187.02
533.07	2206.87
533.42	2226.34
533.78	2245.76
534.14	2265.28
534.50	2283.11
534.86	2301.67
535.21	2318.94
535.57	2337.15
535.93	2354.89
536.29	2372.43
536.65	2389.60
537.00	2405.60
537.36	2421.50
537.72	2436.94
538.08	2452.69
538.44	2467.68
538.79	2482.65
539.15	2497.49
539.51	2511.78
539.87	2526.70
540.22	2540.90
540.58	2555.75
540.94	2570.15
541.29	2582.78
541.65	2594.84
542.01	2608.28
542.37	2620.62
542.72	2633.13
543.08	2644.39
543.44	2656.50
543.79	2666.98
544.15	2677.01
544.51	2687.94
544.87	2698.57
545.22	2708.10
545.58	2716.78
545.94	2725.45
546.29	2733.09
546.65	2739.99
547.01	2746.77
547.36	2753.16
547.72	2759.75
548.07	2764.90
548.43	2769.27
548.79	2773.91
549.14	2779.23
549.50	2783.36
549.86	2787.93
550.21	2792.52
550.57	2796.63
550.92	2799.43
551.28	2802.41
551.64	2805.56
551.99	2808.24
552.35	2810.10
552.70	2812.44
553.06	2815.33
553.41	2817.82
553.77	2820.40
554.13	2822.73
554.48	2824.95
554.84	2826.64
555.19	2826.90
555.55	2827.00
555.90	2827.42
556.26	2828.13
556.61	2828.15
556.97	2827.81
557.32	2827.49
557.68	2825.95
558.03	2824.60
558.39	2823.45
558.74	2823.06
559.10	2821.83
559.45	2819.82
559.81	2818.91
560.16	2817.39
560.52	2815.16
560.87	2812.34
561.23	2808.76
561.58	2806.30
561.94	2802.91
562.29	2798.91
562.64	2796.69
563.00	2794.36
563.35	2791.43
563.71	2789.17
564.06	2786.83
564.42	2784.19
564.77	2781.11
565.12	2778.97
565.48	2776.29
565.83	2773.00
566.19	2769.69
566.54	2765.64
566.89	2762.38
567.25	2758.78
567.60	2754.50
567.96	2750.46
568.31	2746.28
568.66	2742.50
569.02	2737.73
569.37	2732.96
569.72	2729.91
570.08	2725.27
570.43	2718.97
570.78	2713.57
571.14	2707.27
571.49	2700.24
571.84	2693.76
572.20	2686.82
572.55	2680.33
572.90	2673.31
573.26	2666.70
573.61	2659.21
573.96	2652.41
574.31	2644.32
574.67	2636.32
575.02	2628.04
575.37	2619.40
575.72	2610.58
576.08	2602.76
576.43	2593.63
576.78	2585.04
577.13	2576.00
577.49	2567.22
577.84	2559.47
578.19	2551.05
578.54	2543.20
578.90	2536.07
579.25	2527.39
579.60	2517.77
579.95	2507.76
580.30	2498.94
580.66	2489.93
581.01	2480.85
581.36	2471.12
581.71	2462.14
582.06	2452.91
582.42	2444.31
582.77	2434.94
583.12	2426.30
583.47	2417.41
583.82	2409.41
584.17	2400.14
584.53	2390.65
584.88	2380.67
585.23	2370.99
585.58	2361.63
585.93	2351.92
586.28	2342.55
586.63	2333.89
586.98	2325.84
587.34	2317.94
587.69	2308.39
588.04	2299.03
588.39	2290.61
588.74	2281.53
589.09	2272.64
589.44	2262.84
589.79	2254.16
590.14	2245.84
590.49	2236.47
590.84	2226.83
591.19	2217.82
591.54	2208.96
591.89	2198.60
592.25	2189.52
592.60	2180.36
592.95	2170.60
593.30	2160.75
593.65	2150.69
594.00	2141.11
594.35	2132.37
594.70	2122.62
595.05	2114.06
595.40	2105.11
595.75	2094.67
596.10	2085.85
596.45	2076.39
596.80	2068.19
597.15	2059.07
597.50	2049.60
597.85	2040.93
598.19	2032.10
598.54	2023.45
598.89	2015.20
599.24	2008.10
599.59	2000.33
599.94	1992.57
600.29	1984.83
600.64	1976.60
600.99	1967.73
601.34	1959.61
601.69	1950.26
602.04	1941.73
602.39	1933.55
602.74	1925.27
603.08	1918.33
603.43	1910.54
603.78	1902.12
604.13	1893.66
604.48	1884.89
604.83	1877.55
605.18	1870.00
605.53	1861.58
605.87	1853.22
606.22	1845.34
606.57	1836.77
606.92	1828.06
607.27	1819.70
607.62	1812.21
607.96	1805.17
608.31	1798.87
608.66	1790.66
609.01	1782.73
609.36	1774.68
609.70	1765.90
610.05	1757.83
610.40	1749.20
610.75	1740.67
611.10	1732.96
611.44	1723.51
611.79	1714.68
612.14	1705.25
612.49	1695.63
612.83	1686.93
613.18	1677.36
613.53	1667.77
613.88	1657.90
614.22	1648.74
614.57	1639.05
614.92	1628.45
615.27	1618.36
615.61	1608.16
615.96	1598.99
616.31	1590.25
616.65	1581.79
617.00	1572.80
617.35	1563.61
617.70	1554.14
618.04	1544.89
618.39	1535.33
618.74	1526.62
619.08	1518.02
619.43	1509.34
619.78	1501.01
620.12	1492.32
620.47	1483.75
620.82	1474.82
621.16	1466.48
621.51	1457.92
621.85	1449.75
622.20	1441.49
622.55	1432.79
622.89	1424.19
623.24	1415.97
623.59	1407.05
623.93	1398.05
624.28	1390.19
624.62	1381.91
624.97	1373.68
625.32	1365.46
625.66	1357.68
626.01	1350.27
626.35	1342.93
626.70	1335.16
627.04	1327.50
627.39	1319.95
627.73	1312.62
628.08	1305.32
628.43	1297.74
628.77	1290.45
629.12	1282.62
629.46	1275.85
629.81	1268.38
630.15	1260.65
630.50	1253.01
630.84	1245.37
631.19	1237.85
631.53	1230.03
631.88	1222.01
632.22	1214.06
632.57	1206.73
632.91	1198.75
633.26	1191.05
633.60	1183.24
633.95	1175.89
634.29	1168.45
634.64	1161.66
634.98	1154.34
635.32	1147.55
635.67	1141.03
636.01	1134.16
636.36	1127.16
636.70	1120.25
637.05	1113.69
637.39	1107.49
637.73	1100.78
638.08	1094.95
638.42	1088.96
638.77	1082.40
639.11	1075.96
639.45	1069.85
639.80	1063.17
640.14	1057.10
640.49	1050.63
640.83	1044.11
641.17	1037.52
641.52	1031.14
641.86	1024.02
642.20	1017.65
642.55	1010.57
642.89	1003.62
643.23	996.71
643.58	990.51
643.92	983.70
644.26	977.11
644.61	970.59
644.95	964.24
645.29	957.59
645.64	950.65
645.98	944.41
646.32	938.34
646.66	931.96
647.01	925.80
647.35	919.69
647.69	913.37
648.04	907.25
648.38	901.27
648.72	894.86
649.06	888.49
649.41	882.24
649.75	876.02
650.09	869.89
650.43	863.83
650.78	857.44
651.12	851.09
651.46	845.21
651.80	839.03
652.14	832.92
652.49	826.72
652.83	820.83
653.17	814.51
653.51	808.51
653.85	802.76
654.20	796.69
654.54	790.47
654.88	784.50
655.22	778.20
655.56	771.78
655.90	765.85
656.25	760.07
656.59	754.34
656.93	748.99
657.27	743.59
657.61	738.07
657.95	732.94
658.29	727.79
658.64	722.34
658.98	716.89
659.32	711.47
659.66	706.34
660.00	700.98
660.34	695.90
660.68	690.74
661.02	685.40
661.36	680.51
661.70	675.62
662.05	670.93
662.39	666.60
662.73	662.38
663.07	657.79
663.41	653.31
663.75	648.71
664.09	643.86
664.43	639.06
664.77	634.39
665.11	629.69
665.45	625.27
665.79	620.65
666.13	616.32
666.47	612.08
666.81	607.58
667.15	603.40
667.49	599.12
667.83	594.81
668.17	590.83
668.51	586.77
668.85	582.83
669.19	578.89
669.53	574.69
669.87	570.44
670.21	566.66
670.55	562.59
670.89	558.98
671.23	555.53
671.57	551.89
671.91	548.29
672.25	544.61
672.58	540.86
672.92	537.37
673.26	534.09
673.60	530.52
673.94	527.19
674.28	523.67
674.62	520.49
674.96	517.25
675.30	514.14
675.64	511.00
675.97	507.78
676.31	504.67
676.65	501.74
676.99	498.95
677.33	495.78
677.67	492.85
678.01	489.48
678.34	486.30
678.68	483.26
679.02	480.05
679.36	477.16
679.70	474.31
680.04	471.39
680.37	468.26
680.71	465.37
681.05	462.61
681.39	459.96
681.73	457.17
682.06	454.49
682.40	451.72
682.74	448.84
683.08	446.14
683.42	443.30
683.75	440.55
684.09	437.84
684.43	435.18
684.77	432.51
685.10	430.03
685.44	427.44
685.78	424.90
686.12	422.65
686.45	420.17
686.79	417.76
687.13	415.68
687.46	413.55
687.80	411.31
688.14	408.81
688.48	406.47
688.81	404.08
689.15	401.84
689.49	399.52
689.82	397.21
690.16	394.80
690.50	392.62
690.83	390.32
691.17	387.98
691.51	385.79
691.84	383.65
692.18	381.54
692.52	379.54
692.85	377.59
693.19	375.67
693.52	373.59
693.86	371.48
694.20	369.31
694.53	367.15
694.87	365.14
695.21	363.23
695.54	361.28
695.88	359.23
696.21	357.20
696.55	355.40
696.88	353.73
697.22	352.04
697.56	350.29
697.89	348.64
698.23	346.97
698.56	345.31
698.90	343.73
699.23	342.04
699.57	340.35
699.90	338.71
700.24	336.90
700.58	335.26
700.91	333.69
701.25	332.24
701.58	330.80
701.92	329.37
702.25	327.96
702.59	326.45
702.92	325.11
703.26	323.74
703.59	322.38
703.93	321.13
704.26	319.83
704.60	318.44
704.93	317.12
705.26	315.94
705.60	314.60
705.93	313.30
706.27	312.16
706.60	310.97
706.94	309.81
707.27	308.67
707.61	307.56
707.94	306.42
708.27	305.17
708.61	303.96
708.94	302.74
709.28	301.50
709.61	300.40
709.94	299.31
710.28	298.23
710.61	297.04
710.95	295.81
711.28	294.85
711.61	293.74
711.95	292.70
712.28	291.62
712.61	290.66
712.95	289.66
713.28	288.61
713.61	287.57
713.95	286.54
714.28	285.58
714.61	284.59
714.95	283.64
715.28	282.63
715.61	281.63
715.95	280.67
716.28	279.79
716.61	278.94
716.95	278.05
717.28	277.25
717.61	276.44
717.94	275.64
718.28	274.77
718.61	274.08
718.94	273.29
719.27	272.48
719.61	271.65
719.94	270.90
720.27	270.18
720.60	269.41
720.94	268.68
721.27	267.97
721.60	267.31
721.93	266.70
722.27	266.24
722.60	265.70
722.93	264.99
723.26	264.43
723.59	263.75
723.93	263.05
724.26	262.42
724.59	261.77
724.92	261.18
725.25	260.60
725.59	259.98
725.92	259.42
726.25	258.86
726.58	258.29
726.91	257.74
727.24	257.15
727.57	256.66
727.91	256.12
728.24	255.68
728.57	255.15
728.90	254.59
729.23	253.96
729.56	253.54
729.89	253.23
730.22	252.75
730.55	252.27
730.89	251.85
731.22	251.34
731.55	250.93
731.88	250.50
732.21	250.05
732.54	249.54
732.87	249.12
733.20	248.70
733.53	248.34
733.86	247.91
734.19	247.42
734.52	247.09
734.85	246.77
735.18	246.36
735.51	245.96
735.84	245.57
736.17	245.24
736.50	244.81
736.83	244.58
737.16	244.16
737.49	243.76
737.82	243.38
738.15	242.99
738.48	242.65
738.81	242.24
739.14	241.84
739.47	241.50
739.80	241.12
740.13	240.71
740.46	240.35
740.79	239.96
741.12	239.72
741.45	239.28
741.78	238.87
742.11	238.57
742.44	238.31
742.77	238.05
743.10	237.75
743.43	237.33
743.75	236.85
744.08	236.77
744.41	236.50
744.74	236.18
745.07	235.93
745.40	235.66
745.73	235.42
746.06	235.16
746.39	234.92
746.71	234.62
747.04	234.33
747.37	234.06
747.70	233.90
748.03	233.57
748.36	233.33
748.68	233.15
749.01	232.82
749.34	232.53
749.67	232.31
750.00	232.03
750.33	231.95
750.65	231.72
750.98	231.25
751.31	230.99
751.64	230.79
751.97	230.63
752.29	230.34
752.62	229.98
752.95	229.67
753.28	229.45
753.60	229.24
753.93	229.09
754.26	228.89
754.59	228.55
754.91	228.37
755.24	228.16
755.57	227.90
755.90	227.66
756.22	227.46
756.55	227.12
756.88	226.91
757.20	226.58
757.53	226.26
757.86	226.07
758.19	225.89
758.51	225.64
758.84	225.44
759.17	225.25
759.49	225.14
759.82	225.08
760.15	224.90
760.47	224.72
760.80	224.46
761.13	224.30
761.45	224.19
761.78	224.00
762.11	223.85
762.43	223.69
762.76	223.56
763.08	223.39
763.41	223.30
763.74	223.20
764.06	222.97
764.39	222.88
764.71	222.74
765.04	222.62
765.37	222.51
765.69	222.28
766.02	222.14
766.34	222.04
766.67	221.83
767.00	221.72
767.32	221.62
767.65	221.63
767.97	221.48
768.30	221.35
768.62	221.29
768.95	221.19
769.27	221.12
769.60	221.01
769.92	220.86
770.25	220.69
770.57	220.49
770.90	220.45
771.22	220.29
771.55	220.15
771.87	220.02
772.20	219.93
772.52	220.06
772.85	220.14
773.17	220.06
773.50	219.97
773.82	219.74
774.15	219.58
774.47	219.33
774.80	219.20
775.12	219.06
775.45	218.92
775.77	218.77
776.09	218.63
776.42	218.49
776.74	218.47
777.07	218.39
777.39	218.33
777.72	218.23
778.04	218.23
778.36	218.22
778.69	218.18
779.01	218.10
779.33	217.80
779.66	217.53
779.98	217.40
780.31	217.30
780.63	217.45
780.95	217.42
781.28	217.40
781.60	217.35
781.92	217.30
782.25	217.26
782.57	217.22
782.89	217.06
783.22	217.01
783.54	216.92
783.86	216.90
784.19	216.83
784.51	216.82
784.83	216.72
785.16	216.69
785.48	216.59
785.80	216.53
786.12	216.49
786.45	216.50
786.77	216.43
787.09	216.36
787.42	216.21
787.74	216.20
788.06	216.12
788.38	216.10
788.71	216.04
789.03	215.88
789.35	215.83
789.67	215.88
789.99	215.91
790.32	215.81
790.64	215.81
790.96	215.85
791.28	215.73
791.61	215.67
791.93	215.49
792.25	215.42
792.57	215.51
792.89	215.46
793.21	215.43
793.54	215.38
793.86	215.40
794.18	215.34
794.50	215.23
794.82	215.22
795.14	215.20
795.47	215.11
795.79	215.11
796.11	215.05
796.43	214.99
796.75	214.88
797.07	214.91
797.39	214.80
797.71	214.70
798.04	214.68
798.36	214.65
798.68	214.62
799.00	214.66
799.32	214.49
799.64	214.56
799.96	214.51
800.28	214.54
800.60	214.49
800.92	214.55
801.24	214.52
801.56	214.54
801.89	214.41
802.21	214.44
802.53	214.44
802.85	214.42
803.17	214.51
803.49	214.44
803.81	214.37
804.13	214.33
804.45	214.29
804.77	214.24
805.09	214.21
805.41	214.25
805.73	214.10
806.05	214.04
806.37	213.84
806.69	213.77
807.01	213.70
807.33	213.67
807.65	213.46
807.97	213.46
808.28	213.38
808.60	213.43
808.92	213.38
809.24	213.40
809.56	213.41
809.88	213.29
810.20	213.29
810.52	213.29
810.84	213.27
811.16	213.26
811.48	213.27
811.80	213.35
812.12	213.30
812.43	213.35
812.75	213.35
813.07	213.44
813.39	213.40
813.71	213.36
814.03	213.31
814.35	213.34
814.67	213.34
814.98	213.34
815.30	213.20
815.62	213.15
815.94	213.05
816.26	212.98
816.58	212.90
816.89	212.90
817.21	212.85
817.53	212.89
817.85	212.88
818.17	212.88
818.48	212.75
818.80	212.71
819.12	212.67
819.44	212.66
819.76	212.58
820.07	212.54
820.39	212.45
820.71	212.47
821.03	212.48
821.34	212.41
821.66	212.43
821.98	212.53
822.30	212.50
822.61	212.58
822.93	212.48
823.25	212.45
823.57	212.37
823.88	212.41
824.20	212.32
824.52	212.26
824.83	212.20
825.15	212.13
825.47	212.18
825.79	212.16
826.10	212.18
826.42	212.13
826.74	212.25
827.05	212.32
827.37	212.26
827.69	212.27
828.00	212.29
828.32	212.23
828.64	212.16
828.95	212.32
829.27	212.23
829.58	212.32
829.90	212.39
830.22	212.39
830.53	212.35
830.85	212.36
831.17	212.36
831.48	212.41
831.80	212.46
832.11	212.42
832.43	212.41
832.75	212.38
833.06	212.57
833.38	212.46
833.69	212.40
834.01	212.44
834.32	212.40
834.64	212.38
834.96	212.45
835.27	212.45
835.59	212.42
835.90	212.40
836.22	212.44
836.53	212.35
836.85	212.43
837.16	212.59
837.48	212.53
837.79	212.62
838.11	212.52
838.42	212.52
838.74	212.51
839.05	212.53
839.37	212.53
839.68	212.39
840.00	212.41
840.31	212.48
840.63	212.49
840.94	212.42
841.26	212.45
841.57	212.38
841.88	212.46
842.20	212.40
842.51	212.43
842.83	212.38
843.14	212.62
843.46	212.61
843.77	212.55
844.08	212.58
844.40	212.47
844.71	212.54
845.03	212.53
845.34	212.59
845.65	212.60
845.97	212.61
846.28	212.61
846.60	212.63
846.91	212.53
847.22	212.48
847.54	212.57
847.85	212.51
848.16	212.46
848.48	212.30
848.79	212.36
849.10	212.30
849.42	212.24
849.73	212.01
850.04	211.90
850.36	211.79
850.67	211.80
850.98	211.86
851.30	211.84
851.61	211.85
851.92	211.78
852.23	211.78
852.55	211.74
852.86	211.70
853.17	211.71
853.49	211.75
853.80	211.74
854.11	211.74
854.42	211.80
854.74	211.82
855.05	211.88
855.36	211.79
855.67	211.80
855.99	211.81
856.30	211.98
856.61	212.02
856.92	212.06
857.23	212.07
857.55	211.95
857.86	211.93
858.17	211.97
858.48	212.00
858.79	211.92
859.11	211.92
859.42	211.89
859.73	211.82
860.04	211.83
860.35	211.81
860.66	211.68
860.98	211.72
861.29	211.71
861.60	211.71
861.91	211.73
862.22	211.74
862.53	211.71
862.84	211.51
863.16	211.61
863.47	211.54
863.78	211.51
864.09	211.58
864.40	211.62
864.71	211.56
865.02	211.52
865.33	211.55
865.64	211.53
865.95	211.51
866.27	211.68
866.58	211.67
866.89	211.67
867.20	211.74
867.51	211.61
867.82	211.59
868.13	211.60
868.44	211.55
868.75	211.53
869.06	211.63
869.37	211.70
869.68	211.56
869.99	211.59
870.30	211.56
870.61	211.56
870.92	211.51
871.23	211.46
871.54	211.48
871.85	211.55
872.16	211.60
872.47	211.60
872.78	211.44
873.09	211.40
873.40	211.35
873.71	211.37
874.02	211.38
874.33	211.41
874.64	211.41
874.95	211.46
875.26	211.46
875.56	211.42
875.87	211.39
876.18	211.42
876.49	211.53
876.80	211.54
877.11	211.58
877.42	211.57
877.73	211.57
878.04	211.60
878.35	211.55
878.66	211.55
878.96	211.58
879.27	211.65
879.58	211.70
879.89	211.70
880.20	211.74
880.51	211.75
880.82	211.70
881.12	211.75
881.43	211.70
881.74	211.73
882.05	211.69
882.36	211.71
882.67	211.75
882.97	211.67
883.28	211.71
883.59	211.64
883.90	211.71
884.21	211.75
884.51	211.68
884.82	211.67
885.13	211.67
885.44	211.68
885.74	211.60
886.05	211.60
886.36	211.69
886.67	211.58
886.98	211.66
887.28	211.70
887.59	211.63
887.90	211.68
888.20	211.56
888.51	211.63
888.82	211.58
889.13	211.54
889.43	211.61
889.74	211.55
890.05	211.56
890.35	211.50
890.66	211.46
890.97	211.45
891.28	211.42
891.58	211.34
891.89	211.26
892.20	211.21
892.50	211.12
892.81	211.05
893.12	211.04
893.42	210.94
893.73	210.95
894.04	210.91
894.34	210.88
894.65	210.92
894.95	210.82
895.26	210.87
895.57	210.95
895.87	210.72
896.18	210.68
896.48	210.68
896.79	210.63
897.10	210.65
897.40	210.62
897.71	210.52
898.01	210.57
898.32	210.61
898.63	210.75
898.93	210.85
899.24	210.86
899.54	210.86
899.85	210.85
900.15	210.89
900.46	210.88
900.76	210.88
901.07	210.94
901.38	210.96
901.68	210.93
901.99	210.79
902.29	210.92
902.60	210.98
902.90	210.96
903.21	211.01
903.51	211.10
903.82	211.16
904.12	211.27
904.43	211.25
904.73	211.25
905.03	211.18
905.34	211.34
905.64	211.34
905.95	211.33
906.25	211.34
906.56	211.25
906.86	211.27
907.17	211.25
907.47	211.22
907.77	211.27
908.08	211.27
908.38	211.35
908.69	211.36
908.99	211.39
909.30	211.39
909.60	211.32
909.90	211.24
910.21	211.21
910.51	211.16
910.81	211.16
911.12	211.17
911.42	211.17
911.73	210.98
912.03	210.95
912.33	210.98
912.64	210.94
912.94	210.99
913.24	210.98
913.55	210.99
913.85	210.99
914.15	211.01
914.46	210.99
914.76	210.89
915.06	210.84
915.37	210.83
915.67	210.88
915.97	210.95
916.27	210.92
916.58	210.92
916.88	210.90
917.18	210.88
917.49	211.04
917.79	211.00
918.09	211.03
918.39	211.09
918.70	211.05
919.00	211.14
919.30	211.20
919.60	211.20
919.91	211.23
920.21	211.18
920.51	211.20
920.81	211.14
921.12	211.28
921.42	211.32
921.72	211.32
922.02	211.27
922.32	211.27
922.63	211.32
922.93	211.34
923.23	211.30
923.53	211.25
923.83	211.07
924.13	211.06
924.44	210.99
924.74	211.08
925.04	211.16
925.34	211.13
925.64	211.04
925.94	211.04
926.24	211.11
926.55	211.08
926.85	211.00
927.15	210.98
927.45	210.92
927.75	210.89
928.05	210.84
928.35	210.79
928.65	210.74
928.95	210.71
929.26	210.72
929.56	210.84
929.86	210.89
930.16	210.90
930.46	210.92
930.76	210.99
931.06	210.86
931.36	210.81
931.66	210.85
931.96	210.85
932.26	210.79
932.56	210.69
932.86	210.72
933.16	210.69
933.46	210.73
933.76	210.73
934.06	210.74
934.36	210.87
934.66	210.87
934.96	210.90
935.26	210.92
935.56	210.95
935.86	210.83
936.16	210.83
936.46	210.80
936.76	210.83
937.06	210.81
937.36	210.78
937.66	210.77
937.96	210.79
938.26	210.75
938.56	210.80
938.86	210.77
939.16	210.80
939.46	210.78
939.76	210.85
940.06	210.82
940.35	210.80
940.65	210.68
940.95	210.72
941.25	210.64
941.55	210.62
941.85	210.61
942.15	210.73
942.45	210.79
942.75	210.83
943.04	210.83
943.34	210.87
943.64	210.93
943.94	210.89
944.24	210.83
944.54	210.89
944.84	210.88
945.13	210.91
945.43	210.95
945.73	211.05
946.03	210.99
946.33	210.94
946.62	210.89
946.92	210.91
947.22	210.93
947.52	210.93
947.82	210.91
948.11	210.90
948.41	210.83
948.71	210.79
949.01	210.80
949.31	210.79
949.60	210.79
949.90	210.79
950.20	210.85
950.50	210.83
950.79	210.76
951.09	210.80
951.39	210.74
951.69	210.70
951.98	210.63
952.28	210.65
952.58	210.71
952.87	210.73
953.17	210.72
953.47	210.68
953.76	210.70
954.06	210.74
954.36	210.71
954.66	210.78
954.95	210.82
955.25	210.81
955.55	210.81
955.84	210.67
956.14	210.67
956.44	210.60
956.73	210.55
957.03	210.63
957.32	210.63
957.62	210.61
957.92	210.66
958.21	210.67
958.51	210.90
958.81	210.90
959.10	210.90
959.40	210.94
959.69	210.94
959.99	210.98
960.29	210.92
960.58	210.90
960.88	210.96
961.17	210.94
961.47	210.92
961.76	210.83
962.06	210.90
962.36	210.90
962.65	210.98
962.95	211.05
963.24	211.03
963.54	211.01
963.83	211.03
964.13	210.94
964.42	210.97
964.72	210.80
965.01	210.78
965.31	210.79
965.60	210.79
965.90	210.90
966.19	210.88
966.49	210.93
966.78	210.92
967.08	210.81
967.37	210.77
967.67	210.79
967.96	210.86
968.26	210.89
968.55	210.85
968.85	210.82
969.14	210.78
969.43	210.75
969.73	210.75
970.02	210.79
970.32	210.88
970.61	210.81
970.91	210.73
971.20	210.75
971.49	210.76
971.79	210.80
972.08	210.76
972.38	210.75
972.67	210.76
972.96	210.82
973.26	210.83
973.55	210.93
973.85	210.90
974.14	210.89
974.43	210.95
974.73	210.94
975.02	210.90
975.31	210.89
975.61	210.89
975.90	210.88
976.19	210.85
976.49	210.85
976.78	210.86
977.07	210.93
977.37	210.94
977.66	210.91
977.95	210.89
978.24	210.84
978.54	210.95
978.83	210.97
979.12	210.97
979.42	210.96
979.71	210.91
980.00	210.90
980.29	210.91
980.59	210.84
980.88	210.99
981.17	211.02
981.46	211.07
981.76	211.08
982.05	211.13
982.34	211.16
982.63	211.12
982.93	211.19
983.22	211.22
983.51	211.14
983.80	211.19
984.09	211.14
984.39	211.08
984.68	211.03
984.97	211.01
985.26	210.92
985.55	210.91
985.85	210.89
986.14	210.95
986.43	210.95
986.72	210.92
987.01	210.78
987.30	210.74
987.59	210.75
987.89	210.76
988.18	210.69
988.47	210.69
988.76	210.67
989.05	210.63
989.34	210.57
989.63	210.67
989.92	210.59
990.22	210.58
990.51	210.55
990.80	210.48
991.09	210.52
991.38	210.54
991.67	210.52
991.96	210.51
992.25	210.54
992.54	210.51
992.83	210.52
993.12	210.59
993.41	210.68
993.70	210.70
993.99	210.66
994.28	210.62
994.58	210.61
994.87	210.61
995.16	210.54
995.45	210.50
995.74	210.44
996.03	210.52
996.32	210.56
996.61	210.61
996.90	210.60
997.19	210.60
997.48	210.66
997.77	210.62
998.06	210.59
998.34	210.52
998.63	210.49
998.92	210.49
999.21	210.46
999.50	210.46
999.79	210.40
1000.08	210.41
1000.37	210.45
1000.66	210.43
1000.95	210.47
1001.24	210.53
1001.53	210.59
1001.82	210.64
1002.11	210.60
1002.40	210.64
1002.68	210.63
1002.97	210.71
1003.26	210.67
1003.55	210.60
1003.84	210.66
1004.13	210.73
1004.42	210.78
1004.71	210.83
1004.99	210.87
1005.28	210.86
1005.57	210.80
1005.86	210.77
1006.15	210.74
1006.44	210.79
1006.72	210.79
1007.01	210.80
1007.30	210.81
1007.59	210.70
1007.88	210.62
1008.17	210.62
1008.45	210.49
1008.74	210.49
1009.03	210.47
1009.32	210.42
1009.60	210.47
1009.89	210.46
1010.18	210.40
1010.47	210.37
1010.76	210.31
1011.04	210.31
1011.33	210.35
1011.62	210.36
1011.91	210.44
1012.19	210.50
1012.48	210.49
1012.77	210.57
1013.05	210.61
1013.34	210.60
1013.63	210.74
1013.92	210.78
1014.20	210.76
1014.49	210.89
1014.78	210.93
1015.06	210.83
1015.35	210.87
1015.64	210.87
1015.92	210.89
1016.21	210.90
1016.50	210.90
1016.78	210.92
1017.07	210.87
1017.36	210.76
1017.64	210.71
1017.93	210.74
1018.22	210.68
1018.50	210.67
1018.79	210.62
1019.08	210.60
1019.36	210.62
1019.65	210.57
1019.93	210.65
1020.22	210.65
1020.51	210.72
1020.79	210.76
1021.08	210.00
1021.36	210.60
1021.65	210.95
1021.94	211.55
1022.22	211.45
1022.51	210.50
1022.79	212.30
1023.08	210.40
1023.36	212.95
1023.65	211.50
>>>>>End Processed Spectral Data<<<<<
