SpectraSuite Data File
++++++++++++++++++++++++++++++++++++
Date: Mon Feb 25 17:32:03 EST 2013
User: group
Dark Spectrum Present: No
Reference Spectrum Present: No
Number of Sampled Component Spectra: 1
Spectrometers: USB2E7196
Integration Time (usec): 52000 (USB2E7196)
Spectra Averaged: 20 (USB2E7196)
Boxcar Smoothing: 10 (USB2E7196)
Correct for Electrical Dark: No (USB2E7196)
Strobe/Lamp Enabled: No (USB2E7196)
Correct for Detector Non-linearity: No (USB2E7196)
Correct for Stray Light: No (USB2E7196)
Number of Pixels in Processed Spectrum: 2048
>>>>>Begin Processed Spectral Data<<<<<
339.09	0.00
339.48	199.30
339.86	200.10
340.24	200.70
340.63	204.05
341.01	207.85
341.39	206.30
341.78	207.20
342.16	209.25
342.54	208.80
342.93	198.45
343.31	208.47
343.69	209.01
344.07	209.55
344.46	210.06
344.84	210.37
345.22	210.47
345.60	210.67
345.99	210.82
346.37	210.96
346.75	211.11
347.13	211.15
347.52	211.28
347.90	211.37
348.28	211.36
348.66	211.38
349.05	211.33
349.43	211.40
349.81	211.39
350.19	211.51
350.57	211.59
350.96	211.60
351.34	211.70
351.72	211.73
352.10	211.78
352.48	211.79
352.87	211.87
353.25	211.99
353.63	212.08
354.01	212.20
354.39	212.21
354.77	212.28
355.15	212.38
355.54	212.37
355.92	212.42
356.30	212.52
356.68	212.72
357.06	212.87
357.44	212.87
357.82	212.97
358.20	212.99
358.58	212.97
358.97	213.08
359.35	213.22
359.73	213.38
360.11	213.42
360.49	213.48
360.87	213.54
361.25	213.60
361.63	213.74
362.01	213.81
362.39	213.83
362.77	213.90
363.15	213.94
363.53	213.97
363.91	213.96
364.29	214.03
364.67	213.86
365.05	213.82
365.43	213.85
365.81	213.86
366.19	213.84
366.57	213.94
366.95	213.94
367.33	213.85
367.71	213.89
368.09	213.96
368.47	213.95
368.85	213.98
369.23	214.02
369.61	213.86
369.99	213.85
370.37	213.93
370.75	213.97
371.13	213.90
371.51	213.86
371.89	213.85
372.27	213.81
372.65	213.76
373.03	213.77
373.41	213.74
373.78	213.72
374.16	213.69
374.54	213.66
374.92	213.57
375.30	213.50
375.68	213.38
376.06	213.27
376.44	213.26
376.82	213.23
377.19	213.11
377.57	213.13
377.95	213.01
378.33	212.91
378.71	212.74
379.09	212.71
379.47	212.59
379.84	212.54
380.22	212.47
380.60	212.48
380.98	212.32
381.36	212.25
381.73	212.17
382.11	212.12
382.49	212.07
382.87	212.08
383.25	212.06
383.62	212.14
384.00	212.11
384.38	212.02
384.76	212.04
385.13	212.03
385.51	212.02
385.89	211.98
386.27	211.93
386.64	211.87
387.02	211.86
387.40	211.86
387.78	211.82
388.15	211.80
388.53	211.80
388.91	211.82
389.29	211.77
389.66	211.78
390.04	211.71
390.42	211.67
390.79	211.64
391.17	211.61
391.55	211.42
391.92	211.34
392.30	211.40
392.68	211.29
393.05	211.35
393.43	211.33
393.81	211.37
394.18	211.38
394.56	211.47
394.94	211.47
395.31	211.45
395.69	211.48
396.06	211.52
396.44	211.53
396.82	211.57
397.19	211.71
397.57	211.67
397.95	211.88
398.32	211.88
398.70	211.88
399.07	211.96
399.45	211.97
399.82	212.05
400.20	212.08
400.58	212.10
400.95	212.01
401.33	212.08
401.70	212.21
402.08	212.29
402.45	212.34
402.83	212.46
403.20	212.57
403.58	212.65
403.95	212.79
404.33	212.89
404.71	212.95
405.08	213.17
405.46	213.30
405.83	213.25
406.21	213.39
406.58	213.54
406.96	213.73
407.33	213.98
407.70	214.19
408.08	214.50
408.45	214.68
408.83	214.91
409.20	215.09
409.58	215.29
409.95	215.57
410.33	215.90
410.70	216.08
411.08	216.42
411.45	216.76
411.82	217.00
412.20	217.34
412.57	217.91
412.95	218.21
413.32	218.78
413.69	219.36
414.07	219.90
414.44	220.54
414.82	221.13
415.19	221.85
415.56	222.59
415.94	223.28
416.31	224.24
416.68	225.27
417.06	226.28
417.43	227.25
417.81	228.35
418.18	229.36
418.55	230.64
418.93	231.93
419.30	233.27
419.67	234.71
420.04	236.23
420.42	237.63
420.79	239.39
421.16	241.04
421.54	242.93
421.91	244.74
422.28	246.64
422.66	248.60
423.03	250.57
423.40	252.58
423.77	254.73
424.15	256.96
424.52	259.21
424.89	261.75
425.26	264.17
425.64	266.45
426.01	269.07
426.38	271.78
426.75	274.54
427.13	277.34
427.50	280.23
427.87	283.31
428.24	286.38
428.61	289.34
428.99	292.63
429.36	295.90
429.73	299.44
430.10	302.81
430.47	306.32
430.85	310.04
431.22	313.99
431.59	318.22
431.96	322.04
432.33	326.29
432.70	330.45
433.08	335.33
433.45	339.96
433.82	344.49
434.19	349.54
434.56	354.45
434.93	359.15
435.30	364.02
435.68	369.22
436.05	374.36
436.42	379.43
436.79	384.00
437.16	389.07
437.53	394.29
437.90	399.55
438.27	404.73
438.64	409.91
439.01	414.82
439.38	419.06
439.75	423.37
440.13	428.18
440.50	432.78
440.87	436.47
441.24	440.27
441.61	444.46
441.98	447.37
442.35	451.01
442.72	454.68
443.09	458.05
443.46	460.04
443.83	461.46
444.20	462.62
444.57	464.50
444.94	465.35
445.31	466.12
445.68	466.86
446.05	467.09
446.42	466.42
446.79	465.52
447.16	464.69
447.53	464.02
447.90	461.99
448.27	459.74
448.64	456.79
449.01	454.62
449.37	450.99
449.74	447.68
450.11	443.56
450.48	439.03
450.85	434.43
451.22	430.56
451.59	426.86
451.96	423.25
452.33	418.37
452.70	414.11
453.07	408.98
453.43	403.81
453.80	398.88
454.17	394.23
454.54	389.84
454.91	385.04
455.28	380.33
455.65	375.93
456.02	371.75
456.38	368.10
456.75	363.59
457.12	359.79
457.49	355.92
457.86	352.11
458.23	348.88
458.59	345.45
458.96	341.92
459.33	338.75
459.70	335.69
460.07	333.24
460.43	330.38
460.80	327.80
461.17	325.44
461.54	322.93
461.91	320.65
462.27	318.34
462.64	316.39
463.01	314.27
463.38	312.11
463.74	309.85
464.11	307.91
464.48	306.30
464.85	304.55
465.21	303.18
465.58	301.84
465.95	300.19
466.32	298.74
466.68	297.36
467.05	295.99
467.42	294.56
467.78	293.15
468.15	291.76
468.52	290.74
468.88	289.52
469.25	288.45
469.62	287.43
469.98	286.42
470.35	285.48
470.72	284.52
471.08	283.63
471.45	282.98
471.82	282.35
472.18	281.49
472.55	280.92
472.92	280.29
473.28	279.69
473.65	279.15
474.02	278.68
474.38	278.27
474.75	277.89
475.11	277.54
475.48	277.25
475.85	277.06
476.21	276.85
476.58	276.69
476.94	276.61
477.31	276.56
477.67	276.49
478.04	276.58
478.41	276.79
478.77	277.11
479.14	277.20
479.50	277.38
479.87	277.67
480.23	277.97
480.60	278.35
480.96	278.75
481.33	279.41
481.69	280.05
482.06	280.60
482.42	281.20
482.79	281.96
483.15	282.79
483.52	283.75
483.88	284.70
484.25	285.69
484.61	286.76
484.98	287.94
485.34	289.29
485.71	290.61
486.07	291.97
486.44	293.20
486.80	294.73
487.17	296.28
487.53	298.07
487.90	300.00
488.26	301.84
488.62	303.89
488.99	305.90
489.35	308.00
489.72	310.36
490.08	312.81
490.44	315.25
490.81	317.92
491.17	320.56
491.54	323.55
491.90	326.45
492.26	329.67
492.63	332.96
492.99	336.31
493.36	339.91
493.72	343.77
494.08	347.86
494.45	352.14
494.81	356.65
495.17	361.18
495.54	365.96
495.90	371.03
496.26	376.28
496.63	381.80
496.99	387.55
497.35	393.43
497.72	399.57
498.08	406.06
498.44	412.77
498.80	419.93
499.17	427.19
499.53	434.83
499.89	442.75
500.26	450.90
500.62	459.24
500.98	468.07
501.34	477.13
501.71	486.37
502.07	495.98
502.43	505.98
502.79	516.34
503.16	526.93
503.52	537.81
503.88	548.95
504.24	560.43
504.60	572.26
504.97	584.67
505.33	597.45
505.69	610.61
506.05	624.16
506.41	637.77
506.78	651.62
507.14	665.73
507.50	680.23
507.86	695.26
508.22	710.65
508.59	726.12
508.95	742.22
509.31	758.60
509.67	775.30
510.03	792.08
510.39	809.54
510.75	827.18
511.12	845.23
511.48	863.40
511.84	882.08
512.20	900.67
512.56	919.74
512.92	939.10
513.28	958.66
513.64	978.24
514.00	997.97
514.37	1017.84
514.73	1038.58
515.09	1059.34
515.45	1080.17
515.81	1101.34
516.17	1122.45
516.53	1143.59
516.89	1164.95
517.25	1186.44
517.61	1207.97
517.97	1229.26
518.33	1250.63
518.69	1272.25
519.05	1294.18
519.41	1316.24
519.77	1338.70
520.13	1360.60
520.49	1382.41
520.85	1405.06
521.21	1427.48
521.57	1450.38
521.93	1472.90
522.29	1495.64
522.65	1518.14
523.01	1540.35
523.37	1562.17
523.73	1584.58
524.09	1606.67
524.45	1628.85
524.81	1651.19
525.17	1673.73
525.53	1696.20
525.89	1718.73
526.25	1740.77
526.61	1761.94
526.97	1783.50
527.33	1804.93
527.68	1826.28
528.04	1847.42
528.40	1867.54
528.76	1888.07
529.12	1908.58
529.48	1930.24
529.84	1950.29
530.20	1970.29
530.56	1990.79
530.91	2011.42
531.27	2031.68
531.63	2051.65
531.99	2071.43
532.35	2090.26
532.71	2109.10
533.07	2128.33
533.42	2146.55
533.78	2165.28
534.14	2183.75
534.50	2200.68
534.86	2218.14
535.21	2234.48
535.57	2252.08
535.93	2269.16
536.29	2285.93
536.65	2302.40
537.00	2317.10
537.36	2332.37
537.72	2347.67
538.08	2362.75
538.44	2377.87
538.79	2393.13
539.15	2407.47
539.51	2421.93
539.87	2437.13
540.22	2451.26
540.58	2466.03
540.94	2480.40
541.29	2493.26
541.65	2505.35
542.01	2518.40
542.37	2530.20
542.72	2542.53
543.08	2553.40
543.44	2565.07
543.79	2575.23
544.15	2585.51
544.51	2596.41
544.87	2607.37
545.22	2616.23
545.58	2624.48
545.94	2631.56
546.29	2637.78
546.65	2644.29
547.01	2650.10
547.36	2655.31
547.72	2660.69
548.07	2664.58
548.43	2668.31
548.79	2671.78
549.14	2676.26
549.50	2680.59
549.86	2684.60
550.21	2689.06
550.57	2692.83
550.92	2695.14
551.28	2697.65
551.64	2699.91
551.99	2702.12
552.35	2703.56
552.70	2706.41
553.06	2708.85
553.41	2711.57
553.77	2714.56
554.13	2716.55
554.48	2718.73
554.84	2720.03
555.19	2720.53
555.55	2720.84
555.90	2721.39
556.26	2722.02
556.61	2722.16
556.97	2720.86
557.32	2720.26
557.68	2717.90
558.03	2716.69
558.39	2715.09
558.74	2714.82
559.10	2713.40
559.45	2711.90
559.81	2710.31
560.16	2707.75
560.52	2705.51
560.87	2702.60
561.23	2698.55
561.58	2696.15
561.94	2692.89
562.29	2689.44
562.64	2687.48
563.00	2685.02
563.35	2682.36
563.71	2680.56
564.06	2678.30
564.42	2676.31
564.77	2674.09
565.12	2672.79
565.48	2669.47
565.83	2666.58
566.19	2663.10
566.54	2659.04
566.89	2654.84
567.25	2651.14
567.60	2647.64
567.96	2644.01
568.31	2640.64
568.66	2636.71
569.02	2632.22
569.37	2627.07
569.72	2623.19
570.08	2617.68
570.43	2611.79
570.78	2606.37
571.14	2599.80
571.49	2593.32
571.84	2587.25
572.20	2580.09
572.55	2573.06
572.90	2566.46
573.26	2559.80
573.61	2552.58
573.96	2546.20
574.31	2538.52
574.67	2530.39
575.02	2522.12
575.37	2513.37
575.72	2504.23
576.08	2496.49
576.43	2487.70
576.78	2480.03
577.13	2471.98
577.49	2463.78
577.84	2456.22
578.19	2448.58
578.54	2441.44
578.90	2434.40
579.25	2425.76
579.60	2416.72
579.95	2407.38
580.30	2399.03
580.66	2390.84
581.01	2381.84
581.36	2372.32
581.71	2363.99
582.06	2356.00
582.42	2347.70
582.77	2338.72
583.12	2329.86
583.47	2321.35
583.82	2313.09
584.17	2303.87
584.53	2294.90
584.88	2286.25
585.23	2277.03
585.58	2267.54
585.93	2257.99
586.28	2248.88
586.63	2240.05
586.98	2232.11
587.34	2224.20
587.69	2215.29
588.04	2206.19
588.39	2198.32
588.74	2189.74
589.09	2181.13
589.44	2171.51
589.79	2162.91
590.14	2155.06
590.49	2146.85
590.84	2137.97
591.19	2130.23
591.54	2121.81
591.89	2111.68
592.25	2102.69
592.60	2093.28
592.95	2084.03
593.30	2074.68
593.65	2064.96
594.00	2055.39
594.35	2046.78
594.70	2037.83
595.05	2028.97
595.40	2020.15
595.75	2010.15
596.10	2001.83
596.45	1993.18
596.80	1985.42
597.15	1977.23
597.50	1967.97
597.85	1959.63
598.19	1951.09
598.54	1942.32
598.89	1934.57
599.24	1927.96
599.59	1920.45
599.94	1913.60
600.29	1905.83
600.64	1897.96
600.99	1889.47
601.34	1882.72
601.69	1874.11
602.04	1865.68
602.39	1858.00
602.74	1850.22
603.08	1843.84
603.43	1836.64
603.78	1828.91
604.13	1820.67
604.48	1812.63
604.83	1806.09
605.18	1799.26
605.53	1791.61
605.87	1783.98
606.22	1776.69
606.57	1769.04
606.92	1761.20
607.27	1753.19
607.62	1745.98
607.96	1739.14
608.31	1733.12
608.66	1725.19
609.01	1718.00
609.36	1710.37
609.70	1702.42
610.05	1694.70
610.40	1686.46
610.75	1677.89
611.10	1670.22
611.44	1661.37
611.79	1652.68
612.14	1643.23
612.49	1633.64
612.83	1625.12
613.18	1615.64
613.53	1606.34
613.88	1596.52
614.22	1587.41
614.57	1578.11
614.92	1568.84
615.27	1559.33
615.61	1549.37
615.96	1540.48
616.31	1532.09
616.65	1524.43
617.00	1516.35
617.35	1507.94
617.70	1499.17
618.04	1490.46
618.39	1481.37
618.74	1473.33
619.08	1464.57
619.43	1456.47
619.78	1448.80
620.12	1440.62
620.47	1433.19
620.82	1424.53
621.16	1416.41
621.51	1408.11
621.85	1400.17
622.20	1391.67
622.55	1383.53
622.89	1375.70
623.24	1367.78
623.59	1358.79
623.93	1350.14
624.28	1341.72
624.62	1333.53
624.97	1325.38
625.32	1317.59
625.66	1310.05
626.01	1302.67
626.35	1295.54
626.70	1288.08
627.04	1280.54
627.39	1272.95
627.73	1265.05
628.08	1258.38
628.43	1251.12
628.77	1243.81
629.12	1236.44
629.46	1229.71
629.81	1222.21
630.15	1214.88
630.50	1207.56
630.84	1200.70
631.19	1193.66
631.53	1186.94
631.88	1179.46
632.22	1172.04
632.57	1165.00
632.91	1157.63
633.26	1149.88
633.60	1142.75
633.95	1135.84
634.29	1128.63
634.64	1122.10
634.98	1115.36
635.32	1108.21
635.67	1101.71
636.01	1095.06
636.36	1088.30
636.70	1081.85
637.05	1075.48
637.39	1069.29
637.73	1062.98
638.08	1057.20
638.42	1051.53
638.77	1044.96
639.11	1038.92
639.45	1033.10
639.80	1026.74
640.14	1020.43
640.49	1014.47
640.83	1008.32
641.17	1001.96
641.52	996.07
641.86	989.59
642.20	983.52
642.55	976.91
642.89	970.46
643.23	964.25
643.58	958.33
643.92	951.78
644.26	945.86
644.61	939.68
644.95	933.63
645.29	927.14
645.64	920.30
645.98	914.20
646.32	908.19
646.66	901.90
647.01	895.92
647.35	890.07
647.69	883.74
648.04	877.77
648.38	871.85
648.72	865.85
649.06	859.80
649.41	853.74
649.75	848.03
650.09	842.37
650.43	836.50
650.78	830.34
651.12	824.39
651.46	818.32
651.80	812.45
652.14	806.47
652.49	800.66
652.83	794.95
653.17	788.90
653.51	783.21
653.85	777.69
654.20	771.97
654.54	766.06
654.88	760.62
655.22	754.75
655.56	748.98
655.90	743.00
656.25	737.34
656.59	731.78
656.93	726.70
657.27	721.39
657.61	715.94
657.95	710.91
658.29	705.89
658.64	700.98
658.98	695.74
659.32	690.37
659.66	685.30
660.00	680.05
660.34	674.89
660.68	669.68
661.02	664.57
661.36	659.81
661.70	655.30
662.05	650.85
662.39	646.75
662.73	642.55
663.07	638.39
663.41	634.03
663.75	629.56
664.09	624.75
664.43	620.13
664.77	615.89
665.11	611.38
665.45	607.06
665.79	602.66
666.13	598.40
666.47	594.27
666.81	590.24
667.15	586.25
667.49	582.52
667.83	578.64
668.17	574.78
668.51	570.87
668.85	566.95
669.19	563.19
669.53	559.13
669.87	554.98
670.21	551.05
670.55	547.23
670.89	543.75
671.23	540.45
671.57	536.97
671.91	533.32
672.25	529.95
672.58	526.50
672.92	523.00
673.26	519.84
673.60	516.53
673.94	513.13
674.28	509.87
674.62	506.65
674.96	503.43
675.30	500.45
675.64	497.25
675.97	494.20
676.31	491.19
676.65	488.27
676.99	485.59
677.33	482.60
677.67	479.71
678.01	476.70
678.34	473.79
678.68	470.98
679.02	468.11
679.36	465.22
679.70	462.32
680.04	459.51
680.37	456.48
680.71	453.78
681.05	451.09
681.39	448.40
681.73	445.71
682.06	443.30
682.40	440.69
682.74	438.23
683.08	435.72
683.42	432.98
683.75	430.51
684.09	427.95
684.43	425.56
684.77	423.16
685.10	420.66
685.44	418.04
685.78	415.48
686.12	413.15
686.45	410.78
686.79	408.56
687.13	406.41
687.46	404.32
687.80	402.29
688.14	400.05
688.48	397.93
688.81	395.75
689.15	393.41
689.49	391.14
689.82	388.96
690.16	386.58
690.50	384.43
690.83	382.10
691.17	379.84
691.51	377.69
691.84	375.50
692.18	373.48
692.52	371.53
692.85	369.77
693.19	368.05
693.52	366.21
693.86	364.37
694.20	362.53
694.53	360.62
694.87	358.58
695.21	356.62
695.54	354.70
695.88	352.85
696.21	351.12
696.55	349.34
696.88	347.56
697.22	345.88
697.56	344.29
697.89	342.63
698.23	340.97
698.56	339.39
698.90	337.94
699.23	336.25
699.57	334.76
699.90	333.15
700.24	331.38
700.58	329.79
700.91	328.19
701.25	326.76
701.58	325.33
701.92	323.94
702.25	322.65
702.59	321.31
702.92	319.91
703.26	318.53
703.59	317.33
703.93	316.16
704.26	314.92
704.60	313.71
704.93	312.51
705.26	311.37
705.60	310.13
705.93	308.91
706.27	307.82
706.60	306.68
706.94	305.53
707.27	304.42
707.61	303.31
707.94	302.26
708.27	301.06
708.61	299.87
708.94	298.77
709.28	297.61
709.61	296.52
709.94	295.45
710.28	294.40
710.61	293.24
710.95	292.16
711.28	291.26
711.61	290.19
711.95	289.21
712.28	288.20
712.61	287.30
712.95	286.37
713.28	285.52
713.61	284.56
713.95	283.62
714.28	282.78
714.61	281.83
714.95	280.86
715.28	279.95
715.61	279.10
715.95	278.19
716.28	277.37
716.61	276.55
716.95	275.70
717.28	274.87
717.61	274.13
717.94	273.26
718.28	272.42
718.61	271.66
718.94	270.98
719.27	270.22
719.61	269.45
719.94	268.74
720.27	267.95
720.60	267.24
720.94	266.57
721.27	265.82
721.60	265.33
721.93	264.70
722.27	264.18
722.60	263.64
722.93	263.06
723.26	262.47
723.59	261.79
723.93	261.20
724.26	260.65
724.59	260.06
724.92	259.57
725.25	259.03
725.59	258.54
725.92	258.05
726.25	257.50
726.58	256.97
726.91	256.45
727.24	255.91
727.57	255.40
727.91	254.81
728.24	254.36
728.57	253.79
728.90	253.31
729.23	252.74
729.56	252.32
729.89	251.90
730.22	251.42
730.55	250.96
730.89	250.58
731.22	250.06
731.55	249.71
731.88	249.23
732.21	248.77
732.54	248.36
732.87	247.83
733.20	247.43
733.53	247.04
733.86	246.64
734.19	246.24
734.52	245.85
734.85	245.66
735.18	245.25
735.51	244.84
735.84	244.46
736.17	244.13
736.50	243.68
736.83	243.49
737.16	243.19
737.49	242.88
737.82	242.50
738.15	242.15
738.48	241.65
738.81	241.32
739.14	241.02
739.47	240.60
739.80	240.33
740.13	240.05
740.46	239.68
740.79	239.28
741.12	238.96
741.45	238.63
741.78	238.18
742.11	237.96
742.44	237.73
742.77	237.56
743.10	237.25
743.43	236.92
743.75	236.38
744.08	236.26
744.41	235.97
744.74	235.71
745.07	235.46
745.40	235.28
745.73	235.11
746.06	234.84
746.39	234.61
746.71	234.22
747.04	233.87
747.37	233.61
747.70	233.46
748.03	233.20
748.36	233.00
748.68	232.77
749.01	232.43
749.34	232.09
749.67	231.80
750.00	231.61
750.33	231.45
750.65	231.30
750.98	230.81
751.31	230.59
751.64	230.30
751.97	230.11
752.29	229.83
752.62	229.51
752.95	229.18
753.28	229.02
753.60	228.82
753.93	228.65
754.26	228.43
754.59	228.07
754.91	227.85
755.24	227.60
755.57	227.35
755.90	227.15
756.22	226.98
756.55	226.73
756.88	226.43
757.20	226.15
757.53	225.86
757.86	225.66
758.19	225.45
758.51	225.30
758.84	225.07
759.17	224.92
759.49	224.79
759.82	224.71
760.15	224.52
760.47	224.45
760.80	224.30
761.13	224.18
761.45	224.06
761.78	223.91
762.11	223.72
762.43	223.56
762.76	223.44
763.08	223.26
763.41	223.13
763.74	222.98
764.06	222.90
764.39	222.75
764.71	222.66
765.04	222.55
765.37	222.40
765.69	222.26
766.02	222.10
766.34	221.97
766.67	221.85
767.00	221.71
767.32	221.59
767.65	221.51
767.97	221.36
768.30	221.26
768.62	221.13
768.95	221.05
769.27	220.92
769.60	220.86
769.92	220.75
770.25	220.61
770.57	220.50
770.90	220.33
771.22	220.21
771.55	220.06
771.87	219.92
772.20	219.80
772.52	219.78
772.85	219.89
773.17	219.74
773.50	219.61
773.82	219.46
774.15	219.30
774.47	219.08
774.80	218.95
775.12	218.82
775.45	218.75
775.77	218.64
776.09	218.60
776.42	218.45
776.74	218.36
777.07	218.28
777.39	218.22
777.72	218.16
778.04	218.12
778.36	218.09
778.69	218.04
779.01	218.02
779.33	217.81
779.66	217.55
779.98	217.42
780.31	217.36
780.63	217.33
780.95	217.27
781.28	217.27
781.60	217.19
781.92	217.13
782.25	217.02
782.57	216.89
782.89	216.76
783.22	216.72
783.54	216.69
783.86	216.56
784.19	216.50
784.51	216.42
784.83	216.33
785.16	216.17
785.48	216.13
785.80	216.03
786.12	215.95
786.45	215.93
786.77	215.97
787.09	215.88
787.42	215.85
787.74	215.84
788.06	215.72
788.38	215.66
788.71	215.63
789.03	215.63
789.35	215.71
789.67	215.69
789.99	215.63
790.32	215.51
790.64	215.55
790.96	215.63
791.28	215.52
791.61	215.43
791.93	215.41
792.25	215.38
792.57	215.42
792.89	215.37
793.21	215.32
793.54	215.22
793.86	215.20
794.18	215.14
794.50	215.01
794.82	215.00
795.14	215.00
795.47	214.99
795.79	215.03
796.11	214.86
796.43	214.80
796.75	214.75
797.07	214.75
797.39	214.60
797.71	214.39
798.04	214.40
798.36	214.36
798.68	214.38
799.00	214.31
799.32	214.23
799.64	214.25
799.96	214.19
800.28	214.16
800.60	214.10
800.92	214.12
801.24	214.09
801.56	214.13
801.89	214.07
802.21	213.94
802.53	213.84
802.85	213.88
803.17	213.96
803.49	213.87
803.81	213.84
804.13	213.84
804.45	213.84
804.77	213.88
805.09	213.93
805.41	213.89
805.73	213.91
806.05	213.83
806.37	213.86
806.69	213.81
807.01	213.80
807.33	213.80
807.65	213.62
807.97	213.64
808.28	213.55
808.60	213.51
808.92	213.59
809.24	213.68
809.56	213.64
809.88	213.55
810.20	213.59
810.52	213.67
810.84	213.75
811.16	213.70
811.48	213.65
811.80	213.74
812.12	213.72
812.43	213.65
812.75	213.67
813.07	213.57
813.39	213.60
813.71	213.51
814.03	213.53
814.35	213.57
814.67	213.56
814.98	213.53
815.30	213.58
815.62	213.48
815.94	213.37
816.26	213.34
816.58	213.28
816.89	213.28
817.21	213.20
817.53	213.14
817.85	213.21
818.17	213.19
818.48	213.11
818.80	213.15
819.12	213.10
819.44	213.05
819.76	213.02
820.07	212.99
820.39	213.00
820.71	212.99
821.03	212.99
821.34	212.93
821.66	212.97
821.98	212.93
822.30	212.94
822.61	212.97
822.93	213.00
823.25	213.03
823.57	212.94
823.88	212.95
824.20	213.00
824.52	212.90
824.83	212.90
825.15	212.81
825.47	212.74
825.79	212.81
826.10	212.85
826.42	212.90
826.74	212.95
827.05	212.96
827.37	212.93
827.69	212.96
828.00	212.97
828.32	212.94
828.64	212.88
828.95	212.99
829.27	212.91
829.58	212.88
829.90	212.90
830.22	212.95
830.53	212.85
830.85	212.82
831.17	212.77
831.48	212.73
831.80	212.72
832.11	212.71
832.43	212.61
832.75	212.59
833.06	212.63
833.38	212.56
833.69	212.56
834.01	212.55
834.32	212.47
834.64	212.45
834.96	212.40
835.27	212.46
835.59	212.37
835.90	212.31
836.22	212.27
836.53	212.17
836.85	212.11
837.16	212.27
837.48	212.16
837.79	212.30
838.11	212.23
838.42	212.24
838.74	212.22
839.05	212.29
839.37	212.25
839.68	212.15
840.00	212.12
840.31	212.08
840.63	212.01
840.94	212.01
841.26	211.96
841.57	211.97
841.88	211.97
842.20	211.94
842.51	211.95
842.83	211.97
843.14	212.14
843.46	212.13
843.77	212.07
844.08	212.06
844.40	211.97
844.71	211.99
845.03	211.93
845.34	211.90
845.65	211.82
845.97	211.81
846.28	211.84
846.60	211.80
846.91	211.77
847.22	211.77
847.54	211.76
847.85	211.80
848.16	211.79
848.48	211.70
848.79	211.72
849.10	211.70
849.42	211.71
849.73	211.58
850.04	211.64
850.36	211.55
850.67	211.60
850.98	211.56
851.30	211.58
851.61	211.54
851.92	211.57
852.23	211.62
852.55	211.69
852.86	211.72
853.17	211.74
853.49	211.75
853.80	211.80
854.11	211.81
854.42	211.84
854.74	211.82
855.05	211.85
855.36	211.82
855.67	211.88
855.99	211.82
856.30	211.97
856.61	211.89
856.92	211.85
857.23	211.89
857.55	211.92
857.86	211.89
858.17	212.01
858.48	211.96
858.79	211.97
859.11	211.96
859.42	211.95
859.73	211.92
860.04	211.97
860.35	211.91
860.66	211.86
860.98	211.77
861.29	211.77
861.60	211.77
861.91	211.76
862.22	211.66
862.53	211.70
862.84	211.57
863.16	211.59
863.47	211.60
863.78	211.58
864.09	211.57
864.40	211.57
864.71	211.52
865.02	211.52
865.33	211.43
865.64	211.39
865.95	211.37
866.27	211.49
866.58	211.45
866.89	211.44
867.20	211.48
867.51	211.45
867.82	211.38
868.13	211.41
868.44	211.45
868.75	211.60
869.06	211.57
869.37	211.58
869.68	211.55
869.99	211.55
870.30	211.55
870.61	211.56
870.92	211.55
871.23	211.50
871.54	211.57
871.85	211.61
872.16	211.58
872.47	211.58
872.78	211.48
873.09	211.50
873.40	211.47
873.71	211.48
874.02	211.54
874.33	211.57
874.64	211.50
874.95	211.46
875.26	211.36
875.56	211.35
875.87	211.33
876.18	211.33
876.49	211.50
876.80	211.41
877.11	211.34
877.42	211.37
877.73	211.32
878.04	211.28
878.35	211.35
878.66	211.34
878.96	211.29
879.27	211.21
879.58	211.19
879.89	211.20
880.20	211.16
880.51	211.17
880.82	211.16
881.12	211.27
881.43	211.32
881.74	211.33
882.05	211.25
882.36	211.23
882.67	211.24
882.97	211.09
883.28	211.10
883.59	211.12
883.90	211.10
884.21	211.27
884.51	211.29
884.82	211.17
885.13	211.13
885.44	211.10
885.74	211.18
886.05	211.11
886.36	211.11
886.67	211.17
886.98	211.22
887.28	211.28
887.59	211.15
887.90	211.10
888.20	211.02
888.51	211.16
888.82	211.14
889.13	211.14
889.43	211.25
889.74	211.23
890.05	211.28
890.35	211.26
890.66	211.18
890.97	211.19
891.28	211.28
891.58	211.30
891.89	211.31
892.20	211.25
892.50	211.28
892.81	211.32
893.12	211.29
893.42	211.15
893.73	211.15
894.04	211.17
894.34	211.14
894.65	211.16
894.95	211.08
895.26	211.04
895.57	211.19
895.87	210.96
896.18	210.97
896.48	210.93
896.79	210.92
897.10	210.90
897.40	210.81
897.71	210.82
898.01	210.81
898.32	210.87
898.63	210.84
898.93	210.88
899.24	210.86
899.54	210.87
899.85	210.97
900.15	210.96
900.46	211.02
900.76	211.10
901.07	211.10
901.38	211.11
901.68	211.15
901.99	210.95
902.29	210.97
902.60	211.01
902.90	210.99
903.21	211.01
903.51	211.01
903.82	211.08
904.12	211.13
904.43	211.13
904.73	211.09
905.03	211.14
905.34	211.33
905.64	211.28
905.95	211.32
906.25	211.27
906.56	211.27
906.86	211.31
907.17	211.26
907.47	211.31
907.77	211.32
908.08	211.31
908.38	211.34
908.69	211.49
908.99	211.53
909.30	211.58
909.60	211.60
909.90	211.64
910.21	211.56
910.51	211.44
910.81	211.48
911.12	211.49
911.42	211.45
911.73	211.24
912.03	211.30
912.33	211.27
912.64	211.26
912.94	211.20
913.24	211.12
913.55	211.09
913.85	211.05
914.15	211.11
914.46	211.12
914.76	211.16
915.06	211.10
915.37	210.99
915.67	210.99
915.97	211.00
916.27	210.91
916.58	210.92
916.88	210.99
917.18	210.99
917.49	211.09
917.79	211.16
918.09	211.19
918.39	211.22
918.70	211.23
919.00	211.21
919.30	211.27
919.60	211.23
919.91	211.20
920.21	211.21
920.51	211.13
920.81	211.11
921.12	211.12
921.42	211.14
921.72	211.17
922.02	211.16
922.32	211.13
922.63	211.15
922.93	211.30
923.23	211.23
923.53	211.22
923.83	211.15
924.13	211.12
924.44	211.12
924.74	211.15
925.04	211.12
925.34	211.14
925.64	211.07
925.94	211.20
926.24	211.29
926.55	211.33
926.85	211.34
927.15	211.36
927.45	211.30
927.75	211.22
928.05	211.29
928.35	211.25
928.65	211.30
928.95	211.32
929.26	211.25
929.56	211.30
929.86	211.28
930.16	211.27
930.46	211.23
930.76	211.23
931.06	211.07
931.36	211.03
931.66	211.10
931.96	211.19
932.26	211.07
932.56	211.02
932.86	210.94
933.16	210.95
933.46	210.91
933.76	210.96
934.06	211.09
934.36	211.16
934.66	211.23
934.96	211.22
935.26	211.25
935.56	211.24
935.86	211.17
936.16	211.11
936.46	211.00
936.76	211.00
937.06	210.94
937.36	211.03
937.66	211.06
937.96	210.98
938.26	210.90
938.56	210.94
938.86	210.95
939.16	211.00
939.46	211.05
939.76	211.02
940.06	210.98
940.35	210.87
940.65	210.72
940.95	210.68
941.25	210.63
941.55	210.57
941.85	210.54
942.15	210.54
942.45	210.67
942.75	210.72
943.04	210.73
943.34	210.78
943.64	210.73
943.94	210.61
944.24	210.68
944.54	210.71
944.84	210.63
945.13	210.59
945.43	210.50
945.73	210.44
946.03	210.45
946.33	210.43
946.62	210.35
946.92	210.41
947.22	210.39
947.52	210.33
947.82	210.38
948.11	210.38
948.41	210.33
948.71	210.27
949.01	210.27
949.31	210.28
949.60	210.26
949.90	210.25
950.20	210.28
950.50	210.17
950.79	210.15
951.09	210.19
951.39	210.13
951.69	210.15
951.98	210.21
952.28	210.22
952.58	210.25
952.87	210.35
953.17	210.31
953.47	210.34
953.76	210.40
954.06	210.34
954.36	210.29
954.66	210.36
954.95	210.44
955.25	210.45
955.55	210.39
955.84	210.41
956.14	210.41
956.44	210.52
956.73	210.61
957.03	210.57
957.32	210.66
957.62	210.68
957.92	210.75
958.21	210.66
958.51	210.86
958.81	210.83
959.10	210.83
959.40	210.86
959.69	210.88
959.99	210.95
960.29	210.91
960.58	210.96
960.88	211.05
961.17	211.04
961.47	211.10
961.76	211.23
962.06	211.25
962.36	211.25
962.65	211.25
962.95	211.27
963.24	211.34
963.54	211.29
963.83	211.35
964.13	211.28
964.42	211.35
964.72	211.21
965.01	211.26
965.31	211.26
965.60	211.26
965.90	211.34
966.19	211.24
966.49	211.33
966.78	211.29
967.08	211.27
967.37	211.23
967.67	211.17
967.96	211.11
968.26	211.08
968.55	211.11
968.85	211.04
969.14	210.99
969.43	210.95
969.73	210.93
970.02	210.89
970.32	210.95
970.61	210.95
970.91	210.87
971.20	210.81
971.49	210.77
971.79	210.79
972.08	210.67
972.38	210.68
972.67	210.68
972.96	210.73
973.26	210.65
973.55	210.69
973.85	210.70
974.14	210.71
974.43	210.71
974.73	210.73
975.02	210.75
975.31	210.73
975.61	210.75
975.90	210.76
976.19	210.72
976.49	210.70
976.78	210.65
977.07	210.69
977.37	210.75
977.66	210.82
977.95	210.78
978.24	210.83
978.54	210.91
978.83	210.81
979.12	210.76
979.42	210.83
979.71	210.76
980.00	210.69
980.29	210.65
980.59	210.58
980.88	210.65
981.17	210.67
981.46	210.71
981.76	210.64
982.05	210.73
982.34	210.77
982.63	210.72
982.93	210.80
983.22	210.79
983.51	210.80
983.80	210.81
984.09	210.80
984.39	210.80
984.68	210.73
984.97	210.85
985.26	210.84
985.55	210.78
985.85	210.75
986.14	210.82
986.43	210.84
986.72	210.90
987.01	210.79
987.30	210.75
987.59	210.70
987.89	210.79
988.18	210.70
988.47	210.71
988.76	210.76
989.05	210.70
989.34	210.73
989.63	210.81
989.92	210.77
990.22	210.78
990.51	210.75
990.80	210.73
991.09	210.70
991.38	210.69
991.67	210.72
991.96	210.74
992.25	210.80
992.54	210.81
992.83	210.79
993.12	210.84
993.41	210.91
993.70	210.94
993.99	210.94
994.28	210.94
994.58	210.96
994.87	210.92
995.16	210.95
995.45	210.88
995.74	210.73
996.03	210.74
996.32	210.74
996.61	210.73
996.90	210.77
997.19	210.76
997.48	210.80
997.77	210.78
998.06	210.73
998.34	210.71
998.63	210.72
998.92	210.70
999.21	210.72
999.50	210.65
999.79	210.65
1000.08	210.63
1000.37	210.59
1000.66	210.55
1000.95	210.57
1001.24	210.60
1001.53	210.65
1001.82	210.68
1002.11	210.64
1002.40	210.71
1002.68	210.76
1002.97	210.82
1003.26	210.80
1003.55	210.86
1003.84	210.86
1004.13	211.05
1004.42	211.03
1004.71	211.05
1004.99	211.07
1005.28	211.08
1005.57	211.09
1005.86	211.10
1006.15	211.12
1006.44	211.15
1006.72	211.18
1007.01	211.15
1007.30	211.10
1007.59	211.11
1007.88	211.14
1008.17	211.14
1008.45	211.05
1008.74	210.98
1009.03	210.95
1009.32	210.95
1009.60	210.87
1009.89	210.81
1010.18	210.66
1010.47	210.70
1010.76	210.66
1011.04	210.66
1011.33	210.62
1011.62	210.68
1011.91	210.64
1012.19	210.65
1012.48	210.69
1012.77	210.75
1013.05	210.81
1013.34	210.82
1013.63	210.84
1013.92	210.82
1014.20	210.87
1014.49	210.90
1014.78	210.93
1015.06	210.83
1015.35	210.83
1015.64	210.86
1015.92	210.99
1016.21	210.98
1016.50	210.98
1016.78	211.02
1017.07	211.02
1017.36	211.03
1017.64	210.96
1017.93	211.06
1018.22	211.03
1018.50	210.98
1018.79	210.93
1019.08	210.91
1019.36	210.97
1019.65	210.85
1019.93	210.97
1020.22	210.90
1020.51	211.01
1020.79	210.99
1021.08	210.40
1021.36	210.20
1021.65	211.00
1021.94	211.00
1022.22	211.65
1022.51	209.65
1022.79	212.70
1023.08	209.90
1023.36	213.05
1023.65	210.60
>>>>>End Processed Spectral Data<<<<<
