SpectraSuite Data File
++++++++++++++++++++++++++++++++++++
Date: Mon Feb 25 17:35:50 EST 2013
User: group
Dark Spectrum Present: No
Reference Spectrum Present: No
Number of Sampled Component Spectra: 1
Spectrometers: USB2E7196
Integration Time (usec): 52000 (USB2E7196)
Spectra Averaged: 20 (USB2E7196)
Boxcar Smoothing: 10 (USB2E7196)
Correct for Electrical Dark: No (USB2E7196)
Strobe/Lamp Enabled: No (USB2E7196)
Correct for Detector Non-linearity: No (USB2E7196)
Correct for Stray Light: No (USB2E7196)
Number of Pixels in Processed Spectrum: 2048
>>>>>Begin Processed Spectral Data<<<<<
339.09	0.00
339.48	199.60
339.86	200.80
340.24	202.00
340.63	203.25
341.01	208.65
341.39	205.45
341.78	207.90
342.16	207.55
342.54	209.55
342.93	198.51
343.31	208.50
343.69	209.05
344.07	209.51
344.46	209.93
344.84	210.39
345.22	210.52
345.60	210.84
345.99	210.99
346.37	211.17
346.75	211.26
347.13	211.29
347.52	211.30
347.90	211.45
348.28	211.46
348.66	211.55
349.05	211.51
349.43	211.57
349.81	211.60
350.19	211.62
350.57	211.65
350.96	211.75
351.34	211.86
351.72	211.95
352.10	212.01
352.48	212.10
352.87	212.11
353.25	212.15
353.63	212.13
354.01	212.22
354.39	212.31
354.77	212.39
355.15	212.53
355.54	212.62
355.92	212.61
356.30	212.63
356.68	212.73
357.06	212.84
357.44	212.84
357.82	212.87
358.20	212.95
358.58	212.99
358.97	212.99
359.35	213.07
359.73	213.14
360.11	213.19
360.49	213.24
360.87	213.26
361.25	213.33
361.63	213.44
362.01	213.48
362.39	213.51
362.77	213.50
363.15	213.50
363.53	213.47
363.91	213.45
364.29	213.46
364.67	213.32
365.05	213.27
365.43	213.36
365.81	213.43
366.19	213.49
366.57	213.59
366.95	213.66
367.33	213.63
367.71	213.58
368.09	213.63
368.47	213.63
368.85	213.50
369.23	213.52
369.61	213.45
369.99	213.43
370.37	213.39
370.75	213.50
371.13	213.45
371.51	213.44
371.89	213.51
372.27	213.58
372.65	213.56
373.03	213.59
373.41	213.60
373.78	213.52
374.16	213.47
374.54	213.35
374.92	213.20
375.30	213.17
375.68	213.14
376.06	213.11
376.44	213.00
376.82	213.08
377.19	213.05
377.57	213.01
377.95	212.93
378.33	212.90
378.71	212.76
379.09	212.78
379.47	212.75
379.84	212.63
380.22	212.59
380.60	212.52
380.98	212.52
381.36	212.47
381.73	212.36
382.11	212.33
382.49	212.32
382.87	212.32
383.25	212.37
383.62	212.51
384.00	212.43
384.38	212.45
384.76	212.44
385.13	212.44
385.51	212.42
385.89	212.39
386.27	212.31
386.64	212.22
387.02	212.18
387.40	212.10
387.78	212.09
388.15	212.06
388.53	212.05
388.91	211.98
389.29	211.95
389.66	212.01
390.04	211.99
390.42	212.04
390.79	212.06
391.17	211.89
391.55	211.76
391.92	211.75
392.30	211.80
392.68	211.75
393.05	211.76
393.43	211.73
393.81	211.71
394.18	211.77
394.56	211.87
394.94	211.85
395.31	211.89
395.69	211.97
396.06	211.97
396.44	212.00
396.82	212.02
397.19	212.10
397.57	212.04
397.95	212.07
398.32	212.10
398.70	212.13
399.07	212.26
399.45	212.25
399.82	212.33
400.20	212.35
400.58	212.48
400.95	212.40
401.33	212.53
401.70	212.80
402.08	212.93
402.45	213.01
402.83	213.18
403.20	213.30
403.58	213.45
403.95	213.63
404.33	213.85
404.71	214.02
405.08	214.27
405.46	214.46
405.83	214.62
406.21	214.79
406.58	215.01
406.96	215.33
407.33	215.63
407.70	215.98
408.08	216.44
408.45	216.80
408.83	217.34
409.20	217.73
409.58	218.00
409.95	218.46
410.33	219.04
410.70	219.50
411.08	220.12
411.45	220.73
411.82	221.29
412.20	221.97
412.57	222.85
412.95	223.47
413.32	224.39
413.69	225.33
414.07	226.31
414.44	227.37
414.82	228.35
415.19	229.56
415.56	230.80
415.94	232.04
416.31	233.47
416.68	234.93
417.06	236.66
417.43	238.30
417.81	240.05
418.18	241.81
418.55	243.86
418.93	245.93
419.30	248.08
419.67	250.46
420.04	252.95
420.42	255.39
420.79	258.31
421.16	261.25
421.54	264.31
421.91	267.47
422.28	270.86
422.66	274.35
423.03	277.75
423.40	281.28
423.77	285.13
424.15	288.99
424.52	292.98
424.89	297.26
425.26	301.53
425.64	305.66
426.01	310.18
426.38	314.87
426.75	319.67
427.13	324.61
427.50	329.83
427.87	335.18
428.24	340.69
428.61	345.93
428.99	351.54
429.36	357.71
429.73	363.79
430.10	369.76
430.47	375.94
430.85	382.41
431.22	389.23
431.59	396.44
431.96	403.24
432.33	410.89
432.70	418.30
433.08	427.11
433.45	435.28
433.82	443.53
434.19	452.49
434.56	461.42
434.93	470.11
435.30	478.70
435.68	488.07
436.05	497.37
436.42	506.62
436.79	515.28
437.16	524.46
437.53	534.11
437.90	543.86
438.27	553.42
438.64	563.39
439.01	572.60
439.38	580.95
439.75	589.07
440.13	598.14
440.50	606.78
440.87	613.75
441.24	621.15
441.61	629.10
441.98	635.32
442.35	642.09
442.72	648.97
443.09	655.40
443.46	659.57
443.83	662.38
444.20	664.93
444.57	668.38
444.94	670.33
445.31	672.20
445.68	673.74
446.05	674.59
446.42	673.62
446.79	672.67
447.16	671.44
447.53	670.66
447.90	667.20
448.27	663.73
448.64	658.67
449.01	655.09
449.37	648.90
449.74	642.69
450.11	635.46
450.48	627.54
450.85	619.67
451.22	612.90
451.59	606.49
451.96	600.24
452.33	591.89
452.70	584.14
453.07	575.07
453.43	565.96
453.80	557.10
454.17	548.76
454.54	540.72
454.91	532.00
455.28	523.60
455.65	515.77
456.02	507.71
456.38	501.12
456.75	492.84
457.12	485.73
457.49	478.93
457.86	472.40
458.23	466.63
458.59	460.41
458.96	453.98
459.33	448.26
459.70	442.67
460.07	438.24
460.43	433.05
460.80	428.10
461.17	423.72
461.54	419.24
461.91	414.93
462.27	410.55
462.64	406.91
463.01	402.83
463.38	398.93
463.74	395.20
464.11	391.84
464.48	388.77
464.85	385.63
465.21	383.16
465.58	380.54
465.95	377.48
466.32	374.90
466.68	372.40
467.05	369.79
467.42	367.14
467.78	364.30
468.15	361.76
468.52	359.92
468.88	357.52
469.25	355.34
469.62	353.60
469.98	351.74
470.35	350.01
470.72	348.33
471.08	346.55
471.45	344.97
471.82	343.35
472.18	341.70
472.55	340.63
472.92	339.10
473.28	337.75
473.65	336.53
474.02	335.24
474.38	334.26
474.75	333.54
475.11	332.72
475.48	332.15
475.85	331.64
476.21	331.16
476.58	330.68
476.94	330.50
477.31	330.13
477.67	329.77
478.04	329.58
478.41	329.61
478.77	329.76
479.14	329.71
479.50	329.97
479.87	330.33
480.23	330.66
480.60	330.99
480.96	331.46
481.33	332.22
481.69	332.99
482.06	333.64
482.42	334.10
482.79	334.84
483.15	335.85
483.52	336.97
483.88	338.02
484.25	339.28
484.61	340.56
484.98	341.93
485.34	343.59
485.71	345.37
486.07	347.11
486.44	348.85
486.80	350.90
487.17	352.92
487.53	355.19
487.90	357.45
488.26	360.08
488.62	362.82
488.99	365.35
489.35	368.16
489.72	371.18
490.08	374.47
490.44	377.80
490.81	381.26
491.17	384.84
491.54	388.56
491.90	392.48
492.26	396.58
492.63	400.94
492.99	405.24
493.36	409.74
493.72	414.61
494.08	419.71
494.45	425.25
494.81	431.09
495.17	436.81
495.54	443.10
495.90	449.43
496.26	455.92
496.63	462.84
496.99	470.03
497.35	477.55
497.72	485.41
498.08	493.49
498.44	501.85
498.80	510.70
499.17	519.87
499.53	529.25
499.89	539.00
500.26	548.83
500.62	558.99
500.98	569.78
501.34	580.75
501.71	591.99
502.07	603.41
502.43	615.20
502.79	627.53
503.16	640.11
503.52	653.04
503.88	666.28
504.24	679.98
504.60	693.85
504.97	708.23
505.33	722.78
505.69	738.09
506.05	753.36
506.41	768.98
506.78	784.78
507.14	800.81
507.50	817.39
507.86	834.41
508.22	851.93
508.59	869.44
508.95	887.46
509.31	905.82
509.67	924.51
510.03	943.35
510.39	962.78
510.75	982.39
511.12	1002.42
511.48	1022.84
511.84	1043.13
512.20	1063.61
512.56	1084.73
512.92	1106.10
513.28	1127.45
513.64	1149.13
514.00	1170.84
514.37	1192.96
514.73	1215.60
515.09	1238.11
515.45	1260.66
515.81	1283.79
516.17	1306.65
516.53	1329.69
516.89	1353.05
517.25	1376.22
517.61	1399.12
517.97	1422.04
518.33	1444.97
518.69	1467.95
519.05	1491.45
519.41	1515.25
519.77	1539.16
520.13	1562.52
520.49	1586.06
520.85	1609.67
521.21	1633.56
521.57	1657.76
521.93	1681.10
522.29	1705.07
522.65	1728.75
523.01	1752.44
523.37	1775.36
523.73	1798.77
524.09	1821.90
524.45	1844.94
524.81	1868.25
525.17	1892.20
525.53	1915.59
525.89	1938.99
526.25	1962.37
526.61	1984.40
526.97	2007.01
527.33	2029.34
527.68	2051.91
528.04	2074.02
528.40	2095.45
528.76	2117.38
529.12	2138.77
529.48	2161.55
529.84	2182.93
530.20	2203.97
530.56	2224.89
530.91	2246.61
531.27	2268.24
531.63	2289.30
531.99	2310.32
532.35	2330.65
532.71	2350.78
533.07	2371.39
533.42	2391.01
533.78	2410.72
534.14	2430.18
534.50	2448.01
534.86	2467.14
535.21	2484.63
535.57	2503.36
535.93	2521.86
536.29	2539.29
536.65	2556.93
537.00	2572.94
537.36	2588.68
537.72	2604.89
538.08	2621.16
538.44	2636.91
538.79	2652.62
539.15	2668.14
539.51	2683.48
539.87	2699.15
540.22	2714.08
540.58	2729.37
540.94	2744.41
541.29	2758.10
541.65	2770.91
542.01	2785.04
542.37	2797.06
542.72	2809.78
543.08	2821.09
543.44	2833.50
543.79	2844.24
544.15	2854.69
544.51	2865.87
544.87	2877.65
545.22	2887.89
545.58	2897.16
545.94	2905.44
546.29	2912.62
546.65	2919.32
547.01	2926.25
547.36	2932.77
547.72	2938.74
548.07	2943.68
548.43	2948.01
548.79	2952.15
549.14	2957.35
549.50	2962.02
549.86	2966.77
550.21	2971.27
550.57	2976.20
550.92	2979.13
551.28	2982.61
551.64	2985.78
551.99	2988.88
552.35	2990.77
552.70	2993.47
553.06	2996.55
553.41	2999.87
553.77	3002.95
554.13	3005.88
554.48	3007.91
554.84	3009.50
555.19	3010.50
555.55	3011.32
555.90	3011.81
556.26	3012.45
556.61	3012.74
556.97	3011.91
557.32	3011.96
557.68	3010.66
558.03	3008.91
558.39	3007.56
558.74	3007.42
559.10	3006.38
559.45	3004.64
559.81	3003.76
560.16	3001.37
560.52	2998.97
560.87	2995.86
561.23	2991.98
561.58	2989.47
561.94	2986.03
562.29	2982.40
562.64	2980.11
563.00	2977.75
563.35	2975.91
563.71	2974.12
564.06	2972.10
564.42	2970.12
564.77	2967.49
565.12	2966.08
565.48	2963.33
565.83	2960.51
566.19	2957.03
566.54	2953.39
566.89	2949.87
567.25	2946.15
567.60	2942.52
567.96	2938.72
568.31	2935.15
568.66	2931.40
569.02	2927.12
569.37	2922.39
569.72	2918.68
570.08	2913.41
570.43	2907.43
570.78	2901.59
571.14	2895.22
571.49	2888.19
571.84	2882.10
572.20	2875.24
572.55	2867.93
572.90	2860.78
573.26	2853.41
573.61	2845.95
573.96	2838.61
574.31	2830.09
574.67	2821.70
575.02	2813.10
575.37	2804.35
575.72	2795.17
576.08	2787.46
576.43	2777.84
576.78	2769.76
577.13	2761.17
577.49	2752.35
577.84	2744.07
578.19	2735.69
578.54	2727.92
578.90	2720.47
579.25	2710.90
579.60	2701.03
579.95	2691.27
580.30	2682.51
580.66	2673.54
581.01	2663.60
581.36	2654.12
581.71	2645.47
582.06	2636.27
582.42	2627.43
582.77	2617.93
583.12	2608.61
583.47	2599.30
583.82	2590.74
584.17	2580.36
584.53	2570.67
584.88	2561.20
585.23	2551.02
585.58	2541.09
585.93	2530.77
586.28	2520.95
586.63	2511.35
586.98	2502.31
587.34	2493.33
587.69	2483.15
588.04	2473.19
588.39	2464.28
588.74	2454.19
589.09	2444.26
589.44	2433.63
589.79	2424.42
590.14	2415.39
590.49	2405.75
590.84	2395.93
591.19	2386.81
591.54	2377.47
591.89	2366.33
592.25	2356.28
592.60	2346.11
592.95	2335.39
593.30	2324.73
593.65	2313.85
594.00	2303.58
594.35	2294.42
594.70	2284.10
595.05	2274.99
595.40	2265.37
595.75	2254.57
596.10	2245.27
596.45	2235.81
596.80	2227.16
597.15	2217.69
597.50	2207.55
597.85	2198.13
598.19	2188.12
598.54	2178.30
598.89	2169.38
599.24	2161.87
599.59	2153.48
599.94	2145.39
600.29	2137.03
600.64	2128.34
600.99	2119.21
601.34	2110.98
601.69	2100.57
602.04	2091.50
602.39	2082.06
602.74	2073.48
603.08	2066.04
603.43	2058.00
603.78	2049.07
604.13	2039.70
604.48	2030.47
604.83	2022.54
605.18	2014.47
605.53	2005.76
605.87	1997.08
606.22	1988.76
606.57	1979.51
606.92	1970.50
607.27	1961.63
607.62	1953.23
607.96	1945.40
608.31	1938.23
608.66	1929.45
609.01	1921.39
609.36	1912.73
609.70	1903.92
610.05	1895.13
610.40	1885.68
610.75	1875.84
611.10	1866.94
611.44	1856.99
611.79	1846.69
612.14	1836.34
612.49	1825.75
612.83	1816.23
613.18	1805.51
613.53	1795.13
613.88	1784.37
614.22	1774.11
614.57	1763.26
614.92	1752.66
615.27	1741.75
615.61	1730.53
615.96	1720.43
616.31	1711.13
616.65	1702.11
617.00	1692.58
617.35	1682.89
617.70	1672.88
618.04	1662.89
618.39	1652.56
618.74	1643.23
619.08	1633.88
619.43	1624.99
619.78	1616.10
620.12	1607.00
620.47	1598.12
620.82	1588.38
621.16	1579.07
621.51	1569.66
621.85	1560.59
622.20	1550.98
622.55	1541.70
622.89	1532.59
623.24	1523.79
623.59	1513.95
623.93	1504.34
624.28	1495.38
624.62	1486.18
624.97	1477.26
625.32	1468.75
625.66	1460.68
626.01	1452.50
626.35	1444.61
626.70	1435.63
627.04	1427.01
627.39	1418.51
627.73	1410.20
628.08	1402.68
628.43	1394.48
628.77	1386.52
629.12	1378.34
629.46	1371.13
629.81	1363.29
630.15	1355.31
630.50	1346.89
630.84	1338.61
631.19	1330.51
631.53	1322.46
631.88	1313.62
632.22	1305.20
632.57	1297.10
632.91	1288.43
633.26	1280.43
633.60	1272.54
633.95	1265.15
634.29	1257.38
634.64	1250.03
634.98	1242.22
635.32	1234.28
635.67	1227.24
636.01	1219.67
636.36	1212.26
636.70	1204.71
637.05	1197.35
637.39	1190.17
637.73	1183.22
638.08	1176.79
638.42	1170.34
638.77	1163.14
639.11	1156.46
639.45	1149.60
639.80	1142.43
640.14	1135.59
640.49	1128.37
640.83	1121.21
641.17	1113.81
641.52	1106.75
641.86	1099.06
642.20	1092.34
642.55	1084.99
642.89	1077.43
643.23	1070.15
643.58	1063.40
643.92	1056.11
644.26	1048.86
644.61	1042.03
644.95	1035.06
645.29	1027.98
645.64	1020.38
645.98	1013.42
646.32	1006.75
646.66	999.81
647.01	992.91
647.35	986.40
647.69	979.38
648.04	972.55
648.38	965.81
648.72	959.28
649.06	952.70
649.41	945.72
649.75	939.13
650.09	932.64
650.43	926.07
650.78	919.06
651.12	912.37
651.46	906.13
651.80	899.45
652.14	892.79
652.49	886.20
652.83	879.88
653.17	873.05
653.51	866.41
653.85	860.05
654.20	853.58
654.54	846.90
654.88	840.76
655.22	834.12
655.56	827.57
655.90	820.86
656.25	814.53
656.59	808.27
656.93	802.45
657.27	796.68
657.61	790.47
657.95	784.77
658.29	779.08
658.64	773.14
658.98	767.39
659.32	761.40
659.66	755.55
660.00	749.51
660.34	743.80
660.68	738.26
661.02	732.68
661.36	727.41
661.70	721.90
662.05	716.44
662.39	711.49
662.73	706.57
663.07	701.91
663.41	696.88
663.75	691.77
664.09	686.36
664.43	681.03
664.77	676.40
665.11	671.41
665.45	666.49
665.79	661.46
666.13	656.29
666.47	651.60
666.81	647.08
667.15	642.55
667.49	638.26
667.83	633.77
668.17	629.46
668.51	625.10
668.85	620.96
669.19	616.93
669.53	612.56
669.87	608.07
670.21	603.56
670.55	599.31
670.89	595.62
671.23	592.02
671.57	588.12
671.91	583.92
672.25	579.97
672.58	576.03
672.92	572.29
673.26	568.83
673.60	565.13
673.94	561.21
674.28	557.50
674.62	553.79
674.96	550.09
675.30	546.61
675.64	543.01
675.97	539.51
676.31	536.05
676.65	532.61
676.99	529.64
677.33	526.28
677.67	522.92
678.01	519.27
678.34	515.76
678.68	512.46
679.02	509.15
679.36	505.96
679.70	502.75
680.04	499.63
680.37	496.25
680.71	493.16
681.05	490.21
681.39	487.13
681.73	484.11
682.06	481.29
682.40	478.26
682.74	475.33
683.08	472.40
683.42	469.31
683.75	466.47
684.09	463.50
684.43	460.70
684.77	457.84
685.10	455.02
685.44	452.15
685.78	449.32
686.12	446.71
686.45	444.07
686.79	441.45
687.13	438.77
687.46	436.33
687.80	433.87
688.14	431.20
688.48	428.82
688.81	426.29
689.15	423.79
689.49	421.30
689.82	418.79
690.16	416.29
690.50	413.79
690.83	411.40
691.17	408.75
691.51	406.26
691.84	403.92
692.18	401.71
692.52	399.50
692.85	397.43
693.19	395.27
693.52	393.05
693.86	390.81
694.20	388.67
694.53	386.57
694.87	384.36
695.21	382.32
695.54	380.06
695.88	377.86
696.21	375.78
696.55	373.70
696.88	371.72
697.22	369.65
697.56	367.88
697.89	365.84
698.23	364.12
698.56	362.22
698.90	360.55
699.23	358.59
699.57	356.70
699.90	354.77
700.24	352.82
700.58	350.93
700.91	349.15
701.25	347.65
701.58	345.90
701.92	344.09
702.25	342.36
702.59	340.85
702.92	339.31
703.26	337.60
703.59	336.11
703.93	334.73
704.26	333.28
704.60	331.72
704.93	330.31
705.26	328.82
705.60	327.54
705.93	326.08
706.27	324.77
706.60	323.50
706.94	322.22
707.27	320.94
707.61	319.64
707.94	318.37
708.27	316.82
708.61	315.53
708.94	314.28
709.28	313.02
709.61	311.74
709.94	310.63
710.28	309.43
710.61	308.20
710.95	306.85
711.28	305.69
711.61	304.53
711.95	303.47
712.28	302.26
712.61	301.11
712.95	300.04
713.28	299.05
713.61	297.93
713.95	296.88
714.28	295.89
714.61	294.82
714.95	293.78
715.28	292.69
715.61	291.67
715.95	290.70
716.28	289.70
716.61	288.63
716.95	287.51
717.28	286.64
717.61	285.76
717.94	284.93
718.28	283.92
718.61	283.01
718.94	282.09
719.27	281.25
719.61	280.37
719.94	279.54
720.27	278.65
720.60	277.78
720.94	276.97
721.27	276.20
721.60	275.54
721.93	274.76
722.27	274.15
722.60	273.37
722.93	272.64
723.26	271.94
723.59	271.26
723.93	270.64
724.26	269.94
724.59	269.24
724.92	268.57
725.25	268.06
725.59	267.49
725.92	266.86
726.25	266.31
726.58	265.73
726.91	265.07
727.24	264.40
727.57	263.80
727.91	263.08
728.24	262.49
728.57	261.77
728.90	261.29
729.23	260.68
729.56	260.29
729.89	259.70
730.22	259.15
730.55	258.61
730.89	258.09
731.22	257.53
731.55	256.96
731.88	256.51
732.21	255.96
732.54	255.44
732.87	254.91
733.20	254.33
733.53	253.80
733.86	253.30
734.19	252.83
734.52	252.43
734.85	252.18
735.18	251.69
735.51	251.40
735.84	250.94
736.17	250.54
736.50	249.94
736.83	249.77
737.16	249.42
737.49	249.01
737.82	248.56
738.15	248.16
738.48	247.81
738.81	247.23
739.14	246.78
739.47	246.33
739.80	245.93
740.13	245.58
740.46	245.18
740.79	244.74
741.12	244.37
741.45	243.99
741.78	243.52
742.11	243.18
742.44	242.69
742.77	242.36
743.10	241.97
743.43	241.61
743.75	241.00
744.08	240.73
744.41	240.37
744.74	240.02
745.07	239.66
745.40	239.30
745.73	239.11
746.06	238.77
746.39	238.41
746.71	238.10
747.04	237.62
747.37	237.26
747.70	236.97
748.03	236.67
748.36	236.34
748.68	236.05
749.01	235.71
749.34	235.42
749.67	235.05
750.00	234.73
750.33	234.57
750.65	234.34
750.98	233.90
751.31	233.59
751.64	233.20
751.97	233.09
752.29	232.79
752.62	232.45
752.95	232.24
753.28	231.97
753.60	231.69
753.93	231.61
754.26	231.42
754.59	231.14
754.91	230.84
755.24	230.66
755.57	230.35
755.90	230.06
756.22	229.83
756.55	229.66
756.88	229.46
757.20	229.11
757.53	228.89
757.86	228.69
758.19	228.56
758.51	228.45
758.84	228.07
759.17	227.86
759.49	227.68
759.82	227.55
760.15	227.41
760.47	227.19
760.80	226.93
761.13	226.72
761.45	226.48
761.78	226.35
762.11	226.09
762.43	225.94
762.76	225.79
763.08	225.66
763.41	225.42
763.74	225.20
764.06	225.05
764.39	224.83
764.71	224.63
765.04	224.43
765.37	224.30
765.69	224.24
766.02	224.02
766.34	223.88
766.67	223.61
767.00	223.51
767.32	223.45
767.65	223.44
767.97	223.23
768.30	223.18
768.62	222.99
768.95	222.86
769.27	222.72
769.60	222.62
769.92	222.42
770.25	222.35
770.57	222.23
770.90	222.12
771.22	221.96
771.55	221.83
771.87	221.71
772.20	221.56
772.52	221.55
772.85	221.74
773.17	221.58
773.50	221.49
773.82	221.32
774.15	221.12
774.47	220.87
774.80	220.79
775.12	220.64
775.45	220.55
775.77	220.43
776.09	220.37
776.42	220.31
776.74	220.34
777.07	220.20
777.39	220.10
777.72	220.01
778.04	219.95
778.36	219.84
778.69	219.78
779.01	219.69
779.33	219.45
779.66	219.16
779.98	219.07
780.31	219.00
780.63	218.97
780.95	218.91
781.28	218.80
781.60	218.78
781.92	218.66
782.25	218.53
782.57	218.48
782.89	218.30
783.22	218.14
783.54	217.99
783.86	217.97
784.19	217.91
784.51	217.86
784.83	217.73
785.16	217.68
785.48	217.60
785.80	217.58
786.12	217.48
786.45	217.44
786.77	217.35
787.09	217.20
787.42	217.11
787.74	217.08
788.06	217.05
788.38	216.90
788.71	216.92
789.03	216.94
789.35	216.87
789.67	216.85
789.99	216.78
790.32	216.73
790.64	216.65
790.96	216.77
791.28	216.62
791.61	216.56
791.93	216.46
792.25	216.41
792.57	216.44
792.89	216.39
793.21	216.27
793.54	216.21
793.86	216.14
794.18	216.04
794.50	215.94
794.82	215.92
795.14	215.90
795.47	215.82
795.79	215.74
796.11	215.67
796.43	215.63
796.75	215.62
797.07	215.56
797.39	215.51
797.71	215.31
798.04	215.30
798.36	215.31
798.68	215.35
799.00	215.35
799.32	215.25
799.64	215.20
799.96	215.17
800.28	215.17
800.60	215.17
800.92	215.12
801.24	215.03
801.56	215.01
801.89	214.99
802.21	214.95
802.53	214.87
802.85	214.94
803.17	215.00
803.49	214.98
803.81	214.95
804.13	214.87
804.45	214.81
804.77	214.77
805.09	214.73
805.41	214.62
805.73	214.52
806.05	214.41
806.37	214.37
806.69	214.42
807.01	214.37
807.33	214.36
807.65	214.33
807.97	214.42
808.28	214.38
808.60	214.35
808.92	214.31
809.24	214.43
809.56	214.31
809.88	214.18
810.20	214.12
810.52	214.16
810.84	214.15
811.16	214.12
811.48	214.10
811.80	214.14
812.12	214.11
812.43	214.11
812.75	214.08
813.07	214.12
813.39	214.10
813.71	214.06
814.03	213.99
814.35	213.96
814.67	213.87
814.98	213.85
815.30	213.82
815.62	213.75
815.94	213.66
816.26	213.71
816.58	213.61
816.89	213.62
817.21	213.52
817.53	213.56
817.85	213.52
818.17	213.46
818.48	213.35
818.80	213.33
819.12	213.27
819.44	213.29
819.76	213.19
820.07	213.17
820.39	213.15
820.71	213.16
821.03	213.12
821.34	213.14
821.66	213.12
821.98	213.10
822.30	213.11
822.61	213.07
822.93	213.02
823.25	213.04
823.57	212.98
823.88	213.02
824.20	212.95
824.52	213.03
824.83	213.05
825.15	213.06
825.47	213.09
825.79	213.12
826.10	213.09
826.42	213.05
826.74	212.99
827.05	212.98
827.37	213.00
827.69	213.00
828.00	212.98
828.32	212.97
828.64	212.94
828.95	213.01
829.27	212.98
829.58	212.95
829.90	212.94
830.22	213.04
830.53	212.92
830.85	212.86
831.17	212.80
831.48	212.85
831.80	212.76
832.11	212.73
832.43	212.67
832.75	212.64
833.06	212.77
833.38	212.71
833.69	212.71
834.01	212.69
834.32	212.70
834.64	212.70
834.96	212.64
835.27	212.64
835.59	212.65
835.90	212.57
836.22	212.54
836.53	212.58
836.85	212.49
837.16	212.66
837.48	212.66
837.79	212.72
838.11	212.58
838.42	212.65
838.74	212.67
839.05	212.60
839.37	212.59
839.68	212.42
840.00	212.39
840.31	212.40
840.63	212.40
840.94	212.41
841.26	212.34
841.57	212.36
841.88	212.45
842.20	212.33
842.51	212.35
842.83	212.40
843.14	212.50
843.46	212.48
843.77	212.42
844.08	212.40
844.40	212.29
844.71	212.37
845.03	212.30
845.34	212.29
845.65	212.33
845.97	212.40
846.28	212.41
846.60	212.39
846.91	212.36
847.22	212.30
847.54	212.25
847.85	212.29
848.16	212.28
848.48	212.12
848.79	212.20
849.10	212.17
849.42	212.15
849.73	212.02
850.04	211.94
850.36	211.85
850.67	211.87
850.98	211.79
851.30	211.85
851.61	211.82
851.92	211.82
852.23	211.90
852.55	211.84
852.86	211.78
853.17	211.83
853.49	211.85
853.80	211.85
854.11	211.78
854.42	211.82
854.74	211.75
855.05	211.74
855.36	211.65
855.67	211.71
855.99	211.67
856.30	211.81
856.61	211.84
856.92	211.83
857.23	211.85
857.55	211.90
857.86	211.79
858.17	211.80
858.48	211.78
858.79	211.67
859.11	211.64
859.42	211.62
859.73	211.59
860.04	211.54
860.35	211.56
860.66	211.55
860.98	211.51
861.29	211.53
861.60	211.54
861.91	211.52
862.22	211.47
862.53	211.45
862.84	211.22
863.16	211.25
863.47	211.27
863.78	211.22
864.09	211.26
864.40	211.23
864.71	211.26
865.02	211.25
865.33	211.35
865.64	211.34
865.95	211.35
866.27	211.43
866.58	211.39
866.89	211.37
867.20	211.40
867.51	211.34
867.82	211.32
868.13	211.38
868.44	211.40
868.75	211.41
869.06	211.39
869.37	211.47
869.68	211.46
869.99	211.47
870.30	211.51
870.61	211.52
870.92	211.63
871.23	211.63
871.54	211.69
871.85	211.60
872.16	211.62
872.47	211.62
872.78	211.56
873.09	211.57
873.40	211.58
873.71	211.58
874.02	211.61
874.33	211.62
874.64	211.62
874.95	211.64
875.26	211.65
875.56	211.73
875.87	211.67
876.18	211.68
876.49	211.80
876.80	211.80
877.11	211.72
877.42	211.64
877.73	211.65
878.04	211.59
878.35	211.61
878.66	211.64
878.96	211.67
879.27	211.64
879.58	211.67
879.89	211.63
880.20	211.65
880.51	211.70
880.82	211.72
881.12	211.75
881.43	211.73
881.74	211.68
882.05	211.56
882.36	211.61
882.67	211.54
882.97	211.38
883.28	211.34
883.59	211.39
883.90	211.37
884.21	211.40
884.51	211.39
884.82	211.45
885.13	211.49
885.44	211.43
885.74	211.45
886.05	211.47
886.36	211.48
886.67	211.45
886.98	211.54
887.28	211.50
887.59	211.40
887.90	211.41
888.20	211.40
888.51	211.49
888.82	211.54
889.13	211.66
889.43	211.75
889.74	211.69
890.05	211.66
890.35	211.68
890.66	211.58
890.97	211.54
891.28	211.37
891.58	211.31
891.89	211.35
892.20	211.39
892.50	211.33
892.81	211.35
893.12	211.38
893.42	211.25
893.73	211.24
894.04	211.30
894.34	211.28
894.65	211.32
894.95	211.27
895.26	211.18
895.57	211.18
895.87	211.07
896.18	211.10
896.48	211.08
896.79	211.04
897.10	211.06
897.40	211.05
897.71	211.16
898.01	211.12
898.32	211.10
898.63	211.03
898.93	211.09
899.24	211.08
899.54	211.02
899.85	210.90
900.15	210.97
900.46	210.95
900.76	210.97
901.07	211.00
901.38	211.06
901.68	211.15
901.99	211.11
902.29	211.14
902.60	211.12
902.90	211.12
903.21	211.12
903.51	211.11
903.82	211.17
904.12	211.10
904.43	211.21
904.73	211.27
905.03	211.27
905.34	211.41
905.64	211.35
905.95	211.38
906.25	211.47
906.56	211.38
906.86	211.39
907.17	211.37
907.47	211.32
907.77	211.26
908.08	211.14
908.38	211.09
908.69	211.10
908.99	211.14
909.30	211.21
909.60	211.19
909.90	211.24
910.21	211.16
910.51	211.17
910.81	211.07
911.12	211.00
911.42	211.01
911.73	210.81
912.03	210.88
912.33	210.83
912.64	210.82
912.94	210.76
913.24	210.75
913.55	210.71
913.85	210.72
914.15	210.76
914.46	210.73
914.76	210.74
915.06	210.75
915.37	210.77
915.67	210.73
915.97	210.80
916.27	210.69
916.58	210.71
916.88	210.66
917.18	210.65
917.49	210.79
917.79	210.82
918.09	210.85
918.39	210.92
918.70	210.98
919.00	210.96
919.30	211.16
919.60	211.14
919.91	211.13
920.21	211.14
920.51	211.12
920.81	211.20
921.12	211.20
921.42	211.11
921.72	211.13
922.02	211.11
922.32	211.13
922.63	211.25
922.93	211.32
923.23	211.38
923.53	211.42
923.83	211.32
924.13	211.37
924.44	211.42
924.74	211.40
925.04	211.45
925.34	211.45
925.64	211.40
925.94	211.37
926.24	211.50
926.55	211.47
926.85	211.48
927.15	211.47
927.45	211.50
927.75	211.53
928.05	211.46
928.35	211.47
928.65	211.54
928.95	211.47
929.26	211.38
929.56	211.44
929.86	211.36
930.16	211.46
930.46	211.37
930.76	211.35
931.06	211.32
931.36	211.28
931.66	211.36
931.96	211.34
932.26	211.50
932.56	211.39
932.86	211.41
933.16	211.40
933.46	211.39
933.76	211.41
934.06	211.45
934.36	211.53
934.66	211.54
934.96	211.49
935.26	211.49
935.56	211.64
935.86	211.58
936.16	211.61
936.46	211.50
936.76	211.50
937.06	211.44
937.36	211.43
937.66	211.38
937.96	211.38
938.26	211.38
938.56	211.24
938.86	211.25
939.16	211.29
939.46	211.30
939.76	211.34
940.06	211.32
940.35	211.26
940.65	211.23
940.95	211.21
941.25	211.19
941.55	211.23
941.85	211.17
942.15	211.19
942.45	211.30
942.75	211.30
943.04	211.30
943.34	211.37
943.64	211.35
943.94	211.37
944.24	211.34
944.54	211.30
944.84	211.28
945.13	211.27
945.43	211.25
945.73	211.24
946.03	211.14
946.33	211.07
946.62	211.09
946.92	211.00
947.22	211.00
947.52	210.96
947.82	210.97
948.11	210.85
948.41	210.80
948.71	210.67
949.01	210.71
949.31	210.69
949.60	210.70
949.90	210.74
950.20	210.71
950.50	210.61
950.79	210.59
951.09	210.65
951.39	210.67
951.69	210.58
951.98	210.57
952.28	210.63
952.58	210.62
952.87	210.67
953.17	210.74
953.47	210.71
953.76	210.70
954.06	210.60
954.36	210.64
954.66	210.69
954.95	210.74
955.25	210.74
955.55	210.69
955.84	210.54
956.14	210.44
956.44	210.54
956.73	210.56
957.03	210.58
957.32	210.51
957.62	210.47
957.92	210.57
958.21	210.56
958.51	210.73
958.81	210.79
959.10	210.72
959.40	210.70
959.69	210.75
959.99	210.81
960.29	210.86
960.58	210.82
960.88	210.84
961.17	210.87
961.47	210.87
961.76	210.91
962.06	211.04
962.36	211.09
962.65	211.01
962.95	211.07
963.24	211.08
963.54	211.17
963.83	211.18
964.13	211.23
964.42	211.26
964.72	211.12
965.01	211.11
965.31	211.10
965.60	211.12
965.90	211.19
966.19	211.15
966.49	211.14
966.78	211.21
967.08	211.22
967.37	211.18
967.67	211.19
967.96	211.19
968.26	211.21
968.55	211.29
968.85	211.30
969.14	211.28
969.43	211.27
969.73	211.22
970.02	211.26
970.32	211.15
970.61	211.12
970.91	211.10
971.20	211.09
971.49	211.15
971.79	211.13
972.08	211.04
972.38	211.03
972.67	211.04
972.96	211.04
973.26	210.99
973.55	211.03
973.85	211.05
974.14	211.15
974.43	211.11
974.73	211.07
975.02	211.06
975.31	211.06
975.61	211.06
975.90	211.09
976.19	211.07
976.49	211.07
976.78	211.15
977.07	211.22
977.37	211.25
977.66	211.25
977.95	211.20
978.24	211.19
978.54	211.26
978.83	211.32
979.12	211.36
979.42	211.39
979.71	211.41
980.00	211.35
980.29	211.25
980.59	211.19
980.88	211.17
981.17	211.19
981.46	211.16
981.76	211.16
982.05	211.23
982.34	211.22
982.63	211.30
982.93	211.15
983.22	211.12
983.51	211.09
983.80	211.06
984.09	211.15
984.39	211.12
984.68	211.11
984.97	211.10
985.26	211.00
985.55	210.99
985.85	210.95
986.14	210.98
986.43	211.04
986.72	211.04
987.01	211.03
987.30	211.04
987.59	211.09
987.89	211.07
988.18	210.99
988.47	211.01
988.76	210.99
989.05	211.07
989.34	211.02
989.63	211.14
989.92	211.16
990.22	211.13
990.51	211.20
990.80	211.09
991.09	211.01
991.38	211.05
991.67	211.05
991.96	210.99
992.25	211.00
992.54	211.00
992.83	210.98
993.12	210.89
993.41	210.90
993.70	210.87
993.99	210.92
994.28	210.91
994.58	210.85
994.87	210.83
995.16	210.83
995.45	210.75
995.74	210.64
996.03	210.66
996.32	210.61
996.61	210.60
996.90	210.66
997.19	210.67
997.48	210.65
997.77	210.62
998.06	210.68
998.34	210.66
998.63	210.57
998.92	210.62
999.21	210.79
999.50	210.79
999.79	210.84
1000.08	210.83
1000.37	210.81
1000.66	210.73
1000.95	210.74
1001.24	210.76
1001.53	210.94
1001.82	210.91
1002.11	210.80
1002.40	210.85
1002.68	210.89
1002.97	211.03
1003.26	211.01
1003.55	211.05
1003.84	211.09
1004.13	211.08
1004.42	211.00
1004.71	211.00
1004.99	210.98
1005.28	211.00
1005.57	210.97
1005.86	210.89
1006.15	210.92
1006.44	210.88
1006.72	211.00
1007.01	210.93
1007.30	210.88
1007.59	210.77
1007.88	210.73
1008.17	210.81
1008.45	210.76
1008.74	210.70
1009.03	210.53
1009.32	210.56
1009.60	210.47
1009.89	210.45
1010.18	210.39
1010.47	210.41
1010.76	210.47
1011.04	210.50
1011.33	210.43
1011.62	210.44
1011.91	210.48
1012.19	210.41
1012.48	210.48
1012.77	210.50
1013.05	210.66
1013.34	210.67
1013.63	210.66
1013.92	210.76
1014.20	210.76
1014.49	210.75
1014.78	210.77
1015.06	210.78
1015.35	210.75
1015.64	210.84
1015.92	210.83
1016.21	210.80
1016.50	210.80
1016.78	210.90
1017.07	210.95
1017.36	210.85
1017.64	210.81
1017.93	210.83
1018.22	210.87
1018.50	210.82
1018.79	210.80
1019.08	210.68
1019.36	210.73
1019.65	210.76
1019.93	210.66
1020.22	210.66
1020.51	210.75
1020.79	210.67
1021.08	211.05
1021.36	210.30
1021.65	210.75
1021.94	210.65
1022.22	211.55
1022.51	210.80
1022.79	209.70
1023.08	210.90
1023.36	211.65
1023.65	209.40
>>>>>End Processed Spectral Data<<<<<
