SpectraSuite Data File
++++++++++++++++++++++++++++++++++++
Date: Mon Feb 25 17:31:06 EST 2013
User: group
Dark Spectrum Present: No
Reference Spectrum Present: No
Number of Sampled Component Spectra: 1
Spectrometers: USB2E7196
Integration Time (usec): 52000 (USB2E7196)
Spectra Averaged: 20 (USB2E7196)
Boxcar Smoothing: 10 (USB2E7196)
Correct for Electrical Dark: No (USB2E7196)
Strobe/Lamp Enabled: No (USB2E7196)
Correct for Detector Non-linearity: No (USB2E7196)
Correct for Stray Light: No (USB2E7196)
Number of Pixels in Processed Spectrum: 2048
>>>>>Begin Processed Spectral Data<<<<<
339.09	0.00
339.48	199.60
339.86	201.00
340.24	202.60
340.63	202.00
341.01	207.40
341.39	206.50
341.78	207.70
342.16	208.10
342.54	209.15
342.93	198.40
343.31	208.43
343.69	208.97
344.07	209.39
344.46	209.76
344.84	210.20
345.22	210.37
345.60	210.59
345.99	210.75
346.37	210.92
346.75	210.98
347.13	210.94
347.52	210.94
347.90	211.00
348.28	211.06
348.66	211.12
349.05	211.17
349.43	211.24
349.81	211.23
350.19	211.25
350.57	211.28
350.96	211.39
351.34	211.47
351.72	211.60
352.10	211.69
352.48	211.80
352.87	211.93
353.25	212.04
353.63	212.11
354.01	212.20
354.39	212.21
354.77	212.29
355.15	212.56
355.54	212.64
355.92	212.70
356.30	212.75
356.68	212.96
357.06	212.97
357.44	213.02
357.82	213.18
358.20	213.27
358.58	213.40
358.97	213.45
359.35	213.61
359.73	213.65
360.11	213.77
360.49	213.89
360.87	213.86
361.25	213.96
361.63	214.16
362.01	214.20
362.39	214.26
362.77	214.37
363.15	214.35
363.53	214.46
363.91	214.49
364.29	214.52
364.67	214.39
365.05	214.43
365.43	214.45
365.81	214.45
366.19	214.52
366.57	214.53
366.95	214.59
367.33	214.52
367.71	214.46
368.09	214.52
368.47	214.48
368.85	214.52
369.23	214.51
369.61	214.33
369.99	214.40
370.37	214.44
370.75	214.49
371.13	214.37
371.51	214.27
371.89	214.25
372.27	214.25
372.65	214.19
373.03	214.19
373.41	214.18
373.78	214.14
374.16	213.98
374.54	213.86
374.92	213.69
375.30	213.63
375.68	213.62
376.06	213.55
376.44	213.45
376.82	213.42
377.19	213.30
377.57	213.32
377.95	213.20
378.33	213.16
378.71	213.01
379.09	213.02
379.47	213.05
379.84	212.93
380.22	212.83
380.60	212.76
380.98	212.73
381.36	212.65
381.73	212.58
382.11	212.56
382.49	212.52
382.87	212.48
383.25	212.42
383.62	212.48
384.00	212.35
384.38	212.33
384.76	212.28
385.13	212.35
385.51	212.24
385.89	212.19
386.27	212.15
386.64	212.13
387.02	212.01
387.40	211.95
387.78	212.03
388.15	212.04
388.53	212.02
388.91	211.94
389.29	211.95
389.66	211.90
390.04	211.83
390.42	211.83
390.79	211.88
391.17	211.85
391.55	211.75
391.92	211.76
392.30	211.71
392.68	211.68
393.05	211.56
393.43	211.56
393.81	211.56
394.18	211.50
394.56	211.51
394.94	211.63
395.31	211.63
395.69	211.65
396.06	211.66
396.44	211.71
396.82	211.73
397.19	211.80
397.57	211.85
397.95	212.02
398.32	211.95
398.70	211.92
399.07	212.07
399.45	212.03
399.82	212.05
400.20	212.08
400.58	212.08
400.95	212.12
401.33	212.20
401.70	212.36
402.08	212.40
402.45	212.45
402.83	212.46
403.20	212.53
403.58	212.54
403.95	212.55
404.33	212.64
404.71	212.66
405.08	212.83
405.46	212.91
405.83	212.93
406.21	213.05
406.58	213.20
406.96	213.26
407.33	213.35
407.70	213.54
408.08	213.87
408.45	214.14
408.83	214.41
409.20	214.65
409.58	214.81
409.95	215.18
410.33	215.43
410.70	215.69
411.08	215.99
411.45	216.35
411.82	216.72
412.20	217.16
412.57	217.73
412.95	218.04
413.32	218.58
413.69	219.05
414.07	219.59
414.44	220.20
414.82	220.78
415.19	221.65
415.56	222.35
415.94	223.05
416.31	223.85
416.68	224.67
417.06	225.63
417.43	226.60
417.81	227.62
418.18	228.76
418.55	230.03
418.93	231.30
419.30	232.62
419.67	233.97
420.04	235.28
420.42	236.75
420.79	238.53
421.16	240.15
421.54	242.01
421.91	243.88
422.28	245.83
422.66	247.86
423.03	249.86
423.40	251.94
423.77	254.15
424.15	256.45
424.52	258.72
424.89	261.21
425.26	263.54
425.64	265.90
426.01	268.44
426.38	270.99
426.75	273.63
427.13	276.35
427.50	279.33
427.87	282.43
428.24	285.38
428.61	288.19
428.99	291.40
429.36	294.82
429.73	298.29
430.10	301.72
430.47	305.15
430.85	308.79
431.22	312.63
431.59	316.63
431.96	320.49
432.33	324.79
432.70	328.87
433.08	333.71
433.45	338.20
433.82	342.62
434.19	347.72
434.56	352.76
434.93	357.46
435.30	362.14
435.68	367.25
436.05	372.37
436.42	377.40
436.79	382.02
437.16	386.92
437.53	392.04
437.90	397.08
438.27	402.09
438.64	407.22
439.01	412.02
439.38	416.30
439.75	420.43
440.13	425.13
440.50	429.63
440.87	433.28
441.24	437.11
441.61	441.37
441.98	444.27
442.35	447.77
442.72	451.27
443.09	454.70
443.46	456.71
443.83	458.10
444.20	459.21
444.57	461.02
444.94	461.81
445.31	462.66
445.68	463.46
446.05	463.84
446.42	463.23
446.79	462.60
447.16	461.75
447.53	461.17
447.90	459.15
448.27	457.15
448.64	454.25
449.01	452.12
449.37	448.55
449.74	445.20
450.11	441.15
450.48	436.77
450.85	432.23
451.22	428.35
451.59	424.63
451.96	421.18
452.33	416.49
452.70	412.22
453.07	407.11
453.43	401.95
453.80	397.04
454.17	392.33
454.54	387.78
454.91	383.02
455.28	378.39
455.65	374.12
456.02	369.91
456.38	366.39
456.75	361.87
457.12	358.02
457.49	354.24
457.86	350.51
458.23	347.44
458.59	344.00
458.96	340.65
459.33	337.56
459.70	334.42
460.07	331.88
460.43	329.08
460.80	326.59
461.17	324.22
461.54	321.80
461.91	319.52
462.27	317.17
462.64	315.21
463.01	312.96
463.38	310.90
463.74	308.75
464.11	306.71
464.48	305.08
464.85	303.40
465.21	302.18
465.58	300.80
465.95	299.06
466.32	297.72
466.68	296.25
467.05	294.90
467.42	293.57
467.78	292.19
468.15	290.90
468.52	289.86
468.88	288.64
469.25	287.40
469.62	286.49
469.98	285.61
470.35	284.77
470.72	283.94
471.08	282.93
471.45	282.16
471.82	281.50
472.18	280.64
472.55	280.11
472.92	279.38
473.28	278.80
473.65	278.33
474.02	277.83
474.38	277.42
474.75	277.08
475.11	276.71
475.48	276.51
475.85	276.29
476.21	276.01
476.58	275.90
476.94	275.95
477.31	275.85
477.67	275.79
478.04	275.79
478.41	275.95
478.77	276.31
479.14	276.38
479.50	276.70
479.87	277.08
480.23	277.43
480.60	277.81
480.96	278.24
481.33	278.79
481.69	279.37
482.06	280.01
482.42	280.67
482.79	281.46
483.15	282.31
483.52	283.32
483.88	284.38
484.25	285.45
484.61	286.54
484.98	287.73
485.34	289.07
485.71	290.49
486.07	291.87
486.44	293.11
486.80	294.65
487.17	296.19
487.53	297.98
487.90	299.80
488.26	301.68
488.62	303.65
488.99	305.72
489.35	307.92
489.72	310.22
490.08	312.62
490.44	315.14
490.81	317.74
491.17	320.41
491.54	323.22
491.90	326.22
492.26	329.41
492.63	332.64
492.99	336.07
493.36	339.64
493.72	343.47
494.08	347.47
494.45	351.73
494.81	356.26
495.17	360.72
495.54	365.56
495.90	370.55
496.26	375.76
496.63	381.27
496.99	386.94
497.35	393.05
497.72	399.19
498.08	405.54
498.44	412.30
498.80	419.42
499.17	426.86
499.53	434.40
499.89	442.33
500.26	450.53
500.62	458.78
500.98	467.61
501.34	476.68
501.71	486.12
502.07	495.76
502.43	505.73
502.79	515.86
503.16	526.45
503.52	537.32
503.88	548.56
504.24	560.16
504.60	572.02
504.97	584.16
505.33	596.87
505.69	610.10
506.05	623.46
506.41	636.86
506.78	650.44
507.14	664.67
507.50	679.00
507.86	693.86
508.22	709.13
508.59	724.40
508.95	740.31
509.31	756.52
509.67	772.86
510.03	789.70
510.39	807.26
510.75	824.83
511.12	842.71
511.48	860.75
511.84	879.30
512.20	897.76
512.56	916.84
512.92	936.03
513.28	955.28
513.64	974.73
514.00	994.62
514.37	1014.85
514.73	1035.27
515.09	1055.90
515.45	1076.41
515.81	1097.41
516.17	1118.47
516.53	1139.62
516.89	1161.03
517.25	1182.52
517.61	1203.92
517.97	1225.00
518.33	1246.26
518.69	1268.02
519.05	1290.04
519.41	1311.78
519.77	1333.99
520.13	1355.79
520.49	1377.57
520.85	1399.98
521.21	1422.28
521.57	1444.61
521.93	1466.36
522.29	1488.90
522.65	1511.10
523.01	1533.45
523.37	1555.23
523.73	1577.63
524.09	1599.42
524.45	1621.21
524.81	1643.19
525.17	1665.12
525.53	1687.56
525.89	1709.65
526.25	1731.27
526.61	1752.15
526.97	1773.38
527.33	1794.56
527.68	1815.51
528.04	1836.40
528.40	1856.28
528.76	1876.77
529.12	1897.55
529.48	1919.17
529.84	1939.17
530.20	1959.35
530.56	1979.23
530.91	1999.83
531.27	2019.49
531.63	2039.15
531.99	2058.80
532.35	2077.74
532.71	2096.54
533.07	2115.77
533.42	2133.69
533.78	2152.28
534.14	2170.42
534.50	2187.54
534.86	2205.04
535.21	2221.52
535.57	2239.04
535.93	2255.92
536.29	2272.16
536.65	2287.98
537.00	2302.74
537.36	2317.57
537.72	2332.44
538.08	2347.43
538.44	2361.95
538.79	2376.88
539.15	2391.40
539.51	2405.69
539.87	2420.64
540.22	2434.44
540.58	2448.77
540.94	2462.97
541.29	2475.52
541.65	2487.57
542.01	2500.54
542.37	2511.81
542.72	2524.10
543.08	2534.50
543.44	2546.40
543.79	2556.37
544.15	2566.45
544.51	2577.12
544.87	2587.88
545.22	2596.89
545.58	2605.05
545.94	2611.80
546.29	2617.89
546.65	2624.04
547.01	2629.36
547.36	2634.50
547.72	2640.15
548.07	2643.68
548.43	2647.17
548.79	2650.58
549.14	2654.55
549.50	2658.15
549.86	2662.25
550.21	2665.87
550.57	2669.95
550.92	2672.08
551.28	2674.22
551.64	2676.39
551.99	2678.43
552.35	2679.67
552.70	2682.01
553.06	2684.47
553.41	2687.61
553.77	2690.52
554.13	2692.51
554.48	2694.59
554.84	2695.88
555.19	2696.24
555.55	2696.66
555.90	2697.32
556.26	2697.47
556.61	2697.42
556.97	2695.94
557.32	2695.31
557.68	2693.71
558.03	2692.03
558.39	2690.52
558.74	2690.62
559.10	2689.50
559.45	2687.37
559.81	2685.94
560.16	2683.35
560.52	2680.84
560.87	2677.75
561.23	2673.81
561.58	2671.48
561.94	2668.23
562.29	2664.48
562.64	2661.96
563.00	2659.40
563.35	2656.76
563.71	2655.05
564.06	2652.76
564.42	2650.95
564.77	2648.10
565.12	2645.96
565.48	2642.62
565.83	2639.46
566.19	2636.01
566.54	2631.47
566.89	2627.62
567.25	2624.09
567.60	2620.70
567.96	2617.07
568.31	2613.51
568.66	2609.75
569.02	2605.05
569.37	2599.76
569.72	2595.85
570.08	2590.47
570.43	2584.48
570.78	2579.01
571.14	2572.47
571.49	2565.97
571.84	2560.09
572.20	2553.52
572.55	2547.07
572.90	2540.14
573.26	2533.35
573.61	2525.91
573.96	2519.64
574.31	2511.91
574.67	2503.66
575.02	2495.28
575.37	2486.73
575.72	2477.91
576.08	2470.46
576.43	2461.82
576.78	2454.01
577.13	2446.31
577.49	2438.66
577.84	2431.28
578.19	2423.44
578.54	2416.09
578.90	2409.47
579.25	2401.05
579.60	2391.98
579.95	2382.70
580.30	2375.06
580.66	2367.16
581.01	2358.31
581.36	2349.01
581.71	2340.64
582.06	2332.37
582.42	2324.48
582.77	2315.67
583.12	2307.09
583.47	2298.41
583.82	2290.18
584.17	2281.35
584.53	2272.32
584.88	2263.35
585.23	2254.17
585.58	2244.90
585.93	2235.60
586.28	2226.38
586.63	2217.48
586.98	2209.66
587.34	2201.53
587.69	2192.43
588.04	2183.26
588.39	2175.22
588.74	2166.60
589.09	2158.27
589.44	2148.90
589.79	2140.14
590.14	2132.29
590.49	2124.02
590.84	2115.31
591.19	2107.39
591.54	2099.07
591.89	2088.97
592.25	2080.04
592.60	2071.01
592.95	2062.12
593.30	2052.99
593.65	2043.35
594.00	2033.91
594.35	2025.82
594.70	2016.63
595.05	2008.04
595.40	1999.35
595.75	1990.07
596.10	1982.22
596.45	1973.94
596.80	1966.72
597.15	1958.58
597.50	1949.74
597.85	1941.35
598.19	1932.62
598.54	1924.15
598.89	1916.29
599.24	1909.80
599.59	1902.56
599.94	1895.72
600.29	1887.89
600.64	1880.03
600.99	1871.98
601.34	1865.19
601.69	1856.55
602.04	1848.57
602.39	1840.91
602.74	1833.31
603.08	1826.93
603.43	1819.66
603.78	1812.01
604.13	1803.68
604.48	1795.99
604.83	1789.46
605.18	1782.68
605.53	1775.65
605.87	1768.17
606.22	1761.13
606.57	1753.17
606.92	1745.16
607.27	1737.16
607.62	1730.04
607.96	1723.39
608.31	1717.39
608.66	1709.57
609.01	1702.20
609.36	1694.83
609.70	1687.00
610.05	1679.42
610.40	1671.04
610.75	1662.85
611.10	1655.17
611.44	1646.50
611.79	1637.78
612.14	1628.35
612.49	1618.76
612.83	1610.10
613.18	1600.53
613.53	1591.17
613.88	1582.10
614.22	1573.30
614.57	1564.09
614.92	1555.04
615.27	1546.02
615.61	1536.19
615.96	1527.38
616.31	1518.77
616.65	1511.21
617.00	1503.03
617.35	1494.59
617.70	1486.10
618.04	1477.13
618.39	1467.90
618.74	1459.47
619.08	1450.90
619.43	1442.97
619.78	1435.28
620.12	1427.30
620.47	1419.88
620.82	1411.78
621.16	1403.65
621.51	1395.55
621.85	1387.83
622.20	1379.46
622.55	1371.13
622.89	1362.75
623.24	1355.09
623.59	1346.87
623.93	1338.03
624.28	1329.60
624.62	1321.55
624.97	1313.54
625.32	1305.88
625.66	1298.70
626.01	1291.91
626.35	1284.89
626.70	1277.34
627.04	1270.15
627.39	1262.53
627.73	1254.98
628.08	1248.23
628.43	1240.87
628.77	1233.70
629.12	1226.09
629.46	1219.59
629.81	1212.54
630.15	1205.78
630.50	1198.42
630.84	1191.21
631.19	1184.38
631.53	1177.72
631.88	1170.32
632.22	1162.66
632.57	1155.76
632.91	1148.47
633.26	1140.93
633.60	1133.67
633.95	1126.91
634.29	1119.55
634.64	1112.87
634.98	1106.00
635.32	1099.18
635.67	1092.88
636.01	1086.37
636.36	1079.79
636.70	1073.09
637.05	1066.70
637.39	1060.53
637.73	1054.20
638.08	1048.50
638.42	1042.77
638.77	1036.56
639.11	1030.25
639.45	1024.41
639.80	1018.08
640.14	1011.90
640.49	1005.79
640.83	999.79
641.17	993.36
641.52	987.65
641.86	981.45
642.20	975.29
642.55	968.51
642.89	961.99
643.23	955.56
643.58	949.77
643.92	943.74
644.26	937.50
644.61	931.38
644.95	925.45
645.29	919.20
645.64	912.46
645.98	906.30
646.32	900.53
646.66	894.67
647.01	888.76
647.35	882.88
647.69	876.53
648.04	870.44
648.38	864.66
648.72	858.55
649.06	852.46
649.41	846.59
649.75	840.95
650.09	835.43
650.43	829.66
650.78	823.58
651.12	817.38
651.46	811.60
651.80	805.88
652.14	800.06
652.49	794.15
652.83	788.48
653.17	782.57
653.51	776.91
653.85	771.19
654.20	765.35
654.54	759.68
654.88	754.56
655.22	748.95
655.56	743.19
655.90	737.34
656.25	731.77
656.59	726.30
656.93	721.08
657.27	715.79
657.61	710.43
657.95	705.44
658.29	700.57
658.64	695.57
658.98	690.24
659.32	684.95
659.66	680.02
660.00	674.94
660.34	669.83
660.68	664.75
661.02	659.56
661.36	654.96
661.70	650.25
662.05	645.44
662.39	641.14
662.73	636.81
663.07	632.72
663.41	628.62
663.75	624.30
664.09	619.81
664.43	615.17
664.77	611.00
665.11	606.45
665.45	602.11
665.79	597.75
666.13	593.52
666.47	589.42
666.81	585.19
667.15	581.30
667.49	577.61
667.83	573.74
668.17	570.01
668.51	566.16
668.85	562.44
669.19	558.75
669.53	554.79
669.87	550.85
670.21	546.97
670.55	543.10
670.89	539.65
671.23	536.36
671.57	533.10
671.91	529.44
672.25	526.00
672.58	522.50
672.92	519.06
673.26	515.99
673.60	512.76
673.94	509.50
674.28	506.08
674.62	502.91
674.96	499.83
675.30	496.90
675.64	493.85
675.97	490.70
676.31	487.86
676.65	485.21
676.99	482.66
677.33	479.79
677.67	476.83
678.01	473.76
678.34	470.80
678.68	467.92
679.02	465.04
679.36	462.29
679.70	459.48
680.04	456.84
680.37	453.96
680.71	451.23
681.05	448.64
681.39	446.13
681.73	443.51
682.06	441.00
682.40	438.47
682.74	435.90
683.08	433.48
683.42	430.71
683.75	428.11
684.09	425.44
684.43	423.06
684.77	420.60
685.10	418.18
685.44	415.60
685.78	413.09
686.12	410.92
686.45	408.66
686.79	406.48
687.13	404.30
687.46	402.10
687.80	399.95
688.14	397.66
688.48	395.50
688.81	393.21
689.15	391.07
689.49	388.91
689.82	386.90
690.16	384.54
690.50	382.35
690.83	380.08
691.17	377.91
691.51	375.76
691.84	373.83
692.18	371.73
692.52	369.93
692.85	368.16
693.19	366.32
693.52	364.41
693.86	362.38
694.20	360.38
694.53	358.51
694.87	356.61
695.21	354.78
695.54	352.86
695.88	351.04
696.21	349.22
696.55	347.50
696.88	345.67
697.22	344.08
697.56	342.57
697.89	341.03
698.23	339.45
698.56	337.95
698.90	336.36
699.23	334.80
699.57	333.19
699.90	331.51
700.24	329.82
700.58	328.26
700.91	326.90
701.25	325.57
701.58	324.17
701.92	322.82
702.25	321.44
702.59	320.08
702.92	318.80
703.26	317.36
703.59	316.05
703.93	314.92
704.26	313.75
704.60	312.49
704.93	311.28
705.26	310.04
705.60	308.77
705.93	307.49
706.27	306.37
706.60	305.21
706.94	304.18
707.27	303.05
707.61	302.02
707.94	300.85
708.27	299.61
708.61	298.47
708.94	297.38
709.28	296.30
709.61	295.18
709.94	294.11
710.28	293.12
710.61	292.01
710.95	290.89
711.28	289.83
711.61	288.84
711.95	287.81
712.28	286.81
712.61	285.83
712.95	284.95
713.28	284.14
713.61	283.22
713.95	282.23
714.28	281.35
714.61	280.40
714.95	279.49
715.28	278.62
715.61	277.70
715.95	276.80
716.28	275.96
716.61	275.23
716.95	274.44
717.28	273.58
717.61	272.87
717.94	272.09
718.28	271.34
718.61	270.59
718.94	269.83
719.27	269.16
719.61	268.48
719.94	267.70
720.27	266.90
720.60	266.17
720.94	265.54
721.27	264.88
721.60	264.30
721.93	263.76
722.27	263.24
722.60	262.65
722.93	262.05
723.26	261.44
723.59	260.79
723.93	260.25
724.26	259.82
724.59	259.26
724.92	258.76
725.25	258.30
725.59	257.71
725.92	257.29
726.25	256.76
726.58	256.25
726.91	255.78
727.24	255.30
727.57	254.89
727.91	254.39
728.24	253.98
728.57	253.44
728.90	252.87
729.23	252.30
729.56	252.01
729.89	251.59
730.22	251.16
730.55	250.70
730.89	250.22
731.22	249.69
731.55	249.29
731.88	248.76
732.21	248.20
732.54	247.82
732.87	247.29
733.20	246.84
733.53	246.44
733.86	246.10
734.19	245.70
734.52	245.27
734.85	245.04
735.18	244.58
735.51	244.21
735.84	243.88
736.17	243.57
736.50	243.09
736.83	242.98
737.16	242.60
737.49	242.32
737.82	241.94
738.15	241.58
738.48	241.14
738.81	240.84
739.14	240.52
739.47	240.15
739.80	239.82
740.13	239.50
740.46	239.06
740.79	238.71
741.12	238.32
741.45	237.96
741.78	237.48
742.11	237.28
742.44	237.03
742.77	236.78
743.10	236.49
743.43	236.22
743.75	235.69
744.08	235.62
744.41	235.29
744.74	234.96
745.07	234.72
745.40	234.50
745.73	234.31
746.06	234.03
746.39	233.76
746.71	233.47
747.04	233.17
747.37	232.97
747.70	232.72
748.03	232.52
748.36	232.29
748.68	232.11
749.01	231.79
749.34	231.48
749.67	231.23
750.00	230.94
750.33	230.78
750.65	230.56
750.98	230.14
751.31	229.95
751.64	229.77
751.97	229.60
752.29	229.37
752.62	228.98
752.95	228.79
753.28	228.54
753.60	228.34
753.93	228.21
754.26	228.03
754.59	227.78
754.91	227.55
755.24	227.39
755.57	227.10
755.90	226.90
756.22	226.68
756.55	226.46
756.88	226.31
757.20	225.98
757.53	225.73
757.86	225.44
758.19	225.26
758.51	225.01
758.84	224.79
759.17	224.60
759.49	224.50
759.82	224.36
760.15	224.24
760.47	224.02
760.80	223.81
761.13	223.67
761.45	223.48
761.78	223.32
762.11	223.14
762.43	222.97
762.76	222.77
763.08	222.60
763.41	222.41
763.74	222.27
764.06	222.15
764.39	221.97
764.71	221.89
765.04	221.70
765.37	221.60
765.69	221.50
766.02	221.34
766.34	221.21
766.67	221.05
767.00	220.95
767.32	220.97
767.65	220.95
767.97	220.80
768.30	220.72
768.62	220.66
768.95	220.55
769.27	220.50
769.60	220.46
769.92	220.33
770.25	220.30
770.57	220.17
770.90	220.05
771.22	219.98
771.55	219.91
771.87	219.88
772.20	219.77
772.52	219.78
772.85	219.86
773.17	219.78
773.50	219.71
773.82	219.52
774.15	219.36
774.47	219.16
774.80	219.14
775.12	219.10
775.45	218.96
775.77	218.93
776.09	218.86
776.42	218.70
776.74	218.77
777.07	218.59
777.39	218.50
777.72	218.41
778.04	218.35
778.36	218.24
778.69	218.08
779.01	218.03
779.33	217.74
779.66	217.55
779.98	217.49
780.31	217.42
780.63	217.39
780.95	217.29
781.28	217.26
781.60	217.15
781.92	217.12
782.25	217.03
782.57	216.94
782.89	216.85
783.22	216.92
783.54	216.79
783.86	216.80
784.19	216.72
784.51	216.73
784.83	216.63
785.16	216.59
785.48	216.59
785.80	216.55
786.12	216.55
786.45	216.48
786.77	216.41
787.09	216.33
787.42	216.37
787.74	216.36
788.06	216.32
788.38	216.25
788.71	216.14
789.03	216.14
789.35	216.11
789.67	216.02
789.99	215.87
790.32	215.77
790.64	215.70
790.96	215.83
791.28	215.73
791.61	215.71
791.93	215.66
792.25	215.60
792.57	215.66
792.89	215.51
793.21	215.43
793.54	215.38
793.86	215.30
794.18	215.20
794.50	215.16
794.82	215.06
795.14	215.06
795.47	215.08
795.79	215.00
796.11	214.89
796.43	214.89
796.75	214.87
797.07	214.87
797.39	214.85
797.71	214.65
798.04	214.61
798.36	214.58
798.68	214.55
799.00	214.53
799.32	214.41
799.64	214.48
799.96	214.48
800.28	214.44
800.60	214.40
800.92	214.40
801.24	214.35
801.56	214.31
801.89	214.18
802.21	214.17
802.53	214.14
802.85	214.16
803.17	214.15
803.49	214.06
803.81	214.02
804.13	213.94
804.45	213.97
804.77	213.98
805.09	213.97
805.41	214.01
805.73	213.88
806.05	213.81
806.37	213.78
806.69	213.79
807.01	213.80
807.33	213.80
807.65	213.70
807.97	213.72
808.28	213.66
808.60	213.75
808.92	213.70
809.24	213.72
809.56	213.61
809.88	213.53
810.20	213.58
810.52	213.59
810.84	213.61
811.16	213.55
811.48	213.48
811.80	213.45
812.12	213.37
812.43	213.46
812.75	213.42
813.07	213.37
813.39	213.41
813.71	213.40
814.03	213.37
814.35	213.48
814.67	213.45
814.98	213.48
815.30	213.45
815.62	213.35
815.94	213.27
816.26	213.32
816.58	213.35
816.89	213.30
817.21	213.26
817.53	213.20
817.85	213.22
818.17	213.26
818.48	213.20
818.80	213.26
819.12	213.20
819.44	213.23
819.76	213.20
820.07	213.09
820.39	213.01
820.71	213.03
821.03	212.90
821.34	212.79
821.66	212.83
821.98	212.74
822.30	212.71
822.61	212.88
822.93	212.86
823.25	212.82
823.57	212.88
823.88	212.87
824.20	212.87
824.52	212.82
824.83	212.80
825.15	212.75
825.47	212.71
825.79	212.70
826.10	212.65
826.42	212.65
826.74	212.61
827.05	212.63
827.37	212.62
827.69	212.59
828.00	212.63
828.32	212.58
828.64	212.56
828.95	212.70
829.27	212.57
829.58	212.59
829.90	212.53
830.22	212.48
830.53	212.48
830.85	212.54
831.17	212.53
831.48	212.48
831.80	212.58
832.11	212.51
832.43	212.54
832.75	212.48
833.06	212.57
833.38	212.63
833.69	212.51
834.01	212.47
834.32	212.49
834.64	212.47
834.96	212.50
835.27	212.54
835.59	212.42
835.90	212.38
836.22	212.31
836.53	212.40
836.85	212.41
837.16	212.51
837.48	212.43
837.79	212.44
838.11	212.45
838.42	212.37
838.74	212.37
839.05	212.33
839.37	212.36
839.68	212.24
840.00	212.20
840.31	212.31
840.63	212.32
840.94	212.29
841.26	212.24
841.57	212.19
841.88	212.15
842.20	212.09
842.51	212.02
842.83	212.00
843.14	212.02
843.46	212.04
843.77	211.94
844.08	211.91
844.40	211.89
844.71	211.84
845.03	211.79
845.34	211.73
845.65	211.80
845.97	211.79
846.28	211.73
846.60	211.75
846.91	211.70
847.22	211.63
847.54	211.65
847.85	211.69
848.16	211.69
848.48	211.65
848.79	211.71
849.10	211.80
849.42	211.82
849.73	211.70
850.04	211.65
850.36	211.56
850.67	211.64
850.98	211.59
851.30	211.64
851.61	211.66
851.92	211.78
852.23	211.71
852.55	211.68
852.86	211.73
853.17	211.70
853.49	211.70
853.80	211.81
854.11	211.81
854.42	211.78
854.74	211.69
855.05	211.78
855.36	211.77
855.67	211.78
855.99	211.70
856.30	211.96
856.61	211.96
856.92	211.98
857.23	211.92
857.55	211.88
857.86	211.84
858.17	211.90
858.48	211.76
858.79	211.82
859.11	211.85
859.42	211.82
859.73	211.80
860.04	211.80
860.35	211.68
860.66	211.70
860.98	211.70
861.29	211.73
861.60	211.69
861.91	211.72
862.22	211.67
862.53	211.62
862.84	211.35
863.16	211.44
863.47	211.43
863.78	211.44
864.09	211.45
864.40	211.46
864.71	211.46
865.02	211.48
865.33	211.35
865.64	211.32
865.95	211.34
866.27	211.40
866.58	211.46
866.89	211.48
867.20	211.42
867.51	211.43
867.82	211.44
868.13	211.52
868.44	211.42
868.75	211.41
869.06	211.44
869.37	211.40
869.68	211.29
869.99	211.31
870.30	211.29
870.61	211.35
870.92	211.35
871.23	211.30
871.54	211.36
871.85	211.44
872.16	211.48
872.47	211.40
872.78	211.35
873.09	211.30
873.40	211.27
873.71	211.32
874.02	211.27
874.33	211.26
874.64	211.15
874.95	211.15
875.26	211.14
875.56	211.20
875.87	211.25
876.18	211.24
876.49	211.45
876.80	211.45
877.11	211.42
877.42	211.41
877.73	211.42
878.04	211.40
878.35	211.35
878.66	211.30
878.96	211.29
879.27	211.31
879.58	211.30
879.89	211.24
880.20	211.25
880.51	211.25
880.82	211.28
881.12	211.31
881.43	211.34
881.74	211.24
882.05	211.20
882.36	211.18
882.67	211.16
882.97	210.91
883.28	210.85
883.59	210.85
883.90	210.80
884.21	210.78
884.51	210.73
884.82	210.76
885.13	210.83
885.44	210.85
885.74	210.82
886.05	210.82
886.36	210.91
886.67	210.85
886.98	210.96
887.28	211.01
887.59	210.96
887.90	210.97
888.20	211.07
888.51	211.15
888.82	211.15
889.13	211.17
889.43	211.33
889.74	211.32
890.05	211.30
890.35	211.33
890.66	211.39
890.97	211.37
891.28	211.39
891.58	211.33
891.89	211.41
892.20	211.35
892.50	211.34
892.81	211.33
893.12	211.40
893.42	211.32
893.73	211.26
894.04	211.24
894.34	211.20
894.65	211.14
894.95	211.08
895.26	211.13
895.57	211.23
895.87	211.10
896.18	211.19
896.48	211.18
896.79	211.19
897.10	211.16
897.40	211.23
897.71	211.23
898.01	211.31
898.32	211.19
898.63	211.25
898.93	211.31
899.24	211.29
899.54	211.22
899.85	211.25
900.15	211.24
900.46	211.26
900.76	211.26
901.07	211.27
901.38	211.31
901.68	211.29
901.99	211.19
902.29	211.18
902.60	211.15
902.90	211.19
903.21	211.16
903.51	211.15
903.82	211.12
904.12	211.08
904.43	211.09
904.73	211.18
905.03	211.11
905.34	211.17
905.64	211.18
905.95	211.14
906.25	211.07
906.56	211.06
906.86	211.08
907.17	211.07
907.47	211.12
907.77	211.15
908.08	211.16
908.38	211.16
908.69	211.13
908.99	211.15
909.30	211.15
909.60	211.15
909.90	211.12
910.21	211.10
910.51	211.06
910.81	210.97
911.12	210.93
911.42	211.01
911.73	210.88
912.03	210.90
912.33	210.94
912.64	211.01
912.94	211.01
913.24	210.98
913.55	210.99
913.85	210.94
914.15	210.90
914.46	210.87
914.76	210.81
915.06	210.80
915.37	210.75
915.67	210.67
915.97	210.64
916.27	210.63
916.58	210.68
916.88	210.65
917.18	210.70
917.49	210.83
917.79	210.83
918.09	210.82
918.39	210.86
918.70	210.85
919.00	210.79
919.30	210.84
919.60	210.83
919.91	210.85
920.21	210.88
920.51	210.85
920.81	210.83
921.12	210.91
921.42	210.89
921.72	210.95
922.02	211.03
922.32	211.14
922.63	211.06
922.93	211.10
923.23	211.12
923.53	211.10
923.83	210.94
924.13	210.94
924.44	210.94
924.74	210.93
925.04	210.97
925.34	210.93
925.64	210.95
925.94	210.93
926.24	210.97
926.55	210.94
926.85	210.99
927.15	211.05
927.45	211.04
927.75	211.03
928.05	210.99
928.35	210.95
928.65	210.90
928.95	210.98
929.26	210.91
929.56	211.01
929.86	211.05
930.16	211.16
930.46	211.10
930.76	211.14
931.06	211.10
931.36	211.07
931.66	211.14
931.96	211.06
932.26	211.10
932.56	211.06
932.86	211.06
933.16	211.06
933.46	210.98
933.76	210.92
934.06	210.99
934.36	211.13
934.66	211.05
934.96	211.06
935.26	211.02
935.56	211.04
935.86	211.01
936.16	210.93
936.46	210.85
936.76	210.94
937.06	210.90
937.36	210.91
937.66	210.99
937.96	211.03
938.26	211.05
938.56	211.06
938.86	211.04
939.16	211.11
939.46	211.09
939.76	211.11
940.06	211.16
940.35	211.16
940.65	211.04
940.95	211.13
941.25	211.09
941.55	211.15
941.85	211.20
942.15	211.18
942.45	211.24
942.75	211.23
943.04	211.17
943.34	211.18
943.64	211.15
943.94	211.00
944.24	210.89
944.54	210.90
944.84	210.86
945.13	210.88
945.43	210.79
945.73	210.76
946.03	210.78
946.33	210.77
946.62	210.72
946.92	210.64
947.22	210.58
947.52	210.58
947.82	210.51
948.11	210.49
948.41	210.44
948.71	210.40
949.01	210.43
949.31	210.35
949.60	210.35
949.90	210.36
950.20	210.44
950.50	210.51
950.79	210.46
951.09	210.48
951.39	210.41
951.69	210.44
951.98	210.47
952.28	210.45
952.58	210.42
952.87	210.42
953.17	210.47
953.47	210.45
953.76	210.48
954.06	210.45
954.36	210.40
954.66	210.44
954.95	210.43
955.25	210.40
955.55	210.55
955.84	210.58
956.14	210.59
956.44	210.56
956.73	210.57
957.03	210.62
957.32	210.67
957.62	210.74
957.92	210.73
958.21	210.76
958.51	210.95
958.81	211.01
959.10	211.02
959.40	211.09
959.69	211.15
959.99	211.19
960.29	211.26
960.58	211.25
960.88	211.29
961.17	211.34
961.47	211.33
961.76	211.25
962.06	211.32
962.36	211.35
962.65	211.41
962.95	211.45
963.24	211.43
963.54	211.45
963.83	211.43
964.13	211.45
964.42	211.39
964.72	211.24
965.01	211.22
965.31	211.20
965.60	211.19
965.90	211.38
966.19	211.33
966.49	211.33
966.78	211.35
967.08	211.41
967.37	211.48
967.67	211.55
967.96	211.66
968.26	211.60
968.55	211.64
968.85	211.67
969.14	211.60
969.43	211.60
969.73	211.54
970.02	211.63
970.32	211.59
970.61	211.64
970.91	211.61
971.20	211.60
971.49	211.68
971.79	211.65
972.08	211.47
972.38	211.45
972.67	211.44
972.96	211.44
973.26	211.38
973.55	211.38
973.85	211.33
974.14	211.27
974.43	211.25
974.73	211.16
975.02	211.13
975.31	211.16
975.61	211.14
975.90	211.14
976.19	211.07
976.49	211.12
976.78	211.11
977.07	211.08
977.37	211.06
977.66	211.09
977.95	211.12
978.24	211.15
978.54	211.28
978.83	211.29
979.12	211.35
979.42	211.35
979.71	211.33
980.00	211.30
980.29	211.26
980.59	211.28
980.88	211.34
981.17	211.29
981.46	211.31
981.76	211.30
982.05	211.39
982.34	211.44
982.63	211.48
982.93	211.45
983.22	211.58
983.51	211.58
983.80	211.54
984.09	211.52
984.39	211.49
984.68	211.46
984.97	211.45
985.26	211.41
985.55	211.43
985.85	211.35
986.14	211.33
986.43	211.40
986.72	211.36
987.01	211.31
987.30	211.34
987.59	211.34
987.89	211.38
988.18	211.27
988.47	211.24
988.76	211.21
989.05	211.26
989.34	211.20
989.63	211.21
989.92	211.15
990.22	211.21
990.51	211.17
990.80	211.07
991.09	211.08
991.38	211.06
991.67	210.97
991.96	210.95
992.25	211.01
992.54	210.99
992.83	211.00
993.12	211.01
993.41	211.06
993.70	211.07
993.99	211.12
994.28	211.20
994.58	211.19
994.87	211.13
995.16	211.06
995.45	210.97
995.74	210.94
996.03	211.00
996.32	210.93
996.61	211.01
996.90	211.03
997.19	211.03
997.48	211.00
997.77	211.07
998.06	211.08
998.34	211.06
998.63	211.03
998.92	211.09
999.21	211.10
999.50	211.04
999.79	210.98
1000.08	210.98
1000.37	210.94
1000.66	210.89
1000.95	210.98
1001.24	211.02
1001.53	211.05
1001.82	211.07
1002.11	211.05
1002.40	211.07
1002.68	211.13
1002.97	211.24
1003.26	211.25
1003.55	211.24
1003.84	211.21
1004.13	211.27
1004.42	211.33
1004.71	211.33
1004.99	211.22
1005.28	211.22
1005.57	211.21
1005.86	211.19
1006.15	211.14
1006.44	211.11
1006.72	211.11
1007.01	211.04
1007.30	211.02
1007.59	211.02
1007.88	210.98
1008.17	210.96
1008.45	210.94
1008.74	210.88
1009.03	210.77
1009.32	210.80
1009.60	210.83
1009.89	210.81
1010.18	210.76
1010.47	210.65
1010.76	210.59
1011.04	210.61
1011.33	210.63
1011.62	210.67
1011.91	210.61
1012.19	210.61
1012.48	210.56
1012.77	210.54
1013.05	210.64
1013.34	210.62
1013.63	210.60
1013.92	210.60
1014.20	210.65
1014.49	210.66
1014.78	210.60
1015.06	210.56
1015.35	210.47
1015.64	210.46
1015.92	210.52
1016.21	210.49
1016.50	210.49
1016.78	210.49
1017.07	210.55
1017.36	210.54
1017.64	210.51
1017.93	210.63
1018.22	210.62
1018.50	210.62
1018.79	210.70
1019.08	210.62
1019.36	210.58
1019.65	210.56
1019.93	210.59
1020.22	210.55
1020.51	210.59
1020.79	210.62
1021.08	210.90
1021.36	209.65
1021.65	211.30
1021.94	210.55
1022.22	209.35
1022.51	209.95
1022.79	210.50
1023.08	210.75
1023.36	212.20
1023.65	210.70
>>>>>End Processed Spectral Data<<<<<
