SpectraSuite Data File
++++++++++++++++++++++++++++++++++++
Date: Mon Feb 25 17:35:37 EST 2013
User: group
Dark Spectrum Present: No
Reference Spectrum Present: No
Number of Sampled Component Spectra: 1
Spectrometers: USB2E7196
Integration Time (usec): 52000 (USB2E7196)
Spectra Averaged: 20 (USB2E7196)
Boxcar Smoothing: 10 (USB2E7196)
Correct for Electrical Dark: No (USB2E7196)
Strobe/Lamp Enabled: No (USB2E7196)
Correct for Detector Non-linearity: No (USB2E7196)
Correct for Stray Light: No (USB2E7196)
Number of Pixels in Processed Spectrum: 2048
>>>>>Begin Processed Spectral Data<<<<<
339.09	0.00
339.48	199.20
339.86	199.35
340.24	201.25
340.63	202.70
341.01	208.15
341.39	205.15
341.78	207.45
342.16	207.95
342.54	209.50
342.93	197.67
343.31	207.66
343.69	208.21
344.07	208.73
344.46	209.16
344.84	209.49
345.22	209.63
345.60	209.86
345.99	210.02
346.37	210.19
346.75	210.21
347.13	210.30
347.52	210.30
347.90	210.45
348.28	210.50
348.66	210.57
349.05	210.63
349.43	210.70
349.81	210.77
350.19	210.81
350.57	210.84
350.96	210.89
351.34	211.02
351.72	211.03
352.10	211.14
352.48	211.16
352.87	211.25
353.25	211.30
353.63	211.35
354.01	211.41
354.39	211.49
354.77	211.59
355.15	211.75
355.54	211.82
355.92	211.75
356.30	211.80
356.68	212.06
357.06	212.11
357.44	212.15
357.82	212.27
358.20	212.43
358.58	212.50
358.97	212.65
359.35	212.74
359.73	212.90
360.11	212.99
360.49	213.21
360.87	213.33
361.25	213.44
361.63	213.65
362.01	213.73
362.39	213.73
362.77	213.84
363.15	213.84
363.53	213.95
363.91	214.10
364.29	214.18
364.67	214.03
365.05	214.05
365.43	214.14
365.81	214.16
366.19	214.21
366.57	214.25
366.95	214.26
367.33	214.28
367.71	214.28
368.09	214.27
368.47	214.25
368.85	214.25
369.23	214.31
369.61	214.20
369.99	214.29
370.37	214.28
370.75	214.42
371.13	214.44
371.51	214.40
371.89	214.34
372.27	214.39
372.65	214.42
373.03	214.35
373.41	214.26
373.78	214.20
374.16	214.11
374.54	214.10
374.92	214.07
375.30	214.00
375.68	213.88
376.06	213.83
376.44	213.70
376.82	213.69
377.19	213.63
377.57	213.61
377.95	213.51
378.33	213.49
378.71	213.22
379.09	213.12
379.47	213.11
379.84	213.04
380.22	212.90
380.60	212.80
380.98	212.80
381.36	212.82
381.73	212.77
382.11	212.80
382.49	212.74
382.87	212.63
383.25	212.57
383.62	212.74
384.00	212.67
384.38	212.57
384.76	212.54
385.13	212.47
385.51	212.36
385.89	212.27
386.27	212.22
386.64	212.22
387.02	212.22
387.40	212.09
387.78	212.11
388.15	212.12
388.53	212.07
388.91	212.08
389.29	211.97
389.66	212.00
390.04	211.91
390.42	211.93
390.79	211.91
391.17	211.87
391.55	211.69
391.92	211.65
392.30	211.72
392.68	211.65
393.05	211.58
393.43	211.65
393.81	211.60
394.18	211.65
394.56	211.62
394.94	211.58
395.31	211.64
395.69	211.71
396.06	211.66
396.44	211.70
396.82	211.67
397.19	211.85
397.57	211.82
397.95	211.79
398.32	211.75
398.70	211.80
399.07	211.91
399.45	211.97
399.82	212.03
400.20	211.94
400.58	211.94
400.95	211.99
401.33	212.07
401.70	212.30
402.08	212.32
402.45	212.38
402.83	212.50
403.20	212.55
403.58	212.48
403.95	212.63
404.33	212.70
404.71	212.74
405.08	212.80
405.46	212.95
405.83	213.19
406.21	213.33
406.58	213.46
406.96	213.58
407.33	213.69
407.70	213.94
408.08	214.38
408.45	214.66
408.83	214.92
409.20	215.13
409.58	215.21
409.95	215.47
410.33	215.79
410.70	216.02
411.08	216.46
411.45	216.92
411.82	217.23
412.20	217.67
412.57	218.31
412.95	218.74
413.32	219.21
413.69	219.67
414.07	220.27
414.44	220.85
414.82	221.52
415.19	222.31
415.56	223.02
415.94	223.69
416.31	224.65
416.68	225.51
417.06	226.50
417.43	227.53
417.81	228.66
418.18	229.82
418.55	231.08
418.93	232.36
419.30	233.67
419.67	235.17
420.04	236.60
420.42	237.99
420.79	239.78
421.16	241.50
421.54	243.31
421.91	245.12
422.28	247.06
422.66	249.07
423.03	251.17
423.40	253.26
423.77	255.54
424.15	257.69
424.52	260.10
424.89	262.71
425.26	265.20
425.64	267.59
426.01	270.19
426.38	272.94
426.75	275.69
427.13	278.57
427.50	281.59
427.87	284.79
428.24	287.90
428.61	290.82
428.99	294.13
429.36	297.72
429.73	301.28
430.10	304.81
430.47	308.51
430.85	312.08
431.22	315.98
431.59	320.17
431.96	324.11
432.33	328.49
432.70	332.71
433.08	337.60
433.45	342.24
433.82	346.89
434.19	352.07
434.56	357.10
434.93	361.86
435.30	366.68
435.68	371.83
436.05	377.01
436.42	382.23
436.79	386.93
437.16	391.98
437.53	397.42
437.90	402.65
438.27	407.83
438.64	413.38
439.01	418.40
439.38	422.77
439.75	427.12
440.13	431.93
440.50	436.48
440.87	440.35
441.24	444.20
441.61	448.47
441.98	451.59
442.35	455.17
442.72	458.90
443.09	462.41
443.46	464.70
443.83	466.27
444.20	467.47
444.57	469.23
444.94	470.01
445.31	470.76
445.68	471.57
446.05	471.74
446.42	471.01
446.79	470.23
447.16	469.42
447.53	468.92
447.90	466.89
448.27	464.82
448.64	461.70
449.01	459.59
449.37	455.83
449.74	452.17
450.11	448.06
450.48	443.46
450.85	438.81
451.22	434.64
451.59	430.73
451.96	427.07
452.33	422.41
452.70	417.96
453.07	412.71
453.43	407.45
453.80	402.35
454.17	397.49
454.54	392.90
454.91	387.95
455.28	382.98
455.65	378.47
456.02	374.00
456.38	370.38
456.75	365.76
457.12	361.99
457.49	358.17
457.86	354.31
458.23	351.11
458.59	347.50
458.96	343.95
459.33	340.71
459.70	337.53
460.07	335.01
460.43	332.17
460.80	329.45
461.17	327.11
461.54	324.66
461.91	322.27
462.27	319.91
462.64	317.89
463.01	315.73
463.38	313.59
463.74	311.40
464.11	309.53
464.48	307.80
464.85	305.99
465.21	304.66
465.58	303.26
465.95	301.57
466.32	300.07
466.68	298.67
467.05	297.24
467.42	295.82
467.78	294.19
468.15	292.83
468.52	291.81
468.88	290.42
469.25	289.26
469.62	288.35
469.98	287.33
470.35	286.47
470.72	285.57
471.08	284.56
471.45	283.76
471.82	282.91
472.18	282.08
472.55	281.57
472.92	280.85
473.28	280.17
473.65	279.52
474.02	279.03
474.38	278.59
474.75	278.36
475.11	278.02
475.48	277.79
475.85	277.56
476.21	277.41
476.58	277.28
476.94	277.25
477.31	277.18
477.67	277.11
478.04	277.01
478.41	277.19
478.77	277.58
479.14	277.63
479.50	277.87
479.87	278.18
480.23	278.44
480.60	278.77
480.96	279.23
481.33	279.93
481.69	280.57
482.06	281.27
482.42	281.95
482.79	282.65
483.15	283.51
483.52	284.55
483.88	285.45
484.25	286.53
484.61	287.59
484.98	288.70
485.34	289.99
485.71	291.41
486.07	292.72
486.44	293.95
486.80	295.68
487.17	297.29
487.53	299.04
487.90	300.87
488.26	302.81
488.62	304.81
488.99	306.69
489.35	308.85
489.72	311.09
490.08	313.49
490.44	315.95
490.81	318.62
491.17	321.24
491.54	324.16
491.90	327.10
492.26	330.33
492.63	333.67
492.99	337.11
493.36	340.81
493.72	344.68
494.08	348.83
494.45	353.01
494.81	357.55
495.17	362.12
495.54	367.10
495.90	372.08
496.26	377.39
496.63	383.08
496.99	388.83
497.35	394.80
497.72	401.03
498.08	407.53
498.44	414.18
498.80	421.30
499.17	428.78
499.53	436.39
499.89	444.28
500.26	452.39
500.62	460.85
500.98	469.59
501.34	478.72
501.71	488.16
502.07	497.86
502.43	507.88
502.79	518.12
503.16	528.74
503.52	539.67
503.88	550.99
504.24	562.58
504.60	574.54
504.97	586.89
505.33	599.43
505.69	612.83
506.05	626.35
506.41	639.95
506.78	653.69
507.14	667.92
507.50	682.58
507.86	697.50
508.22	712.93
508.59	728.34
508.95	744.36
509.31	760.65
509.67	777.26
510.03	794.11
510.39	811.68
510.75	829.40
511.12	847.50
511.48	865.81
511.84	884.47
512.20	903.15
512.56	922.63
512.92	942.07
513.28	961.72
513.64	981.56
514.00	1001.66
514.37	1022.16
514.73	1043.10
515.09	1064.00
515.45	1085.16
515.81	1106.28
516.17	1127.88
516.53	1149.50
516.89	1171.10
517.25	1193.02
517.61	1214.98
517.97	1236.81
518.33	1258.43
518.69	1280.45
519.05	1302.81
519.41	1325.24
519.77	1348.21
520.13	1370.39
520.49	1392.94
520.85	1415.96
521.21	1438.75
521.57	1461.84
521.93	1483.96
522.29	1506.71
522.65	1529.30
523.01	1552.05
523.37	1574.51
523.73	1597.19
524.09	1619.45
524.45	1641.90
524.81	1664.42
525.17	1686.85
525.53	1709.38
525.89	1732.19
526.25	1754.72
526.61	1776.08
526.97	1797.65
527.33	1818.85
527.68	1840.74
528.04	1862.24
528.40	1882.57
528.76	1903.22
529.12	1924.14
529.48	1946.30
529.84	1966.96
530.20	1987.56
530.56	2008.07
530.91	2028.87
531.27	2049.42
531.63	2069.85
531.99	2090.13
532.35	2109.71
532.71	2129.18
533.07	2149.06
533.42	2167.57
533.78	2186.38
534.14	2205.25
534.50	2222.71
534.86	2241.19
535.21	2257.99
535.57	2275.83
535.93	2293.28
536.29	2310.72
536.65	2327.46
537.00	2342.71
537.36	2358.37
537.72	2374.02
538.08	2389.74
538.44	2404.99
538.79	2420.38
539.15	2435.54
539.51	2450.34
539.87	2465.91
540.22	2480.63
540.58	2495.65
540.94	2510.62
541.29	2523.61
541.65	2536.24
542.01	2549.87
542.37	2562.03
542.72	2574.91
543.08	2585.96
543.44	2597.86
543.79	2608.52
544.15	2619.11
544.51	2630.91
544.87	2642.33
545.22	2651.72
545.58	2660.33
545.94	2668.35
546.29	2675.24
546.65	2681.84
547.01	2688.03
547.36	2693.55
547.72	2699.28
548.07	2703.49
548.43	2707.37
548.79	2711.48
549.14	2715.93
549.50	2720.55
549.86	2724.67
550.21	2728.67
550.57	2733.04
550.92	2735.95
551.28	2738.62
551.64	2741.47
551.99	2743.68
552.35	2745.70
552.70	2748.40
553.06	2751.12
553.41	2753.98
553.77	2756.66
554.13	2758.92
554.48	2761.09
554.84	2762.91
555.19	2763.58
555.55	2764.00
555.90	2764.64
556.26	2765.60
556.61	2766.08
556.97	2764.86
557.32	2764.93
557.68	2763.22
558.03	2761.71
558.39	2760.60
558.74	2760.50
559.10	2759.20
559.45	2757.29
559.81	2755.92
560.16	2753.38
560.52	2750.82
560.87	2747.94
561.23	2744.65
561.58	2742.14
561.94	2739.09
562.29	2735.22
562.64	2733.43
563.00	2731.14
563.35	2729.02
563.71	2727.43
564.06	2725.26
564.42	2723.68
564.77	2720.95
565.12	2719.26
565.48	2716.34
565.83	2713.33
566.19	2710.07
566.54	2706.00
566.89	2702.40
567.25	2698.57
567.60	2695.81
567.96	2692.57
568.31	2689.29
568.66	2685.44
569.02	2681.25
569.37	2676.37
569.72	2672.45
570.08	2666.78
570.43	2661.20
570.78	2655.54
571.14	2649.00
571.49	2642.23
571.84	2636.34
572.20	2629.67
572.55	2623.04
572.90	2616.41
573.26	2609.38
573.61	2602.04
573.96	2595.15
574.31	2587.25
574.67	2579.08
575.02	2570.41
575.37	2561.80
575.72	2552.80
576.08	2545.24
576.43	2536.32
576.78	2528.21
577.13	2520.34
577.49	2512.04
577.84	2504.39
578.19	2496.66
578.54	2489.12
578.90	2482.40
579.25	2473.33
579.60	2464.01
579.95	2454.91
580.30	2446.58
580.66	2438.36
581.01	2429.19
581.36	2419.75
581.71	2411.23
582.06	2402.64
582.42	2394.34
582.77	2385.15
583.12	2376.03
583.47	2367.15
583.82	2358.74
584.17	2349.63
584.53	2340.33
584.88	2331.75
585.23	2321.97
585.58	2312.11
585.93	2302.27
586.28	2292.63
586.63	2283.65
586.98	2275.23
587.34	2266.47
587.69	2257.11
588.04	2247.80
588.39	2239.72
588.74	2231.17
589.09	2222.59
589.44	2213.17
589.79	2204.49
590.14	2196.60
590.49	2188.25
590.84	2179.05
591.19	2170.91
591.54	2162.17
591.89	2151.93
592.25	2142.52
592.60	2133.20
592.95	2124.03
593.30	2114.52
593.65	2104.82
594.00	2095.20
594.35	2086.71
594.70	2077.47
595.05	2068.51
595.40	2059.40
595.75	2049.47
596.10	2040.88
596.45	2031.90
596.80	2023.59
597.15	2014.78
597.50	2005.24
597.85	1996.39
598.19	1987.57
598.54	1978.62
598.89	1970.63
599.24	1963.96
599.59	1956.48
599.94	1949.31
600.29	1941.38
600.64	1933.36
600.99	1924.70
601.34	1917.40
601.69	1908.50
602.04	1900.25
602.39	1892.19
602.74	1884.42
603.08	1877.78
603.43	1870.70
603.78	1862.82
604.13	1854.64
604.48	1846.68
604.83	1839.84
605.18	1833.01
605.53	1825.30
605.87	1817.53
606.22	1810.05
606.57	1801.91
606.92	1793.50
607.27	1785.22
607.62	1777.89
607.96	1770.83
608.31	1764.45
608.66	1756.30
609.01	1748.69
609.36	1740.75
609.70	1732.90
610.05	1724.82
610.40	1716.42
610.75	1707.46
611.10	1699.81
611.44	1690.63
611.79	1681.50
612.14	1671.86
612.49	1661.80
612.83	1653.00
613.18	1642.89
613.53	1633.30
613.88	1623.42
614.22	1614.37
614.57	1604.98
614.92	1595.26
615.27	1585.70
615.61	1575.94
615.96	1566.98
616.31	1558.46
616.65	1550.60
617.00	1541.92
617.35	1533.23
617.70	1523.89
618.04	1514.87
618.39	1504.96
618.74	1496.52
619.08	1487.80
619.43	1479.61
619.78	1471.73
620.12	1463.47
620.47	1455.62
620.82	1446.78
621.16	1438.36
621.51	1429.79
621.85	1421.43
622.20	1412.99
622.55	1404.55
622.89	1396.29
623.24	1388.21
623.59	1379.49
623.93	1370.75
624.28	1362.48
624.62	1354.32
624.97	1346.04
625.32	1337.96
625.66	1330.48
626.01	1323.19
626.35	1316.02
626.70	1308.33
627.04	1300.87
627.39	1293.14
627.73	1285.80
628.08	1279.15
628.43	1271.59
628.77	1264.20
629.12	1256.73
629.46	1249.84
629.81	1242.53
630.15	1234.80
630.50	1227.30
630.84	1219.70
631.19	1212.14
631.53	1205.30
631.88	1197.50
632.22	1190.02
632.57	1183.07
632.91	1175.62
633.26	1167.99
633.60	1160.50
633.95	1153.57
634.29	1146.15
634.64	1139.36
634.98	1132.30
635.32	1125.00
635.67	1118.77
636.01	1111.95
636.36	1105.18
636.70	1098.43
637.05	1091.80
637.39	1085.75
637.73	1079.24
638.08	1073.41
638.42	1067.64
638.77	1060.78
639.11	1054.53
639.45	1048.39
639.80	1041.69
640.14	1035.40
640.49	1029.20
640.83	1022.78
641.17	1016.20
641.52	1009.86
641.86	1003.44
642.20	997.21
642.55	990.53
642.89	983.93
643.23	977.68
643.58	971.71
643.92	965.16
644.26	958.99
644.61	952.64
644.95	946.45
645.29	940.00
645.64	933.24
645.98	927.25
646.32	921.41
646.66	915.35
647.01	909.42
647.35	903.52
647.69	897.03
648.04	891.25
648.38	885.23
648.72	879.25
649.06	872.89
649.41	866.79
649.75	860.84
650.09	854.88
650.43	848.83
650.78	842.52
651.12	836.40
651.46	830.39
651.80	824.47
652.14	818.66
652.49	812.69
652.83	806.80
653.17	800.52
653.51	794.49
653.85	788.69
654.20	782.82
654.54	776.99
654.88	771.52
655.22	765.55
655.56	759.59
655.90	753.80
656.25	748.15
656.59	742.49
656.93	737.40
657.27	732.15
657.61	726.48
657.95	721.28
658.29	716.16
658.64	711.02
658.98	705.90
659.32	700.47
659.66	695.28
660.00	689.93
660.34	684.70
660.68	679.52
661.02	674.40
661.36	669.65
661.70	664.73
662.05	659.85
662.39	655.46
662.73	651.12
663.07	646.64
663.41	642.27
663.75	637.77
664.09	632.97
664.43	628.10
664.77	623.88
665.11	619.45
665.45	615.05
665.79	610.55
666.13	605.95
666.47	601.66
666.81	597.37
667.15	593.40
667.49	589.67
667.83	585.57
668.17	581.60
668.51	577.55
668.85	573.85
669.19	570.20
669.53	566.17
669.87	561.95
670.21	558.12
670.55	554.18
670.89	550.73
671.23	547.37
671.57	544.02
671.91	540.38
672.25	536.78
672.58	533.20
672.92	529.64
673.26	526.35
673.60	522.91
673.94	519.49
674.28	516.23
674.62	512.91
674.96	509.89
675.30	506.70
675.64	503.58
675.97	500.13
676.31	497.10
676.65	494.14
676.99	491.68
677.33	488.70
677.67	485.76
678.01	482.59
678.34	479.55
678.68	476.47
679.02	473.44
679.36	470.60
679.70	467.85
680.04	465.08
680.37	462.08
680.71	459.33
681.05	456.72
681.39	453.86
681.73	451.03
682.06	448.39
682.40	445.81
682.74	443.12
683.08	440.72
683.42	438.01
683.75	435.41
684.09	432.50
684.43	430.00
684.77	427.35
685.10	424.82
685.44	422.21
685.78	419.78
686.12	417.43
686.45	415.06
686.79	412.66
687.13	410.33
687.46	408.13
687.80	405.84
688.14	403.50
688.48	401.38
688.81	399.10
689.15	396.79
689.49	394.55
689.82	392.34
690.16	389.89
690.50	387.65
690.83	385.44
691.17	383.16
691.51	380.99
691.84	378.85
692.18	376.76
692.52	374.75
692.85	372.91
693.19	371.02
693.52	368.99
693.86	366.97
694.20	365.16
694.53	363.24
694.87	361.32
695.21	359.35
695.54	357.39
695.88	355.55
696.21	353.69
696.55	351.89
696.88	350.10
697.22	348.35
697.56	346.72
697.89	344.95
698.23	343.42
698.56	341.69
698.90	340.34
699.23	338.71
699.57	337.13
699.90	335.43
700.24	333.76
700.58	332.27
700.91	330.72
701.25	329.26
701.58	327.83
701.92	326.39
702.25	325.10
702.59	323.71
702.92	322.36
703.26	321.05
703.59	319.75
703.93	318.59
704.26	317.31
704.60	316.02
704.93	314.82
705.26	313.48
705.60	312.34
705.93	311.00
706.27	309.92
706.60	308.73
706.94	307.60
707.27	306.39
707.61	305.12
707.94	303.99
708.27	302.64
708.61	301.44
708.94	300.30
709.28	299.09
709.61	297.91
709.94	296.82
710.28	295.67
710.61	294.55
710.95	293.37
711.28	292.44
711.61	291.32
711.95	290.28
712.28	289.37
712.61	288.35
712.95	287.32
713.28	286.35
713.61	285.39
713.95	284.41
714.28	283.54
714.61	282.59
714.95	281.66
715.28	280.76
715.61	279.82
715.95	278.92
716.28	278.08
716.61	277.28
716.95	276.43
717.28	275.55
717.61	274.71
717.94	273.92
718.28	273.05
718.61	272.24
718.94	271.49
719.27	270.70
719.61	269.96
719.94	269.27
720.27	268.38
720.60	267.65
720.94	266.89
721.27	266.15
721.60	265.51
721.93	264.92
722.27	264.34
722.60	263.80
722.93	263.08
723.26	262.50
723.59	261.81
723.93	261.16
724.26	260.70
724.59	260.16
724.92	259.53
725.25	258.97
725.59	258.37
725.92	257.77
726.25	257.25
726.58	256.65
726.91	256.07
727.24	255.58
727.57	255.06
727.91	254.50
728.24	254.09
728.57	253.65
728.90	253.17
729.23	252.72
729.56	252.31
729.89	251.90
730.22	251.38
730.55	250.97
730.89	250.56
731.22	250.01
731.55	249.55
731.88	249.14
732.21	248.68
732.54	248.40
732.87	248.03
733.20	247.57
733.53	247.24
733.86	246.83
734.19	246.41
734.52	246.10
734.85	245.92
735.18	245.48
735.51	245.14
735.84	244.72
736.17	244.36
736.50	243.78
736.83	243.66
737.16	243.38
737.49	243.03
737.82	242.68
738.15	242.34
738.48	241.98
738.81	241.66
739.14	241.33
739.47	240.91
739.80	240.54
740.13	240.21
740.46	239.82
740.79	239.44
741.12	239.15
741.45	238.70
741.78	238.28
742.11	237.91
742.44	237.55
742.77	237.29
743.10	236.87
743.43	236.62
743.75	236.17
744.08	236.03
744.41	235.72
744.74	235.41
745.07	235.12
745.40	234.89
745.73	234.70
746.06	234.44
746.39	234.15
746.71	233.85
747.04	233.57
747.37	233.28
747.70	233.07
748.03	232.81
748.36	232.61
748.68	232.30
749.01	232.09
749.34	231.84
749.67	231.62
750.00	231.49
750.33	231.41
750.65	231.07
750.98	230.62
751.31	230.32
751.64	230.10
751.97	229.97
752.29	229.67
752.62	229.26
752.95	229.03
753.28	228.87
753.60	228.65
753.93	228.47
754.26	228.28
754.59	228.13
754.91	227.91
755.24	227.70
755.57	227.55
755.90	227.30
756.22	227.05
756.55	226.79
756.88	226.51
757.20	226.13
757.53	225.94
757.86	225.66
758.19	225.54
758.51	225.27
758.84	225.00
759.17	224.84
759.49	224.76
759.82	224.65
760.15	224.40
760.47	224.22
760.80	224.05
761.13	223.85
761.45	223.65
761.78	223.44
762.11	223.25
762.43	223.05
762.76	222.98
763.08	222.84
763.41	222.71
763.74	222.58
764.06	222.52
764.39	222.35
764.71	222.25
765.04	222.06
765.37	222.02
765.69	221.85
766.02	221.70
766.34	221.45
766.67	221.23
767.00	221.13
767.32	221.09
767.65	221.03
767.97	220.90
768.30	220.67
768.62	220.52
768.95	220.47
769.27	220.29
769.60	220.15
769.92	219.96
770.25	219.81
770.57	219.66
770.90	219.55
771.22	219.43
771.55	219.35
771.87	219.25
772.20	219.14
772.52	219.16
772.85	219.25
773.17	219.22
773.50	219.17
773.82	219.06
774.15	218.94
774.47	218.77
774.80	218.67
775.12	218.61
775.45	218.54
775.77	218.35
776.09	218.37
776.42	218.30
776.74	218.36
777.07	218.30
777.39	218.25
777.72	218.11
778.04	218.02
778.36	217.93
778.69	217.91
779.01	217.81
779.33	217.55
779.66	217.37
779.98	217.29
780.31	217.21
780.63	217.21
780.95	217.12
781.28	216.99
781.60	216.94
781.92	216.93
782.25	216.91
782.57	216.97
782.89	216.88
783.22	216.76
783.54	216.62
783.86	216.57
784.19	216.58
784.51	216.59
784.83	216.54
785.16	216.42
785.48	216.33
785.80	216.26
786.12	216.34
786.45	216.21
786.77	216.19
787.09	216.13
787.42	216.03
787.74	216.04
788.06	216.10
788.38	216.03
788.71	216.02
789.03	215.94
789.35	215.88
789.67	215.76
789.99	215.78
790.32	215.70
790.64	215.69
790.96	215.73
791.28	215.61
791.61	215.51
791.93	215.54
792.25	215.49
792.57	215.66
792.89	215.57
793.21	215.60
793.54	215.55
793.86	215.47
794.18	215.50
794.50	215.33
794.82	215.23
795.14	215.26
795.47	215.20
795.79	215.20
796.11	215.01
796.43	215.04
796.75	214.96
797.07	215.00
797.39	215.00
797.71	214.82
798.04	214.82
798.36	214.92
798.68	214.89
799.00	214.85
799.32	214.65
799.64	214.66
799.96	214.57
800.28	214.55
800.60	214.52
800.92	214.39
801.24	214.37
801.56	214.37
801.89	214.31
802.21	214.27
802.53	214.25
802.85	214.39
803.17	214.42
803.49	214.33
803.81	214.25
804.13	214.14
804.45	214.09
804.77	214.13
805.09	214.07
805.41	214.00
805.73	213.95
806.05	213.89
806.37	213.87
806.69	213.86
807.01	213.84
807.33	213.81
807.65	213.78
807.97	213.90
808.28	213.85
808.60	213.80
808.92	213.77
809.24	213.85
809.56	213.77
809.88	213.74
810.20	213.79
810.52	213.81
810.84	213.82
811.16	213.80
811.48	213.65
811.80	213.65
812.12	213.64
812.43	213.65
812.75	213.65
813.07	213.65
813.39	213.55
813.71	213.46
814.03	213.48
814.35	213.46
814.67	213.38
814.98	213.39
815.30	213.44
815.62	213.37
815.94	213.25
816.26	213.19
816.58	213.08
816.89	213.05
817.21	212.97
817.53	212.91
817.85	212.89
818.17	212.84
818.48	212.76
818.80	212.75
819.12	212.75
819.44	212.73
819.76	212.67
820.07	212.71
820.39	212.72
820.71	212.77
821.03	212.68
821.34	212.53
821.66	212.50
821.98	212.40
822.30	212.39
822.61	212.48
822.93	212.49
823.25	212.49
823.57	212.44
823.88	212.50
824.20	212.56
824.52	212.55
824.83	212.61
825.15	212.62
825.47	212.60
825.79	212.65
826.10	212.59
826.42	212.57
826.74	212.56
827.05	212.54
827.37	212.48
827.69	212.51
828.00	212.64
828.32	212.62
828.64	212.68
828.95	212.75
829.27	212.64
829.58	212.66
829.90	212.67
830.22	212.74
830.53	212.64
830.85	212.58
831.17	212.54
831.48	212.52
831.80	212.52
832.11	212.47
832.43	212.41
832.75	212.38
833.06	212.48
833.38	212.47
833.69	212.44
834.01	212.43
834.32	212.46
834.64	212.43
834.96	212.40
835.27	212.34
835.59	212.21
835.90	212.18
836.22	212.14
836.53	212.10
836.85	212.05
837.16	212.18
837.48	212.18
837.79	212.20
838.11	212.20
838.42	212.16
838.74	212.27
839.05	212.21
839.37	212.23
839.68	212.08
840.00	212.04
840.31	212.06
840.63	212.02
840.94	212.00
841.26	211.86
841.57	211.91
841.88	211.89
842.20	211.95
842.51	211.96
842.83	211.95
843.14	212.12
843.46	212.14
843.77	212.06
844.08	211.98
844.40	211.95
844.71	211.87
845.03	211.82
845.34	211.70
845.65	211.64
845.97	211.64
846.28	211.63
846.60	211.58
846.91	211.53
847.22	211.48
847.54	211.54
847.85	211.60
848.16	211.55
848.48	211.48
848.79	211.51
849.10	211.56
849.42	211.53
849.73	211.31
850.04	211.30
850.36	211.27
850.67	211.38
850.98	211.42
851.30	211.50
851.61	211.49
851.92	211.50
852.23	211.57
852.55	211.53
852.86	211.55
853.17	211.62
853.49	211.65
853.80	211.72
854.11	211.68
854.42	211.64
854.74	211.63
855.05	211.70
855.36	211.64
855.67	211.60
855.99	211.63
856.30	211.86
856.61	211.83
856.92	211.81
857.23	211.75
857.55	211.74
857.86	211.65
858.17	211.68
858.48	211.69
858.79	211.70
859.11	211.77
859.42	211.70
859.73	211.67
860.04	211.71
860.35	211.69
860.66	211.66
860.98	211.71
861.29	211.76
861.60	211.68
861.91	211.67
862.22	211.64
862.53	211.59
862.84	211.35
863.16	211.36
863.47	211.38
863.78	211.38
864.09	211.37
864.40	211.47
864.71	211.47
865.02	211.45
865.33	211.39
865.64	211.31
865.95	211.32
866.27	211.49
866.58	211.47
866.89	211.39
867.20	211.40
867.51	211.36
867.82	211.35
868.13	211.41
868.44	211.40
868.75	211.41
869.06	211.38
869.37	211.43
869.68	211.34
869.99	211.35
870.30	211.28
870.61	211.28
870.92	211.25
871.23	211.22
871.54	211.25
871.85	211.29
872.16	211.39
872.47	211.37
872.78	211.20
873.09	211.18
873.40	211.19
873.71	211.20
874.02	211.30
874.33	211.28
874.64	211.20
874.95	211.20
875.26	211.10
875.56	211.11
875.87	211.08
876.18	211.07
876.49	211.13
876.80	211.19
877.11	211.12
877.42	211.11
877.73	211.15
878.04	211.16
878.35	211.14
878.66	211.11
878.96	211.09
879.27	211.12
879.58	211.10
879.89	211.04
880.20	211.09
880.51	210.99
880.82	211.00
881.12	211.12
881.43	211.10
881.74	211.17
882.05	211.20
882.36	211.28
882.67	211.32
882.97	211.24
883.28	211.29
883.59	211.29
883.90	211.28
884.21	211.30
884.51	211.25
884.82	211.21
885.13	211.21
885.44	211.27
885.74	211.29
886.05	211.29
886.36	211.31
886.67	211.21
886.98	211.30
887.28	211.27
887.59	211.23
887.90	211.25
888.20	211.25
888.51	211.27
888.82	211.24
889.13	211.28
889.43	211.42
889.74	211.41
890.05	211.44
890.35	211.38
890.66	211.38
890.97	211.36
891.28	211.34
891.58	211.36
891.89	211.33
892.20	211.36
892.50	211.33
892.81	211.35
893.12	211.39
893.42	211.33
893.73	211.29
894.04	211.35
894.34	211.36
894.65	211.36
894.95	211.38
895.26	211.40
895.57	211.48
895.87	211.30
896.18	211.38
896.48	211.44
896.79	211.52
897.10	211.54
897.40	211.57
897.71	211.64
898.01	211.61
898.32	211.61
898.63	211.57
898.93	211.60
899.24	211.59
899.54	211.57
899.85	211.57
900.15	211.60
900.46	211.58
900.76	211.64
901.07	211.62
901.38	211.65
901.68	211.63
901.99	211.51
902.29	211.49
902.60	211.42
902.90	211.39
903.21	211.39
903.51	211.41
903.82	211.48
904.12	211.54
904.43	211.56
904.73	211.58
905.03	211.58
905.34	211.75
905.64	211.75
905.95	211.73
906.25	211.68
906.56	211.72
906.86	211.65
907.17	211.59
907.47	211.68
907.77	211.57
908.08	211.53
908.38	211.54
908.69	211.62
908.99	211.62
909.30	211.67
909.60	211.65
909.90	211.58
910.21	211.40
910.51	211.35
910.81	211.27
911.12	211.30
911.42	211.33
911.73	211.18
912.03	211.20
912.33	211.25
912.64	211.25
912.94	211.21
913.24	211.20
913.55	211.15
913.85	211.04
914.15	211.07
914.46	211.06
914.76	211.06
915.06	210.96
915.37	210.93
915.67	210.91
915.97	210.90
916.27	210.88
916.58	210.94
916.88	210.95
917.18	211.06
917.49	211.16
917.79	211.14
918.09	211.13
918.39	211.11
918.70	211.09
919.00	211.11
919.30	211.16
919.60	211.14
919.91	211.15
920.21	211.17
920.51	211.16
920.81	211.18
921.12	211.19
921.42	211.20
921.72	211.14
922.02	211.10
922.32	211.13
922.63	211.15
922.93	211.23
923.23	211.23
923.53	211.10
923.83	210.96
924.13	210.93
924.44	210.93
924.74	210.97
925.04	211.01
925.34	211.06
925.64	210.98
925.94	211.00
926.24	211.09
926.55	211.05
926.85	211.01
927.15	211.00
927.45	211.01
927.75	211.01
928.05	211.05
928.35	211.09
928.65	211.16
928.95	211.13
929.26	211.05
929.56	211.03
929.86	211.12
930.16	211.10
930.46	211.10
930.76	211.15
931.06	211.11
931.36	211.05
931.66	211.01
931.96	211.04
932.26	211.01
932.56	210.93
932.86	210.90
933.16	210.87
933.46	210.90
933.76	210.91
934.06	210.95
934.36	211.01
934.66	210.95
934.96	210.89
935.26	210.97
935.56	211.02
935.86	210.99
936.16	210.94
936.46	211.02
936.76	211.03
937.06	211.08
937.36	211.00
937.66	211.00
937.96	210.97
938.26	210.95
938.56	210.95
938.86	211.00
939.16	211.12
939.46	211.23
939.76	211.25
940.06	211.17
940.35	211.15
940.65	211.10
940.95	211.08
941.25	211.02
941.55	210.93
941.85	210.93
942.15	210.97
942.45	211.03
942.75	210.94
943.04	210.86
943.34	210.75
943.64	210.80
943.94	210.77
944.24	210.78
944.54	210.84
944.84	210.81
945.13	210.73
945.43	210.69
945.73	210.63
946.03	210.62
946.33	210.68
946.62	210.69
946.92	210.71
947.22	210.72
947.52	210.74
947.82	210.79
948.11	210.71
948.41	210.64
948.71	210.58
949.01	210.58
949.31	210.63
949.60	210.67
949.90	210.68
950.20	210.73
950.50	210.76
950.79	210.74
951.09	210.79
951.39	210.76
951.69	210.69
951.98	210.77
952.28	210.68
952.58	210.60
952.87	210.56
953.17	210.54
953.47	210.51
953.76	210.47
954.06	210.44
954.36	210.44
954.66	210.47
954.95	210.45
955.25	210.52
955.55	210.52
955.84	210.45
956.14	210.50
956.44	210.49
956.73	210.38
957.03	210.45
957.32	210.39
957.62	210.44
957.92	210.52
958.21	210.48
958.51	210.77
958.81	210.80
959.10	210.83
959.40	210.89
959.69	210.96
959.99	211.05
960.29	211.02
960.58	211.01
960.88	211.05
961.17	211.09
961.47	211.08
961.76	211.02
962.06	211.10
962.36	211.00
962.65	211.02
962.95	211.13
963.24	211.04
963.54	211.08
963.83	211.09
964.13	211.04
964.42	211.06
964.72	210.86
965.01	210.89
965.31	210.90
965.60	210.81
965.90	210.92
966.19	210.80
966.49	210.82
966.78	210.85
967.08	210.83
967.37	210.83
967.67	210.74
967.96	210.80
968.26	210.80
968.55	210.90
968.85	210.84
969.14	210.74
969.43	210.76
969.73	210.74
970.02	210.70
970.32	210.76
970.61	210.72
970.91	210.72
971.20	210.74
971.49	210.73
971.79	210.77
972.08	210.64
972.38	210.70
972.67	210.70
972.96	210.75
973.26	210.73
973.55	210.81
973.85	210.84
974.14	210.83
974.43	210.80
974.73	210.76
975.02	210.84
975.31	210.95
975.61	210.95
975.90	210.98
976.19	211.00
976.49	211.04
976.78	211.00
977.07	211.00
977.37	210.90
977.66	210.89
977.95	210.81
978.24	210.81
978.54	210.92
978.83	210.93
979.12	210.95
979.42	211.03
979.71	210.96
980.00	210.94
980.29	210.95
980.59	210.95
980.88	211.01
981.17	211.03
981.46	210.99
981.76	211.07
982.05	211.10
982.34	211.12
982.63	211.06
982.93	211.13
983.22	211.14
983.51	211.18
983.80	211.22
984.09	211.32
984.39	211.34
984.68	211.26
984.97	211.29
985.26	211.26
985.55	211.15
985.85	211.15
986.14	211.23
986.43	211.29
986.72	211.31
987.01	211.26
987.30	211.17
987.59	211.11
987.89	211.07
988.18	210.97
988.47	210.93
988.76	210.90
989.05	210.91
989.34	210.89
989.63	210.97
989.92	210.93
990.22	210.88
990.51	210.85
990.80	210.86
991.09	210.87
991.38	210.86
991.67	210.90
991.96	210.84
992.25	210.84
992.54	210.81
992.83	210.74
993.12	210.71
993.41	210.77
993.70	210.86
993.99	210.86
994.28	210.93
994.58	211.05
994.87	211.05
995.16	211.02
995.45	210.97
995.74	210.89
996.03	210.96
996.32	211.00
996.61	210.96
996.90	210.92
997.19	210.95
997.48	210.95
997.77	210.97
998.06	210.97
998.34	210.93
998.63	210.95
998.92	210.93
999.21	211.01
999.50	210.92
999.79	210.89
1000.08	210.89
1000.37	210.87
1000.66	210.78
1000.95	210.78
1001.24	210.80
1001.53	210.90
1001.82	210.96
1002.11	210.83
1002.40	210.86
1002.68	210.98
1002.97	211.15
1003.26	211.08
1003.55	211.15
1003.84	211.14
1004.13	211.19
1004.42	211.24
1004.71	211.18
1004.99	211.20
1005.28	211.26
1005.57	211.33
1005.86	211.34
1006.15	211.38
1006.44	211.38
1006.72	211.45
1007.01	211.46
1007.30	211.43
1007.59	211.38
1007.88	211.34
1008.17	211.47
1008.45	211.35
1008.74	211.28
1009.03	211.18
1009.32	211.17
1009.60	211.10
1009.89	211.09
1010.18	211.06
1010.47	211.03
1010.76	211.04
1011.04	211.05
1011.33	211.03
1011.62	211.03
1011.91	211.01
1012.19	211.00
1012.48	211.06
1012.77	211.04
1013.05	211.14
1013.34	211.11
1013.63	211.15
1013.92	211.14
1014.20	211.11
1014.49	211.15
1014.78	211.18
1015.06	211.10
1015.35	211.15
1015.64	211.16
1015.92	211.22
1016.21	211.22
1016.50	211.18
1016.78	211.19
1017.07	211.26
1017.36	211.17
1017.64	211.14
1017.93	211.18
1018.22	211.03
1018.50	210.93
1018.79	210.90
1019.08	210.82
1019.36	210.88
1019.65	210.83
1019.93	210.83
1020.22	210.80
1020.51	210.90
1020.79	210.80
1021.08	208.55
1021.36	209.80
1021.65	211.35
1021.94	210.80
1022.22	211.30
1022.51	210.65
1022.79	210.65
1023.08	210.90
1023.36	212.25
1023.65	209.85
>>>>>End Processed Spectral Data<<<<<
