SpectraSuite Data File
++++++++++++++++++++++++++++++++++++
Date: Mon Feb 25 17:29:32 EST 2013
User: group
Dark Spectrum Present: No
Reference Spectrum Present: No
Number of Sampled Component Spectra: 1
Spectrometers: USB2E7196
Integration Time (usec): 52000 (USB2E7196)
Spectra Averaged: 20 (USB2E7196)
Boxcar Smoothing: 10 (USB2E7196)
Correct for Electrical Dark: No (USB2E7196)
Strobe/Lamp Enabled: No (USB2E7196)
Correct for Detector Non-linearity: No (USB2E7196)
Correct for Stray Light: No (USB2E7196)
Number of Pixels in Processed Spectrum: 2048
>>>>>Begin Processed Spectral Data<<<<<
339.09	0.00
339.48	198.95
339.86	200.40
340.24	201.55
340.63	203.10
341.01	206.65
341.39	205.10
341.78	208.10
342.16	209.20
342.54	209.35
342.93	198.16
343.31	208.15
343.69	208.68
344.07	209.12
344.46	209.55
344.84	209.91
345.22	210.19
345.60	210.47
345.99	210.58
346.37	210.67
346.75	210.75
347.13	210.82
347.52	210.87
347.90	211.05
348.28	211.02
348.66	211.06
349.05	211.02
349.43	211.07
349.81	211.05
350.19	211.08
350.57	211.10
350.96	211.09
351.34	211.12
351.72	211.23
352.10	211.31
352.48	211.42
352.87	211.54
353.25	211.59
353.63	211.66
354.01	211.72
354.39	211.87
354.77	211.91
355.15	212.04
355.54	212.15
355.92	212.16
356.30	212.23
356.68	212.47
357.06	212.50
357.44	212.57
357.82	212.68
358.20	212.81
358.58	212.96
358.97	213.09
359.35	213.25
359.73	213.29
360.11	213.42
360.49	213.45
360.87	213.44
361.25	213.45
361.63	213.52
362.01	213.70
362.39	213.66
362.77	213.78
363.15	213.76
363.53	213.81
363.91	213.84
364.29	213.90
364.67	213.79
365.05	213.85
365.43	213.94
365.81	214.00
366.19	214.08
366.57	214.11
366.95	214.16
367.33	214.13
367.71	214.17
368.09	214.15
368.47	214.17
368.85	214.19
369.23	214.20
369.61	214.22
369.99	214.19
370.37	214.15
370.75	214.20
371.13	214.17
371.51	214.10
371.89	214.06
372.27	214.05
372.65	213.96
373.03	213.96
373.41	213.84
373.78	213.82
374.16	213.65
374.54	213.60
374.92	213.51
375.30	213.53
375.68	213.47
376.06	213.47
376.44	213.43
376.82	213.37
377.19	213.42
377.57	213.31
377.95	213.19
378.33	213.18
378.71	213.07
379.09	213.12
379.47	213.09
379.84	213.01
380.22	212.90
380.60	212.85
380.98	212.71
381.36	212.65
381.73	212.56
382.11	212.59
382.49	212.57
382.87	212.51
383.25	212.45
383.62	212.64
384.00	212.56
384.38	212.49
384.76	212.59
385.13	212.52
385.51	212.51
385.89	212.51
386.27	212.52
386.64	212.49
387.02	212.42
387.40	212.38
387.78	212.38
388.15	212.39
388.53	212.41
388.91	212.43
389.29	212.42
389.66	212.42
390.04	212.38
390.42	212.35
390.79	212.32
391.17	212.23
391.55	211.95
391.92	211.94
392.30	211.97
392.68	211.81
393.05	211.74
393.43	211.79
393.81	211.77
394.18	211.71
394.56	211.63
394.94	211.67
395.31	211.61
395.69	211.73
396.06	211.72
396.44	211.72
396.82	211.75
397.19	211.85
397.57	211.89
397.95	211.91
398.32	211.83
398.70	211.88
399.07	211.97
399.45	212.01
399.82	212.05
400.20	212.07
400.58	212.12
400.95	212.16
401.33	212.15
401.70	212.34
402.08	212.35
402.45	212.48
402.83	212.53
403.20	212.61
403.58	212.61
403.95	212.77
404.33	212.84
404.71	212.87
405.08	213.03
405.46	213.13
405.83	213.21
406.21	213.43
406.58	213.61
406.96	213.73
407.33	213.90
407.70	214.06
408.08	214.28
408.45	214.43
408.83	214.61
409.20	214.84
409.58	214.89
409.95	215.19
410.33	215.38
410.70	215.60
411.08	215.90
411.45	216.20
411.82	216.45
412.20	216.83
412.57	217.28
412.95	217.58
413.32	217.97
413.69	218.47
414.07	218.94
414.44	219.41
414.82	219.97
415.19	220.59
415.56	221.30
415.94	221.87
416.31	222.66
416.68	223.42
417.06	224.32
417.43	225.23
417.81	226.17
418.18	227.25
418.55	228.34
418.93	229.43
419.30	230.59
419.67	231.77
420.04	232.97
420.42	234.25
420.79	235.79
421.16	237.32
421.54	238.84
421.91	240.41
422.28	242.10
422.66	243.89
423.03	245.67
423.40	247.37
423.77	249.35
424.15	251.33
424.52	253.34
424.89	255.49
425.26	257.60
425.64	259.60
426.01	261.76
426.38	264.06
426.75	266.50
427.13	268.88
427.50	271.44
427.87	274.17
428.24	276.84
428.61	279.31
428.99	282.14
429.36	285.12
429.73	288.14
430.10	291.16
430.47	294.23
430.85	297.36
431.22	300.66
431.59	304.39
431.96	307.77
432.33	311.59
432.70	315.10
433.08	319.36
433.45	323.38
433.82	327.40
434.19	331.80
434.56	336.15
434.93	340.26
435.30	344.45
435.68	349.01
436.05	353.49
436.42	358.01
436.79	362.03
437.16	366.54
437.53	371.24
437.90	375.80
438.27	380.25
438.64	385.00
439.01	389.50
439.38	393.27
439.75	396.95
440.13	401.12
440.50	405.11
440.87	408.43
441.24	411.85
441.61	415.51
441.98	418.25
442.35	421.42
442.72	424.67
443.09	427.84
443.46	429.60
443.83	430.83
444.20	431.88
444.57	433.44
444.94	434.12
445.31	434.76
445.68	435.39
446.05	435.64
446.42	435.10
446.79	434.48
447.16	433.70
447.53	433.28
447.90	431.64
448.27	429.83
448.64	427.33
449.01	425.58
449.37	422.43
449.74	419.42
450.11	415.90
450.48	412.07
450.85	407.98
451.22	404.70
451.59	401.50
451.96	398.48
452.33	394.49
452.70	390.78
453.07	386.41
453.43	381.96
453.80	377.72
454.17	373.59
454.54	369.65
454.91	365.56
455.28	361.53
455.65	357.71
456.02	354.17
456.38	350.96
456.75	346.85
457.12	343.58
457.49	340.37
457.86	337.15
458.23	334.47
458.59	331.47
458.96	328.48
459.33	325.82
459.70	323.11
460.07	320.81
460.43	318.27
460.80	316.02
461.17	314.02
461.54	311.88
461.91	309.87
462.27	307.80
462.64	305.96
463.01	304.03
463.38	302.19
463.74	300.15
464.11	298.45
464.48	297.13
464.85	295.68
465.21	294.45
465.58	293.17
465.95	291.62
466.32	290.49
466.68	289.24
467.05	288.00
467.42	286.73
467.78	285.64
468.15	284.50
468.52	283.61
468.88	282.54
469.25	281.59
469.62	280.81
469.98	280.01
470.35	279.39
470.72	278.62
471.08	277.74
471.45	277.13
471.82	276.57
472.18	275.86
472.55	275.37
472.92	274.77
473.28	274.29
473.65	273.77
474.02	273.30
474.38	272.90
474.75	272.76
475.11	272.55
475.48	272.37
475.85	272.22
476.21	272.10
476.58	271.98
476.94	271.95
477.31	271.87
477.67	271.84
478.04	271.90
478.41	272.08
478.77	272.50
479.14	272.71
479.50	273.07
479.87	273.43
480.23	273.88
480.60	274.30
480.96	274.70
481.33	275.38
481.69	276.00
482.06	276.71
482.42	277.29
482.79	277.97
483.15	278.75
483.52	279.83
483.88	280.80
484.25	281.81
484.61	282.84
484.98	284.09
485.34	285.40
485.71	286.70
486.07	288.12
486.44	289.37
486.80	291.04
487.17	292.54
487.53	294.31
487.90	296.05
488.26	298.01
488.62	300.19
488.99	302.25
489.35	304.33
489.72	306.69
490.08	309.11
490.44	311.70
490.81	314.36
491.17	317.00
491.54	319.80
491.90	322.80
492.26	326.03
492.63	329.31
492.99	332.78
493.36	336.40
493.72	340.29
494.08	344.43
494.45	348.60
494.81	353.13
495.17	357.69
495.54	362.57
495.90	367.53
496.26	372.65
496.63	378.14
496.99	383.95
497.35	389.70
497.72	395.91
498.08	402.28
498.44	408.94
498.80	415.90
499.17	423.20
499.53	430.69
499.89	438.59
500.26	446.52
500.62	454.70
500.98	463.37
501.34	472.12
501.71	481.30
502.07	490.57
502.43	500.23
502.79	510.08
503.16	520.41
503.52	530.98
503.88	541.76
504.24	552.78
504.60	564.04
504.97	575.91
505.33	587.85
505.69	600.34
506.05	613.19
506.41	626.10
506.78	639.15
507.14	652.58
507.50	666.39
507.86	680.53
508.22	695.10
508.59	709.56
508.95	724.64
509.31	739.85
509.67	755.56
510.03	771.36
510.39	787.88
510.75	804.32
511.12	821.19
511.48	838.40
511.84	856.01
512.20	873.41
512.56	891.38
512.92	909.53
513.28	927.70
513.64	945.91
514.00	964.49
514.37	983.32
514.73	1002.50
515.09	1021.60
515.45	1040.85
515.81	1060.24
516.17	1079.89
516.53	1099.54
516.89	1119.10
517.25	1138.83
517.61	1158.71
517.97	1178.17
518.33	1197.93
518.69	1217.57
519.05	1237.56
519.41	1257.42
519.77	1278.10
520.13	1297.96
520.49	1317.81
520.85	1338.03
521.21	1358.31
521.57	1378.74
521.93	1398.26
522.29	1418.53
522.65	1438.25
523.01	1458.40
523.37	1477.93
523.73	1497.86
524.09	1517.30
524.45	1537.11
524.81	1556.90
525.17	1576.47
525.53	1596.30
525.89	1616.02
526.25	1635.45
526.61	1653.94
526.97	1672.84
527.33	1690.92
527.68	1709.41
528.04	1727.90
528.40	1745.30
528.76	1763.35
529.12	1780.95
529.48	1800.10
529.84	1817.66
530.20	1835.26
530.56	1852.48
530.91	1870.24
531.27	1887.43
531.63	1904.71
531.99	1921.69
532.35	1937.88
532.71	1953.85
533.07	1970.44
533.42	1985.72
533.78	2001.39
534.14	2017.04
534.50	2031.66
534.86	2046.79
535.21	2060.79
535.57	2075.48
535.93	2090.05
536.29	2103.57
536.65	2117.34
537.00	2129.65
537.36	2142.15
537.72	2154.86
538.08	2167.08
538.44	2179.52
538.79	2191.78
539.15	2203.43
539.51	2215.09
539.87	2227.13
540.22	2238.47
540.58	2249.96
540.94	2261.58
541.29	2271.57
541.65	2280.76
542.01	2290.94
542.37	2300.05
542.72	2309.41
543.08	2317.64
543.44	2326.63
543.79	2334.48
544.15	2342.15
544.51	2350.16
544.87	2358.19
545.22	2364.85
545.58	2370.96
545.94	2375.90
546.29	2380.32
546.65	2384.43
547.01	2388.50
547.36	2392.02
547.72	2395.75
548.07	2397.88
548.43	2399.93
548.79	2402.06
549.14	2405.06
549.50	2407.30
549.86	2409.28
550.21	2411.58
550.57	2413.67
550.92	2414.46
551.28	2415.43
551.64	2416.28
551.99	2417.19
552.35	2417.48
552.70	2418.40
553.06	2419.70
553.41	2421.21
553.77	2422.74
554.13	2423.77
554.48	2424.26
554.84	2424.32
555.19	2423.45
555.55	2422.80
555.90	2422.25
556.26	2421.63
556.61	2420.42
556.97	2418.15
557.32	2416.94
557.68	2414.46
558.03	2412.28
558.39	2410.08
558.74	2408.74
559.10	2407.00
559.45	2404.33
559.81	2402.20
560.16	2398.86
560.52	2395.54
560.87	2391.77
561.23	2387.37
561.58	2384.34
561.94	2380.58
562.29	2376.65
562.64	2373.99
563.00	2370.82
563.35	2367.34
563.71	2365.03
564.06	2362.25
564.42	2360.00
564.77	2357.08
565.12	2354.99
565.48	2351.17
565.83	2347.75
566.19	2343.99
566.54	2339.51
566.89	2335.42
567.25	2331.25
567.60	2327.99
567.96	2324.34
568.31	2320.59
568.66	2316.61
569.02	2311.95
569.37	2307.05
569.72	2302.93
570.08	2297.93
570.43	2292.61
570.78	2287.34
571.14	2281.38
571.49	2275.10
571.84	2269.20
572.20	2262.89
572.55	2256.32
572.90	2249.99
573.26	2243.89
573.61	2237.45
573.96	2231.47
574.31	2224.65
574.67	2217.40
575.02	2209.62
575.37	2201.84
575.72	2193.80
576.08	2187.01
576.43	2179.23
576.78	2171.95
577.13	2164.82
577.49	2157.38
577.84	2150.45
578.19	2143.72
578.54	2137.08
578.90	2130.94
579.25	2123.30
579.60	2114.91
579.95	2106.80
580.30	2100.00
580.66	2092.74
581.01	2084.65
581.36	2076.35
581.71	2068.97
582.06	2061.64
582.42	2054.41
582.77	2046.32
583.12	2038.85
583.47	2030.96
583.82	2023.55
584.17	2015.81
584.53	2008.16
584.88	2000.45
585.23	1992.41
585.58	1984.36
585.93	1975.81
586.28	1967.67
586.63	1960.44
586.98	1953.65
587.34	1946.57
587.69	1938.76
588.04	1930.82
588.39	1923.57
588.74	1915.66
589.09	1908.12
589.44	1899.81
589.79	1892.61
590.14	1886.09
590.49	1878.91
590.84	1871.43
591.19	1864.66
591.54	1857.15
591.89	1848.38
592.25	1840.91
592.60	1833.09
592.95	1824.91
593.30	1816.96
593.65	1808.94
594.00	1800.55
594.35	1793.87
594.70	1786.09
595.05	1778.68
595.40	1771.36
595.75	1763.53
596.10	1756.87
596.45	1749.61
596.80	1742.91
597.15	1735.71
597.50	1728.28
597.85	1721.02
598.19	1713.75
598.54	1706.51
598.89	1700.22
599.24	1694.60
599.59	1688.09
599.94	1682.16
600.29	1675.90
600.64	1669.29
600.99	1662.19
601.34	1656.08
601.69	1648.19
602.04	1641.17
602.39	1634.51
602.74	1627.78
603.08	1622.08
603.43	1615.90
603.78	1609.16
604.13	1602.47
604.48	1595.66
604.83	1589.40
605.18	1583.24
605.53	1577.10
605.87	1570.64
606.22	1564.40
606.57	1557.64
606.92	1550.76
607.27	1543.84
607.62	1537.33
607.96	1531.52
608.31	1526.13
608.66	1519.43
609.01	1512.87
609.36	1506.65
609.70	1499.60
610.05	1492.83
610.40	1485.72
610.75	1478.30
611.10	1471.74
611.44	1464.03
611.79	1456.36
612.14	1448.55
612.49	1440.47
612.83	1432.74
613.18	1424.62
613.53	1416.45
613.88	1408.16
614.22	1400.66
614.57	1392.58
614.92	1384.82
615.27	1376.83
615.61	1368.50
615.96	1360.73
616.31	1353.68
616.65	1346.90
617.00	1339.97
617.35	1332.81
617.70	1325.30
618.04	1317.97
618.39	1310.27
618.74	1303.35
619.08	1296.15
619.43	1289.24
619.78	1282.69
620.12	1275.80
620.47	1269.11
620.82	1261.73
621.16	1254.64
621.51	1247.51
621.85	1240.77
622.20	1233.51
622.55	1226.08
622.89	1219.11
623.24	1212.51
623.59	1205.06
623.93	1197.48
624.28	1190.38
624.62	1183.67
624.97	1176.74
625.32	1170.07
625.66	1163.69
626.01	1157.55
626.35	1151.40
626.70	1144.77
627.04	1138.34
627.39	1131.85
627.73	1125.12
628.08	1119.27
628.43	1113.18
628.77	1106.78
629.12	1100.17
629.46	1094.32
629.81	1088.42
630.15	1082.25
630.50	1076.03
630.84	1070.10
631.19	1063.80
631.53	1057.85
631.88	1051.09
632.22	1044.66
632.57	1038.69
632.91	1032.27
633.26	1025.80
633.60	1019.60
633.95	1013.75
634.29	1007.46
634.64	1001.74
634.98	995.79
635.32	989.65
635.67	984.13
636.01	978.36
636.36	972.75
636.70	967.35
637.05	961.68
637.39	956.05
637.73	950.57
638.08	945.26
638.42	940.57
638.77	934.96
639.11	929.75
639.45	924.76
639.80	919.00
640.14	913.38
640.49	907.92
640.83	902.49
641.17	897.07
641.52	891.80
641.86	886.19
642.20	880.88
642.55	875.37
642.89	869.72
643.23	864.32
643.58	859.21
643.92	853.46
644.26	848.19
644.61	842.96
644.95	837.63
645.29	832.25
645.64	826.40
645.98	821.05
646.32	816.04
646.66	810.63
647.01	805.57
647.35	800.62
647.69	795.27
648.04	790.32
648.38	785.20
648.72	779.95
649.06	774.65
649.41	769.47
649.75	764.38
650.09	759.36
650.43	754.28
650.78	748.88
651.12	743.55
651.46	738.46
651.80	733.42
652.14	728.27
652.49	723.24
652.83	718.33
653.17	713.15
653.51	707.97
653.85	703.02
654.20	697.85
654.54	692.75
654.88	688.08
655.22	682.88
655.56	677.67
655.90	672.63
656.25	667.86
656.59	663.25
656.93	658.74
657.27	654.26
657.61	649.58
657.95	645.30
658.29	641.05
658.64	636.70
658.98	632.29
659.32	627.64
659.66	623.11
660.00	618.32
660.34	613.92
660.68	609.38
661.02	605.00
661.36	601.06
661.70	596.96
662.05	592.87
662.39	589.05
662.73	585.26
663.07	581.75
663.41	577.97
663.75	574.18
664.09	570.13
664.43	565.99
664.77	562.18
665.11	558.34
665.45	554.47
665.79	550.58
666.13	546.69
666.47	543.07
666.81	539.52
667.15	536.06
667.49	532.79
667.83	529.50
668.17	526.17
668.51	522.88
668.85	519.69
669.19	516.47
669.53	513.19
669.87	509.74
670.21	506.33
670.55	502.88
670.89	499.75
671.23	497.03
671.57	494.16
671.91	491.10
672.25	487.90
672.58	484.91
672.92	481.95
673.26	479.24
673.60	476.53
673.94	473.64
674.28	470.95
674.62	468.09
674.96	465.52
675.30	462.78
675.64	460.06
675.97	457.31
676.31	454.61
676.65	452.04
676.99	449.78
677.33	447.19
677.67	444.76
678.01	442.07
678.34	439.23
678.68	436.64
679.02	434.07
679.36	431.70
679.70	429.23
680.04	426.70
680.37	424.16
680.71	421.77
681.05	419.55
681.39	417.21
681.73	414.93
682.06	412.60
682.40	410.45
682.74	408.12
683.08	405.89
683.42	403.72
683.75	401.50
684.09	399.28
684.43	397.27
684.77	394.99
685.10	392.89
685.44	390.84
685.78	388.82
686.12	386.92
686.45	384.88
686.79	382.95
687.13	381.16
687.46	379.37
687.80	377.43
688.14	375.45
688.48	373.52
688.81	371.65
689.15	369.62
689.49	367.65
689.82	365.71
690.16	363.75
690.50	361.75
690.83	359.87
691.17	357.95
691.51	355.92
691.84	354.19
692.18	352.45
692.52	350.72
692.85	349.06
693.19	347.54
693.52	345.90
693.86	344.14
694.20	342.50
694.53	340.92
694.87	339.28
695.21	337.67
695.54	336.11
695.88	334.41
696.21	332.85
696.55	331.34
696.88	329.87
697.22	328.46
697.56	327.17
697.89	325.68
698.23	324.27
698.56	323.02
698.90	321.69
699.23	320.34
699.57	319.04
699.90	317.60
700.24	316.08
700.58	314.65
700.91	313.53
701.25	312.33
701.58	311.01
701.92	309.81
702.25	308.57
702.59	307.43
702.92	306.35
703.26	305.22
703.59	304.15
703.93	303.21
704.26	302.07
704.60	300.85
704.93	299.89
705.26	298.70
705.60	297.60
705.93	296.57
706.27	295.51
706.60	294.40
706.94	293.49
707.27	292.48
707.61	291.45
707.94	290.42
708.27	289.25
708.61	288.21
708.94	287.24
709.28	286.31
709.61	285.28
709.94	284.37
710.28	283.45
710.61	282.59
710.95	281.38
711.28	280.64
711.61	279.78
711.95	278.88
712.28	278.09
712.61	277.26
712.95	276.47
713.28	275.75
713.61	274.86
713.95	274.06
714.28	273.31
714.61	272.59
714.95	271.83
715.28	271.13
715.61	270.47
715.95	269.60
716.28	268.80
716.61	268.10
716.95	267.32
717.28	266.64
717.61	265.88
717.94	265.31
718.28	264.42
718.61	263.69
718.94	262.99
719.27	262.35
719.61	261.72
719.94	261.05
720.27	260.28
720.60	259.78
720.94	259.06
721.27	258.48
721.60	257.99
721.93	257.41
722.27	257.02
722.60	256.33
722.93	255.81
723.26	255.34
723.59	254.75
723.93	254.18
724.26	253.71
724.59	253.15
724.92	252.69
725.25	252.33
725.59	251.97
725.92	251.60
726.25	251.16
726.58	250.70
726.91	250.25
727.24	249.90
727.57	249.50
727.91	249.04
728.24	248.61
728.57	248.12
728.90	247.72
729.23	247.24
729.56	246.91
729.89	246.59
730.22	246.15
730.55	245.81
730.89	245.55
731.22	245.13
731.55	244.82
731.88	244.45
732.21	243.99
732.54	243.56
732.87	243.11
733.20	242.78
733.53	242.45
733.86	242.11
734.19	241.68
734.52	241.36
734.85	241.21
735.18	240.86
735.51	240.58
735.84	240.16
736.17	239.85
736.50	239.48
736.83	239.35
737.16	239.01
737.49	238.74
737.82	238.45
738.15	238.14
738.48	237.80
738.81	237.47
739.14	237.25
739.47	236.94
739.80	236.59
740.13	236.22
740.46	235.83
740.79	235.52
741.12	235.23
741.45	234.87
741.78	234.51
742.11	234.27
742.44	234.03
742.77	233.87
743.10	233.57
743.43	233.33
743.75	232.89
744.08	232.87
744.41	232.53
744.74	232.20
745.07	231.88
745.40	231.72
745.73	231.53
746.06	231.25
746.39	231.05
746.71	230.90
747.04	230.67
747.37	230.52
747.70	230.34
748.03	230.14
748.36	229.95
748.68	229.74
749.01	229.45
749.34	229.18
749.67	228.94
750.00	228.71
750.33	228.61
750.65	228.36
750.98	227.93
751.31	227.79
751.64	227.56
751.97	227.49
752.29	227.23
752.62	226.98
752.95	226.73
753.28	226.46
753.60	226.24
753.93	226.07
754.26	225.84
754.59	225.59
754.91	225.40
755.24	225.25
755.57	225.01
755.90	224.81
756.22	224.70
756.55	224.46
756.88	224.24
757.20	223.94
757.53	223.75
757.86	223.59
758.19	223.46
758.51	223.35
758.84	223.15
759.17	222.96
759.49	222.78
759.82	222.75
760.15	222.64
760.47	222.55
760.80	222.39
761.13	222.28
761.45	222.11
761.78	222.00
762.11	221.87
762.43	221.78
762.76	221.68
763.08	221.55
763.41	221.54
763.74	221.45
764.06	221.32
764.39	221.17
764.71	221.04
765.04	220.86
765.37	220.72
765.69	220.64
766.02	220.60
766.34	220.53
766.67	220.36
767.00	220.29
767.32	220.22
767.65	220.17
767.97	220.06
768.30	220.01
768.62	219.86
768.95	219.76
769.27	219.65
769.60	219.64
769.92	219.44
770.25	219.24
770.57	219.17
770.90	219.10
771.22	219.09
771.55	218.96
771.87	218.92
772.20	218.80
772.52	218.79
772.85	218.85
773.17	218.78
773.50	218.66
773.82	218.56
774.15	218.40
774.47	218.31
774.80	218.17
775.12	218.13
775.45	218.04
775.77	217.98
776.09	217.92
776.42	217.88
776.74	217.95
777.07	217.85
777.39	217.78
777.72	217.68
778.04	217.58
778.36	217.60
778.69	217.53
779.01	217.53
779.33	217.33
779.66	217.05
779.98	216.95
780.31	216.95
780.63	216.94
780.95	216.88
781.28	216.73
781.60	216.66
781.92	216.55
782.25	216.49
782.57	216.32
782.89	216.25
783.22	216.09
783.54	215.96
783.86	215.94
784.19	215.85
784.51	215.86
784.83	215.82
785.16	215.73
785.48	215.64
785.80	215.62
786.12	215.56
786.45	215.53
786.77	215.50
787.09	215.35
787.42	215.24
787.74	215.19
788.06	215.17
788.38	215.13
788.71	215.12
789.03	215.08
789.35	215.16
789.67	215.16
789.99	215.10
790.32	215.05
790.64	215.08
790.96	215.17
791.28	215.09
791.61	215.06
791.93	215.04
792.25	215.01
792.57	215.04
792.89	215.03
793.21	215.02
793.54	214.93
793.86	214.90
794.18	214.90
794.50	214.83
794.82	214.84
795.14	214.90
795.47	214.82
795.79	214.70
796.11	214.60
796.43	214.49
796.75	214.48
797.07	214.49
797.39	214.44
797.71	214.26
798.04	214.24
798.36	214.23
798.68	214.14
799.00	214.12
799.32	214.02
799.64	214.00
799.96	214.01
800.28	214.04
800.60	214.05
800.92	213.94
801.24	213.88
801.56	213.88
801.89	213.72
802.21	213.74
802.53	213.73
802.85	213.77
803.17	213.87
803.49	213.85
803.81	213.78
804.13	213.73
804.45	213.69
804.77	213.60
805.09	213.56
805.41	213.65
805.73	213.63
806.05	213.57
806.37	213.53
806.69	213.42
807.01	213.40
807.33	213.33
807.65	213.32
807.97	213.45
808.28	213.45
808.60	213.52
808.92	213.52
809.24	213.71
809.56	213.56
809.88	213.53
810.20	213.47
810.52	213.42
810.84	213.38
811.16	213.38
811.48	213.37
811.80	213.35
812.12	213.24
812.43	213.18
812.75	213.13
813.07	213.16
813.39	213.19
813.71	213.16
814.03	213.11
814.35	213.12
814.67	213.06
814.98	212.97
815.30	212.93
815.62	212.82
815.94	212.65
816.26	212.71
816.58	212.62
816.89	212.65
817.21	212.70
817.53	212.69
817.85	212.75
818.17	212.77
818.48	212.76
818.80	212.75
819.12	212.79
819.44	212.77
819.76	212.64
820.07	212.62
820.39	212.57
820.71	212.55
821.03	212.52
821.34	212.49
821.66	212.49
821.98	212.49
822.30	212.48
822.61	212.58
822.93	212.54
823.25	212.55
823.57	212.51
823.88	212.47
824.20	212.43
824.52	212.38
824.83	212.35
825.15	212.23
825.47	212.23
825.79	212.17
826.10	212.16
826.42	212.18
826.74	212.18
827.05	212.18
827.37	212.25
827.69	212.16
828.00	212.18
828.32	212.23
828.64	212.25
828.95	212.33
829.27	212.24
829.58	212.20
829.90	212.25
830.22	212.22
830.53	212.23
830.85	212.20
831.17	212.13
831.48	212.16
831.80	212.25
832.11	212.24
832.43	212.24
832.75	212.26
833.06	212.39
833.38	212.33
833.69	212.34
834.01	212.32
834.32	212.36
834.64	212.27
834.96	212.19
835.27	212.10
835.59	212.00
835.90	211.99
836.22	211.98
836.53	211.91
836.85	211.97
837.16	212.14
837.48	212.19
837.79	212.35
838.11	212.33
838.42	212.31
838.74	212.35
839.05	212.34
839.37	212.28
839.68	212.13
840.00	212.13
840.31	212.17
840.63	212.15
840.94	212.14
841.26	212.07
841.57	212.06
841.88	212.12
842.20	212.11
842.51	212.06
842.83	212.12
843.14	212.24
843.46	212.19
843.77	212.03
844.08	211.96
844.40	211.79
844.71	211.77
845.03	211.73
845.34	211.69
845.65	211.68
845.97	211.73
846.28	211.72
846.60	211.80
846.91	211.76
847.22	211.67
847.54	211.72
847.85	211.76
848.16	211.77
848.48	211.72
848.79	211.81
849.10	211.78
849.42	211.71
849.73	211.59
850.04	211.60
850.36	211.51
850.67	211.60
850.98	211.59
851.30	211.55
851.61	211.54
851.92	211.51
852.23	211.57
852.55	211.56
852.86	211.50
853.17	211.46
853.49	211.45
853.80	211.59
854.11	211.57
854.42	211.62
854.74	211.57
855.05	211.57
855.36	211.46
855.67	211.52
855.99	211.55
856.30	211.69
856.61	211.66
856.92	211.76
857.23	211.69
857.55	211.73
857.86	211.73
858.17	211.85
858.48	211.85
858.79	211.76
859.11	211.75
859.42	211.83
859.73	211.82
860.04	211.82
860.35	211.72
860.66	211.65
860.98	211.60
861.29	211.63
861.60	211.66
861.91	211.68
862.22	211.66
862.53	211.65
862.84	211.53
863.16	211.52
863.47	211.46
863.78	211.47
864.09	211.43
864.40	211.46
864.71	211.39
865.02	211.34
865.33	211.35
865.64	211.31
865.95	211.30
866.27	211.37
866.58	211.35
866.89	211.37
867.20	211.40
867.51	211.38
867.82	211.33
868.13	211.32
868.44	211.37
868.75	211.32
869.06	211.30
869.37	211.30
869.68	211.30
869.99	211.32
870.30	211.37
870.61	211.40
870.92	211.31
871.23	211.29
871.54	211.35
871.85	211.42
872.16	211.49
872.47	211.47
872.78	211.34
873.09	211.34
873.40	211.37
873.71	211.37
874.02	211.40
874.33	211.39
874.64	211.43
874.95	211.43
875.26	211.41
875.56	211.44
875.87	211.46
876.18	211.39
876.49	211.52
876.80	211.49
877.11	211.47
877.42	211.51
877.73	211.47
878.04	211.49
878.35	211.41
878.66	211.38
878.96	211.35
879.27	211.35
879.58	211.37
879.89	211.34
880.20	211.36
880.51	211.36
880.82	211.43
881.12	211.40
881.43	211.26
881.74	211.27
882.05	211.23
882.36	211.16
882.67	211.21
882.97	211.07
883.28	210.97
883.59	211.01
883.90	210.99
884.21	211.04
884.51	210.98
884.82	210.98
885.13	210.97
885.44	210.99
885.74	211.02
886.05	210.99
886.36	211.01
886.67	210.98
886.98	211.10
887.28	211.11
887.59	211.10
887.90	211.15
888.20	211.16
888.51	211.19
888.82	211.20
889.13	211.18
889.43	211.33
889.74	211.39
890.05	211.28
890.35	211.24
890.66	211.23
890.97	211.17
891.28	211.18
891.58	211.20
891.89	211.15
892.20	211.11
892.50	211.14
892.81	211.12
893.12	211.10
893.42	211.04
893.73	211.08
894.04	211.06
894.34	211.09
894.65	211.11
894.95	211.11
895.26	211.13
895.57	211.27
895.87	211.12
896.18	211.16
896.48	211.22
896.79	211.23
897.10	211.34
897.40	211.39
897.71	211.39
898.01	211.38
898.32	211.44
898.63	211.50
898.93	211.50
899.24	211.47
899.54	211.41
899.85	211.36
900.15	211.31
900.46	211.29
900.76	211.31
901.07	211.30
901.38	211.29
901.68	211.26
901.99	211.18
902.29	211.22
902.60	211.21
902.90	211.22
903.21	211.30
903.51	211.22
903.82	211.29
904.12	211.36
904.43	211.39
904.73	211.43
905.03	211.46
905.34	211.63
905.64	211.67
905.95	211.75
906.25	211.71
906.56	211.77
906.86	211.82
907.17	211.75
907.47	211.76
907.77	211.74
908.08	211.73
908.38	211.76
908.69	211.68
908.99	211.70
909.30	211.71
909.60	211.67
909.90	211.66
910.21	211.60
910.51	211.55
910.81	211.50
911.12	211.48
911.42	211.44
911.73	211.23
912.03	211.22
912.33	211.22
912.64	211.24
912.94	211.22
913.24	211.17
913.55	211.16
913.85	211.14
914.15	211.16
914.46	211.15
914.76	211.07
915.06	211.12
915.37	211.07
915.67	211.04
915.97	211.09
916.27	211.09
916.58	211.13
916.88	211.08
917.18	211.03
917.49	211.11
917.79	211.16
918.09	211.22
918.39	211.27
918.70	211.28
919.00	211.28
919.30	211.34
919.60	211.37
919.91	211.38
920.21	211.38
920.51	211.40
920.81	211.46
921.12	211.45
921.42	211.46
921.72	211.49
922.02	211.51
922.32	211.51
922.63	211.50
922.93	211.50
923.23	211.54
923.53	211.56
923.83	211.46
924.13	211.42
924.44	211.40
924.74	211.45
925.04	211.49
925.34	211.43
925.64	211.29
925.94	211.25
926.24	211.35
926.55	211.35
926.85	211.31
927.15	211.27
927.45	211.27
927.75	211.19
928.05	211.21
928.35	211.20
928.65	211.17
928.95	211.12
929.26	211.09
929.56	211.03
929.86	211.02
930.16	210.98
930.46	210.92
930.76	210.90
931.06	210.80
931.36	210.75
931.66	210.84
931.96	210.89
932.26	210.89
932.56	210.83
932.86	210.79
933.16	210.79
933.46	210.78
933.76	210.83
934.06	210.89
934.36	210.94
934.66	210.96
934.96	210.95
935.26	211.00
935.56	211.09
935.86	211.06
936.16	211.00
936.46	210.95
936.76	211.01
937.06	211.00
937.36	211.02
937.66	211.05
937.96	211.02
938.26	210.95
938.56	210.97
938.86	210.96
939.16	211.03
939.46	211.05
939.76	211.02
940.06	211.02
940.35	210.95
940.65	210.85
940.95	210.82
941.25	210.76
941.55	210.71
941.85	210.66
942.15	210.76
942.45	210.90
942.75	210.90
943.04	210.90
943.34	210.97
943.64	210.98
943.94	210.96
944.24	210.94
944.54	210.96
944.84	210.96
945.13	210.92
945.43	210.85
945.73	210.87
946.03	210.92
946.33	210.85
946.62	210.79
946.92	210.80
947.22	210.86
947.52	210.88
947.82	210.93
948.11	210.93
948.41	210.85
948.71	210.78
949.01	210.87
949.31	210.82
949.60	210.79
949.90	210.75
950.20	210.75
950.50	210.78
950.79	210.83
951.09	210.87
951.39	210.92
951.69	210.96
951.98	210.99
952.28	210.99
952.58	211.05
952.87	211.18
953.17	211.15
953.47	211.11
953.76	211.17
954.06	211.16
954.36	211.16
954.66	211.20
954.95	211.23
955.25	211.25
955.55	211.33
955.84	211.33
956.14	211.37
956.44	211.38
956.73	211.36
957.03	211.30
957.32	211.27
957.62	211.25
957.92	211.24
958.21	211.20
958.51	211.33
958.81	211.33
959.10	211.32
959.40	211.34
959.69	211.40
959.99	211.45
960.29	211.45
960.58	211.33
960.88	211.38
961.17	211.35
961.47	211.32
961.76	211.25
962.06	211.23
962.36	211.25
962.65	211.26
962.95	211.29
963.24	211.40
963.54	211.41
963.83	211.48
964.13	211.51
964.42	211.47
964.72	211.41
965.01	211.47
965.31	211.44
965.60	211.43
965.90	211.50
966.19	211.36
966.49	211.36
966.78	211.43
967.08	211.46
967.37	211.45
967.67	211.44
967.96	211.43
968.26	211.43
968.55	211.37
968.85	211.27
969.14	211.26
969.43	211.14
969.73	211.14
970.02	211.09
970.32	211.03
970.61	211.06
970.91	210.99
971.20	210.89
971.49	210.89
971.79	210.90
972.08	210.80
972.38	210.90
972.67	210.87
972.96	210.91
973.26	210.85
973.55	210.96
973.85	210.95
974.14	211.01
974.43	211.05
974.73	211.07
975.02	211.07
975.31	211.09
975.61	211.13
975.90	211.13
976.19	211.11
976.49	211.20
976.78	211.20
977.07	211.15
977.37	211.20
977.66	211.23
977.95	211.20
978.24	211.19
978.54	211.22
978.83	211.25
979.12	211.28
979.42	211.28
979.71	211.23
980.00	211.23
980.29	211.20
980.59	211.11
980.88	211.06
981.17	211.12
981.46	211.12
981.76	211.09
982.05	211.10
982.34	211.15
982.63	211.08
982.93	211.07
983.22	211.16
983.51	211.10
983.80	211.03
984.09	211.05
984.39	210.94
984.68	210.87
984.97	210.93
985.26	210.85
985.55	210.85
985.85	210.85
986.14	210.90
986.43	210.93
986.72	210.95
987.01	210.98
987.30	210.97
987.59	210.96
987.89	210.99
988.18	210.95
988.47	210.88
988.76	210.86
989.05	210.79
989.34	210.72
989.63	210.82
989.92	210.87
990.22	210.84
990.51	210.93
990.80	210.98
991.09	210.98
991.38	211.00
991.67	211.00
991.96	210.93
992.25	210.84
992.54	210.84
992.83	210.84
993.12	210.84
993.41	210.88
993.70	210.92
993.99	210.89
994.28	210.87
994.58	210.94
994.87	210.92
995.16	211.00
995.45	211.03
995.74	211.00
996.03	211.01
996.32	211.10
996.61	211.12
996.90	211.05
997.19	211.05
997.48	211.08
997.77	210.98
998.06	211.03
998.34	211.06
998.63	211.11
998.92	211.14
999.21	211.19
999.50	211.18
999.79	211.10
1000.08	211.18
1000.37	211.20
1000.66	211.13
1000.95	211.17
1001.24	211.17
1001.53	211.18
1001.82	211.18
1002.11	211.19
1002.40	211.15
1002.68	211.15
1002.97	211.30
1003.26	211.22
1003.55	211.14
1003.84	211.22
1004.13	211.25
1004.42	211.30
1004.71	211.23
1004.99	211.27
1005.28	211.34
1005.57	211.37
1005.86	211.35
1006.15	211.32
1006.44	211.30
1006.72	211.41
1007.01	211.42
1007.30	211.39
1007.59	211.36
1007.88	211.33
1008.17	211.31
1008.45	211.29
1008.74	211.24
1009.03	211.18
1009.32	211.24
1009.60	211.26
1009.89	211.30
1010.18	211.23
1010.47	211.11
1010.76	211.11
1011.04	211.05
1011.33	211.09
1011.62	211.04
1011.91	211.06
1012.19	211.05
1012.48	211.04
1012.77	210.95
1013.05	211.04
1013.34	211.08
1013.63	211.09
1013.92	211.01
1014.20	210.97
1014.49	211.03
1014.78	211.02
1015.06	210.92
1015.35	210.89
1015.64	210.95
1015.92	210.93
1016.21	210.95
1016.50	211.08
1016.78	211.13
1017.07	211.18
1017.36	211.01
1017.64	211.01
1017.93	211.08
1018.22	211.06
1018.50	211.10
1018.79	211.17
1019.08	211.09
1019.36	211.07
1019.65	210.99
1019.93	211.07
1020.22	211.10
1020.51	211.18
1020.79	211.17
1021.08	210.40
1021.36	211.25
1021.65	212.50
1021.94	210.80
1022.22	210.55
1022.51	209.60
1022.79	210.70
1023.08	210.90
1023.36	213.90
1023.65	210.10
>>>>>End Processed Spectral Data<<<<<
