SpectraSuite Data File
++++++++++++++++++++++++++++++++++++
Date: Mon Feb 25 17:30:42 EST 2013
User: group
Dark Spectrum Present: No
Reference Spectrum Present: No
Number of Sampled Component Spectra: 1
Spectrometers: USB2E7196
Integration Time (usec): 52000 (USB2E7196)
Spectra Averaged: 20 (USB2E7196)
Boxcar Smoothing: 10 (USB2E7196)
Correct for Electrical Dark: No (USB2E7196)
Strobe/Lamp Enabled: No (USB2E7196)
Correct for Detector Non-linearity: No (USB2E7196)
Correct for Stray Light: No (USB2E7196)
Number of Pixels in Processed Spectrum: 2048
>>>>>Begin Processed Spectral Data<<<<<
339.09	0.00
339.48	198.40
339.86	199.65
340.24	202.05
340.63	202.55
341.01	206.00
341.39	206.05
341.78	207.70
342.16	208.70
342.54	209.05
342.93	198.33
343.31	208.33
343.69	208.91
344.07	209.39
344.46	209.85
344.84	210.26
345.22	210.46
345.60	210.72
345.99	210.87
346.37	211.03
346.75	211.09
347.13	211.20
347.52	211.21
347.90	211.33
348.28	211.34
348.66	211.36
349.05	211.35
349.43	211.48
349.81	211.50
350.19	211.52
350.57	211.51
350.96	211.53
351.34	211.66
351.72	211.70
352.10	211.84
352.48	211.90
352.87	211.97
353.25	212.04
353.63	212.13
354.01	212.19
354.39	212.26
354.77	212.37
355.15	212.38
355.54	212.43
355.92	212.43
356.30	212.47
356.68	212.69
357.06	212.80
357.44	212.80
357.82	212.89
358.20	212.89
358.58	212.98
358.97	213.00
359.35	213.08
359.73	213.22
360.11	213.23
360.49	213.23
360.87	213.34
361.25	213.44
361.63	213.52
362.01	213.60
362.39	213.65
362.77	213.72
363.15	213.80
363.53	213.88
363.91	213.95
364.29	214.00
364.67	213.87
365.05	213.84
365.43	213.92
365.81	213.96
366.19	214.18
366.57	214.31
366.95	214.38
367.33	214.33
367.71	214.33
368.09	214.46
368.47	214.47
368.85	214.39
369.23	214.38
369.61	214.33
369.99	214.40
370.37	214.36
370.75	214.35
371.13	214.34
371.51	214.21
371.89	214.13
372.27	214.16
372.65	214.10
373.03	214.08
373.41	214.04
373.78	214.01
374.16	213.82
374.54	213.76
374.92	213.67
375.30	213.65
375.68	213.64
376.06	213.55
376.44	213.52
376.82	213.46
377.19	213.41
377.57	213.37
377.95	213.17
378.33	213.10
378.71	213.02
379.09	212.96
379.47	212.98
379.84	212.93
380.22	212.91
380.60	212.85
380.98	212.75
381.36	212.67
381.73	212.54
382.11	212.54
382.49	212.44
382.87	212.37
383.25	212.33
383.62	212.41
384.00	212.35
384.38	212.34
384.76	212.39
385.13	212.47
385.51	212.43
385.89	212.37
386.27	212.37
386.64	212.32
387.02	212.34
387.40	212.30
387.78	212.31
388.15	212.19
388.53	212.22
388.91	212.20
389.29	212.24
389.66	212.34
390.04	212.28
390.42	212.29
390.79	212.25
391.17	212.25
391.55	212.07
391.92	211.99
392.30	211.97
392.68	211.91
393.05	211.83
393.43	211.79
393.81	211.83
394.18	211.80
394.56	211.81
394.94	211.78
395.31	211.78
395.69	211.85
396.06	211.89
396.44	211.83
396.82	211.85
397.19	211.93
397.57	211.85
397.95	211.97
398.32	211.86
398.70	211.97
399.07	212.03
399.45	212.04
399.82	212.13
400.20	212.11
400.58	212.10
400.95	212.07
401.33	212.18
401.70	212.46
402.08	212.51
402.45	212.59
402.83	212.71
403.20	212.80
403.58	212.80
403.95	212.92
404.33	213.03
404.71	213.16
405.08	213.25
405.46	213.42
405.83	213.48
406.21	213.67
406.58	213.80
406.96	214.00
407.33	214.17
407.70	214.32
408.08	214.65
408.45	214.94
408.83	215.25
409.20	215.45
409.58	215.50
409.95	215.83
410.33	216.11
410.70	216.38
411.08	216.67
411.45	217.11
411.82	217.44
412.20	217.90
412.57	218.52
412.95	218.87
413.32	219.38
413.69	219.84
414.07	220.43
414.44	221.01
414.82	221.60
415.19	222.31
415.56	223.07
415.94	223.80
416.31	224.65
416.68	225.45
417.06	226.37
417.43	227.32
417.81	228.35
418.18	229.50
418.55	230.65
418.93	231.85
419.30	233.06
419.67	234.47
420.04	235.85
420.42	237.14
420.79	238.89
421.16	240.55
421.54	242.35
421.91	244.09
422.28	245.93
422.66	247.89
423.03	249.86
423.40	251.84
423.77	253.91
424.15	256.08
424.52	258.43
424.89	260.95
425.26	263.37
425.64	265.68
426.01	268.11
426.38	270.76
426.75	273.56
427.13	276.29
427.50	279.11
427.87	282.16
428.24	285.08
428.61	287.97
428.99	291.12
429.36	294.63
429.73	298.03
430.10	301.47
430.47	304.90
430.85	308.49
431.22	312.44
431.59	316.49
431.96	320.37
432.33	324.54
432.70	328.59
433.08	333.40
433.45	337.81
433.82	342.32
434.19	347.30
434.56	352.10
434.93	356.79
435.30	361.44
435.68	366.46
436.05	371.50
436.42	376.48
436.79	381.14
437.16	386.03
437.53	391.22
437.90	396.38
438.27	401.34
438.64	406.49
439.01	411.26
439.38	415.72
439.75	419.85
440.13	424.62
440.50	429.05
440.87	432.69
441.24	436.55
441.61	440.75
441.98	443.70
442.35	447.20
442.72	450.77
443.09	454.28
443.46	456.39
443.83	457.89
444.20	459.06
444.57	460.78
444.94	461.52
445.31	462.34
445.68	463.06
446.05	463.35
446.42	462.80
446.79	461.92
447.16	460.97
447.53	460.26
447.90	458.20
448.27	456.20
448.64	453.29
449.01	451.38
449.37	447.80
449.74	444.45
450.11	440.50
450.48	436.12
450.85	431.60
451.22	427.70
451.59	423.99
451.96	420.44
452.33	415.77
452.70	411.53
453.07	406.44
453.43	401.30
453.80	396.54
454.17	391.71
454.54	387.40
454.91	382.71
455.28	378.11
455.65	373.80
456.02	369.62
456.38	365.97
456.75	361.22
457.12	357.51
457.49	353.72
457.86	350.04
458.23	346.90
458.59	343.47
458.96	339.95
459.33	336.92
459.70	333.89
460.07	331.30
460.43	328.50
460.80	325.93
461.17	323.61
461.54	321.16
461.91	318.88
462.27	316.52
462.64	314.53
463.01	312.44
463.38	310.32
463.74	308.18
464.11	306.31
464.48	304.77
464.85	302.96
465.21	301.73
465.58	300.32
465.95	298.65
466.32	297.22
466.68	295.91
467.05	294.50
467.42	293.16
467.78	291.86
468.15	290.55
468.52	289.60
468.88	288.31
469.25	287.24
469.62	286.45
469.98	285.54
470.35	284.60
470.72	283.75
471.08	282.83
471.45	282.01
471.82	281.35
472.18	280.54
472.55	279.99
472.92	279.21
473.28	278.58
473.65	278.02
474.02	277.51
474.38	277.10
474.75	276.80
475.11	276.37
475.48	276.11
475.85	275.85
476.21	275.62
476.58	275.56
476.94	275.43
477.31	275.44
477.67	275.38
478.04	275.43
478.41	275.55
478.77	275.84
479.14	276.00
479.50	276.26
479.87	276.67
480.23	277.03
480.60	277.43
480.96	277.84
481.33	278.45
481.69	279.10
482.06	279.75
482.42	280.35
482.79	281.13
483.15	281.93
483.52	282.90
483.88	283.89
484.25	284.82
484.61	285.86
484.98	286.82
485.34	288.15
485.71	289.50
486.07	290.86
486.44	292.24
486.80	293.72
487.17	295.39
487.53	297.06
487.90	298.81
488.26	300.79
488.62	302.84
488.99	304.88
489.35	307.03
489.72	309.41
490.08	311.85
490.44	314.24
490.81	316.91
491.17	319.66
491.54	322.51
491.90	325.52
492.26	328.71
492.63	332.17
492.99	335.61
493.36	339.28
493.72	343.12
494.08	347.03
494.45	351.35
494.81	355.76
495.17	360.36
495.54	365.27
495.90	370.24
496.26	375.39
496.63	380.78
496.99	386.49
497.35	392.39
497.72	398.59
498.08	405.07
498.44	411.82
498.80	418.89
499.17	426.25
499.53	434.00
499.89	442.04
500.26	450.04
500.62	458.16
500.98	466.86
501.34	475.98
501.71	485.36
502.07	494.76
502.43	504.59
502.79	514.72
503.16	525.29
503.52	536.03
503.88	547.30
504.24	558.98
504.60	570.73
504.97	582.86
505.33	595.19
505.69	608.43
506.05	621.76
506.41	635.16
506.78	648.67
507.14	662.60
507.50	676.96
507.86	691.72
508.22	707.23
508.59	722.61
508.95	738.52
509.31	754.58
509.67	771.21
510.03	788.03
510.39	805.33
510.75	823.01
511.12	840.88
511.48	858.96
511.84	877.47
512.20	896.16
512.56	915.23
512.92	934.60
513.28	953.77
513.64	973.34
514.00	993.20
514.37	1013.42
514.73	1033.90
515.09	1054.46
515.45	1074.97
515.81	1095.47
516.17	1116.62
516.53	1137.59
516.89	1158.89
517.25	1180.18
517.61	1201.54
517.97	1222.77
518.33	1243.81
518.69	1265.36
519.05	1286.88
519.41	1308.58
519.77	1330.77
520.13	1352.46
520.49	1374.08
520.85	1396.38
521.21	1418.36
521.57	1440.92
521.93	1462.63
522.29	1484.94
522.65	1507.17
523.01	1529.34
523.37	1551.28
523.73	1572.92
524.09	1594.66
524.45	1616.78
524.81	1638.80
525.17	1660.92
525.53	1683.10
525.89	1705.03
526.25	1726.57
526.61	1747.34
526.97	1768.52
527.33	1789.13
527.68	1810.03
528.04	1830.82
528.40	1850.53
528.76	1870.70
529.12	1890.81
529.48	1912.18
529.84	1932.14
530.20	1951.84
530.56	1971.83
530.91	1991.95
531.27	2012.01
531.63	2031.46
531.99	2050.65
532.35	2069.15
532.71	2087.39
533.07	2106.26
533.42	2124.17
533.78	2142.65
534.14	2161.01
534.50	2177.66
534.86	2194.92
535.21	2211.37
535.57	2228.85
535.93	2245.88
536.29	2262.21
536.65	2278.16
537.00	2292.86
537.36	2307.60
537.72	2322.43
538.08	2337.29
538.44	2351.89
538.79	2366.79
539.15	2381.23
539.51	2395.34
539.87	2410.39
540.22	2424.69
540.58	2438.79
540.94	2452.80
541.29	2465.07
541.65	2476.81
542.01	2489.70
542.37	2501.03
542.72	2512.80
543.08	2523.13
543.44	2534.44
543.79	2544.14
544.15	2554.01
544.51	2564.28
544.87	2574.87
545.22	2583.38
545.58	2591.32
545.94	2598.15
546.29	2603.89
546.65	2609.63
547.01	2615.20
547.36	2620.07
547.72	2625.11
548.07	2628.53
548.43	2631.84
548.79	2635.17
549.14	2639.33
549.50	2642.79
549.86	2646.45
550.21	2649.94
550.57	2653.50
550.92	2655.80
551.28	2658.43
551.64	2660.65
551.99	2662.92
552.35	2664.15
552.70	2666.59
553.06	2669.00
553.41	2671.77
553.77	2674.69
554.13	2677.03
554.48	2678.87
554.84	2680.19
555.19	2680.44
555.55	2681.20
555.90	2681.59
556.26	2681.99
556.61	2681.68
556.97	2680.62
557.32	2680.19
557.68	2678.23
558.03	2676.45
558.39	2674.48
558.74	2674.01
559.10	2672.60
559.45	2670.49
559.81	2669.44
560.16	2667.09
560.52	2664.50
560.87	2661.33
561.23	2657.04
561.58	2654.23
561.94	2650.77
562.29	2646.90
562.64	2644.44
563.00	2641.53
563.35	2639.14
563.71	2637.18
564.06	2635.15
564.42	2632.94
564.77	2630.66
565.12	2628.68
565.48	2625.60
565.83	2622.67
566.19	2618.92
566.54	2614.59
566.89	2610.71
567.25	2606.18
567.60	2602.57
567.96	2598.82
568.31	2595.40
568.66	2591.93
569.02	2587.40
569.37	2582.53
569.72	2578.68
570.08	2573.47
570.43	2567.85
570.78	2562.09
571.14	2555.94
571.49	2549.06
571.84	2543.37
572.20	2536.25
572.55	2529.92
572.90	2523.34
573.26	2516.55
573.61	2509.71
573.96	2503.23
574.31	2495.44
574.67	2487.91
575.02	2479.35
575.37	2470.69
575.72	2461.74
576.08	2454.41
576.43	2445.68
576.78	2438.12
577.13	2430.13
577.49	2422.19
577.84	2414.58
578.19	2407.41
578.54	2400.01
578.90	2393.21
579.25	2384.81
579.60	2375.98
579.95	2366.79
580.30	2358.83
580.66	2351.04
581.01	2342.35
581.36	2333.01
581.71	2324.99
582.06	2316.71
582.42	2309.11
582.77	2300.83
583.12	2292.23
583.47	2283.61
583.82	2275.65
584.17	2266.35
584.53	2257.56
584.88	2248.69
585.23	2239.75
585.58	2230.14
585.93	2220.59
586.28	2211.69
586.63	2202.85
586.98	2195.05
587.34	2187.03
587.69	2178.09
588.04	2168.90
588.39	2160.59
588.74	2152.22
589.09	2143.80
589.44	2134.14
589.79	2125.60
590.14	2117.66
590.49	2109.81
590.84	2100.99
591.19	2093.26
591.54	2085.10
591.89	2075.01
592.25	2066.50
592.60	2057.50
592.95	2048.49
593.30	2039.59
593.65	2029.97
594.00	2020.66
594.35	2012.40
594.70	2003.80
595.05	1995.25
595.40	1986.92
595.75	1977.60
596.10	1969.51
596.45	1960.95
596.80	1953.60
597.15	1945.71
597.50	1936.64
597.85	1928.34
598.19	1919.96
598.54	1911.27
598.89	1903.63
599.24	1897.30
599.59	1889.66
599.94	1882.78
600.29	1875.41
600.64	1867.47
600.99	1859.53
601.34	1852.51
601.69	1844.12
602.04	1835.79
602.39	1828.11
602.74	1820.39
603.08	1814.19
603.43	1807.44
603.78	1799.80
604.13	1792.04
604.48	1784.17
604.83	1777.57
605.18	1770.73
605.53	1763.34
605.87	1755.95
606.22	1749.13
606.57	1741.62
606.92	1734.07
607.27	1726.18
607.62	1719.25
607.96	1712.95
608.31	1706.96
608.66	1699.62
609.01	1692.26
609.36	1684.94
609.70	1677.32
610.05	1669.78
610.40	1661.60
610.75	1653.13
611.10	1645.84
611.44	1636.99
611.79	1628.30
612.14	1619.37
612.49	1609.97
612.83	1601.44
613.18	1592.23
613.53	1582.64
613.88	1573.09
614.22	1564.40
614.57	1555.21
614.92	1545.94
615.27	1536.49
615.61	1526.99
615.96	1518.04
616.31	1509.59
616.65	1502.04
617.00	1493.93
617.35	1485.71
617.70	1477.10
618.04	1468.43
618.39	1459.22
618.74	1451.10
619.08	1442.62
619.43	1434.65
619.78	1427.17
620.12	1419.40
620.47	1411.64
620.82	1403.51
621.16	1395.61
621.51	1387.50
621.85	1379.63
622.20	1371.46
622.55	1363.50
622.89	1355.40
623.24	1347.65
623.59	1339.38
623.93	1330.86
624.28	1322.69
624.62	1314.67
624.97	1306.69
625.32	1298.96
625.66	1291.75
626.01	1284.62
626.35	1277.55
626.70	1270.01
627.04	1262.81
627.39	1255.33
627.73	1248.17
628.08	1241.47
628.43	1234.12
628.77	1226.73
629.12	1219.58
629.46	1212.94
629.81	1206.02
630.15	1198.90
630.50	1191.72
630.84	1184.58
631.19	1177.74
631.53	1171.08
631.88	1163.73
632.22	1156.30
632.57	1149.62
632.91	1142.53
633.26	1135.25
633.60	1128.33
633.95	1121.52
634.29	1114.27
634.64	1107.70
634.98	1100.85
635.32	1093.88
635.67	1087.58
636.01	1081.20
636.36	1074.47
636.70	1067.94
637.05	1061.43
637.39	1055.16
637.73	1049.03
638.08	1043.53
638.42	1037.80
638.77	1031.50
639.11	1025.27
639.45	1019.45
639.80	1012.94
640.14	1006.69
640.49	1000.61
640.83	994.44
641.17	988.29
641.52	982.25
641.86	975.81
642.20	969.81
642.55	963.34
642.89	957.06
643.23	950.96
643.58	945.39
643.92	939.21
644.26	933.00
644.61	927.07
644.95	921.04
645.29	914.59
645.64	907.98
645.98	902.05
646.32	896.14
646.66	890.29
647.01	884.71
647.35	878.89
647.69	872.79
648.04	866.78
648.38	860.94
648.72	855.09
649.06	849.23
649.41	843.29
649.75	837.70
650.09	832.10
650.43	826.16
650.78	820.05
651.12	814.06
651.46	808.47
651.80	802.83
652.14	796.95
652.49	791.16
652.83	785.62
653.17	779.62
653.51	774.17
653.85	768.41
654.20	762.57
654.54	756.91
654.88	751.56
655.22	746.06
655.56	740.34
655.90	734.59
656.25	729.04
656.59	723.56
656.93	718.40
657.27	713.24
657.61	707.92
657.95	702.90
658.29	697.90
658.64	692.96
658.98	687.85
659.32	682.64
659.66	677.66
660.00	672.33
660.34	667.28
660.68	662.20
661.02	657.22
661.36	652.51
661.70	647.79
662.05	643.13
662.39	638.76
662.73	634.58
663.07	630.49
663.41	626.31
663.75	621.96
664.09	617.42
664.43	612.73
664.77	608.46
665.11	603.98
665.45	599.69
665.79	595.27
666.13	591.00
666.47	586.87
666.81	582.76
667.15	578.88
667.49	575.11
667.83	571.20
668.17	567.49
668.51	563.83
668.85	560.26
669.19	556.77
669.53	552.86
669.87	548.90
670.21	545.01
670.55	541.09
670.89	537.80
671.23	534.50
671.57	531.12
671.91	527.66
672.25	524.27
672.58	520.82
672.92	517.46
673.26	514.41
673.60	511.35
673.94	508.09
674.28	504.91
674.62	501.75
674.96	498.74
675.30	495.69
675.64	492.57
675.97	489.40
676.31	486.27
676.65	483.49
676.99	480.85
677.33	478.05
677.67	475.34
678.01	472.14
678.34	469.06
678.68	466.29
679.02	463.45
679.36	460.68
679.70	458.05
680.04	455.32
680.37	452.38
680.71	449.70
681.05	447.19
681.39	444.62
681.73	442.12
682.06	439.62
682.40	437.17
682.74	434.52
683.08	432.08
683.42	429.54
683.75	426.95
684.09	424.39
684.43	422.01
684.77	419.45
685.10	417.02
685.44	414.70
685.78	412.26
686.12	409.96
686.45	407.80
686.79	405.49
687.13	403.46
687.46	401.32
687.80	399.12
688.14	396.86
688.48	394.82
688.81	392.57
689.15	390.36
689.49	388.20
689.82	386.07
690.16	383.79
690.50	381.67
690.83	379.50
691.17	377.35
691.51	375.12
691.84	373.05
692.18	371.21
692.52	369.24
692.85	367.53
693.19	365.67
693.52	363.74
693.86	361.85
694.20	359.93
694.53	358.10
694.87	356.22
695.21	354.41
695.54	352.45
695.88	350.50
696.21	348.63
696.55	346.93
696.88	345.26
697.22	343.53
697.56	341.98
697.89	340.46
698.23	338.82
698.56	337.28
698.90	335.89
699.23	334.29
699.57	332.74
699.90	331.04
700.24	329.36
700.58	327.73
700.91	326.29
701.25	324.96
701.58	323.50
701.92	322.08
702.25	320.72
702.59	319.38
702.92	318.17
703.26	317.00
703.59	315.77
703.93	314.59
704.26	313.48
704.60	312.23
704.93	310.93
705.26	309.79
705.60	308.58
705.93	307.30
706.27	306.04
706.60	305.04
706.94	304.03
707.27	302.94
707.61	301.85
707.94	300.71
708.27	299.40
708.61	298.32
708.94	297.23
709.28	296.07
709.61	294.90
709.94	293.83
710.28	292.76
710.61	291.65
710.95	290.57
711.28	289.64
711.61	288.57
711.95	287.67
712.28	286.69
712.61	285.80
712.95	284.94
713.28	284.11
713.61	283.13
713.95	282.19
714.28	281.44
714.61	280.52
714.95	279.60
715.28	278.69
715.61	277.77
715.95	276.90
716.28	275.97
716.61	275.20
716.95	274.37
717.28	273.55
717.61	272.76
717.94	271.99
718.28	271.12
718.61	270.45
718.94	269.75
719.27	268.97
719.61	268.14
719.94	267.42
720.27	266.60
720.60	265.86
720.94	265.09
721.27	264.42
721.60	263.90
721.93	263.30
722.27	262.77
722.60	262.14
722.93	261.54
723.26	261.03
723.59	260.44
723.93	259.80
724.26	259.19
724.59	258.59
724.92	258.06
725.25	257.51
725.59	256.96
725.92	256.33
726.25	255.86
726.58	255.38
726.91	254.90
727.24	254.51
727.57	254.10
727.91	253.59
728.24	253.04
728.57	252.50
728.90	252.02
729.23	251.45
729.56	251.15
729.89	250.67
730.22	250.20
730.55	249.74
730.89	249.33
731.22	248.80
731.55	248.33
731.88	247.89
732.21	247.48
732.54	247.05
732.87	246.68
733.20	246.19
733.53	245.85
733.86	245.38
734.19	244.89
734.52	244.52
734.85	244.32
735.18	243.93
735.51	243.61
735.84	243.23
736.17	242.94
736.50	242.44
736.83	242.27
737.16	241.96
737.49	241.55
737.82	241.20
738.15	240.94
738.48	240.59
738.81	240.25
739.14	239.90
739.47	239.49
739.80	239.15
740.13	238.89
740.46	238.48
740.79	238.14
741.12	237.87
741.45	237.48
741.78	237.06
742.11	236.89
742.44	236.56
742.77	236.34
743.10	236.07
743.43	235.81
743.75	235.35
744.08	235.29
744.41	235.03
744.74	234.79
745.07	234.47
745.40	234.30
745.73	234.10
746.06	233.80
746.39	233.54
746.71	233.29
747.04	233.00
747.37	232.80
747.70	232.54
748.03	232.33
748.36	232.14
748.68	231.87
749.01	231.54
749.34	231.26
749.67	230.99
750.00	230.76
750.33	230.61
750.65	230.43
750.98	230.02
751.31	229.85
751.64	229.64
751.97	229.50
752.29	229.25
752.62	228.95
752.95	228.69
753.28	228.46
753.60	228.30
753.93	228.19
754.26	227.95
754.59	227.74
754.91	227.50
755.24	227.22
755.57	227.04
755.90	226.81
756.22	226.64
756.55	226.41
756.88	226.17
757.20	225.92
757.53	225.61
757.86	225.41
758.19	225.25
758.51	225.05
758.84	224.82
759.17	224.60
759.49	224.45
759.82	224.39
760.15	224.32
760.47	224.08
760.80	223.85
761.13	223.72
761.45	223.55
761.78	223.38
762.11	223.23
762.43	223.10
762.76	223.00
763.08	222.80
763.41	222.70
763.74	222.59
764.06	222.39
764.39	222.29
764.71	222.12
765.04	221.84
765.37	221.65
765.69	221.54
766.02	221.35
766.34	221.19
766.67	220.96
767.00	220.81
767.32	220.79
767.65	220.72
767.97	220.56
768.30	220.48
768.62	220.34
768.95	220.24
769.27	220.14
769.60	220.03
769.92	219.94
770.25	219.81
770.57	219.67
770.90	219.61
771.22	219.50
771.55	219.46
771.87	219.47
772.20	219.40
772.52	219.42
772.85	219.64
773.17	219.56
773.50	219.40
773.82	219.36
774.15	219.13
774.47	218.96
774.80	218.88
775.12	218.73
775.45	218.71
775.77	218.67
776.09	218.57
776.42	218.44
776.74	218.44
777.07	218.37
777.39	218.27
777.72	218.18
778.04	218.05
778.36	217.93
778.69	217.86
779.01	217.82
779.33	217.62
779.66	217.35
779.98	217.32
780.31	217.32
780.63	217.26
780.95	217.28
781.28	217.26
781.60	217.15
781.92	217.20
782.25	217.12
782.57	217.05
782.89	217.03
783.22	216.99
783.54	216.90
783.86	216.83
784.19	216.78
784.51	216.78
784.83	216.79
785.16	216.72
785.48	216.64
785.80	216.55
786.12	216.53
786.45	216.44
786.77	216.43
787.09	216.32
787.42	216.22
787.74	216.12
788.06	215.99
788.38	215.95
788.71	215.80
789.03	215.68
789.35	215.64
789.67	215.48
789.99	215.46
790.32	215.35
790.64	215.22
790.96	215.34
791.28	215.19
791.61	215.11
791.93	215.07
792.25	215.03
792.57	215.16
792.89	215.09
793.21	215.12
793.54	215.02
793.86	215.04
794.18	214.95
794.50	214.91
794.82	214.92
795.14	214.91
795.47	214.94
795.79	214.96
796.11	214.90
796.43	214.85
796.75	214.83
797.07	214.81
797.39	214.85
797.71	214.60
798.04	214.57
798.36	214.61
798.68	214.56
799.00	214.48
799.32	214.33
799.64	214.34
799.96	214.25
800.28	214.23
800.60	214.19
800.92	214.22
801.24	214.14
801.56	214.08
801.89	214.07
802.21	214.03
802.53	213.93
802.85	213.93
803.17	214.01
803.49	213.91
803.81	213.85
804.13	213.90
804.45	213.89
804.77	213.88
805.09	213.74
805.41	213.73
805.73	213.76
806.05	213.76
806.37	213.73
806.69	213.70
807.01	213.73
807.33	213.72
807.65	213.65
807.97	213.71
808.28	213.68
808.60	213.55
808.92	213.48
809.24	213.59
809.56	213.58
809.88	213.46
810.20	213.43
810.52	213.49
810.84	213.36
811.16	213.35
811.48	213.38
811.80	213.46
812.12	213.49
812.43	213.47
812.75	213.41
813.07	213.27
813.39	213.22
813.71	213.11
814.03	213.10
814.35	213.03
814.67	212.96
814.98	212.95
815.30	212.99
815.62	213.05
815.94	212.94
816.26	212.87
816.58	212.89
816.89	212.93
817.21	212.86
817.53	212.83
817.85	212.89
818.17	212.80
818.48	212.70
818.80	212.70
819.12	212.69
819.44	212.65
819.76	212.68
820.07	212.62
820.39	212.59
820.71	212.55
821.03	212.59
821.34	212.58
821.66	212.61
821.98	212.67
822.30	212.57
822.61	212.66
822.93	212.72
823.25	212.72
823.57	212.64
823.88	212.64
824.20	212.68
824.52	212.68
824.83	212.67
825.15	212.62
825.47	212.54
825.79	212.50
826.10	212.46
826.42	212.44
826.74	212.56
827.05	212.56
827.37	212.59
827.69	212.59
828.00	212.56
828.32	212.55
828.64	212.42
828.95	212.55
829.27	212.45
829.58	212.40
829.90	212.38
830.22	212.42
830.53	212.39
830.85	212.35
831.17	212.23
831.48	212.28
831.80	212.33
832.11	212.37
832.43	212.30
832.75	212.36
833.06	212.51
833.38	212.39
833.69	212.42
834.01	212.41
834.32	212.40
834.64	212.38
834.96	212.36
835.27	212.42
835.59	212.31
835.90	212.28
836.22	212.19
836.53	212.13
836.85	212.17
837.16	212.31
837.48	212.30
837.79	212.46
838.11	212.38
838.42	212.39
838.74	212.44
839.05	212.44
839.37	212.42
839.68	212.25
840.00	212.27
840.31	212.20
840.63	212.18
840.94	212.15
841.26	212.20
841.57	212.22
841.88	212.19
842.20	212.14
842.51	212.14
842.83	212.24
843.14	212.50
843.46	212.44
843.77	212.35
844.08	212.31
844.40	212.18
844.71	212.16
845.03	212.09
845.34	212.00
845.65	211.98
845.97	211.95
846.28	212.02
846.60	211.99
846.91	212.03
847.22	212.04
847.54	212.05
847.85	212.00
848.16	211.96
848.48	211.98
848.79	212.09
849.10	212.09
849.42	212.01
849.73	211.77
850.04	211.72
850.36	211.71
850.67	211.80
850.98	211.71
851.30	211.72
851.61	211.68
851.92	211.69
852.23	211.75
852.55	211.72
852.86	211.64
853.17	211.72
853.49	211.65
853.80	211.58
854.11	211.63
854.42	211.61
854.74	211.52
855.05	211.52
855.36	211.35
855.67	211.41
855.99	211.39
856.30	211.58
856.61	211.56
856.92	211.51
857.23	211.44
857.55	211.50
857.86	211.53
858.17	211.65
858.48	211.64
858.79	211.57
859.11	211.60
859.42	211.62
859.73	211.55
860.04	211.60
860.35	211.69
860.66	211.55
860.98	211.60
861.29	211.66
861.60	211.57
861.91	211.68
862.22	211.63
862.53	211.67
862.84	211.50
863.16	211.55
863.47	211.42
863.78	211.44
864.09	211.42
864.40	211.41
864.71	211.34
865.02	211.35
865.33	211.40
865.64	211.37
865.95	211.31
866.27	211.42
866.58	211.31
866.89	211.29
867.20	211.40
867.51	211.27
867.82	211.29
868.13	211.41
868.44	211.38
868.75	211.35
869.06	211.31
869.37	211.31
869.68	211.34
869.99	211.45
870.30	211.49
870.61	211.50
870.92	211.47
871.23	211.51
871.54	211.54
871.85	211.53
872.16	211.50
872.47	211.51
872.78	211.45
873.09	211.51
873.40	211.52
873.71	211.51
874.02	211.61
874.33	211.60
874.64	211.52
874.95	211.50
875.26	211.50
875.56	211.50
875.87	211.48
876.18	211.39
876.49	211.56
876.80	211.55
877.11	211.56
877.42	211.57
877.73	211.56
878.04	211.51
878.35	211.55
878.66	211.59
878.96	211.59
879.27	211.54
879.58	211.47
879.89	211.43
880.20	211.40
880.51	211.38
880.82	211.38
881.12	211.36
881.43	211.37
881.74	211.31
882.05	211.32
882.36	211.32
882.67	211.32
882.97	211.12
883.28	211.10
883.59	211.05
883.90	211.06
884.21	211.05
884.51	210.95
884.82	210.92
885.13	210.95
885.44	211.02
885.74	211.01
886.05	211.05
886.36	211.08
886.67	211.05
886.98	211.10
887.28	211.10
887.59	211.09
887.90	211.07
888.20	211.07
888.51	211.09
888.82	211.08
889.13	211.10
889.43	211.26
889.74	211.18
890.05	211.18
890.35	211.17
890.66	211.17
890.97	211.25
891.28	211.21
891.58	211.16
891.89	211.10
892.20	211.07
892.50	211.06
892.81	210.99
893.12	211.02
893.42	210.99
893.73	210.99
894.04	211.03
894.34	211.09
894.65	211.04
894.95	211.02
895.26	211.04
895.57	211.08
895.87	210.91
896.18	210.98
896.48	211.02
896.79	211.01
897.10	211.06
897.40	211.09
897.71	211.13
898.01	211.19
898.32	211.18
898.63	211.17
898.93	211.27
899.24	211.28
899.54	211.22
899.85	211.24
900.15	211.20
900.46	211.21
900.76	211.17
901.07	211.24
901.38	211.25
901.68	211.28
901.99	211.25
902.29	211.27
902.60	211.33
902.90	211.25
903.21	211.27
903.51	211.23
903.82	211.25
904.12	211.23
904.43	211.16
904.73	211.21
905.03	211.29
905.34	211.40
905.64	211.43
905.95	211.40
906.25	211.37
906.56	211.44
906.86	211.45
907.17	211.44
907.47	211.48
907.77	211.50
908.08	211.47
908.38	211.48
908.69	211.47
908.99	211.49
909.30	211.50
909.60	211.48
909.90	211.48
910.21	211.42
910.51	211.41
910.81	211.43
911.12	211.45
911.42	211.41
911.73	211.24
912.03	211.27
912.33	211.33
912.64	211.42
912.94	211.35
913.24	211.26
913.55	211.25
913.85	211.21
914.15	211.18
914.46	211.22
914.76	211.19
915.06	211.20
915.37	211.15
915.67	211.22
915.97	211.22
916.27	211.19
916.58	211.22
916.88	211.26
917.18	211.24
917.49	211.35
917.79	211.35
918.09	211.35
918.39	211.42
918.70	211.44
919.00	211.33
919.30	211.41
919.60	211.50
919.91	211.51
920.21	211.58
920.51	211.51
920.81	211.46
921.12	211.57
921.42	211.61
921.72	211.50
922.02	211.43
922.32	211.46
922.63	211.50
922.93	211.56
923.23	211.51
923.53	211.45
923.83	211.29
924.13	211.34
924.44	211.34
924.74	211.26
925.04	211.26
925.34	211.31
925.64	211.32
925.94	211.20
926.24	211.27
926.55	211.20
926.85	211.30
927.15	211.25
927.45	211.17
927.75	211.11
928.05	211.18
928.35	211.19
928.65	211.20
928.95	211.22
929.26	211.22
929.56	211.27
929.86	211.37
930.16	211.44
930.46	211.40
930.76	211.40
931.06	211.30
931.36	211.27
931.66	211.28
931.96	211.30
932.26	211.36
932.56	211.30
932.86	211.36
933.16	211.34
933.46	211.37
933.76	211.33
934.06	211.41
934.36	211.46
934.66	211.49
934.96	211.46
935.26	211.40
935.56	211.36
935.86	211.27
936.16	211.19
936.46	211.05
936.76	211.05
937.06	211.00
937.36	211.05
937.66	211.06
937.96	211.05
938.26	210.96
938.56	210.95
938.86	210.95
939.16	210.97
939.46	210.98
939.76	210.97
940.06	210.94
940.35	210.86
940.65	210.76
940.95	210.75
941.25	210.74
941.55	210.77
941.85	210.77
942.15	210.82
942.45	210.84
942.75	210.94
943.04	210.92
943.34	210.94
943.64	210.93
943.94	210.94
944.24	210.92
944.54	210.90
944.84	210.85
945.13	210.86
945.43	210.75
945.73	210.71
946.03	210.68
946.33	210.72
946.62	210.69
946.92	210.70
947.22	210.78
947.52	210.83
947.82	210.83
948.11	210.84
948.41	210.76
948.71	210.80
949.01	210.73
949.31	210.73
949.60	210.82
949.90	210.88
950.20	210.87
950.50	210.91
950.79	210.93
951.09	211.03
951.39	210.98
951.69	211.04
951.98	211.17
952.28	211.24
952.58	211.23
952.87	211.20
953.17	211.29
953.47	211.22
953.76	211.22
954.06	211.20
954.36	211.14
954.66	211.21
954.95	211.22
955.25	211.33
955.55	211.34
955.84	211.25
956.14	211.21
956.44	211.18
956.73	211.18
957.03	211.23
957.32	211.10
957.62	211.11
957.92	211.17
958.21	211.10
958.51	211.29
958.81	211.28
959.10	211.35
959.40	211.38
959.69	211.35
959.99	211.33
960.29	211.39
960.58	211.39
960.88	211.42
961.17	211.34
961.47	211.35
961.76	211.31
962.06	211.39
962.36	211.43
962.65	211.47
962.95	211.40
963.24	211.34
963.54	211.48
963.83	211.51
964.13	211.51
964.42	211.48
964.72	211.32
965.01	211.35
965.31	211.33
965.60	211.29
965.90	211.47
966.19	211.41
966.49	211.44
966.78	211.39
967.08	211.40
967.37	211.45
967.67	211.38
967.96	211.39
968.26	211.33
968.55	211.34
968.85	211.27
969.14	211.23
969.43	211.27
969.73	211.26
970.02	211.22
970.32	211.12
970.61	211.09
970.91	211.05
971.20	211.08
971.49	211.09
971.79	211.00
972.08	210.85
972.38	210.89
972.67	210.81
972.96	210.91
973.26	210.90
973.55	210.97
973.85	210.99
974.14	210.99
974.43	211.06
974.73	211.04
975.02	211.00
975.31	211.04
975.61	211.00
975.90	210.92
976.19	210.93
976.49	210.96
976.78	210.94
977.07	210.88
977.37	210.87
977.66	210.85
977.95	210.82
978.24	210.80
978.54	210.81
978.83	210.80
979.12	210.78
979.42	210.76
979.71	210.70
980.00	210.67
980.29	210.69
980.59	210.59
980.88	210.61
981.17	210.64
981.46	210.63
981.76	210.66
982.05	210.78
982.34	210.73
982.63	210.72
982.93	210.70
983.22	210.78
983.51	210.72
983.80	210.73
984.09	210.78
984.39	210.78
984.68	210.76
984.97	210.71
985.26	210.64
985.55	210.65
985.85	210.60
986.14	210.64
986.43	210.69
986.72	210.71
987.01	210.69
987.30	210.69
987.59	210.68
987.89	210.61
988.18	210.43
988.47	210.50
988.76	210.45
989.05	210.47
989.34	210.46
989.63	210.57
989.92	210.55
990.22	210.52
990.51	210.49
990.80	210.52
991.09	210.56
991.38	210.58
991.67	210.56
991.96	210.55
992.25	210.52
992.54	210.44
992.83	210.49
993.12	210.45
993.41	210.50
993.70	210.66
993.99	210.70
994.28	210.80
994.58	210.78
994.87	210.83
995.16	210.81
995.45	210.80
995.74	210.70
996.03	210.72
996.32	210.85
996.61	210.93
996.90	210.87
997.19	210.92
997.48	210.94
997.77	210.90
998.06	210.91
998.34	210.90
998.63	210.89
998.92	210.81
999.21	210.85
999.50	210.85
999.79	210.71
1000.08	210.72
1000.37	210.73
1000.66	210.72
1000.95	210.78
1001.24	210.83
1001.53	210.82
1001.82	210.84
1002.11	210.87
1002.40	210.88
1002.68	210.88
1002.97	211.00
1003.26	211.00
1003.55	211.01
1003.84	211.08
1004.13	211.13
1004.42	211.12
1004.71	211.07
1004.99	211.08
1005.28	211.12
1005.57	211.15
1005.86	211.16
1006.15	211.15
1006.44	211.11
1006.72	211.13
1007.01	211.06
1007.30	211.03
1007.59	211.06
1007.88	211.12
1008.17	211.10
1008.45	211.00
1008.74	210.93
1009.03	210.87
1009.32	210.81
1009.60	210.82
1009.89	210.78
1010.18	210.79
1010.47	210.85
1010.76	210.91
1011.04	210.95
1011.33	210.90
1011.62	210.83
1011.91	210.81
1012.19	210.79
1012.48	210.78
1012.77	210.78
1013.05	210.82
1013.34	210.83
1013.63	210.82
1013.92	210.78
1014.20	210.71
1014.49	210.73
1014.78	210.76
1015.06	210.66
1015.35	210.68
1015.64	210.60
1015.92	210.67
1016.21	210.62
1016.50	210.58
1016.78	210.51
1017.07	210.54
1017.36	210.48
1017.64	210.46
1017.93	210.46
1018.22	210.47
1018.50	210.50
1018.79	210.50
1019.08	210.48
1019.36	210.49
1019.65	210.47
1019.93	210.50
1020.22	210.52
1020.51	210.65
1020.79	210.60
1021.08	210.40
1021.36	210.60
1021.65	210.75
1021.94	211.05
1022.22	210.70
1022.51	211.00
1022.79	211.50
1023.08	210.15
1023.36	213.70
1023.65	209.60
>>>>>End Processed Spectral Data<<<<<
