SpectraSuite Data File
++++++++++++++++++++++++++++++++++++
Date: Mon Feb 25 17:35:41 EST 2013
User: group
Dark Spectrum Present: No
Reference Spectrum Present: No
Number of Sampled Component Spectra: 1
Spectrometers: USB2E7196
Integration Time (usec): 52000 (USB2E7196)
Spectra Averaged: 20 (USB2E7196)
Boxcar Smoothing: 10 (USB2E7196)
Correct for Electrical Dark: No (USB2E7196)
Strobe/Lamp Enabled: No (USB2E7196)
Correct for Detector Non-linearity: No (USB2E7196)
Correct for Stray Light: No (USB2E7196)
Number of Pixels in Processed Spectrum: 2048
>>>>>Begin Processed Spectral Data<<<<<
339.09	0.00
339.48	198.80
339.86	200.05
340.24	201.25
340.63	203.50
341.01	207.45
341.39	205.05
341.78	206.75
342.16	208.45
342.54	210.00
342.93	198.21
343.31	208.20
343.69	208.76
344.07	209.20
344.46	209.65
344.84	209.97
345.22	210.17
345.60	210.43
345.99	210.66
346.37	210.78
346.75	210.81
347.13	210.90
347.52	210.91
347.90	211.11
348.28	211.12
348.66	211.12
349.05	211.09
349.43	211.15
349.81	211.18
350.19	211.15
350.57	211.23
350.96	211.30
351.34	211.41
351.72	211.51
352.10	211.66
352.48	211.71
352.87	211.79
353.25	211.84
353.63	211.88
354.01	211.96
354.39	212.04
354.77	212.16
355.15	212.31
355.54	212.35
355.92	212.21
356.30	212.33
356.68	212.55
357.06	212.62
357.44	212.65
357.82	212.71
358.20	212.81
358.58	212.92
358.97	212.95
359.35	213.06
359.73	213.16
360.11	213.19
360.49	213.21
360.87	213.32
361.25	213.45
361.63	213.55
362.01	213.57
362.39	213.65
362.77	213.69
363.15	213.68
363.53	213.79
363.91	213.93
364.29	213.89
364.67	213.80
365.05	213.82
365.43	213.96
365.81	214.09
366.19	214.19
366.57	214.20
366.95	214.19
367.33	214.17
367.71	214.24
368.09	214.31
368.47	214.40
368.85	214.37
369.23	214.34
369.61	214.32
369.99	214.39
370.37	214.45
370.75	214.46
371.13	214.39
371.51	214.29
371.89	214.35
372.27	214.44
372.65	214.41
373.03	214.42
373.41	214.29
373.78	214.24
374.16	214.06
374.54	214.03
374.92	214.00
375.30	213.99
375.68	213.85
376.06	213.79
376.44	213.70
376.82	213.67
377.19	213.58
377.57	213.58
377.95	213.46
378.33	213.37
378.71	213.30
379.09	213.28
379.47	213.30
379.84	213.17
380.22	213.06
380.60	212.96
380.98	212.91
381.36	212.93
381.73	212.84
382.11	212.87
382.49	212.79
382.87	212.73
383.25	212.67
383.62	212.82
384.00	212.81
384.38	212.82
384.76	212.81
385.13	212.82
385.51	212.76
385.89	212.63
386.27	212.50
386.64	212.43
387.02	212.41
387.40	212.33
387.78	212.29
388.15	212.29
388.53	212.25
388.91	212.15
389.29	212.06
389.66	212.03
390.04	211.99
390.42	212.05
390.79	212.07
391.17	211.98
391.55	211.75
391.92	211.71
392.30	211.70
392.68	211.66
393.05	211.70
393.43	211.64
393.81	211.74
394.18	211.82
394.56	211.82
394.94	211.87
395.31	211.83
395.69	211.91
396.06	211.90
396.44	211.95
396.82	211.95
397.19	212.03
397.57	212.04
397.95	212.04
398.32	211.90
398.70	211.90
399.07	212.02
399.45	212.01
399.82	211.93
400.20	211.88
400.58	211.89
400.95	211.84
401.33	211.96
401.70	212.10
402.08	212.05
402.45	212.10
402.83	212.14
403.20	212.27
403.58	212.25
403.95	212.41
404.33	212.42
404.71	212.59
405.08	212.72
405.46	212.80
405.83	212.95
406.21	213.17
406.58	213.30
406.96	213.36
407.33	213.58
407.70	213.88
408.08	214.25
408.45	214.46
408.83	214.68
409.20	214.87
409.58	215.04
409.95	215.34
410.33	215.64
410.70	215.89
411.08	216.20
411.45	216.57
411.82	216.85
412.20	217.36
412.57	217.91
412.95	218.28
413.32	218.79
413.69	219.27
414.07	219.76
414.44	220.43
414.82	221.15
415.19	221.83
415.56	222.54
415.94	223.30
416.31	224.21
416.68	225.12
417.06	226.12
417.43	227.04
417.81	228.22
418.18	229.38
418.55	230.63
418.93	231.97
419.30	233.33
419.67	234.76
420.04	236.21
420.42	237.66
420.79	239.47
421.16	241.28
421.54	243.17
421.91	245.08
422.28	246.96
422.66	248.99
423.03	251.06
423.40	253.24
423.77	255.43
424.15	257.63
424.52	259.99
424.89	262.55
425.26	265.01
425.64	267.28
426.01	269.90
426.38	272.58
426.75	275.32
427.13	278.15
427.50	281.13
427.87	284.13
428.24	287.25
428.61	290.18
428.99	293.51
429.36	297.05
429.73	300.54
430.10	304.00
430.47	307.53
430.85	311.21
431.22	315.17
431.59	319.38
431.96	323.31
432.33	327.61
432.70	331.79
433.08	336.87
433.45	341.60
433.82	346.12
434.19	351.26
434.56	356.35
434.93	361.09
435.30	365.85
435.68	371.18
436.05	376.37
436.42	381.52
436.79	386.12
437.16	391.20
437.53	396.56
437.90	401.99
438.27	407.21
438.64	412.64
439.01	417.60
439.38	422.00
439.75	426.35
440.13	431.39
440.50	435.98
440.87	439.69
441.24	443.63
441.61	448.11
441.98	451.26
442.35	454.92
442.72	458.66
443.09	462.25
443.46	464.40
443.83	465.85
444.20	467.05
444.57	468.91
444.94	469.68
445.31	470.47
445.68	471.25
446.05	471.59
446.42	470.92
446.79	470.06
447.16	469.19
447.53	468.57
447.90	466.35
448.27	464.36
448.64	461.37
449.01	459.23
449.37	455.45
449.74	451.90
450.11	447.60
450.48	443.08
450.85	438.45
451.22	434.36
451.59	430.51
451.96	426.87
452.33	422.07
452.70	417.68
453.07	412.54
453.43	407.17
453.80	402.05
454.17	397.18
454.54	392.63
454.91	387.73
455.28	382.96
455.65	378.52
456.02	374.07
456.38	370.35
456.75	365.61
457.12	361.72
457.49	357.84
457.86	354.07
458.23	350.84
458.59	347.27
458.96	343.85
459.33	340.74
459.70	337.58
460.07	335.07
460.43	332.18
460.80	329.49
461.17	327.08
461.54	324.59
461.91	322.32
462.27	319.92
462.64	317.91
463.01	315.69
463.38	313.52
463.74	311.27
464.11	309.38
464.48	307.79
464.85	305.98
465.21	304.60
465.58	303.19
465.95	301.42
466.32	299.99
466.68	298.55
467.05	297.08
467.42	295.69
467.78	294.10
468.15	292.70
468.52	291.72
468.88	290.49
469.25	289.36
469.62	288.44
469.98	287.45
470.35	286.52
470.72	285.55
471.08	284.67
471.45	284.00
471.82	283.18
472.18	282.29
472.55	281.78
472.92	281.04
473.28	280.45
473.65	279.81
474.02	279.33
474.38	278.80
474.75	278.47
475.11	278.09
475.48	277.86
475.85	277.63
476.21	277.32
476.58	277.17
476.94	277.12
477.31	276.98
477.67	276.97
478.04	276.97
478.41	277.14
478.77	277.50
479.14	277.51
479.50	277.86
479.87	278.23
480.23	278.51
480.60	278.96
480.96	279.33
481.33	279.96
481.69	280.51
482.06	281.20
482.42	281.88
482.79	282.59
483.15	283.42
483.52	284.37
483.88	285.27
484.25	286.12
484.61	286.99
484.98	288.03
485.34	289.21
485.71	290.53
486.07	291.87
486.44	293.10
486.80	294.57
487.17	296.05
487.53	297.71
487.90	299.51
488.26	301.38
488.62	303.36
488.99	305.40
489.35	307.47
489.72	309.80
490.08	312.06
490.44	314.48
490.81	317.14
491.17	319.82
491.54	322.74
491.90	325.87
492.26	329.21
492.63	332.53
492.99	336.14
493.36	339.84
493.72	343.73
494.08	347.77
494.45	352.10
494.81	356.68
495.17	361.27
495.54	366.14
495.90	371.26
496.26	376.62
496.63	382.12
496.99	387.97
497.35	393.81
497.72	400.27
498.08	406.70
498.44	413.52
498.80	420.77
499.17	428.14
499.53	435.79
499.89	443.77
500.26	451.92
500.62	460.17
500.98	468.94
501.34	478.10
501.71	487.44
502.07	497.18
502.43	507.26
502.79	517.59
503.16	528.21
503.52	539.19
503.88	550.44
504.24	562.24
504.60	574.19
504.97	586.56
505.33	599.06
505.69	612.51
506.05	626.03
506.41	639.65
506.78	653.61
507.14	667.76
507.50	682.38
507.86	697.54
508.22	712.86
508.59	728.41
508.95	744.51
509.31	760.92
509.67	777.65
510.03	794.58
510.39	812.29
510.75	830.24
511.12	848.36
511.48	866.76
511.84	885.35
512.20	903.94
512.56	923.42
512.92	943.04
513.28	962.67
513.64	982.78
514.00	1002.99
514.37	1023.30
514.73	1044.19
515.09	1065.04
515.45	1086.11
515.81	1107.58
516.17	1129.18
516.53	1150.65
516.89	1172.30
517.25	1193.99
517.61	1215.49
517.97	1237.03
518.33	1258.64
518.69	1280.69
519.05	1303.13
519.41	1325.47
519.77	1348.33
520.13	1370.52
520.49	1392.76
520.85	1415.73
521.21	1438.02
521.57	1460.93
521.93	1483.32
522.29	1506.34
522.65	1529.09
523.01	1551.71
523.37	1574.10
523.73	1596.28
524.09	1618.67
524.45	1641.23
524.81	1664.14
525.17	1687.09
525.53	1709.76
525.89	1732.35
526.25	1754.18
526.61	1775.74
526.97	1797.37
527.33	1819.16
527.68	1840.84
528.04	1862.50
528.40	1882.90
528.76	1903.83
529.12	1925.00
529.48	1946.80
529.84	1967.51
530.20	1987.97
530.56	2008.48
530.91	2029.48
531.27	2050.45
531.63	2070.54
531.99	2090.56
532.35	2109.44
532.71	2128.76
533.07	2148.42
533.42	2167.29
533.78	2186.75
534.14	2205.34
534.50	2222.88
534.86	2240.86
535.21	2257.84
535.57	2275.92
535.93	2293.56
536.29	2310.74
536.65	2327.38
537.00	2342.83
537.36	2358.25
537.72	2373.95
538.08	2389.58
538.44	2404.56
538.79	2419.75
539.15	2434.80
539.51	2449.53
539.87	2465.01
540.22	2479.25
540.58	2494.43
540.94	2508.99
541.29	2521.65
541.65	2533.80
542.01	2546.83
542.37	2558.81
542.72	2571.41
543.08	2582.04
543.44	2593.82
543.79	2604.06
544.15	2614.40
544.51	2625.69
544.87	2636.96
545.22	2646.35
545.58	2655.10
545.94	2662.83
546.29	2669.57
546.65	2675.94
547.01	2682.30
547.36	2688.46
547.72	2694.76
548.07	2698.84
548.43	2703.07
548.79	2707.64
549.14	2713.16
549.50	2718.38
549.86	2722.75
550.21	2727.04
550.57	2731.61
550.92	2734.58
551.28	2737.90
551.64	2740.62
551.99	2743.39
552.35	2745.15
552.70	2748.04
553.06	2751.13
553.41	2754.64
553.77	2757.78
554.13	2760.70
554.48	2763.18
554.84	2764.75
555.19	2765.48
555.55	2765.92
555.90	2766.65
556.26	2767.28
556.61	2767.15
556.97	2766.06
557.32	2765.69
557.68	2764.02
558.03	2762.70
558.39	2761.30
558.74	2760.99
559.10	2760.15
559.45	2758.52
559.81	2757.86
560.16	2755.61
560.52	2752.95
560.87	2749.88
561.23	2746.51
561.58	2744.23
561.94	2740.84
562.29	2737.26
562.64	2734.93
563.00	2732.95
563.35	2730.58
563.71	2728.66
564.06	2726.40
564.42	2724.60
564.77	2722.54
565.12	2720.74
565.48	2717.69
565.83	2714.88
566.19	2711.53
566.54	2707.17
566.89	2703.24
567.25	2698.91
567.60	2695.37
567.96	2691.96
568.31	2688.50
568.66	2684.85
569.02	2680.32
569.37	2675.79
569.72	2672.15
570.08	2666.97
570.43	2661.42
570.78	2655.60
571.14	2649.51
571.49	2642.86
571.84	2636.78
572.20	2629.30
572.55	2622.78
572.90	2616.21
573.26	2608.94
573.61	2601.79
573.96	2595.28
574.31	2587.11
574.67	2578.97
575.02	2570.82
575.37	2561.76
575.72	2552.49
576.08	2544.73
576.43	2535.95
576.78	2527.76
577.13	2519.14
577.49	2510.78
577.84	2502.88
578.19	2495.39
578.54	2487.80
578.90	2480.99
579.25	2472.42
579.60	2463.63
579.95	2454.30
580.30	2445.79
580.66	2437.42
581.01	2428.35
581.36	2419.02
581.71	2410.94
582.06	2402.32
582.42	2393.62
582.77	2384.60
583.12	2375.70
583.47	2366.47
583.82	2358.00
584.17	2348.50
584.53	2339.22
584.88	2330.26
585.23	2320.85
585.58	2310.96
585.93	2301.21
586.28	2291.54
586.63	2282.48
586.98	2273.92
587.34	2265.07
587.69	2255.75
588.04	2246.94
588.39	2238.33
588.74	2229.18
589.09	2220.36
589.44	2210.80
589.79	2202.17
590.14	2194.25
590.49	2185.79
590.84	2176.85
591.19	2168.19
591.54	2159.38
591.89	2149.38
592.25	2140.13
592.60	2130.40
592.95	2121.14
593.30	2111.55
593.65	2101.77
594.00	2091.82
594.35	2083.44
594.70	2074.42
595.05	2066.06
595.40	2057.01
595.75	2047.51
596.10	2039.13
596.45	2030.35
596.80	2022.39
597.15	2013.75
597.50	2004.65
597.85	1996.34
598.19	1987.70
598.54	1979.23
598.89	1971.24
599.24	1964.68
599.59	1957.13
599.94	1950.00
600.29	1941.95
600.64	1933.63
600.99	1925.32
601.34	1918.01
601.69	1908.88
602.04	1900.56
602.39	1891.92
602.74	1884.02
603.08	1876.97
603.43	1869.81
603.78	1861.75
604.13	1853.46
604.48	1845.50
604.83	1838.36
605.18	1830.87
605.53	1822.99
605.87	1815.06
606.22	1807.68
606.57	1799.12
606.92	1790.50
607.27	1781.93
607.62	1774.13
607.96	1767.45
608.31	1760.82
608.66	1752.51
609.01	1745.05
609.36	1737.11
609.70	1728.88
610.05	1720.92
610.40	1712.52
610.75	1703.40
611.10	1695.18
611.44	1685.89
611.79	1676.62
612.14	1667.15
612.49	1657.44
612.83	1648.45
613.18	1638.68
613.53	1629.24
613.88	1619.71
614.22	1611.10
614.57	1602.02
614.92	1592.98
615.27	1583.29
615.61	1573.30
615.96	1564.32
616.31	1555.75
616.65	1548.05
617.00	1539.80
617.35	1531.10
617.70	1522.09
618.04	1513.10
618.39	1503.98
618.74	1495.60
619.08	1486.93
619.43	1478.55
619.78	1470.73
620.12	1462.54
620.47	1454.78
620.82	1446.29
621.16	1438.10
621.51	1429.45
621.85	1421.04
622.20	1412.36
622.55	1404.02
622.89	1395.95
623.24	1388.17
623.59	1379.42
623.93	1370.45
624.28	1362.10
624.62	1353.83
624.97	1345.55
625.32	1337.89
625.66	1330.19
626.01	1322.96
626.35	1315.78
626.70	1308.00
627.04	1300.40
627.39	1292.99
627.73	1285.18
628.08	1278.33
628.43	1270.57
628.77	1263.16
629.12	1255.78
629.46	1249.11
629.81	1241.63
630.15	1234.01
630.50	1226.46
630.84	1219.16
631.19	1212.06
631.53	1205.09
631.88	1197.48
632.22	1190.10
632.57	1183.02
632.91	1175.69
633.26	1168.04
633.60	1160.85
633.95	1154.21
634.29	1146.92
634.64	1139.94
634.98	1133.02
635.32	1125.69
635.67	1119.27
636.01	1112.68
636.36	1105.99
636.70	1099.09
637.05	1092.50
637.39	1086.28
637.73	1079.93
638.08	1074.09
638.42	1068.22
638.77	1061.74
639.11	1055.25
639.45	1049.13
639.80	1042.25
640.14	1035.89
640.49	1029.59
640.83	1022.95
641.17	1016.27
641.52	1010.00
641.86	1003.42
642.20	997.14
642.55	990.51
642.89	983.89
643.23	977.40
643.58	971.28
643.92	964.79
644.26	958.59
644.61	952.46
644.95	946.38
645.29	939.85
645.64	932.96
645.98	926.61
646.32	920.79
646.66	914.46
647.01	908.59
647.35	902.67
647.69	896.40
648.04	890.55
648.38	884.60
648.72	878.67
649.06	872.36
649.41	866.33
649.75	860.32
650.09	854.48
650.43	848.32
650.78	842.10
651.12	836.10
651.46	830.30
651.80	824.35
652.14	818.18
652.49	812.23
652.83	806.51
653.17	800.37
653.51	794.40
653.85	788.66
654.20	782.80
654.54	776.91
654.88	771.40
655.22	765.63
655.56	759.49
655.90	753.37
656.25	747.82
656.59	742.17
656.93	737.03
657.27	731.95
657.61	726.58
657.95	721.49
658.29	716.35
658.64	711.10
658.98	705.76
659.32	700.46
659.66	695.27
660.00	689.72
660.34	684.58
660.68	679.35
661.02	674.17
661.36	669.35
661.70	664.38
662.05	659.71
662.39	655.12
662.73	650.72
663.07	646.58
663.41	642.26
663.75	637.69
664.09	632.92
664.43	628.03
664.77	623.53
665.11	618.81
665.45	614.29
665.79	609.82
666.13	605.39
666.47	601.08
666.81	596.98
667.15	593.03
667.49	589.01
667.83	585.17
668.17	581.35
668.51	577.65
668.85	573.87
669.19	569.93
669.53	565.95
669.87	561.96
670.21	557.89
670.55	553.92
670.89	550.46
671.23	547.07
671.57	543.47
671.91	539.97
672.25	536.55
672.58	533.05
672.92	529.55
673.26	526.35
673.60	522.89
673.94	519.41
674.28	516.10
674.62	512.96
674.96	509.64
675.30	506.47
675.64	503.06
675.97	499.71
676.31	496.68
676.65	493.77
676.99	491.08
677.33	488.15
677.67	485.12
678.01	482.00
678.34	478.88
678.68	475.87
679.02	472.83
679.36	469.96
679.70	467.20
680.04	464.20
680.37	461.15
680.71	458.47
681.05	455.75
681.39	453.04
681.73	450.27
682.06	447.76
682.40	445.13
682.74	442.52
683.08	440.01
683.42	437.36
683.75	434.67
684.09	431.96
684.43	429.49
684.77	426.91
685.10	424.43
685.44	421.90
685.78	419.51
686.12	417.28
686.45	414.85
686.79	412.39
687.13	410.24
687.46	408.10
687.80	405.95
688.14	403.68
688.48	401.44
688.81	399.13
689.15	396.73
689.49	394.44
689.82	392.22
690.16	389.90
690.50	387.69
690.83	385.56
691.17	383.31
691.51	380.93
691.84	378.92
692.18	376.80
692.52	374.83
692.85	372.89
693.19	370.95
693.52	368.98
693.86	367.15
694.20	365.25
694.53	363.26
694.87	361.28
695.21	359.32
695.54	357.35
695.88	355.50
696.21	353.68
696.55	351.97
696.88	350.18
697.22	348.52
697.56	346.87
697.89	345.02
698.23	343.38
698.56	341.88
698.90	340.33
699.23	338.75
699.57	337.10
699.90	335.44
700.24	333.75
700.58	332.15
700.91	330.54
701.25	329.05
701.58	327.61
701.92	326.10
702.25	324.65
702.59	323.29
702.92	321.92
703.26	320.51
703.59	319.18
703.93	318.02
704.26	316.73
704.60	315.40
704.93	314.21
705.26	312.95
705.60	311.68
705.93	310.35
706.27	309.13
706.60	308.04
706.94	306.98
707.27	305.79
707.61	304.62
707.94	303.47
708.27	302.26
708.61	301.10
708.94	300.03
709.28	298.87
709.61	297.66
709.94	296.53
710.28	295.50
710.61	294.43
710.95	293.20
711.28	292.20
711.61	291.21
711.95	290.28
712.28	289.23
712.61	288.17
712.95	287.27
713.28	286.28
713.61	285.23
713.95	284.25
714.28	283.35
714.61	282.39
714.95	281.47
715.28	280.49
715.61	279.55
715.95	278.61
716.28	277.82
716.61	277.06
716.95	276.18
717.28	275.30
717.61	274.54
717.94	273.78
718.28	272.91
718.61	272.09
718.94	271.19
719.27	270.47
719.61	269.78
719.94	269.04
720.27	268.28
720.60	267.52
720.94	266.78
721.27	266.17
721.60	265.58
721.93	264.95
722.27	264.40
722.60	263.73
722.93	263.08
723.26	262.46
723.59	261.79
723.93	261.25
724.26	260.74
724.59	260.11
724.92	259.48
725.25	258.93
725.59	258.31
725.92	257.90
726.25	257.36
726.58	256.83
726.91	256.27
727.24	255.77
727.57	255.35
727.91	254.81
728.24	254.27
728.57	253.77
728.90	253.29
729.23	252.73
729.56	252.38
729.89	251.94
730.22	251.51
730.55	251.10
730.89	250.64
731.22	250.11
731.55	249.66
731.88	249.28
732.21	248.81
732.54	248.35
732.87	247.85
733.20	247.45
733.53	247.04
733.86	246.55
734.19	246.09
734.52	245.67
734.85	245.41
735.18	244.96
735.51	244.63
735.84	244.30
736.17	243.98
736.50	243.57
736.83	243.42
737.16	242.97
737.49	242.61
737.82	242.24
738.15	241.87
738.48	241.52
738.81	241.16
739.14	240.82
739.47	240.55
739.80	240.23
740.13	239.84
740.46	239.45
740.79	239.16
741.12	238.88
741.45	238.53
741.78	238.11
742.11	237.84
742.44	237.41
742.77	237.00
743.10	236.66
743.43	236.33
743.75	235.89
744.08	235.90
744.41	235.56
744.74	235.26
745.07	235.01
745.40	234.75
745.73	234.55
746.06	234.28
746.39	234.01
746.71	233.79
747.04	233.62
747.37	233.39
747.70	233.12
748.03	232.86
748.36	232.66
748.68	232.43
749.01	232.14
749.34	232.01
749.67	231.76
750.00	231.54
750.33	231.42
750.65	231.05
750.98	230.51
751.31	230.26
751.64	230.07
751.97	229.84
752.29	229.60
752.62	229.35
752.95	229.14
753.28	228.91
753.60	228.67
753.93	228.44
754.26	228.23
754.59	228.05
754.91	227.83
755.24	227.56
755.57	227.25
755.90	227.05
756.22	226.80
756.55	226.58
756.88	226.37
757.20	226.10
757.53	225.97
757.86	225.73
758.19	225.59
758.51	225.47
758.84	225.18
759.17	225.04
759.49	224.81
759.82	224.67
760.15	224.43
760.47	224.18
760.80	223.98
761.13	223.84
761.45	223.67
761.78	223.50
762.11	223.36
762.43	223.34
762.76	223.18
763.08	223.06
763.41	222.97
763.74	222.77
764.06	222.58
764.39	222.38
764.71	222.33
765.04	222.21
765.37	222.03
765.69	221.96
766.02	221.81
766.34	221.62
766.67	221.43
767.00	221.40
767.32	221.40
767.65	221.38
767.97	221.23
768.30	221.08
768.62	221.03
768.95	220.85
769.27	220.68
769.60	220.60
769.92	220.38
770.25	220.21
770.57	220.11
770.90	219.99
771.22	219.86
771.55	219.73
771.87	219.64
772.20	219.41
772.52	219.49
772.85	219.54
773.17	219.50
773.50	219.49
773.82	219.37
774.15	219.17
774.47	218.93
774.80	218.81
775.12	218.74
775.45	218.61
775.77	218.61
776.09	218.46
776.42	218.33
776.74	218.32
777.07	218.20
777.39	218.15
777.72	218.06
778.04	218.05
778.36	217.94
778.69	217.79
779.01	217.79
779.33	217.54
779.66	217.22
779.98	217.13
780.31	216.97
780.63	216.95
780.95	216.95
781.28	216.86
781.60	216.85
781.92	216.70
782.25	216.66
782.57	216.58
782.89	216.52
783.22	216.57
783.54	216.49
783.86	216.44
784.19	216.40
784.51	216.38
784.83	216.34
785.16	216.30
785.48	216.28
785.80	216.19
786.12	216.20
786.45	216.17
786.77	216.10
787.09	216.02
787.42	215.96
787.74	215.97
788.06	216.10
788.38	215.94
788.71	216.00
789.03	215.90
789.35	215.87
789.67	215.82
789.99	215.70
790.32	215.70
790.64	215.76
790.96	215.77
791.28	215.63
791.61	215.60
791.93	215.56
792.25	215.54
792.57	215.70
792.89	215.63
793.21	215.62
793.54	215.54
793.86	215.54
794.18	215.42
794.50	215.27
794.82	215.14
795.14	215.15
795.47	215.06
795.79	215.08
796.11	215.06
796.43	215.10
796.75	215.09
797.07	214.99
797.39	214.94
797.71	214.83
798.04	214.87
798.36	214.79
798.68	214.81
799.00	214.76
799.32	214.61
799.64	214.59
799.96	214.59
800.28	214.62
800.60	214.59
800.92	214.56
801.24	214.52
801.56	214.47
801.89	214.47
802.21	214.48
802.53	214.38
802.85	214.35
803.17	214.37
803.49	214.27
803.81	214.23
804.13	214.16
804.45	214.08
804.77	214.06
805.09	214.00
805.41	213.89
805.73	213.85
806.05	213.80
806.37	213.72
806.69	213.65
807.01	213.66
807.33	213.58
807.65	213.60
807.97	213.72
808.28	213.73
808.60	213.64
808.92	213.58
809.24	213.70
809.56	213.64
809.88	213.48
810.20	213.53
810.52	213.56
810.84	213.51
811.16	213.47
811.48	213.42
811.80	213.48
812.12	213.52
812.43	213.52
812.75	213.50
813.07	213.46
813.39	213.47
813.71	213.36
814.03	213.43
814.35	213.33
814.67	213.19
814.98	213.12
815.30	213.10
815.62	213.03
815.94	212.87
816.26	212.87
816.58	212.80
816.89	212.79
817.21	212.68
817.53	212.71
817.85	212.71
818.17	212.69
818.48	212.64
818.80	212.65
819.12	212.61
819.44	212.57
819.76	212.60
820.07	212.55
820.39	212.55
820.71	212.56
821.03	212.52
821.34	212.47
821.66	212.50
821.98	212.50
822.30	212.48
822.61	212.61
822.93	212.54
823.25	212.60
823.57	212.57
823.88	212.60
824.20	212.57
824.52	212.58
824.83	212.55
825.15	212.51
825.47	212.46
825.79	212.43
826.10	212.41
826.42	212.40
826.74	212.35
827.05	212.32
827.37	212.25
827.69	212.24
828.00	212.28
828.32	212.25
828.64	212.22
828.95	212.37
829.27	212.25
829.58	212.22
829.90	212.20
830.22	212.19
830.53	212.09
830.85	212.02
831.17	212.02
831.48	212.02
831.80	211.93
832.11	211.96
832.43	211.97
832.75	211.90
833.06	211.88
833.38	211.88
833.69	211.86
834.01	211.82
834.32	211.83
834.64	211.77
834.96	211.73
835.27	211.70
835.59	211.66
835.90	211.64
836.22	211.71
836.53	211.80
836.85	211.76
837.16	212.01
837.48	212.06
837.79	212.07
838.11	212.09
838.42	212.15
838.74	212.13
839.05	212.08
839.37	212.10
839.68	211.99
840.00	212.00
840.31	212.10
840.63	212.10
840.94	212.10
841.26	212.05
841.57	212.03
841.88	212.06
842.20	211.90
842.51	211.95
842.83	211.90
843.14	211.91
843.46	211.82
843.77	211.72
844.08	211.66
844.40	211.58
844.71	211.54
845.03	211.53
845.34	211.49
845.65	211.47
845.97	211.50
846.28	211.50
846.60	211.48
846.91	211.44
847.22	211.42
847.54	211.45
847.85	211.45
848.16	211.41
848.48	211.39
848.79	211.54
849.10	211.47
849.42	211.50
849.73	211.41
850.04	211.48
850.36	211.40
850.67	211.42
850.98	211.48
851.30	211.50
851.61	211.44
851.92	211.37
852.23	211.40
852.55	211.40
852.86	211.46
853.17	211.50
853.49	211.56
853.80	211.63
854.11	211.67
854.42	211.75
854.74	211.82
855.05	211.80
855.36	211.71
855.67	211.72
855.99	211.68
856.30	211.75
856.61	211.70
856.92	211.65
857.23	211.60
857.55	211.61
857.86	211.60
858.17	211.70
858.48	211.70
858.79	211.70
859.11	211.72
859.42	211.71
859.73	211.68
860.04	211.55
860.35	211.48
860.66	211.34
860.98	211.33
861.29	211.32
861.60	211.29
861.91	211.30
862.22	211.26
862.53	211.23
862.84	211.11
863.16	211.18
863.47	211.23
863.78	211.29
864.09	211.23
864.40	211.16
864.71	211.14
865.02	211.22
865.33	211.18
865.64	211.13
865.95	211.06
866.27	211.16
866.58	211.21
866.89	211.20
867.20	211.25
867.51	211.23
867.82	211.19
868.13	211.26
868.44	211.21
868.75	211.31
869.06	211.37
869.37	211.42
869.68	211.37
869.99	211.45
870.30	211.45
870.61	211.44
870.92	211.43
871.23	211.41
871.54	211.38
871.85	211.45
872.16	211.47
872.47	211.53
872.78	211.42
873.09	211.45
873.40	211.51
873.71	211.51
874.02	211.48
874.33	211.55
874.64	211.55
874.95	211.60
875.26	211.54
875.56	211.46
875.87	211.47
876.18	211.50
876.49	211.52
876.80	211.52
877.11	211.52
877.42	211.61
877.73	211.62
878.04	211.63
878.35	211.65
878.66	211.68
878.96	211.66
879.27	211.70
879.58	211.65
879.89	211.62
880.20	211.65
880.51	211.62
880.82	211.50
881.12	211.54
881.43	211.46
881.74	211.44
882.05	211.47
882.36	211.45
882.67	211.42
882.97	211.35
883.28	211.36
883.59	211.29
883.90	211.38
884.21	211.33
884.51	211.30
884.82	211.18
885.13	211.21
885.44	211.19
885.74	211.25
886.05	211.25
886.36	211.23
886.67	211.19
886.98	211.36
887.28	211.43
887.59	211.40
887.90	211.42
888.20	211.38
888.51	211.39
888.82	211.31
889.13	211.35
889.43	211.47
889.74	211.39
890.05	211.46
890.35	211.40
890.66	211.41
890.97	211.35
891.28	211.35
891.58	211.29
891.89	211.27
892.20	211.22
892.50	211.20
892.81	211.21
893.12	211.20
893.42	211.05
893.73	211.06
894.04	211.04
894.34	211.02
894.65	211.03
894.95	210.97
895.26	211.04
895.57	211.05
895.87	210.84
896.18	210.87
896.48	210.88
896.79	210.84
897.10	210.83
897.40	210.88
897.71	210.91
898.01	210.89
898.32	210.94
898.63	210.88
898.93	210.84
899.24	210.87
899.54	210.83
899.85	210.85
900.15	210.86
900.46	210.85
900.76	210.85
901.07	210.84
901.38	210.83
901.68	210.82
901.99	210.72
902.29	210.78
902.60	210.86
902.90	210.78
903.21	210.78
903.51	210.79
903.82	210.81
904.12	210.80
904.43	210.83
904.73	210.79
905.03	210.82
905.34	211.00
905.64	210.98
905.95	210.98
906.25	210.99
906.56	210.95
906.86	210.94
907.17	210.95
907.47	210.97
907.77	211.00
908.08	210.92
908.38	210.99
908.69	210.98
908.99	210.96
909.30	211.04
909.60	211.08
909.90	211.07
910.21	210.99
910.51	210.98
910.81	211.00
911.12	211.01
911.42	211.03
911.73	210.95
912.03	210.92
912.33	210.97
912.64	210.95
912.94	210.96
913.24	210.92
913.55	210.97
913.85	210.99
914.15	211.00
914.46	211.09
914.76	211.05
915.06	211.03
915.37	210.99
915.67	210.94
915.97	210.89
916.27	210.90
916.58	210.94
916.88	210.91
917.18	210.91
917.49	211.02
917.79	211.00
918.09	210.94
918.39	211.00
918.70	211.00
919.00	211.03
919.30	211.10
919.60	211.15
919.91	211.13
920.21	211.15
920.51	211.16
920.81	211.15
921.12	211.19
921.42	211.25
921.72	211.27
922.02	211.30
922.32	211.35
922.63	211.34
922.93	211.42
923.23	211.45
923.53	211.40
923.83	211.29
924.13	211.27
924.44	211.30
924.74	211.37
925.04	211.38
925.34	211.43
925.64	211.36
925.94	211.31
926.24	211.38
926.55	211.34
926.85	211.32
927.15	211.26
927.45	211.28
927.75	211.23
928.05	211.29
928.35	211.25
928.65	211.25
928.95	211.26
929.26	211.24
929.56	211.33
929.86	211.33
930.16	211.31
930.46	211.34
930.76	211.30
931.06	211.17
931.36	211.14
931.66	211.15
931.96	211.18
932.26	211.21
932.56	211.14
932.86	211.16
933.16	211.19
933.46	211.26
933.76	211.17
934.06	211.16
934.36	211.13
934.66	211.17
934.96	211.08
935.26	211.05
935.56	211.00
935.86	210.88
936.16	210.80
936.46	210.78
936.76	210.75
937.06	210.71
937.36	210.76
937.66	210.78
937.96	210.74
938.26	210.64
938.56	210.66
938.86	210.71
939.16	210.72
939.46	210.75
939.76	210.74
940.06	210.79
940.35	210.81
940.65	210.79
940.95	210.78
941.25	210.75
941.55	210.71
941.85	210.72
942.15	210.73
942.45	210.83
942.75	210.84
943.04	210.85
943.34	210.90
943.64	210.86
943.94	210.80
944.24	210.78
944.54	210.86
944.84	210.86
945.13	210.76
945.43	210.76
945.73	210.70
946.03	210.64
946.33	210.62
946.62	210.57
946.92	210.58
947.22	210.56
947.52	210.65
947.82	210.65
948.11	210.64
948.41	210.68
948.71	210.64
949.01	210.62
949.31	210.58
949.60	210.59
949.90	210.58
950.20	210.62
950.50	210.58
950.79	210.56
951.09	210.52
951.39	210.54
951.69	210.45
951.98	210.53
952.28	210.55
952.58	210.55
952.87	210.55
953.17	210.51
953.47	210.49
953.76	210.44
954.06	210.49
954.36	210.45
954.66	210.47
954.95	210.55
955.25	210.57
955.55	210.58
955.84	210.52
956.14	210.53
956.44	210.52
956.73	210.50
957.03	210.50
957.32	210.56
957.62	210.54
957.92	210.60
958.21	210.60
958.51	210.72
958.81	210.80
959.10	210.79
959.40	210.77
959.69	210.78
959.99	210.85
960.29	210.81
960.58	210.79
960.88	210.78
961.17	210.76
961.47	210.82
961.76	210.81
962.06	210.83
962.36	210.82
962.65	210.82
962.95	210.88
963.24	210.87
963.54	210.80
963.83	210.87
964.13	210.88
964.42	210.81
964.72	210.73
965.01	210.67
965.31	210.70
965.60	210.75
965.90	210.85
966.19	210.78
966.49	210.82
966.78	210.77
967.08	210.79
967.37	210.71
967.67	210.67
967.96	210.77
968.26	210.80
968.55	210.80
968.85	210.77
969.14	210.74
969.43	210.70
969.73	210.69
970.02	210.63
970.32	210.61
970.61	210.64
970.91	210.58
971.20	210.56
971.49	210.51
971.79	210.50
972.08	210.35
972.38	210.36
972.67	210.35
972.96	210.35
973.26	210.19
973.55	210.25
973.85	210.25
974.14	210.17
974.43	210.13
974.73	210.10
975.02	210.13
975.31	210.14
975.61	210.16
975.90	210.15
976.19	210.12
976.49	210.18
976.78	210.13
977.07	210.09
977.37	210.09
977.66	210.13
977.95	210.10
978.24	210.11
978.54	210.16
978.83	210.12
979.12	210.13
979.42	210.24
979.71	210.28
980.00	210.30
980.29	210.35
980.59	210.39
980.88	210.41
981.17	210.40
981.46	210.36
981.76	210.41
982.05	210.50
982.34	210.55
982.63	210.52
982.93	210.50
983.22	210.59
983.51	210.63
983.80	210.68
984.09	210.68
984.39	210.72
984.68	210.68
984.97	210.78
985.26	210.81
985.55	210.84
985.85	210.73
986.14	210.68
986.43	210.57
986.72	210.56
987.01	210.56
987.30	210.59
987.59	210.59
987.89	210.53
988.18	210.42
988.47	210.44
988.76	210.42
989.05	210.47
989.34	210.38
989.63	210.39
989.92	210.29
990.22	210.28
990.51	210.29
990.80	210.27
991.09	210.26
991.38	210.29
991.67	210.32
991.96	210.35
992.25	210.44
992.54	210.48
992.83	210.49
993.12	210.49
993.41	210.49
993.70	210.48
993.99	210.53
994.28	210.63
994.58	210.60
994.87	210.59
995.16	210.61
995.45	210.66
995.74	210.65
996.03	210.75
996.32	210.83
996.61	210.95
996.90	210.98
997.19	210.98
997.48	210.98
997.77	210.92
998.06	210.94
998.34	210.90
998.63	210.90
998.92	210.93
999.21	210.98
999.50	211.00
999.79	211.04
1000.08	211.05
1000.37	211.04
1000.66	211.07
1000.95	211.11
1001.24	211.10
1001.53	211.12
1001.82	211.12
1002.11	211.08
1002.40	211.03
1002.68	210.97
1002.97	211.08
1003.26	211.05
1003.55	211.05
1003.84	211.06
1004.13	211.11
1004.42	211.14
1004.71	211.18
1004.99	211.18
1005.28	211.24
1005.57	211.23
1005.86	211.19
1006.15	211.15
1006.44	211.09
1006.72	211.08
1007.01	211.07
1007.30	211.09
1007.59	211.08
1007.88	211.08
1008.17	211.05
1008.45	211.08
1008.74	211.03
1009.03	210.93
1009.32	210.95
1009.60	210.93
1009.89	210.89
1010.18	210.76
1010.47	210.67
1010.76	210.65
1011.04	210.58
1011.33	210.56
1011.62	210.58
1011.91	210.60
1012.19	210.66
1012.48	210.69
1012.77	210.70
1013.05	210.71
1013.34	210.74
1013.63	210.74
1013.92	210.70
1014.20	210.75
1014.49	210.71
1014.78	210.69
1015.06	210.68
1015.35	210.61
1015.64	210.67
1015.92	210.74
1016.21	210.80
1016.50	210.85
1016.78	210.97
1017.07	211.03
1017.36	211.00
1017.64	210.96
1017.93	210.95
1018.22	210.85
1018.50	210.81
1018.79	210.84
1019.08	210.77
1019.36	210.77
1019.65	210.72
1019.93	210.80
1020.22	210.81
1020.51	210.96
1020.79	210.94
1021.08	209.05
1021.36	210.05
1021.65	211.70
1021.94	210.40
1022.22	211.35
1022.51	209.95
1022.79	211.75
1023.08	211.35
1023.36	213.65
1023.65	209.75
>>>>>End Processed Spectral Data<<<<<
