SpectraSuite Data File
++++++++++++++++++++++++++++++++++++
Date: Mon Feb 25 17:36:16 EST 2013
User: group
Dark Spectrum Present: No
Reference Spectrum Present: No
Number of Sampled Component Spectra: 1
Spectrometers: USB2E7196
Integration Time (usec): 52000 (USB2E7196)
Spectra Averaged: 20 (USB2E7196)
Boxcar Smoothing: 10 (USB2E7196)
Correct for Electrical Dark: No (USB2E7196)
Strobe/Lamp Enabled: No (USB2E7196)
Correct for Detector Non-linearity: No (USB2E7196)
Correct for Stray Light: No (USB2E7196)
Number of Pixels in Processed Spectrum: 2048
>>>>>Begin Processed Spectral Data<<<<<
339.09	0.00
339.48	197.85
339.86	199.40
340.24	202.30
340.63	203.20
341.01	205.80
341.39	205.30
341.78	206.85
342.16	209.20
342.54	209.40
342.93	198.11
343.31	208.13
343.69	208.70
344.07	209.19
344.46	209.62
344.84	210.10
345.22	210.46
345.60	210.84
345.99	211.17
346.37	211.33
346.75	211.52
347.13	211.72
347.52	211.85
347.90	212.03
348.28	212.16
348.66	212.38
349.05	212.41
349.43	212.61
349.81	212.83
350.19	212.99
350.57	213.15
350.96	213.37
351.34	213.54
351.72	213.79
352.10	214.05
352.48	214.30
352.87	214.34
353.25	214.39
353.63	214.49
354.01	214.60
354.39	214.79
354.77	214.85
355.15	214.93
355.54	215.04
355.92	215.03
356.30	215.11
356.68	215.29
357.06	215.44
357.44	215.42
357.82	215.49
358.20	215.61
358.58	215.60
358.97	215.73
359.35	215.89
359.73	215.99
360.11	215.97
360.49	215.93
360.87	216.05
361.25	216.12
361.63	216.21
362.01	216.25
362.39	216.19
362.77	216.31
363.15	216.35
363.53	216.37
363.91	216.45
364.29	216.49
364.67	216.41
365.05	216.38
365.43	216.43
365.81	216.50
366.19	216.59
366.57	216.73
366.95	216.68
367.33	216.66
367.71	216.64
368.09	216.69
368.47	216.73
368.85	216.68
369.23	216.75
369.61	216.64
369.99	216.64
370.37	216.72
370.75	216.74
371.13	216.71
371.51	216.60
371.89	216.56
372.27	216.60
372.65	216.60
373.03	216.55
373.41	216.46
373.78	216.37
374.16	216.24
374.54	216.12
374.92	216.09
375.30	215.98
375.68	215.95
376.06	215.88
376.44	215.84
376.82	215.84
377.19	215.79
377.57	215.83
377.95	215.67
378.33	215.57
378.71	215.46
379.09	215.43
379.47	215.48
379.84	215.49
380.22	215.33
380.60	215.23
380.98	215.23
381.36	215.24
381.73	215.17
382.11	215.15
382.49	215.11
382.87	215.06
383.25	215.05
383.62	215.17
384.00	215.12
384.38	215.11
384.76	215.10
385.13	215.09
385.51	215.02
385.89	215.05
386.27	215.03
386.64	215.01
387.02	214.92
387.40	214.95
387.78	215.00
388.15	215.01
388.53	214.98
388.91	214.97
389.29	214.95
389.66	214.97
390.04	214.92
390.42	215.00
390.79	215.03
391.17	215.00
391.55	214.84
391.92	214.91
392.30	214.90
392.68	214.89
393.05	214.97
393.43	214.93
393.81	215.00
394.18	215.11
394.56	215.15
394.94	215.34
395.31	215.38
395.69	215.47
396.06	215.66
396.44	215.78
396.82	215.83
397.19	216.07
397.57	216.16
397.95	216.43
398.32	216.51
398.70	216.66
399.07	216.89
399.45	217.10
399.82	217.30
400.20	217.51
400.58	217.70
400.95	217.90
401.33	218.29
401.70	218.70
402.08	219.00
402.45	219.40
402.83	219.79
403.20	220.16
403.58	220.64
403.95	221.16
404.33	221.72
404.71	222.37
405.08	223.10
405.46	223.81
405.83	224.50
406.21	225.25
406.58	226.10
406.96	227.11
407.33	228.17
407.70	229.35
408.08	230.75
408.45	232.20
408.83	233.68
409.20	235.22
409.58	236.75
409.95	238.52
410.33	240.52
410.70	242.52
411.08	244.65
411.45	246.87
411.82	249.21
412.20	251.85
412.57	254.85
412.95	257.66
413.32	260.90
413.69	264.40
414.07	268.14
414.44	272.22
414.82	276.30
415.19	281.03
415.56	285.80
415.94	290.99
416.31	296.66
416.68	302.28
417.06	308.77
417.43	314.89
417.81	322.10
418.18	329.45
418.55	337.45
418.93	346.01
419.30	354.84
419.67	364.10
420.04	373.90
420.42	384.20
420.79	395.51
421.16	407.48
421.54	419.35
421.91	431.96
422.28	445.17
422.66	459.31
423.03	472.71
423.40	487.26
423.77	502.82
424.15	518.72
424.52	535.32
424.89	553.23
425.26	570.96
425.64	587.73
426.01	606.29
426.38	625.61
426.75	645.32
427.13	665.86
427.50	687.84
427.87	710.60
428.24	733.43
428.61	755.75
428.99	779.32
429.36	805.74
429.73	831.60
430.10	857.22
430.47	883.62
430.85	911.98
431.22	941.07
431.59	971.56
431.96	1001.49
432.33	1034.82
432.70	1067.21
433.08	1104.94
433.45	1140.48
433.82	1176.13
434.19	1215.53
434.56	1254.21
434.93	1291.83
435.30	1329.29
435.68	1370.71
436.05	1412.22
436.42	1453.48
436.79	1491.30
437.16	1532.19
437.53	1575.70
437.90	1618.84
438.27	1661.04
438.64	1705.36
439.01	1746.52
439.38	1784.30
439.75	1820.22
440.13	1860.87
440.50	1899.64
440.87	1931.67
441.24	1965.65
441.61	2002.67
441.98	2031.19
442.35	2063.70
442.72	2096.24
443.09	2127.67
443.46	2148.50
443.83	2163.27
444.20	2176.97
444.57	2195.78
444.94	2206.53
445.31	2217.33
445.68	2226.60
446.05	2233.51
446.42	2233.06
446.79	2231.44
447.16	2229.34
447.53	2228.77
447.90	2216.97
448.27	2205.23
448.64	2187.15
449.01	2174.65
449.37	2149.31
449.74	2125.48
450.11	2095.40
450.48	2063.95
450.85	2031.71
451.22	2003.81
451.59	1976.91
451.96	1951.39
452.33	1915.97
452.70	1884.06
453.07	1845.35
453.43	1806.97
453.80	1769.23
454.17	1732.48
454.54	1698.41
454.91	1661.28
455.28	1625.31
455.65	1591.64
456.02	1555.48
456.38	1526.46
456.75	1489.36
457.12	1459.45
457.49	1429.38
457.86	1401.41
458.23	1375.42
458.59	1347.08
458.96	1318.76
459.33	1293.81
459.70	1268.35
460.07	1248.48
460.43	1225.45
460.80	1203.60
461.17	1184.91
461.54	1164.90
461.91	1146.14
462.27	1126.98
462.64	1110.56
463.01	1092.33
463.38	1074.17
463.74	1058.34
464.11	1043.44
464.48	1030.50
464.85	1015.72
465.21	1003.94
465.58	991.56
465.95	977.43
466.32	965.56
466.68	953.64
467.05	941.80
467.42	930.16
467.78	917.70
468.15	906.10
468.52	897.14
468.88	885.81
469.25	875.74
469.62	867.33
469.98	858.65
470.35	850.58
470.72	842.68
471.08	834.84
471.45	827.55
471.82	819.65
472.18	811.77
472.55	806.06
472.92	799.69
473.28	793.95
473.65	788.32
474.02	782.76
474.38	777.95
474.75	774.19
475.11	769.92
475.48	766.60
475.85	763.87
476.21	761.21
476.58	758.70
476.94	757.09
477.31	754.96
477.67	752.91
478.04	751.34
478.41	750.52
478.77	749.62
479.14	748.90
479.50	748.95
479.87	749.56
480.23	750.37
480.60	750.62
480.96	750.75
481.33	752.21
481.69	753.71
482.06	755.12
482.42	755.84
482.79	757.36
483.15	760.00
483.52	763.06
483.88	766.11
484.25	769.39
484.61	772.63
484.98	776.15
485.34	780.55
485.71	785.20
486.07	790.19
486.44	795.46
486.80	800.96
487.17	806.93
487.53	813.50
487.90	820.36
488.26	827.57
488.62	835.53
488.99	843.37
489.35	851.52
489.72	860.83
490.08	870.93
490.44	880.91
490.81	890.84
491.17	900.84
491.54	911.82
491.90	922.55
492.26	934.23
492.63	946.57
492.99	959.14
493.36	972.21
493.72	985.72
494.08	999.79
494.45	1014.68
494.81	1029.97
495.17	1045.56
495.54	1061.69
495.90	1078.77
496.26	1096.11
496.63	1113.83
496.99	1131.87
497.35	1149.77
497.72	1168.37
498.08	1187.09
498.44	1206.43
498.80	1226.99
499.17	1247.36
499.53	1268.45
499.89	1290.03
500.26	1311.31
500.62	1332.59
500.98	1354.96
501.34	1377.43
501.71	1400.38
502.07	1423.71
502.43	1447.18
502.79	1470.24
503.16	1493.83
503.52	1517.63
503.88	1541.23
504.24	1564.93
504.60	1589.10
504.97	1614.15
505.33	1638.70
505.69	1664.79
506.05	1690.00
506.41	1714.81
506.78	1739.73
507.14	1764.78
507.50	1790.10
507.86	1815.96
508.22	1842.20
508.59	1867.51
508.95	1893.30
509.31	1919.01
509.67	1944.63
510.03	1970.65
510.39	1997.02
510.75	2022.93
511.12	2047.78
511.48	2072.95
511.84	2098.27
512.20	2123.20
512.56	2148.09
512.92	2173.13
513.28	2197.73
513.64	2222.37
514.00	2246.19
514.37	2270.17
514.73	2294.38
515.09	2317.30
515.45	2340.26
515.81	2363.36
516.17	2386.39
516.53	2408.64
516.89	2430.50
517.25	2451.14
517.61	2470.90
517.97	2490.80
518.33	2509.91
518.69	2529.83
519.05	2549.96
519.41	2569.76
519.77	2589.45
520.13	2608.46
520.49	2626.92
520.85	2644.92
521.21	2662.52
521.57	2681.19
521.93	2698.11
522.29	2715.57
522.65	2732.89
523.01	2749.77
523.37	2765.45
523.73	2781.45
524.09	2796.61
524.45	2811.68
524.81	2826.62
525.17	2842.38
525.53	2857.32
525.89	2873.11
526.25	2888.01
526.61	2900.64
526.97	2913.68
527.33	2926.88
527.68	2940.07
528.04	2952.82
528.40	2964.65
528.76	2977.45
529.12	2988.57
529.48	3000.85
529.84	3010.68
530.20	3021.53
530.56	3032.35
530.91	3043.90
531.27	3054.87
531.63	3066.00
531.99	3076.29
532.35	3086.13
532.71	3095.57
533.07	3106.74
533.42	3116.12
533.78	3126.41
534.14	3136.80
534.50	3145.76
534.86	3155.05
535.21	3162.11
535.57	3170.88
535.93	3178.97
536.29	3185.69
536.65	3194.37
537.00	3201.09
537.36	3208.77
537.72	3215.53
538.08	3222.27
538.44	3228.54
538.79	3234.19
539.15	3240.57
539.51	3247.73
539.87	3255.60
540.22	3261.88
540.58	3267.67
540.94	3273.48
541.29	3277.97
541.65	3280.88
542.01	3284.79
542.37	3288.60
542.72	3294.02
543.08	3297.28
543.44	3301.48
543.79	3305.01
544.15	3306.71
544.51	3310.91
544.87	3314.54
545.22	3316.86
545.58	3318.41
545.94	3319.42
546.29	3320.85
546.65	3321.47
547.01	3321.36
547.36	3322.10
547.72	3323.14
548.07	3322.50
548.43	3321.67
548.79	3320.35
549.14	3321.61
549.50	3322.86
549.86	3322.75
550.21	3321.30
550.57	3321.07
550.92	3319.64
551.28	3318.02
551.64	3317.17
551.99	3315.98
552.35	3315.44
552.70	3315.04
553.06	3314.89
553.41	3314.62
553.77	3314.12
554.13	3313.23
554.48	3313.53
554.84	3312.02
555.19	3310.25
555.55	3309.25
555.90	3308.48
556.26	3307.70
556.61	3305.62
556.97	3302.35
557.32	3299.25
557.68	3296.84
558.03	3293.75
558.39	3291.43
558.74	3291.13
559.10	3290.26
559.45	3288.20
559.81	3286.07
560.16	3283.80
560.52	3281.97
560.87	3279.92
561.23	3276.15
561.58	3272.93
561.94	3267.73
562.29	3262.92
562.64	3258.66
563.00	3254.41
563.35	3249.94
563.71	3246.48
564.06	3243.94
564.42	3240.95
564.77	3237.88
565.12	3234.46
565.48	3231.28
565.83	3227.77
566.19	3224.14
566.54	3220.70
566.89	3216.02
567.25	3210.70
567.60	3206.90
567.96	3201.38
568.31	3196.05
568.66	3192.08
569.02	3188.26
569.37	3184.80
569.72	3181.24
570.08	3177.30
570.43	3171.46
570.78	3166.90
571.14	3161.59
571.49	3155.62
571.84	3150.93
572.20	3145.01
572.55	3140.63
572.90	3134.59
573.26	3128.50
573.61	3120.75
573.96	3112.43
574.31	3105.00
574.67	3098.54
575.02	3089.78
575.37	3081.88
575.72	3074.31
576.08	3066.75
576.43	3057.89
576.78	3049.48
577.13	3041.34
577.49	3033.40
577.84	3026.44
578.19	3018.67
578.54	3010.65
578.90	3002.54
579.25	2992.81
579.60	2983.82
579.95	2973.70
580.30	2965.04
580.66	2955.36
581.01	2946.10
581.36	2936.16
581.71	2927.18
582.06	2918.02
582.42	2910.14
582.77	2900.67
583.12	2891.29
583.47	2881.78
583.82	2872.77
584.17	2862.89
584.53	2853.51
584.88	2843.23
585.23	2832.75
585.58	2822.60
585.93	2812.05
586.28	2802.67
586.63	2793.26
586.98	2784.42
587.34	2775.45
587.69	2765.19
588.04	2756.05
588.39	2747.10
588.74	2737.28
589.09	2727.79
589.44	2716.46
589.79	2705.71
590.14	2696.39
590.49	2685.14
590.84	2674.96
591.19	2665.33
591.54	2655.20
591.89	2643.93
592.25	2633.94
592.60	2622.52
592.95	2611.22
593.30	2600.77
593.65	2590.11
594.00	2580.39
594.35	2570.66
594.70	2559.75
595.05	2549.68
595.40	2538.66
595.75	2527.02
596.10	2516.89
596.45	2506.03
596.80	2496.40
597.15	2486.10
597.50	2474.92
597.85	2465.59
598.19	2453.76
598.54	2442.06
598.89	2431.01
599.24	2420.71
599.59	2409.89
599.94	2400.96
600.29	2390.89
600.64	2380.17
600.99	2368.08
601.34	2357.27
601.69	2345.28
602.04	2334.01
602.39	2323.54
602.74	2314.40
603.08	2305.81
603.43	2297.04
603.78	2286.80
604.13	2276.49
604.48	2265.65
604.83	2256.37
605.18	2246.05
605.53	2236.85
605.87	2227.55
606.22	2218.25
606.57	2207.90
606.92	2196.75
607.27	2185.97
607.62	2175.53
607.96	2165.43
608.31	2156.88
608.66	2146.25
609.01	2136.02
609.36	2125.75
609.70	2114.66
610.05	2102.62
610.40	2090.71
610.75	2078.20
611.10	2067.46
611.44	2055.40
611.79	2044.76
612.14	2033.30
612.49	2021.21
612.83	2009.36
613.18	1996.92
613.53	1985.02
613.88	1972.88
614.22	1961.63
614.57	1949.77
614.92	1938.06
615.27	1926.77
615.61	1914.27
615.96	1902.63
616.31	1891.20
616.65	1880.46
617.00	1869.89
617.35	1859.32
617.70	1847.59
618.04	1836.51
618.39	1824.71
618.74	1813.91
619.08	1802.08
619.43	1790.46
619.78	1779.93
620.12	1770.25
620.47	1760.29
620.82	1749.73
621.16	1739.89
621.51	1729.76
621.85	1719.28
622.20	1708.54
622.55	1697.13
622.89	1686.81
623.24	1676.31
623.59	1665.85
623.93	1655.21
624.28	1644.52
624.62	1633.68
624.97	1623.75
625.32	1614.01
625.66	1604.60
626.01	1595.18
626.35	1586.45
626.70	1577.28
627.04	1567.84
627.39	1556.98
627.73	1547.23
628.08	1537.95
628.43	1528.50
628.77	1519.49
629.12	1510.25
629.46	1501.18
629.81	1491.77
630.15	1481.55
630.50	1471.94
630.84	1462.08
631.19	1452.36
631.53	1442.72
631.88	1433.37
632.22	1424.55
632.57	1415.67
632.91	1406.25
633.26	1397.07
633.60	1387.40
633.95	1378.54
634.29	1370.03
634.64	1362.15
634.98	1352.91
635.32	1344.09
635.67	1336.07
636.01	1327.37
636.36	1318.70
636.70	1310.18
637.05	1302.28
637.39	1294.83
637.73	1286.73
638.08	1279.29
638.42	1271.98
638.77	1264.45
639.11	1256.80
639.45	1248.30
639.80	1240.04
640.14	1232.17
640.49	1224.45
640.83	1216.37
641.17	1208.20
641.52	1200.01
641.86	1191.53
642.20	1183.81
642.55	1175.14
642.89	1166.14
643.23	1157.62
643.58	1149.87
643.92	1141.95
644.26	1133.85
644.61	1125.83
644.95	1117.95
645.29	1110.05
645.64	1101.60
645.98	1093.60
646.32	1085.93
646.66	1078.56
647.01	1070.86
647.35	1063.36
647.69	1055.16
648.04	1047.81
648.38	1040.20
648.72	1032.91
649.06	1025.56
649.41	1017.86
649.75	1010.37
650.09	1003.46
650.43	996.72
650.78	989.62
651.12	982.44
651.46	975.59
651.80	968.67
652.14	962.18
652.49	955.06
652.83	948.35
653.17	940.90
653.51	933.78
653.85	927.21
654.20	920.70
654.54	913.98
654.88	907.57
655.22	900.67
655.56	893.35
655.90	885.63
656.25	878.50
656.59	871.91
656.93	865.67
657.27	859.10
657.61	852.14
657.95	845.60
658.29	839.27
658.64	833.23
658.98	827.20
659.32	820.69
659.66	814.78
660.00	808.79
660.34	803.42
660.68	797.66
661.02	791.18
661.36	785.22
661.70	779.48
662.05	774.02
662.39	768.76
662.73	763.92
663.07	759.38
663.41	754.75
663.75	749.85
664.09	744.87
664.43	739.81
664.77	734.90
665.11	729.65
665.45	724.89
665.79	720.07
666.13	715.26
666.47	710.77
666.81	706.18
667.15	701.40
667.49	696.79
667.83	692.25
668.17	688.11
668.51	683.76
668.85	679.27
669.19	674.80
669.53	670.30
669.87	665.55
670.21	661.01
670.55	656.18
670.89	651.97
671.23	647.86
671.57	643.44
671.91	639.23
672.25	635.20
672.58	630.97
672.92	626.74
673.26	622.61
673.60	618.42
673.94	614.54
674.28	611.00
674.62	607.18
674.96	603.21
675.30	599.54
675.64	595.74
675.97	592.40
676.31	588.88
676.65	585.51
676.99	582.41
677.33	579.16
677.67	576.01
678.01	572.50
678.34	568.90
678.68	565.70
679.02	562.36
679.36	559.01
679.70	555.71
680.04	552.43
680.37	549.01
680.71	545.68
681.05	542.37
681.39	539.13
681.73	535.88
682.06	532.89
682.40	529.63
682.74	526.49
683.08	522.94
683.42	519.69
683.75	516.33
684.09	513.05
684.43	509.84
684.77	506.61
685.10	503.44
685.44	500.22
685.78	496.91
686.12	493.86
686.45	490.83
686.79	488.04
687.13	485.15
687.46	482.42
687.80	479.63
688.14	476.71
688.48	473.86
688.81	470.96
689.15	468.27
689.49	465.43
689.82	462.36
690.16	459.46
690.50	456.64
690.83	453.97
691.17	451.26
691.51	448.45
691.84	445.90
692.18	443.41
692.52	441.03
692.85	438.71
693.19	436.28
693.52	433.86
693.86	431.27
694.20	428.79
694.53	426.21
694.87	423.59
695.21	421.07
695.54	418.45
695.88	416.10
696.21	413.67
696.55	411.51
696.88	409.43
697.22	407.44
697.56	405.49
697.89	403.40
698.23	401.41
698.56	399.34
698.90	397.35
699.23	395.21
699.57	393.16
699.90	391.10
700.24	389.06
700.58	387.07
700.91	385.08
701.25	383.22
701.58	381.51
701.92	379.85
702.25	378.22
702.59	376.52
702.92	374.80
703.26	373.07
703.59	371.51
703.93	370.01
704.26	368.30
704.60	366.47
704.93	364.70
705.26	362.90
705.60	361.36
705.93	359.69
706.27	358.21
706.60	356.68
706.94	355.20
707.27	353.59
707.61	351.97
707.94	350.45
708.27	348.86
708.61	347.33
708.94	345.86
709.28	344.27
709.61	342.74
709.94	341.23
710.28	339.65
710.61	337.96
710.95	336.27
711.28	334.82
711.61	333.40
711.95	332.11
712.28	330.71
712.61	329.29
712.95	328.02
713.28	326.71
713.61	325.45
713.95	324.08
714.28	322.96
714.61	321.79
714.95	320.56
715.28	319.35
715.61	317.92
715.95	316.56
716.28	315.20
716.61	313.93
716.95	312.58
717.28	311.43
717.61	310.35
717.94	309.22
718.28	308.05
718.61	306.91
718.94	305.74
719.27	304.67
719.61	303.61
719.94	302.49
720.27	301.33
720.60	300.37
720.94	299.46
721.27	298.45
721.60	297.61
721.93	296.65
722.27	295.74
722.60	295.01
722.93	294.18
723.26	293.49
723.59	292.71
723.93	291.98
724.26	291.23
724.59	290.35
724.92	289.52
725.25	288.80
725.59	288.04
725.92	287.28
726.25	286.53
726.58	285.83
726.91	285.06
727.24	284.33
727.57	283.40
727.91	282.58
728.24	281.82
728.57	281.03
728.90	280.33
729.23	279.55
729.56	278.85
729.89	278.10
730.22	277.38
730.55	276.63
730.89	275.90
731.22	275.14
731.55	274.53
731.88	273.87
732.21	273.13
732.54	272.49
732.87	271.82
733.20	271.25
733.53	270.58
733.86	270.10
734.19	269.51
734.52	269.00
734.85	268.57
735.18	267.98
735.51	267.42
735.84	266.82
736.17	266.17
736.50	265.50
736.83	265.18
737.16	264.55
737.49	264.12
737.82	263.45
738.15	262.86
738.48	262.15
738.81	261.63
739.14	261.14
739.47	260.64
739.80	260.07
740.13	259.49
740.46	258.95
740.79	258.33
741.12	257.81
741.45	257.20
741.78	256.50
742.11	256.01
742.44	255.32
742.77	254.85
743.10	254.39
743.43	253.91
743.75	253.27
744.08	253.04
744.41	252.47
744.74	252.01
745.07	251.51
745.40	251.16
745.73	250.67
746.06	250.13
746.39	249.57
746.71	249.16
747.04	248.67
747.37	248.23
747.70	247.85
748.03	247.45
748.36	247.11
748.68	246.70
749.01	246.23
749.34	245.87
749.67	245.50
750.00	245.18
750.33	244.90
750.65	244.46
750.98	243.88
751.31	243.45
751.64	243.10
751.97	242.85
752.29	242.45
752.62	242.16
752.95	241.76
753.28	241.46
753.60	241.15
753.93	240.89
754.26	240.53
754.59	240.12
754.91	239.72
755.24	239.36
755.57	239.02
755.90	238.70
756.22	238.43
756.55	238.19
756.88	237.80
757.20	237.46
757.53	237.10
757.86	236.78
758.19	236.54
758.51	236.27
758.84	235.87
759.17	235.59
759.49	235.24
759.82	235.14
760.15	234.85
760.47	234.56
760.80	234.24
761.13	234.07
761.45	233.75
761.78	233.52
762.11	233.28
762.43	233.08
762.76	232.83
763.08	232.63
763.41	232.29
763.74	232.08
764.06	231.73
764.39	231.57
764.71	231.29
765.04	231.04
765.37	230.84
765.69	230.62
766.02	230.38
766.34	230.15
766.67	229.91
767.00	229.74
767.32	229.59
767.65	229.46
767.97	229.19
768.30	229.04
768.62	228.80
768.95	228.52
769.27	228.39
769.60	228.25
769.92	227.95
770.25	227.75
770.57	227.54
770.90	227.42
771.22	227.13
771.55	226.95
771.87	226.81
772.20	226.61
772.52	226.63
772.85	226.68
773.17	226.49
773.50	226.25
773.82	226.07
774.15	225.92
774.47	225.74
774.80	225.55
775.12	225.41
775.45	225.32
775.77	225.29
776.09	225.06
776.42	224.91
776.74	224.90
777.07	224.65
777.39	224.50
777.72	224.36
778.04	224.25
778.36	224.10
778.69	223.93
779.01	223.81
779.33	223.51
779.66	223.20
779.98	223.06
780.31	222.90
780.63	222.93
780.95	222.69
781.28	222.57
781.60	222.47
781.92	222.26
782.25	222.06
782.57	221.92
782.89	221.79
783.22	221.70
783.54	221.47
783.86	221.46
784.19	221.40
784.51	221.33
784.83	221.21
785.16	221.10
785.48	221.05
785.80	220.94
786.12	220.83
786.45	220.74
786.77	220.69
787.09	220.57
787.42	220.35
787.74	220.32
788.06	220.17
788.38	220.10
788.71	220.06
789.03	220.03
789.35	219.90
789.67	219.80
789.99	219.68
790.32	219.53
790.64	219.37
790.96	219.45
791.28	219.30
791.61	219.24
791.93	219.25
792.25	219.10
792.57	219.19
792.89	219.14
793.21	219.03
793.54	219.00
793.86	218.94
794.18	218.92
794.50	218.87
794.82	218.83
795.14	218.76
795.47	218.75
795.79	218.70
796.11	218.71
796.43	218.58
796.75	218.52
797.07	218.54
797.39	218.54
797.71	218.32
798.04	218.28
798.36	218.22
798.68	218.17
799.00	218.15
799.32	217.98
799.64	217.95
799.96	217.98
800.28	217.86
800.60	217.84
800.92	217.78
801.24	217.63
801.56	217.63
801.89	217.60
802.21	217.59
802.53	217.52
802.85	217.51
803.17	217.60
803.49	217.44
803.81	217.36
804.13	217.30
804.45	217.17
804.77	217.06
805.09	217.02
805.41	217.01
805.73	216.96
806.05	216.92
806.37	216.79
806.69	216.67
807.01	216.65
807.33	216.63
807.65	216.45
807.97	216.58
808.28	216.52
808.60	216.44
808.92	216.27
809.24	216.27
809.56	216.15
809.88	216.05
810.20	216.12
810.52	216.10
810.84	216.03
811.16	216.05
811.48	216.03
811.80	216.01
812.12	215.85
812.43	215.86
812.75	215.84
813.07	215.84
813.39	215.80
813.71	215.71
814.03	215.58
814.35	215.63
814.67	215.41
814.98	215.30
815.30	215.28
815.62	215.27
815.94	215.11
816.26	215.02
816.58	214.92
816.89	214.85
817.21	214.81
817.53	214.84
817.85	214.73
818.17	214.65
818.48	214.61
818.80	214.62
819.12	214.46
819.44	214.35
819.76	214.28
820.07	214.26
820.39	214.21
820.71	214.20
821.03	214.12
821.34	214.08
821.66	214.04
821.98	214.01
822.30	213.95
822.61	214.08
822.93	214.05
823.25	214.04
823.57	213.99
823.88	214.04
824.20	214.00
824.52	214.05
824.83	213.99
825.15	213.90
825.47	213.86
825.79	213.83
826.10	213.78
826.42	213.67
826.74	213.57
827.05	213.50
827.37	213.50
827.69	213.39
828.00	213.41
828.32	213.36
828.64	213.25
828.95	213.33
829.27	213.20
829.58	213.17
829.90	213.20
830.22	213.16
830.53	213.01
830.85	212.94
831.17	212.91
831.48	212.88
831.80	212.87
832.11	212.85
832.43	212.90
832.75	212.94
833.06	213.12
833.38	213.11
833.69	213.20
834.01	213.16
834.32	213.23
834.64	213.16
834.96	213.19
835.27	213.21
835.59	213.06
835.90	213.04
836.22	213.07
836.53	213.08
836.85	213.05
837.16	213.28
837.48	213.24
837.79	213.22
838.11	213.39
838.42	213.40
838.74	213.47
839.05	213.46
839.37	213.42
839.68	213.27
840.00	213.26
840.31	213.26
840.63	213.28
840.94	213.23
841.26	213.23
841.57	213.20
841.88	213.14
842.20	213.15
842.51	213.14
842.83	213.11
843.14	213.21
843.46	213.19
843.77	213.04
844.08	213.00
844.40	212.98
844.71	212.91
845.03	212.87
845.34	212.77
845.65	212.75
845.97	212.75
846.28	212.77
846.60	212.82
846.91	212.75
847.22	212.71
847.54	212.78
847.85	212.78
848.16	212.78
848.48	212.83
848.79	212.90
849.10	212.81
849.42	212.83
849.73	212.61
850.04	212.65
850.36	212.61
850.67	212.64
850.98	212.55
851.30	212.50
851.61	212.47
851.92	212.45
852.23	212.49
852.55	212.49
852.86	212.47
853.17	212.42
853.49	212.38
853.80	212.44
854.11	212.44
854.42	212.46
854.74	212.45
855.05	212.37
855.36	212.29
855.67	212.32
855.99	212.31
856.30	212.51
856.61	212.55
856.92	212.55
857.23	212.50
857.55	212.56
857.86	212.57
858.17	212.60
858.48	212.60
858.79	212.51
859.11	212.52
859.42	212.57
859.73	212.55
860.04	212.58
860.35	212.47
860.66	212.36
860.98	212.33
861.29	212.36
861.60	212.39
861.91	212.41
862.22	212.39
862.53	212.33
862.84	212.16
863.16	212.14
863.47	211.99
863.78	212.00
864.09	211.99
864.40	211.91
864.71	211.95
865.02	211.99
865.33	212.00
865.64	211.90
865.95	211.82
866.27	211.95
866.58	211.91
866.89	211.93
867.20	211.90
867.51	211.89
867.82	211.80
868.13	211.79
868.44	211.78
868.75	211.81
869.06	211.85
869.37	211.85
869.68	211.80
869.99	211.90
870.30	211.91
870.61	211.95
870.92	211.95
871.23	211.95
871.54	211.86
871.85	211.85
872.16	211.90
872.47	211.93
872.78	211.80
873.09	211.86
873.40	211.88
873.71	211.95
874.02	211.96
874.33	211.93
874.64	211.98
874.95	211.94
875.26	211.95
875.56	211.92
875.87	211.91
876.18	211.90
876.49	212.10
876.80	212.12
877.11	212.02
877.42	212.03
877.73	212.02
878.04	212.10
878.35	212.10
878.66	212.11
878.96	212.09
879.27	212.09
879.58	212.06
879.89	212.04
880.20	212.13
880.51	212.16
880.82	212.21
881.12	212.17
881.43	212.32
881.74	212.33
882.05	212.34
882.36	212.40
882.67	212.42
882.97	212.21
883.28	212.24
883.59	212.32
883.90	212.38
884.21	212.36
884.51	212.27
884.82	212.25
885.13	212.30
885.44	212.34
885.74	212.34
886.05	212.32
886.36	212.37
886.67	212.27
886.98	212.33
887.28	212.35
887.59	212.37
887.90	212.26
888.20	212.22
888.51	212.18
888.82	212.06
889.13	212.08
889.43	212.28
889.74	212.23
890.05	212.24
890.35	212.16
890.66	212.13
890.97	212.21
891.28	212.23
891.58	212.16
891.89	212.11
892.20	212.10
892.50	212.09
892.81	211.96
893.12	211.97
893.42	211.90
893.73	211.89
894.04	211.85
894.34	211.85
894.65	211.80
894.95	211.84
895.26	211.95
895.57	211.95
895.87	211.75
896.18	211.79
896.48	211.74
896.79	211.73
897.10	211.72
897.40	211.64
897.71	211.68
898.01	211.65
898.32	211.70
898.63	211.66
898.93	211.58
899.24	211.64
899.54	211.58
899.85	211.53
900.15	211.54
900.46	211.58
900.76	211.58
901.07	211.60
901.38	211.54
901.68	211.53
901.99	211.45
902.29	211.47
902.60	211.40
902.90	211.40
903.21	211.42
903.51	211.41
903.82	211.52
904.12	211.45
904.43	211.49
904.73	211.45
905.03	211.46
905.34	211.70
905.64	211.67
905.95	211.71
906.25	211.75
906.56	211.73
906.86	211.69
907.17	211.67
907.47	211.65
907.77	211.60
908.08	211.52
908.38	211.53
908.69	211.52
908.99	211.53
909.30	211.56
909.60	211.57
909.90	211.58
910.21	211.49
910.51	211.45
910.81	211.46
911.12	211.45
911.42	211.48
911.73	211.37
912.03	211.43
912.33	211.43
912.64	211.42
912.94	211.35
913.24	211.34
913.55	211.40
913.85	211.44
914.15	211.57
914.46	211.61
914.76	211.63
915.06	211.59
915.37	211.65
915.67	211.63
915.97	211.60
916.27	211.60
916.58	211.63
916.88	211.69
917.18	211.68
917.49	211.80
917.79	211.77
918.09	211.77
918.39	211.72
918.70	211.72
919.00	211.67
919.30	211.77
919.60	211.75
919.91	211.68
920.21	211.65
920.51	211.55
920.81	211.54
921.12	211.54
921.42	211.54
921.72	211.52
922.02	211.58
922.32	211.56
922.63	211.58
922.93	211.68
923.23	211.60
923.53	211.50
923.83	211.30
924.13	211.33
924.44	211.26
924.74	211.30
925.04	211.31
925.34	211.35
925.64	211.26
925.94	211.26
926.24	211.27
926.55	211.26
926.85	211.33
927.15	211.35
927.45	211.34
927.75	211.34
928.05	211.34
928.35	211.25
928.65	211.31
928.95	211.25
929.26	211.16
929.56	211.23
929.86	211.36
930.16	211.41
930.46	211.42
930.76	211.46
931.06	211.46
931.36	211.43
931.66	211.40
931.96	211.45
932.26	211.50
932.56	211.46
932.86	211.48
933.16	211.46
933.46	211.39
933.76	211.36
934.06	211.40
934.36	211.42
934.66	211.36
934.96	211.30
935.26	211.37
935.56	211.39
935.86	211.40
936.16	211.35
936.46	211.32
936.76	211.28
937.06	211.29
937.36	211.28
937.66	211.36
937.96	211.34
938.26	211.27
938.56	211.26
938.86	211.33
939.16	211.32
939.46	211.35
939.76	211.36
940.06	211.39
940.35	211.37
940.65	211.25
940.95	211.41
941.25	211.30
941.55	211.23
941.85	211.20
942.15	211.18
942.45	211.17
942.75	211.20
943.04	211.23
943.34	211.20
943.64	211.11
943.94	211.04
944.24	211.11
944.54	211.23
944.84	211.26
945.13	211.18
945.43	211.14
945.73	211.12
946.03	211.11
946.33	211.12
946.62	211.12
946.92	211.17
947.22	211.12
947.52	211.22
947.82	211.25
948.11	211.25
948.41	211.19
948.71	211.15
949.01	211.16
949.31	211.09
949.60	211.10
949.90	211.16
950.20	211.06
950.50	211.07
950.79	211.05
951.09	211.05
951.39	211.05
951.69	211.05
951.98	211.03
952.28	211.09
952.58	211.03
952.87	210.94
953.17	210.91
953.47	210.86
953.76	210.92
954.06	210.90
954.36	210.86
954.66	210.90
954.95	210.94
955.25	210.91
955.55	210.93
955.84	210.90
956.14	210.92
956.44	210.95
956.73	210.90
957.03	210.86
957.32	210.82
957.62	210.87
957.92	210.90
958.21	210.95
958.51	211.13
958.81	211.15
959.10	211.26
959.40	211.32
959.69	211.35
959.99	211.33
960.29	211.32
960.58	211.29
960.88	211.28
961.17	211.27
961.47	211.31
961.76	211.29
962.06	211.33
962.36	211.30
962.65	211.31
962.95	211.33
963.24	211.27
963.54	211.29
963.83	211.25
964.13	211.20
964.42	211.14
964.72	210.96
965.01	210.98
965.31	210.90
965.60	210.81
965.90	210.93
966.19	210.86
966.49	210.93
966.78	211.00
967.08	210.99
967.37	210.97
967.67	210.89
967.96	210.91
968.26	210.90
968.55	210.92
968.85	210.96
969.14	210.97
969.43	210.94
969.73	210.93
970.02	210.93
970.32	210.94
970.61	210.91
970.91	210.87
971.20	210.80
971.49	210.78
971.79	210.84
972.08	210.66
972.38	210.66
972.67	210.56
972.96	210.51
973.26	210.53
973.55	210.55
973.85	210.56
974.14	210.60
974.43	210.59
974.73	210.56
975.02	210.45
975.31	210.47
975.61	210.55
975.90	210.50
976.19	210.50
976.49	210.52
976.78	210.58
977.07	210.52
977.37	210.58
977.66	210.66
977.95	210.67
978.24	210.77
978.54	210.79
978.83	210.85
979.12	210.82
979.42	210.86
979.71	210.92
980.00	210.93
980.29	210.89
980.59	210.85
980.88	210.90
981.17	211.01
981.46	210.96
981.76	210.99
982.05	211.05
982.34	211.09
982.63	211.08
982.93	211.09
983.22	211.17
983.51	211.16
983.80	211.15
984.09	211.15
984.39	211.09
984.68	211.05
984.97	211.05
985.26	211.07
985.55	210.95
985.85	210.92
986.14	210.95
986.43	211.03
986.72	211.08
987.01	210.98
987.30	210.91
987.59	210.91
987.89	210.89
988.18	210.76
988.47	210.67
988.76	210.70
989.05	210.70
989.34	210.66
989.63	210.73
989.92	210.68
990.22	210.68
990.51	210.60
990.80	210.65
991.09	210.64
991.38	210.61
991.67	210.63
991.96	210.56
992.25	210.55
992.54	210.48
992.83	210.53
993.12	210.54
993.41	210.60
993.70	210.63
993.99	210.69
994.28	210.78
994.58	210.84
994.87	210.83
995.16	210.84
995.45	210.79
995.74	210.72
996.03	210.76
996.32	210.79
996.61	210.89
996.90	210.84
997.19	210.85
997.48	210.81
997.77	210.80
998.06	210.88
998.34	210.85
998.63	210.83
998.92	210.78
999.21	210.80
999.50	210.79
999.79	210.75
1000.08	210.74
1000.37	210.75
1000.66	210.71
1000.95	210.72
1001.24	210.67
1001.53	210.69
1001.82	210.62
1002.11	210.50
1002.40	210.50
1002.68	210.55
1002.97	210.69
1003.26	210.71
1003.55	210.73
1003.84	210.82
1004.13	210.80
1004.42	210.75
1004.71	210.68
1004.99	210.67
1005.28	210.68
1005.57	210.62
1005.86	210.66
1006.15	210.55
1006.44	210.53
1006.72	210.56
1007.01	210.45
1007.30	210.44
1007.59	210.44
1007.88	210.52
1008.17	210.56
1008.45	210.50
1008.74	210.44
1009.03	210.33
1009.32	210.30
1009.60	210.33
1009.89	210.23
1010.18	210.25
1010.47	210.29
1010.76	210.33
1011.04	210.29
1011.33	210.53
1011.62	210.56
1011.91	210.55
1012.19	210.57
1012.48	210.54
1012.77	210.50
1013.05	210.64
1013.34	210.75
1013.63	210.77
1013.92	210.75
1014.20	210.75
1014.49	210.79
1014.78	210.78
1015.06	210.77
1015.35	210.80
1015.64	210.79
1015.92	210.90
1016.21	210.87
1016.50	210.90
1016.78	210.91
1017.07	211.02
1017.36	210.83
1017.64	210.86
1017.93	210.85
1018.22	210.90
1018.50	210.97
1018.79	211.05
1019.08	210.99
1019.36	210.92
1019.65	210.90
1019.93	210.94
1020.22	211.08
1020.51	211.15
1020.79	211.13
1021.08	211.00
1021.36	211.40
1021.65	211.75
1021.94	211.05
1022.22	210.50
1022.51	210.10
1022.79	211.10
1023.08	212.65
1023.36	212.60
1023.65	210.25
>>>>>End Processed Spectral Data<<<<<
