SpectraSuite Data File
++++++++++++++++++++++++++++++++++++
Date: Mon Feb 25 17:35:56 EST 2013
User: group
Dark Spectrum Present: No
Reference Spectrum Present: No
Number of Sampled Component Spectra: 1
Spectrometers: USB2E7196
Integration Time (usec): 52000 (USB2E7196)
Spectra Averaged: 20 (USB2E7196)
Boxcar Smoothing: 10 (USB2E7196)
Correct for Electrical Dark: No (USB2E7196)
Strobe/Lamp Enabled: No (USB2E7196)
Correct for Detector Non-linearity: No (USB2E7196)
Correct for Stray Light: No (USB2E7196)
Number of Pixels in Processed Spectrum: 2048
>>>>>Begin Processed Spectral Data<<<<<
339.09	0.00
339.48	199.80
339.86	199.80
340.24	201.75
340.63	203.35
341.01	206.60
341.39	205.90
341.78	207.55
342.16	208.20
342.54	209.35
342.93	198.21
343.31	208.27
343.69	208.74
344.07	209.24
344.46	209.70
344.84	210.19
345.22	210.47
345.60	210.83
345.99	211.07
346.37	211.27
346.75	211.43
347.13	211.54
347.52	211.72
347.90	211.87
348.28	212.00
348.66	212.13
349.05	212.17
349.43	212.27
349.81	212.42
350.19	212.50
350.57	212.69
350.96	212.78
351.34	212.88
351.72	213.08
352.10	213.20
352.48	213.29
352.87	213.30
353.25	213.33
353.63	213.36
354.01	213.41
354.39	213.50
354.77	213.60
355.15	213.64
355.54	213.72
355.92	213.72
356.30	213.72
356.68	213.85
357.06	213.87
357.44	213.87
357.82	213.89
358.20	213.93
358.58	213.96
358.97	214.02
359.35	214.13
359.73	214.21
360.11	214.31
360.49	214.37
360.87	214.44
361.25	214.52
361.63	214.61
362.01	214.69
362.39	214.71
362.77	214.68
363.15	214.78
363.53	214.80
363.91	214.92
364.29	214.94
364.67	214.82
365.05	214.87
365.43	214.94
365.81	214.97
366.19	215.09
366.57	215.16
366.95	215.19
367.33	215.11
367.71	215.10
368.09	215.06
368.47	215.04
368.85	214.99
369.23	215.07
369.61	214.97
369.99	214.98
370.37	215.01
370.75	215.08
371.13	214.99
371.51	214.89
371.89	214.82
372.27	214.88
372.65	214.86
373.03	214.82
373.41	214.79
373.78	214.78
374.16	214.63
374.54	214.54
374.92	214.51
375.30	214.50
375.68	214.46
376.06	214.44
376.44	214.45
376.82	214.38
377.19	214.28
377.57	214.19
377.95	214.04
378.33	213.98
378.71	213.86
379.09	213.88
379.47	213.93
379.84	213.88
380.22	213.75
380.60	213.70
380.98	213.67
381.36	213.63
381.73	213.53
382.11	213.61
382.49	213.55
382.87	213.55
383.25	213.53
383.62	213.71
384.00	213.69
384.38	213.60
384.76	213.70
385.13	213.79
385.51	213.79
385.89	213.76
386.27	213.73
386.64	213.77
387.02	213.79
387.40	213.70
387.78	213.68
388.15	213.72
388.53	213.67
388.91	213.72
389.29	213.70
389.66	213.74
390.04	213.63
390.42	213.62
390.79	213.59
391.17	213.64
391.55	213.40
391.92	213.43
392.30	213.47
392.68	213.39
393.05	213.37
393.43	213.48
393.81	213.60
394.18	213.59
394.56	213.63
394.94	213.71
395.31	213.82
395.69	213.98
396.06	214.12
396.44	214.25
396.82	214.28
397.19	214.40
397.57	214.48
397.95	214.63
398.32	214.78
398.70	214.88
399.07	215.00
399.45	215.18
399.82	215.35
400.20	215.52
400.58	215.74
400.95	215.87
401.33	216.14
401.70	216.50
402.08	216.88
402.45	217.19
402.83	217.54
403.20	217.89
403.58	218.20
403.95	218.67
404.33	219.16
404.71	219.66
405.08	220.32
405.46	220.90
405.83	221.57
406.21	222.19
406.58	223.01
406.96	223.78
407.33	224.58
407.70	225.50
408.08	226.66
408.45	227.80
408.83	229.12
409.20	230.33
409.58	231.64
409.95	233.02
410.33	234.59
410.70	236.15
411.08	237.90
411.45	239.93
411.82	241.91
412.20	244.12
412.57	246.56
412.95	248.87
413.32	251.56
413.69	254.52
414.07	257.71
414.44	261.03
414.82	264.55
415.19	268.65
415.56	272.77
415.94	277.15
416.31	281.90
416.68	286.61
417.06	292.08
417.43	297.16
417.81	303.23
418.18	309.45
418.55	316.35
418.93	323.63
419.30	331.03
419.67	338.89
420.04	347.07
420.42	355.78
420.79	365.50
421.16	375.60
421.54	385.63
421.91	396.31
422.28	407.62
422.66	419.56
423.03	431.00
423.40	443.41
423.77	456.60
424.15	470.17
424.52	484.24
424.89	499.47
425.26	514.64
425.64	529.09
426.01	544.91
426.38	561.24
426.75	577.69
427.13	594.86
427.50	613.21
427.87	632.34
428.24	651.58
428.61	670.28
428.99	690.21
429.36	712.56
429.73	734.31
430.10	755.81
430.47	778.01
430.85	801.55
431.22	825.98
431.59	851.47
431.96	876.41
432.33	904.26
432.70	931.29
433.08	962.70
433.45	991.83
433.82	1021.27
434.19	1054.04
434.56	1086.30
434.93	1118.02
435.30	1149.16
435.68	1183.68
436.05	1217.73
436.42	1251.88
436.79	1283.21
437.16	1316.30
437.53	1350.90
437.90	1385.42
438.27	1419.17
438.64	1453.95
439.01	1486.30
439.38	1515.65
439.75	1544.00
440.13	1574.63
440.50	1603.78
440.87	1627.87
441.24	1653.52
441.61	1680.62
441.98	1701.16
442.35	1724.08
442.72	1746.69
443.09	1768.44
443.46	1782.51
443.83	1793.03
444.20	1802.32
444.57	1815.04
444.94	1821.71
445.31	1828.42
445.68	1834.03
446.05	1838.03
446.42	1837.30
446.79	1835.36
447.16	1833.50
447.53	1832.40
447.90	1823.60
448.27	1814.95
448.64	1801.00
449.01	1791.66
449.37	1773.76
449.74	1756.16
450.11	1734.86
450.48	1712.22
450.85	1689.31
451.22	1668.40
451.59	1647.16
451.96	1626.99
452.33	1599.42
452.70	1574.91
453.07	1545.25
453.43	1515.62
453.80	1486.17
454.17	1457.10
454.54	1430.15
454.91	1400.44
455.28	1371.63
455.65	1344.59
456.02	1315.56
456.38	1291.77
456.75	1262.02
457.12	1236.88
457.49	1211.62
457.86	1187.58
458.23	1165.37
458.59	1141.53
458.96	1118.01
459.33	1097.36
459.70	1076.27
460.07	1059.58
460.43	1040.25
460.80	1021.95
461.17	1005.83
461.54	989.08
461.91	973.16
462.27	956.76
462.64	942.91
463.01	927.54
463.38	912.40
463.74	898.74
464.11	885.56
464.48	874.12
464.85	861.68
465.21	851.73
465.58	841.35
465.95	829.38
466.32	818.89
466.68	808.56
467.05	798.23
467.42	787.97
467.78	777.36
468.15	767.24
468.52	759.71
468.88	750.07
469.25	741.21
469.62	733.88
469.98	726.21
470.35	718.89
470.72	711.74
471.08	704.50
471.45	697.82
471.82	691.13
472.18	684.07
472.55	678.67
472.92	672.46
473.28	666.90
473.65	661.63
474.02	656.33
474.38	651.67
474.75	647.65
475.11	643.45
475.48	639.91
475.85	636.75
476.21	633.49
476.58	630.61
476.94	628.19
477.31	625.31
477.67	622.72
478.04	620.64
478.41	619.05
478.77	617.39
479.14	615.73
479.50	614.64
479.87	613.87
480.23	613.06
480.60	612.20
480.96	611.36
481.33	611.14
481.69	611.04
482.06	610.70
482.42	609.94
482.79	609.69
483.15	610.31
483.52	611.26
483.88	612.03
484.25	612.84
484.61	613.75
484.98	614.88
485.34	616.34
485.71	617.99
486.07	619.82
486.44	621.49
486.80	623.76
487.17	625.97
487.53	628.58
487.90	631.35
488.26	634.19
488.62	637.49
488.99	640.64
489.35	644.02
489.72	647.95
490.08	652.35
490.44	656.45
490.81	660.45
491.17	664.25
491.54	668.49
491.90	672.97
492.26	677.86
492.63	683.02
492.99	688.19
493.36	693.34
493.72	699.04
494.08	704.69
494.45	710.57
494.81	716.79
495.17	723.02
495.54	729.51
495.90	736.22
496.26	742.59
496.63	749.43
496.99	756.24
497.35	763.10
497.72	770.22
498.08	777.30
498.44	784.30
498.80	792.08
499.17	799.74
499.53	807.38
499.89	815.02
500.26	822.22
500.62	829.33
500.98	836.93
501.34	844.09
501.71	851.69
502.07	859.01
502.43	866.42
502.79	873.51
503.16	880.60
503.52	887.76
503.88	894.81
504.24	901.90
504.60	909.06
504.97	916.14
505.33	922.85
505.69	930.13
506.05	937.10
506.41	943.38
506.78	949.47
507.14	955.38
507.50	961.15
507.86	966.90
508.22	972.59
508.59	977.55
508.95	982.68
509.31	987.54
509.67	992.35
510.03	996.56
510.39	1001.13
510.75	1005.02
511.12	1008.71
511.48	1012.18
511.84	1015.19
512.20	1017.82
512.56	1020.37
512.92	1022.83
513.28	1024.80
513.64	1026.62
514.00	1028.41
514.37	1030.12
514.73	1031.83
515.09	1033.25
515.45	1034.47
515.81	1035.64
516.17	1036.99
516.53	1037.76
516.89	1038.69
517.25	1039.22
517.61	1040.18
517.97	1040.75
518.33	1041.50
518.69	1042.42
519.05	1043.25
519.41	1044.26
519.77	1045.44
520.13	1046.34
520.49	1047.46
520.85	1048.60
521.21	1049.79
521.57	1051.39
521.93	1052.74
522.29	1054.56
522.65	1056.23
523.01	1058.21
523.37	1060.16
523.73	1062.07
524.09	1064.27
524.45	1066.55
524.81	1069.18
525.17	1071.83
525.53	1074.51
525.89	1077.64
526.25	1080.71
526.61	1083.93
526.97	1087.25
527.33	1090.76
527.68	1094.70
528.04	1098.55
528.40	1102.41
528.76	1106.69
529.12	1110.73
529.48	1115.31
529.84	1119.53
530.20	1124.25
530.56	1129.18
530.91	1134.26
531.27	1139.47
531.63	1144.79
531.99	1150.29
532.35	1155.79
532.71	1161.31
533.07	1167.50
533.42	1173.49
533.78	1179.50
534.14	1185.74
534.50	1192.03
534.86	1198.62
535.21	1204.82
535.57	1211.57
535.93	1218.43
536.29	1225.31
536.65	1232.57
537.00	1239.82
537.36	1247.35
537.72	1255.07
538.08	1262.74
538.44	1270.61
538.79	1278.88
539.15	1287.20
539.51	1295.69
539.87	1304.33
540.22	1313.09
540.58	1321.99
540.94	1331.00
541.29	1339.71
541.65	1348.42
542.01	1357.38
542.37	1366.26
542.72	1375.51
543.08	1384.59
543.44	1393.88
543.79	1402.72
544.15	1411.73
544.51	1420.95
544.87	1430.04
545.22	1438.81
545.58	1447.67
545.94	1456.35
546.29	1464.80
546.65	1473.21
547.01	1481.70
547.36	1490.28
547.72	1499.01
548.07	1507.40
548.43	1515.50
548.79	1523.92
549.14	1532.62
549.50	1541.28
549.86	1549.71
550.21	1558.31
550.57	1567.11
550.92	1575.61
551.28	1584.30
551.64	1593.05
551.99	1601.90
552.35	1610.45
552.70	1619.14
553.06	1628.11
553.41	1637.23
553.77	1646.45
554.13	1655.81
554.48	1665.07
554.84	1674.12
555.19	1682.41
555.55	1691.14
555.90	1699.63
556.26	1708.59
556.61	1716.92
556.97	1724.81
557.32	1733.52
557.68	1741.79
558.03	1749.86
558.39	1757.97
558.74	1766.50
559.10	1774.40
559.45	1782.52
559.81	1791.07
560.16	1799.13
560.52	1806.93
560.87	1814.82
561.23	1822.25
561.58	1829.81
561.94	1836.96
562.29	1844.08
562.64	1852.00
563.00	1859.62
563.35	1867.46
563.71	1875.05
564.06	1882.91
564.42	1891.03
564.77	1898.65
565.12	1906.28
565.48	1913.74
565.83	1921.16
566.19	1928.52
566.54	1935.67
566.89	1942.42
567.25	1949.38
567.60	1956.18
567.96	1963.33
568.31	1970.11
568.66	1976.89
569.02	1983.53
569.37	1990.13
569.72	1997.18
570.08	2003.52
570.43	2009.20
570.78	2015.10
571.14	2020.54
571.49	2025.83
571.84	2031.24
572.20	2036.38
572.55	2041.49
572.90	2046.31
573.26	2051.15
573.61	2055.58
573.96	2060.59
574.31	2064.95
574.67	2069.13
575.02	2073.21
575.37	2076.78
575.72	2080.10
576.08	2084.03
576.43	2087.14
576.78	2090.58
577.13	2093.91
577.49	2097.09
577.84	2100.62
578.19	2103.95
578.54	2107.71
578.90	2111.50
579.25	2114.05
579.60	2115.96
579.95	2118.13
580.30	2121.21
580.66	2123.81
581.01	2125.87
581.36	2127.39
581.71	2129.54
582.06	2131.68
582.42	2134.06
582.77	2135.70
583.12	2137.37
583.47	2138.98
583.82	2140.92
584.17	2142.03
584.53	2143.16
584.88	2144.33
585.23	2145.28
585.58	2145.99
585.93	2146.64
586.28	2147.18
586.63	2148.46
586.98	2150.03
587.34	2151.60
587.69	2152.01
588.04	2152.70
588.39	2153.96
588.74	2154.55
589.09	2154.86
589.44	2154.45
589.79	2154.58
590.14	2155.15
590.49	2155.40
590.84	2155.06
591.19	2155.51
591.54	2155.46
591.89	2154.41
592.25	2154.04
592.60	2153.57
592.95	2152.59
593.30	2151.61
593.65	2150.49
594.00	2149.43
594.35	2149.10
594.70	2147.91
595.05	2147.35
595.40	2146.15
595.75	2144.27
596.10	2143.22
596.45	2142.26
596.80	2142.14
597.15	2141.31
597.50	2140.08
597.85	2139.17
598.19	2138.18
598.54	2137.05
598.89	2136.79
599.24	2137.01
599.59	2136.56
599.94	2136.21
600.29	2135.90
600.64	2135.26
600.99	2133.94
601.34	2133.22
601.69	2131.11
602.04	2129.89
602.39	2128.61
602.74	2127.59
603.08	2127.41
603.43	2127.18
603.78	2126.18
604.13	2124.65
604.48	2123.30
604.83	2122.79
605.18	2122.19
605.53	2120.75
605.87	2119.10
606.22	2117.45
606.57	2115.97
606.92	2114.03
607.27	2112.21
607.62	2111.34
607.96	2110.34
608.31	2110.29
608.66	2108.70
609.01	2107.32
609.36	2105.24
609.70	2102.62
610.05	2100.25
610.40	2097.22
610.75	2093.96
611.10	2091.03
611.44	2086.88
611.79	2082.92
612.14	2078.18
612.49	2073.23
612.83	2069.19
613.18	2064.64
613.53	2060.16
613.88	2054.75
614.22	2049.93
614.57	2044.67
614.92	2038.80
615.27	2032.81
615.61	2026.61
615.96	2021.29
616.31	2016.65
616.65	2012.13
617.00	2007.47
617.35	2002.90
617.70	1998.09
618.04	1992.93
618.39	1987.61
618.74	1983.28
619.08	1978.18
619.43	1973.75
619.78	1969.49
620.12	1965.05
620.47	1960.55
620.82	1954.69
621.16	1949.39
621.51	1943.83
621.85	1938.70
622.20	1932.90
622.55	1927.00
622.89	1921.28
623.24	1915.78
623.59	1909.28
623.93	1903.02
624.28	1897.33
624.62	1890.94
624.97	1884.47
625.32	1878.03
625.66	1871.98
626.01	1866.03
626.35	1860.68
626.70	1854.64
627.04	1848.59
627.39	1842.30
627.73	1836.00
628.08	1830.83
628.43	1824.88
628.77	1819.39
629.12	1813.42
629.46	1808.27
629.81	1802.52
630.15	1796.15
630.50	1789.64
630.84	1782.94
631.19	1776.40
631.53	1769.64
631.88	1762.73
632.22	1756.07
632.57	1750.31
632.91	1743.69
633.26	1737.05
633.60	1730.32
633.95	1724.31
634.29	1718.00
634.64	1712.55
634.98	1706.35
635.32	1700.38
635.67	1695.05
636.01	1689.58
636.36	1683.56
636.70	1677.66
637.05	1671.95
637.39	1666.72
637.73	1661.35
638.08	1656.90
638.42	1652.09
638.77	1646.95
639.11	1641.85
639.45	1636.71
639.80	1630.41
640.14	1624.88
640.49	1619.03
640.83	1613.20
641.17	1606.84
641.52	1600.65
641.86	1593.98
642.20	1588.00
642.55	1581.21
642.89	1574.32
643.23	1567.07
643.58	1560.70
643.92	1553.74
644.26	1547.35
644.61	1540.89
644.95	1533.84
645.29	1526.69
645.64	1519.35
645.98	1512.40
646.32	1505.68
646.66	1498.50
647.01	1491.85
647.35	1485.16
647.69	1477.80
648.04	1471.21
648.38	1464.24
648.72	1457.45
649.06	1450.33
649.41	1443.07
649.75	1436.05
650.09	1429.04
650.43	1422.27
650.78	1415.03
651.12	1407.81
651.46	1400.68
651.80	1393.52
652.14	1386.88
652.49	1379.96
652.83	1372.80
653.17	1365.26
653.51	1358.11
653.85	1351.42
654.20	1344.41
654.54	1337.31
654.88	1330.54
655.22	1322.55
655.56	1314.87
655.90	1307.03
656.25	1299.40
656.59	1292.33
656.93	1285.53
657.27	1278.70
657.61	1271.53
657.95	1264.60
658.29	1257.57
658.64	1250.67
658.98	1243.51
659.32	1236.02
659.66	1228.95
660.00	1221.90
660.34	1214.91
660.68	1207.49
661.02	1199.77
661.36	1192.88
661.70	1185.87
662.05	1179.42
662.39	1173.36
662.73	1167.20
663.07	1160.99
663.41	1154.98
663.75	1148.60
664.09	1141.69
664.43	1134.79
664.77	1128.14
665.11	1121.64
665.45	1115.43
665.79	1108.66
666.13	1102.12
666.47	1096.10
666.81	1089.94
667.15	1083.64
667.49	1077.65
667.83	1071.82
668.17	1066.19
668.51	1060.62
668.85	1055.07
669.19	1049.05
669.53	1042.84
669.87	1036.68
670.21	1030.95
670.55	1024.63
670.89	1018.85
671.23	1013.44
671.57	1007.86
671.91	1002.17
672.25	996.43
672.58	990.57
672.92	985.35
673.26	980.11
673.60	974.31
673.94	968.57
674.28	963.25
674.62	958.01
674.96	952.79
675.30	947.72
675.64	942.24
675.97	936.79
676.31	931.93
676.65	927.11
676.99	922.65
677.33	917.55
677.67	912.60
678.01	907.25
678.34	901.97
678.68	897.10
679.02	891.89
679.36	886.73
679.70	881.71
680.04	876.36
680.37	870.99
680.71	866.18
681.05	861.38
681.39	856.41
681.73	851.41
682.06	846.53
682.40	841.57
682.74	836.34
683.08	831.30
683.42	826.00
683.75	820.89
684.09	815.69
684.43	810.79
684.77	805.69
685.10	800.61
685.44	795.57
685.78	790.40
686.12	785.94
686.45	781.25
686.79	776.55
687.13	772.23
687.46	768.12
687.80	763.68
688.14	758.95
688.48	754.51
688.81	749.63
689.15	745.02
689.49	740.28
689.82	735.52
690.16	730.56
690.50	725.83
690.83	721.10
691.17	716.07
691.51	711.27
691.84	706.75
692.18	702.47
692.52	698.27
692.85	694.31
693.19	690.10
693.52	685.83
693.86	681.59
694.20	677.09
694.53	672.34
694.87	667.81
695.21	663.56
695.54	659.01
695.88	654.67
696.21	650.29
696.55	646.02
696.88	642.13
697.22	638.28
697.56	634.60
697.89	630.75
698.23	627.15
698.56	623.44
698.90	619.85
699.23	615.84
699.57	611.76
699.90	607.58
700.24	603.40
700.58	599.49
700.91	595.65
701.25	591.95
701.58	588.38
701.92	584.57
702.25	580.81
702.59	577.24
702.92	573.79
703.26	570.31
703.59	567.05
703.93	563.73
704.26	560.23
704.60	556.72
704.93	553.31
705.26	549.91
705.60	546.53
705.93	543.16
706.27	540.24
706.60	537.19
706.94	534.15
707.27	531.01
707.61	528.00
707.94	524.80
708.27	521.48
708.61	518.35
708.94	515.38
709.28	512.37
709.61	509.55
709.94	506.75
710.28	503.70
710.61	500.80
710.95	497.86
711.28	495.26
711.61	492.54
711.95	489.99
712.28	487.28
712.61	484.64
712.95	482.00
713.28	479.24
713.61	476.57
713.95	474.04
714.28	471.63
714.61	468.93
714.95	466.65
715.28	464.27
715.61	461.66
715.95	459.08
716.28	456.50
716.61	453.85
716.95	451.31
717.28	448.93
717.61	446.58
717.94	444.27
718.28	441.86
718.61	439.50
718.94	437.20
719.27	434.92
719.61	432.75
719.94	430.74
720.27	428.54
720.60	426.49
720.94	424.35
721.27	422.23
721.60	420.50
721.93	418.40
722.27	416.55
722.60	414.84
722.93	413.08
723.26	411.52
723.59	409.75
723.93	407.94
724.26	406.21
724.59	404.32
724.92	402.67
725.25	401.00
725.59	399.36
725.92	397.69
726.25	396.00
726.58	394.30
726.91	392.46
727.24	390.76
727.57	389.05
727.91	387.15
728.24	385.50
728.57	383.69
728.90	382.14
729.23	380.53
729.56	378.90
729.89	377.24
730.22	375.49
730.55	373.98
730.89	372.38
731.22	370.73
731.55	369.31
731.88	367.67
732.21	366.11
732.54	364.54
732.87	362.97
733.20	361.45
733.53	359.87
733.86	358.36
734.19	356.89
734.52	355.52
734.85	354.41
735.18	353.05
735.51	351.64
735.84	350.26
736.17	348.85
736.50	347.24
736.83	346.11
737.16	344.88
737.49	343.55
737.82	342.22
738.15	340.97
738.48	339.57
738.81	338.25
739.14	336.93
739.47	335.52
739.80	334.24
740.13	332.99
740.46	331.72
740.79	330.50
741.12	329.28
741.45	327.95
741.78	326.64
742.11	325.40
742.44	324.24
742.77	323.01
743.10	321.84
743.43	320.80
743.75	319.41
744.08	318.26
744.41	317.04
744.74	315.92
745.07	314.85
745.40	313.93
745.73	312.91
746.06	311.84
746.39	310.78
746.71	309.73
747.04	308.64
747.37	307.69
747.70	306.69
748.03	305.59
748.36	304.62
748.68	303.55
749.01	302.56
749.34	301.59
749.67	300.64
750.00	299.66
750.33	298.83
750.65	297.95
750.98	296.83
751.31	295.90
751.64	294.93
751.97	294.02
752.29	293.02
752.62	292.04
752.95	291.12
753.28	290.19
753.60	289.20
753.93	288.38
754.26	287.48
754.59	286.53
754.91	285.74
755.24	284.85
755.57	283.96
755.90	283.11
756.22	282.23
756.55	281.39
756.88	280.60
757.20	279.65
757.53	278.82
757.86	278.01
758.19	277.22
758.51	276.44
758.84	275.62
759.17	274.87
759.49	274.13
759.82	273.55
760.15	272.89
760.47	272.15
760.80	271.31
761.13	270.58
761.45	269.93
761.78	269.18
762.11	268.48
762.43	267.88
762.76	267.22
763.08	266.55
763.41	265.91
763.74	265.25
764.06	264.66
764.39	264.02
764.71	263.47
765.04	262.83
765.37	262.32
765.69	261.74
766.02	261.14
766.34	260.60
766.67	259.88
767.00	259.41
767.32	259.07
767.65	258.77
767.97	258.16
768.30	257.61
768.62	257.16
768.95	256.72
769.27	256.10
769.60	255.66
769.92	255.14
770.25	254.60
770.57	254.11
770.90	253.64
771.22	253.12
771.55	252.62
771.87	252.25
772.20	251.73
772.52	251.38
772.85	251.10
773.17	250.63
773.50	250.29
773.82	249.72
774.15	249.06
774.47	248.51
774.80	248.05
775.12	247.64
775.45	247.20
775.77	246.77
776.09	246.42
776.42	245.95
776.74	245.66
777.07	245.27
777.39	244.85
777.72	244.46
778.04	244.09
778.36	243.78
778.69	243.46
779.01	243.16
779.33	242.68
779.66	242.16
779.98	241.85
780.31	241.40
780.63	241.20
780.95	241.00
781.28	240.61
781.60	240.44
781.92	240.13
782.25	239.80
782.57	239.53
782.89	239.25
783.22	239.06
783.54	238.75
783.86	238.46
784.19	238.15
784.51	237.91
784.83	237.70
785.16	237.49
785.48	237.21
785.80	236.92
786.12	236.77
786.45	236.52
786.77	236.24
787.09	236.04
787.42	235.73
787.74	235.46
788.06	235.25
788.38	234.96
788.71	234.73
789.03	234.59
789.35	234.38
789.67	234.08
789.99	233.90
790.32	233.67
790.64	233.49
790.96	233.46
791.28	233.20
791.61	232.94
791.93	232.65
792.25	232.42
792.57	232.37
792.89	232.05
793.21	231.81
793.54	231.60
793.86	231.39
794.18	231.19
794.50	230.94
794.82	230.80
795.14	230.60
795.47	230.41
795.79	230.14
796.11	229.85
796.43	229.75
796.75	229.50
797.07	229.26
797.39	229.10
797.71	228.80
798.04	228.65
798.36	228.46
798.68	228.33
799.00	228.10
799.32	227.77
799.64	227.67
799.96	227.57
800.28	227.41
800.60	227.20
800.92	227.06
801.24	226.87
801.56	226.68
801.89	226.53
802.21	226.35
802.53	226.17
802.85	226.18
803.17	226.04
803.49	225.83
803.81	225.65
804.13	225.45
804.45	225.31
804.77	225.13
805.09	225.08
805.41	224.93
805.73	224.79
806.05	224.68
806.37	224.50
806.69	224.34
807.01	224.18
807.33	224.13
807.65	223.87
807.97	223.90
808.28	223.73
808.60	223.59
808.92	223.47
809.24	223.44
809.56	223.25
809.88	223.03
810.20	222.89
810.52	222.82
810.84	222.70
811.16	222.51
811.48	222.39
811.80	222.30
812.12	222.19
812.43	222.08
812.75	221.95
813.07	221.82
813.39	221.73
813.71	221.64
814.03	221.45
814.35	221.32
814.67	221.16
814.98	221.06
815.30	220.95
815.62	220.75
815.94	220.59
816.26	220.45
816.58	220.41
816.89	220.31
817.21	220.25
817.53	220.14
817.85	220.05
818.17	219.94
818.48	219.74
818.80	219.62
819.12	219.46
819.44	219.40
819.76	219.31
820.07	219.25
820.39	219.13
820.71	219.08
821.03	219.05
821.34	218.92
821.66	218.86
821.98	218.82
822.30	218.74
822.61	218.74
822.93	218.65
823.25	218.63
823.57	218.56
823.88	218.49
824.20	218.38
824.52	218.30
824.83	218.21
825.15	218.12
825.47	218.07
825.79	218.07
826.10	217.89
826.42	217.80
826.74	217.68
827.05	217.66
827.37	217.54
827.69	217.44
828.00	217.38
828.32	217.26
828.64	217.11
828.95	217.20
829.27	217.14
829.58	217.06
829.90	216.98
830.22	216.93
830.53	216.81
830.85	216.77
831.17	216.70
831.48	216.67
831.80	216.56
832.11	216.41
832.43	216.31
832.75	216.20
833.06	216.29
833.38	216.18
833.69	216.07
834.01	216.06
834.32	216.03
834.64	215.92
834.96	215.84
835.27	215.73
835.59	215.54
835.90	215.37
836.22	215.31
836.53	215.21
836.85	215.10
837.16	215.21
837.48	215.19
837.79	215.24
838.11	215.19
838.42	215.20
838.74	215.29
839.05	215.28
839.37	215.32
839.68	215.05
840.00	215.02
840.31	214.98
840.63	214.86
840.94	214.78
841.26	214.80
841.57	214.77
841.88	214.86
842.20	214.84
842.51	214.71
842.83	214.67
843.14	214.75
843.46	214.75
843.77	214.61
844.08	214.55
844.40	214.47
844.71	214.43
845.03	214.33
845.34	214.14
845.65	214.05
845.97	213.93
846.28	213.96
846.60	213.96
846.91	213.97
847.22	214.01
847.54	214.07
847.85	214.01
848.16	214.03
848.48	213.96
848.79	213.98
849.10	213.91
849.42	213.95
849.73	213.79
850.04	213.75
850.36	213.67
850.67	213.65
850.98	213.58
851.30	213.60
851.61	213.62
851.92	213.62
852.23	213.68
852.55	213.71
852.86	213.67
853.17	213.61
853.49	213.58
853.80	213.59
854.11	213.55
854.42	213.56
854.74	213.43
855.05	213.41
855.36	213.35
855.67	213.46
855.99	213.39
856.30	213.50
856.61	213.48
856.92	213.49
857.23	213.49
857.55	213.45
857.86	213.41
858.17	213.36
858.48	213.39
858.79	213.28
859.11	213.32
859.42	213.28
859.73	213.26
860.04	213.20
860.35	213.15
860.66	213.11
860.98	213.06
861.29	213.09
861.60	213.01
861.91	213.06
862.22	213.04
862.53	212.95
862.84	212.81
863.16	212.80
863.47	212.75
863.78	212.67
864.09	212.64
864.40	212.61
864.71	212.65
865.02	212.61
865.33	212.61
865.64	212.54
865.95	212.53
866.27	212.60
866.58	212.62
866.89	212.62
867.20	212.56
867.51	212.50
867.82	212.51
868.13	212.62
868.44	212.58
868.75	212.58
869.06	212.60
869.37	212.61
869.68	212.56
869.99	212.62
870.30	212.65
870.61	212.66
870.92	212.63
871.23	212.58
871.54	212.62
871.85	212.64
872.16	212.70
872.47	212.70
872.78	212.58
873.09	212.51
873.40	212.45
873.71	212.43
874.02	212.48
874.33	212.46
874.64	212.38
874.95	212.34
875.26	212.27
875.56	212.27
875.87	212.25
876.18	212.25
876.49	212.35
876.80	212.38
877.11	212.33
877.42	212.34
877.73	212.37
878.04	212.27
878.35	212.31
878.66	212.24
878.96	212.28
879.27	212.27
879.58	212.28
879.89	212.28
880.20	212.37
880.51	212.32
880.82	212.28
881.12	212.26
881.43	212.22
881.74	212.22
882.05	212.24
882.36	212.22
882.67	212.21
882.97	212.06
883.28	211.99
883.59	212.02
883.90	211.98
884.21	211.95
884.51	211.99
884.82	211.92
885.13	211.92
885.44	211.84
885.74	211.84
886.05	211.93
886.36	211.88
886.67	211.80
886.98	211.92
887.28	212.05
887.59	212.08
887.90	212.08
888.20	212.08
888.51	212.12
888.82	212.08
889.13	212.14
889.43	212.23
889.74	212.23
890.05	212.15
890.35	212.15
890.66	212.17
890.97	212.11
891.28	212.07
891.58	212.11
891.89	212.10
892.20	212.14
892.50	212.03
892.81	212.07
893.12	212.11
893.42	212.00
893.73	211.94
894.04	211.95
894.34	211.96
894.65	212.00
894.95	211.93
895.26	211.99
895.57	212.04
895.87	211.91
896.18	211.95
896.48	212.02
896.79	212.02
897.10	212.02
897.40	212.13
897.71	212.20
898.01	212.18
898.32	212.28
898.63	212.22
898.93	212.33
899.24	212.31
899.54	212.32
899.85	212.28
900.15	212.28
900.46	212.27
900.76	212.36
901.07	212.34
901.38	212.37
901.68	212.34
901.99	212.22
902.29	212.25
902.60	212.19
902.90	212.19
903.21	212.17
903.51	212.13
903.82	212.13
904.12	212.07
904.43	212.08
904.73	211.98
905.03	212.00
905.34	212.09
905.64	212.08
905.95	212.05
906.25	212.11
906.56	212.07
906.86	212.03
907.17	211.91
907.47	211.83
907.77	211.85
908.08	211.81
908.38	211.84
908.69	211.82
908.99	211.89
909.30	211.88
909.60	211.90
909.90	211.98
910.21	211.86
910.51	211.88
910.81	211.84
911.12	211.91
911.42	211.91
911.73	211.73
912.03	211.72
912.33	211.77
912.64	211.70
912.94	211.68
913.24	211.67
913.55	211.66
913.85	211.66
914.15	211.61
914.46	211.65
914.76	211.64
915.06	211.62
915.37	211.53
915.67	211.48
915.97	211.41
916.27	211.28
916.58	211.35
916.88	211.34
917.18	211.35
917.49	211.46
917.79	211.44
918.09	211.41
918.39	211.43
918.70	211.40
919.00	211.45
919.30	211.49
919.60	211.49
919.91	211.53
920.21	211.65
920.51	211.70
920.81	211.68
921.12	211.64
921.42	211.62
921.72	211.69
922.02	211.66
922.32	211.75
922.63	211.85
922.93	211.93
923.23	211.97
923.53	211.92
923.83	211.78
924.13	211.77
924.44	211.78
924.74	211.90
925.04	211.92
925.34	211.90
925.64	211.86
925.94	211.85
926.24	211.90
926.55	211.81
926.85	211.82
927.15	211.77
927.45	211.82
927.75	211.82
928.05	211.81
928.35	211.82
928.65	211.79
928.95	211.81
929.26	211.67
929.56	211.65
929.86	211.66
930.16	211.65
930.46	211.65
930.76	211.65
931.06	211.50
931.36	211.41
931.66	211.47
931.96	211.50
932.26	211.50
932.56	211.40
932.86	211.37
933.16	211.37
933.46	211.40
933.76	211.38
934.06	211.45
934.36	211.48
934.66	211.54
934.96	211.52
935.26	211.50
935.56	211.55
935.86	211.50
936.16	211.56
936.46	211.52
936.76	211.51
937.06	211.53
937.36	211.51
937.66	211.52
937.96	211.42
938.26	211.39
938.56	211.39
938.86	211.50
939.16	211.62
939.46	211.59
939.76	211.55
940.06	211.65
940.35	211.60
940.65	211.55
940.95	211.55
941.25	211.56
941.55	211.51
941.85	211.54
942.15	211.61
942.45	211.56
942.75	211.58
943.04	211.55
943.34	211.60
943.64	211.60
943.94	211.54
944.24	211.58
944.54	211.59
944.84	211.55
945.13	211.48
945.43	211.34
945.73	211.33
946.03	211.36
946.33	211.29
946.62	211.28
946.92	211.26
947.22	211.29
947.52	211.22
947.82	211.24
948.11	211.22
948.41	211.20
948.71	211.20
949.01	211.22
949.31	211.23
949.60	211.14
949.90	211.12
950.20	211.18
950.50	211.14
950.79	211.14
951.09	211.17
951.39	211.16
951.69	211.20
951.98	211.21
952.28	211.17
952.58	211.09
952.87	211.07
953.17	211.07
953.47	210.97
953.76	210.97
954.06	210.94
954.36	210.89
954.66	210.81
954.95	210.84
955.25	210.86
955.55	210.78
955.84	210.80
956.14	210.84
956.44	210.88
956.73	210.89
957.03	210.93
957.32	210.94
957.62	210.89
957.92	210.88
958.21	210.82
958.51	211.07
958.81	211.05
959.10	211.05
959.40	211.11
959.69	211.20
959.99	211.22
960.29	211.23
960.58	211.26
960.88	211.32
961.17	211.30
961.47	211.29
961.76	211.29
962.06	211.27
962.36	211.27
962.65	211.21
962.95	211.16
963.24	211.11
963.54	211.09
963.83	211.10
964.13	211.17
964.42	211.13
964.72	210.95
965.01	211.02
965.31	210.98
965.60	210.84
965.90	210.87
966.19	210.85
966.49	210.86
966.78	210.80
967.08	210.86
967.37	210.88
967.67	210.81
967.96	210.91
968.26	210.99
968.55	210.98
968.85	210.98
969.14	211.03
969.43	210.99
969.73	211.02
970.02	211.01
970.32	210.95
970.61	211.03
970.91	210.92
971.20	210.94
971.49	210.96
971.79	210.96
972.08	210.81
972.38	210.79
972.67	210.70
972.96	210.70
973.26	210.61
973.55	210.61
973.85	210.63
974.14	210.63
974.43	210.65
974.73	210.67
975.02	210.70
975.31	210.67
975.61	210.73
975.90	210.66
976.19	210.67
976.49	210.68
976.78	210.63
977.07	210.66
977.37	210.68
977.66	210.67
977.95	210.70
978.24	210.72
978.54	210.75
978.83	210.78
979.12	210.80
979.42	210.82
979.71	210.93
980.00	210.91
980.29	210.85
980.59	210.73
980.88	210.77
981.17	210.73
981.46	210.73
981.76	210.72
982.05	210.86
982.34	210.85
982.63	210.86
982.93	210.92
983.22	211.07
983.51	211.03
983.80	211.05
984.09	211.09
984.39	211.09
984.68	211.12
984.97	211.09
985.26	211.08
985.55	211.11
985.85	211.00
986.14	211.02
986.43	211.07
986.72	211.07
987.01	210.99
987.30	211.01
987.59	211.05
987.89	211.05
988.18	210.92
988.47	210.86
988.76	210.81
989.05	210.78
989.34	210.66
989.63	210.67
989.92	210.68
990.22	210.66
990.51	210.70
990.80	210.67
991.09	210.71
991.38	210.74
991.67	210.68
991.96	210.59
992.25	210.62
992.54	210.60
992.83	210.63
993.12	210.65
993.41	210.59
993.70	210.65
993.99	210.62
994.28	210.70
994.58	210.78
994.87	210.79
995.16	210.74
995.45	210.74
995.74	210.69
996.03	210.64
996.32	210.65
996.61	210.64
996.90	210.72
997.19	210.69
997.48	210.67
997.77	210.64
998.06	210.69
998.34	210.68
998.63	210.67
998.92	210.70
999.21	210.71
999.50	210.81
999.79	210.67
1000.08	210.74
1000.37	210.67
1000.66	210.60
1000.95	210.65
1001.24	210.69
1001.53	210.73
1001.82	210.67
1002.11	210.65
1002.40	210.62
1002.68	210.68
1002.97	210.70
1003.26	210.69
1003.55	210.72
1003.84	210.79
1004.13	210.86
1004.42	210.86
1004.71	210.87
1004.99	210.86
1005.28	210.86
1005.57	210.75
1005.86	210.77
1006.15	210.72
1006.44	210.71
1006.72	210.77
1007.01	210.69
1007.30	210.68
1007.59	210.60
1007.88	210.65
1008.17	210.71
1008.45	210.75
1008.74	210.71
1009.03	210.65
1009.32	210.71
1009.60	210.69
1009.89	210.60
1010.18	210.51
1010.47	210.41
1010.76	210.41
1011.04	210.38
1011.33	210.40
1011.62	210.47
1011.91	210.49
1012.19	210.56
1012.48	210.61
1012.77	210.65
1013.05	210.80
1013.34	210.80
1013.63	210.86
1013.92	210.86
1014.20	210.82
1014.49	210.87
1014.78	210.88
1015.06	210.81
1015.35	210.78
1015.64	210.74
1015.92	210.80
1016.21	210.79
1016.50	210.88
1016.78	210.89
1017.07	210.95
1017.36	210.95
1017.64	210.90
1017.93	210.93
1018.22	210.84
1018.50	210.85
1018.79	210.81
1019.08	210.66
1019.36	210.72
1019.65	210.70
1019.93	210.73
1020.22	210.75
1020.51	210.76
1020.79	210.75
1021.08	210.50
1021.36	212.00
1021.65	210.45
1021.94	210.00
1022.22	212.05
1022.51	210.55
1022.79	210.60
1023.08	210.35
1023.36	212.25
1023.65	211.10
>>>>>End Processed Spectral Data<<<<<
