SpectraSuite Data File
++++++++++++++++++++++++++++++++++++
Date: Mon Feb 25 17:35:58 EST 2013
User: group
Dark Spectrum Present: No
Reference Spectrum Present: No
Number of Sampled Component Spectra: 1
Spectrometers: USB2E7196
Integration Time (usec): 52000 (USB2E7196)
Spectra Averaged: 20 (USB2E7196)
Boxcar Smoothing: 10 (USB2E7196)
Correct for Electrical Dark: No (USB2E7196)
Strobe/Lamp Enabled: No (USB2E7196)
Correct for Detector Non-linearity: No (USB2E7196)
Correct for Stray Light: No (USB2E7196)
Number of Pixels in Processed Spectrum: 2048
>>>>>Begin Processed Spectral Data<<<<<
339.09	0.00
339.48	199.25
339.86	198.70
340.24	200.40
340.63	202.40
341.01	206.65
341.39	205.50
341.78	205.80
342.16	209.20
342.54	208.10
342.93	197.97
343.31	207.95
343.69	208.46
344.07	209.05
344.46	209.65
344.84	210.10
345.22	210.40
345.60	210.74
345.99	211.09
346.37	211.25
346.75	211.51
347.13	211.79
347.52	211.96
347.90	212.14
348.28	212.22
348.66	212.43
349.05	212.50
349.43	212.80
349.81	212.99
350.19	213.11
350.57	213.36
350.96	213.53
351.34	213.80
351.72	214.01
352.10	214.23
352.48	214.32
352.87	214.43
353.25	214.56
353.63	214.72
354.01	214.85
354.39	214.98
354.77	215.13
355.15	215.22
355.54	215.25
355.92	215.34
356.30	215.45
356.68	215.60
357.06	215.65
357.44	215.58
357.82	215.69
358.20	215.81
358.58	215.81
358.97	215.85
359.35	215.92
359.73	215.96
360.11	216.02
360.49	216.10
360.87	216.23
361.25	216.27
361.63	216.32
362.01	216.37
362.39	216.42
362.77	216.37
363.15	216.36
363.53	216.43
363.91	216.45
364.29	216.40
364.67	216.26
365.05	216.30
365.43	216.38
365.81	216.38
366.19	216.50
366.57	216.66
366.95	216.69
367.33	216.67
367.71	216.74
368.09	216.77
368.47	216.80
368.85	216.73
369.23	216.79
369.61	216.72
369.99	216.71
370.37	216.70
370.75	216.82
371.13	216.75
371.51	216.72
371.89	216.67
372.27	216.67
372.65	216.72
373.03	216.70
373.41	216.65
373.78	216.58
374.16	216.36
374.54	216.15
374.92	216.08
375.30	216.08
375.68	216.01
376.06	215.95
376.44	215.93
376.82	215.84
377.19	215.72
377.57	215.65
377.95	215.63
378.33	215.59
378.71	215.40
379.09	215.39
379.47	215.39
379.84	215.35
380.22	215.38
380.60	215.20
380.98	215.10
381.36	215.06
381.73	215.00
382.11	215.00
382.49	215.09
382.87	215.11
383.25	215.08
383.62	215.24
384.00	215.14
384.38	215.04
384.76	215.13
385.13	215.25
385.51	215.23
385.89	215.15
386.27	215.11
386.64	215.13
387.02	215.14
387.40	215.04
387.78	215.00
388.15	215.01
388.53	215.05
388.91	215.10
389.29	215.07
389.66	215.18
390.04	215.23
390.42	215.20
390.79	215.20
391.17	215.19
391.55	214.95
391.92	214.95
392.30	215.01
392.68	215.05
393.05	214.95
393.43	215.00
393.81	215.13
394.18	215.20
394.56	215.30
394.94	215.40
395.31	215.51
395.69	215.69
396.06	215.78
396.44	215.90
396.82	216.00
397.19	216.23
397.57	216.30
397.95	216.45
398.32	216.51
398.70	216.66
399.07	216.88
399.45	217.09
399.82	217.35
400.20	217.55
400.58	217.81
400.95	218.08
401.33	218.49
401.70	218.83
402.08	219.12
402.45	219.48
402.83	219.92
403.20	220.33
403.58	220.80
403.95	221.35
404.33	221.93
404.71	222.51
405.08	223.23
405.46	223.88
405.83	224.65
406.21	225.59
406.58	226.49
406.96	227.44
407.33	228.46
407.70	229.63
408.08	230.96
408.45	232.29
408.83	233.85
409.20	235.31
409.58	236.86
409.95	238.63
410.33	240.65
410.70	242.64
411.08	244.85
411.45	247.23
411.82	249.71
412.20	252.48
412.57	255.61
412.95	258.61
413.32	261.97
413.69	265.61
414.07	269.27
414.44	273.47
414.82	277.71
415.19	282.72
415.56	287.70
415.94	293.14
416.31	299.04
416.68	304.94
417.06	311.63
417.43	318.08
417.81	325.58
418.18	332.95
418.55	341.12
418.93	349.89
419.30	358.85
419.67	368.32
420.04	378.25
420.42	388.70
420.79	400.21
421.16	412.34
421.54	424.50
421.91	437.64
422.28	450.99
422.66	465.39
423.03	478.99
423.40	493.80
423.77	509.73
424.15	525.88
424.52	542.81
424.89	561.25
425.26	579.43
425.64	596.61
426.01	615.93
426.38	636.02
426.75	656.05
427.13	677.27
427.50	699.85
427.87	723.35
428.24	746.90
428.61	770.05
428.99	794.41
429.36	821.83
429.73	848.24
430.10	874.67
430.47	902.09
430.85	931.25
431.22	961.59
431.59	992.82
431.96	1023.86
432.33	1058.12
432.70	1091.47
433.08	1130.44
433.45	1167.16
433.82	1204.16
434.19	1244.65
434.56	1284.86
434.93	1323.63
435.30	1362.01
435.68	1404.69
436.05	1447.01
436.42	1489.60
436.79	1528.71
437.16	1570.94
437.53	1616.16
437.90	1660.94
438.27	1704.57
438.64	1750.33
439.01	1792.33
439.38	1831.77
439.75	1868.97
440.13	1911.62
440.50	1951.65
440.87	1985.18
441.24	2020.73
441.61	2059.08
441.98	2089.07
442.35	2123.21
442.72	2157.08
443.09	2189.76
443.46	2211.67
443.83	2228.01
444.20	2242.24
444.57	2262.11
444.94	2273.08
445.31	2284.12
445.68	2294.00
446.05	2301.73
446.42	2301.68
446.79	2300.77
447.16	2299.04
447.53	2299.33
447.90	2287.30
448.27	2275.38
448.64	2256.82
449.01	2243.99
449.37	2218.41
449.74	2193.74
450.11	2162.44
450.48	2130.07
450.85	2097.58
451.22	2069.37
451.59	2041.79
451.96	2015.93
452.33	1979.74
452.70	1947.14
453.07	1907.80
453.43	1868.57
453.80	1829.44
454.17	1791.82
454.54	1757.04
454.91	1718.82
455.28	1681.55
455.65	1646.87
456.02	1610.16
456.38	1580.21
456.75	1542.10
457.12	1511.34
457.49	1480.64
457.86	1452.21
458.23	1425.74
458.59	1396.80
458.96	1367.51
459.33	1342.03
459.70	1315.92
460.07	1295.40
460.43	1272.06
460.80	1249.50
461.17	1230.02
461.54	1209.29
461.91	1189.89
462.27	1170.10
462.64	1153.39
463.01	1134.29
463.38	1115.57
463.74	1099.03
464.11	1083.48
464.48	1070.03
464.85	1054.60
465.21	1042.56
465.58	1029.47
465.95	1014.87
466.32	1002.34
466.68	989.62
467.05	977.03
467.42	964.69
467.78	951.57
468.15	939.19
468.52	930.05
468.88	918.33
469.25	908.25
469.62	899.77
469.98	890.51
470.35	881.86
470.72	873.90
471.08	865.52
471.45	858.07
471.82	849.92
472.18	841.58
472.55	835.57
472.92	828.68
473.28	822.91
473.65	817.08
474.02	811.20
474.38	806.55
474.75	802.47
475.11	797.96
475.48	794.47
475.85	791.44
476.21	788.42
476.58	785.72
476.94	783.82
477.31	781.45
477.67	779.22
478.04	777.48
478.41	776.53
478.77	775.60
479.14	774.61
479.50	774.80
479.87	775.31
480.23	775.87
480.60	775.91
480.96	776.12
481.33	777.65
481.69	779.35
482.06	780.65
482.42	781.51
482.79	782.91
483.15	785.82
483.52	789.33
483.88	792.39
484.25	795.95
484.61	799.12
484.98	802.62
485.34	807.22
485.71	812.15
486.07	817.12
486.44	822.59
486.80	828.32
487.17	834.22
487.53	841.00
487.90	848.11
488.26	855.90
488.62	863.97
488.99	871.96
489.35	879.99
489.72	889.40
490.08	899.52
490.44	909.97
490.81	919.83
491.17	929.98
491.54	941.08
491.90	951.93
492.26	964.02
492.63	976.61
492.99	989.59
493.36	1002.86
493.72	1016.60
494.08	1030.80
494.45	1046.07
494.81	1062.16
495.17	1078.31
495.54	1094.85
495.90	1112.17
496.26	1129.61
496.63	1147.62
496.99	1166.04
497.35	1184.49
497.72	1203.70
498.08	1223.03
498.44	1242.85
498.80	1263.50
499.17	1284.66
499.53	1306.00
499.89	1327.89
500.26	1349.88
500.62	1371.29
500.98	1394.15
501.34	1417.41
501.71	1440.74
502.07	1464.57
502.43	1488.04
502.79	1511.82
503.16	1535.84
503.52	1559.56
503.88	1583.49
504.24	1607.38
504.60	1632.40
504.97	1657.75
505.33	1682.79
505.69	1709.08
506.05	1735.00
506.41	1760.54
506.78	1785.73
507.14	1811.32
507.50	1837.12
507.86	1863.15
508.22	1889.69
508.59	1915.43
508.95	1941.31
509.31	1967.19
509.67	1993.01
510.03	2018.70
510.39	2045.05
510.75	2070.98
511.12	2096.05
511.48	2121.55
511.84	2147.16
512.20	2171.95
512.56	2196.92
512.92	2221.74
513.28	2246.26
513.64	2270.91
514.00	2294.80
514.37	2318.77
514.73	2342.89
515.09	2366.12
515.45	2389.03
515.81	2411.63
516.17	2434.50
516.53	2456.63
516.89	2478.63
517.25	2499.07
517.61	2519.61
517.97	2539.28
518.33	2558.52
518.69	2578.61
519.05	2598.71
519.41	2618.00
519.77	2637.54
520.13	2656.19
520.49	2674.36
520.85	2692.06
521.21	2709.31
521.57	2727.85
521.93	2744.63
522.29	2762.39
522.65	2779.61
523.01	2796.71
523.37	2812.68
523.73	2828.18
524.09	2843.07
524.45	2857.48
524.81	2872.55
525.17	2887.68
525.53	2902.89
525.89	2917.89
526.25	2932.52
526.61	2945.44
526.97	2958.89
527.33	2972.10
527.68	2985.37
528.04	2997.95
528.40	3010.32
528.76	3022.86
529.12	3034.29
529.48	3046.70
529.84	3055.90
530.20	3066.89
530.56	3077.22
530.91	3089.43
531.27	3100.37
531.63	3111.44
531.99	3122.01
532.35	3131.82
532.71	3141.60
533.07	3152.35
533.42	3162.61
533.78	3173.29
534.14	3182.89
534.50	3192.07
534.86	3201.65
535.21	3209.33
535.57	3218.77
535.93	3226.68
536.29	3233.95
536.65	3242.45
537.00	3249.98
537.36	3258.58
537.72	3265.50
538.08	3272.69
538.44	3279.30
538.79	3285.96
539.15	3292.71
539.51	3300.66
539.87	3309.26
540.22	3315.69
540.58	3322.14
540.94	3328.87
541.29	3333.07
541.65	3336.71
542.01	3341.33
542.37	3345.22
542.72	3350.38
543.08	3353.82
543.44	3358.69
543.79	3362.07
544.15	3364.63
544.51	3368.47
544.87	3373.19
545.22	3376.20
545.58	3378.54
545.94	3379.86
546.29	3381.65
546.65	3383.09
547.01	3383.45
547.36	3383.94
547.72	3385.83
548.07	3384.92
548.43	3384.08
548.79	3383.80
549.14	3386.34
549.50	3387.28
549.86	3388.22
550.21	3387.95
550.57	3389.28
550.92	3389.24
551.28	3389.53
551.64	3388.65
551.99	3388.14
552.35	3386.92
552.70	3386.69
553.06	3386.66
553.41	3387.48
553.77	3387.24
554.13	3387.38
554.48	3388.64
554.84	3389.00
555.19	3388.17
555.55	3389.17
555.90	3389.24
556.26	3390.01
556.61	3389.03
556.97	3386.87
557.32	3384.22
557.68	3382.23
558.03	3379.25
558.39	3376.25
558.74	3375.61
559.10	3375.76
559.45	3374.69
559.81	3374.29
560.16	3372.75
560.52	3371.99
560.87	3369.99
561.23	3367.53
561.58	3365.11
561.94	3360.94
562.29	3356.98
562.64	3353.66
563.00	3349.58
563.35	3345.79
563.71	3342.97
564.06	3340.17
564.42	3338.50
564.77	3336.67
565.12	3334.29
565.48	3332.11
565.83	3330.10
566.19	3327.68
566.54	3324.75
566.89	3321.10
567.25	3316.42
567.60	3313.63
567.96	3308.81
568.31	3304.41
568.66	3300.87
569.02	3297.05
569.37	3293.28
569.72	3289.24
570.08	3285.84
570.43	3281.42
570.78	3278.10
571.14	3273.47
571.49	3269.55
571.84	3266.31
572.20	3261.63
572.55	3258.43
572.90	3253.33
573.26	3248.17
573.61	3241.30
573.96	3234.06
574.31	3227.41
574.67	3221.59
575.02	3213.75
575.37	3207.06
575.72	3200.01
576.08	3193.14
576.43	3186.05
576.78	3178.98
577.13	3173.04
577.49	3165.93
577.84	3158.66
578.19	3150.44
578.54	3142.94
578.90	3134.90
579.25	3124.88
579.60	3115.68
579.95	3106.13
580.30	3098.22
580.66	3090.30
581.01	3082.59
581.36	3073.23
581.71	3064.52
582.06	3056.35
582.42	3049.30
582.77	3040.52
583.12	3032.04
583.47	3022.65
583.82	3013.29
584.17	3003.68
584.53	2993.61
584.88	2983.50
585.23	2974.65
585.58	2966.24
585.93	2957.37
586.28	2948.70
586.63	2940.28
586.98	2931.85
587.34	2923.50
587.69	2913.68
588.04	2904.02
588.39	2894.60
588.74	2885.16
589.09	2876.27
589.44	2864.73
589.79	2853.65
590.14	2843.86
590.49	2833.02
590.84	2823.87
591.19	2814.96
591.54	2805.26
591.89	2794.81
592.25	2785.14
592.60	2773.54
592.95	2761.41
593.30	2749.38
593.65	2737.89
594.00	2727.20
594.35	2717.24
594.70	2706.18
595.05	2695.68
595.40	2684.49
595.75	2672.33
596.10	2661.96
596.45	2650.70
596.80	2641.05
597.15	2631.35
597.50	2621.04
597.85	2611.31
598.19	2599.43
598.54	2587.99
598.89	2578.18
599.24	2568.21
599.59	2557.20
599.94	2547.30
600.29	2536.91
600.64	2526.65
600.99	2514.96
601.34	2504.58
601.69	2492.41
602.04	2480.97
602.39	2470.25
602.74	2460.73
603.08	2452.18
603.43	2443.73
603.78	2433.64
604.13	2423.20
604.48	2411.55
604.83	2401.26
605.18	2391.16
605.53	2381.52
605.87	2370.32
606.22	2359.43
606.57	2347.68
606.92	2336.17
607.27	2325.25
607.62	2315.47
607.96	2305.50
608.31	2296.39
608.66	2285.35
609.01	2275.10
609.36	2264.45
609.70	2252.52
610.05	2239.80
610.40	2227.30
610.75	2214.70
611.10	2202.85
611.44	2189.90
611.79	2178.29
612.14	2165.76
612.49	2152.79
612.83	2140.36
613.18	2128.11
613.53	2115.92
613.88	2103.17
614.22	2091.23
614.57	2078.61
614.92	2065.63
615.27	2052.64
615.61	2038.40
615.96	2024.98
616.31	2012.71
616.65	2001.05
617.00	1989.73
617.35	1978.35
617.70	1966.26
618.04	1953.72
618.39	1942.04
618.74	1930.75
619.08	1917.92
619.43	1905.69
619.78	1894.47
620.12	1883.60
620.47	1872.61
620.82	1860.35
621.16	1849.61
621.51	1838.24
621.85	1827.44
622.20	1816.11
622.55	1804.09
622.89	1793.71
623.24	1783.01
623.59	1771.26
623.93	1759.67
624.28	1748.70
624.62	1737.62
624.97	1726.57
625.32	1715.57
625.66	1704.23
626.01	1693.66
626.35	1684.75
626.70	1674.82
627.04	1664.23
627.39	1653.14
627.73	1642.66
628.08	1633.17
628.43	1623.44
628.77	1614.22
629.12	1604.17
629.46	1594.13
629.81	1584.28
630.15	1573.38
630.50	1563.27
630.84	1553.11
631.19	1542.60
631.53	1532.12
631.88	1521.75
632.22	1511.84
632.57	1502.49
632.91	1493.11
633.26	1483.43
633.60	1472.84
633.95	1463.46
634.29	1454.18
634.64	1445.18
634.98	1435.79
635.32	1426.65
635.67	1417.53
636.01	1408.28
636.36	1399.15
636.70	1390.23
637.05	1381.98
637.39	1374.36
637.73	1366.05
638.08	1358.38
638.42	1350.55
638.77	1342.63
639.11	1334.26
639.45	1326.03
639.80	1317.61
640.14	1309.09
640.49	1300.19
640.83	1291.61
641.17	1282.98
641.52	1274.25
641.86	1265.60
642.20	1257.29
642.55	1247.92
642.89	1238.51
643.23	1229.19
643.58	1220.44
643.92	1211.50
644.26	1202.53
644.61	1193.19
644.95	1184.46
645.29	1175.37
645.64	1166.24
645.98	1157.53
646.32	1149.13
646.66	1140.78
647.01	1132.12
647.35	1123.60
647.69	1115.15
648.04	1107.18
648.38	1099.01
648.72	1091.00
649.06	1082.66
649.41	1074.29
649.75	1066.15
650.09	1058.91
650.43	1051.66
650.78	1044.03
651.12	1036.39
651.46	1028.81
651.80	1021.74
652.14	1014.68
652.49	1007.37
652.83	1000.05
653.17	992.06
653.51	984.49
653.85	976.92
654.20	969.95
654.54	962.67
654.88	955.77
655.22	948.44
655.56	940.73
655.90	932.80
656.25	925.55
656.59	918.68
656.93	911.83
657.27	904.85
657.61	897.71
657.95	891.02
658.29	884.58
658.64	877.92
658.98	871.21
659.32	864.00
659.66	857.65
660.00	851.09
660.34	844.89
660.68	838.76
661.02	832.21
661.36	825.86
661.70	820.03
662.05	814.35
662.39	808.75
662.73	803.45
663.07	798.52
663.41	793.32
663.75	787.77
664.09	782.24
664.43	776.27
664.77	770.58
665.11	764.83
665.45	759.39
665.79	754.06
666.13	748.82
666.47	743.76
666.81	738.54
667.15	733.44
667.49	728.60
667.83	723.54
668.17	718.93
668.51	714.12
668.85	709.05
669.19	703.95
669.53	698.75
669.87	693.61
670.21	688.45
670.55	683.35
670.89	678.80
671.23	674.16
671.57	669.63
671.91	665.06
672.25	660.56
672.58	655.94
672.92	651.30
673.26	646.90
673.60	642.61
673.94	638.32
674.28	634.43
674.62	630.19
674.96	626.00
675.30	622.00
675.64	617.97
675.97	614.31
676.31	610.60
676.65	607.08
676.99	603.75
677.33	600.25
677.67	596.62
678.01	592.65
678.34	588.78
678.68	585.06
679.02	581.36
679.36	577.79
679.70	574.14
680.04	570.56
680.37	566.88
680.71	563.50
681.05	560.03
681.39	556.47
681.73	552.90
682.06	549.70
682.40	546.16
682.74	542.47
683.08	538.86
683.42	535.40
683.75	531.79
684.09	527.99
684.43	524.50
684.77	521.09
685.10	517.64
685.44	514.40
685.78	511.02
686.12	507.87
686.45	504.76
686.79	501.85
687.13	499.08
687.46	496.16
687.80	492.99
688.14	489.96
688.48	486.98
688.81	484.10
689.15	481.20
689.49	478.35
689.82	475.65
690.16	472.62
690.50	469.70
690.83	466.96
691.17	464.17
691.51	461.43
691.84	458.68
692.18	456.18
692.52	453.69
692.85	451.15
693.19	448.56
693.52	445.80
693.86	443.02
694.20	440.29
694.53	437.62
694.87	434.89
695.21	432.13
695.54	429.36
695.88	426.66
696.21	423.99
696.55	421.43
696.88	419.00
697.22	416.68
697.56	414.41
697.89	412.04
698.23	410.02
698.56	407.72
698.90	405.52
699.23	403.14
699.57	400.85
699.90	398.72
700.24	396.43
700.58	394.25
700.91	392.22
701.25	390.14
701.58	388.29
701.92	386.47
702.25	384.77
702.59	383.01
702.92	381.31
703.26	379.62
703.59	377.99
703.93	376.30
704.26	374.57
704.60	372.78
704.93	370.97
705.26	368.98
705.60	367.36
705.93	365.72
706.27	364.17
706.60	362.69
706.94	361.13
707.27	359.52
707.61	357.94
707.94	356.21
708.27	354.61
708.61	353.04
708.94	351.48
709.28	349.84
709.61	348.27
709.94	346.69
710.28	344.98
710.61	343.43
710.95	341.65
711.28	340.03
711.61	338.37
711.95	336.92
712.28	335.56
712.61	334.18
712.95	332.75
713.28	331.43
713.61	330.00
713.95	328.53
714.28	327.34
714.61	326.18
714.95	325.04
715.28	323.72
715.61	322.25
715.95	320.86
716.28	319.53
716.61	318.26
716.95	317.00
717.28	315.86
717.61	314.63
717.94	313.60
718.28	312.42
718.61	311.45
718.94	310.42
719.27	309.22
719.61	308.08
719.94	306.95
720.27	305.74
720.60	304.62
720.94	303.65
721.27	302.68
721.60	301.74
721.93	300.81
722.27	300.00
722.60	299.14
722.93	298.24
723.26	297.43
723.59	296.50
723.93	295.66
724.26	294.76
724.59	293.78
724.92	292.93
725.25	292.29
725.59	291.47
725.92	290.69
726.25	289.88
726.58	289.01
726.91	288.20
727.24	287.39
727.57	286.67
727.91	285.88
728.24	285.01
728.57	284.17
728.90	283.39
729.23	282.55
729.56	281.86
729.89	281.16
730.22	280.34
730.55	279.60
730.89	278.87
731.22	278.16
731.55	277.51
731.88	276.79
732.21	276.04
732.54	275.30
732.87	274.63
733.20	274.04
733.53	273.50
733.86	272.93
734.19	272.40
734.52	271.75
734.85	271.22
735.18	270.63
735.51	270.03
735.84	269.38
736.17	268.73
736.50	268.02
736.83	267.58
737.16	267.03
737.49	266.49
737.82	265.86
738.15	265.25
738.48	264.68
738.81	264.10
739.14	263.45
739.47	262.92
739.80	262.33
740.13	261.83
740.46	261.23
740.79	260.70
741.12	260.12
741.45	259.53
741.78	258.90
742.11	258.40
742.44	257.80
742.77	257.26
743.10	256.68
743.43	256.11
743.75	255.39
744.08	255.15
744.41	254.66
744.74	254.11
745.07	253.68
745.40	253.27
745.73	252.88
746.06	252.46
746.39	252.01
746.71	251.52
747.04	251.08
747.37	250.57
747.70	250.12
748.03	249.74
748.36	249.43
748.68	249.02
749.01	248.52
749.34	248.13
749.67	247.78
750.00	247.43
750.33	247.23
750.65	246.89
750.98	246.28
751.31	245.92
751.64	245.61
751.97	245.25
752.29	244.76
752.62	244.34
752.95	244.02
753.28	243.59
753.60	243.21
753.93	242.90
754.26	242.56
754.59	242.17
754.91	241.75
755.24	241.38
755.57	241.13
755.90	240.84
756.22	240.51
756.55	240.03
756.88	239.78
757.20	239.37
757.53	238.92
757.86	238.56
758.19	238.23
758.51	237.91
758.84	237.56
759.17	237.36
759.49	237.13
759.82	236.90
760.15	236.69
760.47	236.42
760.80	236.00
761.13	235.82
761.45	235.53
761.78	235.25
762.11	234.97
762.43	234.60
762.76	234.28
763.08	234.04
763.41	233.86
763.74	233.54
764.06	233.35
764.39	233.27
764.71	232.95
765.04	232.66
765.37	232.38
765.69	232.10
766.02	231.87
766.34	231.55
766.67	231.24
767.00	230.96
767.32	230.85
767.65	230.74
767.97	230.47
768.30	230.27
768.62	230.04
768.95	229.77
769.27	229.57
769.60	229.43
769.92	229.15
770.25	228.95
770.57	228.75
770.90	228.48
771.22	228.20
771.55	228.02
771.87	227.86
772.20	227.66
772.52	227.63
772.85	227.57
773.17	227.44
773.50	227.24
773.82	227.06
774.15	226.77
774.47	226.52
774.80	226.27
775.12	226.13
775.45	226.04
775.77	225.91
776.09	225.79
776.42	225.59
776.74	225.61
777.07	225.43
777.39	225.24
777.72	225.07
778.04	224.93
778.36	224.78
778.69	224.60
779.01	224.51
779.33	224.22
779.66	223.92
779.98	223.64
780.31	223.45
780.63	223.42
780.95	223.28
781.28	223.16
781.60	223.07
781.92	222.87
782.25	222.72
782.57	222.60
782.89	222.45
783.22	222.34
783.54	222.05
783.86	221.99
784.19	221.94
784.51	221.87
784.83	221.78
785.16	221.67
785.48	221.61
785.80	221.49
786.12	221.49
786.45	221.40
786.77	221.36
787.09	221.30
787.42	221.11
787.74	221.13
788.06	221.07
788.38	220.98
788.71	220.97
789.03	220.85
789.35	220.84
789.67	220.68
789.99	220.61
790.32	220.60
790.64	220.55
790.96	220.50
791.28	220.30
791.61	220.20
791.93	220.14
792.25	220.05
792.57	220.10
792.89	219.96
793.21	219.90
793.54	219.81
793.86	219.71
794.18	219.60
794.50	219.45
794.82	219.31
795.14	219.28
795.47	219.23
795.79	219.22
796.11	219.02
796.43	219.01
796.75	218.95
797.07	218.90
797.39	218.77
797.71	218.59
798.04	218.60
798.36	218.54
798.68	218.49
799.00	218.42
799.32	218.28
799.64	218.20
799.96	218.12
800.28	218.11
800.60	218.05
800.92	218.04
801.24	217.94
801.56	217.93
801.89	217.85
802.21	217.73
802.53	217.59
802.85	217.57
803.17	217.61
803.49	217.50
803.81	217.38
804.13	217.34
804.45	217.35
804.77	217.33
805.09	217.29
805.41	217.19
805.73	217.13
806.05	217.00
806.37	216.96
806.69	216.87
807.01	216.77
807.33	216.76
807.65	216.60
807.97	216.70
808.28	216.64
808.60	216.62
808.92	216.60
809.24	216.66
809.56	216.66
809.88	216.54
810.20	216.52
810.52	216.54
810.84	216.41
811.16	216.26
811.48	216.13
811.80	216.14
812.12	216.12
812.43	216.09
812.75	216.12
813.07	216.06
813.39	216.07
813.71	216.06
814.03	215.95
814.35	215.98
814.67	215.83
814.98	215.75
815.30	215.66
815.62	215.57
815.94	215.44
816.26	215.39
816.58	215.31
816.89	215.26
817.21	215.11
817.53	215.16
817.85	215.19
818.17	215.14
818.48	215.03
818.80	215.11
819.12	215.11
819.44	215.05
819.76	215.00
820.07	214.91
820.39	214.82
820.71	214.84
821.03	214.79
821.34	214.72
821.66	214.73
821.98	214.74
822.30	214.77
822.61	214.84
822.93	214.78
823.25	214.77
823.57	214.79
823.88	214.84
824.20	214.76
824.52	214.80
824.83	214.81
825.15	214.80
825.47	214.66
825.79	214.52
826.10	214.44
826.42	214.39
826.74	214.40
827.05	214.39
827.37	214.38
827.69	214.37
828.00	214.35
828.32	214.31
828.64	214.22
828.95	214.25
829.27	214.09
829.58	214.04
829.90	213.99
830.22	213.94
830.53	213.80
830.85	213.74
831.17	213.61
831.48	213.56
831.80	213.56
832.11	213.56
832.43	213.63
832.75	213.59
833.06	213.75
833.38	213.74
833.69	213.71
834.01	213.69
834.32	213.65
834.64	213.61
834.96	213.64
835.27	213.61
835.59	213.48
835.90	213.46
836.22	213.45
836.53	213.39
836.85	213.31
837.16	213.50
837.48	213.43
837.79	213.47
838.11	213.39
838.42	213.30
838.74	213.33
839.05	213.20
839.37	213.23
839.68	213.06
840.00	213.01
840.31	213.01
840.63	212.98
840.94	212.91
841.26	212.86
841.57	212.79
841.88	212.78
842.20	212.78
842.51	212.79
842.83	212.73
843.14	212.91
843.46	212.92
843.77	212.82
844.08	212.93
844.40	212.81
844.71	212.83
845.03	212.78
845.34	212.76
845.65	212.78
845.97	212.76
846.28	212.73
846.60	212.71
846.91	212.63
847.22	212.55
847.54	212.59
847.85	212.63
848.16	212.60
848.48	212.58
848.79	212.60
849.10	212.62
849.42	212.61
849.73	212.41
850.04	212.35
850.36	212.29
850.67	212.29
850.98	212.36
851.30	212.31
851.61	212.30
851.92	212.20
852.23	212.28
852.55	212.27
852.86	212.28
853.17	212.24
853.49	212.28
853.80	212.35
854.11	212.35
854.42	212.34
854.74	212.26
855.05	212.26
855.36	212.22
855.67	212.18
855.99	212.27
856.30	212.51
856.61	212.55
856.92	212.54
857.23	212.50
857.55	212.47
857.86	212.48
858.17	212.60
858.48	212.65
858.79	212.58
859.11	212.63
859.42	212.64
859.73	212.61
860.04	212.64
860.35	212.56
860.66	212.59
860.98	212.57
861.29	212.65
861.60	212.70
861.91	212.75
862.22	212.69
862.53	212.64
862.84	212.39
863.16	212.45
863.47	212.49
863.78	212.48
864.09	212.48
864.40	212.61
864.71	212.52
865.02	212.55
865.33	212.50
865.64	212.43
865.95	212.39
866.27	212.47
866.58	212.45
866.89	212.48
867.20	212.39
867.51	212.32
867.82	212.31
868.13	212.26
868.44	212.23
868.75	212.33
869.06	212.34
869.37	212.35
869.68	212.31
869.99	212.24
870.30	212.22
870.61	212.22
870.92	212.10
871.23	212.10
871.54	212.05
871.85	212.13
872.16	212.15
872.47	212.08
872.78	212.04
873.09	212.01
873.40	212.01
873.71	212.01
874.02	212.08
874.33	212.07
874.64	212.05
874.95	212.06
875.26	212.02
875.56	212.00
875.87	211.93
876.18	211.81
876.49	212.02
876.80	212.04
877.11	212.00
877.42	212.08
877.73	212.05
878.04	212.03
878.35	212.06
878.66	212.02
878.96	212.12
879.27	212.06
879.58	212.05
879.89	212.03
880.20	212.08
880.51	212.04
880.82	212.06
881.12	212.13
881.43	212.00
881.74	211.93
882.05	211.85
882.36	211.90
882.67	212.00
882.97	211.74
883.28	211.67
883.59	211.71
883.90	211.66
884.21	211.61
884.51	211.51
884.82	211.44
885.13	211.45
885.44	211.39
885.74	211.38
886.05	211.32
886.36	211.37
886.67	211.27
886.98	211.30
887.28	211.28
887.59	211.19
887.90	211.20
888.20	211.18
888.51	211.27
888.82	211.22
889.13	211.22
889.43	211.41
889.74	211.47
890.05	211.47
890.35	211.47
890.66	211.51
890.97	211.52
891.28	211.49
891.58	211.55
891.89	211.54
892.20	211.57
892.50	211.57
892.81	211.56
893.12	211.60
893.42	211.57
893.73	211.62
894.04	211.59
894.34	211.64
894.65	211.70
894.95	211.65
895.26	211.75
895.57	211.75
895.87	211.60
896.18	211.63
896.48	211.57
896.79	211.56
897.10	211.57
897.40	211.62
897.71	211.62
898.01	211.55
898.32	211.53
898.63	211.45
898.93	211.44
899.24	211.36
899.54	211.34
899.85	211.35
900.15	211.25
900.46	211.28
900.76	211.32
901.07	211.27
901.38	211.27
901.68	211.28
901.99	211.26
902.29	211.24
902.60	211.20
902.90	211.25
903.21	211.17
903.51	211.10
903.82	211.11
904.12	211.15
904.43	211.07
904.73	211.05
905.03	211.15
905.34	211.38
905.64	211.43
905.95	211.44
906.25	211.39
906.56	211.43
906.86	211.42
907.17	211.36
907.47	211.40
907.77	211.38
908.08	211.30
908.38	211.28
908.69	211.27
908.99	211.27
909.30	211.27
909.60	211.35
909.90	211.44
910.21	211.39
910.51	211.30
910.81	211.40
911.12	211.46
911.42	211.43
911.73	211.22
912.03	211.20
912.33	211.25
912.64	211.26
912.94	211.21
913.24	211.23
913.55	211.17
913.85	211.10
914.15	211.11
914.46	211.16
914.76	211.15
915.06	211.14
915.37	211.08
915.67	211.02
915.97	210.94
916.27	210.88
916.58	210.88
916.88	210.93
917.18	210.91
917.49	211.00
917.79	211.04
918.09	211.08
918.39	211.11
918.70	211.05
919.00	210.99
919.30	211.05
919.60	211.00
919.91	211.05
920.21	211.05
920.51	211.06
920.81	211.00
921.12	211.02
921.42	211.01
921.72	211.01
922.02	211.12
922.32	211.16
922.63	211.20
922.93	211.31
923.23	211.31
923.53	211.34
923.83	211.23
924.13	211.24
924.44	211.26
924.74	211.34
925.04	211.44
925.34	211.47
925.64	211.44
925.94	211.47
926.24	211.58
926.55	211.55
926.85	211.61
927.15	211.57
927.45	211.65
927.75	211.69
928.05	211.71
928.35	211.62
928.65	211.73
928.95	211.74
929.26	211.70
929.56	211.73
929.86	211.77
930.16	211.81
930.46	211.75
930.76	211.73
931.06	211.63
931.36	211.60
931.66	211.69
931.96	211.63
932.26	211.64
932.56	211.52
932.86	211.64
933.16	211.55
933.46	211.58
933.76	211.56
934.06	211.65
934.36	211.70
934.66	211.70
934.96	211.60
935.26	211.65
935.56	211.65
935.86	211.65
936.16	211.66
936.46	211.60
936.76	211.58
937.06	211.57
937.36	211.52
937.66	211.53
937.96	211.51
938.26	211.56
938.56	211.51
938.86	211.55
939.16	211.54
939.46	211.61
939.76	211.66
940.06	211.59
940.35	211.44
940.65	211.34
940.95	211.33
941.25	211.30
941.55	211.28
941.85	211.22
942.15	211.18
942.45	211.12
942.75	211.14
943.04	211.16
943.34	211.19
943.64	211.20
943.94	211.20
944.24	211.20
944.54	211.13
944.84	211.16
945.13	211.14
945.43	211.12
945.73	211.12
946.03	211.04
946.33	211.07
946.62	211.10
946.92	211.11
947.22	211.11
947.52	211.13
947.82	211.08
948.11	211.16
948.41	211.16
948.71	211.12
949.01	211.15
949.31	211.16
949.60	211.16
949.90	211.18
950.20	211.06
950.50	211.04
950.79	211.08
951.09	211.10
951.39	211.08
951.69	211.06
951.98	211.03
952.28	211.11
952.58	211.09
952.87	211.13
953.17	211.22
953.47	211.20
953.76	211.21
954.06	211.19
954.36	211.12
954.66	211.12
954.95	211.16
955.25	211.10
955.55	211.11
955.84	211.02
956.14	210.99
956.44	211.08
956.73	211.02
957.03	211.02
957.32	211.00
957.62	211.02
957.92	211.02
958.21	211.04
958.51	211.23
958.81	211.24
959.10	211.18
959.40	211.15
959.69	211.22
959.99	211.25
960.29	211.28
960.58	211.26
960.88	211.34
961.17	211.33
961.47	211.38
961.76	211.35
962.06	211.45
962.36	211.39
962.65	211.40
962.95	211.42
963.24	211.46
963.54	211.50
963.83	211.51
964.13	211.55
964.42	211.46
964.72	211.27
965.01	211.26
965.31	211.30
965.60	211.25
965.90	211.28
966.19	211.22
966.49	211.24
966.78	211.27
967.08	211.22
967.37	211.18
967.67	211.19
967.96	211.25
968.26	211.20
968.55	211.30
968.85	211.28
969.14	211.33
969.43	211.30
969.73	211.26
970.02	211.27
970.32	211.24
970.61	211.24
970.91	211.13
971.20	211.11
971.49	211.10
971.79	211.15
972.08	211.06
972.38	211.12
972.67	211.10
972.96	211.10
973.26	211.07
973.55	211.18
973.85	211.17
974.14	211.10
974.43	211.13
974.73	211.06
975.02	211.03
975.31	211.07
975.61	211.06
975.90	211.08
976.19	211.06
976.49	211.08
976.78	211.11
977.07	211.17
977.37	211.18
977.66	211.17
977.95	211.07
978.24	211.15
978.54	211.14
978.83	211.08
979.12	211.07
979.42	211.04
979.71	211.01
980.00	210.99
980.29	210.98
980.59	210.96
980.88	211.02
981.17	211.00
981.46	210.91
981.76	210.88
982.05	210.97
982.34	210.97
982.63	210.95
982.93	210.99
983.22	210.96
983.51	211.03
983.80	211.05
984.09	211.10
984.39	211.07
984.68	211.02
984.97	211.06
985.26	211.02
985.55	211.11
985.85	211.02
986.14	211.02
986.43	211.07
986.72	211.06
987.01	210.97
987.30	210.97
987.59	210.95
987.89	210.94
988.18	210.83
988.47	210.76
988.76	210.75
989.05	210.65
989.34	210.67
989.63	210.66
989.92	210.61
990.22	210.65
990.51	210.58
990.80	210.61
991.09	210.64
991.38	210.69
991.67	210.65
991.96	210.66
992.25	210.63
992.54	210.56
992.83	210.57
993.12	210.58
993.41	210.62
993.70	210.63
993.99	210.74
994.28	210.81
994.58	210.84
994.87	210.75
995.16	210.84
995.45	210.81
995.74	210.75
996.03	210.83
996.32	210.82
996.61	210.90
996.90	210.90
997.19	210.87
997.48	210.83
997.77	210.82
998.06	210.88
998.34	210.85
998.63	210.88
998.92	210.88
999.21	210.96
999.50	210.94
999.79	210.90
1000.08	210.82
1000.37	210.68
1000.66	210.63
1000.95	210.78
1001.24	210.77
1001.53	210.81
1001.82	210.79
1002.11	210.68
1002.40	210.70
1002.68	210.69
1002.97	210.79
1003.26	210.76
1003.55	210.77
1003.84	210.73
1004.13	210.74
1004.42	210.78
1004.71	210.78
1004.99	210.67
1005.28	210.63
1005.57	210.66
1005.86	210.70
1006.15	210.73
1006.44	210.77
1006.72	210.86
1007.01	210.77
1007.30	210.70
1007.59	210.75
1007.88	210.77
1008.17	210.82
1008.45	210.76
1008.74	210.73
1009.03	210.60
1009.32	210.60
1009.60	210.60
1009.89	210.58
1010.18	210.49
1010.47	210.43
1010.76	210.44
1011.04	210.57
1011.33	210.65
1011.62	210.66
1011.91	210.61
1012.19	210.58
1012.48	210.59
1012.77	210.56
1013.05	210.71
1013.34	210.78
1013.63	210.70
1013.92	210.65
1014.20	210.62
1014.49	210.67
1014.78	210.65
1015.06	210.66
1015.35	210.69
1015.64	210.71
1015.92	210.80
1016.21	210.82
1016.50	210.90
1016.78	210.89
1017.07	210.83
1017.36	210.78
1017.64	210.76
1017.93	210.78
1018.22	210.80
1018.50	210.80
1018.79	210.79
1019.08	210.68
1019.36	210.67
1019.65	210.66
1019.93	210.73
1020.22	210.70
1020.51	210.76
1020.79	210.80
1021.08	210.85
1021.36	210.35
1021.65	210.70
1021.94	211.35
1022.22	210.50
1022.51	210.55
1022.79	210.90
1023.08	209.55
1023.36	212.40
1023.65	211.15
>>>>>End Processed Spectral Data<<<<<
