SpectraSuite Data File
++++++++++++++++++++++++++++++++++++
Date: Mon Feb 25 17:30:47 EST 2013
User: group
Dark Spectrum Present: No
Reference Spectrum Present: No
Number of Sampled Component Spectra: 1
Spectrometers: USB2E7196
Integration Time (usec): 52000 (USB2E7196)
Spectra Averaged: 20 (USB2E7196)
Boxcar Smoothing: 10 (USB2E7196)
Correct for Electrical Dark: No (USB2E7196)
Strobe/Lamp Enabled: No (USB2E7196)
Correct for Detector Non-linearity: No (USB2E7196)
Correct for Stray Light: No (USB2E7196)
Number of Pixels in Processed Spectrum: 2048
>>>>>Begin Processed Spectral Data<<<<<
339.09	0.00
339.48	197.40
339.86	199.85
340.24	201.75
340.63	202.40
341.01	208.65
341.39	204.95
341.78	207.90
342.16	209.65
342.54	209.20
342.93	198.22
343.31	208.19
343.69	208.80
344.07	209.27
344.46	209.72
344.84	210.16
345.22	210.25
345.60	210.51
345.99	210.66
346.37	210.74
346.75	210.83
347.13	210.95
347.52	210.97
347.90	211.06
348.28	211.16
348.66	211.16
349.05	211.19
349.43	211.27
349.81	211.26
350.19	211.34
350.57	211.42
350.96	211.45
351.34	211.57
351.72	211.63
352.10	211.75
352.48	211.85
352.87	211.85
353.25	211.94
353.63	212.02
354.01	212.14
354.39	212.22
354.77	212.30
355.15	212.43
355.54	212.52
355.92	212.53
356.30	212.55
356.68	212.75
357.06	212.78
357.44	212.83
357.82	212.92
358.20	213.02
358.58	213.03
358.97	213.19
359.35	213.25
359.73	213.41
360.11	213.41
360.49	213.41
360.87	213.44
361.25	213.53
361.63	213.63
362.01	213.64
362.39	213.68
362.77	213.75
363.15	213.70
363.53	213.73
363.91	213.77
364.29	213.85
364.67	213.70
365.05	213.75
365.43	213.82
365.81	213.90
366.19	213.95
366.57	214.11
366.95	214.13
367.33	214.18
367.71	214.14
368.09	214.33
368.47	214.38
368.85	214.41
369.23	214.37
369.61	214.32
369.99	214.42
370.37	214.43
370.75	214.48
371.13	214.40
371.51	214.34
371.89	214.31
372.27	214.29
372.65	214.30
373.03	214.25
373.41	214.13
373.78	213.99
374.16	213.90
374.54	213.74
374.92	213.61
375.30	213.52
375.68	213.48
376.06	213.31
376.44	213.20
376.82	213.10
377.19	213.06
377.57	213.09
377.95	212.93
378.33	212.85
378.71	212.67
379.09	212.74
379.47	212.72
379.84	212.56
380.22	212.52
380.60	212.44
380.98	212.41
381.36	212.31
381.73	212.27
382.11	212.25
382.49	212.21
382.87	212.15
383.25	212.14
383.62	212.27
384.00	212.18
384.38	212.11
384.76	212.15
385.13	212.20
385.51	212.14
385.89	212.06
386.27	212.00
386.64	212.01
387.02	211.92
387.40	211.87
387.78	211.92
388.15	211.93
388.53	211.92
388.91	211.90
389.29	211.98
389.66	211.97
390.04	211.85
390.42	211.79
390.79	211.80
391.17	211.73
391.55	211.43
391.92	211.45
392.30	211.52
392.68	211.50
393.05	211.49
393.43	211.40
393.81	211.49
394.18	211.54
394.56	211.52
394.94	211.57
395.31	211.54
395.69	211.59
396.06	211.57
396.44	211.60
396.82	211.57
397.19	211.67
397.57	211.66
397.95	211.77
398.32	211.79
398.70	211.84
399.07	211.95
399.45	212.08
399.82	212.08
400.20	212.18
400.58	212.23
400.95	212.18
401.33	212.30
401.70	212.42
402.08	212.46
402.45	212.55
402.83	212.71
403.20	212.85
403.58	212.93
403.95	213.03
404.33	213.09
404.71	213.23
405.08	213.41
405.46	213.60
405.83	213.71
406.21	213.83
406.58	213.95
406.96	214.05
407.33	214.27
407.70	214.57
408.08	214.85
408.45	215.05
408.83	215.28
409.20	215.50
409.58	215.61
409.95	215.91
410.33	216.23
410.70	216.41
411.08	216.78
411.45	217.14
411.82	217.45
412.20	217.98
412.57	218.51
412.95	218.78
413.32	219.26
413.69	219.75
414.07	220.35
414.44	221.00
414.82	221.67
415.19	222.29
415.56	223.00
415.94	223.70
416.31	224.55
416.68	225.51
417.06	226.52
417.43	227.56
417.81	228.64
418.18	229.75
418.55	230.98
418.93	232.12
419.30	233.37
419.67	234.78
420.04	236.07
420.42	237.52
420.79	239.20
421.16	240.86
421.54	242.72
421.91	244.48
422.28	246.37
422.66	248.36
423.03	250.39
423.40	252.36
423.77	254.44
424.15	256.64
424.52	258.89
424.89	261.35
425.26	263.72
425.64	266.02
426.01	268.55
426.38	271.19
426.75	273.88
427.13	276.60
427.50	279.47
427.87	282.50
428.24	285.39
428.61	288.24
428.99	291.35
429.36	294.74
429.73	298.19
430.10	301.50
430.47	304.95
430.85	308.45
431.22	312.30
431.59	316.42
431.96	320.18
432.33	324.54
432.70	328.53
433.08	333.32
433.45	337.80
433.82	342.19
434.19	346.99
434.56	351.82
434.93	356.49
435.30	361.06
435.68	366.25
436.05	371.26
436.42	376.31
436.79	381.04
437.16	385.93
437.53	391.15
437.90	396.33
438.27	401.28
438.64	406.55
439.01	411.35
439.38	415.47
439.75	419.59
440.13	424.11
440.50	428.62
440.87	432.25
441.24	436.03
441.61	440.23
441.98	443.35
442.35	446.96
442.72	450.61
443.09	454.02
443.46	456.05
443.83	457.50
444.20	458.59
444.57	460.26
444.94	461.06
445.31	461.79
445.68	462.48
446.05	462.74
446.42	462.09
446.79	461.23
447.16	460.51
447.53	460.06
447.90	458.05
448.27	455.99
448.64	453.16
449.01	451.01
449.37	447.46
449.74	444.05
450.11	439.99
450.48	435.59
450.85	431.22
451.22	427.33
451.59	423.65
451.96	420.17
452.33	415.40
452.70	411.19
453.07	406.07
453.43	400.97
453.80	396.15
454.17	391.48
454.54	387.22
454.91	382.45
455.28	377.80
455.65	373.48
456.02	369.22
456.38	365.56
456.75	360.98
457.12	357.16
457.49	353.48
457.86	349.82
458.23	346.63
458.59	343.17
458.96	339.80
459.33	336.71
459.70	333.67
460.07	331.30
460.43	328.44
460.80	325.94
461.17	323.69
461.54	321.21
461.91	318.99
462.27	316.62
462.64	314.68
463.01	312.54
463.38	310.52
463.74	308.44
464.11	306.56
464.48	305.06
464.85	303.41
465.21	302.09
465.58	300.77
465.95	299.09
466.32	297.72
466.68	296.29
467.05	294.98
467.42	293.60
467.78	292.17
468.15	290.85
468.52	289.83
468.88	288.58
469.25	287.55
469.62	286.63
469.98	285.65
470.35	284.80
470.72	283.93
471.08	283.06
471.45	282.33
471.82	281.59
472.18	280.79
472.55	280.19
472.92	279.45
473.28	278.79
473.65	278.28
474.02	277.74
474.38	277.31
474.75	276.96
475.11	276.68
475.48	276.48
475.85	276.25
476.21	276.07
476.58	275.97
476.94	275.93
477.31	275.82
477.67	275.81
478.04	275.84
478.41	275.94
478.77	276.20
479.14	276.29
479.50	276.55
479.87	277.02
480.23	277.42
480.60	277.71
480.96	278.14
481.33	278.75
481.69	279.40
482.06	280.03
482.42	280.65
482.79	281.33
483.15	282.18
483.52	283.23
483.88	284.15
484.25	285.11
484.61	286.08
484.98	287.25
485.34	288.59
485.71	289.92
486.07	291.32
486.44	292.65
486.80	294.18
487.17	295.88
487.53	297.55
487.90	299.38
488.26	301.47
488.62	303.51
488.99	305.48
489.35	307.65
489.72	309.90
490.08	312.39
490.44	314.86
490.81	317.55
491.17	320.18
491.54	323.05
491.90	325.92
492.26	329.08
492.63	332.35
492.99	335.72
493.36	339.30
493.72	343.17
494.08	347.14
494.45	351.45
494.81	355.87
495.17	360.33
495.54	365.19
495.90	370.21
496.26	375.39
496.63	380.97
496.99	386.63
497.35	392.59
497.72	398.82
498.08	405.22
498.44	411.79
498.80	419.00
499.17	426.49
499.53	434.21
499.89	442.15
500.26	450.16
500.62	458.43
500.98	467.18
501.34	476.18
501.71	485.53
502.07	494.92
502.43	504.91
502.79	515.13
503.16	525.65
503.52	536.40
503.88	547.61
504.24	559.00
504.60	570.89
504.97	583.22
505.33	595.66
505.69	609.04
506.05	622.44
506.41	635.80
506.78	649.38
507.14	663.28
507.50	677.79
507.86	692.95
508.22	708.41
508.59	723.77
508.95	739.61
509.31	755.77
509.67	772.21
510.03	788.87
510.39	806.04
510.75	823.57
511.12	841.40
511.48	859.51
511.84	878.07
512.20	896.45
512.56	915.32
512.92	934.71
513.28	953.78
513.64	973.30
514.00	993.04
514.37	1013.10
514.73	1033.71
515.09	1054.28
515.45	1074.81
515.81	1095.47
516.17	1116.67
516.53	1137.78
516.89	1158.98
517.25	1180.23
517.61	1201.67
517.97	1222.99
518.33	1244.30
518.69	1265.69
519.05	1287.37
519.41	1309.20
519.77	1331.73
520.13	1353.62
520.49	1375.25
520.85	1397.45
521.21	1419.49
521.57	1442.00
521.93	1463.77
522.29	1486.34
522.65	1508.55
523.01	1530.67
523.37	1552.49
523.73	1574.22
524.09	1596.22
524.45	1618.15
524.81	1640.48
525.17	1662.44
525.53	1684.80
525.89	1706.81
526.25	1728.65
526.61	1749.36
526.97	1770.76
527.33	1791.32
527.68	1812.19
528.04	1832.86
528.40	1852.83
528.76	1873.14
529.12	1893.38
529.48	1914.85
529.84	1934.53
530.20	1954.32
530.56	1974.03
530.91	1994.28
531.27	2014.56
531.63	2033.99
531.99	2053.25
532.35	2071.80
532.71	2090.22
533.07	2108.90
533.42	2126.69
533.78	2145.29
534.14	2163.81
534.50	2180.37
534.86	2198.03
535.21	2214.64
535.57	2231.83
535.93	2248.76
536.29	2265.36
536.65	2281.29
537.00	2295.85
537.36	2310.75
537.72	2325.40
538.08	2340.40
538.44	2355.09
538.79	2369.83
539.15	2384.11
539.51	2398.33
539.87	2413.25
540.22	2427.10
540.58	2441.26
540.94	2455.22
541.29	2467.49
541.65	2479.25
542.01	2491.97
542.37	2503.21
542.72	2515.03
543.08	2525.76
543.44	2537.38
543.79	2546.73
544.15	2556.68
544.51	2567.36
544.87	2578.07
545.22	2586.91
545.58	2594.89
545.94	2601.73
546.29	2607.58
546.65	2613.20
547.01	2619.38
547.36	2624.57
547.72	2629.85
548.07	2633.42
548.43	2636.99
548.79	2640.62
549.14	2644.65
549.50	2648.48
549.86	2652.52
550.21	2655.55
550.57	2658.84
550.92	2660.94
551.28	2663.77
551.64	2665.85
551.99	2667.73
552.35	2668.67
552.70	2671.16
553.06	2673.85
553.41	2676.19
553.77	2678.97
554.13	2681.29
554.48	2682.80
554.84	2683.77
555.19	2684.25
555.55	2684.94
555.90	2685.58
556.26	2685.80
556.61	2685.87
556.97	2684.30
557.32	2683.40
557.68	2681.84
558.03	2680.31
558.39	2678.73
558.74	2678.21
559.10	2677.22
559.45	2675.41
559.81	2674.24
560.16	2671.66
560.52	2668.92
560.87	2666.44
561.23	2662.30
561.58	2659.48
561.94	2656.04
562.29	2652.43
562.64	2649.85
563.00	2647.04
563.35	2644.24
563.71	2642.16
564.06	2639.62
564.42	2638.08
564.77	2635.35
565.12	2633.52
565.48	2630.33
565.83	2627.17
566.19	2623.50
566.54	2618.80
566.89	2614.96
567.25	2611.15
567.60	2607.88
567.96	2604.37
568.31	2600.52
568.66	2596.90
569.02	2592.58
569.37	2587.39
569.72	2583.62
570.08	2578.40
570.43	2572.74
570.78	2567.16
571.14	2560.58
571.49	2553.99
571.84	2547.79
572.20	2541.16
572.55	2534.64
572.90	2528.12
573.26	2521.08
573.61	2514.12
573.96	2507.87
574.31	2500.00
574.67	2491.87
575.02	2483.29
575.37	2474.51
575.72	2465.77
576.08	2458.10
576.43	2449.62
576.78	2442.11
577.13	2434.03
577.49	2426.16
577.84	2418.38
578.19	2411.17
578.54	2404.12
578.90	2397.25
579.25	2388.56
579.60	2379.64
579.95	2370.85
580.30	2362.89
580.66	2355.05
581.01	2346.29
581.36	2337.08
581.71	2329.06
582.06	2321.02
582.42	2312.99
582.77	2304.20
583.12	2295.74
583.47	2287.34
583.82	2279.18
584.17	2270.20
584.53	2261.43
584.88	2252.72
585.23	2243.82
585.58	2234.32
585.93	2225.10
586.28	2216.10
586.63	2207.60
586.98	2199.87
587.34	2191.61
587.69	2182.66
588.04	2173.90
588.39	2165.85
588.74	2157.25
589.09	2148.69
589.44	2139.11
589.79	2130.90
590.14	2123.24
590.49	2115.02
590.84	2106.28
591.19	2098.44
591.54	2089.96
591.89	2080.12
592.25	2071.29
592.60	2062.27
592.95	2053.22
593.30	2043.88
593.65	2034.51
594.00	2025.16
594.35	2016.71
594.70	2007.86
595.05	1999.42
595.40	1990.71
595.75	1981.17
596.10	1973.24
596.45	1964.95
596.80	1957.67
597.15	1949.30
597.50	1940.29
597.85	1931.88
598.19	1923.43
598.54	1914.88
598.89	1907.07
599.24	1900.31
599.59	1892.92
599.94	1886.15
600.29	1878.52
600.64	1870.66
600.99	1862.55
601.34	1855.65
601.69	1847.22
602.04	1839.13
602.39	1831.32
602.74	1823.54
603.08	1817.09
603.43	1810.31
603.78	1802.32
604.13	1794.44
604.48	1786.98
604.83	1780.44
605.18	1773.74
605.53	1766.35
605.87	1759.05
606.22	1752.43
606.57	1744.73
606.92	1737.10
607.27	1729.28
607.62	1722.08
607.96	1715.72
608.31	1709.71
608.66	1702.31
609.01	1695.00
609.36	1687.71
609.70	1679.77
610.05	1672.38
610.40	1664.48
610.75	1656.07
611.10	1648.76
611.44	1639.72
611.79	1630.77
612.14	1621.66
612.49	1612.23
612.83	1603.91
613.18	1594.48
613.53	1585.00
613.88	1575.71
614.22	1567.06
614.57	1557.93
614.92	1549.00
615.27	1539.65
615.61	1530.08
615.96	1521.10
616.31	1512.82
616.65	1504.97
617.00	1497.26
617.35	1488.93
617.70	1480.21
618.04	1471.15
618.39	1462.12
618.74	1454.27
619.08	1445.86
619.43	1437.56
619.78	1430.26
620.12	1422.40
620.47	1414.83
620.82	1406.72
621.16	1398.76
621.51	1390.50
621.85	1382.43
622.20	1374.15
622.55	1365.86
622.89	1357.54
623.24	1349.98
623.59	1341.43
623.93	1332.92
624.28	1324.82
624.62	1316.74
624.97	1308.90
625.32	1301.23
625.66	1294.00
626.01	1286.63
626.35	1279.69
626.70	1272.38
627.04	1264.71
627.39	1257.11
627.73	1249.77
628.08	1243.30
628.43	1235.77
628.77	1228.70
629.12	1221.34
629.46	1214.92
629.81	1208.21
630.15	1201.19
630.50	1193.65
630.84	1186.76
631.19	1179.89
631.53	1173.08
631.88	1165.70
632.22	1158.17
632.57	1151.59
632.91	1144.31
633.26	1137.07
633.60	1130.04
633.95	1123.45
634.29	1116.32
634.64	1109.75
634.98	1102.77
635.32	1095.47
635.67	1089.55
636.01	1082.91
636.36	1076.58
636.70	1069.90
637.05	1063.25
637.39	1057.19
637.73	1051.19
638.08	1045.36
638.42	1039.51
638.77	1032.95
639.11	1026.79
639.45	1021.20
639.80	1014.75
640.14	1008.46
640.49	1002.44
640.83	996.25
641.17	990.09
641.52	984.09
641.86	977.63
642.20	971.72
642.55	965.24
642.89	958.75
643.23	952.58
643.58	946.78
643.92	940.45
644.26	934.54
644.61	928.55
644.95	922.60
645.29	916.29
645.64	909.82
645.98	903.95
646.32	898.50
646.66	892.32
647.01	886.50
647.35	880.84
647.69	874.62
648.04	868.78
648.38	862.81
648.72	856.96
649.06	851.20
649.41	845.20
649.75	839.59
650.09	833.68
650.43	827.79
650.78	821.59
651.12	815.55
651.46	809.71
651.80	803.93
652.14	797.95
652.49	792.30
652.83	786.51
653.17	780.66
653.51	774.70
653.85	769.01
654.20	763.29
654.54	757.52
654.88	752.30
655.22	746.36
655.56	740.64
655.90	735.02
656.25	729.31
656.59	723.89
656.93	718.65
657.27	713.64
657.61	708.33
657.95	703.53
658.29	698.59
658.64	693.65
658.98	688.53
659.32	683.29
659.66	678.17
660.00	673.01
660.34	667.71
660.68	662.61
661.02	657.71
661.36	653.05
661.70	648.34
662.05	643.79
662.39	639.57
662.73	635.28
663.07	630.98
663.41	626.82
663.75	622.50
664.09	617.88
664.43	613.47
664.77	609.15
665.11	604.74
665.45	600.48
665.79	596.12
666.13	591.75
666.47	587.81
666.81	583.71
667.15	579.84
667.49	576.40
667.83	572.51
668.17	568.68
668.51	564.90
668.85	561.37
669.19	557.61
669.53	553.85
669.87	549.84
670.21	545.98
670.55	542.13
670.89	538.60
671.23	535.41
671.57	532.05
671.91	528.69
672.25	525.16
672.58	521.74
672.92	518.39
673.26	515.25
673.60	511.99
673.94	508.71
674.28	505.47
674.62	502.07
674.96	498.99
675.30	496.04
675.64	492.84
675.97	489.63
676.31	486.58
676.65	483.72
676.99	481.25
677.33	478.56
677.67	475.71
678.01	472.69
678.34	469.57
678.68	466.64
679.02	463.64
679.36	460.87
679.70	458.22
680.04	455.34
680.37	452.40
680.71	449.65
681.05	447.07
681.39	444.48
681.73	441.93
682.06	439.50
682.40	436.95
682.74	434.47
683.08	432.00
683.42	429.49
683.75	427.06
684.09	424.35
684.43	421.91
684.77	419.47
685.10	417.04
685.44	414.72
685.78	412.27
686.12	410.20
686.45	407.98
686.79	405.60
687.13	403.50
687.46	401.50
687.80	399.43
688.14	397.20
688.48	395.09
688.81	392.86
689.15	390.75
689.49	388.50
689.82	386.33
690.16	383.99
690.50	381.65
690.83	379.35
691.17	377.20
691.51	374.97
691.84	372.85
692.18	370.90
692.52	369.06
692.85	367.29
693.19	365.29
693.52	363.24
693.86	361.37
694.20	359.57
694.53	357.70
694.87	355.70
695.21	353.78
695.54	351.91
695.88	350.10
696.21	348.23
696.55	346.55
696.88	344.89
697.22	343.12
697.56	341.76
697.89	340.20
698.23	338.58
698.56	337.07
698.90	335.71
699.23	334.18
699.57	332.63
699.90	331.06
700.24	329.55
700.58	328.13
700.91	326.58
701.25	325.22
701.58	323.73
701.92	322.29
702.25	320.99
702.59	319.70
702.92	318.37
703.26	316.94
703.59	315.68
703.93	314.50
704.26	313.33
704.60	312.00
704.93	310.78
705.26	309.56
705.60	308.27
705.93	306.96
706.27	305.83
706.60	304.66
706.94	303.54
707.27	302.34
707.61	301.19
707.94	300.11
708.27	298.86
708.61	297.87
708.94	296.86
709.28	295.83
709.61	294.70
709.94	293.70
710.28	292.76
710.61	291.77
710.95	290.69
711.28	289.84
711.61	288.80
711.95	287.87
712.28	286.92
712.61	286.04
712.95	285.19
713.28	284.23
713.61	283.26
713.95	282.33
714.28	281.52
714.61	280.64
714.95	279.76
715.28	278.80
715.61	277.84
715.95	276.97
716.28	276.08
716.61	275.20
716.95	274.30
717.28	273.49
717.61	272.59
717.94	271.83
718.28	270.99
718.61	270.24
718.94	269.42
719.27	268.70
719.61	268.09
719.94	267.38
720.27	266.64
720.60	265.98
720.94	265.25
721.27	264.54
721.60	263.90
721.93	263.34
722.27	262.82
722.60	262.21
722.93	261.59
723.26	261.01
723.59	260.53
723.93	260.02
724.26	259.47
724.59	259.01
724.92	258.40
725.25	257.88
725.59	257.40
725.92	256.97
726.25	256.51
726.58	255.93
726.91	255.38
727.24	254.90
727.57	254.33
727.91	253.86
728.24	253.44
728.57	252.96
728.90	252.49
729.23	251.94
729.56	251.62
729.89	251.17
730.22	250.66
730.55	250.14
730.89	249.71
731.22	249.26
731.55	248.74
731.88	248.35
732.21	247.99
732.54	247.51
732.87	247.04
733.20	246.54
733.53	246.09
733.86	245.73
734.19	245.27
734.52	244.98
734.85	244.66
735.18	244.19
735.51	243.91
735.84	243.40
736.17	243.14
736.50	242.64
736.83	242.47
737.16	242.20
737.49	241.84
737.82	241.42
738.15	241.05
738.48	240.73
738.81	240.35
739.14	239.88
739.47	239.49
739.80	239.07
740.13	238.67
740.46	238.26
740.79	237.84
741.12	237.50
741.45	237.16
741.78	236.82
742.11	236.59
742.44	236.13
742.77	236.02
743.10	235.63
743.43	235.31
743.75	234.85
744.08	234.75
744.41	234.42
744.74	234.14
745.07	233.85
745.40	233.64
745.73	233.46
746.06	233.19
746.39	232.97
746.71	232.76
747.04	232.58
747.37	232.33
747.70	232.10
748.03	231.88
748.36	231.66
748.68	231.38
749.01	231.07
749.34	230.86
749.67	230.63
750.00	230.36
750.33	230.25
750.65	230.06
750.98	229.69
751.31	229.47
751.64	229.28
751.97	229.16
752.29	228.89
752.62	228.61
752.95	228.36
753.28	228.10
753.60	227.88
753.93	227.69
754.26	227.55
754.59	227.24
754.91	227.05
755.24	226.83
755.57	226.63
755.90	226.40
756.22	226.30
756.55	226.02
756.88	225.84
757.20	225.62
757.53	225.35
757.86	225.08
758.19	224.94
758.51	224.74
758.84	224.44
759.17	224.22
759.49	224.09
759.82	223.98
760.15	223.87
760.47	223.69
760.80	223.50
761.13	223.31
761.45	223.24
761.78	223.09
762.11	222.90
762.43	222.67
762.76	222.56
763.08	222.30
763.41	222.17
763.74	222.08
764.06	221.84
764.39	221.73
764.71	221.63
765.04	221.47
765.37	221.37
765.69	221.30
766.02	221.20
766.34	220.94
766.67	220.75
767.00	220.70
767.32	220.65
767.65	220.59
767.97	220.54
768.30	220.43
768.62	220.29
768.95	220.19
769.27	220.08
769.60	220.04
769.92	219.97
770.25	219.78
770.57	219.63
770.90	219.54
771.22	219.39
771.55	219.27
771.87	219.17
772.20	219.10
772.52	219.10
772.85	219.18
773.17	219.20
773.50	219.10
773.82	218.96
774.15	218.80
774.47	218.62
774.80	218.49
775.12	218.39
775.45	218.31
775.77	218.21
776.09	218.13
776.42	218.00
776.74	217.93
777.07	217.84
777.39	217.78
777.72	217.66
778.04	217.61
778.36	217.54
778.69	217.51
779.01	217.41
779.33	217.13
779.66	216.91
779.98	216.81
780.31	216.81
780.63	216.81
780.95	216.82
781.28	216.83
781.60	216.71
781.92	216.63
782.25	216.55
782.57	216.50
782.89	216.48
783.22	216.40
783.54	216.32
783.86	216.42
784.19	216.36
784.51	216.37
784.83	216.27
785.16	216.13
785.48	216.04
785.80	216.01
786.12	216.05
786.45	216.02
786.77	215.97
787.09	215.90
787.42	215.76
787.74	215.76
788.06	215.55
788.38	215.55
788.71	215.47
789.03	215.43
789.35	215.35
789.67	215.33
789.99	215.34
790.32	215.30
790.64	215.20
790.96	215.40
791.28	215.40
791.61	215.42
791.93	215.40
792.25	215.36
792.57	215.41
792.89	215.24
793.21	215.21
793.54	215.21
793.86	215.15
794.18	215.14
794.50	215.05
794.82	215.13
795.14	215.11
795.47	215.15
795.79	215.13
796.11	215.10
796.43	215.04
796.75	214.96
797.07	214.94
797.39	214.88
797.71	214.72
798.04	214.62
798.36	214.58
798.68	214.51
799.00	214.50
799.32	214.41
799.64	214.54
799.96	214.45
800.28	214.47
800.60	214.45
800.92	214.43
801.24	214.42
801.56	214.33
801.89	214.31
802.21	214.25
802.53	214.22
802.85	214.20
803.17	214.20
803.49	214.15
803.81	214.11
804.13	214.09
804.45	213.97
804.77	213.99
805.09	213.97
805.41	214.01
805.73	213.98
806.05	213.97
806.37	213.87
806.69	213.90
807.01	213.79
807.33	213.75
807.65	213.64
807.97	213.62
808.28	213.62
808.60	213.59
808.92	213.55
809.24	213.62
809.56	213.57
809.88	213.51
810.20	213.47
810.52	213.45
810.84	213.41
811.16	213.35
811.48	213.32
811.80	213.33
812.12	213.29
812.43	213.28
812.75	213.17
813.07	213.15
813.39	213.10
813.71	213.04
814.03	213.04
814.35	213.06
814.67	213.00
814.98	213.00
815.30	212.94
815.62	212.92
815.94	212.82
816.26	212.85
816.58	212.78
816.89	212.80
817.21	212.75
817.53	212.77
817.85	212.83
818.17	212.79
818.48	212.68
818.80	212.78
819.12	212.75
819.44	212.72
819.76	212.67
820.07	212.76
820.39	212.79
820.71	212.79
821.03	212.82
821.34	212.76
821.66	212.78
821.98	212.76
822.30	212.72
822.61	212.83
822.93	212.75
823.25	212.68
823.57	212.63
823.88	212.68
824.20	212.60
824.52	212.51
824.83	212.49
825.15	212.49
825.47	212.35
825.79	212.38
826.10	212.33
826.42	212.37
826.74	212.30
827.05	212.30
827.37	212.26
827.69	212.17
828.00	212.17
828.32	212.16
828.64	212.14
828.95	212.22
829.27	212.11
829.58	212.12
829.90	212.20
830.22	212.26
830.53	212.16
830.85	212.15
831.17	212.14
831.48	212.11
831.80	212.12
832.11	212.20
832.43	212.14
832.75	212.17
833.06	212.21
833.38	212.18
833.69	212.14
834.01	212.13
834.32	212.17
834.64	212.15
834.96	212.11
835.27	212.15
835.59	212.09
835.90	212.03
836.22	212.05
836.53	212.03
836.85	212.02
837.16	212.24
837.48	212.33
837.79	212.35
838.11	212.37
838.42	212.34
838.74	212.29
839.05	212.32
839.37	212.34
839.68	212.30
840.00	212.27
840.31	212.25
840.63	212.30
840.94	212.18
841.26	212.17
841.57	212.18
841.88	212.13
842.20	212.11
842.51	212.14
842.83	212.14
843.14	212.31
843.46	212.27
843.77	212.24
844.08	212.14
844.40	212.12
844.71	212.16
845.03	212.20
845.34	212.20
845.65	212.14
845.97	212.10
846.28	212.07
846.60	212.06
846.91	212.07
847.22	212.05
847.54	212.15
847.85	212.19
848.16	212.23
848.48	212.26
848.79	212.41
849.10	212.38
849.42	212.38
849.73	212.18
850.04	212.22
850.36	212.05
850.67	212.08
850.98	212.13
851.30	212.19
851.61	212.18
851.92	212.18
852.23	212.25
852.55	212.28
852.86	212.34
853.17	212.35
853.49	212.42
853.80	212.41
854.11	212.47
854.42	212.46
854.74	212.42
855.05	212.42
855.36	212.23
855.67	212.29
855.99	212.28
856.30	212.52
856.61	212.52
856.92	212.52
857.23	212.52
857.55	212.45
857.86	212.36
858.17	212.38
858.48	212.39
858.79	212.36
859.11	212.35
859.42	212.33
859.73	212.28
860.04	212.21
860.35	212.20
860.66	212.06
860.98	212.05
861.29	212.13
861.60	212.13
861.91	212.21
862.22	212.15
862.53	212.19
862.84	211.99
863.16	212.02
863.47	212.03
863.78	212.03
864.09	212.00
864.40	212.00
864.71	211.93
865.02	211.88
865.33	211.84
865.64	211.80
865.95	211.75
866.27	211.94
866.58	211.98
866.89	211.94
867.20	211.98
867.51	211.94
867.82	211.90
868.13	211.89
868.44	211.81
868.75	211.83
869.06	211.75
869.37	211.71
869.68	211.58
869.99	211.58
870.30	211.55
870.61	211.64
870.92	211.59
871.23	211.61
871.54	211.65
871.85	211.67
872.16	211.72
872.47	211.68
872.78	211.55
873.09	211.46
873.40	211.52
873.71	211.47
874.02	211.42
874.33	211.32
874.64	211.28
874.95	211.30
875.26	211.29
875.56	211.29
875.87	211.33
876.18	211.30
876.49	211.40
876.80	211.36
877.11	211.30
877.42	211.35
877.73	211.32
878.04	211.28
878.35	211.28
878.66	211.23
878.96	211.29
879.27	211.27
879.58	211.33
879.89	211.29
880.20	211.44
880.51	211.51
880.82	211.54
881.12	211.57
881.43	211.53
881.74	211.43
882.05	211.47
882.36	211.41
882.67	211.51
882.97	211.39
883.28	211.45
883.59	211.42
883.90	211.37
884.21	211.47
884.51	211.44
884.82	211.44
885.13	211.50
885.44	211.47
885.74	211.44
886.05	211.45
886.36	211.41
886.67	211.25
886.98	211.31
887.28	211.31
887.59	211.33
887.90	211.36
888.20	211.43
888.51	211.47
888.82	211.52
889.13	211.51
889.43	211.58
889.74	211.50
890.05	211.45
890.35	211.45
890.66	211.37
890.97	211.32
891.28	211.27
891.58	211.18
891.89	211.20
892.20	211.16
892.50	211.10
892.81	211.03
893.12	211.04
893.42	210.96
893.73	210.95
894.04	210.90
894.34	210.91
894.65	210.89
894.95	210.80
895.26	210.75
895.57	210.79
895.87	210.68
896.18	210.75
896.48	210.81
896.79	210.88
897.10	210.90
897.40	210.96
897.71	211.00
898.01	211.06
898.32	211.10
898.63	211.11
898.93	211.10
899.24	211.10
899.54	211.12
899.85	211.17
900.15	211.18
900.46	211.16
900.76	211.19
901.07	211.29
901.38	211.32
901.68	211.28
901.99	211.18
902.29	211.17
902.60	211.16
902.90	211.18
903.21	211.10
903.51	211.05
903.82	211.13
904.12	211.09
904.43	211.02
904.73	210.98
905.03	211.01
905.34	211.22
905.64	211.33
905.95	211.32
906.25	211.33
906.56	211.32
906.86	211.39
907.17	211.35
907.47	211.30
907.77	211.26
908.08	211.30
908.38	211.33
908.69	211.34
908.99	211.30
909.30	211.28
909.60	211.33
909.90	211.40
910.21	211.33
910.51	211.34
910.81	211.35
911.12	211.35
911.42	211.35
911.73	211.15
912.03	211.17
912.33	211.21
912.64	211.14
912.94	211.10
913.24	211.00
913.55	210.98
913.85	210.90
914.15	210.97
914.46	210.95
914.76	210.94
915.06	210.95
915.37	210.92
915.67	210.93
915.97	210.91
916.27	210.88
916.58	210.83
916.88	210.75
917.18	210.76
917.49	210.82
917.79	210.83
918.09	210.77
918.39	210.76
918.70	210.78
919.00	210.77
919.30	210.94
919.60	210.92
919.91	210.94
920.21	211.00
920.51	210.95
920.81	210.98
921.12	211.00
921.42	210.95
921.72	211.02
922.02	211.03
922.32	211.04
922.63	210.99
922.93	211.09
923.23	211.16
923.53	211.17
923.83	211.11
924.13	211.15
924.44	211.14
924.74	211.18
925.04	211.14
925.34	211.18
925.64	211.10
925.94	211.11
926.24	211.20
926.55	211.20
926.85	211.21
927.15	211.21
927.45	211.24
927.75	211.25
928.05	211.24
928.35	211.17
928.65	211.19
928.95	211.26
929.26	211.18
929.56	211.25
929.86	211.23
930.16	211.22
930.46	211.17
930.76	211.25
931.06	211.20
931.36	211.18
931.66	211.11
931.96	211.07
932.26	211.04
932.56	210.91
932.86	210.87
933.16	210.90
933.46	210.85
933.76	210.78
934.06	210.79
934.36	210.83
934.66	210.78
934.96	210.80
935.26	210.79
935.56	210.78
935.86	210.69
936.16	210.62
936.46	210.59
936.76	210.53
937.06	210.44
937.36	210.37
937.66	210.40
937.96	210.42
938.26	210.41
938.56	210.40
938.86	210.45
939.16	210.55
939.46	210.57
939.76	210.67
940.06	210.72
940.35	210.74
940.65	210.64
940.95	210.74
941.25	210.70
941.55	210.64
941.85	210.68
942.15	210.80
942.45	210.91
942.75	210.91
943.04	210.94
943.34	211.06
943.64	211.07
943.94	211.05
944.24	211.10
944.54	211.14
944.84	211.21
945.13	211.26
945.43	211.20
945.73	211.18
946.03	211.11
946.33	211.06
946.62	211.05
946.92	211.03
947.22	211.02
947.52	211.07
947.82	211.08
948.11	211.12
948.41	210.98
948.71	210.90
949.01	210.90
949.31	210.91
949.60	210.89
949.90	210.95
950.20	210.92
950.50	210.92
950.79	210.93
951.09	210.92
951.39	210.86
951.69	210.83
951.98	210.89
952.28	210.91
952.58	210.97
952.87	211.01
953.17	211.10
953.47	211.07
953.76	211.00
954.06	210.97
954.36	210.90
954.66	210.94
954.95	211.00
955.25	210.96
955.55	210.99
955.84	210.94
956.14	210.95
956.44	210.96
956.73	210.92
957.03	210.93
957.32	210.94
957.62	210.91
957.92	210.99
958.21	210.96
958.51	211.14
958.81	211.14
959.10	211.08
959.40	211.14
959.69	211.14
959.99	211.16
960.29	211.21
960.58	211.18
960.88	211.31
961.17	211.32
961.47	211.39
961.76	211.31
962.06	211.29
962.36	211.22
962.65	211.26
962.95	211.30
963.24	211.24
963.54	211.25
963.83	211.29
964.13	211.26
964.42	211.20
964.72	211.13
965.01	211.06
965.31	211.13
965.60	211.07
965.90	211.15
966.19	211.15
966.49	211.05
966.78	211.12
967.08	211.00
967.37	210.97
967.67	210.98
967.96	211.10
968.26	211.22
968.55	211.29
968.85	211.31
969.14	211.23
969.43	211.24
969.73	211.19
970.02	211.15
970.32	211.09
970.61	211.17
970.91	211.00
971.20	210.99
971.49	211.03
971.79	211.06
972.08	210.95
972.38	210.97
972.67	211.00
972.96	210.97
973.26	210.95
973.55	210.98
973.85	210.94
974.14	210.91
974.43	210.88
974.73	210.85
975.02	210.78
975.31	210.77
975.61	210.75
975.90	210.77
976.19	210.75
976.49	210.81
976.78	210.77
977.07	210.86
977.37	210.89
977.66	210.78
977.95	210.71
978.24	210.73
978.54	210.74
978.83	210.82
979.12	210.90
979.42	210.91
979.71	210.93
980.00	210.94
980.29	210.89
980.59	210.80
980.88	210.83
981.17	210.84
981.46	210.83
981.76	210.83
982.05	210.84
982.34	210.91
982.63	210.90
982.93	210.86
983.22	210.90
983.51	210.92
983.80	210.99
984.09	211.03
984.39	211.01
984.68	210.96
984.97	210.92
985.26	210.83
985.55	210.83
985.85	210.75
986.14	210.75
986.43	210.79
986.72	210.84
987.01	210.75
987.30	210.75
987.59	210.83
987.89	210.82
988.18	210.89
988.47	210.89
988.76	210.84
989.05	210.88
989.34	210.89
989.63	210.91
989.92	210.96
990.22	210.96
990.51	210.97
990.80	211.01
991.09	211.06
991.38	211.10
991.67	211.16
991.96	211.21
992.25	211.26
992.54	211.21
992.83	211.28
993.12	211.32
993.41	211.38
993.70	211.45
993.99	211.51
994.28	211.46
994.58	211.47
994.87	211.45
995.16	211.45
995.45	211.42
995.74	211.37
996.03	211.39
996.32	211.35
996.61	211.42
996.90	211.37
997.19	211.35
997.48	211.35
997.77	211.30
998.06	211.28
998.34	211.26
998.63	211.32
998.92	211.22
999.21	211.28
999.50	211.28
999.79	211.22
1000.08	211.24
1000.37	211.22
1000.66	211.14
1000.95	211.24
1001.24	211.25
1001.53	211.21
1001.82	211.11
1002.11	211.09
1002.40	211.14
1002.68	211.10
1002.97	211.23
1003.26	211.24
1003.55	211.22
1003.84	211.26
1004.13	211.27
1004.42	211.24
1004.71	211.13
1004.99	211.20
1005.28	211.22
1005.57	211.25
1005.86	211.25
1006.15	211.25
1006.44	211.20
1006.72	211.28
1007.01	211.28
1007.30	211.21
1007.59	211.22
1007.88	211.28
1008.17	211.25
1008.45	211.21
1008.74	211.23
1009.03	211.16
1009.32	211.13
1009.60	211.07
1009.89	211.02
1010.18	211.01
1010.47	210.98
1010.76	211.09
1011.04	210.97
1011.33	210.96
1011.62	210.95
1011.91	210.93
1012.19	210.91
1012.48	210.91
1012.77	210.90
1013.05	210.91
1013.34	211.00
1013.63	210.98
1013.92	211.07
1014.20	210.95
1014.49	210.95
1014.78	210.99
1015.06	210.86
1015.35	210.82
1015.64	210.91
1015.92	210.90
1016.21	210.92
1016.50	210.97
1016.78	210.99
1017.07	210.93
1017.36	210.87
1017.64	210.84
1017.93	210.81
1018.22	210.76
1018.50	210.79
1018.79	210.75
1019.08	210.60
1019.36	210.65
1019.65	210.61
1019.93	210.62
1020.22	210.78
1020.51	210.85
1020.79	210.77
1021.08	210.50
1021.36	210.55
1021.65	210.50
1021.94	209.60
1022.22	212.75
1022.51	209.85
1022.79	212.10
1023.08	212.20
1023.36	212.25
1023.65	210.15
>>>>>End Processed Spectral Data<<<<<
