SpectraSuite Data File
++++++++++++++++++++++++++++++++++++
Date: Mon Feb 25 17:31:28 EST 2013
User: group
Dark Spectrum Present: No
Reference Spectrum Present: No
Number of Sampled Component Spectra: 1
Spectrometers: USB2E7196
Integration Time (usec): 52000 (USB2E7196)
Spectra Averaged: 20 (USB2E7196)
Boxcar Smoothing: 10 (USB2E7196)
Correct for Electrical Dark: No (USB2E7196)
Strobe/Lamp Enabled: No (USB2E7196)
Correct for Detector Non-linearity: No (USB2E7196)
Correct for Stray Light: No (USB2E7196)
Number of Pixels in Processed Spectrum: 2048
>>>>>Begin Processed Spectral Data<<<<<
339.09	0.00
339.48	199.55
339.86	199.40
340.24	201.50
340.63	202.35
341.01	207.35
341.39	205.50
341.78	207.25
342.16	208.45
342.54	209.20
342.93	198.04
343.31	208.05
343.69	208.55
344.07	209.05
344.46	209.46
344.84	209.84
345.22	209.98
345.60	210.26
345.99	210.38
346.37	210.50
346.75	210.62
347.13	210.64
347.52	210.75
347.90	210.85
348.28	210.82
348.66	210.83
349.05	210.79
349.43	210.79
349.81	210.86
350.19	210.85
350.57	210.87
350.96	210.90
351.34	210.96
351.72	211.04
352.10	211.14
352.48	211.19
352.87	211.31
353.25	211.39
353.63	211.44
354.01	211.55
354.39	211.65
354.77	211.70
355.15	211.82
355.54	211.83
355.92	211.78
356.30	211.95
356.68	212.12
357.06	212.17
357.44	212.19
357.82	212.21
358.20	212.37
358.58	212.48
358.97	212.56
359.35	212.67
359.73	212.80
360.11	212.95
360.49	213.07
360.87	213.05
361.25	213.13
361.63	213.25
362.01	213.36
362.39	213.41
362.77	213.46
363.15	213.50
363.53	213.56
363.91	213.69
364.29	213.75
364.67	213.65
365.05	213.78
365.43	213.92
365.81	214.00
366.19	214.05
366.57	214.14
366.95	214.23
367.33	214.20
367.71	214.17
368.09	214.15
368.47	214.14
368.85	214.20
369.23	214.26
369.61	214.27
369.99	214.32
370.37	214.35
370.75	214.43
371.13	214.49
371.51	214.44
371.89	214.43
372.27	214.48
372.65	214.50
373.03	214.43
373.41	214.38
373.78	214.37
374.16	214.32
374.54	214.21
374.92	214.11
375.30	214.08
375.68	214.01
376.06	213.97
376.44	213.94
376.82	213.90
377.19	213.80
377.57	213.66
377.95	213.55
378.33	213.55
378.71	213.36
379.09	213.25
379.47	213.28
379.84	213.22
380.22	213.11
380.60	213.07
380.98	213.10
381.36	213.06
381.73	212.99
382.11	212.93
382.49	212.92
382.87	212.82
383.25	212.75
383.62	212.99
384.00	212.93
384.38	212.90
384.76	212.98
385.13	212.96
385.51	212.92
385.89	212.79
386.27	212.66
386.64	212.67
387.02	212.60
387.40	212.51
387.78	212.38
388.15	212.39
388.53	212.29
388.91	212.24
389.29	212.15
389.66	212.11
390.04	212.06
390.42	212.09
390.79	212.09
391.17	212.07
391.55	211.91
391.92	211.83
392.30	211.80
392.68	211.63
393.05	211.69
393.43	211.67
393.81	211.71
394.18	211.59
394.56	211.60
394.94	211.65
395.31	211.60
395.69	211.69
396.06	211.66
396.44	211.67
396.82	211.70
397.19	211.78
397.57	211.78
397.95	211.82
398.32	211.77
398.70	211.81
399.07	211.90
399.45	211.82
399.82	211.87
400.20	211.90
400.58	211.98
400.95	211.93
401.33	212.00
401.70	212.20
402.08	212.31
402.45	212.34
402.83	212.49
403.20	212.64
403.58	212.70
403.95	212.77
404.33	212.93
404.71	212.96
405.08	213.15
405.46	213.22
405.83	213.39
406.21	213.46
406.58	213.64
406.96	213.78
407.33	214.02
407.70	214.19
408.08	214.48
408.45	214.74
408.83	214.99
409.20	215.20
409.58	215.32
409.95	215.70
410.33	216.00
410.70	216.21
411.08	216.60
411.45	216.94
411.82	217.33
412.20	217.74
412.57	218.21
412.95	218.57
413.32	219.18
413.69	219.60
414.07	220.20
414.44	220.83
414.82	221.49
415.19	222.17
415.56	222.94
415.94	223.66
416.31	224.48
416.68	225.43
417.06	226.46
417.43	227.47
417.81	228.51
418.18	229.62
418.55	230.83
418.93	232.08
419.30	233.46
419.67	234.85
420.04	236.16
420.42	237.70
420.79	239.40
421.16	241.03
421.54	242.87
421.91	244.69
422.28	246.48
422.66	248.50
423.03	250.55
423.40	252.55
423.77	254.76
424.15	256.95
424.52	259.22
424.89	261.76
425.26	264.12
425.64	266.38
426.01	268.92
426.38	271.42
426.75	274.02
427.13	276.74
427.50	279.55
427.87	282.65
428.24	285.75
428.61	288.72
428.99	291.94
429.36	295.37
429.73	298.74
430.10	302.27
430.47	305.71
430.85	309.27
431.22	313.18
431.59	317.33
431.96	321.22
432.33	325.49
432.70	329.55
433.08	334.46
433.45	339.06
433.82	343.56
434.19	348.65
434.56	353.58
434.93	358.35
435.30	363.12
435.68	368.33
436.05	373.33
436.42	378.38
436.79	382.94
437.16	387.96
437.53	393.24
437.90	398.33
438.27	403.45
438.64	408.67
439.01	413.57
439.38	417.80
439.75	421.96
440.13	426.77
440.50	431.27
440.87	434.87
441.24	438.76
441.61	442.95
441.98	446.09
442.35	449.72
442.72	453.26
443.09	456.59
443.46	458.74
443.83	460.00
444.20	461.00
444.57	462.90
444.94	463.66
445.31	464.46
445.68	465.20
446.05	465.34
446.42	464.60
446.79	463.78
447.16	462.90
447.53	462.41
447.90	460.34
448.27	458.32
448.64	455.49
449.01	453.36
449.37	449.75
449.74	446.35
450.11	442.24
450.48	437.85
450.85	433.44
451.22	429.40
451.59	425.88
451.96	422.44
452.33	417.67
452.70	413.40
453.07	408.33
453.43	403.20
453.80	398.31
454.17	393.81
454.54	389.41
454.91	384.75
455.28	379.99
455.65	375.64
456.02	371.38
456.38	367.67
456.75	363.03
457.12	359.24
457.49	355.44
457.86	351.79
458.23	348.58
458.59	345.15
458.96	341.72
459.33	338.60
459.70	335.52
460.07	332.95
460.43	330.11
460.80	327.41
461.17	325.07
461.54	322.70
461.91	320.38
462.27	318.03
462.64	315.99
463.01	313.87
463.38	311.71
463.74	309.47
464.11	307.60
464.48	306.05
464.85	304.30
465.21	303.02
465.58	301.54
465.95	299.90
466.32	298.50
466.68	297.10
467.05	295.64
467.42	294.28
467.78	292.94
468.15	291.60
468.52	290.70
468.88	289.36
469.25	288.18
469.62	287.15
469.98	286.11
470.35	285.21
470.72	284.30
471.08	283.30
471.45	282.52
471.82	281.82
472.18	280.98
472.55	280.47
472.92	279.67
473.28	279.08
473.65	278.57
474.02	277.97
474.38	277.51
474.75	277.18
475.11	276.82
475.48	276.62
475.85	276.39
476.21	276.12
476.58	276.11
476.94	276.19
477.31	276.16
477.67	276.11
478.04	276.15
478.41	276.28
478.77	276.65
479.14	276.77
479.50	277.08
479.87	277.42
480.23	277.76
480.60	278.16
480.96	278.57
481.33	279.08
481.69	279.70
482.06	280.34
482.42	280.97
482.79	281.68
483.15	282.47
483.52	283.49
483.88	284.39
484.25	285.36
484.61	286.32
484.98	287.43
485.34	288.75
485.71	290.13
486.07	291.63
486.44	292.97
486.80	294.57
487.17	296.16
487.53	298.06
487.90	299.86
488.26	301.73
488.62	303.88
488.99	305.91
489.35	308.14
489.72	310.49
490.08	312.89
490.44	315.41
490.81	318.05
491.17	320.73
491.54	323.71
491.90	326.70
492.26	329.93
492.63	333.23
492.99	336.70
493.36	340.26
493.72	344.03
494.08	347.97
494.45	352.17
494.81	356.63
495.17	361.13
495.54	366.00
495.90	371.09
496.26	376.25
496.63	381.86
496.99	387.63
497.35	393.56
497.72	399.82
498.08	406.26
498.44	413.01
498.80	420.14
499.17	427.56
499.53	435.14
499.89	443.07
500.26	451.22
500.62	459.46
500.98	468.45
501.34	477.42
501.71	486.82
502.07	496.55
502.43	506.61
502.79	516.69
503.16	527.23
503.52	538.00
503.88	549.16
504.24	560.64
504.60	572.49
504.97	584.75
505.33	597.16
505.69	610.50
506.05	623.69
506.41	637.28
506.78	650.80
507.14	664.82
507.50	679.39
507.86	694.26
508.22	709.76
508.59	724.94
508.95	740.75
509.31	757.01
509.67	773.54
510.03	790.24
510.39	807.73
510.75	825.44
511.12	843.58
511.48	861.86
511.84	880.29
512.20	898.85
512.56	917.88
512.92	937.26
513.28	956.66
513.64	976.46
514.00	996.03
514.37	1016.47
514.73	1037.45
515.09	1057.95
515.45	1078.74
515.81	1099.40
516.17	1120.40
516.53	1141.70
516.89	1163.14
517.25	1184.40
517.61	1205.74
517.97	1226.73
518.33	1247.91
518.69	1269.40
519.05	1291.13
519.41	1313.14
519.77	1335.68
520.13	1357.74
520.49	1379.83
520.85	1402.07
521.21	1424.50
521.57	1447.33
521.93	1469.08
522.29	1491.48
522.65	1513.85
523.01	1536.06
523.37	1558.39
523.73	1580.75
524.09	1602.64
524.45	1624.34
524.81	1646.42
525.17	1668.71
525.53	1691.15
525.89	1713.62
526.25	1735.18
526.61	1756.26
526.97	1777.66
527.33	1798.46
527.68	1819.55
528.04	1840.15
528.40	1860.05
528.76	1880.10
529.12	1900.54
529.48	1922.12
529.84	1941.90
530.20	1962.01
530.56	1982.07
530.91	2002.46
531.27	2022.33
531.63	2042.07
531.99	2061.97
532.35	2080.97
532.71	2099.70
533.07	2119.02
533.42	2137.04
533.78	2155.98
534.14	2174.35
534.50	2191.31
534.86	2209.15
535.21	2225.78
535.57	2243.53
535.93	2260.64
536.29	2277.56
536.65	2293.60
537.00	2308.94
537.36	2324.09
537.72	2338.93
538.08	2354.04
538.44	2369.01
538.79	2384.35
539.15	2399.26
539.51	2413.65
539.87	2428.66
540.22	2442.94
540.58	2457.25
540.94	2471.36
541.29	2483.73
541.65	2495.60
542.01	2508.32
542.37	2519.93
542.72	2532.00
543.08	2542.32
543.44	2554.07
543.79	2564.11
544.15	2574.31
544.51	2584.73
544.87	2595.52
545.22	2604.78
545.58	2612.79
545.94	2619.42
546.29	2625.45
546.65	2631.16
547.01	2636.98
547.36	2642.44
547.72	2647.52
548.07	2651.41
548.43	2655.14
548.79	2659.17
549.14	2663.74
549.50	2667.84
549.86	2671.63
550.21	2675.40
550.57	2679.65
550.92	2682.13
551.28	2684.66
551.64	2686.60
551.99	2688.75
552.35	2690.10
552.70	2692.30
553.06	2694.97
553.41	2697.97
553.77	2700.76
554.13	2702.80
554.48	2704.47
554.84	2705.96
555.19	2706.61
555.55	2707.03
555.90	2707.44
556.26	2707.58
556.61	2707.32
556.97	2706.08
557.32	2705.15
557.68	2703.09
558.03	2701.42
558.39	2699.94
558.74	2699.28
559.10	2698.66
559.45	2696.67
559.81	2695.47
560.16	2692.90
560.52	2690.46
560.87	2687.40
561.23	2683.26
561.58	2681.06
561.94	2677.88
562.29	2673.70
562.64	2671.33
563.00	2668.61
563.35	2666.50
563.71	2664.51
564.06	2662.26
564.42	2660.43
564.77	2658.22
565.12	2656.39
565.48	2653.31
565.83	2649.79
566.19	2646.30
566.54	2641.51
566.89	2637.43
567.25	2633.44
567.60	2630.24
567.96	2626.58
568.31	2623.12
568.66	2619.58
569.02	2614.95
569.37	2609.96
569.72	2606.35
570.08	2601.19
570.43	2595.67
570.78	2589.91
571.14	2583.56
571.49	2576.63
571.84	2570.51
572.20	2563.64
572.55	2557.19
572.90	2550.29
573.26	2543.51
573.61	2536.36
573.96	2530.10
574.31	2522.37
574.67	2514.51
575.02	2505.87
575.37	2497.20
575.72	2488.14
576.08	2480.66
576.43	2471.82
576.78	2464.07
577.13	2455.93
577.49	2448.08
577.84	2440.39
578.19	2432.67
578.54	2425.43
578.90	2418.93
579.25	2410.52
579.60	2401.76
579.95	2392.40
580.30	2384.63
580.66	2376.72
581.01	2368.18
581.36	2359.02
581.71	2351.15
582.06	2342.65
582.42	2334.72
582.77	2325.76
583.12	2317.02
583.47	2308.35
583.82	2300.42
584.17	2291.31
584.53	2282.46
584.88	2273.47
585.23	2264.47
585.58	2255.02
585.93	2245.46
586.28	2236.08
586.63	2227.42
586.98	2219.36
587.34	2211.42
587.69	2202.30
588.04	2193.25
588.39	2184.70
588.74	2175.81
589.09	2166.73
589.44	2157.35
589.79	2148.76
590.14	2141.23
590.49	2133.12
590.84	2124.22
591.19	2116.39
591.54	2107.95
591.89	2097.86
592.25	2088.77
592.60	2079.51
592.95	2070.43
593.30	2061.39
593.65	2052.05
594.00	2042.42
594.35	2033.86
594.70	2024.77
595.05	2016.17
595.40	2007.27
595.75	1997.85
596.10	1989.92
596.45	1981.87
596.80	1974.33
597.15	1966.32
597.50	1957.27
597.85	1949.05
598.19	1940.75
598.54	1931.81
598.89	1924.00
599.24	1917.44
599.59	1909.97
599.94	1902.94
600.29	1895.21
600.64	1887.46
600.99	1879.04
601.34	1872.10
601.69	1863.59
602.04	1855.56
602.39	1847.30
602.74	1839.97
603.08	1833.60
603.43	1826.64
603.78	1818.67
604.13	1810.86
604.48	1802.81
604.83	1795.90
605.18	1788.89
605.53	1781.27
605.87	1774.01
606.22	1766.94
606.57	1759.21
606.92	1751.56
607.27	1743.71
607.62	1736.58
607.96	1729.57
608.31	1723.80
608.66	1715.96
609.01	1708.45
609.36	1701.12
609.70	1693.69
610.05	1686.12
610.40	1678.09
610.75	1669.54
611.10	1662.10
611.44	1653.15
611.79	1644.35
612.14	1635.20
612.49	1625.80
612.83	1617.24
613.18	1607.70
613.53	1598.19
613.88	1588.59
614.22	1579.60
614.57	1570.54
614.92	1561.25
615.27	1552.07
615.61	1542.37
615.96	1533.43
616.31	1525.19
616.65	1517.14
617.00	1508.94
617.35	1500.46
617.70	1491.59
618.04	1482.70
618.39	1473.20
618.74	1464.69
619.08	1456.10
619.43	1447.86
619.78	1440.23
620.12	1432.33
620.47	1424.62
620.82	1416.37
621.16	1408.30
621.51	1400.05
621.85	1391.74
622.20	1383.59
622.55	1375.08
622.89	1366.81
623.24	1359.26
623.59	1350.64
623.93	1342.12
624.28	1333.90
624.62	1325.66
624.97	1317.67
625.32	1309.80
625.66	1302.86
626.01	1295.95
626.35	1289.15
626.70	1281.62
627.04	1273.99
627.39	1266.54
627.73	1259.15
628.08	1252.53
628.43	1245.37
628.77	1238.18
629.12	1230.81
629.46	1224.02
629.81	1217.19
630.15	1210.01
630.50	1202.75
630.84	1195.64
631.19	1188.49
631.53	1181.62
631.88	1174.22
632.22	1166.80
632.57	1160.06
632.91	1152.50
633.26	1145.01
633.60	1137.71
633.95	1131.08
634.29	1123.92
634.64	1117.01
634.98	1110.09
635.32	1102.96
635.67	1096.39
636.01	1089.72
636.36	1083.21
636.70	1076.79
637.05	1070.43
637.39	1064.27
637.73	1057.88
638.08	1052.22
638.42	1046.46
638.77	1040.37
639.11	1034.15
639.45	1028.26
639.80	1021.91
640.14	1015.80
640.49	1009.58
640.83	1003.50
641.17	997.11
641.52	991.13
641.86	984.85
642.20	978.88
642.55	972.30
642.89	965.95
643.23	959.69
643.58	953.74
643.92	947.23
644.26	940.95
644.61	934.98
644.95	929.10
645.29	922.60
645.64	916.11
645.98	909.94
646.32	904.14
646.66	897.89
647.01	892.02
647.35	886.13
647.69	880.07
648.04	874.09
648.38	868.08
648.72	862.01
649.06	856.15
649.41	849.95
649.75	844.32
650.09	838.69
650.43	832.99
650.78	826.87
651.12	820.83
651.46	815.12
651.80	809.14
652.14	803.22
652.49	797.21
652.83	791.44
653.17	785.35
653.51	779.56
653.85	773.91
654.20	768.02
654.54	762.33
654.88	756.97
655.22	751.26
655.56	745.66
655.90	739.93
656.25	734.09
656.59	728.65
656.93	723.50
657.27	718.27
657.61	712.86
657.95	707.97
658.29	703.01
658.64	697.96
658.98	692.86
659.32	687.46
659.66	682.63
660.00	677.43
660.34	672.26
660.68	667.02
661.02	662.20
661.36	657.58
661.70	652.72
662.05	648.10
662.39	643.69
662.73	639.29
663.07	635.19
663.41	631.02
663.75	626.71
664.09	622.05
664.43	617.53
664.77	613.05
665.11	608.56
665.45	604.25
665.79	599.77
666.13	595.41
666.47	591.29
666.81	587.26
667.15	583.21
667.49	579.51
667.83	575.75
668.17	571.82
668.51	567.90
668.85	564.25
669.19	560.51
669.53	556.57
669.87	552.64
670.21	548.85
670.55	545.01
670.89	541.62
671.23	538.23
671.57	534.54
671.91	531.03
672.25	527.53
672.58	524.08
672.92	520.66
673.26	517.50
673.60	514.27
673.94	510.84
674.28	507.66
674.62	504.53
674.96	501.40
675.30	498.34
675.64	495.19
675.97	492.11
676.31	489.06
676.65	486.34
676.99	483.75
677.33	480.71
677.67	477.74
678.01	474.66
678.34	471.74
678.68	469.01
679.02	466.23
679.36	463.60
679.70	460.91
680.04	458.18
680.37	455.30
680.71	452.68
681.05	450.17
681.39	447.40
681.73	444.74
682.06	442.26
682.40	439.76
682.74	437.20
683.08	434.60
683.42	431.94
683.75	429.34
684.09	426.73
684.43	424.30
684.77	421.85
685.10	419.33
685.44	416.93
685.78	414.52
686.12	412.28
686.45	409.76
686.79	407.45
687.13	405.41
687.46	403.26
687.80	400.99
688.14	398.66
688.48	396.71
688.81	394.36
689.15	392.16
689.49	389.92
689.82	387.84
690.16	385.55
690.50	383.35
690.83	381.05
691.17	378.83
691.51	376.72
691.84	374.67
692.18	372.65
692.52	370.55
692.85	368.74
693.19	366.86
693.52	364.99
693.86	362.99
694.20	361.05
694.53	359.21
694.87	357.25
695.21	355.36
695.54	353.48
695.88	351.72
696.21	349.84
696.55	348.11
696.88	346.39
697.22	344.81
697.56	343.29
697.89	341.90
698.23	340.38
698.56	338.82
698.90	337.38
699.23	335.73
699.57	334.27
699.90	332.58
700.24	330.95
700.58	329.40
700.91	328.00
701.25	326.58
701.58	325.13
701.92	323.77
702.25	322.42
702.59	320.99
702.92	319.69
703.26	318.39
703.59	317.15
703.93	315.99
704.26	314.70
704.60	313.39
704.93	312.05
705.26	310.73
705.60	309.50
705.93	308.23
706.27	307.17
706.60	306.09
706.94	305.07
707.27	303.90
707.61	302.80
707.94	301.56
708.27	300.20
708.61	299.07
708.94	297.92
709.28	296.82
709.61	295.72
709.94	294.62
710.28	293.50
710.61	292.42
710.95	291.21
711.28	290.29
711.61	289.22
711.95	288.25
712.28	287.28
712.61	286.29
712.95	285.39
713.28	284.65
713.61	283.61
713.95	282.63
714.28	281.72
714.61	280.75
714.95	279.94
715.28	279.08
715.61	278.18
715.95	277.37
716.28	276.55
716.61	275.71
716.95	274.84
717.28	274.09
717.61	273.31
717.94	272.57
718.28	271.77
718.61	271.05
718.94	270.19
719.27	269.53
719.61	268.79
719.94	268.05
720.27	267.16
720.60	266.49
720.94	265.82
721.27	265.18
721.60	264.64
721.93	263.93
722.27	263.38
722.60	262.79
722.93	262.20
723.26	261.60
723.59	260.98
723.93	260.42
724.26	259.85
724.59	259.20
724.92	258.58
725.25	258.04
725.59	257.48
725.92	257.08
726.25	256.55
726.58	256.07
726.91	255.56
727.24	255.04
727.57	254.58
727.91	254.00
728.24	253.55
728.57	253.04
728.90	252.69
729.23	252.23
729.56	251.80
729.89	251.28
730.22	250.71
730.55	250.34
730.89	249.89
731.22	249.44
731.55	249.05
731.88	248.65
732.21	248.24
732.54	247.80
732.87	247.35
733.20	246.92
733.53	246.46
733.86	246.13
734.19	245.66
734.52	245.26
734.85	245.03
735.18	244.57
735.51	244.27
735.84	243.85
736.17	243.49
736.50	243.12
736.83	242.99
737.16	242.65
737.49	242.29
737.82	241.93
738.15	241.65
738.48	241.30
738.81	240.97
739.14	240.55
739.47	240.27
739.80	239.91
740.13	239.60
740.46	239.33
740.79	238.89
741.12	238.61
741.45	238.32
741.78	237.88
742.11	237.72
742.44	237.33
742.77	237.09
743.10	236.76
743.43	236.43
743.75	235.92
744.08	235.96
744.41	235.61
744.74	235.37
745.07	235.06
745.40	234.85
745.73	234.70
746.06	234.42
746.39	234.20
746.71	233.95
747.04	233.66
747.37	233.42
747.70	233.28
748.03	233.04
748.36	232.78
748.68	232.55
749.01	232.23
749.34	231.96
749.67	231.68
750.00	231.49
750.33	231.39
750.65	231.23
750.98	230.68
751.31	230.50
751.64	230.25
751.97	230.01
752.29	229.72
752.62	229.38
752.95	229.21
753.28	228.90
753.60	228.62
753.93	228.48
754.26	228.22
754.59	227.92
754.91	227.72
755.24	227.47
755.57	227.27
755.90	227.05
756.22	226.79
756.55	226.49
756.88	226.29
757.20	225.89
757.53	225.63
757.86	225.49
758.19	225.24
758.51	225.05
758.84	224.82
759.17	224.66
759.49	224.39
759.82	224.22
760.15	224.01
760.47	223.88
760.80	223.59
761.13	223.37
761.45	223.18
761.78	222.94
762.11	222.82
762.43	222.60
762.76	222.42
763.08	222.42
763.41	222.34
763.74	222.14
764.06	222.03
764.39	221.80
764.71	221.72
765.04	221.58
765.37	221.46
765.69	221.29
766.02	221.23
766.34	221.19
766.67	221.05
767.00	221.00
767.32	220.95
767.65	220.87
767.97	220.75
768.30	220.61
768.62	220.51
768.95	220.30
769.27	220.27
769.60	220.15
769.92	220.00
770.25	219.92
770.57	219.80
770.90	219.71
771.22	219.69
771.55	219.49
771.87	219.44
772.20	219.37
772.52	219.49
772.85	219.51
773.17	219.44
773.50	219.31
773.82	219.20
774.15	218.96
774.47	218.77
774.80	218.73
775.12	218.64
775.45	218.59
775.77	218.55
776.09	218.47
776.42	218.36
776.74	218.29
777.07	218.06
777.39	217.95
777.72	217.85
778.04	217.81
778.36	217.73
778.69	217.63
779.01	217.52
779.33	217.28
779.66	217.01
779.98	216.90
780.31	216.89
780.63	216.90
780.95	216.96
781.28	217.03
781.60	216.94
781.92	216.94
782.25	216.86
782.57	216.83
782.89	216.75
783.22	216.71
783.54	216.60
783.86	216.60
784.19	216.53
784.51	216.54
784.83	216.42
785.16	216.40
785.48	216.37
785.80	216.31
786.12	216.21
786.45	216.17
786.77	216.16
787.09	216.06
787.42	215.95
787.74	215.82
788.06	215.66
788.38	215.62
788.71	215.53
789.03	215.49
789.35	215.47
789.67	215.44
789.99	215.40
790.32	215.35
790.64	215.35
790.96	215.44
791.28	215.31
791.61	215.30
791.93	215.26
792.25	215.20
792.57	215.30
792.89	215.26
793.21	215.26
793.54	215.17
793.86	215.05
794.18	215.02
794.50	215.09
794.82	215.08
795.14	215.00
795.47	214.95
795.79	214.90
796.11	214.85
796.43	214.72
796.75	214.70
797.07	214.73
797.39	214.67
797.71	214.62
798.04	214.62
798.36	214.57
798.68	214.60
799.00	214.55
799.32	214.33
799.64	214.32
799.96	214.27
800.28	214.20
800.60	214.24
800.92	214.17
801.24	214.06
801.56	214.06
801.89	214.10
802.21	214.05
802.53	214.01
802.85	214.03
803.17	214.11
803.49	214.05
803.81	214.01
804.13	214.04
804.45	213.96
804.77	213.93
805.09	213.94
805.41	213.86
805.73	213.80
806.05	213.79
806.37	213.80
806.69	213.79
807.01	213.81
807.33	213.78
807.65	213.75
807.97	213.83
808.28	213.87
808.60	213.85
808.92	213.86
809.24	213.94
809.56	213.76
809.88	213.76
810.20	213.77
810.52	213.79
810.84	213.72
811.16	213.65
811.48	213.66
811.80	213.63
812.12	213.63
812.43	213.67
812.75	213.66
813.07	213.57
813.39	213.56
813.71	213.52
814.03	213.49
814.35	213.51
814.67	213.38
814.98	213.29
815.30	213.26
815.62	213.23
815.94	213.05
816.26	213.12
816.58	212.99
816.89	212.95
817.21	212.87
817.53	212.85
817.85	212.89
818.17	212.83
818.48	212.74
818.80	212.70
819.12	212.72
819.44	212.70
819.76	212.71
820.07	212.73
820.39	212.78
820.71	212.75
821.03	212.66
821.34	212.65
821.66	212.66
821.98	212.70
822.30	212.68
822.61	212.81
822.93	212.77
823.25	212.81
823.57	212.83
823.88	212.86
824.20	212.85
824.52	212.86
824.83	212.89
825.15	212.92
825.47	212.89
825.79	212.86
826.10	212.87
826.42	212.80
826.74	212.72
827.05	212.61
827.37	212.71
827.69	212.78
828.00	212.71
828.32	212.76
828.64	212.61
828.95	212.66
829.27	212.60
829.58	212.61
829.90	212.63
830.22	212.60
830.53	212.54
830.85	212.46
831.17	212.38
831.48	212.33
831.80	212.31
832.11	212.32
832.43	212.32
832.75	212.35
833.06	212.58
833.38	212.57
833.69	212.59
834.01	212.49
834.32	212.44
834.64	212.38
834.96	212.29
835.27	212.33
835.59	212.30
835.90	212.26
836.22	212.24
836.53	212.22
836.85	212.19
837.16	212.33
837.48	212.40
837.79	212.46
838.11	212.45
838.42	212.46
838.74	212.41
839.05	212.43
839.37	212.38
839.68	212.18
840.00	212.08
840.31	212.03
840.63	212.02
840.94	211.99
841.26	212.07
841.57	212.06
841.88	212.13
842.20	212.08
842.51	212.03
842.83	211.97
843.14	212.11
843.46	212.09
843.77	212.02
844.08	211.94
844.40	211.86
844.71	211.81
845.03	211.80
845.34	211.84
845.65	211.79
845.97	211.76
846.28	211.78
846.60	211.83
846.91	211.88
847.22	211.86
847.54	211.90
847.85	211.87
848.16	211.85
848.48	211.82
848.79	211.94
849.10	211.94
849.42	212.02
849.73	211.81
850.04	211.82
850.36	211.75
850.67	211.83
850.98	211.90
851.30	212.01
851.61	211.98
851.92	211.96
852.23	211.95
852.55	212.03
852.86	212.03
853.17	212.08
853.49	212.07
853.80	212.17
854.11	212.20
854.42	212.29
854.74	212.29
855.05	212.25
855.36	212.13
855.67	212.22
855.99	212.22
856.30	212.41
856.61	212.36
856.92	212.40
857.23	212.32
857.55	212.27
857.86	212.20
858.17	212.25
858.48	212.16
858.79	212.10
859.11	212.05
859.42	212.00
859.73	211.96
860.04	211.97
860.35	211.90
860.66	211.82
860.98	211.74
861.29	211.73
861.60	211.68
861.91	211.65
862.22	211.54
862.53	211.49
862.84	211.28
863.16	211.34
863.47	211.30
863.78	211.28
864.09	211.28
864.40	211.27
864.71	211.22
865.02	211.29
865.33	211.28
865.64	211.20
865.95	211.27
866.27	211.34
866.58	211.31
866.89	211.35
867.20	211.37
867.51	211.34
867.82	211.39
868.13	211.49
868.44	211.53
868.75	211.56
869.06	211.58
869.37	211.71
869.68	211.61
869.99	211.65
870.30	211.74
870.61	211.80
870.92	211.80
871.23	211.77
871.54	211.80
871.85	211.88
872.16	212.00
872.47	211.93
872.78	211.85
873.09	211.87
873.40	211.79
873.71	211.79
874.02	211.78
874.33	211.78
874.64	211.76
874.95	211.78
875.26	211.77
875.56	211.78
875.87	211.74
876.18	211.79
876.49	211.93
876.80	211.90
877.11	211.85
877.42	211.89
877.73	211.95
878.04	211.98
878.35	211.95
878.66	211.89
878.96	211.93
879.27	211.88
879.58	211.86
879.89	211.85
880.20	211.82
880.51	211.84
880.82	211.73
881.12	211.72
881.43	211.63
881.74	211.64
882.05	211.56
882.36	211.53
882.67	211.52
882.97	211.31
883.28	211.22
883.59	211.16
883.90	211.12
884.21	211.13
884.51	211.12
884.82	211.07
885.13	211.06
885.44	211.06
885.74	211.06
886.05	211.10
886.36	211.14
886.67	211.13
886.98	211.23
887.28	211.19
887.59	211.16
887.90	211.22
888.20	211.19
888.51	211.32
888.82	211.27
889.13	211.25
889.43	211.33
889.74	211.35
890.05	211.39
890.35	211.36
890.66	211.33
890.97	211.25
891.28	211.24
891.58	211.25
891.89	211.27
892.20	211.38
892.50	211.27
892.81	211.30
893.12	211.30
893.42	211.19
893.73	211.30
894.04	211.34
894.34	211.35
894.65	211.34
894.95	211.25
895.26	211.26
895.57	211.35
895.87	211.24
896.18	211.30
896.48	211.31
896.79	211.44
897.10	211.45
897.40	211.52
897.71	211.60
898.01	211.59
898.32	211.58
898.63	211.50
898.93	211.59
899.24	211.50
899.54	211.51
899.85	211.55
900.15	211.58
900.46	211.52
900.76	211.56
901.07	211.61
901.38	211.66
901.68	211.69
901.99	211.62
902.29	211.70
902.60	211.72
902.90	211.68
903.21	211.59
903.51	211.59
903.82	211.60
904.12	211.57
904.43	211.61
904.73	211.54
905.03	211.57
905.34	211.72
905.64	211.82
905.95	211.79
906.25	211.78
906.56	211.76
906.86	211.84
907.17	211.78
907.47	211.77
907.77	211.75
908.08	211.74
908.38	211.75
908.69	211.69
908.99	211.71
909.30	211.74
909.60	211.81
909.90	211.84
910.21	211.81
910.51	211.78
910.81	211.81
911.12	211.94
911.42	211.92
911.73	211.80
912.03	211.75
912.33	211.77
912.64	211.74
912.94	211.65
913.24	211.60
913.55	211.62
913.85	211.70
914.15	211.71
914.46	211.72
914.76	211.69
915.06	211.68
915.37	211.60
915.67	211.62
915.97	211.55
916.27	211.50
916.58	211.42
916.88	211.47
917.18	211.48
917.49	211.45
917.79	211.51
918.09	211.52
918.39	211.54
918.70	211.55
919.00	211.56
919.30	211.70
919.60	211.69
919.91	211.62
920.21	211.49
920.51	211.44
920.81	211.38
921.12	211.41
921.42	211.40
921.72	211.39
922.02	211.37
922.32	211.43
922.63	211.41
922.93	211.59
923.23	211.52
923.53	211.41
923.83	211.30
924.13	211.26
924.44	211.24
924.74	211.26
925.04	211.28
925.34	211.33
925.64	211.32
925.94	211.31
926.24	211.40
926.55	211.40
926.85	211.40
927.15	211.41
927.45	211.43
927.75	211.40
928.05	211.49
928.35	211.46
928.65	211.40
928.95	211.38
929.26	211.16
929.56	211.23
929.86	211.26
930.16	211.28
930.46	211.28
930.76	211.24
931.06	211.20
931.36	211.12
931.66	211.12
931.96	210.99
932.26	210.90
932.56	210.85
932.86	210.85
933.16	210.85
933.46	210.86
933.76	210.77
934.06	210.84
934.36	210.86
934.66	210.80
934.96	210.83
935.26	210.88
935.56	211.01
935.86	210.90
936.16	210.81
936.46	210.80
936.76	210.73
937.06	210.75
937.36	210.72
937.66	210.78
937.96	210.75
938.26	210.78
938.56	210.84
938.86	210.90
939.16	210.95
939.46	210.95
939.76	210.97
940.06	210.94
940.35	210.91
940.65	210.82
940.95	210.83
941.25	210.76
941.55	210.76
941.85	210.73
942.15	210.84
942.45	210.96
942.75	210.99
943.04	211.00
943.34	210.95
943.64	210.95
943.94	210.88
944.24	210.87
944.54	210.88
944.84	210.91
945.13	210.78
945.43	210.74
945.73	210.78
946.03	210.77
946.33	210.75
946.62	210.80
946.92	210.78
947.22	210.84
947.52	210.82
947.82	210.83
948.11	210.80
948.41	210.77
948.71	210.73
949.01	210.75
949.31	210.72
949.60	210.70
949.90	210.71
950.20	210.75
950.50	210.81
950.79	210.77
951.09	210.78
951.39	210.80
951.69	210.88
951.98	210.95
952.28	210.98
952.58	211.04
952.87	210.98
953.17	211.07
953.47	211.05
953.76	211.08
954.06	211.00
954.36	211.02
954.66	211.00
954.95	211.01
955.25	211.03
955.55	211.05
955.84	211.05
956.14	211.09
956.44	211.07
956.73	210.93
957.03	211.01
957.32	210.97
957.62	210.98
957.92	210.91
958.21	210.82
958.51	210.99
958.81	210.98
959.10	211.00
959.40	210.98
959.69	210.97
959.99	210.99
960.29	211.02
960.58	210.96
960.88	210.97
961.17	210.99
961.47	211.02
961.76	211.05
962.06	211.09
962.36	211.02
962.65	211.04
962.95	211.15
963.24	211.11
963.54	211.14
963.83	211.19
964.13	211.22
964.42	211.21
964.72	211.06
965.01	211.08
965.31	211.05
965.60	211.07
965.90	211.20
966.19	211.14
966.49	211.18
966.78	211.20
967.08	211.25
967.37	211.18
967.67	211.11
967.96	211.14
968.26	211.14
968.55	211.18
968.85	211.13
969.14	211.09
969.43	211.08
969.73	211.07
970.02	211.07
970.32	211.07
970.61	211.02
970.91	210.99
971.20	210.99
971.49	211.00
971.79	210.98
972.08	210.89
972.38	210.87
972.67	210.87
972.96	210.90
973.26	210.88
973.55	211.05
973.85	211.09
974.14	211.07
974.43	211.11
974.73	211.12
975.02	211.12
975.31	211.10
975.61	211.05
975.90	211.06
976.19	211.04
976.49	211.04
976.78	211.11
977.07	211.10
977.37	211.12
977.66	211.17
977.95	211.20
978.24	211.20
978.54	211.34
978.83	211.39
979.12	211.41
979.42	211.40
979.71	211.28
980.00	211.24
980.29	211.23
980.59	211.20
980.88	211.20
981.17	211.20
981.46	211.21
981.76	211.17
982.05	211.19
982.34	211.17
982.63	211.23
982.93	211.18
983.22	211.24
983.51	211.22
983.80	211.20
984.09	211.18
984.39	211.15
984.68	211.05
984.97	211.00
985.26	210.94
985.55	210.90
985.85	210.82
986.14	210.87
986.43	210.89
986.72	210.90
987.01	210.84
987.30	210.83
987.59	210.84
987.89	210.88
988.18	210.85
988.47	210.85
988.76	210.77
989.05	210.78
989.34	210.78
989.63	210.85
989.92	210.83
990.22	210.71
990.51	210.71
990.80	210.65
991.09	210.66
991.38	210.67
991.67	210.70
991.96	210.67
992.25	210.66
992.54	210.64
992.83	210.63
993.12	210.61
993.41	210.62
993.70	210.71
993.99	210.80
994.28	210.79
994.58	210.79
994.87	210.79
995.16	210.79
995.45	210.75
995.74	210.70
996.03	210.69
996.32	210.77
996.61	210.86
996.90	210.91
997.19	210.93
997.48	210.95
997.77	210.95
998.06	211.07
998.34	211.06
998.63	211.01
998.92	210.95
999.21	211.04
999.50	211.08
999.79	211.04
1000.08	210.95
1000.37	210.94
1000.66	211.01
1000.95	210.94
1001.24	210.95
1001.53	210.97
1001.82	211.00
1002.11	211.03
1002.40	211.04
1002.68	210.98
1002.97	211.13
1003.26	211.08
1003.55	211.00
1003.84	211.00
1004.13	211.05
1004.42	211.02
1004.71	211.05
1004.99	211.07
1005.28	211.07
1005.57	211.14
1005.86	211.07
1006.15	211.09
1006.44	211.14
1006.72	211.14
1007.01	211.19
1007.30	211.10
1007.59	211.03
1007.88	211.00
1008.17	210.90
1008.45	210.93
1008.74	210.94
1009.03	210.84
1009.32	210.84
1009.60	210.86
1009.89	210.80
1010.18	210.68
1010.47	210.70
1010.76	210.68
1011.04	210.63
1011.33	210.64
1011.62	210.57
1011.91	210.65
1012.19	210.73
1012.48	210.74
1012.77	210.74
1013.05	210.82
1013.34	210.91
1013.63	210.91
1013.92	210.87
1014.20	210.94
1014.49	210.95
1014.78	210.93
1015.06	210.95
1015.35	210.96
1015.64	210.96
1015.92	211.01
1016.21	211.02
1016.50	211.05
1016.78	211.14
1017.07	211.18
1017.36	211.18
1017.64	211.18
1017.93	211.15
1018.22	211.11
1018.50	211.04
1018.79	211.00
1019.08	210.93
1019.36	210.90
1019.65	210.89
1019.93	210.98
1020.22	211.01
1020.51	210.96
1020.79	210.94
1021.08	211.00
1021.36	210.30
1021.65	210.95
1021.94	210.75
1022.22	210.45
1022.51	209.75
1022.79	212.00
1023.08	211.70
1023.36	211.15
1023.65	210.35
>>>>>End Processed Spectral Data<<<<<
