SpectraSuite Data File
++++++++++++++++++++++++++++++++++++
Date: Mon Feb 25 17:34:06 EST 2013
User: group
Dark Spectrum Present: No
Reference Spectrum Present: No
Number of Sampled Component Spectra: 1
Spectrometers: USB2E7196
Integration Time (usec): 52000 (USB2E7196)
Spectra Averaged: 20 (USB2E7196)
Boxcar Smoothing: 10 (USB2E7196)
Correct for Electrical Dark: No (USB2E7196)
Strobe/Lamp Enabled: No (USB2E7196)
Correct for Detector Non-linearity: No (USB2E7196)
Correct for Stray Light: No (USB2E7196)
Number of Pixels in Processed Spectrum: 2048
>>>>>Begin Processed Spectral Data<<<<<
339.09	0.00
339.48	197.35
339.86	200.95
340.24	201.55
340.63	202.80
341.01	207.30
341.39	206.50
341.78	207.15
342.16	209.45
342.54	205.90
342.93	198.06
343.31	208.05
343.69	208.68
344.07	209.15
344.46	209.56
344.84	209.98
345.22	210.10
345.60	210.31
345.99	210.54
346.37	210.63
346.75	210.81
347.13	210.85
347.52	210.96
347.90	211.11
348.28	211.11
348.66	211.23
349.05	211.15
349.43	211.23
349.81	211.30
350.19	211.32
350.57	211.44
350.96	211.47
351.34	211.62
351.72	211.68
352.10	211.72
352.48	211.83
352.87	211.89
353.25	212.04
353.63	212.17
354.01	212.21
354.39	212.32
354.77	212.47
355.15	212.57
355.54	212.57
355.92	212.61
356.30	212.70
356.68	212.92
357.06	213.03
357.44	213.01
357.82	213.05
358.20	213.07
358.58	213.14
358.97	213.25
359.35	213.32
359.73	213.44
360.11	213.55
360.49	213.68
360.87	213.76
361.25	213.76
361.63	213.83
362.01	213.85
362.39	213.90
362.77	213.91
363.15	213.98
363.53	213.97
363.91	214.02
364.29	214.06
364.67	213.85
365.05	213.85
365.43	213.93
365.81	213.93
366.19	214.06
366.57	214.16
366.95	214.16
367.33	214.11
367.71	214.10
368.09	214.15
368.47	214.04
368.85	214.02
369.23	214.10
369.61	214.04
369.99	214.13
370.37	214.09
370.75	214.25
371.13	214.26
371.51	214.20
371.89	214.24
372.27	214.26
372.65	214.23
373.03	214.28
373.41	214.25
373.78	214.27
374.16	214.16
374.54	214.06
374.92	214.05
375.30	214.04
375.68	213.94
376.06	213.81
376.44	213.80
376.82	213.78
377.19	213.73
377.57	213.63
377.95	213.50
378.33	213.49
378.71	213.27
379.09	213.22
379.47	213.28
379.84	213.14
380.22	213.05
380.60	213.02
380.98	212.94
381.36	212.84
381.73	212.79
382.11	212.70
382.49	212.65
382.87	212.56
383.25	212.47
383.62	212.61
384.00	212.57
384.38	212.48
384.76	212.44
385.13	212.44
385.51	212.46
385.89	212.40
386.27	212.35
386.64	212.39
387.02	212.31
387.40	212.25
387.78	212.26
388.15	212.20
388.53	212.14
388.91	212.10
389.29	212.04
389.66	211.96
390.04	211.96
390.42	211.99
390.79	211.93
391.17	211.92
391.55	211.81
391.92	211.82
392.30	211.84
392.68	211.74
393.05	211.70
393.43	211.68
393.81	211.66
394.18	211.62
394.56	211.58
394.94	211.60
395.31	211.54
395.69	211.59
396.06	211.56
396.44	211.63
396.82	211.63
397.19	211.86
397.57	211.89
397.95	211.92
398.32	211.85
398.70	211.89
399.07	211.94
399.45	211.87
399.82	211.94
400.20	211.96
400.58	212.03
400.95	212.04
401.33	212.09
401.70	212.27
402.08	212.27
402.45	212.30
402.83	212.41
403.20	212.53
403.58	212.51
403.95	212.67
404.33	212.75
404.71	212.78
405.08	212.87
405.46	212.95
405.83	213.10
406.21	213.22
406.58	213.41
406.96	213.57
407.33	213.82
407.70	213.97
408.08	214.28
408.45	214.54
408.83	214.81
409.20	214.99
409.58	215.20
409.95	215.55
410.33	215.87
410.70	216.12
411.08	216.50
411.45	216.88
411.82	217.29
412.20	217.72
412.57	218.31
412.95	218.64
413.32	219.17
413.69	219.65
414.07	220.21
414.44	220.90
414.82	221.59
415.19	222.31
415.56	223.08
415.94	223.73
416.31	224.68
416.68	225.49
417.06	226.52
417.43	227.47
417.81	228.55
418.18	229.78
418.55	230.98
418.93	232.28
419.30	233.62
419.67	235.01
420.04	236.44
420.42	237.92
420.79	239.74
421.16	241.51
421.54	243.40
421.91	245.21
422.28	247.08
422.66	249.06
423.03	251.05
423.40	253.17
423.77	255.48
424.15	257.62
424.52	260.04
424.89	262.60
425.26	265.09
425.64	267.34
426.01	269.90
426.38	272.64
426.75	275.32
427.13	278.16
427.50	281.08
427.87	284.20
428.24	287.25
428.61	290.22
428.99	293.50
429.36	296.97
429.73	300.52
430.10	303.97
430.47	307.50
430.85	311.17
431.22	315.05
431.59	319.29
431.96	323.38
432.33	327.74
432.70	331.95
433.08	336.82
433.45	341.72
433.82	346.37
434.19	351.50
434.56	356.61
434.93	361.32
435.30	366.16
435.68	371.39
436.05	376.64
436.42	381.79
436.79	386.46
437.16	391.53
437.53	396.86
437.90	402.16
438.27	407.40
438.64	412.87
439.01	417.83
439.38	422.05
439.75	426.08
440.13	430.85
440.50	435.46
440.87	439.23
441.24	442.80
441.61	446.95
441.98	449.91
442.35	453.50
442.72	457.35
443.09	460.83
443.46	462.85
443.83	464.17
444.20	465.26
444.57	467.05
444.94	467.61
445.31	468.42
445.68	469.24
446.05	469.51
446.42	468.85
446.79	467.98
447.16	467.22
447.53	466.79
447.90	464.71
448.27	462.60
448.64	459.70
449.01	457.59
449.37	453.97
449.74	450.58
450.11	446.41
450.48	441.82
450.85	437.22
451.22	433.33
451.59	429.54
451.96	425.93
452.33	421.17
452.70	417.01
453.07	411.80
453.43	406.40
453.80	401.38
454.17	396.61
454.54	392.06
454.91	387.22
455.28	382.38
455.65	377.98
456.02	373.66
456.38	369.85
456.75	365.37
457.12	361.52
457.49	357.59
457.86	353.82
458.23	350.51
458.59	346.97
458.96	343.40
459.33	340.31
459.70	337.16
460.07	334.70
460.43	331.80
460.80	329.15
461.17	326.79
461.54	324.29
461.91	321.83
462.27	319.57
462.64	317.53
463.01	315.33
463.38	313.23
463.74	310.81
464.11	308.99
464.48	307.28
464.85	305.45
465.21	304.20
465.58	302.73
465.95	301.02
466.32	299.61
466.68	298.24
467.05	296.80
467.42	295.42
467.78	293.89
468.15	292.54
468.52	291.54
468.88	290.30
469.25	289.13
469.62	288.21
469.98	287.21
470.35	286.30
470.72	285.47
471.08	284.41
471.45	283.75
471.82	282.98
472.18	282.19
472.55	281.63
472.92	280.76
473.28	280.16
473.65	279.61
474.02	279.06
474.38	278.62
474.75	278.29
475.11	277.89
475.48	277.65
475.85	277.45
476.21	277.22
476.58	277.11
476.94	277.08
477.31	277.02
477.67	276.95
478.04	277.01
478.41	277.07
478.77	277.52
479.14	277.65
479.50	277.88
479.87	278.22
480.23	278.61
480.60	279.04
480.96	279.55
481.33	280.17
481.69	280.80
482.06	281.41
482.42	282.09
482.79	282.85
483.15	283.66
483.52	284.74
483.88	285.70
484.25	286.64
484.61	287.72
484.98	288.90
485.34	290.13
485.71	291.37
486.07	292.84
486.44	294.13
486.80	295.62
487.17	297.12
487.53	298.81
487.90	300.62
488.26	302.52
488.62	304.52
488.99	306.58
489.35	308.76
489.72	311.07
490.08	313.48
490.44	315.98
490.81	318.68
491.17	321.25
491.54	324.22
491.90	327.31
492.26	330.45
492.63	333.77
492.99	337.34
493.36	341.05
493.72	344.86
494.08	348.87
494.45	353.26
494.81	357.85
495.17	362.38
495.54	367.21
495.90	372.33
496.26	377.57
496.63	383.01
496.99	388.74
497.35	394.65
497.72	400.85
498.08	407.38
498.44	413.97
498.80	421.14
499.17	428.54
499.53	436.06
499.89	444.09
500.26	452.22
500.62	460.51
500.98	469.35
501.34	478.56
501.71	488.13
502.07	497.61
502.43	507.58
502.79	517.89
503.16	528.65
503.52	539.65
503.88	550.75
504.24	562.40
504.60	574.27
504.97	586.65
505.33	599.24
505.69	612.53
506.05	625.94
506.41	639.47
506.78	653.24
507.14	667.49
507.50	682.13
507.86	697.12
508.22	712.50
508.59	727.97
508.95	743.95
509.31	760.22
509.67	777.05
510.03	793.85
510.39	811.34
510.75	829.05
511.12	847.02
511.48	865.60
511.84	884.27
512.20	902.93
512.56	922.26
512.92	941.88
513.28	961.24
513.64	981.27
514.00	1001.54
514.37	1022.03
514.73	1042.97
515.09	1063.80
515.45	1084.57
515.81	1105.84
516.17	1127.15
516.53	1148.56
516.89	1170.13
517.25	1191.75
517.61	1213.74
517.97	1235.68
518.33	1257.23
518.69	1279.06
519.05	1301.15
519.41	1323.39
519.77	1346.30
520.13	1368.41
520.49	1390.57
520.85	1413.31
521.21	1435.89
521.57	1458.65
521.93	1480.87
522.29	1503.73
522.65	1526.14
523.01	1548.87
523.37	1570.95
523.73	1593.43
524.09	1615.49
524.45	1637.91
524.81	1660.46
525.17	1682.82
525.53	1705.16
525.89	1727.89
526.25	1749.98
526.61	1771.28
526.97	1793.11
527.33	1814.48
527.68	1836.26
528.04	1857.59
528.40	1878.09
528.76	1898.91
529.12	1919.77
529.48	1941.53
529.84	1961.96
530.20	1982.48
530.56	2003.01
530.91	2024.06
531.27	2044.78
531.63	2064.97
531.99	2085.08
532.35	2104.34
532.71	2123.40
533.07	2142.98
533.42	2161.48
533.78	2180.64
534.14	2199.28
534.50	2216.77
534.86	2234.69
535.21	2251.30
535.57	2269.17
535.93	2286.69
536.29	2303.73
536.65	2320.49
537.00	2335.89
537.36	2351.23
537.72	2366.65
538.08	2381.95
538.44	2397.44
538.79	2412.73
539.15	2427.94
539.51	2442.62
539.87	2457.85
540.22	2472.60
540.58	2487.32
540.94	2502.06
541.29	2515.20
541.65	2527.76
542.01	2540.96
542.37	2553.13
542.72	2565.95
543.08	2576.89
543.44	2589.00
543.79	2599.20
544.15	2609.49
544.51	2620.64
544.87	2631.90
545.22	2641.28
545.58	2649.82
545.94	2657.00
546.29	2663.42
546.65	2669.59
547.01	2675.86
547.36	2681.67
547.72	2687.30
548.07	2691.78
548.43	2695.42
548.79	2699.28
549.14	2703.99
549.50	2708.27
549.86	2712.29
550.21	2716.34
550.57	2720.46
550.92	2722.96
551.28	2725.94
551.64	2728.54
551.99	2731.21
552.35	2732.45
552.70	2735.71
553.06	2738.66
553.41	2741.83
553.77	2745.14
554.13	2747.81
554.48	2749.82
554.84	2751.22
555.19	2751.89
555.55	2752.29
555.90	2752.81
556.26	2753.61
556.61	2753.68
556.97	2752.65
557.32	2752.17
557.68	2750.47
558.03	2749.27
558.39	2748.28
558.74	2747.94
559.10	2746.90
559.45	2744.66
559.81	2743.84
560.16	2740.82
560.52	2738.58
560.87	2735.68
561.23	2732.10
561.58	2729.70
561.94	2726.51
562.29	2723.04
562.64	2720.98
563.00	2718.71
563.35	2716.62
563.71	2714.75
564.06	2712.42
564.42	2710.63
564.77	2708.39
565.12	2706.79
565.48	2703.35
565.83	2700.17
566.19	2696.90
566.54	2692.69
566.89	2689.01
567.25	2684.94
567.60	2682.07
567.96	2678.43
568.31	2674.80
568.66	2670.74
569.02	2665.94
569.37	2660.48
569.72	2656.54
570.08	2651.11
570.43	2645.31
570.78	2639.83
571.14	2633.21
571.49	2626.57
571.84	2620.54
572.20	2613.66
572.55	2607.05
572.90	2600.43
573.26	2593.15
573.61	2585.88
573.96	2579.38
574.31	2571.90
574.67	2564.24
575.02	2555.32
575.37	2546.65
575.72	2537.64
576.08	2529.95
576.43	2521.54
576.78	2514.00
577.13	2506.14
577.49	2498.02
577.84	2490.36
578.19	2482.49
578.54	2475.27
578.90	2468.50
579.25	2459.80
579.60	2450.46
579.95	2440.99
580.30	2433.21
580.66	2425.09
581.01	2415.85
581.36	2406.34
581.71	2397.73
582.06	2388.78
582.42	2380.48
582.77	2371.23
583.12	2362.62
583.47	2353.84
583.82	2345.39
584.17	2336.10
584.53	2327.05
584.88	2318.08
585.23	2308.96
585.58	2299.02
585.93	2289.25
586.28	2279.88
586.63	2271.03
586.98	2262.68
587.34	2254.06
587.69	2244.67
588.04	2235.73
588.39	2227.52
588.74	2218.58
589.09	2209.56
589.44	2200.17
589.79	2191.64
590.14	2183.99
590.49	2175.51
590.84	2166.32
591.19	2158.04
591.54	2149.21
591.89	2138.85
592.25	2129.62
592.60	2120.03
592.95	2110.90
593.30	2101.20
593.65	2091.15
594.00	2080.97
594.35	2072.76
594.70	2063.32
595.05	2054.40
595.40	2045.35
595.75	2035.63
596.10	2027.55
596.45	2018.73
596.80	2010.92
597.15	2002.83
597.50	1993.60
597.85	1984.96
598.19	1976.29
598.54	1967.50
598.89	1960.03
599.24	1953.41
599.59	1946.08
599.94	1938.90
600.29	1930.95
600.64	1923.12
600.99	1914.72
601.34	1907.67
601.69	1898.73
602.04	1890.86
602.39	1882.65
602.74	1874.94
603.08	1868.29
603.43	1860.57
603.78	1852.85
604.13	1844.52
604.48	1836.00
604.83	1828.78
605.18	1821.43
605.53	1814.12
605.87	1806.45
606.22	1798.97
606.57	1790.69
606.92	1782.33
607.27	1774.06
607.62	1766.73
607.96	1759.90
608.31	1753.75
608.66	1745.94
609.01	1738.40
609.36	1730.82
609.70	1723.00
610.05	1715.01
610.40	1706.79
610.75	1698.44
611.10	1690.80
611.44	1681.84
611.79	1672.97
612.14	1663.56
612.49	1653.87
612.83	1644.91
613.18	1635.24
613.53	1625.47
613.88	1615.93
614.22	1606.85
614.57	1597.53
614.92	1588.19
615.27	1578.67
615.61	1568.88
615.96	1560.09
616.31	1551.51
616.65	1543.39
617.00	1534.97
617.35	1526.41
617.70	1517.52
618.04	1508.28
618.39	1498.86
618.74	1490.45
619.08	1481.84
619.43	1473.51
619.78	1465.82
620.12	1457.45
620.47	1449.80
620.82	1441.48
621.16	1433.09
621.51	1424.70
621.85	1416.62
622.20	1408.18
622.55	1399.85
622.89	1391.56
623.24	1383.29
623.59	1374.46
623.93	1365.55
624.28	1357.06
624.62	1348.61
624.97	1340.12
625.32	1332.33
625.66	1324.74
626.01	1317.29
626.35	1309.85
626.70	1302.09
627.04	1294.52
627.39	1286.74
627.73	1279.01
628.08	1272.05
628.43	1264.63
628.77	1257.31
629.12	1249.73
629.46	1243.20
629.81	1235.87
630.15	1228.52
630.50	1221.09
630.84	1213.79
631.19	1206.82
631.53	1200.19
631.88	1192.47
632.22	1184.98
632.57	1178.02
632.91	1170.65
633.26	1163.13
633.60	1155.91
633.95	1149.01
634.29	1141.65
634.64	1135.13
634.98	1128.08
635.32	1120.99
635.67	1114.55
636.01	1107.84
636.36	1101.10
636.70	1094.23
637.05	1087.48
637.39	1081.10
637.73	1074.96
638.08	1069.15
638.42	1063.13
638.77	1056.41
639.11	1050.27
639.45	1044.30
639.80	1037.82
640.14	1031.36
640.49	1025.23
640.83	1019.07
641.17	1012.83
641.52	1006.62
641.86	1000.09
642.20	993.82
642.55	986.90
642.89	980.03
643.23	973.45
643.58	967.26
643.92	960.67
644.26	954.59
644.61	948.47
644.95	942.01
645.29	935.73
645.64	929.00
645.98	922.69
646.32	916.73
646.66	910.69
647.01	904.76
647.35	898.87
647.69	892.53
648.04	886.45
648.38	880.55
648.72	874.55
649.06	868.51
649.41	862.41
649.75	856.70
650.09	851.06
650.43	845.24
650.78	839.06
651.12	833.02
651.46	827.01
651.80	821.07
652.14	815.22
652.49	809.31
652.83	803.52
653.17	797.49
653.51	791.71
653.85	785.88
654.20	779.89
654.54	774.05
654.88	768.69
655.22	762.88
655.56	756.85
655.90	750.96
656.25	745.06
656.59	739.41
656.93	734.21
657.27	729.00
657.61	723.45
657.95	718.48
658.29	713.24
658.64	708.23
658.98	702.88
659.32	697.36
659.66	692.13
660.00	686.86
660.34	681.76
660.68	676.48
661.02	671.39
661.36	666.65
661.70	661.75
662.05	656.92
662.39	652.45
662.73	648.06
663.07	643.81
663.41	639.51
663.75	635.11
664.09	630.25
664.43	625.59
664.77	621.41
665.11	616.76
665.45	612.55
665.79	608.08
666.13	603.71
666.47	599.51
666.81	595.35
667.15	591.24
667.49	587.31
667.83	583.41
668.17	579.33
668.51	575.60
668.85	571.80
669.19	568.06
669.53	563.97
669.87	559.83
670.21	555.79
670.55	551.93
670.89	548.51
671.23	545.32
671.57	541.96
671.91	538.22
672.25	534.66
672.58	530.98
672.92	527.45
673.26	524.25
673.60	521.00
673.94	517.64
674.28	514.36
674.62	511.20
674.96	508.05
675.30	505.09
675.64	501.62
675.97	498.39
676.31	495.30
676.65	492.42
676.99	489.84
677.33	486.92
677.67	484.00
678.01	480.78
678.34	477.65
678.68	474.60
679.02	471.69
679.36	468.89
679.70	466.13
680.04	463.23
680.37	460.30
680.71	457.52
681.05	454.85
681.39	452.08
681.73	449.33
682.06	446.83
682.40	444.10
682.74	441.65
683.08	439.18
683.42	436.48
683.75	433.93
684.09	431.23
684.43	428.75
684.77	426.11
685.10	423.62
685.44	421.09
685.78	418.49
686.12	416.18
686.45	413.86
686.79	411.47
687.13	409.30
687.46	407.01
687.80	404.79
688.14	402.50
688.48	400.45
688.81	398.11
689.15	395.68
689.49	393.52
689.82	391.17
690.16	388.86
690.50	386.68
690.83	384.51
691.17	382.24
691.51	380.00
691.84	378.02
692.18	375.94
692.52	373.89
692.85	372.23
693.19	370.31
693.52	368.31
693.86	366.35
694.20	364.45
694.53	362.56
694.87	360.61
695.21	358.62
695.54	356.66
695.88	354.81
696.21	353.05
696.55	351.24
696.88	349.46
697.22	347.72
697.56	346.04
697.89	344.36
698.23	342.86
698.56	341.26
698.90	339.65
699.23	338.04
699.57	336.46
699.90	334.76
700.24	333.05
700.58	331.51
700.91	330.02
701.25	328.62
701.58	327.25
701.92	325.85
702.25	324.46
702.59	323.00
702.92	321.62
703.26	320.23
703.59	318.93
703.93	317.87
704.26	316.57
704.60	315.36
704.93	314.12
705.26	312.79
705.60	311.65
705.93	310.36
706.27	309.19
706.60	308.07
706.94	306.80
707.27	305.69
707.61	304.44
707.94	303.37
708.27	302.11
708.61	301.03
708.94	299.92
709.28	298.87
709.61	297.80
709.94	296.82
710.28	295.78
710.61	294.75
710.95	293.55
711.28	292.69
711.61	291.56
711.95	290.50
712.28	289.45
712.61	288.47
712.95	287.65
713.28	286.70
713.61	285.75
713.95	284.91
714.28	284.02
714.61	283.18
714.95	282.22
715.28	281.32
715.61	280.27
715.95	279.39
716.28	278.44
716.61	277.62
716.95	276.70
717.28	275.79
717.61	274.97
717.94	274.15
718.28	273.14
718.61	272.41
718.94	271.59
719.27	270.83
719.61	270.05
719.94	269.29
720.27	268.47
720.60	267.82
720.94	267.03
721.27	266.30
721.60	265.60
721.93	264.92
722.27	264.28
722.60	263.71
722.93	263.09
723.26	262.55
723.59	261.91
723.93	261.32
724.26	260.80
724.59	260.22
724.92	259.69
725.25	259.20
725.59	258.57
725.92	258.10
726.25	257.60
726.58	256.99
726.91	256.39
727.24	255.92
727.57	255.35
727.91	254.81
728.24	254.38
728.57	253.87
728.90	253.46
729.23	252.98
729.56	252.58
729.89	252.10
730.22	251.56
730.55	251.15
730.89	250.72
731.22	250.26
731.55	249.81
731.88	249.31
732.21	248.93
732.54	248.48
732.87	248.04
733.20	247.62
733.53	247.30
733.86	246.97
734.19	246.66
734.52	246.30
734.85	246.11
735.18	245.70
735.51	245.39
735.84	245.00
736.17	244.61
736.50	244.19
736.83	244.05
737.16	243.68
737.49	243.27
737.82	242.82
738.15	242.49
738.48	242.10
738.81	241.79
739.14	241.41
739.47	241.15
739.80	240.87
740.13	240.58
740.46	240.23
740.79	239.85
741.12	239.48
741.45	239.10
741.78	238.71
742.11	238.38
742.44	238.09
742.77	237.87
743.10	237.54
743.43	237.18
743.75	236.67
744.08	236.60
744.41	236.35
744.74	236.14
745.07	235.79
745.40	235.51
745.73	235.34
746.06	235.00
746.39	234.70
746.71	234.35
747.04	234.05
747.37	233.77
747.70	233.56
748.03	233.32
748.36	233.13
748.68	232.79
749.01	232.47
749.34	232.15
749.67	231.86
750.00	231.67
750.33	231.54
750.65	231.27
750.98	230.82
751.31	230.51
751.64	230.25
751.97	230.06
752.29	229.80
752.62	229.40
752.95	229.20
753.28	228.88
753.60	228.66
753.93	228.48
754.26	228.28
754.59	227.98
754.91	227.75
755.24	227.49
755.57	227.37
755.90	227.18
756.22	226.93
756.55	226.67
756.88	226.35
757.20	226.07
757.53	225.81
757.86	225.63
758.19	225.45
758.51	225.32
758.84	225.12
759.17	225.00
759.49	224.87
759.82	224.77
760.15	224.62
760.47	224.39
760.80	224.18
761.13	223.95
761.45	223.73
761.78	223.55
762.11	223.40
762.43	223.20
762.76	223.04
763.08	222.95
763.41	222.74
763.74	222.68
764.06	222.50
764.39	222.37
764.71	222.22
765.04	222.08
765.37	221.90
765.69	221.76
766.02	221.60
766.34	221.46
766.67	221.23
767.00	221.12
767.32	221.10
767.65	221.02
767.97	220.92
768.30	220.84
768.62	220.72
768.95	220.55
769.27	220.47
769.60	220.39
769.92	220.21
770.25	220.12
770.57	219.94
770.90	219.82
771.22	219.70
771.55	219.57
771.87	219.49
772.20	219.40
772.52	219.32
772.85	219.39
773.17	219.25
773.50	219.15
773.82	219.10
774.15	218.90
774.47	218.76
774.80	218.67
775.12	218.60
775.45	218.45
775.77	218.41
776.09	218.22
776.42	218.06
776.74	218.16
777.07	218.06
777.39	217.97
777.72	217.86
778.04	217.86
778.36	217.82
778.69	217.71
779.01	217.66
779.33	217.54
779.66	217.30
779.98	217.24
780.31	217.19
780.63	217.18
780.95	217.22
781.28	217.11
781.60	217.03
781.92	216.93
782.25	216.92
782.57	216.86
782.89	216.74
783.22	216.67
783.54	216.41
783.86	216.39
784.19	216.40
784.51	216.40
784.83	216.30
785.16	216.25
785.48	216.14
785.80	216.05
786.12	216.00
786.45	215.97
786.77	215.94
787.09	215.81
787.42	215.63
787.74	215.50
788.06	215.56
788.38	215.47
788.71	215.37
789.03	215.31
789.35	215.28
789.67	215.23
789.99	215.28
790.32	215.25
790.64	215.18
790.96	215.27
791.28	215.19
791.61	215.11
791.93	215.00
792.25	215.04
792.57	215.11
792.89	214.99
793.21	214.94
793.54	214.87
793.86	214.91
794.18	214.96
794.50	214.90
794.82	214.76
795.14	214.72
795.47	214.75
795.79	214.71
796.11	214.70
796.43	214.75
796.75	214.68
797.07	214.73
797.39	214.72
797.71	214.59
798.04	214.60
798.36	214.59
798.68	214.58
799.00	214.57
799.32	214.53
799.64	214.59
799.96	214.55
800.28	214.57
800.60	214.42
800.92	214.37
801.24	214.44
801.56	214.45
801.89	214.50
802.21	214.51
802.53	214.41
802.85	214.35
803.17	214.40
803.49	214.31
803.81	214.23
804.13	214.23
804.45	214.15
804.77	214.12
805.09	214.18
805.41	214.18
805.73	214.14
806.05	214.05
806.37	213.97
806.69	213.91
807.01	213.88
807.33	213.93
807.65	213.92
807.97	213.94
808.28	213.92
808.60	213.91
808.92	213.81
809.24	213.91
809.56	213.83
809.88	213.75
810.20	213.78
810.52	213.75
810.84	213.71
811.16	213.64
811.48	213.60
811.80	213.55
812.12	213.49
812.43	213.48
812.75	213.47
813.07	213.46
813.39	213.54
813.71	213.47
814.03	213.46
814.35	213.41
814.67	213.27
814.98	213.19
815.30	213.09
815.62	213.08
815.94	212.89
816.26	212.91
816.58	212.93
816.89	212.90
817.21	212.87
817.53	212.83
817.85	212.83
818.17	212.82
818.48	212.69
818.80	212.75
819.12	212.68
819.44	212.62
819.76	212.60
820.07	212.51
820.39	212.47
820.71	212.46
821.03	212.46
821.34	212.46
821.66	212.49
821.98	212.54
822.30	212.50
822.61	212.69
822.93	212.68
823.25	212.52
823.57	212.54
823.88	212.58
824.20	212.53
824.52	212.54
824.83	212.47
825.15	212.53
825.47	212.51
825.79	212.45
826.10	212.42
826.42	212.37
826.74	212.37
827.05	212.40
827.37	212.37
827.69	212.28
828.00	212.27
828.32	212.28
828.64	212.24
828.95	212.37
829.27	212.26
829.58	212.25
829.90	212.34
830.22	212.36
830.53	212.33
830.85	212.36
831.17	212.30
831.48	212.30
831.80	212.26
832.11	212.14
832.43	212.21
832.75	212.22
833.06	212.36
833.38	212.33
833.69	212.31
834.01	212.35
834.32	212.33
834.64	212.28
834.96	212.27
835.27	212.29
835.59	212.18
835.90	212.16
836.22	212.13
836.53	212.05
836.85	212.02
837.16	212.18
837.48	212.18
837.79	212.27
838.11	212.26
838.42	212.27
838.74	212.36
839.05	212.35
839.37	212.35
839.68	212.19
840.00	212.14
840.31	212.12
840.63	212.07
840.94	212.13
841.26	212.09
841.57	212.13
841.88	212.12
842.20	212.09
842.51	212.05
842.83	212.09
843.14	212.27
843.46	212.21
843.77	212.05
844.08	212.05
844.40	211.96
844.71	211.95
845.03	211.89
845.34	211.89
845.65	211.84
845.97	211.77
846.28	211.83
846.60	211.84
846.91	211.75
847.22	211.78
847.54	211.81
847.85	211.84
848.16	211.81
848.48	211.80
848.79	211.91
849.10	211.93
849.42	211.94
849.73	211.77
850.04	211.74
850.36	211.69
850.67	211.62
850.98	211.64
851.30	211.71
851.61	211.70
851.92	211.65
852.23	211.74
852.55	211.83
852.86	211.76
853.17	211.73
853.49	211.80
853.80	211.83
854.11	211.76
854.42	211.81
854.74	211.70
855.05	211.58
855.36	211.41
855.67	211.37
855.99	211.31
856.30	211.49
856.61	211.55
856.92	211.56
857.23	211.67
857.55	211.60
857.86	211.50
858.17	211.55
858.48	211.49
858.79	211.43
859.11	211.36
859.42	211.41
859.73	211.47
860.04	211.40
860.35	211.32
860.66	211.30
860.98	211.28
861.29	211.35
861.60	211.39
861.91	211.48
862.22	211.47
862.53	211.47
862.84	211.27
863.16	211.30
863.47	211.29
863.78	211.22
864.09	211.30
864.40	211.38
864.71	211.27
865.02	211.35
865.33	211.27
865.64	211.27
865.95	211.22
866.27	211.25
866.58	211.35
866.89	211.42
867.20	211.40
867.51	211.33
867.82	211.29
868.13	211.38
868.44	211.36
868.75	211.45
869.06	211.42
869.37	211.48
869.68	211.41
869.99	211.44
870.30	211.49
870.61	211.47
870.92	211.41
871.23	211.49
871.54	211.55
871.85	211.65
872.16	211.71
872.47	211.70
872.78	211.64
873.09	211.62
873.40	211.52
873.71	211.55
874.02	211.61
874.33	211.61
874.64	211.53
874.95	211.55
875.26	211.50
875.56	211.54
875.87	211.52
876.18	211.52
876.49	211.67
876.80	211.59
877.11	211.52
877.42	211.53
877.73	211.57
878.04	211.45
878.35	211.43
878.66	211.40
878.96	211.48
879.27	211.53
879.58	211.53
879.89	211.55
880.20	211.63
880.51	211.66
880.82	211.68
881.12	211.73
881.43	211.68
881.74	211.68
882.05	211.69
882.36	211.71
882.67	211.69
882.97	211.54
883.28	211.54
883.59	211.57
883.90	211.62
884.21	211.67
884.51	211.74
884.82	211.72
885.13	211.72
885.44	211.67
885.74	211.57
886.05	211.55
886.36	211.62
886.67	211.53
886.98	211.59
887.28	211.54
887.59	211.59
887.90	211.59
888.20	211.57
888.51	211.55
888.82	211.50
889.13	211.52
889.43	211.66
889.74	211.66
890.05	211.65
890.35	211.65
890.66	211.55
890.97	211.53
891.28	211.52
891.58	211.56
891.89	211.53
892.20	211.59
892.50	211.62
892.81	211.53
893.12	211.46
893.42	211.34
893.73	211.41
894.04	211.39
894.34	211.40
894.65	211.44
894.95	211.50
895.26	211.56
895.57	211.65
895.87	211.49
896.18	211.48
896.48	211.54
896.79	211.53
897.10	211.55
897.40	211.52
897.71	211.51
898.01	211.38
898.32	211.42
898.63	211.40
898.93	211.40
899.24	211.42
899.54	211.51
899.85	211.58
900.15	211.45
900.46	211.36
900.76	211.39
901.07	211.37
901.38	211.32
901.68	211.25
901.99	211.20
902.29	211.18
902.60	211.18
902.90	211.08
903.21	210.99
903.51	210.96
903.82	211.02
904.12	210.99
904.43	211.08
904.73	211.11
905.03	211.13
905.34	211.30
905.64	211.25
905.95	211.17
906.25	211.13
906.56	211.20
906.86	211.22
907.17	211.21
907.47	211.21
907.77	211.23
908.08	211.20
908.38	211.19
908.69	211.24
908.99	211.32
909.30	211.39
909.60	211.39
909.90	211.42
910.21	211.28
910.51	211.24
910.81	211.27
911.12	211.23
911.42	211.13
911.73	210.94
912.03	210.95
912.33	211.06
912.64	211.08
912.94	211.04
913.24	210.99
913.55	210.94
913.85	210.90
914.15	210.93
914.46	210.99
914.76	211.01
915.06	210.98
915.37	210.94
915.67	210.93
915.97	210.92
916.27	210.87
916.58	210.93
916.88	211.00
917.18	210.97
917.49	211.06
917.79	211.11
918.09	211.13
918.39	211.20
918.70	211.08
919.00	211.05
919.30	211.18
919.60	211.29
919.91	211.30
920.21	211.35
920.51	211.29
920.81	211.25
921.12	211.18
921.42	211.17
921.72	211.20
922.02	211.22
922.32	211.35
922.63	211.39
922.93	211.51
923.23	211.48
923.53	211.46
923.83	211.35
924.13	211.35
924.44	211.35
924.74	211.38
925.04	211.49
925.34	211.52
925.64	211.42
925.94	211.26
926.24	211.36
926.55	211.32
926.85	211.33
927.15	211.36
927.45	211.39
927.75	211.38
928.05	211.31
928.35	211.26
928.65	211.24
928.95	211.22
929.26	211.15
929.56	211.19
929.86	211.17
930.16	211.25
930.46	211.18
930.76	211.17
931.06	211.11
931.36	211.07
931.66	211.02
931.96	211.09
932.26	211.21
932.56	211.10
932.86	211.07
933.16	211.01
933.46	210.94
933.76	210.91
934.06	211.01
934.36	211.05
934.66	211.07
934.96	211.03
935.26	211.07
935.56	211.12
935.86	211.01
936.16	211.00
936.46	210.90
936.76	210.99
937.06	210.94
937.36	210.92
937.66	210.87
937.96	210.88
938.26	210.82
938.56	210.77
938.86	210.73
939.16	210.75
939.46	210.74
939.76	210.80
940.06	210.78
940.35	210.69
940.65	210.62
940.95	210.60
941.25	210.56
941.55	210.51
941.85	210.48
942.15	210.54
942.45	210.56
942.75	210.64
943.04	210.60
943.34	210.67
943.64	210.65
943.94	210.64
944.24	210.66
944.54	210.65
944.84	210.65
945.13	210.63
945.43	210.64
945.73	210.67
946.03	210.62
946.33	210.60
946.62	210.56
946.92	210.56
947.22	210.58
947.52	210.68
947.82	210.75
948.11	210.71
948.41	210.65
948.71	210.58
949.01	210.48
949.31	210.55
949.60	210.48
949.90	210.45
950.20	210.46
950.50	210.50
950.79	210.54
951.09	210.50
951.39	210.49
951.69	210.43
951.98	210.48
952.28	210.51
952.58	210.59
952.87	210.60
953.17	210.65
953.47	210.67
953.76	210.66
954.06	210.56
954.36	210.52
954.66	210.60
954.95	210.67
955.25	210.72
955.55	210.65
955.84	210.65
956.14	210.74
956.44	210.70
956.73	210.52
957.03	210.45
957.32	210.47
957.62	210.50
957.92	210.58
958.21	210.58
958.51	210.75
958.81	210.69
959.10	210.72
959.40	210.74
959.69	210.72
959.99	210.70
960.29	210.74
960.58	210.78
960.88	210.81
961.17	210.80
961.47	210.79
961.76	210.82
962.06	210.81
962.36	210.75
962.65	210.71
962.95	210.83
963.24	210.85
963.54	210.93
963.83	210.98
964.13	210.94
964.42	210.87
964.72	210.74
965.01	210.74
965.31	210.66
965.60	210.64
965.90	210.72
966.19	210.69
966.49	210.69
966.78	210.68
967.08	210.64
967.37	210.69
967.67	210.71
967.96	210.75
968.26	210.80
968.55	210.88
968.85	210.93
969.14	210.98
969.43	210.96
969.73	210.98
970.02	211.02
970.32	211.01
970.61	211.04
970.91	210.98
971.20	210.96
971.49	211.03
971.79	211.08
972.08	210.89
972.38	210.86
972.67	210.90
972.96	210.95
973.26	210.98
973.55	211.05
973.85	211.05
974.14	210.98
974.43	211.09
974.73	211.01
975.02	211.03
975.31	210.96
975.61	210.94
975.90	210.85
976.19	210.83
976.49	210.87
976.78	210.86
977.07	210.91
977.37	210.98
977.66	210.96
977.95	210.94
978.24	211.03
978.54	211.12
978.83	211.12
979.12	211.10
979.42	211.00
979.71	210.95
980.00	210.95
980.29	211.05
980.59	210.91
980.88	210.93
981.17	210.97
981.46	210.96
981.76	210.97
982.05	211.03
982.34	210.99
982.63	210.97
982.93	210.99
983.22	211.02
983.51	210.94
983.80	210.96
984.09	210.98
984.39	210.97
984.68	210.89
984.97	210.79
985.26	210.80
985.55	210.89
985.85	210.84
986.14	210.78
986.43	210.72
986.72	210.76
987.01	210.74
987.30	210.67
987.59	210.65
987.89	210.71
988.18	210.66
988.47	210.72
988.76	210.69
989.05	210.71
989.34	210.74
989.63	210.77
989.92	210.76
990.22	210.74
990.51	210.76
990.80	210.74
991.09	210.78
991.38	210.81
991.67	210.79
991.96	210.80
992.25	210.89
992.54	210.89
992.83	210.90
993.12	210.93
993.41	211.02
993.70	211.16
993.99	211.16
994.28	211.16
994.58	211.11
994.87	211.15
995.16	211.14
995.45	211.04
995.74	211.03
996.03	211.10
996.32	211.10
996.61	211.03
996.90	211.09
997.19	211.11
997.48	211.06
997.77	211.04
998.06	211.00
998.34	210.94
998.63	210.89
998.92	210.93
999.21	210.92
999.50	210.86
999.79	210.79
1000.08	210.81
1000.37	210.88
1000.66	210.88
1000.95	210.88
1001.24	210.77
1001.53	210.77
1001.82	210.73
1002.11	210.62
1002.40	210.75
1002.68	210.92
1002.97	210.99
1003.26	210.95
1003.55	210.92
1003.84	210.93
1004.13	210.98
1004.42	210.98
1004.71	210.98
1004.99	210.92
1005.28	210.95
1005.57	210.95
1005.86	210.96
1006.15	210.96
1006.44	210.90
1006.72	210.90
1007.01	210.97
1007.30	211.07
1007.59	211.15
1007.88	211.15
1008.17	211.21
1008.45	211.07
1008.74	210.99
1009.03	210.90
1009.32	210.94
1009.60	211.01
1009.89	211.00
1010.18	211.01
1010.47	211.01
1010.76	211.10
1011.04	211.12
1011.33	211.10
1011.62	211.17
1011.91	211.08
1012.19	211.06
1012.48	211.06
1012.77	211.08
1013.05	211.10
1013.34	211.08
1013.63	211.06
1013.92	211.08
1014.20	211.09
1014.49	211.08
1014.78	211.07
1015.06	211.01
1015.35	211.06
1015.64	211.05
1015.92	211.13
1016.21	211.14
1016.50	211.18
1016.78	211.24
1017.07	211.31
1017.36	211.31
1017.64	211.28
1017.93	211.30
1018.22	211.27
1018.50	211.29
1018.79	211.28
1019.08	211.20
1019.36	211.23
1019.65	211.15
1019.93	211.18
1020.22	211.17
1020.51	211.24
1020.79	211.19
1021.08	210.40
1021.36	210.95
1021.65	211.10
1021.94	210.85
1022.22	211.30
1022.51	209.85
1022.79	210.85
1023.08	210.80
1023.36	212.60
1023.65	209.95
>>>>>End Processed Spectral Data<<<<<
