SpectraSuite Data File
++++++++++++++++++++++++++++++++++++
Date: Mon Feb 25 17:32:13 EST 2013
User: group
Dark Spectrum Present: No
Reference Spectrum Present: No
Number of Sampled Component Spectra: 1
Spectrometers: USB2E7196
Integration Time (usec): 52000 (USB2E7196)
Spectra Averaged: 20 (USB2E7196)
Boxcar Smoothing: 10 (USB2E7196)
Correct for Electrical Dark: No (USB2E7196)
Strobe/Lamp Enabled: No (USB2E7196)
Correct for Detector Non-linearity: No (USB2E7196)
Correct for Stray Light: No (USB2E7196)
Number of Pixels in Processed Spectrum: 2048
>>>>>Begin Processed Spectral Data<<<<<
339.09	0.00
339.48	198.85
339.86	199.50
340.24	202.50
340.63	202.50
341.01	206.40
341.39	207.35
341.78	207.75
342.16	207.80
342.54	207.85
342.93	198.05
343.31	208.06
343.69	208.60
344.07	209.09
344.46	209.48
344.84	209.92
345.22	210.13
345.60	210.34
345.99	210.53
346.37	210.70
346.75	210.84
347.13	210.93
347.52	210.96
347.90	211.10
348.28	211.12
348.66	211.16
349.05	211.18
349.43	211.22
349.81	211.33
350.19	211.46
350.57	211.59
350.96	211.67
351.34	211.76
351.72	211.84
352.10	212.01
352.48	212.06
352.87	212.07
353.25	212.15
353.63	212.25
354.01	212.29
354.39	212.40
354.77	212.50
355.15	212.61
355.54	212.65
355.92	212.66
356.30	212.72
356.68	212.95
357.06	213.02
357.44	213.10
357.82	213.12
358.20	213.12
358.58	213.19
358.97	213.25
359.35	213.45
359.73	213.54
360.11	213.58
360.49	213.70
360.87	213.81
361.25	213.89
361.63	214.01
362.01	214.08
362.39	214.10
362.77	214.20
363.15	214.22
363.53	214.25
363.91	214.32
364.29	214.38
364.67	214.18
365.05	214.24
365.43	214.20
365.81	214.24
366.19	214.34
366.57	214.36
366.95	214.45
367.33	214.34
367.71	214.39
368.09	214.39
368.47	214.39
368.85	214.27
369.23	214.31
369.61	214.18
369.99	214.21
370.37	214.15
370.75	214.15
371.13	214.05
371.51	214.03
371.89	214.05
372.27	214.01
372.65	213.99
373.03	213.94
373.41	214.01
373.78	214.02
374.16	213.93
374.54	213.78
374.92	213.64
375.30	213.62
375.68	213.55
376.06	213.51
376.44	213.41
376.82	213.55
377.19	213.50
377.57	213.39
377.95	213.30
378.33	213.28
378.71	213.15
379.09	213.14
379.47	213.12
379.84	213.02
380.22	212.96
380.60	212.99
380.98	212.89
381.36	212.79
381.73	212.73
382.11	212.67
382.49	212.66
382.87	212.60
383.25	212.52
383.62	212.64
384.00	212.54
384.38	212.44
384.76	212.37
385.13	212.35
385.51	212.34
385.89	212.22
386.27	212.16
386.64	212.14
387.02	212.13
387.40	212.05
387.78	212.01
388.15	212.03
388.53	211.95
388.91	211.90
389.29	211.90
389.66	211.81
390.04	211.80
390.42	211.88
390.79	211.88
391.17	211.86
391.55	211.69
391.92	211.71
392.30	211.75
392.68	211.63
393.05	211.60
393.43	211.57
393.81	211.65
394.18	211.71
394.56	211.75
394.94	211.82
395.31	211.79
395.69	211.79
396.06	211.82
396.44	211.85
396.82	211.93
397.19	212.00
397.57	212.04
397.95	212.06
398.32	211.96
398.70	212.04
399.07	212.10
399.45	212.11
399.82	212.10
400.20	212.16
400.58	212.38
400.95	212.39
401.33	212.53
401.70	212.70
402.08	212.74
402.45	212.73
402.83	212.80
403.20	212.93
403.58	213.00
403.95	213.09
404.33	213.16
404.71	213.24
405.08	213.40
405.46	213.50
405.83	213.57
406.21	213.72
406.58	213.85
406.96	214.00
407.33	214.15
407.70	214.40
408.08	214.70
408.45	214.81
408.83	215.06
409.20	215.22
409.58	215.27
409.95	215.55
410.33	215.87
410.70	216.04
411.08	216.38
411.45	216.74
411.82	217.10
412.20	217.53
412.57	217.95
412.95	218.33
413.32	218.90
413.69	219.52
414.07	220.09
414.44	220.73
414.82	221.34
415.19	222.00
415.56	222.71
415.94	223.51
416.31	224.38
416.68	225.22
417.06	226.24
417.43	227.26
417.81	228.33
418.18	229.37
418.55	230.64
418.93	231.98
419.30	233.35
419.67	234.67
420.04	236.10
420.42	237.68
420.79	239.38
421.16	241.02
421.54	242.82
421.91	244.67
422.28	246.55
422.66	248.61
423.03	250.76
423.40	252.77
423.77	254.90
424.15	257.10
424.52	259.40
424.89	261.97
425.26	264.44
425.64	266.69
426.01	269.27
426.38	271.97
426.75	274.60
427.13	277.26
427.50	280.25
427.87	283.23
428.24	286.24
428.61	289.10
428.99	292.33
429.36	295.79
429.73	299.20
430.10	302.66
430.47	306.16
430.85	309.80
431.22	313.79
431.59	317.95
431.96	321.81
432.33	326.16
432.70	330.30
433.08	335.20
433.45	339.83
433.82	344.43
434.19	349.46
434.56	354.30
434.93	359.01
435.30	363.73
435.68	369.13
436.05	374.30
436.42	379.49
436.79	384.15
437.16	389.21
437.53	394.56
437.90	399.81
438.27	404.91
438.64	410.11
439.01	414.94
439.38	419.36
439.75	423.60
440.13	428.45
440.50	432.84
440.87	436.47
441.24	440.35
441.61	444.61
441.98	447.73
442.35	451.36
442.72	455.11
443.09	458.60
443.46	460.53
443.83	461.94
444.20	463.09
444.57	464.75
444.94	465.38
445.31	466.06
445.68	466.85
446.05	467.06
446.42	466.50
446.79	465.67
447.16	464.63
447.53	464.05
447.90	461.92
448.27	459.90
448.64	457.01
449.01	454.76
449.37	451.04
449.74	447.39
450.11	443.39
450.48	438.98
450.85	434.30
451.22	430.31
451.59	426.54
451.96	422.92
452.33	418.33
452.70	414.16
453.07	409.12
453.43	403.75
453.80	398.80
454.17	393.99
454.54	389.52
454.91	384.83
455.28	380.01
455.65	375.58
456.02	371.47
456.38	367.78
456.75	363.28
457.12	359.53
457.49	355.80
457.86	352.00
458.23	348.65
458.59	345.30
458.96	341.90
459.33	338.75
459.70	335.65
460.07	333.12
460.43	330.19
460.80	327.49
461.17	325.24
461.54	322.84
461.91	320.55
462.27	318.16
462.64	316.14
463.01	314.08
463.38	311.91
463.74	309.57
464.11	307.67
464.48	306.09
464.85	304.34
465.21	303.00
465.58	301.65
465.95	300.04
466.32	298.65
466.68	297.13
467.05	295.78
467.42	294.41
467.78	292.95
468.15	291.59
468.52	290.61
468.88	289.30
469.25	288.19
469.62	287.28
469.98	286.39
470.35	285.54
470.72	284.69
471.08	283.86
471.45	283.16
471.82	282.39
472.18	281.47
472.55	280.90
472.92	280.17
473.28	279.62
473.65	279.03
474.02	278.42
474.38	278.13
474.75	277.76
475.11	277.44
475.48	277.14
475.85	276.94
476.21	276.70
476.58	276.56
476.94	276.46
477.31	276.35
477.67	276.20
478.04	276.18
478.41	276.28
478.77	276.53
479.14	276.60
479.50	276.90
479.87	277.25
480.23	277.54
480.60	277.93
480.96	278.33
481.33	279.04
481.69	279.69
482.06	280.29
482.42	280.96
482.79	281.60
483.15	282.55
483.52	283.52
483.88	284.50
484.25	285.50
484.61	286.66
484.98	287.75
485.34	289.19
485.71	290.45
486.07	291.80
486.44	293.20
486.80	294.72
487.17	296.36
487.53	298.17
487.90	300.06
488.26	302.09
488.62	304.17
488.99	306.10
489.35	308.23
489.72	310.50
490.08	312.83
490.44	315.35
490.81	317.89
491.17	320.55
491.54	323.40
491.90	326.35
492.26	329.40
492.63	332.70
492.99	336.07
493.36	339.72
493.72	343.57
494.08	347.46
494.45	351.83
494.81	356.30
495.17	360.88
495.54	365.73
495.90	370.72
496.26	375.88
496.63	381.43
496.99	387.25
497.35	393.30
497.72	399.61
498.08	406.14
498.44	412.91
498.80	420.18
499.17	427.60
499.53	435.37
499.89	443.38
500.26	451.55
500.62	459.92
500.98	468.77
501.34	477.90
501.71	487.36
502.07	496.97
502.43	506.88
502.79	517.18
503.16	527.88
503.52	538.77
503.88	550.08
504.24	561.69
504.60	573.48
504.97	585.87
505.33	598.40
505.69	611.71
506.05	625.20
506.41	638.63
506.78	652.43
507.14	666.53
507.50	681.18
507.86	696.18
508.22	711.52
508.59	726.97
508.95	742.81
509.31	758.89
509.67	775.60
510.03	792.58
510.39	809.82
510.75	827.36
511.12	845.27
511.48	863.60
511.84	882.07
512.20	900.53
512.56	919.61
512.92	938.94
513.28	958.33
513.64	977.97
514.00	997.89
514.37	1018.35
514.73	1039.02
515.09	1059.60
515.45	1080.33
515.81	1101.43
516.17	1122.58
516.53	1143.81
516.89	1165.42
517.25	1186.73
517.61	1208.20
517.97	1229.85
518.33	1251.40
518.69	1273.11
519.05	1294.99
519.41	1317.18
519.77	1339.54
520.13	1361.54
520.49	1383.70
520.85	1406.28
521.21	1428.44
521.57	1451.27
521.93	1473.03
522.29	1495.69
522.65	1518.18
523.01	1540.43
523.37	1562.31
523.73	1584.79
524.09	1606.90
524.45	1629.21
524.81	1651.49
525.17	1673.85
525.53	1696.22
525.89	1718.47
526.25	1740.40
526.61	1761.60
526.97	1782.81
527.33	1804.24
527.68	1825.83
528.04	1846.79
528.40	1866.98
528.76	1887.82
529.12	1908.00
529.48	1929.61
529.84	1949.94
530.20	1969.89
530.56	1990.59
530.91	2011.20
531.27	2031.16
531.63	2051.01
531.99	2070.66
532.35	2089.94
532.71	2108.86
533.07	2128.15
533.42	2146.26
533.78	2165.05
534.14	2183.62
534.50	2200.73
534.86	2218.73
535.21	2235.13
535.57	2253.04
535.93	2270.19
536.29	2286.85
536.65	2303.75
537.00	2319.07
537.36	2334.08
537.72	2349.33
538.08	2364.36
538.44	2379.43
538.79	2394.93
539.15	2409.94
539.51	2424.41
539.87	2439.09
540.22	2453.21
540.58	2467.98
540.94	2482.62
541.29	2495.21
541.65	2507.10
542.01	2520.67
542.37	2532.25
542.72	2544.36
543.08	2554.82
543.44	2566.90
543.79	2577.13
544.15	2587.23
544.51	2598.05
544.87	2609.08
545.22	2618.26
545.58	2626.44
545.94	2633.98
546.29	2640.21
546.65	2646.09
547.01	2652.26
547.36	2657.94
547.72	2663.54
548.07	2667.32
548.43	2670.85
548.79	2674.78
549.14	2679.40
549.50	2683.19
549.86	2687.29
550.21	2691.25
550.57	2695.34
550.92	2697.40
551.28	2700.36
551.64	2702.56
551.99	2704.59
552.35	2706.19
552.70	2708.80
553.06	2711.73
553.41	2714.63
553.77	2717.24
554.13	2719.92
554.48	2722.01
554.84	2723.59
555.19	2724.07
555.55	2724.57
555.90	2724.90
556.26	2725.65
556.61	2725.62
556.97	2724.46
557.32	2723.67
557.68	2721.97
558.03	2720.57
558.39	2719.02
558.74	2718.16
559.10	2717.07
559.45	2715.28
559.81	2714.00
560.16	2711.11
560.52	2708.43
560.87	2705.12
561.23	2701.35
561.58	2698.95
561.94	2695.43
562.29	2691.39
562.64	2689.09
563.00	2686.41
563.35	2684.54
563.71	2682.50
564.06	2680.02
564.42	2678.11
564.77	2676.00
565.12	2674.18
565.48	2671.03
565.83	2668.02
566.19	2664.67
566.54	2660.70
566.89	2656.92
567.25	2652.57
567.60	2649.53
567.96	2645.99
568.31	2642.35
568.66	2638.79
569.02	2633.89
569.37	2628.81
569.72	2625.28
570.08	2619.91
570.43	2614.24
570.78	2608.44
571.14	2601.83
571.49	2595.28
571.84	2589.52
572.20	2582.71
572.55	2576.11
572.90	2569.27
573.26	2562.16
573.61	2554.96
573.96	2548.06
574.31	2540.32
574.67	2532.66
575.02	2524.20
575.37	2515.49
575.72	2506.73
576.08	2499.23
576.43	2490.63
576.78	2483.03
577.13	2474.88
577.49	2466.66
577.84	2459.09
578.19	2451.63
578.54	2444.50
578.90	2437.65
579.25	2428.78
579.60	2419.53
579.95	2410.24
580.30	2402.26
580.66	2394.36
581.01	2385.46
581.36	2376.63
581.71	2368.24
582.06	2359.65
582.42	2351.62
582.77	2342.65
583.12	2333.71
583.47	2324.94
583.82	2316.63
584.17	2307.46
584.53	2298.55
584.88	2290.02
585.23	2280.71
585.58	2271.25
585.93	2261.48
586.28	2252.33
586.63	2243.83
586.98	2235.62
587.34	2227.42
587.69	2218.42
588.04	2209.45
588.39	2201.56
588.74	2192.63
589.09	2183.81
589.44	2174.62
589.79	2166.35
590.14	2158.35
590.49	2150.15
590.84	2141.03
591.19	2133.32
591.54	2124.73
591.89	2114.64
592.25	2105.83
592.60	2096.65
592.95	2087.22
593.30	2078.26
593.65	2068.60
594.00	2059.07
594.35	2050.78
594.70	2041.64
595.05	2032.99
595.40	2024.12
595.75	2014.49
596.10	2005.91
596.45	1997.74
596.80	1990.08
597.15	1981.60
597.50	1972.56
597.85	1964.21
598.19	1955.52
598.54	1946.63
598.89	1938.45
599.24	1931.96
599.59	1924.25
599.94	1917.24
600.29	1909.45
600.64	1901.19
600.99	1892.83
601.34	1885.39
601.69	1876.72
602.04	1868.71
602.39	1860.69
602.74	1852.88
603.08	1845.88
603.43	1839.10
603.78	1831.04
604.13	1822.64
604.48	1814.67
604.83	1808.10
605.18	1801.09
605.53	1793.90
605.87	1786.43
606.22	1779.63
606.57	1771.64
606.92	1763.76
607.27	1755.90
607.62	1748.69
607.96	1742.08
608.31	1735.95
608.66	1728.13
609.01	1720.85
609.36	1713.38
609.70	1705.58
610.05	1698.17
610.40	1690.09
610.75	1681.56
611.10	1674.00
611.44	1665.24
611.79	1656.34
612.14	1647.09
612.49	1637.64
612.83	1628.90
613.18	1619.00
613.53	1609.63
613.88	1599.83
614.22	1590.84
614.57	1581.22
614.92	1571.83
615.27	1562.42
615.61	1552.82
615.96	1544.10
616.31	1535.38
616.65	1527.18
617.00	1518.72
617.35	1510.21
617.70	1501.47
618.04	1492.59
618.39	1483.53
618.74	1475.25
619.08	1466.57
619.43	1458.31
619.78	1450.31
620.12	1442.27
620.47	1434.82
620.82	1426.02
621.16	1417.66
621.51	1409.37
621.85	1401.40
622.20	1393.12
622.55	1385.01
622.89	1376.78
623.24	1368.89
623.59	1360.36
623.93	1351.97
624.28	1343.86
624.62	1335.39
624.97	1327.28
625.32	1319.33
625.66	1311.90
626.01	1304.54
626.35	1297.34
626.70	1289.58
627.04	1282.35
627.39	1274.64
627.73	1267.09
628.08	1260.56
628.43	1253.48
628.77	1246.19
629.12	1238.71
629.46	1232.06
629.81	1224.83
630.15	1217.50
630.50	1209.91
630.84	1202.71
631.19	1195.51
631.53	1188.59
631.88	1181.10
632.22	1173.60
632.57	1166.70
632.91	1159.31
633.26	1151.76
633.60	1144.77
633.95	1138.21
634.29	1130.84
634.64	1124.29
634.98	1117.41
635.32	1110.35
635.67	1104.07
636.01	1097.49
636.36	1090.97
636.70	1084.33
637.05	1077.63
637.39	1071.42
637.73	1065.49
638.08	1059.81
638.42	1054.05
638.77	1047.52
639.11	1041.33
639.45	1035.28
639.80	1028.84
640.14	1022.30
640.49	1016.36
640.83	1010.04
641.17	1003.50
641.52	997.41
641.86	990.91
642.20	984.59
642.55	977.70
642.89	971.29
643.23	964.90
643.58	959.10
643.92	952.63
644.26	946.44
644.61	940.51
644.95	934.22
645.29	927.82
645.64	921.10
645.98	914.95
646.32	909.12
646.66	903.04
647.01	896.98
647.35	891.26
647.69	884.90
648.04	878.89
648.38	872.85
648.72	866.92
649.06	860.82
649.41	854.85
649.75	849.29
650.09	843.34
650.43	837.55
650.78	831.31
651.12	825.35
651.46	819.73
651.80	813.51
652.14	807.68
652.49	801.74
652.83	796.02
653.17	789.87
653.51	783.95
653.85	778.45
654.20	772.77
654.54	766.97
654.88	761.50
655.22	755.99
655.56	750.18
655.90	744.41
656.25	738.75
656.59	733.20
656.93	727.98
657.27	722.76
657.61	717.12
657.95	711.92
658.29	706.82
658.64	701.62
658.98	696.48
659.32	691.01
659.66	685.91
660.00	680.56
660.34	675.69
660.68	670.63
661.02	665.45
661.36	660.75
661.70	655.83
662.05	651.31
662.39	646.77
662.73	642.46
663.07	638.07
663.41	633.92
663.75	629.45
664.09	624.87
664.43	620.15
664.77	615.91
665.11	611.58
665.45	607.22
665.79	602.80
666.13	598.50
666.47	594.40
666.81	590.27
667.15	586.21
667.49	582.30
667.83	578.42
668.17	574.66
668.51	570.79
668.85	567.12
669.19	563.25
669.53	559.18
669.87	555.13
670.21	551.40
670.55	547.49
670.89	544.14
671.23	540.74
671.57	537.29
671.91	533.75
672.25	530.25
672.58	526.63
672.92	523.23
673.26	520.10
673.60	516.86
673.94	513.61
674.28	510.40
674.62	507.21
674.96	504.01
675.30	500.91
675.64	497.69
675.97	494.51
676.31	491.53
676.65	488.71
676.99	486.12
677.33	483.04
677.67	480.18
678.01	477.05
678.34	473.95
678.68	471.15
679.02	468.26
679.36	465.41
679.70	462.65
680.04	459.71
680.37	456.69
680.71	453.89
681.05	451.13
681.39	448.56
681.73	445.86
682.06	443.40
682.40	440.74
682.74	438.20
683.08	435.60
683.42	433.03
683.75	430.49
684.09	427.89
684.43	425.57
684.77	422.94
685.10	420.37
685.44	418.08
685.78	415.59
686.12	413.28
686.45	410.89
686.79	408.70
687.13	406.72
687.46	404.64
687.80	402.61
688.14	400.42
688.48	398.30
688.81	396.10
689.15	393.87
689.49	391.72
689.82	389.55
690.16	387.34
690.50	385.07
690.83	382.80
691.17	380.50
691.51	378.30
691.84	376.29
692.18	374.34
692.52	372.32
692.85	370.48
693.19	368.51
693.52	366.61
693.86	364.55
694.20	362.50
694.53	360.51
694.87	358.48
695.21	356.48
695.54	354.44
695.88	352.55
696.21	350.63
696.55	348.83
696.88	347.01
697.22	345.27
697.56	343.73
697.89	342.10
698.23	340.58
698.56	338.98
698.90	337.50
699.23	335.90
699.57	334.29
699.90	332.55
700.24	331.02
700.58	329.39
700.91	327.97
701.25	326.62
701.58	325.28
701.92	323.86
702.25	322.54
702.59	321.24
702.92	319.97
703.26	318.67
703.59	317.40
703.93	316.25
704.26	315.08
704.60	313.75
704.93	312.57
705.26	311.27
705.60	309.99
705.93	308.68
706.27	307.59
706.60	306.52
706.94	305.53
707.27	304.37
707.61	303.27
707.94	302.12
708.27	300.96
708.61	299.85
708.94	298.73
709.28	297.62
709.61	296.55
709.94	295.41
710.28	294.38
710.61	293.37
710.95	292.26
711.28	291.33
711.61	290.34
711.95	289.31
712.28	288.40
712.61	287.48
712.95	286.60
713.28	285.65
713.61	284.71
713.95	283.70
714.28	282.85
714.61	281.98
714.95	281.11
715.28	280.11
715.61	279.08
715.95	278.18
716.28	277.29
716.61	276.46
716.95	275.65
717.28	274.79
717.61	273.91
717.94	273.16
718.28	272.32
718.61	271.60
718.94	270.85
719.27	270.13
719.61	269.44
719.94	268.70
720.27	267.97
720.60	267.16
720.94	266.50
721.27	265.77
721.60	265.14
721.93	264.52
722.27	264.05
722.60	263.49
722.93	262.99
723.26	262.38
723.59	261.73
723.93	261.12
724.26	260.63
724.59	260.11
724.92	259.45
725.25	258.90
725.59	258.21
725.92	257.66
726.25	257.10
726.58	256.51
726.91	255.98
727.24	255.51
727.57	255.02
727.91	254.46
728.24	254.04
728.57	253.48
728.90	253.02
729.23	252.41
729.56	252.09
729.89	251.47
730.22	251.02
730.55	250.52
730.89	250.10
731.22	249.58
731.55	249.17
731.88	248.74
732.21	248.25
732.54	247.92
732.87	247.54
733.20	247.12
733.53	246.71
733.86	246.29
734.19	245.85
734.52	245.44
734.85	245.20
735.18	244.77
735.51	244.50
735.84	244.12
736.17	243.83
736.50	243.36
736.83	243.27
737.16	242.97
737.49	242.67
737.82	242.32
738.15	241.96
738.48	241.58
738.81	241.31
739.14	241.01
739.47	240.68
739.80	240.34
740.13	239.94
740.46	239.55
740.79	239.19
741.12	238.90
741.45	238.57
741.78	238.16
742.11	237.95
742.44	237.60
742.77	237.39
743.10	237.14
743.43	236.81
743.75	236.33
744.08	236.15
744.41	235.81
744.74	235.48
745.07	235.17
745.40	234.89
745.73	234.64
746.06	234.38
746.39	234.12
746.71	233.79
747.04	233.65
747.37	233.45
747.70	233.21
748.03	232.95
748.36	232.78
748.68	232.55
749.01	232.19
749.34	231.90
749.67	231.65
750.00	231.31
750.33	231.13
750.65	230.88
750.98	230.44
751.31	230.29
751.64	230.12
751.97	229.96
752.29	229.75
752.62	229.49
752.95	229.23
753.28	228.97
753.60	228.79
753.93	228.55
754.26	228.32
754.59	228.09
754.91	227.85
755.24	227.65
755.57	227.42
755.90	227.17
756.22	226.99
756.55	226.72
756.88	226.57
757.20	226.30
757.53	226.12
757.86	225.96
758.19	225.74
758.51	225.53
758.84	225.35
759.17	225.18
759.49	224.93
759.82	224.81
760.15	224.59
760.47	224.31
760.80	224.10
761.13	223.99
761.45	223.75
761.78	223.55
762.11	223.35
762.43	223.14
762.76	223.00
763.08	222.82
763.41	222.62
763.74	222.41
764.06	222.27
764.39	222.10
764.71	221.94
765.04	221.77
765.37	221.58
765.69	221.42
766.02	221.28
766.34	221.19
766.67	221.02
767.00	220.94
767.32	220.99
767.65	220.95
767.97	220.76
768.30	220.70
768.62	220.61
768.95	220.46
769.27	220.40
769.60	220.39
769.92	220.30
770.25	220.19
770.57	220.08
770.90	219.94
771.22	219.86
771.55	219.74
771.87	219.60
772.20	219.59
772.52	219.64
772.85	219.69
773.17	219.56
773.50	219.44
773.82	219.39
774.15	219.15
774.47	218.99
774.80	218.84
775.12	218.79
775.45	218.72
775.77	218.74
776.09	218.61
776.42	218.50
776.74	218.40
777.07	218.42
777.39	218.29
777.72	218.22
778.04	218.11
778.36	218.04
778.69	217.99
779.01	217.91
779.33	217.62
779.66	217.43
779.98	217.31
780.31	217.23
780.63	217.20
780.95	217.22
781.28	217.15
781.60	217.14
781.92	217.06
782.25	216.96
782.57	216.84
782.89	216.78
783.22	216.68
783.54	216.62
783.86	216.52
784.19	216.52
784.51	216.50
784.83	216.53
785.16	216.51
785.48	216.46
785.80	216.35
786.12	216.38
786.45	216.27
786.77	216.32
787.09	216.27
787.42	216.16
787.74	216.15
788.06	216.09
788.38	216.03
788.71	215.93
789.03	215.96
789.35	215.98
789.67	215.98
789.99	215.97
790.32	215.95
790.64	215.88
790.96	215.98
791.28	215.89
791.61	215.81
791.93	215.77
792.25	215.75
792.57	215.93
792.89	215.82
793.21	215.81
793.54	215.76
793.86	215.71
794.18	215.74
794.50	215.65
794.82	215.65
795.14	215.63
795.47	215.66
795.79	215.57
796.11	215.45
796.43	215.39
796.75	215.33
797.07	215.31
797.39	215.25
797.71	215.11
798.04	215.07
798.36	214.96
798.68	214.90
799.00	214.94
799.32	214.74
799.64	214.77
799.96	214.77
800.28	214.70
800.60	214.77
800.92	214.68
801.24	214.65
801.56	214.59
801.89	214.54
802.21	214.50
802.53	214.43
802.85	214.53
803.17	214.58
803.49	214.48
803.81	214.37
804.13	214.40
804.45	214.33
804.77	214.37
805.09	214.36
805.41	214.46
805.73	214.33
806.05	214.25
806.37	214.20
806.69	214.15
807.01	214.15
807.33	214.07
807.65	213.99
807.97	214.04
808.28	214.04
808.60	213.98
808.92	213.96
809.24	214.11
809.56	213.95
809.88	213.83
810.20	213.86
810.52	213.89
810.84	213.83
811.16	213.79
811.48	213.73
811.80	213.75
812.12	213.60
812.43	213.60
812.75	213.59
813.07	213.50
813.39	213.50
813.71	213.47
814.03	213.37
814.35	213.32
814.67	213.23
814.98	213.23
815.30	213.17
815.62	213.10
815.94	212.85
816.26	212.91
816.58	212.83
816.89	212.80
817.21	212.75
817.53	212.72
817.85	212.68
818.17	212.62
818.48	212.63
818.80	212.71
819.12	212.68
819.44	212.64
819.76	212.67
820.07	212.62
820.39	212.58
820.71	212.62
821.03	212.66
821.34	212.67
821.66	212.65
821.98	212.71
822.30	212.72
822.61	212.88
822.93	212.82
823.25	212.86
823.57	212.85
823.88	212.87
824.20	212.82
824.52	212.85
824.83	212.88
825.15	212.80
825.47	212.71
825.79	212.73
826.10	212.76
826.42	212.71
826.74	212.70
827.05	212.70
827.37	212.73
827.69	212.68
828.00	212.64
828.32	212.60
828.64	212.56
828.95	212.68
829.27	212.63
829.58	212.65
829.90	212.73
830.22	212.76
830.53	212.74
830.85	212.72
831.17	212.70
831.48	212.72
831.80	212.73
832.11	212.69
832.43	212.65
832.75	212.59
833.06	212.73
833.38	212.70
833.69	212.70
834.01	212.67
834.32	212.72
834.64	212.68
834.96	212.66
835.27	212.64
835.59	212.51
835.90	212.40
836.22	212.38
836.53	212.30
836.85	212.26
837.16	212.43
837.48	212.46
837.79	212.48
838.11	212.43
838.42	212.44
838.74	212.46
839.05	212.42
839.37	212.47
839.68	212.30
840.00	212.35
840.31	212.35
840.63	212.32
840.94	212.25
841.26	212.24
841.57	212.24
841.88	212.26
842.20	212.32
842.51	212.31
842.83	212.31
843.14	212.45
843.46	212.41
843.77	212.28
844.08	212.19
844.40	212.19
844.71	212.22
845.03	212.21
845.34	212.22
845.65	212.22
845.97	212.19
846.28	212.22
846.60	212.19
846.91	212.15
847.22	212.15
847.54	212.21
847.85	212.22
848.16	212.26
848.48	212.22
848.79	212.22
849.10	212.22
849.42	212.16
849.73	211.90
850.04	211.93
850.36	211.82
850.67	211.89
850.98	211.83
851.30	211.73
851.61	211.65
851.92	211.63
852.23	211.62
852.55	211.64
852.86	211.63
853.17	211.58
853.49	211.56
853.80	211.60
854.11	211.62
854.42	211.58
854.74	211.46
855.05	211.45
855.36	211.35
855.67	211.36
855.99	211.44
856.30	211.68
856.61	211.62
856.92	211.70
857.23	211.67
857.55	211.68
857.86	211.69
858.17	211.80
858.48	211.72
858.79	211.74
859.11	211.67
859.42	211.62
859.73	211.60
860.04	211.63
860.35	211.51
860.66	211.40
860.98	211.42
861.29	211.46
861.60	211.46
861.91	211.50
862.22	211.49
862.53	211.41
862.84	211.20
863.16	211.25
863.47	211.13
863.78	211.16
864.09	211.19
864.40	211.22
864.71	211.13
865.02	211.18
865.33	211.25
865.64	211.20
865.95	211.28
866.27	211.42
866.58	211.38
866.89	211.46
867.20	211.47
867.51	211.45
867.82	211.48
868.13	211.51
868.44	211.53
868.75	211.62
869.06	211.63
869.37	211.65
869.68	211.60
869.99	211.69
870.30	211.66
870.61	211.66
870.92	211.66
871.23	211.68
871.54	211.68
871.85	211.68
872.16	211.73
872.47	211.62
872.78	211.46
873.09	211.57
873.40	211.49
873.71	211.54
874.02	211.56
874.33	211.50
874.64	211.38
874.95	211.35
875.26	211.28
875.56	211.26
875.87	211.23
876.18	211.28
876.49	211.46
876.80	211.54
877.11	211.49
877.42	211.49
877.73	211.50
878.04	211.57
878.35	211.49
878.66	211.50
878.96	211.55
879.27	211.54
879.58	211.50
879.89	211.60
880.20	211.62
880.51	211.60
880.82	211.70
881.12	211.77
881.43	211.73
881.74	211.69
882.05	211.69
882.36	211.78
882.67	211.72
882.97	211.56
883.28	211.51
883.59	211.57
883.90	211.50
884.21	211.47
884.51	211.45
884.82	211.48
885.13	211.53
885.44	211.56
885.74	211.59
886.05	211.55
886.36	211.44
886.67	211.39
886.98	211.46
887.28	211.43
887.59	211.38
887.90	211.43
888.20	211.41
888.51	211.43
888.82	211.36
889.13	211.43
889.43	211.57
889.74	211.56
890.05	211.55
890.35	211.59
890.66	211.57
890.97	211.53
891.28	211.49
891.58	211.40
891.89	211.44
892.20	211.40
892.50	211.38
892.81	211.44
893.12	211.43
893.42	211.36
893.73	211.38
894.04	211.43
894.34	211.36
894.65	211.42
894.95	211.40
895.26	211.39
895.57	211.48
895.87	211.27
896.18	211.31
896.48	211.28
896.79	211.23
897.10	211.31
897.40	211.25
897.71	211.30
898.01	211.37
898.32	211.30
898.63	211.35
898.93	211.41
899.24	211.36
899.54	211.37
899.85	211.38
900.15	211.32
900.46	211.35
900.76	211.42
901.07	211.28
901.38	211.27
901.68	211.31
901.99	211.16
902.29	211.19
902.60	211.17
902.90	211.15
903.21	211.23
903.51	211.22
903.82	211.24
904.12	211.13
904.43	211.10
904.73	211.11
905.03	211.07
905.34	211.20
905.64	211.20
905.95	211.22
906.25	211.27
906.56	211.25
906.86	211.20
907.17	211.19
907.47	211.25
907.77	211.25
908.08	211.18
908.38	211.20
908.69	211.19
908.99	211.23
909.30	211.21
909.60	211.18
909.90	211.13
910.21	211.16
910.51	211.23
910.81	211.24
911.12	211.22
911.42	211.28
911.73	211.09
912.03	211.08
912.33	211.09
912.64	210.99
912.94	210.97
913.24	211.04
913.55	211.04
913.85	211.06
914.15	211.10
914.46	211.16
914.76	211.15
915.06	211.20
915.37	211.11
915.67	211.15
915.97	211.12
916.27	211.00
916.58	211.00
916.88	211.06
917.18	211.01
917.49	211.16
917.79	211.08
918.09	211.10
918.39	211.17
918.70	211.09
919.00	211.18
919.30	211.27
919.60	211.16
919.91	211.20
920.21	211.25
920.51	211.22
920.81	211.22
921.12	211.22
921.42	211.15
921.72	211.15
922.02	211.15
922.32	211.20
922.63	211.29
922.93	211.38
923.23	211.34
923.53	211.33
923.83	211.22
924.13	211.31
924.44	211.32
924.74	211.38
925.04	211.45
925.34	211.41
925.64	211.42
925.94	211.49
926.24	211.45
926.55	211.45
926.85	211.51
927.15	211.46
927.45	211.54
927.75	211.56
928.05	211.57
928.35	211.61
928.65	211.64
928.95	211.66
929.26	211.59
929.56	211.60
929.86	211.73
930.16	211.69
930.46	211.65
930.76	211.64
931.06	211.60
931.36	211.66
931.66	211.65
931.96	211.55
932.26	211.50
932.56	211.56
932.86	211.54
933.16	211.48
933.46	211.48
933.76	211.48
934.06	211.56
934.36	211.68
934.66	211.68
934.96	211.66
935.26	211.70
935.56	211.63
935.86	211.57
936.16	211.49
936.46	211.54
936.76	211.56
937.06	211.55
937.36	211.48
937.66	211.40
937.96	211.47
938.26	211.48
938.56	211.46
938.86	211.41
939.16	211.46
939.46	211.49
939.76	211.47
940.06	211.40
940.35	211.33
940.65	211.21
940.95	211.18
941.25	211.17
941.55	211.12
941.85	211.21
942.15	211.34
942.45	211.40
942.75	211.32
943.04	211.30
943.34	211.34
943.64	211.38
943.94	211.34
944.24	211.25
944.54	211.26
944.84	211.32
945.13	211.28
945.43	211.21
945.73	211.19
946.03	211.17
946.33	211.18
946.62	211.14
946.92	211.10
947.22	211.07
947.52	211.07
947.82	211.13
948.11	211.07
948.41	210.99
948.71	210.92
949.01	210.98
949.31	211.04
949.60	211.08
949.90	211.07
950.20	211.05
950.50	211.10
950.79	211.10
951.09	211.19
951.39	211.17
951.69	211.11
951.98	211.20
952.28	211.31
952.58	211.34
952.87	211.35
953.17	211.35
953.47	211.34
953.76	211.30
954.06	211.26
954.36	211.36
954.66	211.30
954.95	211.37
955.25	211.33
955.55	211.31
955.84	211.23
956.14	211.26
956.44	211.28
956.73	211.25
957.03	211.22
957.32	211.13
957.62	211.19
957.92	211.31
958.21	211.31
958.51	211.46
958.81	211.38
959.10	211.43
959.40	211.53
959.69	211.59
959.99	211.66
960.29	211.62
960.58	211.60
960.88	211.70
961.17	211.64
961.47	211.72
961.76	211.67
962.06	211.70
962.36	211.66
962.65	211.64
962.95	211.61
963.24	211.65
963.54	211.70
963.83	211.70
964.13	211.59
964.42	211.53
964.72	211.40
965.01	211.45
965.31	211.46
965.60	211.36
965.90	211.49
966.19	211.38
966.49	211.40
966.78	211.30
967.08	211.33
967.37	211.35
967.67	211.25
967.96	211.32
968.26	211.29
968.55	211.30
968.85	211.38
969.14	211.38
969.43	211.40
969.73	211.38
970.02	211.32
970.32	211.30
970.61	211.23
970.91	211.11
971.20	211.07
971.49	211.05
971.79	211.07
972.08	210.85
972.38	210.94
972.67	210.94
972.96	210.97
973.26	210.91
973.55	210.92
973.85	210.96
974.14	210.88
974.43	210.87
974.73	210.82
975.02	210.66
975.31	210.71
975.61	210.68
975.90	210.65
976.19	210.63
976.49	210.70
976.78	210.72
977.07	210.70
977.37	210.65
977.66	210.67
977.95	210.66
978.24	210.69
978.54	210.66
978.83	210.59
979.12	210.63
979.42	210.66
979.71	210.64
980.00	210.59
980.29	210.67
980.59	210.63
980.88	210.68
981.17	210.75
981.46	210.63
981.76	210.64
982.05	210.66
982.34	210.70
982.63	210.66
982.93	210.66
983.22	210.83
983.51	210.92
983.80	210.88
984.09	210.88
984.39	210.86
984.68	210.85
984.97	210.89
985.26	210.78
985.55	210.72
985.85	210.70
986.14	210.74
986.43	210.74
986.72	210.80
987.01	210.79
987.30	210.82
987.59	210.82
987.89	210.80
988.18	210.76
988.47	210.76
988.76	210.82
989.05	210.78
989.34	210.62
989.63	210.64
989.92	210.64
990.22	210.63
990.51	210.66
990.80	210.68
991.09	210.68
991.38	210.75
991.67	210.74
991.96	210.73
992.25	210.70
992.54	210.62
992.83	210.61
993.12	210.61
993.41	210.64
993.70	210.74
993.99	210.75
994.28	210.78
994.58	210.84
994.87	210.81
995.16	210.84
995.45	210.87
995.74	210.81
996.03	210.84
996.32	210.89
996.61	210.90
996.90	210.86
997.19	210.90
997.48	210.89
997.77	210.87
998.06	210.86
998.34	210.89
998.63	210.90
998.92	210.94
999.21	210.93
999.50	210.89
999.79	210.85
1000.08	210.90
1000.37	210.95
1000.66	210.83
1000.95	210.81
1001.24	210.79
1001.53	210.80
1001.82	210.80
1002.11	210.70
1002.40	210.66
1002.68	210.74
1002.97	210.90
1003.26	210.88
1003.55	210.83
1003.84	210.86
1004.13	210.95
1004.42	210.95
1004.71	210.96
1004.99	210.90
1005.28	210.94
1005.57	210.96
1005.86	210.93
1006.15	210.88
1006.44	210.85
1006.72	210.84
1007.01	210.78
1007.30	210.80
1007.59	210.83
1007.88	210.85
1008.17	210.90
1008.45	210.91
1008.74	210.82
1009.03	210.62
1009.32	210.59
1009.60	210.62
1009.89	210.57
1010.18	210.49
1010.47	210.49
1010.76	210.51
1011.04	210.55
1011.33	210.49
1011.62	210.45
1011.91	210.50
1012.19	210.52
1012.48	210.42
1012.77	210.46
1013.05	210.60
1013.34	210.58
1013.63	210.56
1013.92	210.55
1014.20	210.47
1014.49	210.40
1014.78	210.44
1015.06	210.51
1015.35	210.51
1015.64	210.52
1015.92	210.55
1016.21	210.53
1016.50	210.51
1016.78	210.56
1017.07	210.53
1017.36	210.61
1017.64	210.67
1017.93	210.62
1018.22	210.58
1018.50	210.60
1018.79	210.63
1019.08	210.52
1019.36	210.55
1019.65	210.52
1019.93	210.64
1020.22	210.71
1020.51	210.87
1020.79	210.81
1021.08	210.15
1021.36	209.85
1021.65	210.90
1021.94	210.10
1022.22	210.15
1022.51	210.45
1022.79	212.80
1023.08	210.70
1023.36	213.05
1023.65	209.90
>>>>>End Processed Spectral Data<<<<<
