SpectraSuite Data File
++++++++++++++++++++++++++++++++++++
Date: Mon Feb 25 17:32:28 EST 2013
User: group
Dark Spectrum Present: No
Reference Spectrum Present: No
Number of Sampled Component Spectra: 1
Spectrometers: USB2E7196
Integration Time (usec): 52000 (USB2E7196)
Spectra Averaged: 20 (USB2E7196)
Boxcar Smoothing: 10 (USB2E7196)
Correct for Electrical Dark: No (USB2E7196)
Strobe/Lamp Enabled: No (USB2E7196)
Correct for Detector Non-linearity: No (USB2E7196)
Correct for Stray Light: No (USB2E7196)
Number of Pixels in Processed Spectrum: 2048
>>>>>Begin Processed Spectral Data<<<<<
339.09	0.00
339.48	198.65
339.86	201.55
340.24	200.90
340.63	203.70
341.01	207.45
341.39	207.20
341.78	206.80
342.16	208.50
342.54	209.65
342.93	198.52
343.31	208.55
343.69	209.09
344.07	209.46
344.46	209.95
344.84	210.31
345.22	210.49
345.60	210.74
345.99	210.97
346.37	211.07
346.75	211.15
347.13	211.19
347.52	211.11
347.90	211.25
348.28	211.29
348.66	211.45
349.05	211.40
349.43	211.42
349.81	211.45
350.19	211.49
350.57	211.49
350.96	211.58
351.34	211.62
351.72	211.72
352.10	211.87
352.48	211.91
352.87	211.94
353.25	212.03
353.63	212.02
354.01	212.06
354.39	212.14
354.77	212.20
355.15	212.31
355.54	212.40
355.92	212.37
356.30	212.32
356.68	212.47
357.06	212.47
357.44	212.51
357.82	212.53
358.20	212.60
358.58	212.76
358.97	212.87
359.35	213.07
359.73	213.15
360.11	213.16
360.49	213.25
360.87	213.32
361.25	213.35
361.63	213.46
362.01	213.49
362.39	213.59
362.77	213.64
363.15	213.63
363.53	213.64
363.91	213.62
364.29	213.70
364.67	213.53
365.05	213.60
365.43	213.61
365.81	213.79
366.19	213.84
366.57	213.83
366.95	213.78
367.33	213.64
367.71	213.69
368.09	213.76
368.47	213.71
368.85	213.67
369.23	213.74
369.61	213.70
369.99	213.77
370.37	213.77
370.75	213.84
371.13	213.81
371.51	213.77
371.89	213.80
372.27	213.76
372.65	213.71
373.03	213.62
373.41	213.63
373.78	213.47
374.16	213.38
374.54	213.28
374.92	213.23
375.30	213.16
375.68	212.96
376.06	212.85
376.44	212.80
376.82	212.82
377.19	212.71
377.57	212.65
377.95	212.51
378.33	212.42
378.71	212.29
379.09	212.22
379.47	212.23
379.84	212.24
380.22	212.16
380.60	212.19
380.98	212.20
381.36	212.06
381.73	211.97
382.11	211.96
382.49	211.94
382.87	211.86
383.25	211.86
383.62	212.11
384.00	212.05
384.38	211.99
384.76	211.94
385.13	212.02
385.51	211.94
385.89	211.95
386.27	211.91
386.64	211.88
387.02	211.89
387.40	211.77
387.78	211.69
388.15	211.66
388.53	211.57
388.91	211.53
389.29	211.60
389.66	211.63
390.04	211.70
390.42	211.69
390.79	211.66
391.17	211.64
391.55	211.42
391.92	211.48
392.30	211.52
392.68	211.52
393.05	211.48
393.43	211.52
393.81	211.49
394.18	211.50
394.56	211.54
394.94	211.55
395.31	211.58
395.69	211.64
396.06	211.74
396.44	211.80
396.82	211.82
397.19	211.92
397.57	211.89
397.95	211.81
398.32	211.81
398.70	211.90
399.07	211.99
399.45	212.12
399.82	212.10
400.20	212.12
400.58	212.16
400.95	212.12
401.33	212.26
401.70	212.41
402.08	212.42
402.45	212.40
402.83	212.53
403.20	212.65
403.58	212.66
403.95	212.76
404.33	212.92
404.71	213.02
405.08	213.27
405.46	213.43
405.83	213.55
406.21	213.64
406.58	213.81
406.96	213.94
407.33	214.06
407.70	214.34
408.08	214.66
408.45	214.92
408.83	215.17
409.20	215.30
409.58	215.49
409.95	215.85
410.33	216.19
410.70	216.41
411.08	216.70
411.45	217.10
411.82	217.49
412.20	217.87
412.57	218.49
412.95	218.66
413.32	219.22
413.69	219.78
414.07	220.31
414.44	220.93
414.82	221.56
415.19	222.19
415.56	222.86
415.94	223.59
416.31	224.45
416.68	225.34
417.06	226.34
417.43	227.24
417.81	228.31
418.18	229.42
418.55	230.68
418.93	231.97
419.30	233.30
419.67	234.63
420.04	235.92
420.42	237.30
420.79	239.20
421.16	240.92
421.54	242.74
421.91	244.70
422.28	246.65
422.66	248.66
423.03	250.79
423.40	252.89
423.77	255.03
424.15	257.26
424.52	259.63
424.89	262.19
425.26	264.71
425.64	267.02
426.01	269.63
426.38	272.33
426.75	275.06
427.13	277.83
427.50	280.80
427.87	283.88
428.24	286.89
428.61	289.70
428.99	292.92
429.36	296.37
429.73	299.76
430.10	303.10
430.47	306.63
430.85	310.25
431.22	314.08
431.59	318.37
431.96	322.27
432.33	326.59
432.70	330.77
433.08	335.70
433.45	340.35
433.82	344.96
434.19	350.05
434.56	355.06
434.93	359.73
435.30	364.42
435.68	369.69
436.05	374.92
436.42	379.96
436.79	384.63
437.16	389.61
437.53	395.00
437.90	400.31
438.27	405.42
438.64	410.73
439.01	415.73
439.38	420.02
439.75	424.21
440.13	428.97
440.50	433.40
440.87	436.95
441.24	440.79
441.61	445.03
441.98	448.10
442.35	451.67
442.72	455.47
443.09	458.94
443.46	461.19
443.83	462.45
444.20	463.67
444.57	465.41
444.94	466.23
445.31	466.82
445.68	467.58
446.05	467.85
446.42	467.26
446.79	466.37
447.16	465.42
447.53	464.82
447.90	462.62
448.27	460.65
448.64	457.77
449.01	455.61
449.37	451.88
449.74	448.26
450.11	444.15
450.48	439.56
450.85	435.11
451.22	431.05
451.59	427.42
451.96	423.96
452.33	419.25
452.70	414.94
453.07	410.00
453.43	404.65
453.80	399.69
454.17	394.82
454.54	390.36
454.91	385.62
455.28	381.02
455.65	376.77
456.02	372.41
456.38	368.78
456.75	364.23
457.12	360.41
457.49	356.60
457.86	352.84
458.23	349.72
458.59	346.20
458.96	342.76
459.33	339.60
459.70	336.44
460.07	333.90
460.43	331.06
460.80	328.29
461.17	326.00
461.54	323.54
461.91	321.21
462.27	318.85
462.64	316.81
463.01	314.48
463.38	312.34
463.74	310.10
464.11	308.22
464.48	306.50
464.85	304.69
465.21	303.39
465.58	301.91
465.95	300.16
466.32	298.75
466.68	297.31
467.05	295.81
467.42	294.38
467.78	292.91
468.15	291.55
468.52	290.59
468.88	289.32
469.25	288.18
469.62	287.31
469.98	286.33
470.35	285.40
470.72	284.60
471.08	283.68
471.45	282.94
471.82	282.20
472.18	281.45
472.55	280.88
472.92	280.18
473.28	279.62
473.65	279.09
474.02	278.47
474.38	277.99
474.75	277.67
475.11	277.27
475.48	277.02
475.85	276.80
476.21	276.64
476.58	276.54
476.94	276.50
477.31	276.35
477.67	276.30
478.04	276.37
478.41	276.49
478.77	276.84
479.14	276.92
479.50	277.25
479.87	277.55
480.23	278.00
480.60	278.32
480.96	278.79
481.33	279.48
481.69	280.12
482.06	280.80
482.42	281.60
482.79	282.39
483.15	283.22
483.52	284.24
483.88	285.13
484.25	286.14
484.61	287.23
484.98	288.44
485.34	289.74
485.71	291.07
486.07	292.43
486.44	293.64
486.80	295.16
487.17	296.69
487.53	298.40
487.90	300.17
488.26	302.20
488.62	304.26
488.99	306.23
489.35	308.49
489.72	310.77
490.08	313.08
490.44	315.55
490.81	318.26
491.17	320.88
491.54	323.87
491.90	326.81
492.26	330.03
492.63	333.41
492.99	336.90
493.36	340.50
493.72	344.42
494.08	348.54
494.45	352.89
494.81	357.34
495.17	361.99
495.54	366.83
495.90	371.84
496.26	377.14
496.63	382.69
496.99	388.37
497.35	394.43
497.72	400.73
498.08	407.13
498.44	413.88
498.80	421.15
499.17	428.42
499.53	436.13
499.89	444.19
500.26	452.28
500.62	460.74
500.98	469.63
501.34	478.60
501.71	488.07
502.07	497.75
502.43	507.71
502.79	517.92
503.16	528.63
503.52	539.42
503.88	550.54
504.24	561.97
504.60	573.88
504.97	586.18
505.33	598.59
505.69	612.02
506.05	625.39
506.41	638.93
506.78	652.61
507.14	666.87
507.50	681.20
507.86	696.23
508.22	711.52
508.59	727.05
508.95	743.04
509.31	759.01
509.67	775.56
510.03	792.37
510.39	809.82
510.75	827.43
511.12	845.71
511.48	864.14
511.84	882.61
512.20	901.10
512.56	920.14
512.92	939.50
513.28	958.79
513.64	978.40
514.00	998.21
514.37	1018.68
514.73	1039.25
515.09	1060.28
515.45	1081.09
515.81	1102.33
516.17	1123.58
516.53	1144.82
516.89	1166.53
517.25	1188.19
517.61	1209.67
517.97	1231.23
518.33	1252.67
518.69	1273.99
519.05	1295.85
519.41	1317.92
519.77	1340.59
520.13	1362.72
520.49	1384.73
520.85	1407.16
521.21	1429.64
521.57	1452.31
521.93	1474.07
522.29	1496.91
522.65	1519.25
523.01	1541.77
523.37	1563.39
523.73	1585.36
524.09	1607.54
524.45	1629.78
524.81	1651.85
525.17	1674.32
525.53	1696.68
525.89	1718.91
526.25	1741.35
526.61	1762.77
526.97	1784.28
527.33	1805.15
527.68	1826.58
528.04	1847.93
528.40	1868.32
528.76	1889.05
529.12	1909.67
529.48	1931.71
529.84	1952.06
530.20	1972.11
530.56	1992.21
530.91	2012.94
531.27	2033.57
531.63	2053.65
531.99	2073.43
532.35	2092.59
532.71	2111.60
533.07	2131.05
533.42	2149.53
533.78	2168.15
534.14	2186.76
534.50	2204.22
534.86	2222.50
535.21	2239.00
535.57	2256.57
535.93	2273.77
536.29	2290.30
536.65	2307.10
537.00	2321.78
537.36	2336.65
537.72	2351.59
538.08	2366.76
538.44	2381.93
538.79	2397.06
539.15	2411.62
539.51	2426.15
539.87	2441.21
540.22	2455.42
540.58	2469.97
540.94	2484.12
541.29	2497.06
541.65	2508.82
542.01	2521.99
542.37	2533.88
542.72	2546.32
543.08	2557.30
543.44	2569.26
543.79	2579.53
544.15	2589.41
544.51	2600.70
544.87	2611.99
545.22	2621.60
545.58	2630.05
545.94	2637.39
546.29	2643.77
546.65	2650.22
547.01	2656.19
547.36	2661.91
547.72	2667.58
548.07	2671.38
548.43	2675.39
548.79	2679.34
549.14	2683.95
549.50	2688.11
549.86	2691.71
550.21	2695.69
550.57	2699.70
550.92	2702.17
551.28	2704.89
551.64	2707.23
551.99	2709.50
552.35	2710.81
552.70	2713.45
553.06	2716.44
553.41	2719.28
553.77	2722.19
554.13	2724.56
554.48	2726.76
554.84	2728.23
555.19	2728.76
555.55	2729.30
555.90	2729.72
556.26	2730.19
556.61	2730.29
556.97	2728.94
557.32	2728.77
557.68	2726.77
558.03	2725.21
558.39	2723.87
558.74	2723.65
559.10	2722.76
559.45	2721.12
559.81	2719.93
560.16	2717.46
560.52	2714.29
560.87	2711.34
561.23	2707.66
561.58	2705.03
561.94	2701.57
562.29	2697.83
562.64	2695.56
563.00	2693.12
563.35	2691.29
563.71	2689.04
564.06	2687.02
564.42	2685.41
564.77	2682.55
565.12	2680.72
565.48	2677.51
565.83	2674.28
566.19	2670.79
566.54	2666.44
566.89	2662.62
567.25	2658.78
567.60	2655.34
567.96	2652.42
568.31	2649.01
568.66	2645.05
569.02	2640.25
569.37	2635.08
569.72	2631.52
570.08	2626.37
570.43	2620.64
570.78	2614.59
571.14	2608.39
571.49	2601.36
571.84	2595.30
572.20	2588.85
572.55	2582.60
572.90	2576.04
573.26	2568.82
573.61	2561.66
573.96	2555.00
574.31	2546.99
574.67	2539.18
575.02	2530.46
575.37	2521.54
575.72	2512.53
576.08	2504.83
576.43	2496.50
576.78	2488.78
577.13	2480.17
577.49	2471.85
577.84	2464.20
578.19	2456.76
578.54	2449.65
578.90	2442.93
579.25	2434.22
579.60	2424.63
579.95	2415.15
580.30	2406.99
580.66	2399.19
581.01	2390.15
581.36	2381.08
581.71	2372.85
582.06	2364.13
582.42	2356.13
582.77	2346.92
583.12	2338.07
583.47	2329.43
583.82	2321.02
584.17	2311.89
584.53	2302.91
584.88	2294.24
585.23	2285.09
585.58	2275.51
585.93	2265.21
586.28	2255.90
586.63	2247.00
586.98	2239.23
587.34	2231.24
587.69	2222.28
588.04	2212.95
588.39	2204.62
588.74	2195.69
589.09	2186.83
589.44	2177.04
589.79	2168.60
590.14	2161.04
590.49	2152.59
590.84	2143.72
591.19	2135.88
591.54	2127.20
591.89	2117.42
592.25	2108.28
592.60	2099.03
592.95	2089.68
593.30	2080.56
593.65	2070.68
594.00	2061.00
594.35	2052.82
594.70	2043.45
595.05	2034.53
595.40	2026.10
595.75	2016.62
596.10	2008.34
596.45	1999.97
596.80	1992.43
597.15	1984.27
597.50	1975.11
597.85	1966.93
598.19	1958.37
598.54	1949.25
598.89	1941.70
599.24	1935.01
599.59	1927.66
599.94	1920.43
600.29	1912.83
600.64	1904.99
600.99	1896.76
601.34	1889.78
601.69	1880.81
602.04	1872.61
602.39	1864.37
602.74	1856.72
603.08	1850.25
603.43	1843.53
603.78	1835.32
604.13	1827.20
604.48	1818.76
604.83	1811.93
605.18	1804.75
605.53	1797.10
605.87	1789.85
606.22	1782.68
606.57	1774.66
606.92	1766.38
607.27	1758.60
607.62	1751.31
607.96	1744.63
608.31	1738.31
608.66	1730.45
609.01	1723.04
609.36	1715.53
609.70	1707.97
610.05	1700.02
610.40	1691.76
610.75	1683.15
611.10	1675.85
611.44	1667.02
611.79	1658.30
612.14	1648.97
612.49	1639.40
612.83	1630.76
613.18	1620.84
613.53	1611.35
613.88	1601.63
614.22	1592.90
614.57	1583.60
614.92	1574.12
615.27	1564.53
615.61	1554.97
615.96	1546.25
616.31	1537.77
616.65	1529.98
617.00	1521.55
617.35	1512.86
617.70	1503.84
618.04	1494.91
618.39	1485.41
618.74	1477.06
619.08	1468.65
619.43	1460.34
619.78	1452.70
620.12	1444.55
620.47	1437.20
620.82	1428.60
621.16	1420.59
621.51	1412.35
621.85	1404.05
622.20	1395.72
622.55	1387.45
622.89	1379.31
623.24	1371.08
623.59	1362.36
623.93	1353.51
624.28	1345.26
624.62	1337.20
624.97	1329.23
625.32	1321.35
625.66	1314.01
626.01	1306.71
626.35	1299.43
626.70	1291.69
627.04	1284.17
627.39	1276.63
627.73	1268.91
628.08	1261.98
628.43	1254.54
628.77	1247.07
629.12	1239.53
629.46	1232.89
629.81	1225.66
630.15	1218.10
630.50	1210.84
630.84	1203.80
631.19	1196.87
631.53	1190.00
631.88	1182.45
632.22	1174.75
632.57	1167.68
632.91	1160.08
633.26	1152.51
633.60	1145.39
633.95	1138.68
634.29	1131.34
634.64	1124.82
634.98	1117.84
635.32	1110.74
635.67	1104.42
636.01	1097.78
636.36	1091.30
636.70	1084.58
637.05	1078.26
637.39	1072.29
637.73	1065.88
638.08	1059.98
638.42	1054.01
638.77	1047.42
639.11	1041.18
639.45	1035.33
639.80	1028.88
640.14	1022.67
640.49	1016.56
640.83	1010.29
641.17	1003.90
641.52	997.89
641.86	991.28
642.20	985.06
642.55	978.40
642.89	971.89
643.23	965.44
643.58	959.47
643.92	953.05
644.26	946.70
644.61	940.49
644.95	934.41
645.29	928.14
645.64	921.45
645.98	915.54
646.32	909.55
646.66	903.25
647.01	897.19
647.35	891.32
647.69	885.03
648.04	879.13
648.38	873.29
648.72	867.36
649.06	861.30
649.41	855.36
649.75	849.79
650.09	844.01
650.43	838.25
650.78	832.09
651.12	825.98
651.46	820.15
651.80	814.25
652.14	808.42
652.49	802.55
652.83	796.88
653.17	790.83
653.51	785.03
653.85	779.73
654.20	774.06
654.54	768.31
654.88	763.00
655.22	757.02
655.56	751.19
655.90	745.28
656.25	739.61
656.59	734.09
656.93	728.98
657.27	723.81
657.61	718.45
657.95	713.31
658.29	708.27
658.64	703.25
658.98	698.20
659.32	692.87
659.66	687.81
660.00	682.52
660.34	677.31
660.68	672.16
661.02	666.96
661.36	662.23
661.70	657.57
662.05	652.85
662.39	648.52
662.73	644.25
663.07	639.92
663.41	635.55
663.75	631.13
664.09	626.38
664.43	621.56
664.77	617.08
665.11	612.65
665.45	608.29
665.79	603.88
666.13	599.42
666.47	595.30
666.81	591.05
667.15	586.99
667.49	583.19
667.83	579.36
668.17	575.55
668.51	571.61
668.85	567.87
669.19	564.12
669.53	560.13
669.87	555.99
670.21	552.16
670.55	548.25
670.89	544.83
671.23	541.40
671.57	538.12
671.91	534.57
672.25	531.02
672.58	527.63
672.92	524.11
673.26	520.93
673.60	517.69
673.94	514.40
674.28	511.18
674.62	508.05
674.96	504.85
675.30	501.74
675.64	498.66
675.97	495.35
676.31	492.38
676.65	489.56
676.99	487.07
677.33	484.12
677.67	481.40
678.01	478.16
678.34	475.13
678.68	472.18
679.02	469.13
679.36	466.45
679.70	463.48
680.04	460.74
680.37	457.80
680.71	454.97
681.05	452.23
681.39	449.55
681.73	446.84
682.06	444.32
682.40	441.60
682.74	438.95
683.08	436.57
683.42	433.83
683.75	431.25
684.09	428.49
684.43	426.04
684.77	423.34
685.10	420.91
685.44	418.49
685.78	416.02
686.12	413.94
686.45	411.50
686.79	409.33
687.13	407.16
687.46	404.99
687.80	402.84
688.14	400.52
688.48	398.47
688.81	396.24
689.15	394.07
689.49	391.87
689.82	389.66
690.16	387.28
690.50	385.04
690.83	382.75
691.17	380.46
691.51	378.28
691.84	376.28
692.18	374.24
692.52	372.31
692.85	370.47
693.19	368.55
693.52	366.57
693.86	364.65
694.20	362.77
694.53	360.90
694.87	358.78
695.21	356.91
695.54	354.92
695.88	352.95
696.21	351.07
696.55	349.42
696.88	347.77
697.22	346.08
697.56	344.53
697.89	343.00
698.23	341.44
698.56	339.85
698.90	338.33
699.23	336.68
699.57	335.01
699.90	333.21
700.24	331.53
700.58	330.00
700.91	328.43
701.25	326.95
701.58	325.50
701.92	324.25
702.25	322.84
702.59	321.45
702.92	320.21
703.26	318.88
703.59	317.58
703.93	316.41
704.26	315.06
704.60	313.79
704.93	312.45
705.26	311.18
705.60	310.05
705.93	308.83
706.27	307.71
706.60	306.62
706.94	305.57
707.27	304.42
707.61	303.28
707.94	302.10
708.27	300.86
708.61	299.69
708.94	298.53
709.28	297.34
709.61	296.25
709.94	295.17
710.28	294.12
710.61	293.00
710.95	291.73
711.28	290.85
711.61	289.82
711.95	288.88
712.28	288.00
712.61	286.91
712.95	285.91
713.28	285.06
713.61	284.11
713.95	283.30
714.28	282.48
714.61	281.51
714.95	280.71
715.28	279.85
715.61	278.87
715.95	277.99
716.28	277.25
716.61	276.39
716.95	275.53
717.28	274.66
717.61	273.91
717.94	273.19
718.28	272.37
718.61	271.64
718.94	270.85
719.27	270.02
719.61	269.36
719.94	268.64
720.27	267.74
720.60	267.00
720.94	266.21
721.27	265.47
721.60	264.97
721.93	264.31
722.27	263.70
722.60	263.12
722.93	262.53
723.26	261.93
723.59	261.27
723.93	260.67
724.26	260.03
724.59	259.41
724.92	258.80
725.25	258.18
725.59	257.59
725.92	257.10
726.25	256.56
726.58	255.98
726.91	255.47
727.24	255.07
727.57	254.66
727.91	254.11
728.24	253.66
728.57	253.12
728.90	252.59
729.23	252.10
729.56	251.80
729.89	251.33
730.22	250.89
730.55	250.52
730.89	250.03
731.22	249.61
731.55	249.20
731.88	248.82
732.21	248.45
732.54	248.00
732.87	247.54
733.20	247.12
733.53	246.75
733.86	246.42
734.19	245.97
734.52	245.54
734.85	245.37
735.18	244.83
735.51	244.51
735.84	244.17
736.17	243.84
736.50	243.35
736.83	243.14
737.16	242.76
737.49	242.40
737.82	242.12
738.15	241.84
738.48	241.48
738.81	241.10
739.14	240.67
739.47	240.34
739.80	239.96
740.13	239.66
740.46	239.27
740.79	238.86
741.12	238.62
741.45	238.23
741.78	237.73
742.11	237.58
742.44	237.23
742.77	236.99
743.10	236.70
743.43	236.41
743.75	235.96
744.08	235.80
744.41	235.50
744.74	235.20
745.07	234.86
745.40	234.67
745.73	234.42
746.06	234.23
746.39	233.96
746.71	233.66
747.04	233.31
747.37	233.13
747.70	232.85
748.03	232.52
748.36	232.24
748.68	231.98
749.01	231.69
749.34	231.41
749.67	231.13
750.00	230.90
750.33	230.79
750.65	230.54
750.98	230.13
751.31	229.88
751.64	229.62
751.97	229.56
752.29	229.22
752.62	228.96
752.95	228.67
753.28	228.45
753.60	228.30
753.93	228.22
754.26	228.00
754.59	227.82
754.91	227.57
755.24	227.40
755.57	227.20
755.90	226.94
756.22	226.74
756.55	226.52
756.88	226.23
757.20	225.91
757.53	225.71
757.86	225.51
758.19	225.32
758.51	225.17
758.84	224.87
759.17	224.75
759.49	224.54
759.82	224.51
760.15	224.36
760.47	224.18
760.80	223.88
761.13	223.74
761.45	223.57
761.78	223.50
762.11	223.44
762.43	223.33
762.76	223.20
763.08	223.11
763.41	223.05
763.74	223.00
764.06	222.85
764.39	222.70
764.71	222.65
765.04	222.52
765.37	222.36
765.69	222.25
766.02	222.12
766.34	222.05
766.67	221.83
767.00	221.73
767.32	221.71
767.65	221.77
767.97	221.60
768.30	221.51
768.62	221.37
768.95	221.21
769.27	221.07
769.60	221.11
769.92	220.94
770.25	220.80
770.57	220.63
770.90	220.46
771.22	220.34
771.55	220.20
771.87	220.15
772.20	220.04
772.52	220.05
772.85	220.18
773.17	220.05
773.50	219.95
773.82	219.84
774.15	219.65
774.47	219.40
774.80	219.32
775.12	219.18
775.45	219.03
775.77	218.93
776.09	218.92
776.42	218.70
776.74	218.69
777.07	218.55
777.39	218.49
777.72	218.53
778.04	218.53
778.36	218.45
778.69	218.39
779.01	218.35
779.33	218.20
779.66	217.89
779.98	217.82
780.31	217.79
780.63	217.74
780.95	217.65
781.28	217.60
781.60	217.48
781.92	217.36
782.25	217.33
782.57	217.30
782.89	217.17
783.22	217.11
783.54	216.99
783.86	216.90
784.19	216.89
784.51	216.91
784.83	216.73
785.16	216.67
785.48	216.60
785.80	216.48
786.12	216.35
786.45	216.30
786.77	216.30
787.09	216.26
787.42	216.19
787.74	216.17
788.06	216.09
788.38	216.05
788.71	216.04
789.03	216.00
789.35	215.87
789.67	215.86
789.99	215.86
790.32	215.84
790.64	215.90
790.96	215.90
791.28	215.73
791.61	215.72
791.93	215.71
792.25	215.59
792.57	215.72
792.89	215.71
793.21	215.65
793.54	215.55
793.86	215.43
794.18	215.44
794.50	215.44
794.82	215.42
795.14	215.49
795.47	215.44
795.79	215.40
796.11	215.36
796.43	215.24
796.75	215.15
797.07	215.10
797.39	215.01
797.71	214.83
798.04	214.77
798.36	214.78
798.68	214.67
799.00	214.72
799.32	214.66
799.64	214.65
799.96	214.68
800.28	214.68
800.60	214.64
800.92	214.59
801.24	214.52
801.56	214.49
801.89	214.33
802.21	214.41
802.53	214.36
802.85	214.40
803.17	214.50
803.49	214.46
803.81	214.44
804.13	214.37
804.45	214.41
804.77	214.43
805.09	214.31
805.41	214.28
805.73	214.20
806.05	214.06
806.37	213.96
806.69	213.79
807.01	213.71
807.33	213.78
807.65	213.69
807.97	213.63
808.28	213.56
808.60	213.53
808.92	213.44
809.24	213.49
809.56	213.40
809.88	213.28
810.20	213.30
810.52	213.21
810.84	213.22
811.16	213.10
811.48	213.02
811.80	213.14
812.12	213.18
812.43	213.23
812.75	213.22
813.07	213.26
813.39	213.30
813.71	213.28
814.03	213.16
814.35	213.13
814.67	213.15
814.98	213.20
815.30	213.27
815.62	213.20
815.94	213.05
816.26	213.01
816.58	212.98
816.89	212.93
817.21	212.99
817.53	212.95
817.85	212.93
818.17	212.90
818.48	212.79
818.80	212.80
819.12	212.71
819.44	212.67
819.76	212.61
820.07	212.65
820.39	212.60
820.71	212.66
821.03	212.70
821.34	212.71
821.66	212.68
821.98	212.64
822.30	212.62
822.61	212.71
822.93	212.73
823.25	212.73
823.57	212.68
823.88	212.70
824.20	212.71
824.52	212.71
824.83	212.65
825.15	212.70
825.47	212.65
825.79	212.61
826.10	212.69
826.42	212.62
826.74	212.55
827.05	212.59
827.37	212.52
827.69	212.50
828.00	212.48
828.32	212.50
828.64	212.49
828.95	212.61
829.27	212.64
829.58	212.70
829.90	212.68
830.22	212.70
830.53	212.60
830.85	212.59
831.17	212.61
831.48	212.68
831.80	212.66
832.11	212.65
832.43	212.66
832.75	212.52
833.06	212.68
833.38	212.69
833.69	212.67
834.01	212.72
834.32	212.72
834.64	212.67
834.96	212.62
835.27	212.61
835.59	212.48
835.90	212.36
836.22	212.31
836.53	212.24
836.85	212.24
837.16	212.41
837.48	212.50
837.79	212.47
838.11	212.48
838.42	212.40
838.74	212.41
839.05	212.35
839.37	212.40
839.68	212.27
840.00	212.24
840.31	212.27
840.63	212.23
840.94	212.15
841.26	212.14
841.57	212.17
841.88	212.12
842.20	212.11
842.51	212.11
842.83	212.06
843.14	212.27
843.46	212.28
843.77	212.19
844.08	212.04
844.40	212.04
844.71	212.06
845.03	212.05
845.34	212.01
845.65	212.02
845.97	211.99
846.28	212.03
846.60	212.01
846.91	212.01
847.22	212.00
847.54	212.09
847.85	212.05
848.16	211.99
848.48	212.02
848.79	212.09
849.10	212.07
849.42	212.05
849.73	211.84
850.04	211.78
850.36	211.70
850.67	211.70
850.98	211.68
851.30	211.63
851.61	211.60
851.92	211.63
852.23	211.65
852.55	211.65
852.86	211.61
853.17	211.59
853.49	211.60
853.80	211.69
854.11	211.66
854.42	211.64
854.74	211.64
855.05	211.60
855.36	211.51
855.67	211.55
855.99	211.57
856.30	211.77
856.61	211.72
856.92	211.74
857.23	211.74
857.55	211.70
857.86	211.69
858.17	211.72
858.48	211.67
858.79	211.59
859.11	211.64
859.42	211.63
859.73	211.63
860.04	211.60
860.35	211.52
860.66	211.48
860.98	211.57
861.29	211.64
861.60	211.64
861.91	211.66
862.22	211.66
862.53	211.62
862.84	211.44
863.16	211.53
863.47	211.53
863.78	211.57
864.09	211.58
864.40	211.55
864.71	211.57
865.02	211.54
865.33	211.64
865.64	211.54
865.95	211.56
866.27	211.67
866.58	211.67
866.89	211.65
867.20	211.65
867.51	211.57
867.82	211.45
868.13	211.50
868.44	211.46
868.75	211.47
869.06	211.57
869.37	211.57
869.68	211.47
869.99	211.42
870.30	211.45
870.61	211.42
870.92	211.42
871.23	211.39
871.54	211.42
871.85	211.41
872.16	211.48
872.47	211.42
872.78	211.29
873.09	211.23
873.40	211.20
873.71	211.16
874.02	211.21
874.33	211.17
874.64	211.13
874.95	211.17
875.26	211.06
875.56	210.98
875.87	210.96
876.18	210.99
876.49	211.23
876.80	211.19
877.11	211.20
877.42	211.14
877.73	211.19
878.04	211.21
878.35	211.25
878.66	211.18
878.96	211.15
879.27	211.25
879.58	211.26
879.89	211.21
880.20	211.29
880.51	211.28
880.82	211.32
881.12	211.35
881.43	211.24
881.74	211.28
882.05	211.33
882.36	211.36
882.67	211.39
882.97	211.17
883.28	211.16
883.59	211.10
883.90	211.21
884.21	211.27
884.51	211.20
884.82	211.19
885.13	211.28
885.44	211.33
885.74	211.25
886.05	211.22
886.36	211.28
886.67	211.20
886.98	211.22
887.28	211.18
887.59	211.19
887.90	211.22
888.20	211.18
888.51	211.08
888.82	211.02
889.13	210.98
889.43	211.09
889.74	211.04
890.05	211.09
890.35	211.05
890.66	210.92
890.97	210.95
891.28	210.86
891.58	210.80
891.89	210.84
892.20	210.86
892.50	210.83
892.81	210.85
893.12	210.83
893.42	210.76
893.73	210.85
894.04	210.80
894.34	210.85
894.65	210.88
894.95	210.98
895.26	211.02
895.57	211.15
895.87	211.09
896.18	211.09
896.48	211.18
896.79	211.17
897.10	211.25
897.40	211.28
897.71	211.29
898.01	211.28
898.32	211.24
898.63	211.24
898.93	211.32
899.24	211.40
899.54	211.41
899.85	211.37
900.15	211.33
900.46	211.37
900.76	211.43
901.07	211.41
901.38	211.37
901.68	211.36
901.99	211.22
902.29	211.13
902.60	211.19
902.90	211.09
903.21	211.08
903.51	211.04
903.82	211.07
904.12	211.10
904.43	211.17
904.73	211.14
905.03	211.17
905.34	211.30
905.64	211.17
905.95	211.17
906.25	211.20
906.56	211.23
906.86	211.19
907.17	211.10
907.47	211.11
907.77	211.06
908.08	210.99
908.38	210.98
908.69	211.03
908.99	211.07
909.30	211.05
909.60	211.04
909.90	211.08
910.21	211.07
910.51	211.04
910.81	211.00
911.12	211.07
911.42	211.03
911.73	210.85
912.03	210.85
912.33	210.86
912.64	210.85
912.94	210.86
913.24	210.89
913.55	210.91
913.85	210.91
914.15	211.05
914.46	211.14
914.76	211.16
915.06	211.16
915.37	211.14
915.67	211.22
915.97	211.25
916.27	211.26
916.58	211.22
916.88	211.19
917.18	211.25
917.49	211.29
917.79	211.30
918.09	211.33
918.39	211.48
918.70	211.45
919.00	211.49
919.30	211.58
919.60	211.52
919.91	211.54
920.21	211.56
920.51	211.44
920.81	211.42
921.12	211.51
921.42	211.50
921.72	211.50
922.02	211.55
922.32	211.60
922.63	211.55
922.93	211.67
923.23	211.72
923.53	211.70
923.83	211.63
924.13	211.66
924.44	211.73
924.74	211.72
925.04	211.87
925.34	211.89
925.64	211.84
925.94	211.83
926.24	211.92
926.55	211.97
926.85	212.05
927.15	212.04
927.45	211.96
927.75	211.97
928.05	211.95
928.35	211.88
928.65	211.88
928.95	211.90
929.26	211.82
929.56	211.86
929.86	211.85
930.16	211.87
930.46	211.86
930.76	211.84
931.06	211.73
931.36	211.69
931.66	211.66
931.96	211.70
932.26	211.74
932.56	211.62
932.86	211.66
933.16	211.65
933.46	211.65
933.76	211.70
934.06	211.76
934.36	211.80
934.66	211.83
934.96	211.80
935.26	211.82
935.56	211.82
935.86	211.71
936.16	211.70
936.46	211.65
936.76	211.63
937.06	211.59
937.36	211.61
937.66	211.54
937.96	211.56
938.26	211.47
938.56	211.48
938.86	211.46
939.16	211.39
939.46	211.39
939.76	211.37
940.06	211.34
940.35	211.27
940.65	211.20
940.95	211.18
941.25	211.13
941.55	211.15
941.85	211.11
942.15	211.20
942.45	211.24
942.75	211.20
943.04	211.17
943.34	211.13
943.64	211.10
943.94	211.06
944.24	211.07
944.54	211.03
944.84	211.00
945.13	211.01
945.43	210.97
945.73	210.99
946.03	210.96
946.33	210.92
946.62	210.84
946.92	210.82
947.22	210.84
947.52	210.85
947.82	210.85
948.11	210.85
948.41	210.86
948.71	210.81
949.01	210.87
949.31	210.90
949.60	210.91
949.90	210.93
950.20	210.99
950.50	210.98
950.79	210.94
951.09	210.97
951.39	210.98
951.69	210.92
951.98	210.89
952.28	210.91
952.58	210.95
952.87	211.00
953.17	211.08
953.47	211.04
953.76	211.06
954.06	210.95
954.36	210.90
954.66	210.83
954.95	210.83
955.25	210.89
955.55	210.90
955.84	210.92
956.14	210.98
956.44	210.96
956.73	210.91
957.03	210.94
957.32	210.91
957.62	210.90
957.92	210.99
958.21	210.99
958.51	211.22
958.81	211.24
959.10	211.20
959.40	211.17
959.69	211.12
959.99	211.13
960.29	211.24
960.58	211.32
960.88	211.42
961.17	211.40
961.47	211.35
961.76	211.32
962.06	211.29
962.36	211.30
962.65	211.23
962.95	211.35
963.24	211.42
963.54	211.35
963.83	211.37
964.13	211.35
964.42	211.30
964.72	211.14
965.01	211.07
965.31	211.08
965.60	210.98
965.90	211.13
966.19	211.09
966.49	211.01
966.78	210.88
967.08	210.84
967.37	210.82
967.67	210.82
967.96	210.85
968.26	210.92
968.55	210.88
968.85	210.95
969.14	210.81
969.43	210.75
969.73	210.75
970.02	210.72
970.32	210.66
970.61	210.71
970.91	210.61
971.20	210.58
971.49	210.66
971.79	210.78
972.08	210.66
972.38	210.60
972.67	210.63
972.96	210.72
973.26	210.65
973.55	210.74
973.85	210.74
974.14	210.75
974.43	210.72
974.73	210.62
975.02	210.59
975.31	210.55
975.61	210.55
975.90	210.56
976.19	210.56
976.49	210.62
976.78	210.64
977.07	210.65
977.37	210.70
977.66	210.66
977.95	210.59
978.24	210.57
978.54	210.65
978.83	210.65
979.12	210.60
979.42	210.64
979.71	210.60
980.00	210.61
980.29	210.59
980.59	210.52
980.88	210.63
981.17	210.62
981.46	210.68
981.76	210.65
982.05	210.74
982.34	210.72
982.63	210.70
982.93	210.72
983.22	210.77
983.51	210.75
983.80	210.80
984.09	210.87
984.39	210.86
984.68	210.84
984.97	210.84
985.26	210.90
985.55	211.00
985.85	210.96
986.14	210.90
986.43	210.92
986.72	210.92
987.01	210.87
987.30	210.89
987.59	210.86
987.89	210.92
988.18	210.90
988.47	210.91
988.76	210.88
989.05	210.78
989.34	210.76
989.63	210.79
989.92	210.69
990.22	210.58
990.51	210.56
990.80	210.55
991.09	210.55
991.38	210.57
991.67	210.39
991.96	210.38
992.25	210.42
992.54	210.42
992.83	210.43
993.12	210.41
993.41	210.41
993.70	210.56
993.99	210.51
994.28	210.49
994.58	210.51
994.87	210.53
995.16	210.57
995.45	210.59
995.74	210.53
996.03	210.63
996.32	210.68
996.61	210.78
996.90	210.85
997.19	210.79
997.48	210.75
997.77	210.78
998.06	210.73
998.34	210.70
998.63	210.65
998.92	210.67
999.21	210.68
999.50	210.59
999.79	210.44
1000.08	210.45
1000.37	210.50
1000.66	210.55
1000.95	210.55
1001.24	210.57
1001.53	210.56
1001.82	210.59
1002.11	210.52
1002.40	210.54
1002.68	210.51
1002.97	210.62
1003.26	210.69
1003.55	210.70
1003.84	210.72
1004.13	210.80
1004.42	210.74
1004.71	210.75
1004.99	210.72
1005.28	210.72
1005.57	210.83
1005.86	210.83
1006.15	210.85
1006.44	210.75
1006.72	210.69
1007.01	210.70
1007.30	210.72
1007.59	210.72
1007.88	210.68
1008.17	210.70
1008.45	210.72
1008.74	210.63
1009.03	210.53
1009.32	210.49
1009.60	210.42
1009.89	210.42
1010.18	210.30
1010.47	210.42
1010.76	210.40
1011.04	210.41
1011.33	210.42
1011.62	210.43
1011.91	210.48
1012.19	210.43
1012.48	210.50
1012.77	210.59
1013.05	210.63
1013.34	210.57
1013.63	210.52
1013.92	210.55
1014.20	210.49
1014.49	210.46
1014.78	210.53
1015.06	210.46
1015.35	210.51
1015.64	210.57
1015.92	210.61
1016.21	210.60
1016.50	210.54
1016.78	210.65
1017.07	210.59
1017.36	210.60
1017.64	210.52
1017.93	210.47
1018.22	210.52
1018.50	210.49
1018.79	210.38
1019.08	210.36
1019.36	210.38
1019.65	210.39
1019.93	210.45
1020.22	210.52
1020.51	210.64
1020.79	210.63
1021.08	210.40
1021.36	210.50
1021.65	209.90
1021.94	211.00
1022.22	210.20
1022.51	210.80
1022.79	211.50
1023.08	211.30
1023.36	212.90
1023.65	210.45
>>>>>End Processed Spectral Data<<<<<
