SpectraSuite Data File
++++++++++++++++++++++++++++++++++++
Date: Mon Feb 25 17:29:33 EST 2013
User: group
Dark Spectrum Present: No
Reference Spectrum Present: No
Number of Sampled Component Spectra: 1
Spectrometers: USB2E7196
Integration Time (usec): 52000 (USB2E7196)
Spectra Averaged: 20 (USB2E7196)
Boxcar Smoothing: 10 (USB2E7196)
Correct for Electrical Dark: No (USB2E7196)
Strobe/Lamp Enabled: No (USB2E7196)
Correct for Detector Non-linearity: No (USB2E7196)
Correct for Stray Light: No (USB2E7196)
Number of Pixels in Processed Spectrum: 2048
>>>>>Begin Processed Spectral Data<<<<<
339.09	0.00
339.48	198.60
339.86	200.45
340.24	202.60
340.63	204.10
341.01	208.55
341.39	205.20
341.78	206.25
342.16	208.30
342.54	209.80
342.93	197.95
343.31	208.01
343.69	208.54
344.07	209.02
344.46	209.45
344.84	209.82
345.22	209.93
345.60	210.26
345.99	210.49
346.37	210.57
346.75	210.68
347.13	210.86
347.52	210.98
347.90	211.14
348.28	211.25
348.66	211.33
349.05	211.36
349.43	211.45
349.81	211.51
350.19	211.61
350.57	211.66
350.96	211.75
351.34	211.75
351.72	211.86
352.10	211.97
352.48	212.01
352.87	212.06
353.25	212.12
353.63	212.15
354.01	212.25
354.39	212.35
354.77	212.39
355.15	212.49
355.54	212.54
355.92	212.52
356.30	212.56
356.68	212.76
357.06	212.84
357.44	212.90
357.82	212.90
358.20	213.06
358.58	213.16
358.97	213.23
359.35	213.38
359.73	213.37
360.11	213.42
360.49	213.50
360.87	213.50
361.25	213.57
361.63	213.62
362.01	213.67
362.39	213.74
362.77	213.76
363.15	213.80
363.53	213.82
363.91	213.86
364.29	213.89
364.67	213.76
365.05	213.73
365.43	213.72
365.81	213.78
366.19	213.79
366.57	213.83
366.95	213.83
367.33	213.73
367.71	213.80
368.09	213.80
368.47	213.77
368.85	213.81
369.23	213.86
369.61	213.74
369.99	213.80
370.37	213.80
370.75	213.88
371.13	213.82
371.51	213.72
371.89	213.70
372.27	213.67
372.65	213.63
373.03	213.62
373.41	213.57
373.78	213.58
374.16	213.38
374.54	213.32
374.92	213.34
375.30	213.39
375.68	213.28
376.06	213.20
376.44	213.06
376.82	212.99
377.19	212.90
377.57	212.90
377.95	212.77
378.33	212.69
378.71	212.48
379.09	212.45
379.47	212.53
379.84	212.40
380.22	212.35
380.60	212.27
380.98	212.13
381.36	212.06
381.73	211.96
382.11	212.02
382.49	211.95
382.87	211.84
383.25	211.79
383.62	212.00
384.00	211.94
384.38	212.03
384.76	212.01
385.13	212.09
385.51	212.12
385.89	212.09
386.27	212.05
386.64	212.13
387.02	212.02
387.40	211.96
387.78	211.96
388.15	211.95
388.53	211.82
388.91	211.79
389.29	211.75
389.66	211.75
390.04	211.65
390.42	211.64
390.79	211.65
391.17	211.60
391.55	211.41
391.92	211.43
392.30	211.43
392.68	211.38
393.05	211.29
393.43	211.30
393.81	211.24
394.18	211.26
394.56	211.22
394.94	211.31
395.31	211.28
395.69	211.29
396.06	211.35
396.44	211.42
396.82	211.55
397.19	211.69
397.57	211.68
397.95	211.70
398.32	211.67
398.70	211.69
399.07	211.70
399.45	211.75
399.82	211.70
400.20	211.67
400.58	211.75
400.95	211.70
401.33	211.78
401.70	211.99
402.08	212.06
402.45	212.14
402.83	212.16
403.20	212.26
403.58	212.34
403.95	212.38
404.33	212.54
404.71	212.56
405.08	212.74
405.46	212.86
405.83	213.01
406.21	213.14
406.58	213.19
406.96	213.43
407.33	213.53
407.70	213.75
408.08	214.05
408.45	214.28
408.83	214.50
409.20	214.59
409.58	214.66
409.95	214.80
410.33	215.01
410.70	215.25
411.08	215.50
411.45	215.82
411.82	216.15
412.20	216.56
412.57	217.03
412.95	217.26
413.32	217.70
413.69	218.15
414.07	218.73
414.44	219.35
414.82	219.90
415.19	220.55
415.56	221.21
415.94	221.79
416.31	222.55
416.68	223.28
417.06	224.20
417.43	225.04
417.81	226.02
418.18	226.98
418.55	228.06
418.93	229.22
419.30	230.41
419.67	231.57
420.04	232.75
420.42	234.11
420.79	235.62
421.16	237.13
421.54	238.67
421.91	240.25
422.28	241.88
422.66	243.63
423.03	245.44
423.40	247.22
423.77	249.20
424.15	251.13
424.52	253.18
424.89	255.33
425.26	257.52
425.64	259.61
426.01	261.83
426.38	264.12
426.75	266.49
427.13	268.81
427.50	271.40
427.87	274.06
428.24	276.67
428.61	279.20
428.99	282.06
429.36	285.10
429.73	288.02
430.10	290.98
430.47	294.00
430.85	297.13
431.22	300.46
431.59	304.08
431.96	307.41
432.33	311.19
432.70	314.84
433.08	319.07
433.45	323.11
433.82	327.07
434.19	331.52
434.56	335.92
434.93	340.10
435.30	344.25
435.68	348.81
436.05	353.29
436.42	357.75
436.79	361.70
437.16	366.04
437.53	370.67
437.90	375.35
438.27	379.88
438.64	384.54
439.01	388.88
439.38	392.65
439.75	396.36
440.13	400.65
440.50	404.71
440.87	407.95
441.24	411.21
441.61	414.94
441.98	417.52
442.35	420.56
442.72	423.88
443.09	427.03
443.46	428.77
443.83	429.95
444.20	430.99
444.57	432.66
444.94	433.42
445.31	434.18
445.68	434.90
446.05	435.18
446.42	434.64
446.79	434.00
447.16	433.30
447.53	432.77
447.90	430.90
448.27	429.05
448.64	426.59
449.01	424.83
449.37	421.91
449.74	419.03
450.11	415.62
450.48	411.66
450.85	407.70
451.22	404.48
451.59	401.33
451.96	398.33
452.33	394.24
452.70	390.53
453.07	386.08
453.43	381.54
453.80	377.10
454.17	372.96
454.54	369.14
454.91	364.96
455.28	360.94
455.65	357.14
456.02	353.42
456.38	350.21
456.75	346.19
457.12	342.71
457.49	339.52
457.86	336.23
458.23	333.54
458.59	330.53
458.96	327.41
459.33	324.70
459.70	321.93
460.07	319.75
460.43	317.34
460.80	315.10
461.17	313.15
461.54	311.05
461.91	309.18
462.27	307.16
462.64	305.48
463.01	303.65
463.38	301.94
463.74	300.00
464.11	298.35
464.48	297.01
464.85	295.56
465.21	294.35
465.58	293.14
465.95	291.57
466.32	290.40
466.68	289.29
467.05	288.05
467.42	286.96
467.78	285.72
468.15	284.55
468.52	283.68
468.88	282.50
469.25	281.60
469.62	280.81
469.98	279.92
470.35	279.13
470.72	278.37
471.08	277.49
471.45	276.94
471.82	276.37
472.18	275.70
472.55	275.21
472.92	274.51
473.28	274.05
473.65	273.69
474.02	273.13
474.38	272.77
474.75	272.57
475.11	272.26
475.48	272.15
475.85	272.10
476.21	271.89
476.58	271.87
476.94	271.94
477.31	271.93
477.67	271.98
478.04	272.14
478.41	272.36
478.77	272.82
479.14	273.01
479.50	273.26
479.87	273.69
480.23	274.19
480.60	274.70
480.96	275.16
481.33	275.79
481.69	276.44
482.06	277.10
482.42	277.75
482.79	278.50
483.15	279.32
483.52	280.16
483.88	281.25
484.25	282.31
484.61	283.29
484.98	284.36
485.34	285.63
485.71	286.94
486.07	288.33
486.44	289.60
486.80	291.13
487.17	292.77
487.53	294.41
487.90	296.08
488.26	298.07
488.62	300.11
488.99	302.16
489.35	304.39
489.72	306.73
490.08	309.24
490.44	311.75
490.81	314.52
491.17	317.29
491.54	320.17
491.90	323.12
492.26	326.35
492.63	329.60
492.99	333.02
493.36	336.63
493.72	340.31
494.08	344.37
494.45	348.70
494.81	353.13
495.17	357.79
495.54	362.71
495.90	367.71
496.26	372.77
496.63	378.29
496.99	383.90
497.35	389.75
497.72	395.88
498.08	402.23
498.44	408.72
498.80	415.69
499.17	422.92
499.53	430.39
499.89	438.17
500.26	446.14
500.62	454.35
500.98	463.03
501.34	472.02
501.71	481.14
502.07	490.29
502.43	499.95
502.79	509.90
503.16	520.18
503.52	530.63
503.88	541.41
504.24	552.43
504.60	563.94
504.97	575.82
505.33	587.83
505.69	600.51
506.05	613.27
506.41	626.28
506.78	639.36
507.14	652.83
507.50	666.55
507.86	680.85
508.22	695.38
508.59	709.93
508.95	724.94
509.31	740.20
509.67	755.89
510.03	771.83
510.39	788.07
510.75	804.73
511.12	821.61
511.48	838.83
511.84	856.18
512.20	873.57
512.56	891.21
512.92	909.29
513.28	927.50
513.64	945.84
514.00	964.16
514.37	982.99
514.73	1002.15
515.09	1021.41
515.45	1040.37
515.81	1059.73
516.17	1079.26
516.53	1098.62
516.89	1118.14
517.25	1137.83
517.61	1157.60
517.97	1177.30
518.33	1196.51
518.69	1216.27
519.05	1236.23
519.41	1256.25
519.77	1276.51
520.13	1296.38
520.49	1316.11
520.85	1336.20
521.21	1356.31
521.57	1376.86
521.93	1396.40
522.29	1416.65
522.65	1436.79
523.01	1456.96
523.37	1476.60
523.73	1496.38
524.09	1516.14
524.45	1536.12
524.81	1556.02
525.17	1575.71
525.53	1595.39
525.89	1615.34
526.25	1634.54
526.61	1653.27
526.97	1672.21
527.33	1690.61
527.68	1709.45
528.04	1727.93
528.40	1745.44
528.76	1763.52
529.12	1781.25
529.48	1800.00
529.84	1817.54
530.20	1834.74
530.56	1852.15
530.91	1870.05
531.27	1887.39
531.63	1904.55
531.99	1921.15
532.35	1937.32
532.71	1953.46
533.07	1970.15
533.42	1985.67
533.78	2001.79
534.14	2017.23
534.50	2031.37
534.86	2046.37
535.21	2060.06
535.57	2074.80
535.93	2089.22
536.29	2102.88
536.65	2116.45
537.00	2129.06
537.36	2141.43
537.72	2153.82
538.08	2165.82
538.44	2177.82
538.79	2190.01
539.15	2202.01
539.51	2213.74
539.87	2225.90
540.22	2236.89
540.58	2248.20
540.94	2259.51
541.29	2269.39
541.65	2278.70
542.01	2289.00
542.37	2298.06
542.72	2307.78
543.08	2315.93
543.44	2325.02
543.79	2332.51
544.15	2340.38
544.51	2348.84
544.87	2357.11
545.22	2364.07
545.58	2370.64
545.94	2375.54
546.29	2379.83
546.65	2384.03
547.01	2387.98
547.36	2391.88
547.72	2395.90
548.07	2397.96
548.43	2400.12
548.79	2401.91
549.14	2404.91
549.50	2407.60
549.86	2409.64
550.21	2411.87
550.57	2414.25
550.92	2415.11
551.28	2416.57
551.64	2417.35
551.99	2417.95
552.35	2418.15
552.70	2419.48
553.06	2420.61
553.41	2422.31
553.77	2424.30
554.13	2424.75
554.48	2425.56
554.84	2425.35
555.19	2424.49
555.55	2424.16
555.90	2423.45
556.26	2423.00
556.61	2421.39
556.97	2419.00
557.32	2417.69
557.68	2415.06
558.03	2412.58
558.39	2410.33
558.74	2408.84
559.10	2406.84
559.45	2404.38
559.81	2402.30
560.16	2398.67
560.52	2395.25
560.87	2391.95
561.23	2386.81
561.58	2383.89
561.94	2380.04
562.29	2375.77
562.64	2372.83
563.00	2369.76
563.35	2366.97
563.71	2364.68
564.06	2362.21
564.42	2360.00
564.77	2356.90
565.12	2354.65
565.48	2351.21
565.83	2347.96
566.19	2344.04
566.54	2339.66
566.89	2335.19
567.25	2330.91
567.60	2327.41
567.96	2323.84
568.31	2319.88
568.66	2316.08
569.02	2311.68
569.37	2306.83
569.72	2303.05
570.08	2298.00
570.43	2292.30
570.78	2286.55
571.14	2280.24
571.49	2274.10
571.84	2268.17
572.20	2261.95
572.55	2255.69
572.90	2249.41
573.26	2242.79
573.61	2236.22
573.96	2230.35
574.31	2223.41
574.67	2216.29
575.02	2208.65
575.37	2200.94
575.72	2192.66
576.08	2186.10
576.43	2178.01
576.78	2170.74
577.13	2163.51
577.49	2156.51
577.84	2149.61
578.19	2142.82
578.54	2136.40
578.90	2130.26
579.25	2122.87
579.60	2114.99
579.95	2106.72
580.30	2099.68
580.66	2092.65
581.01	2085.04
581.36	2076.51
581.71	2069.32
582.06	2061.75
582.42	2054.66
582.77	2046.42
583.12	2038.80
583.47	2031.09
583.82	2024.18
584.17	2016.36
584.53	2008.30
584.88	2000.45
585.23	1992.63
585.58	1984.48
585.93	1976.23
586.28	1968.05
586.63	1960.33
586.98	1953.35
587.34	1946.06
587.69	1938.25
588.04	1930.43
588.39	1923.25
588.74	1915.80
589.09	1908.19
589.44	1900.05
589.79	1892.42
590.14	1886.03
590.49	1878.85
590.84	1871.27
591.19	1864.52
591.54	1857.19
591.89	1848.65
592.25	1840.69
592.60	1832.74
592.95	1824.77
593.30	1816.56
593.65	1808.45
594.00	1800.16
594.35	1792.99
594.70	1785.63
595.05	1778.29
595.40	1770.55
595.75	1762.19
596.10	1755.37
596.45	1748.31
596.80	1741.72
597.15	1734.82
597.50	1726.91
597.85	1719.91
598.19	1712.65
598.54	1704.94
598.89	1698.03
599.24	1692.51
599.59	1686.32
599.94	1680.44
600.29	1674.06
600.64	1667.43
600.99	1660.19
601.34	1654.28
601.69	1646.81
602.04	1639.51
602.39	1632.56
602.74	1626.12
603.08	1620.81
603.43	1614.61
603.78	1607.52
604.13	1600.79
604.48	1594.01
604.83	1588.35
605.18	1582.24
605.53	1575.57
605.87	1568.96
606.22	1563.08
606.57	1556.23
606.92	1549.31
607.27	1542.20
607.62	1535.84
607.96	1529.91
608.31	1524.73
608.66	1518.02
609.01	1511.58
609.36	1505.31
609.70	1498.34
610.05	1491.75
610.40	1484.61
610.75	1477.16
611.10	1470.87
611.44	1463.16
611.79	1455.47
612.14	1447.42
612.49	1439.29
612.83	1431.90
613.18	1423.78
613.53	1415.73
613.88	1407.47
614.22	1399.98
614.57	1392.23
614.92	1384.30
615.27	1376.70
615.61	1368.57
615.96	1360.93
616.31	1353.72
616.65	1346.81
617.00	1339.94
617.35	1332.86
617.70	1325.33
618.04	1317.90
618.39	1309.90
618.74	1302.94
619.08	1295.55
619.43	1288.49
619.78	1281.83
620.12	1275.11
620.47	1268.47
620.82	1261.28
621.16	1254.14
621.51	1247.13
621.85	1240.17
622.20	1233.09
622.55	1225.46
622.89	1218.26
623.24	1211.65
623.59	1204.39
623.93	1197.14
624.28	1189.94
624.62	1182.75
624.97	1175.74
625.32	1169.02
625.66	1162.71
626.01	1156.31
626.35	1150.19
626.70	1143.62
627.04	1137.35
627.39	1130.81
627.73	1124.52
628.08	1118.65
628.43	1112.57
628.77	1106.24
629.12	1099.87
629.46	1094.04
629.81	1088.07
630.15	1081.97
630.50	1075.31
630.84	1069.03
631.19	1063.18
631.53	1057.37
631.88	1050.95
632.22	1044.60
632.57	1038.69
632.91	1032.26
633.26	1025.97
633.60	1019.85
633.95	1014.12
634.29	1007.88
634.64	1002.25
634.98	996.30
635.32	990.15
635.67	984.80
636.01	978.96
636.36	973.17
636.70	967.52
637.05	962.08
637.39	956.49
637.73	951.18
638.08	946.18
638.42	940.98
638.77	935.53
639.11	930.10
639.45	924.89
639.80	919.31
640.14	913.93
640.49	908.59
640.83	903.32
641.17	897.68
641.52	892.50
641.86	886.92
642.20	881.59
642.55	875.83
642.89	869.97
643.23	864.60
643.58	859.54
643.92	854.02
644.26	848.51
644.61	843.21
644.95	837.87
645.29	832.49
645.64	826.60
645.98	821.15
646.32	816.32
646.66	811.00
647.01	805.82
647.35	800.71
647.69	795.30
648.04	790.12
648.38	785.00
648.72	779.77
649.06	774.35
649.41	769.03
649.75	764.14
650.09	759.20
650.43	754.02
650.78	748.60
651.12	743.26
651.46	738.21
651.80	733.11
652.14	728.09
652.49	723.04
652.83	718.10
653.17	712.87
653.51	707.63
653.85	702.78
654.20	697.67
654.54	692.63
654.88	688.02
655.22	682.97
655.56	678.00
655.90	672.91
656.25	668.12
656.59	663.49
656.93	659.01
657.27	654.49
657.61	649.80
657.95	645.34
658.29	641.06
658.64	636.69
658.98	632.33
659.32	627.72
659.66	623.25
660.00	618.73
660.34	614.32
660.68	609.80
661.02	605.47
661.36	601.42
661.70	597.34
662.05	593.03
662.39	589.13
662.73	585.38
663.07	581.68
663.41	578.03
663.75	574.14
664.09	569.95
664.43	565.88
664.77	562.17
665.11	558.36
665.45	554.51
665.79	550.83
666.13	546.91
666.47	543.18
666.81	539.42
667.15	535.85
667.49	532.61
667.83	529.29
668.17	525.96
668.51	522.72
668.85	519.63
669.19	516.60
669.53	513.35
669.87	509.85
670.21	506.57
670.55	503.15
670.89	500.12
671.23	497.36
671.57	494.57
671.91	491.43
672.25	488.40
672.58	485.36
672.92	482.28
673.26	479.64
673.60	476.97
673.94	474.21
674.28	471.34
674.62	468.64
674.96	465.91
675.30	463.14
675.64	460.24
675.97	457.29
676.31	454.46
676.65	452.02
676.99	449.70
677.33	447.00
677.67	444.45
678.01	441.64
678.34	439.01
678.68	436.52
679.02	433.93
679.36	431.55
679.70	429.17
680.04	426.68
680.37	424.04
680.71	421.64
681.05	419.22
681.39	417.11
681.73	414.75
682.06	412.47
682.40	410.28
682.74	408.06
683.08	406.03
683.42	403.81
683.75	401.48
684.09	399.13
684.43	397.10
684.77	394.82
685.10	392.80
685.44	390.60
685.78	388.38
686.12	386.48
686.45	384.40
686.79	382.39
687.13	380.50
687.46	378.69
687.80	376.70
688.14	374.75
688.48	372.81
688.81	370.83
689.15	368.93
689.49	367.01
689.82	365.07
690.16	362.93
690.50	360.99
690.83	359.01
691.17	357.15
691.51	355.23
691.84	353.53
692.18	351.72
692.52	350.03
692.85	348.32
693.19	346.75
693.52	345.10
693.86	343.35
694.20	341.79
694.53	340.21
694.87	338.56
695.21	337.02
695.54	335.42
695.88	333.71
696.21	332.13
696.55	330.67
696.88	329.25
697.22	327.86
697.56	326.65
697.89	325.19
698.23	323.80
698.56	322.40
698.90	321.18
699.23	319.77
699.57	318.39
699.90	316.97
700.24	315.47
700.58	314.10
700.91	312.90
701.25	311.61
701.58	310.29
701.92	309.11
702.25	307.83
702.59	306.56
702.92	305.46
703.26	304.26
703.59	303.08
703.93	302.09
704.26	301.00
704.60	299.75
704.93	298.73
705.26	297.62
705.60	296.51
705.93	295.42
706.27	294.50
706.60	293.56
706.94	292.78
707.27	291.84
707.61	290.86
707.94	289.85
708.27	288.81
708.61	287.85
708.94	286.85
709.28	285.93
709.61	284.99
709.94	284.08
710.28	283.21
710.61	282.26
710.95	281.11
711.28	280.32
711.61	279.46
711.95	278.72
712.28	277.92
712.61	277.15
712.95	276.33
713.28	275.59
713.61	274.75
713.95	273.79
714.28	273.00
714.61	272.22
714.95	271.42
715.28	270.64
715.61	269.86
715.95	269.18
716.28	268.36
716.61	267.63
716.95	266.92
717.28	266.25
717.61	265.53
717.94	264.96
718.28	264.12
718.61	263.47
718.94	262.76
719.27	262.08
719.61	261.44
719.94	260.70
720.27	259.99
720.60	259.37
720.94	258.77
721.27	258.14
721.60	257.56
721.93	257.08
722.27	256.57
722.60	256.06
722.93	255.46
723.26	255.10
723.59	254.58
723.93	254.05
724.26	253.44
724.59	253.05
724.92	252.58
725.25	252.15
725.59	251.66
725.92	251.19
726.25	250.71
726.58	250.35
726.91	249.92
727.24	249.47
727.57	249.05
727.91	248.57
728.24	248.19
728.57	247.84
728.90	247.46
729.23	247.01
729.56	246.74
729.89	246.32
730.22	245.81
730.55	245.45
730.89	245.07
731.22	244.74
731.55	244.35
731.88	243.92
732.21	243.55
732.54	243.13
732.87	242.71
733.20	242.40
733.53	241.96
733.86	241.60
734.19	241.28
734.52	241.00
734.85	240.88
735.18	240.53
735.51	240.17
735.84	239.75
736.17	239.48
736.50	238.98
736.83	238.87
737.16	238.59
737.49	238.25
737.82	237.93
738.15	237.62
738.48	237.23
738.81	236.96
739.14	236.68
739.47	236.45
739.80	236.16
740.13	235.85
740.46	235.56
740.79	235.24
741.12	234.95
741.45	234.57
741.78	234.23
742.11	234.02
742.44	233.67
742.77	233.52
743.10	233.21
743.43	233.04
743.75	232.62
744.08	232.59
744.41	232.34
744.74	232.14
745.07	231.83
745.40	231.68
745.73	231.55
746.06	231.40
746.39	231.17
746.71	230.97
747.04	230.77
747.37	230.59
747.70	230.36
748.03	230.13
748.36	229.96
748.68	229.65
749.01	229.42
749.34	229.32
749.67	229.06
750.00	228.86
750.33	228.72
750.65	228.50
750.98	228.10
751.31	227.92
751.64	227.72
751.97	227.67
752.29	227.43
752.62	227.14
752.95	226.84
753.28	226.58
753.60	226.40
753.93	226.24
754.26	226.02
754.59	225.85
754.91	225.67
755.24	225.46
755.57	225.32
755.90	225.06
756.22	224.88
756.55	224.65
756.88	224.46
757.20	224.17
757.53	224.00
757.86	223.87
758.19	223.73
758.51	223.53
758.84	223.33
759.17	223.12
759.49	222.97
759.82	222.95
760.15	222.87
760.47	222.71
760.80	222.49
761.13	222.44
761.45	222.29
761.78	222.12
762.11	221.96
762.43	221.80
762.76	221.70
763.08	221.61
763.41	221.53
763.74	221.44
764.06	221.34
764.39	221.22
764.71	221.11
765.04	220.97
765.37	220.85
765.69	220.65
766.02	220.60
766.34	220.49
766.67	220.25
767.00	220.16
767.32	220.13
767.65	220.17
767.97	219.98
768.30	219.89
768.62	219.79
768.95	219.75
769.27	219.67
769.60	219.63
769.92	219.50
770.25	219.40
770.57	219.28
770.90	219.19
771.22	219.10
771.55	218.95
771.87	218.89
772.20	218.77
772.52	218.86
772.85	219.02
773.17	218.92
773.50	218.84
773.82	218.70
774.15	218.56
774.47	218.41
774.80	218.35
775.12	218.34
775.45	218.27
775.77	218.18
776.09	218.13
776.42	218.03
776.74	217.96
777.07	217.90
777.39	217.77
777.72	217.67
778.04	217.63
778.36	217.57
778.69	217.53
779.01	217.54
779.33	217.39
779.66	217.10
779.98	217.08
780.31	217.09
780.63	217.14
780.95	217.10
781.28	216.99
781.60	216.94
781.92	216.77
782.25	216.78
782.57	216.72
782.89	216.62
783.22	216.55
783.54	216.51
783.86	216.51
784.19	216.53
784.51	216.49
784.83	216.34
785.16	216.26
785.48	216.15
785.80	216.07
786.12	216.05
786.45	215.96
786.77	215.80
787.09	215.74
787.42	215.63
787.74	215.59
788.06	215.51
788.38	215.43
788.71	215.40
789.03	215.29
789.35	215.35
789.67	215.31
789.99	215.25
790.32	215.16
790.64	215.14
790.96	215.17
791.28	215.12
791.61	215.10
791.93	215.11
792.25	215.05
792.57	215.10
792.89	214.97
793.21	214.97
793.54	215.05
793.86	214.99
794.18	214.95
794.50	214.83
794.82	214.87
795.14	214.85
795.47	214.85
795.79	214.75
796.11	214.51
796.43	214.49
796.75	214.46
797.07	214.46
797.39	214.38
797.71	214.23
798.04	214.22
798.36	214.16
798.68	214.18
799.00	214.23
799.32	214.11
799.64	214.12
799.96	214.11
800.28	214.07
800.60	214.04
800.92	214.00
801.24	214.03
801.56	214.00
801.89	213.94
802.21	213.90
802.53	213.85
802.85	213.96
803.17	214.00
803.49	213.91
803.81	213.84
804.13	213.76
804.45	213.71
804.77	213.66
805.09	213.69
805.41	213.64
805.73	213.54
806.05	213.57
806.37	213.53
806.69	213.49
807.01	213.44
807.33	213.35
807.65	213.33
807.97	213.35
808.28	213.29
808.60	213.30
808.92	213.30
809.24	213.45
809.56	213.38
809.88	213.20
810.20	213.25
810.52	213.18
810.84	213.21
811.16	213.16
811.48	213.19
811.80	213.14
812.12	213.09
812.43	213.09
812.75	213.09
813.07	213.05
813.39	212.94
813.71	212.91
814.03	212.91
814.35	212.87
814.67	212.84
814.98	212.87
815.30	212.80
815.62	212.73
815.94	212.64
816.26	212.65
816.58	212.71
816.89	212.62
817.21	212.63
817.53	212.57
817.85	212.55
818.17	212.50
818.48	212.50
818.80	212.50
819.12	212.45
819.44	212.35
819.76	212.23
820.07	212.25
820.39	212.27
820.71	212.33
821.03	212.27
821.34	212.21
821.66	212.17
821.98	212.22
822.30	212.30
822.61	212.33
822.93	212.28
823.25	212.25
823.57	212.31
823.88	212.33
824.20	212.35
824.52	212.46
824.83	212.46
825.15	212.51
825.47	212.47
825.79	212.55
826.10	212.57
826.42	212.61
826.74	212.65
827.05	212.65
827.37	212.62
827.69	212.62
828.00	212.65
828.32	212.62
828.64	212.57
828.95	212.53
829.27	212.45
829.58	212.48
829.90	212.48
830.22	212.48
830.53	212.45
830.85	212.39
831.17	212.31
831.48	212.28
831.80	212.15
832.11	212.21
832.43	212.15
832.75	212.12
833.06	212.31
833.38	212.33
833.69	212.24
834.01	212.25
834.32	212.20
834.64	212.12
834.96	212.20
835.27	212.16
835.59	212.12
835.90	212.09
836.22	212.12
836.53	212.08
836.85	212.03
837.16	212.25
837.48	212.34
837.79	212.36
838.11	212.36
838.42	212.43
838.74	212.38
839.05	212.43
839.37	212.35
839.68	212.16
840.00	212.10
840.31	212.12
840.63	212.17
840.94	212.16
841.26	212.23
841.57	212.13
841.88	212.24
842.20	212.22
842.51	212.22
842.83	212.19
843.14	212.26
843.46	212.23
843.77	212.11
844.08	212.05
844.40	212.03
844.71	212.02
845.03	212.00
845.34	212.02
845.65	211.94
845.97	212.01
846.28	212.00
846.60	211.97
846.91	211.96
847.22	211.86
847.54	211.90
847.85	211.85
848.16	211.79
848.48	211.69
848.79	211.74
849.10	211.71
849.42	211.71
849.73	211.64
850.04	211.64
850.36	211.54
850.67	211.54
850.98	211.55
851.30	211.53
851.61	211.44
851.92	211.39
852.23	211.37
852.55	211.36
852.86	211.41
853.17	211.47
853.49	211.53
853.80	211.59
854.11	211.61
854.42	211.58
854.74	211.64
855.05	211.64
855.36	211.55
855.67	211.63
855.99	211.60
856.30	211.82
856.61	211.83
856.92	211.90
857.23	211.83
857.55	211.79
857.86	211.76
858.17	211.82
858.48	211.80
858.79	211.81
859.11	211.79
859.42	211.69
859.73	211.63
860.04	211.60
860.35	211.54
860.66	211.47
860.98	211.52
861.29	211.47
861.60	211.55
861.91	211.63
862.22	211.51
862.53	211.48
862.84	211.28
863.16	211.30
863.47	211.24
863.78	211.30
864.09	211.31
864.40	211.34
864.71	211.34
865.02	211.37
865.33	211.36
865.64	211.32
865.95	211.44
866.27	211.59
866.58	211.53
866.89	211.59
867.20	211.61
867.51	211.54
867.82	211.58
868.13	211.58
868.44	211.47
868.75	211.52
869.06	211.56
869.37	211.55
869.68	211.50
869.99	211.50
870.30	211.52
870.61	211.54
870.92	211.54
871.23	211.53
871.54	211.55
871.85	211.55
872.16	211.57
872.47	211.57
872.78	211.41
873.09	211.48
873.40	211.38
873.71	211.42
874.02	211.50
874.33	211.50
874.64	211.49
874.95	211.56
875.26	211.59
875.56	211.57
875.87	211.60
876.18	211.55
876.49	211.70
876.80	211.68
877.11	211.72
877.42	211.75
877.73	211.79
878.04	211.79
878.35	211.88
878.66	211.93
878.96	211.85
879.27	211.89
879.58	211.87
879.89	211.92
880.20	211.96
880.51	211.90
880.82	211.85
881.12	211.83
881.43	211.81
881.74	211.74
882.05	211.74
882.36	211.68
882.67	211.76
882.97	211.58
883.28	211.63
883.59	211.49
883.90	211.47
884.21	211.45
884.51	211.42
884.82	211.32
885.13	211.33
885.44	211.36
885.74	211.35
886.05	211.34
886.36	211.33
886.67	211.30
886.98	211.38
887.28	211.44
887.59	211.40
887.90	211.51
888.20	211.50
888.51	211.55
888.82	211.56
889.13	211.57
889.43	211.77
889.74	211.68
890.05	211.73
890.35	211.68
890.66	211.62
890.97	211.63
891.28	211.62
891.58	211.58
891.89	211.53
892.20	211.46
892.50	211.47
892.81	211.45
893.12	211.41
893.42	211.36
893.73	211.34
894.04	211.34
894.34	211.27
894.65	211.29
894.95	211.22
895.26	211.21
895.57	211.30
895.87	211.10
896.18	211.15
896.48	211.20
896.79	211.25
897.10	211.33
897.40	211.27
897.71	211.31
898.01	211.28
898.32	211.28
898.63	211.33
898.93	211.31
899.24	211.33
899.54	211.34
899.85	211.28
900.15	211.34
900.46	211.42
900.76	211.40
901.07	211.43
901.38	211.46
901.68	211.51
901.99	211.36
902.29	211.37
902.60	211.36
902.90	211.32
903.21	211.33
903.51	211.31
903.82	211.42
904.12	211.48
904.43	211.59
904.73	211.66
905.03	211.69
905.34	211.86
905.64	211.80
905.95	211.79
906.25	211.81
906.56	211.79
906.86	211.67
907.17	211.70
907.47	211.73
907.77	211.69
908.08	211.61
908.38	211.58
908.69	211.60
908.99	211.64
909.30	211.58
909.60	211.54
909.90	211.55
910.21	211.49
910.51	211.45
910.81	211.37
911.12	211.36
911.42	211.35
911.73	211.14
912.03	211.21
912.33	211.27
912.64	211.19
912.94	211.10
913.24	211.13
913.55	211.06
913.85	211.08
914.15	211.10
914.46	211.12
914.76	211.13
915.06	211.15
915.37	211.16
915.67	211.21
915.97	211.26
916.27	211.23
916.58	211.21
916.88	211.10
917.18	211.14
917.49	211.29
917.79	211.25
918.09	211.37
918.39	211.41
918.70	211.41
919.00	211.54
919.30	211.67
919.60	211.63
919.91	211.69
920.21	211.64
920.51	211.61
920.81	211.60
921.12	211.64
921.42	211.60
921.72	211.48
922.02	211.48
922.32	211.46
922.63	211.45
922.93	211.51
923.23	211.55
923.53	211.46
923.83	211.29
924.13	211.25
924.44	211.23
924.74	211.20
925.04	211.27
925.34	211.24
925.64	211.18
925.94	211.16
926.24	211.24
926.55	211.16
926.85	211.23
927.15	211.30
927.45	211.35
927.75	211.31
928.05	211.37
928.35	211.34
928.65	211.39
928.95	211.41
929.26	211.38
929.56	211.45
929.86	211.51
930.16	211.45
930.46	211.48
930.76	211.51
931.06	211.47
931.36	211.36
931.66	211.39
931.96	211.34
932.26	211.36
932.56	211.23
932.86	211.23
933.16	211.20
933.46	211.10
933.76	211.02
934.06	211.13
934.36	211.22
934.66	211.27
934.96	211.23
935.26	211.23
935.56	211.25
935.86	211.20
936.16	211.17
936.46	211.22
936.76	211.17
937.06	211.08
937.36	211.08
937.66	211.08
937.96	211.04
938.26	211.04
938.56	211.01
938.86	211.08
939.16	211.09
939.46	211.10
939.76	211.15
940.06	211.21
940.35	211.14
940.65	211.03
940.95	211.00
941.25	210.95
941.55	210.95
941.85	210.93
942.15	210.91
942.45	211.00
942.75	211.01
943.04	211.05
943.34	211.03
943.64	211.06
943.94	211.02
944.24	211.01
944.54	210.94
944.84	210.98
945.13	210.86
945.43	210.90
945.73	210.77
946.03	210.76
946.33	210.73
946.62	210.75
946.92	210.71
947.22	210.77
947.52	210.72
947.82	210.78
948.11	210.72
948.41	210.71
948.71	210.60
949.01	210.53
949.31	210.51
949.60	210.56
949.90	210.50
950.20	210.50
950.50	210.47
950.79	210.46
951.09	210.46
951.39	210.50
951.69	210.47
951.98	210.60
952.28	210.59
952.58	210.57
952.87	210.50
953.17	210.51
953.47	210.40
953.76	210.45
954.06	210.40
954.36	210.38
954.66	210.42
954.95	210.49
955.25	210.59
955.55	210.61
955.84	210.62
956.14	210.64
956.44	210.69
956.73	210.74
957.03	210.80
957.32	210.81
957.62	210.81
957.92	210.86
958.21	210.79
958.51	210.94
958.81	210.97
959.10	211.08
959.40	211.16
959.69	211.24
959.99	211.21
960.29	211.17
960.58	211.21
960.88	211.24
961.17	211.20
961.47	211.15
961.76	211.17
962.06	211.19
962.36	211.11
962.65	211.13
962.95	211.08
963.24	211.06
963.54	211.06
963.83	211.05
964.13	211.07
964.42	211.07
964.72	210.99
965.01	210.94
965.31	210.87
965.60	210.87
965.90	210.95
966.19	210.92
966.49	210.97
966.78	210.93
967.08	210.98
967.37	211.00
967.67	210.99
967.96	210.97
968.26	210.91
968.55	210.98
968.85	210.94
969.14	210.97
969.43	210.97
969.73	210.99
970.02	210.97
970.32	210.93
970.61	210.95
970.91	210.88
971.20	210.86
971.49	210.84
971.79	210.80
972.08	210.70
972.38	210.77
972.67	210.65
972.96	210.73
973.26	210.61
973.55	210.61
973.85	210.65
974.14	210.65
974.43	210.64
974.73	210.62
975.02	210.63
975.31	210.66
975.61	210.64
975.90	210.67
976.19	210.72
976.49	210.73
976.78	210.67
977.07	210.65
977.37	210.72
977.66	210.78
977.95	210.76
978.24	210.74
978.54	210.78
978.83	210.87
979.12	210.88
979.42	210.89
979.71	210.87
980.00	210.86
980.29	210.84
980.59	210.86
980.88	210.88
981.17	210.90
981.46	210.85
981.76	210.81
982.05	210.75
982.34	210.79
982.63	210.82
982.93	210.92
983.22	210.95
983.51	210.86
983.80	210.87
984.09	210.94
984.39	211.00
984.68	210.93
984.97	210.95
985.26	210.88
985.55	210.93
985.85	210.95
986.14	210.98
986.43	211.05
986.72	211.06
987.01	211.05
987.30	211.04
987.59	210.99
987.89	211.06
988.18	211.07
988.47	211.00
988.76	210.98
989.05	210.96
989.34	211.07
989.63	211.14
989.92	211.10
990.22	211.07
990.51	211.02
990.80	211.10
991.09	211.08
991.38	211.11
991.67	211.09
991.96	211.06
992.25	211.04
992.54	210.95
992.83	210.92
993.12	210.91
993.41	210.99
993.70	211.15
993.99	211.21
994.28	211.27
994.58	211.34
994.87	211.29
995.16	211.30
995.45	211.26
995.74	211.23
996.03	211.27
996.32	211.25
996.61	211.28
996.90	211.20
997.19	211.16
997.48	211.15
997.77	211.16
998.06	211.05
998.34	211.05
998.63	211.10
998.92	211.10
999.21	211.14
999.50	211.07
999.79	210.96
1000.08	210.99
1000.37	210.97
1000.66	210.94
1000.95	211.01
1001.24	210.99
1001.53	210.99
1001.82	211.00
1002.11	211.00
1002.40	211.09
1002.68	211.12
1002.97	211.26
1003.26	211.23
1003.55	211.19
1003.84	211.16
1004.13	211.34
1004.42	211.27
1004.71	211.20
1004.99	211.25
1005.28	211.23
1005.57	211.27
1005.86	211.27
1006.15	211.20
1006.44	211.24
1006.72	211.20
1007.01	211.19
1007.30	211.15
1007.59	211.06
1007.88	211.06
1008.17	211.04
1008.45	210.89
1008.74	210.82
1009.03	210.77
1009.32	210.78
1009.60	210.78
1009.89	210.74
1010.18	210.68
1010.47	210.80
1010.76	210.85
1011.04	210.82
1011.33	210.87
1011.62	210.81
1011.91	210.84
1012.19	210.80
1012.48	210.70
1012.77	210.73
1013.05	210.79
1013.34	210.81
1013.63	210.90
1013.92	210.87
1014.20	210.84
1014.49	210.89
1014.78	210.92
1015.06	210.80
1015.35	210.81
1015.64	210.86
1015.92	210.88
1016.21	210.85
1016.50	210.73
1016.78	210.75
1017.07	210.75
1017.36	210.68
1017.64	210.70
1017.93	210.70
1018.22	210.73
1018.50	210.73
1018.79	210.75
1019.08	210.59
1019.36	210.57
1019.65	210.47
1019.93	210.48
1020.22	210.56
1020.51	210.64
1020.79	210.54
1021.08	210.65
1021.36	210.15
1021.65	211.15
1021.94	209.25
1022.22	210.30
1022.51	209.60
1022.79	210.80
1023.08	211.80
1023.36	212.75
1023.65	209.25
>>>>>End Processed Spectral Data<<<<<
