SpectraSuite Data File
++++++++++++++++++++++++++++++++++++
Date: Mon Feb 25 17:36:39 EST 2013
User: group
Dark Spectrum Present: No
Reference Spectrum Present: No
Number of Sampled Component Spectra: 1
Spectrometers: USB2E7196
Integration Time (usec): 52000 (USB2E7196)
Spectra Averaged: 20 (USB2E7196)
Boxcar Smoothing: 10 (USB2E7196)
Correct for Electrical Dark: No (USB2E7196)
Strobe/Lamp Enabled: No (USB2E7196)
Correct for Detector Non-linearity: No (USB2E7196)
Correct for Stray Light: No (USB2E7196)
Number of Pixels in Processed Spectrum: 2048
>>>>>Begin Processed Spectral Data<<<<<
339.09	0.00
339.48	198.90
339.86	200.70
340.24	202.25
340.63	202.55
341.01	206.50
341.39	206.10
341.78	206.85
342.16	208.25
342.54	209.30
342.93	198.30
343.31	208.30
343.69	208.83
344.07	209.25
344.46	209.70
344.84	210.23
345.22	210.52
345.60	210.87
345.99	211.17
346.37	211.41
346.75	211.55
347.13	211.76
347.52	211.90
347.90	212.19
348.28	212.33
348.66	212.45
349.05	212.53
349.43	212.65
349.81	212.82
350.19	212.90
350.57	213.11
350.96	213.19
351.34	213.38
351.72	213.57
352.10	213.82
352.48	213.94
352.87	214.02
353.25	214.12
353.63	214.15
354.01	214.23
354.39	214.28
354.77	214.37
355.15	214.47
355.54	214.58
355.92	214.55
356.30	214.69
356.68	214.79
357.06	214.86
357.44	214.99
357.82	215.02
358.20	215.09
358.58	215.17
358.97	215.25
359.35	215.35
359.73	215.43
360.11	215.39
360.49	215.44
360.87	215.43
361.25	215.51
361.63	215.63
362.01	215.75
362.39	215.81
362.77	215.89
363.15	215.87
363.53	215.85
363.91	215.85
364.29	215.85
364.67	215.73
365.05	215.78
365.43	215.81
365.81	215.93
366.19	216.03
366.57	216.07
366.95	216.11
367.33	216.12
367.71	216.16
368.09	216.26
368.47	216.25
368.85	216.24
369.23	216.20
369.61	216.14
369.99	216.12
370.37	216.18
370.75	216.34
371.13	216.28
371.51	216.23
371.89	216.18
372.27	216.12
372.65	216.17
373.03	216.13
373.41	216.06
373.78	215.95
374.16	215.93
374.54	215.83
374.92	215.79
375.30	215.72
375.68	215.65
376.06	215.69
376.44	215.64
376.82	215.63
377.19	215.65
377.57	215.61
377.95	215.50
378.33	215.41
378.71	215.19
379.09	215.15
379.47	215.24
379.84	215.27
380.22	215.20
380.60	215.10
380.98	215.09
381.36	215.02
381.73	214.99
382.11	214.94
382.49	214.91
382.87	214.80
383.25	214.80
383.62	214.93
384.00	214.85
384.38	214.90
384.76	214.95
385.13	214.98
385.51	214.99
385.89	214.98
386.27	214.99
386.64	215.03
387.02	215.06
387.40	215.03
387.78	215.05
388.15	215.06
388.53	215.11
388.91	215.10
389.29	215.13
389.66	215.13
390.04	215.07
390.42	215.15
390.79	215.17
391.17	215.15
391.55	215.03
391.92	215.10
392.30	215.17
392.68	215.21
393.05	215.21
393.43	215.29
393.81	215.36
394.18	215.38
394.56	215.35
394.94	215.42
395.31	215.46
395.69	215.60
396.06	215.76
396.44	215.79
396.82	215.92
397.19	216.14
397.57	216.32
397.95	216.49
398.32	216.58
398.70	216.85
399.07	217.09
399.45	217.26
399.82	217.39
400.20	217.60
400.58	217.79
400.95	217.97
401.33	218.25
401.70	218.70
402.08	219.00
402.45	219.41
402.83	219.90
403.20	220.32
403.58	220.70
403.95	221.20
404.33	221.83
404.71	222.37
405.08	223.05
405.46	223.77
405.83	224.56
406.21	225.31
406.58	226.16
406.96	227.09
407.33	228.15
407.70	229.30
408.08	230.65
408.45	232.07
408.83	233.52
409.20	234.93
409.58	236.39
409.95	238.24
410.33	240.15
410.70	242.05
411.08	244.20
411.45	246.47
411.82	248.85
412.20	251.42
412.57	254.40
412.95	257.22
413.32	260.36
413.69	263.80
414.07	267.41
414.44	271.39
414.82	275.42
415.19	279.99
415.56	284.79
415.94	289.91
416.31	295.54
416.68	301.20
417.06	307.67
417.43	313.80
417.81	320.84
418.18	328.09
418.55	336.04
418.93	344.31
419.30	353.02
419.67	362.16
420.04	371.86
420.42	381.93
420.79	393.11
421.16	404.85
421.54	416.46
421.91	428.95
422.28	441.90
422.66	455.93
423.03	469.28
423.40	483.58
423.77	498.69
424.15	514.24
424.52	530.52
424.89	548.14
425.26	565.46
425.64	581.95
426.01	600.37
426.38	619.53
426.75	638.97
427.13	659.22
427.50	680.69
427.87	703.12
428.24	725.72
428.61	747.89
428.99	771.18
429.36	797.40
429.73	822.63
430.10	848.00
430.47	873.97
430.85	901.79
431.22	930.50
431.59	960.67
431.96	990.28
432.33	1023.22
432.70	1055.08
433.08	1092.54
433.45	1127.88
433.82	1163.03
434.19	1201.85
434.56	1240.01
434.93	1277.41
435.30	1314.46
435.68	1355.41
436.05	1396.18
436.42	1436.98
436.79	1474.69
437.16	1515.51
437.53	1558.88
437.90	1601.69
438.27	1644.10
438.64	1688.22
439.01	1729.26
439.38	1767.06
439.75	1802.92
440.13	1843.44
440.50	1882.03
440.87	1913.86
441.24	1947.62
441.61	1984.56
441.98	2013.06
442.35	2045.80
442.72	2078.20
443.09	2109.78
443.46	2130.83
443.83	2146.19
444.20	2160.25
444.57	2178.97
444.94	2189.73
445.31	2200.64
445.68	2210.03
446.05	2216.95
446.42	2216.52
446.79	2215.25
447.16	2213.46
447.53	2213.29
447.90	2201.84
448.27	2190.37
448.64	2172.85
449.01	2160.37
449.37	2135.59
449.74	2112.15
450.11	2082.56
450.48	2051.45
450.85	2019.63
451.22	1992.07
451.59	1965.66
451.96	1940.27
452.33	1905.21
452.70	1873.52
453.07	1835.63
453.43	1797.73
453.80	1760.04
454.17	1724.19
454.54	1690.66
454.91	1653.94
455.28	1618.00
455.65	1584.60
456.02	1549.10
456.38	1520.13
456.75	1483.93
457.12	1454.25
457.49	1424.37
457.86	1396.45
458.23	1370.85
458.59	1343.00
458.96	1315.13
459.33	1290.63
459.70	1265.42
460.07	1245.83
460.43	1222.94
460.80	1200.89
461.17	1182.17
461.54	1162.56
461.91	1143.88
462.27	1124.70
462.64	1108.55
463.01	1090.42
463.38	1072.55
463.74	1057.12
464.11	1042.05
464.48	1028.94
464.85	1014.28
465.21	1002.82
465.58	990.57
465.95	976.39
466.32	964.50
466.68	952.39
467.05	940.22
467.42	928.57
467.78	916.06
468.15	904.62
468.52	896.28
468.88	885.15
469.25	875.14
469.62	866.70
469.98	857.88
470.35	849.78
470.72	842.22
471.08	834.31
471.45	826.74
471.82	819.25
472.18	811.26
472.55	805.70
472.92	799.32
473.28	793.61
473.65	788.05
474.02	782.49
474.38	777.94
474.75	774.00
475.11	769.84
475.48	766.57
475.85	763.71
476.21	760.70
476.58	758.32
476.94	756.63
477.31	754.38
477.67	752.24
478.04	750.53
478.41	749.51
478.77	748.68
479.14	747.79
479.50	747.62
479.87	748.21
480.23	748.68
480.60	748.71
480.96	748.95
481.33	750.24
481.69	751.72
482.06	752.60
482.42	753.39
482.79	754.68
483.15	757.35
483.52	760.56
483.88	763.39
484.25	766.48
484.61	769.44
484.98	772.85
485.34	777.07
485.71	781.61
486.07	786.50
486.44	791.42
486.80	796.98
487.17	802.90
487.53	809.22
487.90	816.08
488.26	823.24
488.62	831.06
488.99	838.81
489.35	846.59
489.72	855.78
490.08	865.58
490.44	875.34
490.81	885.02
491.17	894.75
491.54	905.56
491.90	916.15
492.26	927.67
492.63	939.83
492.99	952.23
493.36	964.94
493.72	978.24
494.08	991.93
494.45	1006.45
494.81	1021.70
495.17	1037.16
495.54	1053.02
495.90	1069.85
496.26	1086.71
496.63	1104.20
496.99	1122.13
497.35	1139.89
497.72	1158.21
498.08	1176.94
498.44	1195.71
498.80	1215.82
499.17	1235.79
499.53	1256.44
499.89	1277.42
500.26	1298.72
500.62	1319.76
500.98	1342.01
501.34	1364.01
501.71	1386.85
502.07	1409.44
502.43	1432.27
502.79	1455.24
503.16	1478.32
503.52	1501.42
503.88	1524.34
504.24	1547.43
504.60	1571.24
504.97	1595.59
505.33	1619.55
505.69	1644.91
506.05	1669.86
506.41	1694.26
506.78	1719.01
507.14	1743.65
507.50	1768.80
507.86	1793.52
508.22	1819.35
508.59	1844.19
508.95	1869.44
509.31	1894.74
509.67	1920.50
510.03	1945.45
510.39	1971.22
510.75	1996.20
511.12	2020.94
511.48	2045.71
511.84	2070.57
512.20	2094.79
512.56	2119.26
512.92	2143.84
513.28	2167.53
513.64	2191.53
514.00	2214.88
514.37	2238.09
514.73	2261.18
515.09	2283.23
515.45	2305.88
515.81	2328.10
516.17	2350.56
516.53	2372.35
516.89	2393.40
517.25	2413.10
517.61	2432.89
517.97	2451.99
518.33	2471.09
518.69	2490.47
519.05	2510.14
519.41	2529.33
519.77	2548.76
520.13	2567.32
520.49	2584.91
520.85	2602.54
521.21	2619.46
521.57	2637.50
521.93	2653.75
522.29	2671.26
522.65	2688.48
523.01	2704.85
523.37	2720.06
523.73	2735.40
524.09	2750.42
524.45	2765.09
524.81	2779.86
525.17	2795.37
525.53	2809.98
525.89	2825.30
526.25	2839.89
526.61	2852.54
526.97	2866.10
527.33	2878.54
527.68	2891.70
528.04	2905.23
528.40	2917.46
528.76	2930.26
529.12	2941.60
529.48	2954.13
529.84	2964.35
530.20	2975.70
530.56	2986.95
530.91	2998.56
531.27	3009.58
531.63	3019.90
531.99	3030.70
532.35	3041.13
532.71	3051.09
533.07	3062.45
533.42	3071.62
533.78	3081.97
534.14	3092.03
534.50	3100.52
534.86	3110.53
535.21	3117.94
535.57	3127.15
535.93	3135.44
536.29	3142.45
536.65	3151.07
537.00	3158.66
537.36	3167.05
537.72	3173.95
538.08	3181.15
538.44	3187.95
538.79	3194.43
539.15	3202.16
539.51	3209.13
539.87	3216.57
540.22	3223.02
540.58	3228.74
540.94	3235.34
541.29	3239.88
541.65	3243.37
542.01	3248.05
542.37	3251.54
542.72	3256.97
543.08	3260.03
543.44	3264.11
543.79	3267.56
544.15	3269.97
544.51	3273.69
544.87	3277.01
545.22	3279.59
545.58	3281.57
545.94	3283.61
546.29	3284.91
546.65	3285.40
547.01	3286.09
547.36	3287.02
547.72	3287.97
548.07	3287.46
548.43	3287.28
548.79	3287.23
549.14	3289.20
549.50	3290.46
549.86	3291.51
550.21	3290.85
550.57	3290.80
550.92	3290.12
551.28	3289.39
551.64	3288.98
551.99	3288.18
552.35	3287.52
552.70	3286.95
553.06	3286.08
553.41	3285.55
553.77	3285.36
554.13	3284.78
554.48	3285.19
554.84	3284.56
555.19	3282.81
555.55	3282.80
555.90	3282.15
556.26	3281.49
556.61	3280.48
556.97	3277.82
557.32	3274.98
557.68	3272.92
558.03	3270.44
558.39	3268.26
558.74	3268.84
559.10	3268.10
559.45	3267.20
559.81	3265.75
560.16	3264.33
560.52	3263.63
560.87	3261.65
561.23	3258.05
561.58	3255.34
561.94	3250.78
562.29	3246.11
562.64	3243.22
563.00	3239.51
563.35	3235.39
563.71	3231.83
564.06	3228.79
564.42	3225.98
564.77	3223.47
565.12	3220.85
565.48	3217.95
565.83	3215.49
566.19	3211.87
566.54	3208.26
566.89	3203.49
567.25	3198.26
567.60	3194.54
567.96	3189.23
568.31	3184.15
568.66	3180.73
569.02	3177.35
569.37	3174.26
569.72	3171.28
570.08	3167.21
570.43	3161.91
570.78	3158.10
571.14	3154.06
571.49	3148.85
571.84	3144.38
572.20	3138.45
572.55	3133.50
572.90	3127.85
573.26	3121.66
573.61	3113.96
573.96	3106.47
574.31	3099.18
574.67	3092.73
575.02	3084.67
575.37	3077.12
575.72	3070.22
576.08	3062.75
576.43	3053.99
576.78	3046.04
577.13	3038.48
577.49	3030.96
577.84	3024.22
578.19	3016.16
578.54	3007.70
578.90	2999.73
579.25	2990.76
579.60	2982.28
579.95	2973.19
580.30	2964.97
580.66	2955.85
581.01	2947.26
581.36	2937.61
581.71	2929.34
582.06	2920.91
582.42	2913.21
582.77	2904.04
583.12	2894.51
583.47	2885.71
583.82	2876.87
584.17	2866.81
584.53	2857.16
584.88	2846.84
585.23	2836.59
585.58	2826.83
585.93	2816.73
586.28	2807.36
586.63	2797.91
586.98	2788.51
587.34	2779.06
587.69	2768.43
588.04	2759.59
588.39	2750.46
588.74	2740.10
589.09	2730.22
589.44	2718.65
589.79	2707.20
590.14	2697.60
590.49	2686.50
590.84	2676.20
591.19	2666.40
591.54	2656.51
591.89	2644.91
592.25	2635.00
592.60	2623.77
592.95	2612.48
593.30	2601.52
593.65	2590.18
594.00	2579.75
594.35	2569.92
594.70	2558.74
595.05	2548.14
595.40	2535.68
595.75	2523.83
596.10	2513.79
596.45	2502.09
596.80	2492.57
597.15	2481.87
597.50	2470.72
597.85	2461.34
598.19	2448.90
598.54	2437.43
598.89	2425.80
599.24	2415.42
599.59	2404.53
599.94	2395.03
600.29	2385.12
600.64	2374.70
600.99	2362.89
601.34	2352.26
601.69	2340.34
602.04	2329.32
602.39	2319.40
602.74	2311.06
603.08	2302.56
603.43	2293.97
603.78	2284.70
604.13	2274.48
604.48	2264.24
604.83	2254.71
605.18	2244.77
605.53	2235.52
605.87	2225.44
606.22	2216.44
606.57	2207.02
606.92	2195.93
607.27	2185.12
607.62	2174.54
607.96	2164.52
608.31	2155.83
608.66	2144.81
609.01	2134.43
609.36	2124.08
609.70	2112.76
610.05	2100.23
610.40	2087.82
610.75	2075.36
611.10	2063.83
611.44	2051.68
611.79	2040.66
612.14	2029.14
612.49	2016.68
612.83	2005.37
613.18	1993.36
613.53	1981.10
613.88	1968.02
614.22	1956.19
614.57	1943.77
614.92	1931.38
615.27	1919.09
615.61	1906.18
615.96	1894.50
616.31	1883.55
616.65	1872.45
617.00	1861.62
617.35	1851.10
617.70	1839.26
618.04	1827.75
618.39	1815.62
618.74	1804.48
619.08	1792.53
619.43	1780.10
619.78	1768.92
620.12	1758.21
620.47	1747.92
620.82	1736.80
621.16	1726.60
621.51	1716.36
621.85	1705.51
622.20	1694.52
622.55	1683.07
622.89	1672.47
623.24	1661.80
623.59	1650.28
623.93	1639.28
624.28	1628.20
624.62	1616.80
624.97	1606.77
625.32	1596.51
625.66	1586.74
626.01	1576.71
626.35	1567.88
626.70	1559.02
627.04	1549.45
627.39	1538.75
627.73	1528.74
628.08	1519.48
628.43	1509.78
628.77	1500.77
629.12	1491.48
629.46	1482.08
629.81	1472.62
630.15	1462.82
630.50	1453.07
630.84	1443.73
631.19	1433.75
631.53	1424.15
631.88	1414.68
632.22	1405.62
632.57	1396.83
632.91	1388.10
633.26	1379.40
633.60	1369.66
633.95	1360.78
634.29	1351.96
634.64	1343.93
634.98	1334.51
635.32	1325.98
635.67	1317.97
636.01	1309.34
636.36	1300.83
636.70	1292.77
637.05	1284.86
637.39	1276.76
637.73	1268.62
638.08	1261.33
638.42	1254.37
638.77	1247.00
639.11	1239.57
639.45	1231.50
639.80	1223.29
640.14	1215.25
640.49	1207.04
640.83	1198.89
641.17	1190.68
641.52	1182.65
641.86	1174.23
642.20	1166.77
642.55	1157.87
642.89	1148.93
643.23	1140.36
643.58	1132.77
643.92	1124.57
644.26	1116.49
644.61	1108.72
644.95	1100.67
645.29	1092.16
645.64	1083.33
645.98	1075.20
646.32	1067.54
646.66	1059.94
647.01	1052.21
647.35	1044.40
647.69	1036.47
648.04	1029.01
648.38	1021.24
648.72	1013.82
649.06	1006.52
649.41	999.20
649.75	991.86
650.09	985.12
650.43	978.18
650.78	970.87
651.12	963.74
651.46	957.03
651.80	950.54
652.14	944.20
652.49	937.55
652.83	931.17
653.17	924.00
653.51	916.90
653.85	910.56
654.20	904.25
654.54	897.90
654.88	891.67
655.22	885.12
655.56	878.29
655.90	871.39
656.25	864.36
656.59	857.75
656.93	851.60
657.27	845.13
657.61	838.39
657.95	831.99
658.29	825.94
658.64	819.87
658.98	813.59
659.32	807.28
659.66	801.22
660.00	795.13
660.34	789.40
660.68	783.70
661.02	777.40
661.36	771.34
661.70	765.67
662.05	760.20
662.39	754.90
662.73	749.92
663.07	745.07
663.41	740.50
663.75	735.47
664.09	730.32
664.43	725.15
664.77	720.32
665.11	715.33
665.45	710.67
665.79	705.78
666.13	700.91
666.47	696.44
666.81	691.92
667.15	687.44
667.49	683.15
667.83	678.69
668.17	674.41
668.51	670.22
668.85	665.69
669.19	661.44
669.53	656.89
669.87	652.34
670.21	648.01
670.55	643.46
670.89	639.21
671.23	635.18
671.57	630.79
671.91	626.74
672.25	622.85
672.58	618.58
672.92	614.52
673.26	610.70
673.60	606.73
673.94	602.94
674.28	599.29
674.62	595.51
674.96	591.55
675.30	587.73
675.64	583.82
675.97	580.37
676.31	576.83
676.65	573.67
676.99	570.73
677.33	567.41
677.67	564.04
678.01	560.58
678.34	557.20
678.68	554.10
679.02	550.74
679.36	547.34
679.70	544.09
680.04	540.90
680.37	537.55
680.71	534.26
681.05	531.12
681.39	527.87
681.73	524.68
682.06	521.90
682.40	518.82
682.74	515.98
683.08	512.60
683.42	509.31
683.75	506.13
684.09	502.73
684.43	499.59
684.77	496.56
685.10	493.41
685.44	490.25
685.78	487.36
686.12	484.42
686.45	481.40
686.79	478.49
687.13	475.68
687.46	472.89
687.80	470.16
688.14	467.30
688.48	464.61
688.81	461.85
689.15	459.26
689.49	456.65
689.82	453.75
690.16	451.00
690.50	448.28
690.83	445.61
691.17	443.00
691.51	440.35
691.84	437.96
692.18	435.70
692.52	433.37
692.85	430.95
693.19	428.59
693.52	426.33
693.86	423.94
694.20	421.64
694.53	419.33
694.87	416.90
695.21	414.42
695.54	411.98
695.88	409.79
696.21	407.35
696.55	405.15
696.88	403.13
697.22	401.27
697.56	399.37
697.89	397.28
698.23	395.25
698.56	393.29
698.90	391.32
699.23	389.34
699.57	387.40
699.90	385.38
700.24	383.33
700.58	381.46
700.91	379.54
701.25	377.68
701.58	375.82
701.92	374.17
702.25	372.59
702.59	370.93
702.92	369.11
703.26	367.42
703.59	365.76
703.93	364.29
704.26	362.61
704.60	360.94
704.93	359.26
705.26	357.80
705.60	356.26
705.93	354.66
706.27	353.10
706.60	351.68
706.94	350.23
707.27	348.63
707.61	347.04
707.94	345.54
708.27	343.85
708.61	342.42
708.94	340.98
709.28	339.59
709.61	338.12
709.94	336.68
710.28	335.11
710.61	333.60
710.95	331.95
711.28	330.62
711.61	329.23
711.95	327.93
712.28	326.42
712.61	325.06
712.95	323.81
713.28	322.56
713.61	321.18
713.95	319.97
714.28	318.88
714.61	317.71
714.95	316.58
715.28	315.43
715.61	314.13
715.95	312.79
716.28	311.41
716.61	310.19
716.95	309.07
717.28	308.01
717.61	306.98
717.94	305.87
718.28	304.59
718.61	303.58
718.94	302.55
719.27	301.49
719.61	300.53
719.94	299.54
720.27	298.50
720.60	297.62
720.94	296.66
721.27	295.86
721.60	294.95
721.93	294.10
722.27	293.48
722.60	292.66
722.93	291.89
723.26	291.20
723.59	290.44
723.93	289.73
724.26	288.96
724.59	288.12
724.92	287.36
725.25	286.81
725.59	285.96
725.92	285.22
726.25	284.57
726.58	283.69
726.91	282.85
727.24	282.03
727.57	281.26
727.91	280.45
728.24	279.72
728.57	278.99
728.90	278.30
729.23	277.34
729.56	276.80
729.89	275.98
730.22	275.15
730.55	274.45
730.89	273.69
731.22	272.99
731.55	272.34
731.88	271.77
732.21	271.07
732.54	270.48
732.87	269.94
733.20	269.35
733.53	268.91
733.86	268.36
734.19	267.84
734.52	267.22
734.85	266.86
735.18	266.18
735.51	265.58
735.84	265.11
736.17	264.60
736.50	263.82
736.83	263.63
737.16	263.24
737.49	262.74
737.82	262.19
738.15	261.62
738.48	261.06
738.81	260.51
739.14	259.86
739.47	259.36
739.80	258.79
740.13	258.25
740.46	257.68
740.79	257.17
741.12	256.68
741.45	256.16
741.78	255.49
742.11	255.07
742.44	254.58
742.77	253.99
743.10	253.46
743.43	252.94
743.75	252.28
744.08	252.01
744.41	251.49
744.74	251.02
745.07	250.57
745.40	250.25
745.73	249.90
746.06	249.48
746.39	249.02
746.71	248.50
747.04	248.03
747.37	247.61
747.70	247.28
748.03	246.86
748.36	246.55
748.68	246.15
749.01	245.72
749.34	245.34
749.67	244.95
750.00	244.58
750.33	244.42
750.65	244.05
750.98	243.45
751.31	243.09
751.64	242.80
751.97	242.51
752.29	242.09
752.62	241.67
752.95	241.40
753.28	240.98
753.60	240.67
753.93	240.36
754.26	240.00
754.59	239.58
754.91	239.25
755.24	238.87
755.57	238.55
755.90	238.27
756.22	237.97
756.55	237.71
756.88	237.46
757.20	237.05
757.53	236.69
757.86	236.42
758.19	236.22
758.51	235.91
758.84	235.63
759.17	235.31
759.49	235.05
759.82	234.82
760.15	234.61
760.47	234.30
760.80	234.03
761.13	233.81
761.45	233.59
761.78	233.31
762.11	233.03
762.43	232.82
762.76	232.50
763.08	232.30
763.41	231.98
763.74	231.71
764.06	231.50
764.39	231.28
764.71	230.97
765.04	230.68
765.37	230.43
765.69	230.19
766.02	229.95
766.34	229.65
766.67	229.35
767.00	229.16
767.32	229.11
767.65	228.99
767.97	228.78
768.30	228.60
768.62	228.42
768.95	228.20
769.27	228.04
769.60	227.89
769.92	227.65
770.25	227.47
770.57	227.24
770.90	227.00
771.22	226.80
771.55	226.68
771.87	226.51
772.20	226.35
772.52	226.29
772.85	226.33
773.17	226.25
773.50	226.08
773.82	225.90
774.15	225.65
774.47	225.43
774.80	225.23
775.12	225.04
775.45	224.94
775.77	224.87
776.09	224.68
776.42	224.49
776.74	224.38
777.07	224.23
777.39	224.19
777.72	224.02
778.04	223.88
778.36	223.62
778.69	223.51
779.01	223.41
779.33	223.21
779.66	222.89
779.98	222.71
780.31	222.55
780.63	222.47
780.95	222.39
781.28	222.26
781.60	222.13
781.92	221.95
782.25	221.82
782.57	221.62
782.89	221.50
783.22	221.41
783.54	221.28
783.86	221.21
784.19	221.02
784.51	220.98
784.83	220.84
785.16	220.83
785.48	220.70
785.80	220.59
786.12	220.47
786.45	220.37
786.77	220.29
787.09	220.19
787.42	220.05
787.74	219.96
788.06	219.95
788.38	219.87
788.71	219.83
789.03	219.77
789.35	219.75
789.67	219.60
789.99	219.51
790.32	219.44
790.64	219.32
790.96	219.38
791.28	219.29
791.61	219.27
791.93	219.25
792.25	219.15
792.57	219.18
792.89	219.03
793.21	218.94
793.54	218.89
793.86	218.85
794.18	218.90
794.50	218.77
794.82	218.67
795.14	218.58
795.47	218.51
795.79	218.40
796.11	218.26
796.43	218.22
796.75	218.15
797.07	218.07
797.39	218.05
797.71	217.92
798.04	217.88
798.36	217.83
798.68	217.72
799.00	217.65
799.32	217.55
799.64	217.51
799.96	217.55
800.28	217.51
800.60	217.45
800.92	217.40
801.24	217.33
801.56	217.25
801.89	217.22
802.21	217.20
802.53	217.11
802.85	217.10
803.17	217.15
803.49	217.06
803.81	217.07
804.13	216.97
804.45	216.89
804.77	216.80
805.09	216.74
805.41	216.68
805.73	216.60
806.05	216.46
806.37	216.48
806.69	216.36
807.01	216.29
807.33	216.21
807.65	216.03
807.97	216.03
808.28	216.03
808.60	215.98
808.92	215.90
809.24	215.95
809.56	215.86
809.88	215.76
810.20	215.78
810.52	215.72
810.84	215.69
811.16	215.63
811.48	215.58
811.80	215.55
812.12	215.48
812.43	215.40
812.75	215.38
813.07	215.29
813.39	215.25
813.71	215.14
814.03	215.09
814.35	215.15
814.67	215.06
814.98	214.94
815.30	214.89
815.62	214.80
815.94	214.73
816.26	214.77
816.58	214.68
816.89	214.64
817.21	214.57
817.53	214.55
817.85	214.48
818.17	214.44
818.48	214.30
818.80	214.34
819.12	214.39
819.44	214.32
819.76	214.24
820.07	214.28
820.39	214.27
820.71	214.29
821.03	214.13
821.34	214.06
821.66	214.07
821.98	214.02
822.30	214.02
822.61	214.05
822.93	213.96
823.25	213.94
823.57	213.85
823.88	213.94
824.20	213.90
824.52	213.93
824.83	213.89
825.15	213.90
825.47	213.80
825.79	213.76
826.10	213.72
826.42	213.70
826.74	213.64
827.05	213.64
827.37	213.67
827.69	213.70
828.00	213.75
828.32	213.86
828.64	213.87
828.95	213.98
829.27	213.95
829.58	213.95
829.90	214.01
830.22	214.05
830.53	213.94
830.85	213.84
831.17	213.80
831.48	213.87
831.80	213.83
832.11	213.84
832.43	213.79
832.75	213.76
833.06	213.84
833.38	213.70
833.69	213.67
834.01	213.59
834.32	213.59
834.64	213.56
834.96	213.41
835.27	213.35
835.59	213.18
835.90	213.14
836.22	213.14
836.53	213.05
836.85	213.05
837.16	213.12
837.48	213.10
837.79	213.16
838.11	213.10
838.42	213.18
838.74	213.23
839.05	213.24
839.37	213.28
839.68	213.16
840.00	213.28
840.31	213.33
840.63	213.32
840.94	213.23
841.26	213.14
841.57	213.17
841.88	213.20
842.20	213.28
842.51	213.15
842.83	213.13
843.14	213.24
843.46	213.23
843.77	213.16
844.08	213.20
844.40	213.06
844.71	213.09
845.03	213.03
845.34	212.97
845.65	212.96
845.97	212.96
846.28	212.97
846.60	212.85
846.91	212.81
847.22	212.73
847.54	212.84
847.85	212.83
848.16	212.86
848.48	212.82
848.79	212.95
849.10	212.92
849.42	212.89
849.73	212.77
850.04	212.76
850.36	212.69
850.67	212.71
850.98	212.76
851.30	212.78
851.61	212.75
851.92	212.73
852.23	212.74
852.55	212.72
852.86	212.73
853.17	212.76
853.49	212.76
853.80	212.84
854.11	212.76
854.42	212.82
854.74	212.76
855.05	212.75
855.36	212.52
855.67	212.63
855.99	212.61
856.30	212.77
856.61	212.73
856.92	212.75
857.23	212.75
857.55	212.72
857.86	212.64
858.17	212.63
858.48	212.65
858.79	212.68
859.11	212.69
859.42	212.69
859.73	212.73
860.04	212.67
860.35	212.65
860.66	212.58
860.98	212.57
861.29	212.59
861.60	212.56
861.91	212.60
862.22	212.57
862.53	212.58
862.84	212.42
863.16	212.43
863.47	212.37
863.78	212.31
864.09	212.34
864.40	212.34
864.71	212.31
865.02	212.29
865.33	212.22
865.64	212.14
865.95	212.09
866.27	212.20
866.58	212.21
866.89	212.22
867.20	212.29
867.51	212.23
867.82	212.18
868.13	212.25
868.44	212.19
868.75	212.17
869.06	212.17
869.37	212.14
869.68	212.08
869.99	212.17
870.30	212.16
870.61	212.15
870.92	212.10
871.23	212.13
871.54	212.17
871.85	212.14
872.16	212.18
872.47	212.20
872.78	212.05
873.09	212.06
873.40	211.98
873.71	211.94
874.02	211.94
874.33	211.91
874.64	211.89
874.95	211.94
875.26	211.91
875.56	211.94
875.87	211.98
876.18	212.02
876.49	212.19
876.80	212.17
877.11	212.05
877.42	212.09
877.73	212.09
878.04	211.98
878.35	212.06
878.66	212.05
878.96	212.05
879.27	212.08
879.58	212.05
879.89	212.06
880.20	212.19
880.51	212.15
880.82	212.11
881.12	212.10
881.43	212.01
881.74	211.98
882.05	211.88
882.36	211.84
882.67	211.76
882.97	211.60
883.28	211.57
883.59	211.65
883.90	211.65
884.21	211.68
884.51	211.70
884.82	211.60
885.13	211.58
885.44	211.55
885.74	211.53
886.05	211.54
886.36	211.51
886.67	211.32
886.98	211.47
887.28	211.54
887.59	211.62
887.90	211.66
888.20	211.68
888.51	211.76
888.82	211.73
889.13	211.74
889.43	211.87
889.74	211.90
890.05	211.90
890.35	211.85
890.66	211.85
890.97	211.92
891.28	211.95
891.58	212.03
891.89	212.05
892.20	212.04
892.50	212.02
892.81	212.07
893.12	212.16
893.42	212.02
893.73	212.01
894.04	211.93
894.34	211.99
894.65	212.01
894.95	211.90
895.26	211.91
895.57	212.05
895.87	211.87
896.18	211.90
896.48	211.87
896.79	211.89
897.10	211.89
897.40	211.88
897.71	211.95
898.01	211.84
898.32	211.86
898.63	211.86
898.93	211.87
899.24	211.86
899.54	211.84
899.85	211.86
900.15	211.86
900.46	211.80
900.76	211.75
901.07	211.75
901.38	211.81
901.68	211.79
901.99	211.65
902.29	211.60
902.60	211.58
902.90	211.61
903.21	211.63
903.51	211.63
903.82	211.60
904.12	211.59
904.43	211.66
904.73	211.66
905.03	211.64
905.34	211.76
905.64	211.76
905.95	211.73
906.25	211.73
906.56	211.71
906.86	211.79
907.17	211.80
907.47	211.74
907.77	211.71
908.08	211.75
908.38	211.80
908.69	211.83
908.99	211.80
909.30	211.79
909.60	211.75
909.90	211.79
910.21	211.74
910.51	211.67
910.81	211.64
911.12	211.61
911.42	211.62
911.73	211.49
912.03	211.53
912.33	211.55
912.64	211.57
912.94	211.57
913.24	211.58
913.55	211.56
913.85	211.60
914.15	211.68
914.46	211.68
914.76	211.63
915.06	211.62
915.37	211.61
915.67	211.59
915.97	211.64
916.27	211.57
916.58	211.58
916.88	211.55
917.18	211.42
917.49	211.50
917.79	211.44
918.09	211.43
918.39	211.39
918.70	211.42
919.00	211.41
919.30	211.49
919.60	211.46
919.91	211.45
920.21	211.48
920.51	211.37
920.81	211.33
921.12	211.35
921.42	211.31
921.72	211.35
922.02	211.43
922.32	211.39
922.63	211.33
922.93	211.35
923.23	211.34
923.53	211.43
923.83	211.34
924.13	211.39
924.44	211.46
924.74	211.47
925.04	211.52
925.34	211.47
925.64	211.36
925.94	211.29
926.24	211.35
926.55	211.30
926.85	211.35
927.15	211.39
927.45	211.40
927.75	211.42
928.05	211.39
928.35	211.32
928.65	211.39
928.95	211.43
929.26	211.45
929.56	211.52
929.86	211.49
930.16	211.52
930.46	211.48
930.76	211.39
931.06	211.36
931.36	211.26
931.66	211.27
931.96	211.40
932.26	211.41
932.56	211.37
932.86	211.33
933.16	211.36
933.46	211.29
933.76	211.30
934.06	211.29
934.36	211.39
934.66	211.40
934.96	211.33
935.26	211.34
935.56	211.38
935.86	211.40
936.16	211.38
936.46	211.33
936.76	211.38
937.06	211.40
937.36	211.47
937.66	211.44
937.96	211.46
938.26	211.38
938.56	211.41
938.86	211.47
939.16	211.52
939.46	211.53
939.76	211.62
940.06	211.52
940.35	211.57
940.65	211.49
940.95	211.55
941.25	211.54
941.55	211.55
941.85	211.49
942.15	211.50
942.45	211.52
942.75	211.45
943.04	211.43
943.34	211.47
943.64	211.42
943.94	211.46
944.24	211.46
944.54	211.42
944.84	211.39
945.13	211.36
945.43	211.34
945.73	211.31
946.03	211.27
946.33	211.35
946.62	211.30
946.92	211.30
947.22	211.24
947.52	211.19
947.82	211.17
948.11	211.16
948.41	211.13
948.71	211.12
949.01	211.19
949.31	211.26
949.60	211.20
949.90	211.22
950.20	211.22
950.50	211.16
950.79	211.13
951.09	211.17
951.39	211.09
951.69	211.07
951.98	211.08
952.28	211.10
952.58	211.09
952.87	211.13
953.17	211.08
953.47	211.06
953.76	211.12
954.06	211.05
954.36	211.02
954.66	210.97
954.95	210.99
955.25	211.00
955.55	210.99
955.84	211.05
956.14	211.04
956.44	211.00
956.73	211.02
957.03	211.13
957.32	211.13
957.62	211.12
957.92	211.22
958.21	211.20
958.51	211.34
958.81	211.37
959.10	211.30
959.40	211.38
959.69	211.39
959.99	211.39
960.29	211.42
960.58	211.36
960.88	211.44
961.17	211.42
961.47	211.43
961.76	211.39
962.06	211.33
962.36	211.34
962.65	211.37
962.95	211.38
963.24	211.30
963.54	211.28
963.83	211.31
964.13	211.20
964.42	211.20
964.72	211.05
965.01	211.00
965.31	211.05
965.60	210.98
965.90	211.10
966.19	211.08
966.49	211.07
966.78	211.16
967.08	211.07
967.37	211.03
967.67	211.04
967.96	211.04
968.26	211.03
968.55	210.98
968.85	210.99
969.14	210.95
969.43	210.93
969.73	210.89
970.02	210.87
970.32	210.91
970.61	210.90
970.91	210.86
971.20	210.80
971.49	210.74
971.79	210.76
972.08	210.74
972.38	210.80
972.67	210.86
972.96	210.87
973.26	210.92
973.55	211.04
973.85	210.98
974.14	210.96
974.43	211.01
974.73	210.99
975.02	210.95
975.31	210.95
975.61	210.99
975.90	211.03
976.19	211.05
976.49	211.01
976.78	210.95
977.07	210.98
977.37	211.02
977.66	211.05
977.95	210.99
978.24	210.93
978.54	210.90
978.83	210.87
979.12	210.83
979.42	210.75
979.71	210.68
980.00	210.70
980.29	210.76
980.59	210.71
980.88	210.80
981.17	210.79
981.46	210.86
981.76	210.83
982.05	210.89
982.34	210.87
982.63	210.86
982.93	210.92
983.22	210.90
983.51	210.90
983.80	210.89
984.09	210.95
984.39	210.90
984.68	210.80
984.97	210.78
985.26	210.78
985.55	210.80
985.85	210.83
986.14	210.87
986.43	210.83
986.72	210.86
987.01	210.82
987.30	210.84
987.59	210.82
987.89	210.81
988.18	210.72
988.47	210.75
988.76	210.79
989.05	210.78
989.34	210.79
989.63	210.82
989.92	210.86
990.22	210.81
990.51	210.77
990.80	210.83
991.09	210.85
991.38	210.87
991.67	210.89
991.96	210.86
992.25	210.83
992.54	210.82
992.83	210.74
993.12	210.70
993.41	210.73
993.70	210.77
993.99	210.85
994.28	210.92
994.58	210.94
994.87	210.92
995.16	210.86
995.45	210.84
995.74	210.76
996.03	210.75
996.32	210.81
996.61	210.93
996.90	210.92
997.19	210.95
997.48	210.96
997.77	210.97
998.06	210.93
998.34	210.95
998.63	210.91
998.92	210.97
999.21	211.00
999.50	211.08
999.79	211.05
1000.08	210.95
1000.37	210.89
1000.66	210.89
1000.95	210.97
1001.24	211.04
1001.53	211.14
1001.82	211.25
1002.11	211.29
1002.40	211.31
1002.68	211.34
1002.97	211.44
1003.26	211.41
1003.55	211.38
1003.84	211.41
1004.13	211.47
1004.42	211.45
1004.71	211.49
1004.99	211.46
1005.28	211.57
1005.57	211.50
1005.86	211.49
1006.15	211.59
1006.44	211.57
1006.72	211.60
1007.01	211.55
1007.30	211.50
1007.59	211.47
1007.88	211.43
1008.17	211.34
1008.45	211.34
1008.74	211.23
1009.03	211.18
1009.32	211.20
1009.60	211.21
1009.89	211.13
1010.18	211.14
1010.47	211.16
1010.76	211.23
1011.04	211.25
1011.33	211.12
1011.62	211.15
1011.91	211.21
1012.19	211.21
1012.48	211.25
1012.77	211.20
1013.05	211.27
1013.34	211.34
1013.63	211.31
1013.92	211.36
1014.20	211.39
1014.49	211.32
1014.78	211.38
1015.06	211.31
1015.35	211.27
1015.64	211.29
1015.92	211.37
1016.21	211.36
1016.50	211.35
1016.78	211.26
1017.07	211.33
1017.36	211.40
1017.64	211.33
1017.93	211.27
1018.22	211.20
1018.50	211.25
1018.79	211.20
1019.08	211.10
1019.36	211.07
1019.65	211.04
1019.93	210.96
1020.22	211.00
1020.51	211.13
1020.79	211.01
1021.08	210.90
1021.36	211.95
1021.65	210.00
1021.94	210.65
1022.22	210.80
1022.51	210.65
1022.79	210.50
1023.08	211.10
1023.36	213.00
1023.65	209.15
>>>>>End Processed Spectral Data<<<<<
