SpectraSuite Data File
++++++++++++++++++++++++++++++++++++
Date: Mon Feb 25 17:32:01 EST 2013
User: group
Dark Spectrum Present: No
Reference Spectrum Present: No
Number of Sampled Component Spectra: 1
Spectrometers: USB2E7196
Integration Time (usec): 52000 (USB2E7196)
Spectra Averaged: 20 (USB2E7196)
Boxcar Smoothing: 10 (USB2E7196)
Correct for Electrical Dark: No (USB2E7196)
Strobe/Lamp Enabled: No (USB2E7196)
Correct for Detector Non-linearity: No (USB2E7196)
Correct for Stray Light: No (USB2E7196)
Number of Pixels in Processed Spectrum: 2048
>>>>>Begin Processed Spectral Data<<<<<
339.09	0.00
339.48	198.85
339.86	200.65
340.24	201.65
340.63	203.05
341.01	207.90
341.39	205.75
341.78	207.60
342.16	209.00
342.54	209.70
342.93	198.38
343.31	208.42
343.69	208.95
344.07	209.45
344.46	209.92
344.84	210.29
345.22	210.45
345.60	210.76
345.99	210.98
346.37	211.09
346.75	211.21
347.13	211.32
347.52	211.34
347.90	211.45
348.28	211.57
348.66	211.63
349.05	211.62
349.43	211.71
349.81	211.76
350.19	211.77
350.57	211.82
350.96	211.85
351.34	211.90
351.72	212.03
352.10	212.11
352.48	212.12
352.87	212.21
353.25	212.32
353.63	212.33
354.01	212.36
354.39	212.41
354.77	212.44
355.15	212.62
355.54	212.72
355.92	212.74
356.30	212.73
356.68	212.90
357.06	213.01
357.44	213.07
357.82	213.08
358.20	213.15
358.58	213.25
358.97	213.34
359.35	213.45
359.73	213.51
360.11	213.55
360.49	213.64
360.87	213.55
361.25	213.57
361.63	213.67
362.01	213.72
362.39	213.73
362.77	213.80
363.15	213.75
363.53	213.70
363.91	213.78
364.29	213.84
364.67	213.73
365.05	213.76
365.43	213.75
365.81	213.86
366.19	214.01
366.57	214.01
366.95	214.03
367.33	214.00
367.71	214.03
368.09	214.01
368.47	214.04
368.85	214.13
369.23	214.11
369.61	214.09
369.99	214.15
370.37	214.20
370.75	214.25
371.13	214.16
371.51	214.14
371.89	214.05
372.27	213.97
372.65	213.98
373.03	213.93
373.41	213.96
373.78	213.87
374.16	213.71
374.54	213.63
374.92	213.58
375.30	213.57
375.68	213.43
376.06	213.38
376.44	213.28
376.82	213.24
377.19	213.26
377.57	213.19
377.95	213.11
378.33	213.07
378.71	212.95
379.09	212.92
379.47	212.95
379.84	212.92
380.22	212.85
380.60	212.78
380.98	212.65
381.36	212.54
381.73	212.44
382.11	212.40
382.49	212.37
382.87	212.28
383.25	212.17
383.62	212.40
384.00	212.38
384.38	212.40
384.76	212.43
385.13	212.41
385.51	212.43
385.89	212.36
386.27	212.30
386.64	212.27
387.02	212.24
387.40	212.12
387.78	212.10
388.15	212.15
388.53	212.15
388.91	212.20
389.29	212.13
389.66	212.16
390.04	212.14
390.42	212.09
390.79	212.12
391.17	212.13
391.55	211.86
391.92	211.84
392.30	211.77
392.68	211.70
393.05	211.66
393.43	211.58
393.81	211.54
394.18	211.43
394.56	211.39
394.94	211.42
395.31	211.35
395.69	211.39
396.06	211.43
396.44	211.40
396.82	211.33
397.19	211.45
397.57	211.42
397.95	211.53
398.32	211.48
398.70	211.51
399.07	211.43
399.45	211.45
399.82	211.42
400.20	211.45
400.58	211.51
400.95	211.55
401.33	211.59
401.70	211.77
402.08	211.94
402.45	212.03
402.83	212.11
403.20	212.29
403.58	212.28
403.95	212.37
404.33	212.43
404.71	212.60
405.08	212.78
405.46	212.90
405.83	212.97
406.21	213.14
406.58	213.30
406.96	213.56
407.33	213.71
407.70	213.96
408.08	214.29
408.45	214.47
408.83	214.61
409.20	214.84
409.58	214.95
409.95	215.28
410.33	215.58
410.70	215.78
411.08	216.10
411.45	216.45
411.82	216.81
412.20	217.22
412.57	217.75
412.95	218.12
413.32	218.67
413.69	219.22
414.07	219.83
414.44	220.46
414.82	221.05
415.19	221.77
415.56	222.48
415.94	223.20
416.31	224.16
416.68	225.16
417.06	226.25
417.43	227.24
417.81	228.25
418.18	229.28
418.55	230.53
418.93	231.74
419.30	233.11
419.67	234.44
420.04	235.88
420.42	237.34
420.79	239.07
421.16	240.78
421.54	242.56
421.91	244.31
422.28	246.20
422.66	248.30
423.03	250.37
423.40	252.46
423.77	254.70
424.15	256.84
424.52	259.11
424.89	261.57
425.26	264.04
425.64	266.40
426.01	269.01
426.38	271.66
426.75	274.41
427.13	277.14
427.50	280.04
427.87	283.22
428.24	286.31
428.61	289.19
428.99	292.36
429.36	295.82
429.73	299.38
430.10	302.81
430.47	306.34
430.85	310.03
431.22	313.95
431.59	318.11
431.96	322.10
432.33	326.40
432.70	330.52
433.08	335.37
433.45	340.00
433.82	344.51
434.19	349.60
434.56	354.63
434.93	359.40
435.30	364.25
435.68	369.38
436.05	374.43
436.42	379.54
436.79	384.22
437.16	389.16
437.53	394.38
437.90	399.62
438.27	404.66
438.64	409.99
439.01	414.88
439.38	419.20
439.75	423.47
440.13	428.22
440.50	432.79
440.87	436.46
441.24	440.32
441.61	444.69
441.98	447.84
442.35	451.33
442.72	454.93
443.09	458.32
443.46	460.40
443.83	461.80
444.20	462.96
444.57	464.80
444.94	465.71
445.31	466.45
445.68	467.17
446.05	467.49
446.42	466.75
446.79	465.96
447.16	464.97
447.53	464.30
447.90	462.17
448.27	460.10
448.64	457.29
449.01	454.95
449.37	451.18
449.74	447.67
450.11	443.60
450.48	439.13
450.85	434.59
451.22	430.55
451.59	426.80
451.96	423.23
452.33	418.34
452.70	413.98
453.07	408.95
453.43	403.66
453.80	398.73
454.17	394.00
454.54	389.53
454.91	384.76
455.28	380.01
455.65	375.67
456.02	371.31
456.38	367.49
456.75	363.06
457.12	359.30
457.49	355.44
457.86	351.73
458.23	348.58
458.59	345.08
458.96	341.76
459.33	338.74
459.70	335.74
460.07	333.30
460.43	330.44
460.80	327.85
461.17	325.60
461.54	323.16
461.91	320.86
462.27	318.51
462.64	316.52
463.01	314.26
463.38	312.25
463.74	310.12
464.11	308.28
464.48	306.70
464.85	305.00
465.21	303.60
465.58	302.19
465.95	300.57
466.32	299.23
466.68	297.69
467.05	296.30
467.42	294.80
467.78	293.36
468.15	292.10
468.52	291.02
468.88	289.69
469.25	288.45
469.62	287.59
469.98	286.52
470.35	285.68
470.72	284.94
471.08	283.96
471.45	283.19
471.82	282.43
472.18	281.54
472.55	280.91
472.92	280.31
473.28	279.66
473.65	279.05
474.02	278.42
474.38	278.15
474.75	277.72
475.11	277.27
475.48	277.03
475.85	276.80
476.21	276.61
476.58	276.50
476.94	276.47
477.31	276.42
477.67	276.43
478.04	276.53
478.41	276.62
478.77	276.93
479.14	277.10
479.50	277.36
479.87	277.69
480.23	278.07
480.60	278.42
480.96	278.87
481.33	279.51
481.69	280.20
482.06	280.75
482.42	281.42
482.79	282.30
483.15	283.20
483.52	284.13
483.88	285.11
484.25	286.11
484.61	287.23
484.98	288.29
485.34	289.64
485.71	290.90
486.07	292.31
486.44	293.56
486.80	295.07
487.17	296.69
487.53	298.42
487.90	300.23
488.26	302.29
488.62	304.39
488.99	306.40
489.35	308.53
489.72	310.76
490.08	313.13
490.44	315.58
490.81	318.25
491.17	320.95
491.54	323.90
491.90	326.87
492.26	330.00
492.63	333.22
492.99	336.52
493.36	340.20
493.72	344.04
494.08	348.16
494.45	352.43
494.81	356.87
495.17	361.43
495.54	366.36
495.90	371.27
496.26	376.46
496.63	381.99
496.99	387.78
497.35	393.87
497.72	400.17
498.08	406.68
498.44	413.32
498.80	420.39
499.17	427.73
499.53	435.38
499.89	443.45
500.26	451.69
500.62	460.03
500.98	468.79
501.34	477.81
501.71	487.22
502.07	496.97
502.43	506.84
502.79	517.28
503.16	527.91
503.52	538.71
503.88	549.98
504.24	561.58
504.60	573.53
504.97	585.61
505.33	598.27
505.69	611.45
506.05	624.89
506.41	638.48
506.78	652.23
507.14	666.33
507.50	680.56
507.86	695.49
508.22	710.97
508.59	726.31
508.95	742.26
509.31	758.35
509.67	774.94
510.03	792.11
510.39	809.36
510.75	827.06
511.12	845.17
511.48	863.55
511.84	882.15
512.20	900.58
512.56	919.70
512.92	938.77
513.28	958.34
513.64	977.96
514.00	997.78
514.37	1018.17
514.73	1038.91
515.09	1059.85
515.45	1080.56
515.81	1101.56
516.17	1122.95
516.53	1144.24
516.89	1165.74
517.25	1187.06
517.61	1208.43
517.97	1229.81
518.33	1251.29
518.69	1272.79
519.05	1294.67
519.41	1316.50
519.77	1339.05
520.13	1361.11
520.49	1383.12
520.85	1405.69
521.21	1428.06
521.57	1450.93
521.93	1472.70
522.29	1495.14
522.65	1517.51
523.01	1539.89
523.37	1562.02
523.73	1583.94
524.09	1606.05
524.45	1628.18
524.81	1650.60
525.17	1673.03
525.53	1695.54
525.89	1717.80
526.25	1739.67
526.61	1760.65
526.97	1782.39
527.33	1803.48
527.68	1824.93
528.04	1846.15
528.40	1865.99
528.76	1886.79
529.12	1907.28
529.48	1929.08
529.84	1949.31
530.20	1969.55
530.56	1989.74
530.91	2010.48
531.27	2031.17
531.63	2051.22
531.99	2071.19
532.35	2090.22
532.71	2109.02
533.07	2128.24
533.42	2146.44
533.78	2165.51
534.14	2184.00
534.50	2200.87
534.86	2218.76
535.21	2235.32
535.57	2253.16
535.93	2270.65
536.29	2287.40
536.65	2303.85
537.00	2318.77
537.36	2334.01
537.72	2348.69
538.08	2363.75
538.44	2378.39
538.79	2393.43
539.15	2408.14
539.51	2422.31
539.87	2437.38
540.22	2451.75
540.58	2466.10
540.94	2480.40
541.29	2492.91
541.65	2505.03
542.01	2518.01
542.37	2529.74
542.72	2541.67
543.08	2552.16
543.44	2563.73
543.79	2573.51
544.15	2583.45
544.51	2594.11
544.87	2605.15
545.22	2614.63
545.58	2623.07
545.94	2630.33
546.29	2636.30
546.65	2642.34
547.01	2648.04
547.36	2653.25
547.72	2658.71
548.07	2662.61
548.43	2666.10
548.79	2670.02
549.14	2674.49
549.50	2678.80
549.86	2682.76
550.21	2686.87
550.57	2691.10
550.92	2693.67
551.28	2696.43
551.64	2699.27
551.99	2701.69
552.35	2702.83
552.70	2705.54
553.06	2708.47
553.41	2711.39
553.77	2714.45
554.13	2716.51
554.48	2718.86
554.84	2720.32
555.19	2720.56
555.55	2721.29
555.90	2721.99
556.26	2722.37
556.61	2722.21
556.97	2721.26
557.32	2720.73
557.68	2719.03
558.03	2717.12
558.39	2715.39
558.74	2714.68
559.10	2712.96
559.45	2711.35
559.81	2710.58
560.16	2707.68
560.52	2705.08
560.87	2702.09
561.23	2698.53
561.58	2696.08
561.94	2692.91
562.29	2689.11
562.64	2686.83
563.00	2684.52
563.35	2682.20
563.71	2680.39
564.06	2678.49
564.42	2676.33
564.77	2673.85
565.12	2672.21
565.48	2669.00
565.83	2665.89
566.19	2662.52
566.54	2658.59
566.89	2654.31
567.25	2649.98
567.60	2646.89
567.96	2643.13
568.31	2639.73
568.66	2635.69
569.02	2630.88
569.37	2625.59
569.72	2621.64
570.08	2616.32
570.43	2610.27
570.78	2604.33
571.14	2597.87
571.49	2591.15
571.84	2585.23
572.20	2578.04
572.55	2571.28
572.90	2564.69
573.26	2557.99
573.61	2551.13
573.96	2544.59
574.31	2537.20
574.67	2529.23
575.02	2520.54
575.37	2512.32
575.72	2503.13
576.08	2495.30
576.43	2486.79
576.78	2478.95
577.13	2471.04
577.49	2462.85
577.84	2455.26
578.19	2447.81
578.54	2440.51
578.90	2433.43
579.25	2424.66
579.60	2416.10
579.95	2406.97
580.30	2399.08
580.66	2391.03
581.01	2381.82
581.36	2372.48
581.71	2364.31
582.06	2356.07
582.42	2348.39
582.77	2339.01
583.12	2330.51
583.47	2322.03
583.82	2314.00
584.17	2304.75
584.53	2295.75
584.88	2287.16
585.23	2278.08
585.58	2268.70
585.93	2259.10
586.28	2250.08
586.63	2241.33
586.98	2232.68
587.34	2224.24
587.69	2215.08
588.04	2206.02
588.39	2197.93
588.74	2189.22
589.09	2180.36
589.44	2170.76
589.79	2162.06
590.14	2154.35
590.49	2145.84
590.84	2137.13
591.19	2128.89
591.54	2120.71
591.89	2110.90
592.25	2102.08
592.60	2092.84
592.95	2083.46
593.30	2074.12
593.65	2064.50
594.00	2055.12
594.35	2047.40
594.70	2038.37
595.05	2029.83
595.40	2021.07
595.75	2011.48
596.10	2003.32
596.45	1994.83
596.80	1987.18
597.15	1979.06
597.50	1969.93
597.85	1961.59
598.19	1952.52
598.54	1944.16
598.89	1936.28
599.24	1929.54
599.59	1921.94
599.94	1914.48
600.29	1907.23
600.64	1899.38
600.99	1890.92
601.34	1883.80
601.69	1874.75
602.04	1866.73
602.39	1858.46
602.74	1850.53
603.08	1843.92
603.43	1836.79
603.78	1828.60
604.13	1820.63
604.48	1812.54
604.83	1805.81
605.18	1798.73
605.53	1791.46
605.87	1783.94
606.22	1776.84
606.57	1769.05
606.92	1761.02
607.27	1753.33
607.62	1745.93
607.96	1739.08
608.31	1733.13
608.66	1725.26
609.01	1717.91
609.36	1710.30
609.70	1702.53
610.05	1694.82
610.40	1686.91
610.75	1678.36
611.10	1671.21
611.44	1662.22
611.79	1653.23
612.14	1643.84
612.49	1634.41
612.83	1625.76
613.18	1615.93
613.53	1606.43
613.88	1596.67
614.22	1587.84
614.57	1578.45
614.92	1569.15
615.27	1559.86
615.61	1549.80
615.96	1540.81
616.31	1532.52
616.65	1524.73
617.00	1516.63
617.35	1508.23
617.70	1499.41
618.04	1490.42
618.39	1481.14
618.74	1473.11
619.08	1464.40
619.43	1456.13
619.78	1448.32
620.12	1440.40
620.47	1433.03
620.82	1424.73
621.16	1416.82
621.51	1408.38
621.85	1400.45
622.20	1391.88
622.55	1383.46
622.89	1375.43
623.24	1367.45
623.59	1358.57
623.93	1349.79
624.28	1341.38
624.62	1333.14
624.97	1325.06
625.32	1317.33
625.66	1309.67
626.01	1302.26
626.35	1295.03
626.70	1287.35
627.04	1279.79
627.39	1272.07
627.73	1264.27
628.08	1257.39
628.43	1249.95
628.77	1242.77
629.12	1235.51
629.46	1229.02
629.81	1221.96
630.15	1214.63
630.50	1207.38
630.84	1200.25
631.19	1193.35
631.53	1186.60
631.88	1179.17
632.22	1171.58
632.57	1164.55
632.91	1157.20
633.26	1149.81
633.60	1143.00
633.95	1136.55
634.29	1129.45
634.64	1122.76
634.98	1115.92
635.32	1108.90
635.67	1102.52
636.01	1095.79
636.36	1088.96
636.70	1082.40
637.05	1075.95
637.39	1069.76
637.73	1063.54
638.08	1057.74
638.42	1051.75
638.77	1045.28
639.11	1039.06
639.45	1033.31
639.80	1026.93
640.14	1020.78
640.49	1014.67
640.83	1008.56
641.17	1001.86
641.52	995.79
641.86	989.47
642.20	983.45
642.55	976.87
642.89	970.22
643.23	963.84
643.58	958.04
643.92	951.48
644.26	945.22
644.61	939.11
644.95	933.05
645.29	926.76
645.64	920.23
645.98	914.19
646.32	908.41
646.66	902.12
647.01	896.23
647.35	890.39
647.69	883.91
648.04	877.77
648.38	872.06
648.72	866.14
649.06	859.99
649.41	853.95
649.75	848.05
650.09	842.50
650.43	836.82
650.78	830.55
651.12	824.58
651.46	818.87
651.80	813.15
652.14	807.07
652.49	801.23
652.83	795.62
653.17	789.48
653.51	783.51
653.85	777.86
654.20	771.90
654.54	766.00
654.88	760.59
655.22	754.82
655.56	749.09
655.90	743.30
656.25	737.73
656.59	732.19
656.93	727.12
657.27	721.85
657.61	716.43
657.95	711.44
658.29	706.41
658.64	701.28
658.98	695.81
659.32	690.50
659.66	685.34
660.00	679.91
660.34	674.77
660.68	669.69
661.02	664.67
661.36	660.11
661.70	655.44
662.05	650.81
662.39	646.43
662.73	642.06
663.07	637.68
663.41	633.36
663.75	628.90
664.09	624.17
664.43	619.45
664.77	615.05
665.11	610.58
665.45	606.12
665.79	601.76
666.13	597.50
666.47	593.46
666.81	589.40
667.15	585.48
667.49	581.80
667.83	578.05
668.17	574.30
668.51	570.48
668.85	566.69
669.19	563.01
669.53	559.11
669.87	555.02
670.21	551.32
670.55	547.50
670.89	544.01
671.23	540.60
671.57	537.25
671.91	533.77
672.25	530.26
672.58	526.81
672.92	523.31
673.26	520.16
673.60	516.95
673.94	513.58
674.28	510.29
674.62	507.06
674.96	503.77
675.30	500.67
675.64	497.48
675.97	494.39
676.31	491.29
676.65	488.33
676.99	485.81
677.33	482.78
677.67	479.90
678.01	476.72
678.34	473.86
678.68	470.90
679.02	467.90
679.36	465.14
679.70	462.37
680.04	459.51
680.37	456.48
680.71	453.64
681.05	450.96
681.39	448.26
681.73	445.53
682.06	442.98
682.40	440.38
682.74	437.79
683.08	435.23
683.42	432.63
683.75	430.10
684.09	427.37
684.43	424.91
684.77	422.41
685.10	419.96
685.44	417.45
685.78	415.01
686.12	412.74
686.45	410.30
686.79	407.98
687.13	405.86
687.46	403.90
687.80	401.77
688.14	399.50
688.48	397.35
688.81	395.14
689.15	392.94
689.49	390.69
689.82	388.46
690.16	386.18
690.50	384.02
690.83	381.89
691.17	379.76
691.51	377.61
691.84	375.45
692.18	373.40
692.52	371.41
692.85	369.62
693.19	367.79
693.52	365.91
693.86	363.95
694.20	362.07
694.53	360.17
694.87	358.17
695.21	356.27
695.54	354.30
695.88	352.53
696.21	350.69
696.55	348.96
696.88	347.23
697.22	345.53
697.56	343.94
697.89	342.27
698.23	340.52
698.56	338.90
698.90	337.44
699.23	335.88
699.57	334.27
699.90	332.50
700.24	330.83
700.58	329.23
700.91	327.74
701.25	326.35
701.58	324.97
701.92	323.63
702.25	322.30
702.59	321.12
702.92	319.67
703.26	318.42
703.59	317.15
703.93	316.07
704.26	314.82
704.60	313.53
704.93	312.21
705.26	311.15
705.60	310.05
705.93	308.82
706.27	307.73
706.60	306.73
706.94	305.70
707.27	304.54
707.61	303.51
707.94	302.42
708.27	301.21
708.61	300.00
708.94	298.90
709.28	297.86
709.61	296.65
709.94	295.65
710.28	294.55
710.61	293.47
710.95	292.28
711.28	291.29
711.61	290.23
711.95	289.34
712.28	288.25
712.61	287.17
712.95	286.24
713.28	285.34
713.61	284.30
713.95	283.43
714.28	282.56
714.61	281.59
714.95	280.66
715.28	279.73
715.61	278.79
715.95	277.91
716.28	276.98
716.61	276.13
716.95	275.37
717.28	274.52
717.61	273.74
717.94	272.96
718.28	272.16
718.61	271.40
718.94	270.61
719.27	269.92
719.61	269.25
719.94	268.58
720.27	267.72
720.60	267.08
720.94	266.30
721.27	265.69
721.60	265.04
721.93	264.43
722.27	263.82
722.60	263.30
722.93	262.65
723.26	262.14
723.59	261.59
723.93	260.90
724.26	260.36
724.59	259.72
724.92	259.22
725.25	258.70
725.59	258.12
725.92	257.70
726.25	257.10
726.58	256.55
726.91	255.96
727.24	255.59
727.57	255.08
727.91	254.60
728.24	254.12
728.57	253.74
728.90	253.33
729.23	252.86
729.56	252.40
729.89	251.88
730.22	251.38
730.55	250.91
730.89	250.48
731.22	250.00
731.55	249.55
731.88	248.98
732.21	248.53
732.54	248.07
732.87	247.51
733.20	247.16
733.53	246.76
733.86	246.36
734.19	245.79
734.52	245.33
734.85	245.01
735.18	244.55
735.51	244.11
735.84	243.68
736.17	243.41
736.50	243.02
736.83	242.94
737.16	242.54
737.49	242.19
737.82	241.77
738.15	241.43
738.48	241.09
738.81	240.84
739.14	240.49
739.47	240.17
739.80	239.80
740.13	239.46
740.46	239.08
740.79	238.68
741.12	238.48
741.45	238.13
741.78	237.75
742.11	237.48
742.44	237.11
742.77	236.93
743.10	236.47
743.43	236.14
743.75	235.68
744.08	235.61
744.41	235.28
744.74	235.01
745.07	234.78
745.40	234.50
745.73	234.28
746.06	234.03
746.39	233.78
746.71	233.52
747.04	233.25
747.37	233.00
747.70	232.77
748.03	232.44
748.36	232.23
748.68	231.96
749.01	231.68
749.34	231.48
749.67	231.14
750.00	230.93
750.33	230.82
750.65	230.50
750.98	229.99
751.31	229.79
751.64	229.61
751.97	229.38
752.29	229.15
752.62	228.86
752.95	228.59
753.28	228.31
753.60	228.15
753.93	227.97
754.26	227.75
754.59	227.51
754.91	227.35
755.24	227.22
755.57	227.09
755.90	226.92
756.22	226.73
756.55	226.50
756.88	226.32
757.20	226.01
757.53	225.80
757.86	225.65
758.19	225.44
758.51	225.23
758.84	224.99
759.17	224.86
759.49	224.62
759.82	224.51
760.15	224.43
760.47	224.26
760.80	224.01
761.13	223.91
761.45	223.69
761.78	223.50
762.11	223.32
762.43	223.02
762.76	222.83
763.08	222.71
763.41	222.60
763.74	222.46
764.06	222.27
764.39	222.20
764.71	222.09
765.04	221.93
765.37	221.80
765.69	221.68
766.02	221.49
766.34	221.39
766.67	221.22
767.00	221.15
767.32	221.02
767.65	220.95
767.97	220.89
768.30	220.85
768.62	220.85
768.95	220.72
769.27	220.78
769.60	220.79
769.92	220.61
770.25	220.48
770.57	220.36
770.90	220.32
771.22	220.15
771.55	220.05
771.87	220.06
772.20	219.97
772.52	220.06
772.85	220.23
773.17	220.13
773.50	220.00
773.82	219.85
774.15	219.74
774.47	219.63
774.80	219.38
775.12	219.38
775.45	219.21
775.77	219.09
776.09	218.91
776.42	218.77
776.74	218.68
777.07	218.61
777.39	218.59
777.72	218.47
778.04	218.45
778.36	218.38
778.69	218.23
779.01	218.21
779.33	217.98
779.66	217.67
779.98	217.64
780.31	217.62
780.63	217.60
780.95	217.59
781.28	217.46
781.60	217.46
781.92	217.34
782.25	217.24
782.57	217.16
782.89	217.02
783.22	216.91
783.54	216.90
783.86	216.83
784.19	216.74
784.51	216.71
784.83	216.64
785.16	216.50
785.48	216.46
785.80	216.39
786.12	216.35
786.45	216.36
786.77	216.27
787.09	216.18
787.42	216.10
787.74	216.00
788.06	215.95
788.38	215.90
788.71	215.85
789.03	215.86
789.35	215.84
789.67	215.88
789.99	215.85
790.32	215.77
790.64	215.71
790.96	215.80
791.28	215.77
791.61	215.67
791.93	215.65
792.25	215.52
792.57	215.55
792.89	215.48
793.21	215.39
793.54	215.36
793.86	215.30
794.18	215.18
794.50	215.13
794.82	215.15
795.14	215.16
795.47	215.12
795.79	215.05
796.11	214.98
796.43	214.84
796.75	214.83
797.07	214.80
797.39	214.75
797.71	214.57
798.04	214.48
798.36	214.47
798.68	214.45
799.00	214.44
799.32	214.29
799.64	214.24
799.96	214.13
800.28	214.11
800.60	214.00
800.92	214.07
801.24	213.96
801.56	213.99
801.89	213.88
802.21	213.85
802.53	213.78
802.85	213.84
803.17	213.94
803.49	213.84
803.81	213.79
804.13	213.80
804.45	213.77
804.77	213.78
805.09	213.74
805.41	213.69
805.73	213.74
806.05	213.70
806.37	213.65
806.69	213.73
807.01	213.66
807.33	213.77
807.65	213.60
807.97	213.67
808.28	213.57
808.60	213.57
808.92	213.51
809.24	213.56
809.56	213.47
809.88	213.43
810.20	213.37
810.52	213.40
810.84	213.34
811.16	213.34
811.48	213.27
811.80	213.39
812.12	213.43
812.43	213.40
812.75	213.51
813.07	213.46
813.39	213.37
813.71	213.34
814.03	213.23
814.35	213.23
814.67	213.20
814.98	213.14
815.30	213.13
815.62	213.10
815.94	213.02
816.26	212.97
816.58	212.89
816.89	212.89
817.21	212.87
817.53	212.86
817.85	212.80
818.17	212.80
818.48	212.70
818.80	212.68
819.12	212.62
819.44	212.55
819.76	212.59
820.07	212.55
820.39	212.55
820.71	212.57
821.03	212.60
821.34	212.51
821.66	212.60
821.98	212.58
822.30	212.52
822.61	212.58
822.93	212.67
823.25	212.73
823.57	212.71
823.88	212.63
824.20	212.59
824.52	212.64
824.83	212.63
825.15	212.51
825.47	212.49
825.79	212.53
826.10	212.40
826.42	212.37
826.74	212.31
827.05	212.27
827.37	212.26
827.69	212.24
828.00	212.29
828.32	212.18
828.64	212.12
828.95	212.24
829.27	212.19
829.58	212.11
829.90	212.09
830.22	212.15
830.53	212.16
830.85	212.20
831.17	212.15
831.48	212.13
831.80	212.15
832.11	212.06
832.43	211.99
832.75	211.98
833.06	212.10
833.38	212.16
833.69	212.19
834.01	212.20
834.32	212.12
834.64	212.15
834.96	212.18
835.27	212.20
835.59	212.10
835.90	212.10
836.22	212.13
836.53	212.04
836.85	212.11
837.16	212.26
837.48	212.24
837.79	212.22
838.11	212.22
838.42	212.26
838.74	212.34
839.05	212.34
839.37	212.40
839.68	212.28
840.00	212.24
840.31	212.28
840.63	212.26
840.94	212.29
841.26	212.24
841.57	212.18
841.88	212.20
842.20	212.16
842.51	212.11
842.83	212.08
843.14	212.26
843.46	212.10
843.77	212.05
844.08	212.04
844.40	212.03
844.71	212.04
845.03	211.99
845.34	211.91
845.65	211.89
845.97	211.85
846.28	211.90
846.60	211.88
846.91	211.84
847.22	211.80
847.54	211.89
847.85	211.87
848.16	211.92
848.48	211.87
848.79	212.00
849.10	212.08
849.42	212.04
849.73	211.90
850.04	211.94
850.36	211.85
850.67	211.84
850.98	211.80
851.30	211.79
851.61	211.80
851.92	211.87
852.23	211.94
852.55	211.95
852.86	211.88
853.17	211.95
853.49	212.05
853.80	212.10
854.11	212.14
854.42	212.19
854.74	212.09
855.05	212.16
855.36	212.10
855.67	212.05
855.99	212.04
856.30	212.21
856.61	212.24
856.92	212.26
857.23	212.28
857.55	212.31
857.86	212.28
858.17	212.33
858.48	212.36
858.79	212.31
859.11	212.35
859.42	212.39
859.73	212.33
860.04	212.27
860.35	212.23
860.66	212.14
860.98	212.11
861.29	212.22
861.60	212.15
861.91	212.12
862.22	212.14
862.53	212.21
862.84	212.05
863.16	212.10
863.47	212.05
863.78	212.01
864.09	212.00
864.40	212.02
864.71	212.04
865.02	211.92
865.33	211.96
865.64	212.00
865.95	211.93
866.27	212.09
866.58	212.05
866.89	212.07
867.20	212.05
867.51	212.00
867.82	211.94
868.13	212.04
868.44	212.00
868.75	211.99
869.06	211.99
869.37	211.97
869.68	211.93
869.99	212.00
870.30	212.01
870.61	212.00
870.92	211.90
871.23	211.82
871.54	211.92
871.85	211.88
872.16	211.77
872.47	211.75
872.78	211.57
873.09	211.63
873.40	211.55
873.71	211.56
874.02	211.57
874.33	211.56
874.64	211.48
874.95	211.51
875.26	211.47
875.56	211.44
875.87	211.45
876.18	211.37
876.49	211.53
876.80	211.52
877.11	211.55
877.42	211.59
877.73	211.59
878.04	211.58
878.35	211.64
878.66	211.69
878.96	211.72
879.27	211.73
879.58	211.71
879.89	211.71
880.20	211.75
880.51	211.78
880.82	211.75
881.12	211.78
881.43	211.75
881.74	211.70
882.05	211.65
882.36	211.64
882.67	211.68
882.97	211.51
883.28	211.44
883.59	211.43
883.90	211.44
884.21	211.47
884.51	211.41
884.82	211.34
885.13	211.31
885.44	211.30
885.74	211.31
886.05	211.22
886.36	211.25
886.67	211.21
886.98	211.30
887.28	211.35
887.59	211.32
887.90	211.29
888.20	211.24
888.51	211.31
888.82	211.28
889.13	211.23
889.43	211.32
889.74	211.29
890.05	211.26
890.35	211.24
890.66	211.19
890.97	211.20
891.28	211.15
891.58	211.13
891.89	211.16
892.20	211.18
892.50	211.23
892.81	211.14
893.12	211.13
893.42	211.02
893.73	210.99
894.04	210.94
894.34	211.00
894.65	211.10
894.95	211.03
895.26	211.04
895.57	211.15
895.87	210.94
896.18	211.03
896.48	211.06
896.79	211.11
897.10	211.13
897.40	211.18
897.71	211.25
898.01	211.23
898.32	211.29
898.63	211.18
898.93	211.22
899.24	211.37
899.54	211.38
899.85	211.37
900.15	211.42
900.46	211.49
900.76	211.47
901.07	211.47
901.38	211.55
901.68	211.54
901.99	211.48
902.29	211.53
902.60	211.52
902.90	211.50
903.21	211.48
903.51	211.50
903.82	211.48
904.12	211.48
904.43	211.51
904.73	211.40
905.03	211.41
905.34	211.52
905.64	211.47
905.95	211.44
906.25	211.41
906.56	211.37
906.86	211.25
907.17	211.25
907.47	211.25
907.77	211.24
908.08	211.18
908.38	211.20
908.69	211.20
908.99	211.29
909.30	211.22
909.60	211.22
909.90	211.25
910.21	211.26
910.51	211.20
910.81	211.22
911.12	211.29
911.42	211.32
911.73	211.20
912.03	211.18
912.33	211.19
912.64	211.29
912.94	211.27
913.24	211.28
913.55	211.28
913.85	211.21
914.15	211.20
914.46	211.25
914.76	211.27
915.06	211.31
915.37	211.19
915.67	211.25
915.97	211.28
916.27	211.24
916.58	211.26
916.88	211.31
917.18	211.29
917.49	211.46
917.79	211.43
918.09	211.46
918.39	211.48
918.70	211.47
919.00	211.37
919.30	211.42
919.60	211.50
919.91	211.51
920.21	211.53
920.51	211.49
920.81	211.47
921.12	211.42
921.42	211.40
921.72	211.44
922.02	211.43
922.32	211.39
922.63	211.36
922.93	211.36
923.23	211.32
923.53	211.41
923.83	211.27
924.13	211.33
924.44	211.29
924.74	211.36
925.04	211.42
925.34	211.40
925.64	211.36
925.94	211.33
926.24	211.36
926.55	211.35
926.85	211.37
927.15	211.41
927.45	211.40
927.75	211.38
928.05	211.35
928.35	211.38
928.65	211.49
928.95	211.42
929.26	211.37
929.56	211.42
929.86	211.29
930.16	211.25
930.46	211.27
930.76	211.24
931.06	211.14
931.36	211.12
931.66	211.25
931.96	211.27
932.26	211.28
932.56	211.25
932.86	211.25
933.16	211.30
933.46	211.23
933.76	211.27
934.06	211.29
934.36	211.37
934.66	211.29
934.96	211.18
935.26	211.29
935.56	211.31
935.86	211.27
936.16	211.30
936.46	211.27
936.76	211.19
937.06	211.22
937.36	211.19
937.66	211.19
937.96	211.14
938.26	211.13
938.56	211.19
938.86	211.13
939.16	211.16
939.46	211.16
939.76	211.20
940.06	211.15
940.35	211.16
940.65	211.08
940.95	211.10
941.25	211.10
941.55	211.05
941.85	211.08
942.15	211.08
942.45	211.09
942.75	211.09
943.04	211.14
943.34	211.16
943.64	211.21
943.94	211.10
944.24	211.03
944.54	211.06
944.84	210.97
945.13	211.00
945.43	211.01
945.73	210.98
946.03	211.00
946.33	211.00
946.62	210.95
946.92	210.91
947.22	210.92
947.52	210.99
947.82	211.02
948.11	210.93
948.41	210.88
948.71	210.91
949.01	210.90
949.31	210.85
949.60	210.84
949.90	210.83
950.20	210.90
950.50	210.94
950.79	210.88
951.09	210.88
951.39	210.92
951.69	210.86
951.98	210.91
952.28	210.90
952.58	210.97
952.87	210.95
953.17	211.06
953.47	211.07
953.76	211.05
954.06	210.99
954.36	210.98
954.66	211.05
954.95	211.03
955.25	211.05
955.55	211.13
955.84	211.04
956.14	211.06
956.44	211.08
956.73	211.00
957.03	211.08
957.32	211.10
957.62	211.06
957.92	211.13
958.21	211.04
958.51	211.24
958.81	211.21
959.10	211.28
959.40	211.29
959.69	211.31
959.99	211.25
960.29	211.33
960.58	211.35
960.88	211.39
961.17	211.37
961.47	211.43
961.76	211.40
962.06	211.51
962.36	211.59
962.65	211.60
962.95	211.68
963.24	211.70
963.54	211.68
963.83	211.76
964.13	211.70
964.42	211.74
964.72	211.55
965.01	211.53
965.31	211.53
965.60	211.46
965.90	211.57
966.19	211.57
966.49	211.57
966.78	211.58
967.08	211.52
967.37	211.45
967.67	211.41
967.96	211.48
968.26	211.43
968.55	211.38
968.85	211.31
969.14	211.32
969.43	211.20
969.73	211.25
970.02	211.20
970.32	211.22
970.61	211.20
970.91	211.17
971.20	211.14
971.49	211.10
971.79	211.09
972.08	210.93
972.38	210.92
972.67	210.85
972.96	210.85
973.26	210.82
973.55	210.95
973.85	210.91
974.14	210.82
974.43	210.87
974.73	210.79
975.02	210.80
975.31	210.80
975.61	210.82
975.90	210.74
976.19	210.70
976.49	210.75
976.78	210.73
977.07	210.73
977.37	210.72
977.66	210.73
977.95	210.73
978.24	210.74
978.54	210.81
978.83	210.88
979.12	210.89
979.42	210.82
979.71	210.81
980.00	210.83
980.29	210.85
980.59	210.76
980.88	210.82
981.17	210.82
981.46	210.80
981.76	210.84
982.05	210.97
982.34	210.95
982.63	210.94
982.93	210.93
983.22	210.98
983.51	210.96
983.80	211.00
984.09	211.01
984.39	211.01
984.68	211.00
984.97	210.95
985.26	210.87
985.55	210.99
985.85	210.88
986.14	210.90
986.43	210.90
986.72	210.90
987.01	210.82
987.30	210.83
987.59	210.79
987.89	210.76
988.18	210.62
988.47	210.60
988.76	210.56
989.05	210.55
989.34	210.47
989.63	210.55
989.92	210.44
990.22	210.42
990.51	210.43
990.80	210.39
991.09	210.45
991.38	210.53
991.67	210.52
991.96	210.58
992.25	210.58
992.54	210.52
992.83	210.50
993.12	210.57
993.41	210.56
993.70	210.65
993.99	210.65
994.28	210.74
994.58	210.85
994.87	210.84
995.16	210.85
995.45	210.89
995.74	210.83
996.03	210.94
996.32	210.95
996.61	211.00
996.90	211.01
997.19	211.02
997.48	210.99
997.77	211.00
998.06	210.99
998.34	210.96
998.63	211.03
998.92	211.10
999.21	211.14
999.50	211.25
999.79	211.23
1000.08	211.27
1000.37	211.23
1000.66	211.20
1000.95	211.26
1001.24	211.37
1001.53	211.36
1001.82	211.35
1002.11	211.30
1002.40	211.35
1002.68	211.38
1002.97	211.52
1003.26	211.47
1003.55	211.50
1003.84	211.50
1004.13	211.59
1004.42	211.58
1004.71	211.53
1004.99	211.56
1005.28	211.57
1005.57	211.51
1005.86	211.54
1006.15	211.52
1006.44	211.55
1006.72	211.59
1007.01	211.50
1007.30	211.38
1007.59	211.36
1007.88	211.37
1008.17	211.33
1008.45	211.31
1008.74	211.25
1009.03	211.07
1009.32	211.16
1009.60	211.15
1009.89	211.12
1010.18	211.10
1010.47	211.07
1010.76	211.08
1011.04	210.97
1011.33	210.98
1011.62	210.95
1011.91	210.87
1012.19	210.89
1012.48	210.81
1012.77	210.76
1013.05	210.88
1013.34	210.95
1013.63	210.96
1013.92	210.99
1014.20	211.02
1014.49	211.00
1014.78	211.01
1015.06	211.03
1015.35	210.95
1015.64	210.92
1015.92	210.91
1016.21	210.90
1016.50	210.92
1016.78	210.98
1017.07	210.98
1017.36	210.93
1017.64	210.86
1017.93	210.95
1018.22	210.88
1018.50	210.84
1018.79	210.85
1019.08	210.77
1019.36	210.76
1019.65	210.71
1019.93	210.74
1020.22	210.78
1020.51	210.82
1020.79	210.75
1021.08	209.75
1021.36	209.00
1021.65	211.15
1021.94	211.05
1022.22	211.15
1022.51	209.95
1022.79	211.25
1023.08	211.35
1023.36	211.55
1023.65	209.80
>>>>>End Processed Spectral Data<<<<<
