SpectraSuite Data File
++++++++++++++++++++++++++++++++++++
Date: Mon Feb 25 17:36:29 EST 2013
User: group
Dark Spectrum Present: No
Reference Spectrum Present: No
Number of Sampled Component Spectra: 1
Spectrometers: USB2E7196
Integration Time (usec): 52000 (USB2E7196)
Spectra Averaged: 20 (USB2E7196)
Boxcar Smoothing: 10 (USB2E7196)
Correct for Electrical Dark: No (USB2E7196)
Strobe/Lamp Enabled: No (USB2E7196)
Correct for Detector Non-linearity: No (USB2E7196)
Correct for Stray Light: No (USB2E7196)
Number of Pixels in Processed Spectrum: 2048
>>>>>Begin Processed Spectral Data<<<<<
339.09	0.00
339.48	198.70
339.86	202.00
340.24	202.05
340.63	202.55
341.01	208.05
341.39	205.35
341.78	208.10
342.16	209.00
342.54	209.40
342.93	198.31
343.31	208.35
343.69	208.83
344.07	209.20
344.46	209.60
344.84	210.11
345.22	210.33
345.60	210.70
345.99	210.91
346.37	211.14
346.75	211.33
347.13	211.50
347.52	211.68
347.90	211.80
348.28	211.95
348.66	212.03
349.05	212.01
349.43	212.16
349.81	212.35
350.19	212.43
350.57	212.68
350.96	212.82
351.34	213.01
351.72	213.19
352.10	213.37
352.48	213.56
352.87	213.60
353.25	213.64
353.63	213.70
354.01	213.81
354.39	213.79
354.77	213.81
355.15	213.97
355.54	214.03
355.92	214.03
356.30	214.06
356.68	214.24
357.06	214.39
357.44	214.40
357.82	214.31
358.20	214.47
358.58	214.46
358.97	214.57
359.35	214.67
359.73	214.83
360.11	214.97
360.49	215.03
360.87	215.12
361.25	215.24
361.63	215.34
362.01	215.41
362.39	215.46
362.77	215.56
363.15	215.54
363.53	215.56
363.91	215.61
364.29	215.61
364.67	215.50
365.05	215.51
365.43	215.59
365.81	215.78
366.19	215.86
366.57	216.00
366.95	215.93
367.33	215.86
367.71	215.82
368.09	215.81
368.47	215.81
368.85	215.79
369.23	215.85
369.61	215.83
369.99	215.84
370.37	215.86
370.75	215.98
371.13	215.96
371.51	215.97
371.89	215.96
372.27	216.01
372.65	216.04
373.03	216.07
373.41	216.10
373.78	215.98
374.16	215.82
374.54	215.75
374.92	215.80
375.30	215.82
375.68	215.76
376.06	215.75
376.44	215.73
376.82	215.67
377.19	215.58
377.57	215.49
377.95	215.40
378.33	215.45
378.71	215.26
379.09	215.29
379.47	215.23
379.84	215.16
380.22	215.12
380.60	215.11
380.98	215.08
381.36	214.99
381.73	214.93
382.11	214.93
382.49	214.92
382.87	214.81
383.25	214.79
383.62	214.99
384.00	214.92
384.38	214.90
384.76	214.92
385.13	215.01
385.51	215.05
385.89	215.03
386.27	214.94
386.64	214.94
387.02	214.94
387.40	214.95
387.78	215.03
388.15	215.02
388.53	214.94
388.91	214.95
389.29	214.90
389.66	215.02
390.04	215.04
390.42	215.05
390.79	215.16
391.17	215.13
391.55	215.04
391.92	215.05
392.30	215.14
392.68	215.11
393.05	215.06
393.43	215.12
393.81	215.16
394.18	215.19
394.56	215.20
394.94	215.34
395.31	215.33
395.69	215.47
396.06	215.56
396.44	215.67
396.82	215.75
397.19	216.02
397.57	216.08
397.95	216.29
398.32	216.32
398.70	216.45
399.07	216.72
399.45	216.85
399.82	217.04
400.20	217.19
400.58	217.44
400.95	217.66
401.33	217.98
401.70	218.43
402.08	218.82
402.45	219.23
402.83	219.54
403.20	219.96
403.58	220.38
403.95	220.90
404.33	221.49
404.71	221.99
405.08	222.68
405.46	223.42
405.83	224.05
406.21	224.89
406.58	225.79
406.96	226.68
407.33	227.68
407.70	228.80
408.08	230.12
408.45	231.54
408.83	233.06
409.20	234.43
409.58	235.88
409.95	237.66
410.33	239.55
410.70	241.45
411.08	243.63
411.45	245.89
411.82	248.26
412.20	250.89
412.57	253.87
412.95	256.61
413.32	259.73
413.69	263.18
414.07	266.74
414.44	270.60
414.82	274.54
415.19	279.26
415.56	284.06
415.94	289.20
416.31	294.87
416.68	300.41
417.06	306.91
417.43	312.98
417.81	319.99
418.18	327.29
418.55	335.28
418.93	343.58
419.30	352.21
419.67	361.34
420.04	370.89
420.42	380.96
420.79	392.10
421.16	403.84
421.54	415.50
421.91	427.94
422.28	441.01
422.66	454.99
423.03	468.16
423.40	482.33
423.77	497.58
424.15	512.86
424.52	529.18
424.89	546.79
425.26	564.21
425.64	580.81
426.01	599.13
426.38	618.21
426.75	637.48
427.13	657.73
427.50	679.25
427.87	701.61
428.24	724.09
428.61	746.04
428.99	769.23
429.36	795.38
429.73	820.69
430.10	845.89
430.47	871.75
430.85	899.49
431.22	928.36
431.59	958.44
431.96	988.08
432.33	1020.59
432.70	1052.08
433.08	1088.95
433.45	1124.07
433.82	1159.18
434.19	1198.18
434.56	1236.23
434.93	1273.49
435.30	1310.38
435.68	1351.24
436.05	1391.99
436.42	1432.82
436.79	1470.24
437.16	1510.75
437.53	1553.67
437.90	1596.37
438.27	1638.49
438.64	1682.08
439.01	1722.84
439.38	1760.39
439.75	1796.21
440.13	1836.70
440.50	1874.95
440.87	1907.24
441.24	1940.70
441.61	1977.30
441.98	2005.69
442.35	2038.19
442.72	2070.49
443.09	2101.71
443.46	2122.77
443.83	2138.06
444.20	2151.97
444.57	2170.97
444.94	2181.64
445.31	2192.66
445.68	2201.79
446.05	2208.80
446.42	2208.73
446.79	2207.46
447.16	2205.53
447.53	2205.06
447.90	2193.80
448.27	2182.80
448.64	2165.01
449.01	2152.73
449.37	2128.09
449.74	2104.28
450.11	2075.01
450.48	2043.80
450.85	2011.94
451.22	1984.30
451.59	1957.63
451.96	1932.10
452.33	1896.67
452.70	1865.07
453.07	1827.06
453.43	1789.24
453.80	1751.74
454.17	1715.61
454.54	1681.84
454.91	1645.07
455.28	1609.33
455.65	1575.83
456.02	1540.10
456.38	1511.32
456.75	1475.01
457.12	1445.54
457.49	1415.64
457.86	1387.46
458.23	1362.05
458.59	1334.54
458.96	1306.66
459.33	1282.20
459.70	1257.38
460.07	1237.83
460.43	1215.12
460.80	1193.48
461.17	1175.24
461.54	1155.62
461.91	1137.30
462.27	1118.41
462.64	1102.37
463.01	1084.37
463.38	1066.47
463.74	1050.97
464.11	1035.96
464.48	1022.95
464.85	1008.20
465.21	997.03
465.58	985.07
465.95	970.75
466.32	958.75
466.68	946.64
467.05	934.65
467.42	923.00
467.78	911.04
468.15	899.49
468.52	890.72
468.88	879.25
469.25	869.17
469.62	860.77
469.98	852.01
470.35	843.88
470.72	836.38
471.08	828.55
471.45	821.34
471.82	813.85
472.18	805.74
472.55	800.30
472.92	793.78
473.28	788.01
473.65	782.66
474.02	777.13
474.38	772.76
474.75	768.95
475.11	764.68
475.48	761.25
475.85	758.51
476.21	755.80
476.58	753.31
476.94	751.63
477.31	749.29
477.67	747.17
478.04	745.75
478.41	744.60
478.77	743.64
479.14	742.73
479.50	742.48
479.87	743.20
480.23	743.57
480.60	743.55
480.96	743.86
481.33	745.27
481.69	746.86
482.06	747.99
482.42	748.72
482.79	749.99
483.15	752.43
483.52	755.60
483.88	758.27
484.25	761.50
484.61	764.55
484.98	768.00
485.34	772.14
485.71	776.45
486.07	781.43
486.44	786.60
486.80	791.83
487.17	797.52
487.53	803.81
487.90	810.52
488.26	817.74
488.62	825.27
488.99	832.50
489.35	840.34
489.72	849.47
490.08	859.37
490.44	869.07
490.81	878.74
491.17	888.25
491.54	899.06
491.90	909.82
492.26	921.32
492.63	933.34
492.99	945.65
493.36	958.31
493.72	971.46
494.08	985.07
494.45	999.69
494.81	1014.69
495.17	1029.98
495.54	1045.90
495.90	1062.43
496.26	1079.30
496.63	1096.83
496.99	1114.41
497.35	1131.82
497.72	1149.75
498.08	1168.43
498.44	1187.38
498.80	1207.68
499.17	1227.58
499.53	1247.89
499.89	1268.87
500.26	1289.92
500.62	1310.57
500.98	1332.76
501.34	1355.30
501.71	1377.73
502.07	1400.48
502.43	1423.70
502.79	1446.53
503.16	1469.47
503.52	1492.80
503.88	1515.70
504.24	1538.96
504.60	1562.68
504.97	1587.27
505.33	1611.31
505.69	1636.37
506.05	1661.03
506.41	1685.22
506.78	1709.77
507.14	1734.25
507.50	1759.16
507.86	1784.16
508.22	1810.15
508.59	1834.92
508.95	1859.98
509.31	1885.20
509.67	1910.76
510.03	1935.89
510.39	1961.74
510.75	1986.81
511.12	2011.14
511.48	2035.79
511.84	2060.54
512.20	2084.66
512.56	2109.21
512.92	2133.78
513.28	2158.27
513.64	2182.39
514.00	2205.77
514.37	2229.47
514.73	2253.23
515.09	2275.46
515.45	2298.16
515.81	2320.45
516.17	2342.90
516.53	2364.11
516.89	2385.55
517.25	2405.36
517.61	2425.25
517.97	2444.44
518.33	2463.17
518.69	2482.85
519.05	2503.02
519.41	2522.53
519.77	2542.35
520.13	2560.31
520.49	2578.02
520.85	2595.00
521.21	2612.19
521.57	2630.42
521.93	2646.36
522.29	2663.40
522.65	2680.97
523.01	2697.45
523.37	2712.86
523.73	2728.39
524.09	2743.51
524.45	2758.21
524.81	2773.04
525.17	2788.10
525.53	2802.96
525.89	2818.37
526.25	2833.29
526.61	2846.08
526.97	2859.34
527.33	2871.95
527.68	2885.54
528.04	2899.08
528.40	2911.49
528.76	2924.07
529.12	2935.02
529.48	2947.50
529.84	2957.55
530.20	2968.50
530.56	2979.59
530.91	2991.54
531.27	3002.25
531.63	3013.25
531.99	3023.69
532.35	3034.10
532.71	3044.46
533.07	3055.69
533.42	3065.22
533.78	3075.15
534.14	3085.09
534.50	3094.03
534.86	3103.63
535.21	3111.06
535.57	3120.09
535.93	3128.63
536.29	3135.93
536.65	3144.82
537.00	3152.39
537.36	3160.85
537.72	3167.77
538.08	3175.31
538.44	3181.90
538.79	3188.76
539.15	3195.41
539.51	3203.05
539.87	3210.44
540.22	3216.80
540.58	3222.89
540.94	3229.73
541.29	3234.40
541.65	3237.76
542.01	3242.31
542.37	3246.22
542.72	3251.49
543.08	3254.90
543.44	3259.10
543.79	3262.28
544.15	3264.80
544.51	3268.45
544.87	3271.55
545.22	3273.80
545.58	3274.99
545.94	3276.23
546.29	3277.44
546.65	3278.43
547.01	3278.93
547.36	3280.06
547.72	3280.81
548.07	3279.97
548.43	3279.35
548.79	3279.03
549.14	3280.82
549.50	3281.72
549.86	3282.38
550.21	3281.56
550.57	3281.42
550.92	3280.07
551.28	3279.37
551.64	3278.66
551.99	3277.95
552.35	3277.54
552.70	3277.46
553.06	3277.10
553.41	3276.88
553.77	3276.49
554.13	3275.69
554.48	3275.76
554.84	3275.08
555.19	3273.59
555.55	3273.21
555.90	3272.69
556.26	3271.95
556.61	3270.47
556.97	3267.72
557.32	3264.14
557.68	3261.77
558.03	3258.89
558.39	3256.57
558.74	3256.56
559.10	3255.98
559.45	3254.75
559.81	3253.29
560.16	3251.56
560.52	3250.58
560.87	3248.88
561.23	3245.33
561.58	3242.60
561.94	3238.15
562.29	3233.23
562.64	3229.53
563.00	3225.80
563.35	3221.57
563.71	3218.26
564.06	3215.06
564.42	3212.59
564.77	3210.24
565.12	3207.43
565.48	3204.06
565.83	3201.44
566.19	3198.22
566.54	3194.09
566.89	3189.00
567.25	3183.32
567.60	3179.27
567.96	3174.12
568.31	3168.80
568.66	3165.09
569.02	3161.23
569.37	3157.76
569.72	3154.40
570.08	3150.48
570.43	3144.55
570.78	3139.67
571.14	3134.75
571.49	3129.59
571.84	3124.41
572.20	3118.87
572.55	3114.10
572.90	3108.50
573.26	3102.12
573.61	3094.16
573.96	3086.95
574.31	3079.40
574.67	3072.97
575.02	3064.99
575.37	3056.84
575.72	3049.59
576.08	3042.31
576.43	3033.75
576.78	3025.34
577.13	3017.41
577.49	3009.92
577.84	3003.30
578.19	2995.21
578.54	2987.01
578.90	2979.13
579.25	2969.98
579.60	2960.63
579.95	2951.33
580.30	2942.85
580.66	2933.85
581.01	2924.65
581.36	2914.80
581.71	2906.58
582.06	2897.92
582.42	2889.82
582.77	2880.51
583.12	2870.79
583.47	2861.30
583.82	2852.03
584.17	2841.99
584.53	2832.35
584.88	2821.81
585.23	2811.55
585.58	2802.34
585.93	2792.25
586.28	2782.70
586.63	2773.27
586.98	2763.92
587.34	2754.65
587.69	2744.75
588.04	2735.83
588.39	2727.15
588.74	2716.75
589.09	2706.95
589.44	2695.64
589.79	2684.63
590.14	2675.02
590.49	2664.15
590.84	2653.92
591.19	2644.70
591.54	2634.26
591.89	2622.95
592.25	2612.95
592.60	2601.69
592.95	2590.24
593.30	2579.00
593.65	2568.09
594.00	2557.65
594.35	2548.28
594.70	2536.66
595.05	2525.60
595.40	2513.48
595.75	2501.16
596.10	2490.94
596.45	2479.65
596.80	2469.94
597.15	2458.95
597.50	2447.70
597.85	2437.84
598.19	2425.99
598.54	2413.89
598.89	2403.27
599.24	2393.08
599.59	2382.03
599.94	2372.80
600.29	2363.02
600.64	2353.15
600.99	2340.92
601.34	2330.10
601.69	2318.23
602.04	2307.43
602.39	2297.29
602.74	2288.45
603.08	2280.35
603.43	2272.10
603.78	2262.35
604.13	2252.19
604.48	2241.92
604.83	2232.94
605.18	2223.48
605.53	2214.15
605.87	2204.23
606.22	2194.99
606.57	2184.63
606.92	2173.60
607.27	2162.48
607.62	2151.89
607.96	2141.96
608.31	2133.79
608.66	2123.33
609.01	2113.08
609.36	2102.93
609.70	2092.17
610.05	2080.06
610.40	2067.66
610.75	2054.82
611.10	2043.64
611.44	2031.76
611.79	2020.92
612.14	2009.22
612.49	1996.50
612.83	1985.09
613.18	1973.24
613.53	1961.48
613.88	1949.35
614.22	1938.04
614.57	1925.86
614.92	1913.68
615.27	1901.28
615.61	1887.97
615.96	1876.32
616.31	1864.98
616.65	1854.08
617.00	1843.27
617.35	1832.77
617.70	1821.19
618.04	1810.02
618.39	1798.45
618.74	1787.40
619.08	1775.56
619.43	1763.55
619.78	1752.93
620.12	1742.11
620.47	1732.14
620.82	1720.91
621.16	1710.81
621.51	1700.26
621.85	1689.70
622.20	1678.85
622.55	1667.86
622.89	1657.50
623.24	1647.07
623.59	1636.18
623.93	1625.29
624.28	1614.36
624.62	1603.39
624.97	1593.23
625.32	1583.01
625.66	1573.24
626.01	1563.40
626.35	1554.69
626.70	1545.68
627.04	1536.07
627.39	1525.84
627.73	1516.19
628.08	1507.05
628.43	1497.58
628.77	1488.84
629.12	1479.50
629.46	1470.33
629.81	1460.85
630.15	1451.33
630.50	1441.72
630.84	1432.28
631.19	1422.35
631.53	1412.93
631.88	1403.76
632.22	1395.31
632.57	1386.98
632.91	1378.15
633.26	1369.27
633.60	1359.98
633.95	1351.32
634.29	1342.80
634.64	1334.77
634.98	1325.41
635.32	1316.85
635.67	1308.80
636.01	1300.28
636.36	1292.24
636.70	1284.19
637.05	1276.25
637.39	1268.33
637.73	1260.24
638.08	1253.13
638.42	1246.14
638.77	1238.69
639.11	1231.10
639.45	1222.82
639.80	1214.44
640.14	1206.47
640.49	1198.68
640.83	1190.40
641.17	1182.53
641.52	1174.65
641.86	1166.66
642.20	1159.10
642.55	1150.48
642.89	1141.58
643.23	1133.14
643.58	1125.32
643.92	1117.05
644.26	1109.00
644.61	1101.14
644.95	1092.95
645.29	1084.87
645.64	1076.65
645.98	1068.53
646.32	1060.86
646.66	1053.52
647.01	1046.18
647.35	1038.60
647.69	1030.85
648.04	1023.71
648.38	1015.76
648.72	1008.34
649.06	1000.95
649.41	993.63
649.75	986.26
650.09	979.56
650.43	972.87
650.78	965.62
651.12	958.78
651.46	952.45
651.80	945.95
652.14	939.96
652.49	933.12
652.83	926.31
653.17	919.41
653.51	912.46
653.85	906.08
654.20	899.56
654.54	893.15
654.88	886.81
655.22	880.05
655.56	873.21
655.90	866.21
656.25	859.23
656.59	852.82
656.93	846.85
657.27	840.75
657.61	834.00
657.95	827.98
658.29	822.10
658.64	816.07
658.98	809.87
659.32	803.56
659.66	797.72
660.00	791.85
660.34	786.41
660.68	780.74
661.02	774.20
661.36	768.25
661.70	762.55
662.05	757.18
662.39	751.89
662.73	746.98
663.07	742.31
663.41	737.61
663.75	732.80
664.09	727.67
664.43	722.33
664.77	717.55
665.11	712.72
665.45	708.01
665.79	702.91
666.13	698.18
666.47	693.77
666.81	689.09
667.15	684.80
667.49	680.29
667.83	675.86
668.17	671.85
668.51	667.76
668.85	663.47
669.19	659.30
669.53	655.02
669.87	650.51
670.21	646.11
670.55	641.79
670.89	637.41
671.23	633.56
671.57	629.43
671.91	625.23
672.25	621.18
672.58	616.81
672.92	612.90
673.26	609.05
673.60	605.15
673.94	601.51
674.28	597.90
674.62	594.25
674.96	590.39
675.30	586.76
675.64	583.00
675.97	579.36
676.31	575.88
676.65	572.78
676.99	569.93
677.33	566.66
677.67	563.39
678.01	560.03
678.34	556.36
678.68	553.20
679.02	550.05
679.36	546.59
679.70	543.43
680.04	540.32
680.37	537.13
680.71	533.86
681.05	530.52
681.39	527.32
681.73	523.91
682.06	521.00
682.40	517.86
682.74	514.83
683.08	511.72
683.42	508.32
683.75	505.05
684.09	501.74
684.43	498.79
684.77	495.61
685.10	492.47
685.44	489.55
685.78	486.52
686.12	483.58
686.45	480.83
686.79	478.03
687.13	475.29
687.46	472.55
687.80	469.75
688.14	467.14
688.48	464.36
688.81	461.76
689.15	459.18
689.49	456.50
689.82	453.64
690.16	450.89
690.50	448.24
690.83	445.56
691.17	442.87
691.51	440.21
691.84	437.84
692.18	435.52
692.52	433.31
692.85	431.10
693.19	428.77
693.52	426.42
693.86	423.95
694.20	421.52
694.53	419.05
694.87	416.55
695.21	414.07
695.54	411.64
695.88	409.32
696.21	407.07
696.55	404.95
696.88	403.00
697.22	401.05
697.56	399.28
697.89	397.28
698.23	395.35
698.56	393.28
698.90	391.28
699.23	389.35
699.57	387.35
699.90	385.21
700.24	383.17
700.58	381.21
700.91	379.50
701.25	377.62
701.58	375.93
701.92	374.34
702.25	372.69
702.59	371.07
702.92	369.45
703.26	367.72
703.59	366.17
703.93	364.72
704.26	363.05
704.60	361.27
704.93	359.49
705.26	357.83
705.60	356.35
705.93	354.88
706.27	353.42
706.60	351.84
706.94	350.50
707.27	348.94
707.61	347.37
707.94	345.75
708.27	344.18
708.61	342.68
708.94	341.17
709.28	339.84
709.61	338.36
709.94	336.86
710.28	335.35
710.61	333.68
710.95	331.92
711.28	330.61
711.61	329.22
711.95	327.92
712.28	326.63
712.61	325.26
712.95	323.95
713.28	322.66
713.61	321.39
713.95	320.02
714.28	318.92
714.61	317.75
714.95	316.65
715.28	315.51
715.61	314.24
715.95	313.03
716.28	311.76
716.61	310.52
716.95	309.25
717.28	308.06
717.61	307.11
717.94	306.12
718.28	304.91
718.61	303.83
718.94	302.71
719.27	301.64
719.61	300.57
719.94	299.59
720.27	298.54
720.60	297.62
720.94	296.72
721.27	295.82
721.60	294.99
721.93	294.05
722.27	293.26
722.60	292.43
722.93	291.53
723.26	290.67
723.59	289.91
723.93	289.33
724.26	288.59
724.59	287.64
724.92	286.94
725.25	286.21
725.59	285.47
725.92	284.80
726.25	284.17
726.58	283.52
726.91	282.81
727.24	281.99
727.57	281.15
727.91	280.37
728.24	279.60
728.57	278.81
728.90	278.05
729.23	277.20
729.56	276.50
729.89	275.77
730.22	275.05
730.55	274.32
730.89	273.56
731.22	272.86
731.55	272.24
731.88	271.51
732.21	270.87
732.54	270.16
732.87	269.51
733.20	268.82
733.53	268.20
733.86	267.51
734.19	267.01
734.52	266.48
734.85	266.09
735.18	265.59
735.51	265.04
735.84	264.54
736.17	264.01
736.50	263.43
736.83	263.18
737.16	262.70
737.49	262.23
737.82	261.64
738.15	261.15
738.48	260.70
738.81	260.12
739.14	259.52
739.47	259.05
739.80	258.58
740.13	258.00
740.46	257.50
740.79	257.01
741.12	256.46
741.45	255.95
741.78	255.34
742.11	254.85
742.44	254.33
742.77	253.87
743.10	253.41
743.43	252.90
743.75	252.26
744.08	251.98
744.41	251.45
744.74	251.03
745.07	250.57
745.40	250.17
745.73	249.96
746.06	249.55
746.39	249.09
746.71	248.63
747.04	248.25
747.37	247.92
747.70	247.55
748.03	247.16
748.36	246.87
748.68	246.48
749.01	245.99
749.34	245.60
749.67	245.22
750.00	244.86
750.33	244.70
750.65	244.34
750.98	243.81
751.31	243.55
751.64	243.19
751.97	242.83
752.29	242.40
752.62	241.86
752.95	241.58
753.28	241.26
753.60	240.90
753.93	240.54
754.26	240.05
754.59	239.58
754.91	239.19
755.24	238.83
755.57	238.57
755.90	238.40
756.22	238.07
756.55	237.77
756.88	237.42
757.20	237.03
757.53	236.67
757.86	236.33
758.19	236.04
758.51	235.78
758.84	235.49
759.17	235.26
759.49	235.03
759.82	234.88
760.15	234.57
760.47	234.39
760.80	234.14
761.13	233.88
761.45	233.68
761.78	233.40
762.11	233.15
762.43	232.81
762.76	232.42
763.08	232.23
763.41	231.98
763.74	231.79
764.06	231.51
764.39	231.28
764.71	231.03
765.04	230.73
765.37	230.42
765.69	230.11
766.02	229.89
766.34	229.67
766.67	229.31
767.00	229.23
767.32	229.02
767.65	228.92
767.97	228.78
768.30	228.62
768.62	228.49
768.95	228.22
769.27	227.95
769.60	227.81
769.92	227.65
770.25	227.45
770.57	227.18
770.90	226.91
771.22	226.68
771.55	226.53
771.87	226.33
772.20	226.16
772.52	226.21
772.85	226.21
773.17	226.03
773.50	225.83
773.82	225.57
774.15	225.36
774.47	225.11
774.80	224.89
775.12	224.72
775.45	224.55
775.77	224.42
776.09	224.36
776.42	224.19
776.74	224.03
777.07	223.80
777.39	223.66
777.72	223.55
778.04	223.52
778.36	223.34
778.69	223.28
779.01	223.22
779.33	222.93
779.66	222.61
779.98	222.45
780.31	222.40
780.63	222.31
780.95	222.25
781.28	222.15
781.60	222.02
781.92	221.88
782.25	221.71
782.57	221.62
782.89	221.55
783.22	221.43
783.54	221.33
783.86	221.35
784.19	221.34
784.51	221.22
784.83	221.02
785.16	220.97
785.48	220.78
785.80	220.64
786.12	220.60
786.45	220.49
786.77	220.41
787.09	220.30
787.42	220.16
787.74	219.97
788.06	219.84
788.38	219.73
788.71	219.68
789.03	219.75
789.35	219.72
789.67	219.48
789.99	219.50
790.32	219.31
790.64	219.18
790.96	219.18
791.28	219.04
791.61	218.97
791.93	218.92
792.25	218.95
792.57	219.02
792.89	218.86
793.21	218.86
793.54	218.76
793.86	218.62
794.18	218.57
794.50	218.53
794.82	218.47
795.14	218.47
795.47	218.40
795.79	218.22
796.11	218.04
796.43	218.04
796.75	217.93
797.07	217.89
797.39	217.85
797.71	217.68
798.04	217.65
798.36	217.60
798.68	217.49
799.00	217.42
799.32	217.23
799.64	217.24
799.96	217.15
800.28	217.15
800.60	217.10
800.92	217.10
801.24	217.09
801.56	217.06
801.89	217.01
802.21	216.96
802.53	216.88
802.85	216.92
803.17	216.96
803.49	216.83
803.81	216.75
804.13	216.73
804.45	216.67
804.77	216.62
805.09	216.53
805.41	216.53
805.73	216.38
806.05	216.33
806.37	216.30
806.69	216.23
807.01	216.10
807.33	216.09
807.65	215.90
807.97	215.91
808.28	215.89
808.60	215.85
808.92	215.80
809.24	215.90
809.56	215.80
809.88	215.72
810.20	215.75
810.52	215.79
810.84	215.71
811.16	215.62
811.48	215.58
811.80	215.64
812.12	215.52
812.43	215.54
812.75	215.44
813.07	215.31
813.39	215.19
813.71	215.16
814.03	215.10
814.35	215.06
814.67	214.90
814.98	214.83
815.30	214.74
815.62	214.70
815.94	214.56
816.26	214.53
816.58	214.41
816.89	214.38
817.21	214.26
817.53	214.17
817.85	214.15
818.17	214.14
818.48	214.07
818.80	214.07
819.12	214.04
819.44	214.05
819.76	213.98
820.07	214.05
820.39	213.99
820.71	214.01
821.03	214.04
821.34	213.93
821.66	213.95
821.98	213.89
822.30	213.82
822.61	213.89
822.93	213.89
823.25	213.89
823.57	213.78
823.88	213.85
824.20	213.85
824.52	213.88
824.83	213.88
825.15	213.80
825.47	213.72
825.79	213.73
826.10	213.69
826.42	213.71
826.74	213.70
827.05	213.72
827.37	213.62
827.69	213.63
828.00	213.65
828.32	213.63
828.64	213.64
828.95	213.70
829.27	213.58
829.58	213.60
829.90	213.57
830.22	213.62
830.53	213.60
830.85	213.58
831.17	213.55
831.48	213.45
831.80	213.51
832.11	213.58
832.43	213.45
832.75	213.40
833.06	213.46
833.38	213.39
833.69	213.40
834.01	213.47
834.32	213.38
834.64	213.36
834.96	213.31
835.27	213.28
835.59	213.26
835.90	213.25
836.22	213.18
836.53	213.15
836.85	213.15
837.16	213.26
837.48	213.29
837.79	213.25
838.11	213.29
838.42	213.22
838.74	213.19
839.05	213.22
839.37	213.16
839.68	213.11
840.00	213.06
840.31	213.03
840.63	212.90
840.94	212.92
841.26	212.93
841.57	212.93
841.88	212.92
842.20	212.91
842.51	212.88
842.83	212.91
843.14	212.99
843.46	212.98
843.77	212.78
844.08	212.67
844.40	212.63
844.71	212.64
845.03	212.63
845.34	212.55
845.65	212.58
845.97	212.60
846.28	212.58
846.60	212.62
846.91	212.63
847.22	212.67
847.54	212.72
847.85	212.71
848.16	212.64
848.48	212.64
848.79	212.69
849.10	212.68
849.42	212.65
849.73	212.58
850.04	212.50
850.36	212.54
850.67	212.56
850.98	212.59
851.30	212.53
851.61	212.46
851.92	212.49
852.23	212.53
852.55	212.59
852.86	212.60
853.17	212.55
853.49	212.59
853.80	212.60
854.11	212.65
854.42	212.69
854.74	212.70
855.05	212.66
855.36	212.51
855.67	212.54
855.99	212.50
856.30	212.64
856.61	212.67
856.92	212.62
857.23	212.68
857.55	212.68
857.86	212.73
858.17	212.77
858.48	212.74
858.79	212.67
859.11	212.66
859.42	212.65
859.73	212.61
860.04	212.57
860.35	212.52
860.66	212.39
860.98	212.37
861.29	212.42
861.60	212.50
861.91	212.54
862.22	212.49
862.53	212.48
862.84	212.27
863.16	212.27
863.47	212.24
863.78	212.19
864.09	212.13
864.40	212.07
864.71	212.06
865.02	212.10
865.33	212.05
865.64	212.04
865.95	212.03
866.27	212.19
866.58	212.19
866.89	212.28
867.20	212.29
867.51	212.25
867.82	212.16
868.13	212.10
868.44	212.11
868.75	212.14
869.06	212.21
869.37	212.22
869.68	212.16
869.99	212.20
870.30	212.16
870.61	212.22
870.92	212.21
871.23	212.21
871.54	212.26
871.85	212.38
872.16	212.35
872.47	212.29
872.78	212.21
873.09	212.17
873.40	212.02
873.71	212.07
874.02	212.01
874.33	212.02
874.64	212.01
874.95	211.97
875.26	211.94
875.56	211.97
875.87	212.00
876.18	211.98
876.49	212.19
876.80	212.25
877.11	212.15
877.42	212.17
877.73	212.17
878.04	212.05
878.35	212.09
878.66	212.12
878.96	212.18
879.27	212.19
879.58	212.20
879.89	212.25
880.20	212.27
880.51	212.31
880.82	212.31
881.12	212.36
881.43	212.39
881.74	212.35
882.05	212.25
882.36	212.22
882.67	212.30
882.97	212.03
883.28	212.00
883.59	211.97
883.90	211.97
884.21	211.99
884.51	211.99
884.82	211.87
885.13	211.86
885.44	211.73
885.74	211.63
886.05	211.64
886.36	211.65
886.67	211.53
886.98	211.61
887.28	211.61
887.59	211.55
887.90	211.49
888.20	211.50
888.51	211.49
888.82	211.46
889.13	211.45
889.43	211.60
889.74	211.56
890.05	211.59
890.35	211.54
890.66	211.45
890.97	211.43
891.28	211.38
891.58	211.38
891.89	211.40
892.20	211.41
892.50	211.30
892.81	211.26
893.12	211.34
893.42	211.27
893.73	211.30
894.04	211.32
894.34	211.31
894.65	211.26
894.95	211.25
895.26	211.24
895.57	211.29
895.87	211.18
896.18	211.19
896.48	211.25
896.79	211.26
897.10	211.33
897.40	211.37
897.71	211.42
898.01	211.35
898.32	211.41
898.63	211.44
898.93	211.49
899.24	211.52
899.54	211.45
899.85	211.50
900.15	211.47
900.46	211.46
900.76	211.50
901.07	211.55
901.38	211.60
901.68	211.63
901.99	211.51
902.29	211.50
902.60	211.43
902.90	211.37
903.21	211.42
903.51	211.38
903.82	211.40
904.12	211.36
904.43	211.40
904.73	211.40
905.03	211.39
905.34	211.57
905.64	211.54
905.95	211.50
906.25	211.48
906.56	211.46
906.86	211.49
907.17	211.50
907.47	211.49
907.77	211.40
908.08	211.39
908.38	211.39
908.69	211.44
908.99	211.50
909.30	211.59
909.60	211.57
909.90	211.58
910.21	211.56
910.51	211.60
910.81	211.56
911.12	211.55
911.42	211.56
911.73	211.35
912.03	211.38
912.33	211.44
912.64	211.34
912.94	211.38
913.24	211.30
913.55	211.25
913.85	211.23
914.15	211.28
914.46	211.27
914.76	211.29
915.06	211.30
915.37	211.29
915.67	211.25
915.97	211.17
916.27	211.15
916.58	211.14
916.88	211.12
917.18	211.13
917.49	211.23
917.79	211.21
918.09	211.24
918.39	211.28
918.70	211.21
919.00	211.25
919.30	211.30
919.60	211.36
919.91	211.38
920.21	211.43
920.51	211.37
920.81	211.35
921.12	211.34
921.42	211.32
921.72	211.30
922.02	211.24
922.32	211.29
922.63	211.25
922.93	211.34
923.23	211.27
923.53	211.25
923.83	211.15
924.13	211.13
924.44	211.17
924.74	211.17
925.04	211.28
925.34	211.29
925.64	211.19
925.94	211.09
926.24	211.14
926.55	211.09
926.85	211.14
927.15	211.09
927.45	211.11
927.75	211.05
928.05	211.08
928.35	211.13
928.65	211.18
928.95	211.19
929.26	211.07
929.56	211.10
929.86	211.15
930.16	211.12
930.46	211.14
930.76	211.09
931.06	211.03
931.36	210.96
931.66	210.99
931.96	211.05
932.26	211.11
932.56	211.09
932.86	211.09
933.16	211.12
933.46	211.15
933.76	211.15
934.06	211.27
934.36	211.28
934.66	211.30
934.96	211.27
935.26	211.34
935.56	211.38
935.86	211.38
936.16	211.35
936.46	211.39
936.76	211.39
937.06	211.42
937.36	211.39
937.66	211.41
937.96	211.32
938.26	211.25
938.56	211.28
938.86	211.29
939.16	211.33
939.46	211.30
939.76	211.26
940.06	211.20
940.35	211.06
940.65	211.00
940.95	210.99
941.25	210.98
941.55	210.96
941.85	211.03
942.15	211.07
942.45	211.13
942.75	211.10
943.04	211.08
943.34	211.11
943.64	211.14
943.94	211.15
944.24	211.24
944.54	211.24
944.84	211.19
945.13	211.22
945.43	211.11
945.73	211.05
946.03	211.03
946.33	211.05
946.62	211.06
946.92	211.01
947.22	211.09
947.52	211.08
947.82	211.08
948.11	211.03
948.41	210.95
948.71	210.88
949.01	210.95
949.31	210.98
949.60	210.91
949.90	210.94
950.20	210.89
950.50	210.85
950.79	210.86
951.09	210.87
951.39	210.77
951.69	210.81
951.98	210.91
952.28	211.00
952.58	211.01
952.87	211.02
953.17	211.05
953.47	210.99
953.76	210.95
954.06	210.85
954.36	210.83
954.66	210.86
954.95	210.89
955.25	210.86
955.55	210.89
955.84	210.91
956.14	210.85
956.44	210.90
956.73	210.83
957.03	210.88
957.32	210.88
957.62	210.88
957.92	210.91
958.21	210.87
958.51	211.07
958.81	211.12
959.10	211.10
959.40	211.18
959.69	211.17
959.99	211.23
960.29	211.24
960.58	211.25
960.88	211.32
961.17	211.30
961.47	211.28
961.76	211.14
962.06	211.19
962.36	211.23
962.65	211.20
962.95	211.26
963.24	211.26
963.54	211.30
963.83	211.32
964.13	211.34
964.42	211.24
964.72	211.05
965.01	211.00
965.31	211.01
965.60	210.97
965.90	211.07
966.19	211.03
966.49	211.02
966.78	210.98
967.08	210.99
967.37	211.05
967.67	210.98
967.96	210.98
968.26	210.90
968.55	210.88
968.85	210.92
969.14	210.81
969.43	210.83
969.73	210.73
970.02	210.73
970.32	210.75
970.61	210.79
970.91	210.74
971.20	210.75
971.49	210.77
971.79	210.78
972.08	210.66
972.38	210.65
972.67	210.68
972.96	210.66
973.26	210.57
973.55	210.59
973.85	210.66
974.14	210.76
974.43	210.76
974.73	210.75
975.02	210.67
975.31	210.68
975.61	210.66
975.90	210.71
976.19	210.70
976.49	210.65
976.78	210.66
977.07	210.65
977.37	210.64
977.66	210.65
977.95	210.63
978.24	210.60
978.54	210.62
978.83	210.66
979.12	210.73
979.42	210.77
979.71	210.72
980.00	210.70
980.29	210.73
980.59	210.75
980.88	210.81
981.17	210.88
981.46	210.95
981.76	210.92
982.05	210.97
982.34	211.03
982.63	211.06
982.93	211.03
983.22	211.10
983.51	211.07
983.80	211.08
984.09	211.12
984.39	211.14
984.68	211.10
984.97	211.08
985.26	211.04
985.55	211.00
985.85	210.92
986.14	210.96
986.43	210.98
986.72	210.93
987.01	210.90
987.30	210.89
987.59	210.88
987.89	210.83
988.18	210.77
988.47	210.67
988.76	210.72
989.05	210.74
989.34	210.70
989.63	210.82
989.92	210.83
990.22	210.84
990.51	210.84
990.80	210.91
991.09	210.91
991.38	210.90
991.67	210.94
991.96	210.95
992.25	210.94
992.54	210.83
992.83	210.86
993.12	210.77
993.41	210.80
993.70	210.90
993.99	210.99
994.28	211.06
994.58	211.15
994.87	211.00
995.16	211.05
995.45	211.08
995.74	211.03
996.03	211.02
996.32	211.01
996.61	211.02
996.90	210.95
997.19	210.98
997.48	211.00
997.77	210.95
998.06	210.96
998.34	210.95
998.63	210.95
998.92	210.97
999.21	211.03
999.50	211.03
999.79	210.97
1000.08	210.99
1000.37	211.03
1000.66	210.99
1000.95	211.11
1001.24	211.07
1001.53	211.09
1001.82	211.02
1002.11	211.01
1002.40	211.02
1002.68	211.00
1002.97	211.20
1003.26	211.19
1003.55	211.15
1003.84	211.15
1004.13	211.21
1004.42	211.21
1004.71	211.20
1004.99	211.20
1005.28	211.24
1005.57	211.23
1005.86	211.07
1006.15	210.94
1006.44	210.77
1006.72	210.78
1007.01	210.67
1007.30	210.71
1007.59	210.67
1007.88	210.71
1008.17	210.69
1008.45	210.64
1008.74	210.62
1009.03	210.51
1009.32	210.44
1009.60	210.48
1009.89	210.45
1010.18	210.40
1010.47	210.40
1010.76	210.45
1011.04	210.44
1011.33	210.40
1011.62	210.29
1011.91	210.39
1012.19	210.46
1012.48	210.58
1012.77	210.51
1013.05	210.64
1013.34	210.59
1013.63	210.58
1013.92	210.55
1014.20	210.60
1014.49	210.65
1014.78	210.62
1015.06	210.55
1015.35	210.58
1015.64	210.63
1015.92	210.72
1016.21	210.74
1016.50	210.70
1016.78	210.75
1017.07	210.73
1017.36	210.76
1017.64	210.84
1017.93	210.92
1018.22	210.97
1018.50	210.95
1018.79	211.04
1019.08	210.98
1019.36	211.04
1019.65	211.05
1019.93	211.06
1020.22	211.06
1020.51	211.08
1020.79	211.12
1021.08	211.90
1021.36	210.65
1021.65	211.55
1021.94	211.05
1022.22	211.65
1022.51	211.00
1022.79	210.85
1023.08	211.10
1023.36	211.95
1023.65	211.00
>>>>>End Processed Spectral Data<<<<<
