SpectraSuite Data File
++++++++++++++++++++++++++++++++++++
Date: Mon Feb 25 17:32:30 EST 2013
User: group
Dark Spectrum Present: No
Reference Spectrum Present: No
Number of Sampled Component Spectra: 1
Spectrometers: USB2E7196
Integration Time (usec): 52000 (USB2E7196)
Spectra Averaged: 20 (USB2E7196)
Boxcar Smoothing: 10 (USB2E7196)
Correct for Electrical Dark: No (USB2E7196)
Strobe/Lamp Enabled: No (USB2E7196)
Correct for Detector Non-linearity: No (USB2E7196)
Correct for Stray Light: No (USB2E7196)
Number of Pixels in Processed Spectrum: 2048
>>>>>Begin Processed Spectral Data<<<<<
339.09	0.00
339.48	199.00
339.86	200.80
340.24	201.65
340.63	200.95
341.01	207.30
341.39	204.70
341.78	207.40
342.16	207.70
342.54	208.95
342.93	197.84
343.31	207.89
343.69	208.42
344.07	208.83
344.46	209.25
344.84	209.70
345.22	209.86
345.60	210.22
345.99	210.44
346.37	210.58
346.75	210.71
347.13	210.84
347.52	210.93
347.90	211.03
348.28	211.03
348.66	211.16
349.05	211.18
349.43	211.20
349.81	211.15
350.19	211.22
350.57	211.27
350.96	211.38
351.34	211.40
351.72	211.49
352.10	211.59
352.48	211.68
352.87	211.78
353.25	211.82
353.63	211.82
354.01	211.85
354.39	211.97
354.77	212.07
355.15	212.10
355.54	212.19
355.92	212.21
356.30	212.34
356.68	212.47
357.06	212.58
357.44	212.72
357.82	212.85
358.20	212.91
358.58	213.02
358.97	213.09
359.35	213.28
359.73	213.36
360.11	213.51
360.49	213.67
360.87	213.77
361.25	213.93
361.63	214.09
362.01	214.19
362.39	214.23
362.77	214.27
363.15	214.36
363.53	214.37
363.91	214.45
364.29	214.50
364.67	214.34
365.05	214.41
365.43	214.39
365.81	214.48
366.19	214.64
366.57	214.70
366.95	214.73
367.33	214.68
367.71	214.75
368.09	214.73
368.47	214.63
368.85	214.56
369.23	214.50
369.61	214.43
369.99	214.45
370.37	214.47
370.75	214.50
371.13	214.44
371.51	214.41
371.89	214.39
372.27	214.38
372.65	214.36
373.03	214.29
373.41	214.21
373.78	214.10
374.16	213.90
374.54	213.82
374.92	213.79
375.30	213.72
375.68	213.62
376.06	213.59
376.44	213.58
376.82	213.58
377.19	213.54
377.57	213.48
377.95	213.28
378.33	213.14
378.71	212.95
379.09	212.94
379.47	212.88
379.84	212.74
380.22	212.66
380.60	212.63
380.98	212.54
381.36	212.52
381.73	212.45
382.11	212.44
382.49	212.36
382.87	212.35
383.25	212.32
383.62	212.41
384.00	212.35
384.38	212.27
384.76	212.25
385.13	212.26
385.51	212.25
385.89	212.28
386.27	212.31
386.64	212.33
387.02	212.26
387.40	212.32
387.78	212.38
388.15	212.31
388.53	212.31
388.91	212.34
389.29	212.32
389.66	212.34
390.04	212.34
390.42	212.38
390.79	212.29
391.17	212.21
391.55	212.06
391.92	212.05
392.30	212.07
392.68	212.00
393.05	211.98
393.43	211.89
393.81	211.90
394.18	211.81
394.56	211.86
394.94	211.89
395.31	211.77
395.69	211.78
396.06	211.89
396.44	211.87
396.82	211.85
397.19	211.92
397.57	211.97
397.95	212.03
398.32	211.97
398.70	212.02
399.07	212.11
399.45	212.07
399.82	212.03
400.20	212.04
400.58	212.11
400.95	212.09
401.33	212.23
401.70	212.40
402.08	212.55
402.45	212.52
402.83	212.62
403.20	212.76
403.58	212.82
403.95	212.85
404.33	212.91
404.71	213.02
405.08	213.22
405.46	213.28
405.83	213.41
406.21	213.57
406.58	213.71
406.96	213.90
407.33	214.10
407.70	214.41
408.08	214.76
408.45	214.98
408.83	215.28
409.20	215.45
409.58	215.57
409.95	215.82
410.33	216.15
410.70	216.38
411.08	216.67
411.45	217.07
411.82	217.48
412.20	218.02
412.57	218.55
412.95	218.84
413.32	219.27
413.69	219.81
414.07	220.36
414.44	220.97
414.82	221.59
415.19	222.32
415.56	222.98
415.94	223.68
416.31	224.56
416.68	225.48
417.06	226.48
417.43	227.46
417.81	228.56
418.18	229.67
418.55	230.87
418.93	232.23
419.30	233.55
419.67	234.85
420.04	236.24
420.42	237.71
420.79	239.44
421.16	241.29
421.54	243.08
421.91	244.94
422.28	246.90
422.66	248.90
423.03	250.99
423.40	252.96
423.77	255.19
424.15	257.33
424.52	259.58
424.89	262.03
425.26	264.54
425.64	266.79
426.01	269.41
426.38	272.05
426.75	274.72
427.13	277.40
427.50	280.37
427.87	283.40
428.24	286.46
428.61	289.42
428.99	292.60
429.36	296.06
429.73	299.45
430.10	302.78
430.47	306.32
430.85	309.90
431.22	314.02
431.59	318.00
431.96	321.95
432.33	326.19
432.70	330.39
433.08	335.13
433.45	339.75
433.82	344.30
434.19	349.44
434.56	354.31
434.93	359.12
435.30	363.85
435.68	369.04
436.05	374.24
436.42	379.23
436.79	383.90
437.16	388.90
437.53	394.19
437.90	399.47
438.27	404.75
438.64	410.08
439.01	414.90
439.38	419.41
439.75	423.60
440.13	428.51
440.50	433.11
440.87	436.80
441.24	440.71
441.61	444.99
441.98	448.05
442.35	451.64
442.72	455.30
443.09	458.76
443.46	460.79
443.83	462.05
444.20	463.31
444.57	465.12
444.94	465.90
445.31	466.70
445.68	467.41
446.05	467.44
446.42	466.80
446.79	465.95
447.16	464.98
447.53	464.33
447.90	462.25
448.27	460.12
448.64	457.35
449.01	455.17
449.37	451.53
449.74	448.04
450.11	444.05
450.48	439.50
450.85	434.92
451.22	431.01
451.59	427.35
451.96	423.80
452.33	418.88
452.70	414.59
453.07	409.47
453.43	404.29
453.80	399.31
454.17	394.50
454.54	390.01
454.91	385.29
455.28	380.66
455.65	376.22
456.02	371.92
456.38	368.14
456.75	363.60
457.12	359.66
457.49	355.84
457.86	352.13
458.23	348.90
458.59	345.40
458.96	341.88
459.33	338.70
459.70	335.61
460.07	333.13
460.43	330.24
460.80	327.59
461.17	325.25
461.54	322.85
461.91	320.56
462.27	318.26
462.64	316.21
463.01	313.98
463.38	312.00
463.74	309.74
464.11	307.92
464.48	306.29
464.85	304.59
465.21	303.24
465.58	301.74
465.95	300.17
466.32	298.84
466.68	297.50
467.05	296.09
467.42	294.81
467.78	293.48
468.15	292.13
468.52	291.19
468.88	289.90
469.25	288.75
469.62	287.83
469.98	286.81
470.35	285.92
470.72	285.04
471.08	284.00
471.45	283.24
471.82	282.39
472.18	281.46
472.55	280.89
472.92	280.24
473.28	279.59
473.65	278.95
474.02	278.39
474.38	278.01
474.75	277.70
475.11	277.18
475.48	276.80
475.85	276.69
476.21	276.43
476.58	276.29
476.94	276.23
477.31	276.17
477.67	276.04
478.04	276.05
478.41	276.26
478.77	276.60
479.14	276.78
479.50	277.12
479.87	277.48
480.23	277.90
480.60	278.27
480.96	278.76
481.33	279.46
481.69	280.06
482.06	280.61
482.42	281.28
482.79	281.96
483.15	282.96
483.52	283.95
483.88	284.93
484.25	285.91
484.61	286.93
484.98	287.96
485.34	289.28
485.71	290.68
486.07	292.04
486.44	293.30
486.80	294.89
487.17	296.47
487.53	298.26
487.90	300.04
488.26	302.03
488.62	304.15
488.99	306.15
489.35	308.37
489.72	310.59
490.08	312.97
490.44	315.45
490.81	317.99
491.17	320.63
491.54	323.44
491.90	326.52
492.26	329.84
492.63	333.24
492.99	336.73
493.36	340.33
493.72	344.23
494.08	348.32
494.45	352.59
494.81	357.08
495.17	361.62
495.54	366.52
495.90	371.49
496.26	376.55
496.63	382.08
496.99	387.70
497.35	393.70
497.72	399.94
498.08	406.40
498.44	413.06
498.80	420.21
499.17	427.68
499.53	435.30
499.89	443.20
500.26	451.42
500.62	459.81
500.98	468.57
501.34	477.58
501.71	486.93
502.07	496.59
502.43	506.44
502.79	516.70
503.16	527.20
503.52	538.08
503.88	549.35
504.24	560.72
504.60	572.80
504.97	585.30
505.33	597.85
505.69	611.12
506.05	624.67
506.41	638.17
506.78	652.01
507.14	666.01
507.50	680.37
507.86	695.33
508.22	710.88
508.59	726.64
508.95	742.59
509.31	758.82
509.67	775.25
510.03	792.26
510.39	809.78
510.75	827.56
511.12	845.57
511.48	863.94
511.84	882.67
512.20	901.11
512.56	920.12
512.92	939.60
513.28	959.15
513.64	979.10
514.00	998.80
514.37	1019.19
514.73	1040.15
515.09	1061.16
515.45	1081.87
515.81	1102.89
516.17	1124.12
516.53	1145.45
516.89	1166.74
517.25	1188.54
517.61	1210.30
517.97	1231.78
518.33	1253.20
518.69	1274.97
519.05	1296.91
519.41	1319.24
519.77	1341.93
520.13	1363.95
520.49	1385.92
520.85	1408.70
521.21	1430.82
521.57	1453.96
521.93	1475.84
522.29	1498.31
522.65	1520.76
523.01	1543.02
523.37	1564.68
523.73	1586.85
524.09	1608.92
524.45	1631.44
524.81	1653.67
525.17	1675.71
525.53	1698.06
525.89	1720.35
526.25	1742.40
526.61	1763.60
526.97	1784.95
527.33	1806.02
527.68	1827.41
528.04	1848.38
528.40	1868.32
528.76	1889.05
529.12	1909.68
529.48	1931.31
529.84	1951.99
530.20	1972.18
530.56	1992.81
530.91	2014.01
531.27	2034.24
531.63	2054.24
531.99	2074.09
532.35	2093.09
532.71	2112.29
533.07	2131.60
533.42	2149.91
533.78	2168.67
534.14	2187.27
534.50	2204.24
534.86	2222.30
535.21	2239.15
535.57	2257.10
535.93	2274.42
536.29	2291.07
536.65	2307.78
537.00	2323.20
537.36	2338.20
537.72	2353.52
538.08	2368.58
538.44	2383.63
538.79	2399.02
539.15	2413.90
539.51	2428.50
539.87	2444.05
540.22	2458.56
540.58	2473.08
540.94	2487.57
541.29	2500.36
541.65	2512.64
542.01	2526.10
542.37	2537.81
542.72	2550.08
543.08	2560.73
543.44	2572.42
543.79	2582.76
544.15	2592.59
544.51	2603.61
544.87	2614.57
545.22	2623.50
545.58	2631.96
545.94	2639.08
546.29	2645.10
546.65	2651.18
547.01	2657.11
547.36	2662.55
547.72	2667.93
548.07	2672.13
548.43	2675.87
548.79	2679.62
549.14	2683.97
549.50	2688.27
549.86	2692.15
550.21	2695.88
550.57	2700.25
550.92	2702.86
551.28	2705.78
551.64	2708.23
551.99	2710.47
552.35	2711.91
552.70	2714.60
553.06	2717.48
553.41	2720.55
553.77	2723.49
554.13	2725.82
554.48	2727.68
554.84	2729.05
555.19	2729.40
555.55	2729.79
555.90	2730.25
556.26	2730.90
556.61	2730.98
556.97	2729.44
557.32	2728.96
557.68	2727.55
558.03	2725.64
558.39	2724.00
558.74	2723.15
559.10	2722.12
559.45	2719.79
559.81	2718.71
560.16	2716.07
560.52	2713.22
560.87	2710.04
561.23	2706.47
561.58	2704.15
561.94	2701.03
562.29	2697.18
562.64	2694.79
563.00	2692.19
563.35	2690.21
563.71	2688.28
564.06	2686.08
564.42	2684.39
564.77	2682.11
565.12	2680.24
565.48	2677.28
565.83	2674.68
566.19	2671.49
566.54	2667.17
566.89	2663.75
567.25	2659.64
567.60	2656.57
567.96	2653.05
568.31	2649.32
568.66	2645.41
569.02	2640.68
569.37	2635.47
569.72	2631.82
570.08	2626.46
570.43	2620.95
570.78	2615.23
571.14	2608.74
571.49	2602.15
571.84	2596.21
572.20	2589.62
572.55	2582.84
572.90	2576.27
573.26	2569.11
573.61	2561.76
573.96	2555.53
574.31	2547.57
574.67	2539.72
575.02	2531.02
575.37	2522.38
575.72	2513.54
576.08	2506.18
576.43	2497.74
576.78	2489.90
577.13	2481.36
577.49	2473.49
577.84	2466.03
578.19	2458.42
578.54	2451.46
578.90	2444.63
579.25	2435.59
579.60	2426.11
579.95	2417.27
580.30	2408.97
580.66	2400.69
581.01	2392.00
581.36	2382.36
581.71	2373.94
582.06	2365.10
582.42	2356.96
582.77	2348.08
583.12	2339.46
583.47	2330.62
583.82	2322.20
584.17	2313.45
584.53	2304.43
584.88	2295.73
585.23	2286.10
585.58	2276.41
585.93	2266.45
586.28	2257.20
586.63	2248.96
586.98	2240.84
587.34	2232.29
587.69	2223.37
588.04	2214.63
588.39	2206.21
588.74	2197.60
589.09	2189.12
589.44	2179.91
589.79	2171.54
590.14	2164.01
590.49	2155.49
590.84	2146.58
591.19	2138.56
591.54	2129.46
591.89	2119.50
592.25	2110.31
592.60	2101.27
592.95	2092.00
593.30	2082.62
593.65	2072.37
594.00	2062.57
594.35	2054.48
594.70	2045.17
595.05	2036.31
595.40	2027.40
595.75	2017.81
596.10	2009.21
596.45	2000.62
596.80	1992.99
597.15	1984.80
597.50	1975.30
597.85	1967.04
598.19	1958.19
598.54	1949.37
598.89	1942.03
599.24	1935.63
599.59	1928.17
599.94	1920.99
600.29	1913.23
600.64	1905.70
600.99	1897.64
601.34	1890.22
601.69	1881.14
602.04	1873.27
602.39	1865.35
602.74	1857.57
603.08	1850.99
603.43	1843.96
603.78	1835.96
604.13	1827.80
604.48	1819.68
604.83	1812.84
605.18	1805.75
605.53	1798.28
605.87	1790.79
606.22	1783.38
606.57	1775.13
606.92	1767.18
607.27	1759.14
607.62	1751.99
607.96	1744.72
608.31	1738.70
608.66	1731.02
609.01	1723.82
609.36	1716.16
609.70	1708.18
610.05	1700.43
610.40	1692.33
610.75	1683.75
611.10	1676.04
611.44	1666.96
611.79	1657.90
612.14	1648.46
612.49	1638.57
612.83	1629.97
613.18	1620.24
613.53	1610.76
613.88	1601.32
614.22	1592.31
614.57	1583.40
614.92	1574.02
615.27	1564.91
615.61	1555.15
615.96	1546.52
616.31	1537.71
616.65	1529.53
617.00	1521.42
617.35	1512.75
617.70	1503.86
618.04	1494.99
618.39	1485.59
618.74	1477.35
619.08	1468.80
619.43	1460.88
619.78	1453.37
620.12	1445.25
620.47	1437.84
620.82	1429.48
621.16	1421.30
621.51	1412.99
621.85	1404.57
622.20	1396.12
622.55	1387.66
622.89	1379.35
623.24	1371.29
623.59	1362.89
623.93	1354.52
624.28	1346.17
624.62	1337.91
624.97	1329.61
625.32	1321.90
625.66	1314.73
626.01	1307.32
626.35	1300.10
626.70	1292.20
627.04	1284.68
627.39	1277.15
627.73	1269.53
628.08	1262.49
628.43	1255.19
628.77	1247.67
629.12	1240.27
629.46	1233.68
629.81	1226.60
630.15	1219.23
630.50	1211.75
630.84	1204.33
631.19	1197.13
631.53	1190.17
631.88	1182.62
632.22	1175.14
632.57	1168.07
632.91	1160.55
633.26	1153.21
633.60	1146.17
633.95	1139.46
634.29	1132.31
634.64	1125.42
634.98	1118.30
635.32	1111.36
635.67	1104.80
636.01	1098.44
636.36	1091.81
636.70	1085.01
637.05	1078.36
637.39	1072.17
637.73	1065.95
638.08	1060.19
638.42	1054.16
638.77	1047.72
639.11	1041.60
639.45	1035.52
639.80	1029.10
640.14	1022.75
640.49	1016.70
640.83	1010.37
641.17	1004.02
641.52	997.73
641.86	991.28
642.20	985.13
642.55	978.46
642.89	972.15
643.23	965.59
643.58	959.61
643.92	953.05
644.26	946.88
644.61	940.88
644.95	934.57
645.29	928.34
645.64	921.93
645.98	915.86
646.32	910.04
646.66	904.21
647.01	898.33
647.35	892.66
647.69	886.31
648.04	880.44
648.38	874.57
648.72	868.63
649.06	862.62
649.41	856.73
649.75	850.95
650.09	845.06
650.43	839.36
650.78	833.17
651.12	827.34
651.46	821.46
651.80	815.61
652.14	809.78
652.49	803.76
652.83	798.00
653.17	791.81
653.51	785.80
653.85	780.19
654.20	774.22
654.54	768.34
654.88	762.75
655.22	757.01
655.56	750.95
655.90	745.16
656.25	739.55
656.59	733.93
656.93	728.84
657.27	723.66
657.61	718.14
657.95	712.90
658.29	707.77
658.64	702.87
658.98	697.60
659.32	692.31
659.66	687.27
660.00	681.82
660.34	676.82
660.68	671.91
661.02	666.76
661.36	662.08
661.70	657.35
662.05	652.77
662.39	648.35
662.73	644.10
663.07	639.89
663.41	635.62
663.75	631.07
664.09	626.29
664.43	621.60
664.77	617.24
665.11	612.91
665.45	608.66
665.79	604.08
666.13	599.76
666.47	595.65
666.81	591.56
667.15	587.52
667.49	583.61
667.83	579.60
668.17	575.75
668.51	571.95
668.85	568.11
669.19	564.44
669.53	560.37
669.87	556.32
670.21	552.57
670.55	548.57
670.89	545.21
671.23	542.02
671.57	538.68
671.91	535.25
672.25	531.59
672.58	528.03
672.92	524.72
673.26	521.51
673.60	518.08
673.94	514.69
674.28	511.46
674.62	508.31
674.96	505.21
675.30	501.99
675.64	498.74
675.97	495.63
676.31	492.44
676.65	489.53
676.99	486.90
677.33	483.83
677.67	480.91
678.01	477.73
678.34	474.51
678.68	471.56
679.02	468.57
679.36	465.90
679.70	463.07
680.04	460.01
680.37	457.00
680.71	454.33
681.05	451.72
681.39	449.09
681.73	446.47
682.06	443.85
682.40	441.35
682.74	438.74
683.08	436.27
683.42	433.79
683.75	431.36
684.09	428.71
684.43	426.29
684.77	423.85
685.10	421.40
685.44	418.85
685.78	416.27
686.12	414.00
686.45	411.57
686.79	409.25
687.13	407.23
687.46	405.20
687.80	403.02
688.14	400.66
688.48	398.60
688.81	396.33
689.15	394.11
689.49	391.92
689.82	389.81
690.16	387.42
690.50	384.99
690.83	382.81
691.17	380.64
691.51	378.38
691.84	376.27
692.18	374.25
692.52	372.44
692.85	370.65
693.19	368.73
693.52	366.84
693.86	365.01
694.20	363.03
694.53	361.01
694.87	358.99
695.21	357.09
695.54	355.08
695.88	353.10
696.21	351.38
696.55	349.64
696.88	347.79
697.22	346.08
697.56	344.72
697.89	342.97
698.23	341.32
698.56	339.76
698.90	338.29
699.23	336.69
699.57	335.01
699.90	333.33
700.24	331.70
700.58	330.16
700.91	328.60
701.25	327.21
701.58	325.77
701.92	324.40
702.25	323.08
702.59	321.79
702.92	320.50
703.26	319.02
703.59	317.72
703.93	316.65
704.26	315.41
704.60	314.01
704.93	312.88
705.26	311.67
705.60	310.49
705.93	309.24
706.27	308.15
706.60	307.15
706.94	306.12
707.27	304.96
707.61	303.76
707.94	302.56
708.27	301.34
708.61	300.28
708.94	299.10
709.28	297.96
709.61	296.81
709.94	295.80
710.28	294.72
710.61	293.63
710.95	292.38
711.28	291.53
711.61	290.54
711.95	289.49
712.28	288.44
712.61	287.43
712.95	286.51
713.28	285.50
713.61	284.46
713.95	283.53
714.28	282.62
714.61	281.77
714.95	280.94
715.28	279.98
715.61	279.00
715.95	278.15
716.28	277.30
716.61	276.45
716.95	275.55
717.28	274.81
717.61	273.93
717.94	273.15
718.28	272.21
718.61	271.49
718.94	270.63
719.27	269.94
719.61	269.20
719.94	268.50
720.27	267.71
720.60	266.93
720.94	266.10
721.27	265.42
721.60	264.70
721.93	263.97
722.27	263.37
722.60	262.85
722.93	262.25
723.26	261.61
723.59	260.97
723.93	260.46
724.26	259.85
724.59	259.34
724.92	258.80
725.25	258.34
725.59	257.72
725.92	257.20
726.25	256.62
726.58	256.17
726.91	255.57
727.24	255.08
727.57	254.65
727.91	254.15
728.24	253.74
728.57	253.39
728.90	253.06
729.23	252.52
729.56	252.01
729.89	251.64
730.22	251.15
730.55	250.77
730.89	250.28
731.22	249.82
731.55	249.32
731.88	248.89
732.21	248.37
732.54	247.90
732.87	247.49
733.20	247.09
733.53	246.57
733.86	246.17
734.19	245.70
734.52	245.30
734.85	245.10
735.18	244.66
735.51	244.25
735.84	243.78
736.17	243.52
736.50	243.07
736.83	242.81
737.16	242.50
737.49	242.16
737.82	241.77
738.15	241.46
738.48	241.13
738.81	240.78
739.14	240.38
739.47	240.05
739.80	239.71
740.13	239.33
740.46	239.09
740.79	238.81
741.12	238.52
741.45	238.18
741.78	237.75
742.11	237.47
742.44	237.14
742.77	236.89
743.10	236.61
743.43	236.35
743.75	235.82
744.08	235.69
744.41	235.31
744.74	235.07
745.07	234.74
745.40	234.47
745.73	234.31
746.06	234.04
746.39	233.74
746.71	233.42
747.04	233.17
747.37	232.83
747.70	232.52
748.03	232.31
748.36	232.07
748.68	231.76
749.01	231.50
749.34	231.24
749.67	230.95
750.00	230.67
750.33	230.46
750.65	230.27
750.98	229.84
751.31	229.67
751.64	229.40
751.97	229.20
752.29	228.95
752.62	228.63
752.95	228.42
753.28	228.28
753.60	228.10
753.93	227.96
754.26	227.80
754.59	227.57
754.91	227.37
755.24	227.21
755.57	227.03
755.90	226.80
756.22	226.59
756.55	226.32
756.88	226.12
757.20	225.88
757.53	225.61
757.86	225.47
758.19	225.24
758.51	225.05
758.84	224.86
759.17	224.70
759.49	224.46
759.82	224.35
760.15	224.15
760.47	223.97
760.80	223.74
761.13	223.52
761.45	223.28
761.78	223.15
762.11	222.95
762.43	222.79
762.76	222.68
763.08	222.56
763.41	222.52
763.74	222.37
764.06	222.20
764.39	222.16
764.71	222.04
765.04	221.91
765.37	221.78
765.69	221.66
766.02	221.47
766.34	221.39
766.67	221.24
767.00	221.16
767.32	221.18
767.65	221.18
767.97	221.07
768.30	221.13
768.62	220.99
768.95	220.88
769.27	220.80
769.60	220.60
769.92	220.52
770.25	220.31
770.57	220.19
770.90	220.08
771.22	219.94
771.55	219.83
771.87	219.75
772.20	219.62
772.52	219.70
772.85	219.97
773.17	219.83
773.50	219.74
773.82	219.61
774.15	219.44
774.47	219.26
774.80	219.15
775.12	218.95
775.45	218.88
775.77	218.83
776.09	218.74
776.42	218.73
776.74	218.66
777.07	218.66
777.39	218.62
777.72	218.60
778.04	218.55
778.36	218.44
778.69	218.42
779.01	218.40
779.33	218.10
779.66	217.73
779.98	217.71
780.31	217.66
780.63	217.76
780.95	217.75
781.28	217.61
781.60	217.57
781.92	217.50
782.25	217.45
782.57	217.40
782.89	217.36
783.22	217.29
783.54	217.16
783.86	217.07
784.19	216.99
784.51	216.92
784.83	216.86
785.16	216.76
785.48	216.68
785.80	216.60
786.12	216.59
786.45	216.52
786.77	216.48
787.09	216.40
787.42	216.19
787.74	216.09
788.06	216.10
788.38	216.08
788.71	216.05
789.03	215.94
789.35	215.88
789.67	215.80
789.99	215.75
790.32	215.72
790.64	215.74
790.96	215.79
791.28	215.73
791.61	215.68
791.93	215.67
792.25	215.54
792.57	215.65
792.89	215.54
793.21	215.57
793.54	215.40
793.86	215.32
794.18	215.28
794.50	215.21
794.82	215.15
795.14	215.05
795.47	215.03
795.79	215.02
796.11	214.95
796.43	214.85
796.75	214.80
797.07	214.73
797.39	214.70
797.71	214.63
798.04	214.51
798.36	214.44
798.68	214.38
799.00	214.37
799.32	214.25
799.64	214.30
799.96	214.18
800.28	214.26
800.60	214.33
800.92	214.26
801.24	214.25
801.56	214.26
801.89	214.22
802.21	214.22
802.53	214.15
802.85	214.14
803.17	214.26
803.49	214.23
803.81	214.22
804.13	214.15
804.45	214.04
804.77	214.09
805.09	214.12
805.41	214.15
805.73	214.10
806.05	214.03
806.37	214.00
806.69	214.01
807.01	213.94
807.33	213.86
807.65	213.83
807.97	213.83
808.28	213.76
808.60	213.78
808.92	213.67
809.24	213.79
809.56	213.72
809.88	213.63
810.20	213.58
810.52	213.54
810.84	213.52
811.16	213.50
811.48	213.50
811.80	213.46
812.12	213.39
812.43	213.43
812.75	213.44
813.07	213.39
813.39	213.37
813.71	213.33
814.03	213.30
814.35	213.28
814.67	213.16
814.98	213.14
815.30	213.11
815.62	213.09
815.94	212.97
816.26	213.00
816.58	212.90
816.89	212.92
817.21	212.91
817.53	212.84
817.85	212.76
818.17	212.68
818.48	212.64
818.80	212.64
819.12	212.59
819.44	212.50
819.76	212.48
820.07	212.47
820.39	212.45
820.71	212.40
821.03	212.41
821.34	212.41
821.66	212.45
821.98	212.45
822.30	212.47
822.61	212.52
822.93	212.53
823.25	212.59
823.57	212.57
823.88	212.60
824.20	212.58
824.52	212.69
824.83	212.67
825.15	212.64
825.47	212.68
825.79	212.67
826.10	212.60
826.42	212.55
826.74	212.55
827.05	212.53
827.37	212.60
827.69	212.58
828.00	212.60
828.32	212.59
828.64	212.55
828.95	212.61
829.27	212.55
829.58	212.52
829.90	212.52
830.22	212.51
830.53	212.48
830.85	212.47
831.17	212.35
831.48	212.38
831.80	212.37
832.11	212.31
832.43	212.33
832.75	212.35
833.06	212.52
833.38	212.47
833.69	212.50
834.01	212.41
834.32	212.38
834.64	212.36
834.96	212.34
835.27	212.38
835.59	212.33
835.90	212.28
836.22	212.27
836.53	212.22
836.85	212.23
837.16	212.40
837.48	212.45
837.79	212.56
838.11	212.60
838.42	212.59
838.74	212.65
839.05	212.60
839.37	212.66
839.68	212.52
840.00	212.57
840.31	212.60
840.63	212.54
840.94	212.50
841.26	212.49
841.57	212.45
841.88	212.41
842.20	212.36
842.51	212.36
842.83	212.32
843.14	212.46
843.46	212.47
843.77	212.32
844.08	212.29
844.40	212.23
844.71	212.13
845.03	212.14
845.34	212.00
845.65	212.05
845.97	212.00
846.28	212.01
846.60	211.97
846.91	211.94
847.22	212.05
847.54	212.11
847.85	212.16
848.16	212.21
848.48	212.18
848.79	212.25
849.10	212.24
849.42	212.24
849.73	212.10
850.04	212.02
850.36	212.01
850.67	212.02
850.98	212.01
851.30	212.08
851.61	211.99
851.92	212.05
852.23	212.11
852.55	212.15
852.86	212.10
853.17	212.14
853.49	212.22
853.80	212.25
854.11	212.28
854.42	212.22
854.74	212.15
855.05	212.20
855.36	212.13
855.67	212.15
855.99	212.12
856.30	212.40
856.61	212.43
856.92	212.44
857.23	212.42
857.55	212.33
857.86	212.24
858.17	212.30
858.48	212.24
858.79	212.16
859.11	212.07
859.42	212.05
859.73	211.98
860.04	211.89
860.35	211.77
860.66	211.70
860.98	211.71
861.29	211.75
861.60	211.67
861.91	211.62
862.22	211.59
862.53	211.62
862.84	211.30
863.16	211.34
863.47	211.24
863.78	211.25
864.09	211.28
864.40	211.34
864.71	211.35
865.02	211.35
865.33	211.37
865.64	211.39
865.95	211.35
866.27	211.45
866.58	211.44
866.89	211.47
867.20	211.48
867.51	211.50
867.82	211.49
868.13	211.58
868.44	211.59
868.75	211.62
869.06	211.63
869.37	211.61
869.68	211.55
869.99	211.62
870.30	211.62
870.61	211.62
870.92	211.51
871.23	211.52
871.54	211.54
871.85	211.50
872.16	211.54
872.47	211.61
872.78	211.51
873.09	211.51
873.40	211.53
873.71	211.52
874.02	211.43
874.33	211.35
874.64	211.30
874.95	211.36
875.26	211.36
875.56	211.31
875.87	211.31
876.18	211.32
876.49	211.45
876.80	211.44
877.11	211.47
877.42	211.53
877.73	211.51
878.04	211.52
878.35	211.56
878.66	211.53
878.96	211.51
879.27	211.47
879.58	211.40
879.89	211.37
880.20	211.40
880.51	211.45
880.82	211.43
881.12	211.44
881.43	211.41
881.74	211.36
882.05	211.34
882.36	211.41
882.67	211.41
882.97	211.25
883.28	211.23
883.59	211.23
883.90	211.23
884.21	211.23
884.51	211.25
884.82	211.15
885.13	211.20
885.44	211.21
885.74	211.22
886.05	211.31
886.36	211.26
886.67	211.20
886.98	211.33
887.28	211.40
887.59	211.40
887.90	211.40
888.20	211.38
888.51	211.41
888.82	211.40
889.13	211.43
889.43	211.53
889.74	211.50
890.05	211.51
890.35	211.48
890.66	211.53
890.97	211.47
891.28	211.49
891.58	211.47
891.89	211.42
892.20	211.38
892.50	211.34
892.81	211.39
893.12	211.44
893.42	211.35
893.73	211.40
894.04	211.37
894.34	211.45
894.65	211.46
894.95	211.43
895.26	211.37
895.57	211.39
895.87	211.34
896.18	211.35
896.48	211.37
896.79	211.39
897.10	211.44
897.40	211.46
897.71	211.52
898.01	211.50
898.32	211.55
898.63	211.55
898.93	211.56
899.24	211.51
899.54	211.45
899.85	211.45
900.15	211.41
900.46	211.41
900.76	211.38
901.07	211.35
901.38	211.40
901.68	211.51
901.99	211.47
902.29	211.45
902.60	211.49
902.90	211.44
903.21	211.48
903.51	211.35
903.82	211.40
904.12	211.38
904.43	211.40
904.73	211.41
905.03	211.47
905.34	211.72
905.64	211.77
905.95	211.80
906.25	211.76
906.56	211.71
906.86	211.76
907.17	211.71
907.47	211.72
907.77	211.69
908.08	211.58
908.38	211.54
908.69	211.50
908.99	211.49
909.30	211.51
909.60	211.53
909.90	211.57
910.21	211.50
910.51	211.57
910.81	211.49
911.12	211.54
911.42	211.51
911.73	211.25
912.03	211.20
912.33	211.24
912.64	211.30
912.94	211.27
913.24	211.21
913.55	211.20
913.85	211.18
914.15	211.19
914.46	211.24
914.76	211.25
915.06	211.30
915.37	211.26
915.67	211.15
915.97	211.09
916.27	211.05
916.58	211.05
916.88	211.01
917.18	211.04
917.49	211.07
917.79	211.07
918.09	211.10
918.39	211.15
918.70	211.04
919.00	210.92
919.30	211.01
919.60	211.01
919.91	210.98
920.21	210.99
920.51	210.96
920.81	210.93
921.12	211.02
921.42	211.00
921.72	211.06
922.02	211.09
922.32	211.11
922.63	211.07
922.93	211.11
923.23	211.09
923.53	211.10
923.83	211.00
924.13	210.98
924.44	210.95
924.74	210.95
925.04	211.05
925.34	211.11
925.64	211.09
925.94	211.11
926.24	211.21
926.55	211.28
926.85	211.38
927.15	211.39
927.45	211.34
927.75	211.26
928.05	211.24
928.35	211.35
928.65	211.38
928.95	211.48
929.26	211.46
929.56	211.49
929.86	211.55
930.16	211.55
930.46	211.58
930.76	211.60
931.06	211.58
931.36	211.49
931.66	211.51
931.96	211.46
932.26	211.41
932.56	211.38
932.86	211.34
933.16	211.32
933.46	211.32
933.76	211.21
934.06	211.30
934.36	211.34
934.66	211.28
934.96	211.25
935.26	211.25
935.56	211.26
935.86	211.14
936.16	211.11
936.46	211.11
936.76	211.17
937.06	211.14
937.36	211.13
937.66	211.18
937.96	211.14
938.26	211.15
938.56	211.14
938.86	211.08
939.16	211.14
939.46	211.15
939.76	211.13
940.06	211.21
940.35	211.15
940.65	211.09
940.95	211.11
941.25	211.06
941.55	211.06
941.85	211.06
942.15	211.18
942.45	211.18
942.75	211.20
943.04	211.06
943.34	211.10
943.64	211.16
943.94	211.13
944.24	211.21
944.54	211.16
944.84	211.17
945.13	211.17
945.43	211.09
945.73	211.00
946.03	211.04
946.33	211.02
946.62	211.03
946.92	211.05
947.22	211.05
947.52	211.07
947.82	211.08
948.11	211.08
948.41	211.04
948.71	211.07
949.01	211.07
949.31	211.19
949.60	211.15
949.90	211.12
950.20	211.07
950.50	211.01
950.79	210.98
951.09	210.99
951.39	211.03
951.69	211.04
951.98	211.18
952.28	211.18
952.58	211.13
952.87	211.11
953.17	211.06
953.47	210.96
953.76	211.02
954.06	210.95
954.36	210.88
954.66	210.87
954.95	210.84
955.25	210.90
955.55	210.82
955.84	210.81
956.14	210.85
956.44	210.95
956.73	210.92
957.03	210.99
957.32	210.99
957.62	210.95
957.92	211.01
958.21	210.98
958.51	211.15
958.81	211.24
959.10	211.31
959.40	211.35
959.69	211.41
959.99	211.47
960.29	211.48
960.58	211.55
960.88	211.59
961.17	211.53
961.47	211.46
961.76	211.48
962.06	211.52
962.36	211.45
962.65	211.41
962.95	211.45
963.24	211.41
963.54	211.47
963.83	211.45
964.13	211.40
964.42	211.32
964.72	211.18
965.01	211.12
965.31	211.12
965.60	211.09
965.90	211.23
966.19	211.16
966.49	211.16
966.78	211.06
967.08	211.01
967.37	211.05
967.67	211.05
967.96	211.11
968.26	211.11
968.55	211.19
968.85	211.25
969.14	211.23
969.43	211.20
969.73	211.13
970.02	211.13
970.32	211.11
970.61	211.05
970.91	210.91
971.20	210.87
971.49	210.83
971.79	210.83
972.08	210.61
972.38	210.57
972.67	210.55
972.96	210.60
973.26	210.62
973.55	210.63
973.85	210.55
974.14	210.51
974.43	210.47
974.73	210.36
975.02	210.32
975.31	210.28
975.61	210.30
975.90	210.36
976.19	210.34
976.49	210.33
976.78	210.45
977.07	210.54
977.37	210.61
977.66	210.68
977.95	210.57
978.24	210.72
978.54	210.77
978.83	210.79
979.12	210.80
979.42	210.78
979.71	210.79
980.00	210.80
980.29	210.75
980.59	210.78
980.88	210.84
981.17	210.85
981.46	210.91
981.76	210.94
982.05	210.95
982.34	211.02
982.63	211.06
982.93	211.00
983.22	211.01
983.51	211.01
983.80	211.00
984.09	211.10
984.39	211.04
984.68	211.02
984.97	211.07
985.26	211.07
985.55	211.12
985.85	211.11
986.14	211.22
986.43	211.27
986.72	211.30
987.01	211.23
987.30	211.18
987.59	211.16
987.89	211.21
988.18	211.16
988.47	211.11
988.76	211.11
989.05	211.07
989.34	211.09
989.63	211.10
989.92	211.05
990.22	211.08
990.51	211.10
990.80	211.10
991.09	211.10
991.38	211.15
991.67	211.10
991.96	211.08
992.25	211.01
992.54	211.03
992.83	210.99
993.12	211.05
993.41	211.09
993.70	211.20
993.99	211.20
994.28	211.24
994.58	211.35
994.87	211.26
995.16	211.22
995.45	211.19
995.74	211.16
996.03	211.18
996.32	211.19
996.61	211.20
996.90	211.20
997.19	211.14
997.48	211.17
997.77	211.10
998.06	211.10
998.34	211.12
998.63	211.13
998.92	211.20
999.21	211.21
999.50	211.25
999.79	211.23
1000.08	211.19
1000.37	211.19
1000.66	211.08
1000.95	211.19
1001.24	211.33
1001.53	211.39
1001.82	211.39
1002.11	211.37
1002.40	211.40
1002.68	211.42
1002.97	211.59
1003.26	211.59
1003.55	211.57
1003.84	211.65
1004.13	211.69
1004.42	211.69
1004.71	211.67
1004.99	211.55
1005.28	211.57
1005.57	211.56
1005.86	211.52
1006.15	211.50
1006.44	211.47
1006.72	211.57
1007.01	211.55
1007.30	211.54
1007.59	211.46
1007.88	211.44
1008.17	211.41
1008.45	211.32
1008.74	211.26
1009.03	211.20
1009.32	211.26
1009.60	211.15
1009.89	211.11
1010.18	211.07
1010.47	211.01
1010.76	210.98
1011.04	211.09
1011.33	211.08
1011.62	211.04
1011.91	211.05
1012.19	211.08
1012.48	211.06
1012.77	211.02
1013.05	211.07
1013.34	211.01
1013.63	211.04
1013.92	211.03
1014.20	210.97
1014.49	211.00
1014.78	211.03
1015.06	210.94
1015.35	210.86
1015.64	210.94
1015.92	210.98
1016.21	211.03
1016.50	211.06
1016.78	211.11
1017.07	211.07
1017.36	211.02
1017.64	210.98
1017.93	210.97
1018.22	210.99
1018.50	211.06
1018.79	211.00
1019.08	210.93
1019.36	211.02
1019.65	210.98
1019.93	211.07
1020.22	211.17
1020.51	211.25
1020.79	211.23
1021.08	211.65
1021.36	211.80
1021.65	210.45
1021.94	210.85
1022.22	212.75
1022.51	210.75
1022.79	211.90
1023.08	211.10
1023.36	212.80
1023.65	210.75
>>>>>End Processed Spectral Data<<<<<
