SpectraSuite Data File
++++++++++++++++++++++++++++++++++++
Date: Mon Feb 25 17:33:23 EST 2013
User: group
Dark Spectrum Present: No
Reference Spectrum Present: No
Number of Sampled Component Spectra: 1
Spectrometers: USB2E7196
Integration Time (usec): 52000 (USB2E7196)
Spectra Averaged: 20 (USB2E7196)
Boxcar Smoothing: 10 (USB2E7196)
Correct for Electrical Dark: No (USB2E7196)
Strobe/Lamp Enabled: No (USB2E7196)
Correct for Detector Non-linearity: No (USB2E7196)
Correct for Stray Light: No (USB2E7196)
Number of Pixels in Processed Spectrum: 2048
>>>>>Begin Processed Spectral Data<<<<<
339.09	0.00
339.48	198.75
339.86	200.25
340.24	201.70
340.63	202.60
341.01	207.55
341.39	205.55
341.78	208.55
342.16	208.80
342.54	210.00
342.93	198.31
343.31	208.35
343.69	208.91
344.07	209.39
344.46	209.87
344.84	210.33
345.22	210.51
345.60	210.75
345.99	210.91
346.37	211.10
346.75	211.10
347.13	211.24
347.52	211.30
347.90	211.38
348.28	211.45
348.66	211.57
349.05	211.47
349.43	211.58
349.81	211.70
350.19	211.73
350.57	211.83
350.96	211.92
351.34	212.04
351.72	212.10
352.10	212.14
352.48	212.21
352.87	212.22
353.25	212.25
353.63	212.39
354.01	212.47
354.39	212.51
354.77	212.63
355.15	212.68
355.54	212.71
355.92	212.68
356.30	212.74
356.68	212.86
357.06	212.97
357.44	213.03
357.82	213.00
358.20	213.09
358.58	213.20
358.97	213.24
359.35	213.31
359.73	213.45
360.11	213.57
360.49	213.61
360.87	213.66
361.25	213.73
361.63	213.79
362.01	213.77
362.39	213.82
362.77	213.88
363.15	213.92
363.53	213.99
363.91	214.04
364.29	214.03
364.67	213.86
365.05	213.92
365.43	213.92
365.81	214.01
366.19	214.04
366.57	214.07
366.95	214.06
367.33	213.96
367.71	213.91
368.09	213.92
368.47	213.95
368.85	213.95
369.23	214.01
369.61	213.94
369.99	214.04
370.37	213.98
370.75	214.03
371.13	213.91
371.51	213.79
371.89	213.80
372.27	213.78
372.65	213.80
373.03	213.72
373.41	213.66
373.78	213.68
374.16	213.57
374.54	213.47
374.92	213.40
375.30	213.37
375.68	213.26
376.06	213.23
376.44	213.13
376.82	213.09
377.19	213.00
377.57	212.90
377.95	212.72
378.33	212.71
378.71	212.58
379.09	212.60
379.47	212.65
379.84	212.58
380.22	212.57
380.60	212.52
380.98	212.45
381.36	212.41
381.73	212.30
382.11	212.26
382.49	212.20
382.87	212.14
383.25	212.15
383.62	212.40
384.00	212.26
384.38	212.22
384.76	212.18
385.13	212.18
385.51	212.21
385.89	212.16
386.27	212.11
386.64	212.09
387.02	212.06
387.40	212.02
387.78	211.97
388.15	211.91
388.53	211.87
388.91	211.83
389.29	211.78
389.66	211.76
390.04	211.73
390.42	211.77
390.79	211.76
391.17	211.70
391.55	211.38
391.92	211.42
392.30	211.44
392.68	211.36
393.05	211.38
393.43	211.39
393.81	211.42
394.18	211.40
394.56	211.32
394.94	211.35
395.31	211.28
395.69	211.35
396.06	211.34
396.44	211.31
396.82	211.33
397.19	211.44
397.57	211.37
397.95	211.40
398.32	211.30
398.70	211.36
399.07	211.39
399.45	211.54
399.82	211.55
400.20	211.57
400.58	211.62
400.95	211.57
401.33	211.68
401.70	211.83
402.08	211.94
402.45	212.05
402.83	212.19
403.20	212.28
403.58	212.34
403.95	212.51
404.33	212.60
404.71	212.72
405.08	212.91
405.46	213.13
405.83	213.30
406.21	213.45
406.58	213.57
406.96	213.70
407.33	213.87
407.70	214.09
408.08	214.44
408.45	214.69
408.83	214.94
409.20	215.09
409.58	215.27
409.95	215.55
410.33	215.89
410.70	216.12
411.08	216.57
411.45	216.94
411.82	217.32
412.20	217.79
412.57	218.33
412.95	218.62
413.32	219.04
413.69	219.54
414.07	220.17
414.44	220.84
414.82	221.48
415.19	222.18
415.56	222.93
415.94	223.55
416.31	224.52
416.68	225.42
417.06	226.40
417.43	227.37
417.81	228.51
418.18	229.62
418.55	230.83
418.93	232.01
419.30	233.32
419.67	234.74
420.04	236.15
420.42	237.67
420.79	239.45
421.16	241.28
421.54	243.10
421.91	244.97
422.28	246.86
422.66	248.96
423.03	251.06
423.40	253.08
423.77	255.36
424.15	257.53
424.52	259.86
424.89	262.47
425.26	264.93
425.64	267.25
426.01	269.80
426.38	272.50
426.75	275.25
427.13	278.10
427.50	281.01
427.87	284.18
428.24	287.23
428.61	290.16
428.99	293.33
429.36	296.85
429.73	300.30
430.10	303.78
430.47	307.25
430.85	310.78
431.22	314.79
431.59	318.94
431.96	322.84
432.33	327.15
432.70	331.31
433.08	336.30
433.45	340.85
433.82	345.37
434.19	350.45
434.56	355.40
434.93	360.10
435.30	364.87
435.68	370.04
436.05	375.24
436.42	380.48
436.79	385.23
437.16	390.35
437.53	395.75
437.90	400.87
438.27	406.20
438.64	411.61
439.01	416.51
439.38	420.90
439.75	425.15
440.13	430.01
440.50	434.62
440.87	438.31
441.24	442.29
441.61	446.65
441.98	449.80
442.35	453.37
442.72	457.09
443.09	460.55
443.46	462.67
443.83	464.01
444.20	465.06
444.57	466.79
444.94	467.55
445.31	468.33
445.68	469.17
446.05	469.34
446.42	468.69
446.79	468.02
447.16	467.14
447.53	466.54
447.90	464.35
448.27	462.20
448.64	459.24
449.01	457.08
449.37	453.45
449.74	450.01
450.11	445.92
450.48	441.34
450.85	436.86
451.22	432.82
451.59	429.06
451.96	425.52
452.33	420.78
452.70	416.37
453.07	411.20
453.43	405.94
453.80	400.95
454.17	396.26
454.54	391.60
454.91	386.70
455.28	382.03
455.65	377.73
456.02	373.33
456.38	369.53
456.75	364.86
457.12	360.95
457.49	357.02
457.86	353.28
458.23	350.17
458.59	346.65
458.96	343.14
459.33	340.12
459.70	337.04
460.07	334.51
460.43	331.59
460.80	328.82
461.17	326.54
461.54	324.04
461.91	321.66
462.27	319.34
462.64	317.37
463.01	315.09
463.38	312.90
463.74	310.68
464.11	308.80
464.48	307.11
464.85	305.31
465.21	304.01
465.58	302.59
465.95	300.85
466.32	299.35
466.68	298.00
467.05	296.48
467.42	295.01
467.78	293.56
468.15	292.23
468.52	291.27
468.88	289.87
469.25	288.68
469.62	287.65
469.98	286.62
470.35	285.68
470.72	284.89
471.08	283.95
471.45	283.21
471.82	282.53
472.18	281.76
472.55	281.20
472.92	280.35
473.28	279.80
473.65	279.11
474.02	278.60
474.38	278.13
474.75	277.74
475.11	277.33
475.48	277.19
475.85	277.04
476.21	276.86
476.58	276.77
476.94	276.81
477.31	276.75
477.67	276.77
478.04	276.76
478.41	276.88
478.77	277.22
479.14	277.35
479.50	277.60
479.87	277.97
480.23	278.32
480.60	278.70
480.96	279.06
481.33	279.86
481.69	280.47
482.06	281.19
482.42	281.94
482.79	282.73
483.15	283.45
483.52	284.36
483.88	285.24
484.25	286.26
484.61	287.34
484.98	288.57
485.34	289.74
485.71	291.18
486.07	292.59
486.44	293.86
486.80	295.41
487.17	296.95
487.53	298.62
487.90	300.51
488.26	302.59
488.62	304.64
488.99	306.55
489.35	308.67
489.72	310.85
490.08	313.22
490.44	315.77
490.81	318.36
491.17	321.07
491.54	323.91
491.90	326.91
492.26	330.01
492.63	333.34
492.99	336.80
493.36	340.52
493.72	344.35
494.08	348.40
494.45	352.61
494.81	357.22
495.17	361.76
495.54	366.52
495.90	371.54
496.26	376.81
496.63	382.46
496.99	388.34
497.35	394.46
497.72	400.71
498.08	407.02
498.44	413.86
498.80	421.05
499.17	428.51
499.53	436.10
499.89	444.10
500.26	452.11
500.62	460.61
500.98	469.37
501.34	478.45
501.71	487.91
502.07	497.64
502.43	507.56
502.79	517.70
503.16	528.45
503.52	539.32
503.88	550.53
504.24	561.98
504.60	573.90
504.97	586.19
505.33	598.73
505.69	612.21
506.05	625.54
506.41	639.12
506.78	653.05
507.14	667.47
507.50	682.16
507.86	697.00
508.22	712.18
508.59	727.83
508.95	743.79
509.31	759.98
509.67	776.65
510.03	793.61
510.39	811.44
510.75	829.14
511.12	847.12
511.48	865.40
511.84	884.15
512.20	902.71
512.56	921.84
512.92	941.35
513.28	960.58
513.64	980.41
514.00	1000.40
514.37	1020.60
514.73	1041.17
515.09	1062.03
515.45	1083.07
515.81	1104.52
516.17	1125.57
516.53	1146.87
516.89	1168.61
517.25	1190.25
517.61	1211.85
517.97	1233.08
518.33	1254.69
518.69	1276.78
519.05	1298.91
519.41	1321.01
519.77	1343.45
520.13	1365.66
520.49	1387.55
520.85	1410.35
521.21	1432.67
521.57	1455.60
521.93	1477.69
522.29	1500.82
522.65	1523.21
523.01	1545.64
523.37	1567.52
523.73	1590.04
524.09	1612.21
524.45	1634.48
524.81	1656.56
525.17	1679.04
525.53	1701.91
525.89	1724.25
526.25	1746.10
526.61	1767.38
526.97	1789.00
527.33	1810.41
527.68	1831.78
528.04	1853.39
528.40	1873.82
528.76	1894.93
529.12	1915.38
529.48	1937.47
529.84	1957.35
530.20	1977.57
530.56	1998.02
530.91	2018.98
531.27	2039.53
531.63	2059.86
531.99	2079.58
532.35	2099.34
532.71	2118.68
533.07	2137.97
533.42	2156.35
533.78	2175.32
534.14	2194.14
534.50	2211.53
534.86	2229.62
535.21	2246.58
535.57	2264.06
535.93	2281.38
536.29	2298.39
536.65	2315.33
537.00	2330.50
537.36	2346.08
537.72	2361.66
538.08	2377.17
538.44	2392.50
538.79	2407.71
539.15	2422.56
539.51	2437.37
539.87	2452.71
540.22	2467.18
540.58	2481.92
540.94	2496.70
541.29	2509.39
541.65	2521.67
542.01	2535.05
542.37	2547.19
542.72	2559.46
543.08	2570.60
543.44	2582.58
543.79	2592.77
544.15	2603.38
544.51	2614.48
544.87	2625.75
545.22	2634.74
545.58	2643.15
545.94	2650.39
546.29	2656.82
546.65	2662.74
547.01	2668.75
547.36	2674.21
547.72	2679.98
548.07	2683.85
548.43	2687.88
548.79	2692.04
549.14	2696.62
549.50	2701.10
549.86	2704.91
550.21	2708.94
550.57	2713.24
550.92	2715.99
551.28	2718.70
551.64	2721.00
551.99	2723.33
552.35	2724.85
552.70	2727.73
553.06	2730.79
553.41	2734.13
553.77	2737.42
554.13	2739.90
554.48	2742.15
554.84	2743.62
555.19	2743.81
555.55	2744.50
555.90	2744.92
556.26	2745.43
556.61	2745.64
556.97	2744.50
557.32	2744.40
557.68	2742.65
558.03	2741.10
558.39	2739.41
558.74	2739.08
559.10	2737.72
559.45	2735.76
559.81	2734.81
560.16	2732.21
560.52	2729.68
560.87	2726.22
561.23	2722.39
561.58	2720.33
561.94	2717.18
562.29	2713.18
562.64	2711.04
563.00	2708.52
563.35	2706.39
563.71	2704.85
564.06	2702.61
564.42	2700.51
564.77	2697.65
565.12	2695.97
565.48	2692.74
565.83	2689.87
566.19	2686.47
566.54	2682.20
566.89	2678.31
567.25	2674.21
567.60	2670.95
567.96	2667.11
568.31	2663.89
568.66	2660.16
569.02	2655.67
569.37	2650.55
569.72	2647.06
570.08	2642.00
570.43	2636.48
570.78	2630.84
571.14	2624.38
571.49	2617.60
571.84	2611.43
572.20	2604.61
572.55	2598.04
572.90	2591.32
573.26	2584.37
573.61	2577.31
573.96	2570.96
574.31	2563.40
574.67	2555.23
575.02	2546.63
575.37	2538.29
575.72	2529.19
576.08	2521.26
576.43	2512.26
576.78	2504.43
577.13	2496.24
577.49	2487.87
577.84	2480.19
578.19	2472.43
578.54	2465.00
578.90	2458.24
579.25	2449.58
579.60	2440.73
579.95	2431.45
580.30	2423.35
580.66	2415.19
581.01	2406.02
581.36	2396.56
581.71	2388.06
582.06	2379.25
582.42	2371.01
582.77	2361.66
583.12	2352.75
583.47	2344.00
583.82	2335.87
584.17	2326.69
584.53	2317.31
584.88	2308.58
585.23	2299.44
585.58	2289.59
585.93	2279.82
586.28	2270.39
586.63	2261.70
586.98	2253.16
587.34	2244.95
587.69	2235.91
588.04	2226.50
588.39	2218.23
588.74	2209.63
589.09	2200.89
589.44	2191.53
589.79	2183.21
590.14	2175.27
590.49	2166.81
590.84	2158.00
591.19	2149.86
591.54	2141.23
591.89	2131.31
592.25	2121.73
592.60	2112.46
592.95	2103.23
593.30	2093.85
593.65	2084.06
594.00	2074.31
594.35	2066.33
594.70	2057.19
595.05	2048.17
595.40	2039.45
595.75	2029.84
596.10	2021.10
596.45	2012.50
596.80	2004.79
597.15	1996.61
597.50	1987.37
597.85	1978.88
598.19	1969.96
598.54	1961.20
598.89	1953.29
599.24	1946.74
599.59	1939.68
599.94	1932.43
600.29	1924.61
600.64	1916.60
600.99	1908.24
601.34	1901.13
601.69	1892.27
602.04	1883.82
602.39	1875.82
602.74	1868.36
603.08	1861.83
603.43	1854.73
603.78	1846.62
604.13	1838.55
604.48	1830.23
604.83	1823.47
605.18	1816.55
605.53	1808.87
605.87	1801.15
606.22	1793.85
606.57	1785.93
606.92	1777.48
607.27	1769.25
607.62	1762.18
607.96	1755.39
608.31	1749.18
608.66	1741.19
609.01	1733.40
609.36	1725.97
609.70	1718.17
610.05	1709.99
610.40	1701.50
610.75	1692.71
611.10	1684.93
611.44	1675.86
611.79	1666.79
612.14	1657.43
612.49	1647.55
612.83	1639.04
613.18	1629.30
613.53	1619.84
613.88	1609.94
614.22	1601.16
614.57	1591.78
614.92	1581.95
615.27	1572.30
615.61	1562.45
615.96	1553.55
616.31	1545.01
616.65	1537.03
617.00	1528.72
617.35	1520.10
617.70	1511.26
618.04	1502.53
618.39	1493.30
618.74	1484.92
619.08	1476.38
619.43	1468.19
619.78	1460.60
620.12	1452.22
620.47	1444.53
620.82	1435.88
621.16	1427.80
621.51	1419.42
621.85	1411.17
622.20	1403.09
622.55	1394.55
622.89	1386.34
623.24	1378.32
623.59	1369.75
623.93	1361.14
624.28	1352.95
624.62	1344.88
624.97	1336.56
625.32	1328.68
625.66	1321.43
626.01	1313.88
626.35	1306.54
626.70	1298.82
627.04	1291.15
627.39	1283.41
627.73	1275.85
628.08	1269.16
628.43	1261.71
628.77	1254.09
629.12	1246.51
629.46	1239.68
629.81	1232.54
630.15	1225.17
630.50	1217.60
630.84	1210.42
631.19	1202.92
631.53	1195.75
631.88	1188.04
632.22	1180.58
632.57	1173.75
632.91	1166.15
633.26	1158.86
633.60	1151.67
633.95	1144.66
634.29	1137.42
634.64	1130.93
634.98	1123.91
635.32	1116.54
635.67	1110.09
636.01	1103.61
636.36	1096.98
636.70	1090.23
637.05	1083.65
637.39	1077.29
637.73	1071.01
638.08	1065.03
638.42	1059.18
638.77	1052.60
639.11	1046.35
639.45	1040.36
639.80	1033.70
640.14	1027.35
640.49	1020.95
640.83	1014.87
641.17	1008.66
641.52	1002.75
641.86	996.16
642.20	989.93
642.55	983.33
642.89	976.75
643.23	970.38
643.58	964.50
643.92	958.04
644.26	951.88
644.61	945.61
644.95	939.55
645.29	933.14
645.64	926.50
645.98	920.45
646.32	914.47
646.66	908.25
647.01	902.26
647.35	896.38
647.69	890.32
648.04	884.31
648.38	878.29
648.72	872.11
649.06	866.21
649.41	860.07
649.75	854.41
650.09	848.51
650.43	842.47
650.78	836.22
651.12	830.13
651.46	824.29
651.80	818.37
652.14	812.28
652.49	806.48
652.83	800.82
653.17	794.71
653.51	788.85
653.85	783.22
654.20	777.43
654.54	771.59
654.88	766.03
655.22	760.10
655.56	754.13
655.90	748.31
656.25	742.46
656.59	737.12
656.93	731.90
657.27	726.70
657.61	721.21
657.95	716.10
658.29	711.07
658.64	705.98
658.98	700.87
659.32	695.54
659.66	690.41
660.00	684.93
660.34	679.84
660.68	674.79
661.02	669.55
661.36	664.77
661.70	659.92
662.05	655.23
662.39	650.88
662.73	646.53
663.07	642.08
663.41	637.73
663.75	633.07
664.09	628.35
664.43	623.68
664.77	619.54
665.11	615.20
665.45	610.74
665.79	606.29
666.13	601.82
666.47	597.69
666.81	593.50
667.15	589.64
667.49	585.64
667.83	581.65
668.17	577.80
668.51	573.90
668.85	570.28
669.19	566.42
669.53	562.41
669.87	558.41
670.21	554.68
670.55	550.72
670.89	547.35
671.23	543.99
671.57	540.59
671.91	536.94
672.25	533.36
672.58	529.80
672.92	526.52
673.26	523.30
673.60	520.04
673.94	516.63
674.28	513.16
674.62	510.10
674.96	506.93
675.30	504.02
675.64	500.87
675.97	497.53
676.31	494.65
676.65	491.62
676.99	488.89
677.33	485.79
677.67	482.96
678.01	479.73
678.34	476.66
678.68	473.65
679.02	470.67
679.36	467.79
679.70	465.07
680.04	462.12
680.37	459.25
680.71	456.40
681.05	453.72
681.39	451.16
681.73	448.31
682.06	445.79
682.40	443.19
682.74	440.52
683.08	438.07
683.42	435.28
683.75	432.75
684.09	430.19
684.43	427.78
684.77	425.27
685.10	422.86
685.44	420.39
685.78	417.98
686.12	415.67
686.45	413.30
686.79	411.03
687.13	408.92
687.46	406.72
687.80	404.53
688.14	402.25
688.48	400.02
688.81	397.82
689.15	395.62
689.49	393.27
689.82	391.15
690.16	388.77
690.50	386.44
690.83	384.20
691.17	381.88
691.51	379.66
691.84	377.63
692.18	375.59
692.52	373.59
692.85	371.68
693.19	369.88
693.52	367.93
693.86	365.84
694.20	363.88
694.53	361.93
694.87	359.96
695.21	358.11
695.54	356.20
695.88	354.30
696.21	352.33
696.55	350.62
696.88	348.85
697.22	347.10
697.56	345.55
697.89	343.95
698.23	342.46
698.56	340.85
698.90	339.35
699.23	337.66
699.57	336.12
699.90	334.44
700.24	332.62
700.58	331.02
700.91	329.52
701.25	328.13
701.58	326.80
701.92	325.39
702.25	323.90
702.59	322.58
702.92	321.29
703.26	320.00
703.59	318.69
703.93	317.45
704.26	316.27
704.60	315.06
704.93	313.84
705.26	312.48
705.60	311.30
705.93	309.91
706.27	308.80
706.60	307.62
706.94	306.56
707.27	305.45
707.61	304.29
707.94	303.21
708.27	301.88
708.61	300.69
708.94	299.59
709.28	298.46
709.61	297.32
709.94	296.25
710.28	295.15
710.61	294.00
710.95	292.83
711.28	291.93
711.61	290.81
711.95	289.85
712.28	288.88
712.61	287.76
712.95	286.87
713.28	285.89
713.61	284.94
713.95	283.87
714.28	283.01
714.61	282.07
714.95	281.10
715.28	280.22
715.61	279.21
715.95	278.31
716.28	277.45
716.61	276.56
716.95	275.66
717.28	274.77
717.61	273.96
717.94	273.18
718.28	272.26
718.61	271.45
718.94	270.67
719.27	269.90
719.61	269.25
719.94	268.48
720.27	267.73
720.60	266.96
720.94	266.32
721.27	265.67
721.60	265.01
721.93	264.42
722.27	263.82
722.60	263.21
722.93	262.63
723.26	262.06
723.59	261.49
723.93	260.94
724.26	260.37
724.59	259.82
724.92	259.28
725.25	258.70
725.59	258.27
725.92	257.69
726.25	257.13
726.58	256.68
726.91	256.27
727.24	255.80
727.57	255.36
727.91	254.85
728.24	254.35
728.57	253.98
728.90	253.61
729.23	253.10
729.56	252.78
729.89	252.27
730.22	251.86
730.55	251.39
730.89	250.92
731.22	250.50
731.55	250.04
731.88	249.58
732.21	249.13
732.54	248.66
732.87	248.30
733.20	247.87
733.53	247.42
733.86	246.92
734.19	246.45
734.52	246.01
734.85	245.78
735.18	245.37
735.51	244.97
735.84	244.52
736.17	244.24
736.50	243.80
736.83	243.66
737.16	243.26
737.49	242.90
737.82	242.50
738.15	242.24
738.48	241.91
738.81	241.55
739.14	241.21
739.47	240.78
739.80	240.35
740.13	240.10
740.46	239.74
740.79	239.42
741.12	239.15
741.45	238.79
741.78	238.36
742.11	238.05
742.44	237.71
742.77	237.41
743.10	237.02
743.43	236.69
743.75	236.17
744.08	236.02
744.41	235.73
744.74	235.50
745.07	235.16
745.40	234.91
745.73	234.79
746.06	234.54
746.39	234.35
746.71	234.10
747.04	233.74
747.37	233.43
747.70	233.22
748.03	232.99
748.36	232.72
748.68	232.44
749.01	232.14
749.34	231.84
749.67	231.60
750.00	231.46
750.33	231.38
750.65	231.15
750.98	230.68
751.31	230.41
751.64	230.14
751.97	230.05
752.29	229.84
752.62	229.52
752.95	229.24
753.28	229.03
753.60	228.80
753.93	228.73
754.26	228.52
754.59	228.24
754.91	227.88
755.24	227.75
755.57	227.49
755.90	227.32
756.22	227.15
756.55	226.94
756.88	226.66
757.20	226.32
757.53	226.09
757.86	225.94
758.19	225.80
758.51	225.60
758.84	225.22
759.17	224.98
759.49	224.90
759.82	224.82
760.15	224.67
760.47	224.51
760.80	224.24
761.13	224.12
761.45	223.97
761.78	223.88
762.11	223.78
762.43	223.63
762.76	223.46
763.08	223.41
763.41	223.29
763.74	223.10
764.06	222.96
764.39	222.85
764.71	222.64
765.04	222.48
765.37	222.38
765.69	222.29
766.02	222.19
766.34	221.90
766.67	221.75
767.00	221.55
767.32	221.50
767.65	221.55
767.97	221.42
768.30	221.31
768.62	221.29
768.95	221.08
769.27	221.01
769.60	220.91
769.92	220.66
770.25	220.52
770.57	220.42
770.90	220.34
771.22	220.16
771.55	220.16
771.87	220.05
772.20	219.95
772.52	220.02
772.85	220.13
773.17	220.07
773.50	220.01
773.82	219.89
774.15	219.77
774.47	219.54
774.80	219.39
775.12	219.37
775.45	219.16
775.77	219.05
776.09	219.03
776.42	218.91
776.74	218.94
777.07	218.78
777.39	218.68
777.72	218.56
778.04	218.57
778.36	218.50
778.69	218.51
779.01	218.43
779.33	218.17
779.66	217.88
779.98	217.82
780.31	217.62
780.63	217.69
780.95	217.63
781.28	217.55
781.60	217.46
781.92	217.33
782.25	217.28
782.57	217.25
782.89	217.15
783.22	217.10
783.54	216.94
783.86	216.96
784.19	216.90
784.51	216.91
784.83	216.80
785.16	216.71
785.48	216.61
785.80	216.55
786.12	216.54
786.45	216.50
786.77	216.49
787.09	216.48
787.42	216.36
787.74	216.20
788.06	216.15
788.38	216.15
788.71	216.06
789.03	215.97
789.35	215.95
789.67	215.88
789.99	215.87
790.32	215.83
790.64	215.72
790.96	215.85
791.28	215.65
791.61	215.65
791.93	215.60
792.25	215.50
792.57	215.58
792.89	215.43
793.21	215.36
793.54	215.25
793.86	215.20
794.18	215.20
794.50	215.22
794.82	215.15
795.14	215.11
795.47	215.19
795.79	215.17
796.11	215.08
796.43	215.01
796.75	215.01
797.07	214.93
797.39	214.94
797.71	214.69
798.04	214.69
798.36	214.65
798.68	214.62
799.00	214.65
799.32	214.50
799.64	214.51
799.96	214.52
800.28	214.52
800.60	214.52
800.92	214.46
801.24	214.45
801.56	214.45
801.89	214.38
802.21	214.31
802.53	214.26
802.85	214.33
803.17	214.37
803.49	214.22
803.81	214.30
804.13	214.22
804.45	214.21
804.77	214.21
805.09	214.15
805.41	214.09
805.73	213.95
806.05	213.84
806.37	213.89
806.69	213.82
807.01	213.79
807.33	213.72
807.65	213.64
807.97	213.57
808.28	213.51
808.60	213.52
808.92	213.39
809.24	213.50
809.56	213.38
809.88	213.24
810.20	213.27
810.52	213.23
810.84	213.24
811.16	213.26
811.48	213.27
811.80	213.35
812.12	213.33
812.43	213.41
812.75	213.47
813.07	213.39
813.39	213.40
813.71	213.37
814.03	213.36
814.35	213.38
814.67	213.33
814.98	213.25
815.30	213.14
815.62	213.14
815.94	213.06
816.26	212.99
816.58	212.99
816.89	212.98
817.21	212.86
817.53	212.81
817.85	212.77
818.17	212.71
818.48	212.61
818.80	212.57
819.12	212.46
819.44	212.35
819.76	212.33
820.07	212.25
820.39	212.24
820.71	212.25
821.03	212.21
821.34	212.26
821.66	212.37
821.98	212.44
822.30	212.45
822.61	212.47
822.93	212.45
823.25	212.42
823.57	212.35
823.88	212.42
824.20	212.44
824.52	212.40
824.83	212.37
825.15	212.26
825.47	212.30
825.79	212.35
826.10	212.41
826.42	212.40
826.74	212.43
827.05	212.39
827.37	212.39
827.69	212.35
828.00	212.28
828.32	212.25
828.64	212.25
828.95	212.25
829.27	212.20
829.58	212.20
829.90	212.33
830.22	212.37
830.53	212.25
830.85	212.22
831.17	212.14
831.48	212.15
831.80	212.13
832.11	212.04
832.43	212.05
832.75	212.01
833.06	212.11
833.38	212.01
833.69	212.01
834.01	211.97
834.32	211.96
834.64	212.00
834.96	211.95
835.27	211.90
835.59	211.84
835.90	211.83
836.22	211.81
836.53	211.76
836.85	211.74
837.16	211.97
837.48	211.94
837.79	212.09
838.11	212.03
838.42	212.06
838.74	212.10
839.05	212.03
839.37	212.02
839.68	211.88
840.00	211.90
840.31	211.90
840.63	211.87
840.94	211.87
841.26	211.81
841.57	211.82
841.88	211.84
842.20	211.84
842.51	211.82
842.83	211.77
843.14	211.84
843.46	211.85
843.77	211.71
844.08	211.77
844.40	211.64
844.71	211.66
845.03	211.66
845.34	211.67
845.65	211.64
845.97	211.59
846.28	211.56
846.60	211.62
846.91	211.63
847.22	211.65
847.54	211.64
847.85	211.68
848.16	211.60
848.48	211.57
848.79	211.67
849.10	211.68
849.42	211.77
849.73	211.55
850.04	211.55
850.36	211.44
850.67	211.46
850.98	211.45
851.30	211.57
851.61	211.65
851.92	211.67
852.23	211.78
852.55	211.82
852.86	211.87
853.17	211.89
853.49	211.91
853.80	211.96
854.11	212.02
854.42	212.04
854.74	212.07
855.05	212.08
855.36	211.96
855.67	211.94
855.99	211.89
856.30	212.16
856.61	212.08
856.92	212.13
857.23	212.08
857.55	212.05
857.86	212.00
858.17	211.94
858.48	211.91
858.79	211.85
859.11	211.88
859.42	211.87
859.73	211.81
860.04	211.78
860.35	211.70
860.66	211.65
860.98	211.63
861.29	211.69
861.60	211.68
861.91	211.78
862.22	211.78
862.53	211.81
862.84	211.61
863.16	211.69
863.47	211.67
863.78	211.66
864.09	211.72
864.40	211.73
864.71	211.74
865.02	211.75
865.33	211.76
865.64	211.67
865.95	211.62
866.27	211.76
866.58	211.82
866.89	211.86
867.20	211.84
867.51	211.81
867.82	211.74
868.13	211.82
868.44	211.79
868.75	211.83
869.06	211.79
869.37	211.81
869.68	211.77
869.99	211.84
870.30	211.89
870.61	211.92
870.92	211.83
871.23	211.82
871.54	211.82
871.85	211.84
872.16	211.92
872.47	211.94
872.78	211.79
873.09	211.81
873.40	211.77
873.71	211.72
874.02	211.75
874.33	211.79
874.64	211.77
874.95	211.79
875.26	211.70
875.56	211.68
875.87	211.67
876.18	211.71
876.49	211.83
876.80	211.79
877.11	211.74
877.42	211.82
877.73	211.83
878.04	211.85
878.35	211.90
878.66	211.83
878.96	211.81
879.27	211.89
879.58	211.72
879.89	211.69
880.20	211.80
880.51	211.76
880.82	211.73
881.12	211.74
881.43	211.72
881.74	211.75
882.05	211.79
882.36	211.86
882.67	211.85
882.97	211.69
883.28	211.69
883.59	211.69
883.90	211.68
884.21	211.68
884.51	211.62
884.82	211.55
885.13	211.63
885.44	211.65
885.74	211.58
886.05	211.65
886.36	211.65
886.67	211.61
886.98	211.65
887.28	211.69
887.59	211.59
887.90	211.46
888.20	211.44
888.51	211.49
888.82	211.38
889.13	211.40
889.43	211.54
889.74	211.45
890.05	211.44
890.35	211.45
890.66	211.45
890.97	211.44
891.28	211.40
891.58	211.42
891.89	211.50
892.20	211.53
892.50	211.48
892.81	211.54
893.12	211.45
893.42	211.44
893.73	211.36
894.04	211.40
894.34	211.50
894.65	211.45
894.95	211.39
895.26	211.41
895.57	211.50
895.87	211.29
896.18	211.38
896.48	211.39
896.79	211.34
897.10	211.34
897.40	211.35
897.71	211.42
898.01	211.32
898.32	211.32
898.63	211.24
898.93	211.31
899.24	211.31
899.54	211.29
899.85	211.26
900.15	211.37
900.46	211.37
900.76	211.37
901.07	211.43
901.38	211.45
901.68	211.49
901.99	211.41
902.29	211.43
902.60	211.42
902.90	211.45
903.21	211.47
903.51	211.43
903.82	211.45
904.12	211.40
904.43	211.44
904.73	211.37
905.03	211.35
905.34	211.51
905.64	211.43
905.95	211.50
906.25	211.53
906.56	211.47
906.86	211.45
907.17	211.46
907.47	211.48
907.77	211.46
908.08	211.40
908.38	211.40
908.69	211.48
908.99	211.49
909.30	211.41
909.60	211.38
909.90	211.41
910.21	211.37
910.51	211.40
910.81	211.41
911.12	211.38
911.42	211.40
911.73	211.20
912.03	211.20
912.33	211.26
912.64	211.17
912.94	211.18
913.24	211.19
913.55	211.18
913.85	211.16
914.15	211.23
914.46	211.26
914.76	211.25
915.06	211.21
915.37	211.16
915.67	211.18
915.97	211.22
916.27	211.20
916.58	211.22
916.88	211.25
917.18	211.25
917.49	211.39
917.79	211.40
918.09	211.47
918.39	211.55
918.70	211.50
919.00	211.55
919.30	211.59
919.60	211.49
919.91	211.48
920.21	211.49
920.51	211.42
920.81	211.45
921.12	211.41
921.42	211.44
921.72	211.49
922.02	211.50
922.32	211.48
922.63	211.42
922.93	211.52
923.23	211.50
923.53	211.43
923.83	211.30
924.13	211.32
924.44	211.26
924.74	211.21
925.04	211.20
925.34	211.24
925.64	211.20
925.94	211.28
926.24	211.31
926.55	211.21
926.85	211.21
927.15	211.20
927.45	211.22
927.75	211.21
928.05	211.15
928.35	211.10
928.65	211.09
928.95	211.16
929.26	211.04
929.56	211.00
929.86	211.04
930.16	211.01
930.46	210.99
930.76	211.08
931.06	211.06
931.36	211.03
931.66	210.99
931.96	210.96
932.26	210.94
932.56	210.90
932.86	210.99
933.16	210.97
933.46	210.88
933.76	210.85
934.06	210.83
934.36	210.96
934.66	210.99
934.96	210.96
935.26	210.94
935.56	210.98
935.86	210.92
936.16	210.90
936.46	210.88
936.76	210.86
937.06	210.76
937.36	210.72
937.66	210.77
937.96	210.76
938.26	210.68
938.56	210.64
938.86	210.64
939.16	210.70
939.46	210.71
939.76	210.74
940.06	210.75
940.35	210.69
940.65	210.60
940.95	210.60
941.25	210.57
941.55	210.58
941.85	210.55
942.15	210.58
942.45	210.58
942.75	210.55
943.04	210.52
943.34	210.53
943.64	210.54
943.94	210.50
944.24	210.54
944.54	210.55
944.84	210.58
945.13	210.54
945.43	210.47
945.73	210.40
946.03	210.42
946.33	210.35
946.62	210.35
946.92	210.27
947.22	210.32
947.52	210.35
947.82	210.32
948.11	210.30
948.41	210.37
948.71	210.36
949.01	210.42
949.31	210.45
949.60	210.42
949.90	210.43
950.20	210.41
950.50	210.45
950.79	210.43
951.09	210.40
951.39	210.41
951.69	210.42
951.98	210.55
952.28	210.54
952.58	210.60
952.87	210.61
953.17	210.64
953.47	210.64
953.76	210.64
954.06	210.59
954.36	210.64
954.66	210.60
954.95	210.64
955.25	210.61
955.55	210.71
955.84	210.75
956.14	210.78
956.44	210.84
956.73	210.76
957.03	210.88
957.32	210.96
957.62	210.98
957.92	211.00
958.21	211.00
958.51	211.23
958.81	211.19
959.10	211.22
959.40	211.33
959.69	211.32
959.99	211.36
960.29	211.41
960.58	211.35
960.88	211.40
961.17	211.35
961.47	211.41
961.76	211.31
962.06	211.30
962.36	211.30
962.65	211.31
962.95	211.33
963.24	211.31
963.54	211.38
963.83	211.36
964.13	211.30
964.42	211.28
964.72	211.08
965.01	211.12
965.31	211.17
965.60	211.09
965.90	211.21
966.19	211.16
966.49	211.19
966.78	211.26
967.08	211.26
967.37	211.34
967.67	211.30
967.96	211.38
968.26	211.40
968.55	211.40
968.85	211.37
969.14	211.36
969.43	211.35
969.73	211.27
970.02	211.23
970.32	211.30
970.61	211.27
970.91	211.30
971.20	211.25
971.49	211.21
971.79	211.22
972.08	211.06
972.38	211.11
972.67	211.06
972.96	210.98
973.26	210.91
973.55	210.90
973.85	210.89
974.14	210.89
974.43	210.92
974.73	210.76
975.02	210.77
975.31	210.75
975.61	210.75
975.90	210.72
976.19	210.83
976.49	210.81
976.78	210.74
977.07	210.70
977.37	210.74
977.66	210.68
977.95	210.73
978.24	210.72
978.54	210.70
978.83	210.72
979.12	210.71
979.42	210.72
979.71	210.63
980.00	210.58
980.29	210.54
980.59	210.56
980.88	210.75
981.17	210.73
981.46	210.75
981.76	210.66
982.05	210.65
982.34	210.58
982.63	210.56
982.93	210.60
983.22	210.66
983.51	210.70
983.80	210.75
984.09	210.79
984.39	210.80
984.68	210.78
984.97	210.77
985.26	210.84
985.55	210.88
985.85	210.91
986.14	211.07
986.43	211.11
986.72	211.00
987.01	210.91
987.30	210.93
987.59	210.93
987.89	210.99
988.18	211.03
988.47	211.01
988.76	211.02
989.05	211.07
989.34	211.03
989.63	211.05
989.92	211.07
990.22	211.00
990.51	211.02
990.80	211.09
991.09	211.17
991.38	211.17
991.67	211.13
991.96	211.08
992.25	211.05
992.54	211.07
992.83	211.19
993.12	211.22
993.41	211.26
993.70	211.31
993.99	211.41
994.28	211.41
994.58	211.41
994.87	211.41
995.16	211.37
995.45	211.40
995.74	211.34
996.03	211.28
996.32	211.30
996.61	211.35
996.90	211.34
997.19	211.32
997.48	211.32
997.77	211.34
998.06	211.43
998.34	211.46
998.63	211.41
998.92	211.41
999.21	211.53
999.50	211.56
999.79	211.54
1000.08	211.48
1000.37	211.47
1000.66	211.46
1000.95	211.49
1001.24	211.54
1001.53	211.51
1001.82	211.49
1002.11	211.52
1002.40	211.53
1002.68	211.60
1002.97	211.65
1003.26	211.63
1003.55	211.61
1003.84	211.63
1004.13	211.61
1004.42	211.60
1004.71	211.64
1004.99	211.56
1005.28	211.55
1005.57	211.54
1005.86	211.58
1006.15	211.61
1006.44	211.63
1006.72	211.70
1007.01	211.75
1007.30	211.75
1007.59	211.72
1007.88	211.75
1008.17	211.80
1008.45	211.77
1008.74	211.61
1009.03	211.53
1009.32	211.52
1009.60	211.53
1009.89	211.50
1010.18	211.48
1010.47	211.42
1010.76	211.42
1011.04	211.48
1011.33	211.42
1011.62	211.36
1011.91	211.28
1012.19	211.31
1012.48	211.26
1012.77	211.28
1013.05	211.33
1013.34	211.28
1013.63	211.37
1013.92	211.34
1014.20	211.29
1014.49	211.32
1014.78	211.39
1015.06	211.36
1015.35	211.40
1015.64	211.38
1015.92	211.44
1016.21	211.42
1016.50	211.40
1016.78	211.35
1017.07	211.32
1017.36	211.27
1017.64	211.25
1017.93	211.32
1018.22	211.25
1018.50	211.27
1018.79	211.21
1019.08	211.07
1019.36	211.06
1019.65	210.98
1019.93	211.07
1020.22	211.09
1020.51	211.08
1020.79	211.05
1021.08	210.95
1021.36	211.00
1021.65	210.70
1021.94	210.60
1022.22	210.60
1022.51	210.75
1022.79	211.90
1023.08	211.65
1023.36	211.75
1023.65	211.05
>>>>>End Processed Spectral Data<<<<<
