SpectraSuite Data File
++++++++++++++++++++++++++++++++++++
Date: Mon Feb 25 17:36:44 EST 2013
User: group
Dark Spectrum Present: No
Reference Spectrum Present: No
Number of Sampled Component Spectra: 1
Spectrometers: USB2E7196
Integration Time (usec): 52000 (USB2E7196)
Spectra Averaged: 20 (USB2E7196)
Boxcar Smoothing: 10 (USB2E7196)
Correct for Electrical Dark: No (USB2E7196)
Strobe/Lamp Enabled: No (USB2E7196)
Correct for Detector Non-linearity: No (USB2E7196)
Correct for Stray Light: No (USB2E7196)
Number of Pixels in Processed Spectrum: 2048
>>>>>Begin Processed Spectral Data<<<<<
339.09	0.00
339.48	198.95
339.86	198.85
340.24	200.80
340.63	202.80
341.01	206.75
341.39	206.00
341.78	207.45
342.16	207.75
342.54	209.35
342.93	198.07
343.31	208.11
343.69	208.62
344.07	209.15
344.46	209.61
344.84	210.11
345.22	210.41
345.60	210.78
345.99	211.05
346.37	211.34
346.75	211.60
347.13	211.77
347.52	211.92
347.90	212.16
348.28	212.27
348.66	212.45
349.05	212.53
349.43	212.70
349.81	212.88
350.19	213.03
350.57	213.19
350.96	213.30
351.34	213.51
351.72	213.77
352.10	213.97
352.48	214.16
352.87	214.25
353.25	214.37
353.63	214.42
354.01	214.52
354.39	214.56
354.77	214.60
355.15	214.74
355.54	214.84
355.92	214.86
356.30	214.88
356.68	215.08
357.06	215.15
357.44	215.17
357.82	215.24
358.20	215.35
358.58	215.38
358.97	215.57
359.35	215.58
359.73	215.63
360.11	215.69
360.49	215.75
360.87	215.83
361.25	215.85
361.63	216.01
362.01	216.04
362.39	216.02
362.77	216.04
363.15	216.05
363.53	216.09
363.91	216.07
364.29	216.14
364.67	216.08
365.05	216.14
365.43	216.21
365.81	216.23
366.19	216.27
366.57	216.40
366.95	216.30
367.33	216.34
367.71	216.36
368.09	216.45
368.47	216.40
368.85	216.39
369.23	216.41
369.61	216.30
369.99	216.41
370.37	216.53
370.75	216.57
371.13	216.47
371.51	216.42
371.89	216.41
372.27	216.43
372.65	216.30
373.03	216.27
373.41	216.20
373.78	216.12
374.16	216.05
374.54	215.90
374.92	215.85
375.30	215.78
375.68	215.70
376.06	215.61
376.44	215.60
376.82	215.48
377.19	215.38
377.57	215.38
377.95	215.23
378.33	215.15
378.71	215.04
379.09	215.13
379.47	215.17
379.84	215.13
380.22	215.03
380.60	214.96
380.98	214.96
381.36	214.92
381.73	214.88
382.11	214.87
382.49	214.90
382.87	214.84
383.25	214.77
383.62	215.01
384.00	214.97
384.38	214.95
384.76	215.05
385.13	215.15
385.51	215.06
385.89	215.02
386.27	214.96
386.64	214.95
387.02	214.91
387.40	214.85
387.78	214.82
388.15	214.88
388.53	214.91
388.91	214.87
389.29	214.90
389.66	214.93
390.04	214.96
390.42	215.00
390.79	215.12
391.17	215.15
391.55	214.91
391.92	214.97
392.30	215.04
392.68	215.02
393.05	215.00
393.43	215.04
393.81	215.11
394.18	215.15
394.56	215.26
394.94	215.37
395.31	215.35
395.69	215.52
396.06	215.65
396.44	215.75
396.82	215.80
397.19	216.01
397.57	216.18
397.95	216.27
398.32	216.37
398.70	216.55
399.07	216.80
399.45	217.00
399.82	217.10
400.20	217.29
400.58	217.55
400.95	217.79
401.33	218.18
401.70	218.67
402.08	219.05
402.45	219.41
402.83	219.81
403.20	220.29
403.58	220.70
403.95	221.21
404.33	221.82
404.71	222.42
405.08	223.08
405.46	223.73
405.83	224.44
406.21	225.23
406.58	226.01
406.96	227.01
407.33	228.03
407.70	229.22
408.08	230.61
408.45	232.00
408.83	233.39
409.20	234.79
409.58	236.22
409.95	237.95
410.33	239.84
410.70	241.78
411.08	243.95
411.45	246.32
411.82	248.72
412.20	251.25
412.57	254.20
412.95	257.02
413.32	260.17
413.69	263.62
414.07	267.20
414.44	271.14
414.82	275.11
415.19	279.75
415.56	284.57
415.94	289.73
416.31	295.29
416.68	301.01
417.06	307.46
417.43	313.55
417.81	320.70
418.18	327.95
418.55	335.94
418.93	344.36
419.30	352.97
419.67	362.01
420.04	371.65
420.42	381.87
420.79	392.86
421.16	404.62
421.54	416.32
421.91	428.72
422.28	441.82
422.66	455.83
423.03	468.99
423.40	483.26
423.77	498.46
424.15	514.12
424.52	530.55
424.89	548.33
425.26	565.78
425.64	582.21
426.01	600.54
426.38	619.54
426.75	638.74
427.13	659.07
427.50	680.63
427.87	703.10
428.24	725.62
428.61	748.02
428.99	771.22
429.36	797.34
429.73	822.78
430.10	848.00
430.47	873.94
430.85	901.93
431.22	930.97
431.59	961.13
431.96	990.72
432.33	1023.55
432.70	1055.38
433.08	1092.60
433.45	1128.18
433.82	1163.78
434.19	1202.86
434.56	1241.33
434.93	1278.77
435.30	1315.76
435.68	1356.90
436.05	1397.65
436.42	1438.23
436.79	1476.14
437.16	1516.89
437.53	1560.18
437.90	1603.36
438.27	1645.85
438.64	1689.79
439.01	1730.75
439.38	1768.66
439.75	1804.52
440.13	1845.00
440.50	1883.74
440.87	1916.06
441.24	1949.58
441.61	1986.42
441.98	2015.11
442.35	2047.80
442.72	2079.89
443.09	2111.54
443.46	2132.62
443.83	2148.11
444.20	2162.59
444.57	2181.35
444.94	2192.05
445.31	2202.97
445.68	2212.20
446.05	2219.10
446.42	2219.09
446.79	2217.74
447.16	2215.89
447.53	2215.69
447.90	2204.55
448.27	2193.00
448.64	2174.96
449.01	2162.78
449.37	2138.08
449.74	2114.37
450.11	2084.80
450.48	2054.16
450.85	2022.38
451.22	1994.71
451.59	1968.12
451.96	1942.38
452.33	1907.33
452.70	1875.78
453.07	1837.78
453.43	1800.07
453.80	1762.45
454.17	1726.13
454.54	1692.26
454.91	1655.43
455.28	1619.63
455.65	1585.98
456.02	1550.51
456.38	1521.90
456.75	1485.47
457.12	1455.51
457.49	1425.76
457.86	1397.84
458.23	1372.00
458.59	1344.21
458.96	1316.19
459.33	1291.79
459.70	1266.89
460.07	1247.30
460.43	1224.56
460.80	1202.75
461.17	1183.79
461.54	1163.99
461.91	1145.59
462.27	1126.77
462.64	1110.67
463.01	1092.57
463.38	1074.56
463.74	1058.61
464.11	1043.61
464.48	1030.51
464.85	1016.02
465.21	1004.53
465.58	992.18
465.95	978.03
466.32	966.13
466.68	954.30
467.05	942.11
467.42	930.27
467.78	917.77
468.15	906.23
468.52	897.45
468.88	886.29
469.25	876.37
469.62	868.00
469.98	859.05
470.35	850.74
470.72	843.10
471.08	835.24
471.45	828.07
471.82	820.23
472.18	812.35
472.55	806.66
472.92	800.00
473.28	794.23
473.65	788.74
474.02	782.99
474.38	778.24
474.75	774.30
475.11	769.94
475.48	766.64
475.85	763.72
476.21	761.12
476.58	758.76
476.94	757.00
477.31	754.72
477.67	752.61
478.04	751.13
478.41	749.97
478.77	748.97
479.14	747.99
479.50	747.99
479.87	748.26
480.23	748.64
480.60	748.76
480.96	749.03
481.33	750.42
481.69	752.02
482.06	753.13
482.42	753.94
482.79	755.48
483.15	758.05
483.52	761.46
483.88	764.14
484.25	767.15
484.61	770.28
484.98	773.55
485.34	777.54
485.71	781.79
486.07	786.64
486.44	791.80
486.80	797.24
487.17	803.02
487.53	809.67
487.90	816.45
488.26	823.80
488.62	831.60
488.99	839.23
489.35	847.22
489.72	856.34
490.08	866.26
490.44	876.05
490.81	885.90
491.17	895.46
491.54	906.32
491.90	917.11
492.26	928.82
492.63	941.05
492.99	953.82
493.36	966.83
493.72	980.20
494.08	993.91
494.45	1008.68
494.81	1023.97
495.17	1039.23
495.54	1055.30
495.90	1071.92
496.26	1088.97
496.63	1106.48
496.99	1124.10
497.35	1142.05
497.72	1160.29
498.08	1178.91
498.44	1197.72
498.80	1218.25
499.17	1238.13
499.53	1258.78
499.89	1279.71
500.26	1300.98
500.62	1322.05
500.98	1344.43
501.34	1366.77
501.71	1389.34
502.07	1412.04
502.43	1435.05
502.79	1458.16
503.16	1481.17
503.52	1504.22
503.88	1526.85
504.24	1549.78
504.60	1573.69
504.97	1597.83
505.33	1621.77
505.69	1646.85
506.05	1671.91
506.41	1696.10
506.78	1720.79
507.14	1745.39
507.50	1770.38
507.86	1795.20
508.22	1820.19
508.59	1844.87
508.95	1869.98
509.31	1895.43
509.67	1920.78
510.03	1945.60
510.39	1971.29
510.75	1996.42
511.12	2021.07
511.48	2046.12
511.84	2070.88
512.20	2095.03
512.56	2119.95
512.92	2144.45
513.28	2168.63
513.64	2192.38
514.00	2215.72
514.37	2238.94
514.73	2262.40
515.09	2284.83
515.45	2307.64
515.81	2330.40
516.17	2352.65
516.53	2374.31
516.89	2395.25
517.25	2414.93
517.61	2434.89
517.97	2454.28
518.33	2473.22
518.69	2493.04
519.05	2512.69
519.41	2532.19
519.77	2551.76
520.13	2569.84
520.49	2587.98
520.85	2605.58
521.21	2622.54
521.57	2640.78
521.93	2657.51
522.29	2674.64
522.65	2691.77
523.01	2707.91
523.37	2723.28
523.73	2739.11
524.09	2753.98
524.45	2768.98
524.81	2784.45
525.17	2799.75
525.53	2814.43
525.89	2829.95
526.25	2844.18
526.61	2857.03
526.97	2870.58
527.33	2883.41
527.68	2896.84
528.04	2910.09
528.40	2922.57
528.76	2935.62
529.12	2946.81
529.48	2959.25
529.84	2969.07
530.20	2980.42
530.56	2991.58
530.91	3003.44
531.27	3013.54
531.63	3024.63
531.99	3034.99
532.35	3044.94
532.71	3055.08
533.07	3065.95
533.42	3075.12
533.78	3085.24
534.14	3095.08
534.50	3103.66
534.86	3112.80
535.21	3119.98
535.57	3128.81
535.93	3136.54
536.29	3143.23
536.65	3151.63
537.00	3158.91
537.36	3167.96
537.72	3174.18
538.08	3181.64
538.44	3188.36
538.79	3195.00
539.15	3201.97
539.51	3209.01
539.87	3216.49
540.22	3223.01
540.58	3229.30
540.94	3235.59
541.29	3241.01
541.65	3245.02
542.01	3249.39
542.37	3253.93
542.72	3259.55
543.08	3262.61
543.44	3267.10
543.79	3270.62
544.15	3273.37
544.51	3277.27
544.87	3280.61
545.22	3283.60
545.58	3285.38
545.94	3287.09
546.29	3288.91
546.65	3289.58
547.01	3290.58
547.36	3291.58
547.72	3292.50
548.07	3292.53
548.43	3292.67
548.79	3291.85
549.14	3293.58
549.50	3295.11
549.86	3295.82
550.21	3295.25
550.57	3295.83
550.92	3294.69
551.28	3294.15
551.64	3293.29
551.99	3292.26
552.35	3291.39
552.70	3290.75
553.06	3290.02
553.41	3289.42
553.77	3289.28
554.13	3288.84
554.48	3289.43
554.84	3289.00
555.19	3287.16
555.55	3286.11
555.90	3285.55
556.26	3285.35
556.61	3283.84
556.97	3281.19
557.32	3278.05
557.68	3275.31
558.03	3272.60
558.39	3271.05
558.74	3271.40
559.10	3270.91
559.45	3269.97
559.81	3268.70
560.16	3267.57
560.52	3267.16
560.87	3265.37
561.23	3261.77
561.58	3259.07
561.94	3254.26
562.29	3249.93
562.64	3246.98
563.00	3243.36
563.35	3238.93
563.71	3235.55
564.06	3233.07
564.42	3230.16
564.77	3227.71
565.12	3225.43
565.48	3222.68
565.83	3219.83
566.19	3216.43
566.54	3212.57
566.89	3207.63
567.25	3202.13
567.60	3198.07
567.96	3192.25
568.31	3188.00
568.66	3184.66
569.02	3181.22
569.37	3178.16
569.72	3174.94
570.08	3171.02
570.43	3165.87
570.78	3162.11
571.14	3157.47
571.49	3152.12
571.84	3147.51
572.20	3141.52
572.55	3136.40
572.90	3130.33
573.26	3124.45
573.61	3116.84
573.96	3109.63
574.31	3102.43
574.67	3096.17
575.02	3088.74
575.37	3081.51
575.72	3073.93
576.08	3066.56
576.43	3058.02
576.78	3050.26
577.13	3042.14
577.49	3034.76
577.84	3028.05
578.19	3019.64
578.54	3011.40
578.90	3003.31
579.25	2994.72
579.60	2985.89
579.95	2976.91
580.30	2968.62
580.66	2959.27
581.01	2950.41
581.36	2940.89
581.71	2933.10
582.06	2924.38
582.42	2916.19
582.77	2906.99
583.12	2897.12
583.47	2887.81
583.82	2878.57
584.17	2868.19
584.53	2858.75
584.88	2848.42
585.23	2838.30
585.58	2829.13
585.93	2819.14
586.28	2809.48
586.63	2799.63
586.98	2790.81
587.34	2781.33
587.69	2771.43
588.04	2762.64
588.39	2753.57
588.74	2743.54
589.09	2733.61
589.44	2722.23
589.79	2710.81
590.14	2701.05
590.49	2690.89
590.84	2681.12
591.19	2671.43
591.54	2661.13
591.89	2649.70
592.25	2639.39
592.60	2627.85
592.95	2616.33
593.30	2605.27
593.65	2594.06
594.00	2583.32
594.35	2573.26
594.70	2562.35
595.05	2551.42
595.40	2538.74
595.75	2526.78
596.10	2516.25
596.45	2504.33
596.80	2494.84
597.15	2484.19
597.50	2473.03
597.85	2462.91
598.19	2450.55
598.54	2438.54
598.89	2427.64
599.24	2417.15
599.59	2406.16
599.94	2396.40
600.29	2386.31
600.64	2375.83
600.99	2363.92
601.34	2353.65
601.69	2341.74
602.04	2330.42
602.39	2320.04
602.74	2311.71
603.08	2302.94
603.43	2294.57
603.78	2285.13
604.13	2274.90
604.48	2264.47
604.83	2255.05
605.18	2244.98
605.53	2235.41
605.87	2226.16
606.22	2217.00
606.57	2207.49
606.92	2196.69
607.27	2186.18
607.62	2175.66
607.96	2165.69
608.31	2156.98
608.66	2146.27
609.01	2135.43
609.36	2125.14
609.70	2114.16
610.05	2101.67
610.40	2089.75
610.75	2076.90
611.10	2065.65
611.44	2053.93
611.79	2043.17
612.14	2031.55
612.49	2018.79
612.83	2007.63
613.18	1995.20
613.53	1983.15
613.88	1970.16
614.22	1958.28
614.57	1945.87
614.92	1933.50
615.27	1921.29
615.61	1908.34
615.96	1896.19
616.31	1885.43
616.65	1874.67
617.00	1863.74
617.35	1853.45
617.70	1841.69
618.04	1830.16
618.39	1818.11
618.74	1806.40
619.08	1794.33
619.43	1781.92
619.78	1771.16
620.12	1760.29
620.47	1750.13
620.82	1738.92
621.16	1728.66
621.51	1718.32
621.85	1707.49
622.20	1696.44
622.55	1684.83
622.89	1674.22
623.24	1663.88
623.59	1652.69
623.93	1641.37
624.28	1630.12
624.62	1618.94
624.97	1608.68
625.32	1598.46
625.66	1588.49
626.01	1578.59
626.35	1569.87
626.70	1561.09
627.04	1551.36
627.39	1540.63
627.73	1530.52
628.08	1521.35
628.43	1511.80
628.77	1502.68
629.12	1492.98
629.46	1484.00
629.81	1474.66
630.15	1465.36
630.50	1455.56
630.84	1446.23
631.19	1436.48
631.53	1427.15
631.88	1417.58
632.22	1408.52
632.57	1400.06
632.91	1391.38
633.26	1382.31
633.60	1372.81
633.95	1363.85
634.29	1355.45
634.64	1347.55
634.98	1338.53
635.32	1329.65
635.67	1321.30
636.01	1312.66
636.36	1304.57
636.70	1296.23
637.05	1288.21
637.39	1279.87
637.73	1271.80
638.08	1264.32
638.42	1257.23
638.77	1249.96
639.11	1242.42
639.45	1234.49
639.80	1226.17
640.14	1218.18
640.49	1210.28
640.83	1201.85
641.17	1193.76
641.52	1185.60
641.86	1177.31
642.20	1169.67
642.55	1160.85
642.89	1152.19
643.23	1143.90
643.58	1136.40
643.92	1128.19
644.26	1120.16
644.61	1112.34
644.95	1104.17
645.29	1095.76
645.64	1087.00
645.98	1078.60
646.32	1070.89
646.66	1063.29
647.01	1055.78
647.35	1047.83
647.69	1039.93
648.04	1032.38
648.38	1024.50
648.72	1017.19
649.06	1009.62
649.41	1001.95
649.75	994.57
650.09	987.71
650.43	980.52
650.78	972.98
651.12	965.88
651.46	959.22
651.80	952.48
652.14	946.09
652.49	939.41
652.83	932.81
653.17	925.72
653.51	918.63
653.85	911.95
654.20	905.25
654.54	898.89
654.88	892.69
655.22	886.19
655.56	879.31
655.90	872.09
656.25	865.14
656.59	858.71
656.93	852.64
657.27	846.33
657.61	839.68
657.95	833.30
658.29	827.04
658.64	820.93
658.98	814.72
659.32	808.35
659.66	802.29
660.00	796.19
660.34	790.61
660.68	784.74
661.02	778.33
661.36	772.29
661.70	766.70
662.05	761.07
662.39	755.51
662.73	750.50
663.07	745.71
663.41	741.07
663.75	736.06
664.09	730.81
664.43	725.50
664.77	720.69
665.11	715.87
665.45	711.29
665.79	706.35
666.13	701.62
666.47	697.24
666.81	692.88
667.15	688.42
667.49	684.01
667.83	679.58
668.17	675.44
668.51	671.23
668.85	666.56
669.19	662.29
669.53	657.87
669.87	653.28
670.21	648.93
670.55	644.24
670.89	639.98
671.23	636.01
671.57	631.78
671.91	627.77
672.25	623.81
672.58	619.63
672.92	615.46
673.26	611.53
673.60	607.53
673.94	603.42
674.28	599.81
674.62	595.83
674.96	591.85
675.30	588.03
675.64	584.09
675.97	580.69
676.31	577.27
676.65	574.20
676.99	571.25
677.33	567.87
677.67	564.56
678.01	561.04
678.34	557.48
678.68	554.30
679.02	550.84
679.36	547.26
679.70	543.95
680.04	540.73
680.37	537.52
680.71	534.25
681.05	531.23
681.39	528.02
681.73	524.94
682.06	522.06
682.40	519.01
682.74	516.08
683.08	512.75
683.42	509.46
683.75	506.20
684.09	502.87
684.43	499.84
684.77	496.91
685.10	493.69
685.44	490.58
685.78	487.48
686.12	484.61
686.45	481.72
686.79	478.86
687.13	476.19
687.46	473.38
687.80	470.58
688.14	467.57
688.48	464.96
688.81	462.24
689.15	459.60
689.49	456.91
689.82	454.04
690.16	451.26
690.50	448.61
690.83	445.84
691.17	443.19
691.51	440.48
691.84	438.11
692.18	435.89
692.52	433.65
692.85	431.43
693.19	428.93
693.52	426.59
693.86	424.20
694.20	421.69
694.53	419.16
694.87	416.70
695.21	414.40
695.54	411.89
695.88	409.53
696.21	407.13
696.55	404.98
696.88	402.95
697.22	401.03
697.56	399.11
697.89	397.09
698.23	395.25
698.56	393.23
698.90	391.19
699.23	389.18
699.57	387.18
699.90	385.12
700.24	383.21
700.58	381.35
700.91	379.50
701.25	377.77
701.58	376.11
701.92	374.47
702.25	372.90
702.59	371.25
702.92	369.47
703.26	367.88
703.59	366.38
703.93	364.94
704.26	363.21
704.60	361.34
704.93	359.65
705.26	358.03
705.60	356.50
705.93	354.88
706.27	353.41
706.60	351.93
706.94	350.40
707.27	348.93
707.61	347.38
707.94	345.85
708.27	344.35
708.61	342.98
708.94	341.49
709.28	339.99
709.61	338.48
709.94	337.03
710.28	335.45
710.61	333.80
710.95	332.16
711.28	330.90
711.61	329.63
711.95	328.40
712.28	326.95
712.61	325.62
712.95	324.33
713.28	323.07
713.61	321.74
713.95	320.53
714.28	319.27
714.61	318.03
714.95	316.87
715.28	315.55
715.61	314.13
715.95	312.85
716.28	311.59
716.61	310.41
716.95	309.32
717.28	308.22
717.61	307.10
717.94	306.02
718.28	304.79
718.61	303.68
718.94	302.73
719.27	301.66
719.61	300.68
719.94	299.72
720.27	298.67
720.60	297.80
720.94	296.90
721.27	295.99
721.60	295.19
721.93	294.27
722.27	293.55
722.60	292.75
722.93	291.91
723.26	291.08
723.59	290.30
723.93	289.51
724.26	288.76
724.59	288.03
724.92	287.24
725.25	286.62
725.59	285.87
725.92	284.98
726.25	284.25
726.58	283.53
726.91	282.71
727.24	281.88
727.57	281.10
727.91	280.25
728.24	279.52
728.57	278.68
728.90	278.00
729.23	277.18
729.56	276.60
729.89	275.90
730.22	275.15
730.55	274.46
730.89	273.83
731.22	273.17
731.55	272.55
731.88	271.89
732.21	271.21
732.54	270.57
732.87	269.91
733.20	269.22
733.53	268.55
733.86	268.05
734.19	267.47
734.52	266.90
734.85	266.47
735.18	265.88
735.51	265.45
735.84	264.87
736.17	264.32
736.50	263.66
736.83	263.37
737.16	262.96
737.49	262.44
737.82	261.85
738.15	261.27
738.48	260.68
738.81	260.21
739.14	259.66
739.47	259.19
739.80	258.80
740.13	258.44
740.46	257.97
740.79	257.34
741.12	256.93
741.45	256.40
741.78	255.79
742.11	255.34
742.44	254.78
742.77	254.25
743.10	253.73
743.43	253.27
743.75	252.54
744.08	252.21
744.41	251.66
744.74	251.19
745.07	250.77
745.40	250.32
745.73	249.92
746.06	249.48
746.39	249.00
746.71	248.45
747.04	247.92
747.37	247.48
747.70	247.16
748.03	246.75
748.36	246.43
748.68	246.13
749.01	245.73
749.34	245.37
749.67	245.09
750.00	244.75
750.33	244.39
750.65	244.14
750.98	243.56
751.31	243.27
751.64	242.84
751.97	242.60
752.29	242.22
752.62	241.82
752.95	241.41
753.28	241.07
753.60	240.83
753.93	240.55
754.26	240.20
754.59	239.75
754.91	239.40
755.24	239.07
755.57	238.69
755.90	238.33
756.22	238.03
756.55	237.66
756.88	237.43
757.20	237.08
757.53	236.75
757.86	236.45
758.19	236.17
758.51	235.95
758.84	235.56
759.17	235.37
759.49	235.09
759.82	234.93
760.15	234.59
760.47	234.24
760.80	233.97
761.13	233.70
761.45	233.47
761.78	233.24
762.11	232.98
762.43	232.72
762.76	232.52
763.08	232.31
763.41	232.11
763.74	231.84
764.06	231.56
764.39	231.34
764.71	231.19
765.04	230.93
765.37	230.74
765.69	230.51
766.02	230.27
766.34	230.10
766.67	229.83
767.00	229.77
767.32	229.66
767.65	229.60
767.97	229.51
768.30	229.37
768.62	229.13
768.95	228.90
769.27	228.70
769.60	228.55
769.92	228.27
770.25	227.99
770.57	227.80
770.90	227.65
771.22	227.37
771.55	227.14
771.87	226.98
772.20	226.74
772.52	226.73
772.85	226.76
773.17	226.58
773.50	226.42
773.82	226.22
774.15	225.96
774.47	225.70
774.80	225.48
775.12	225.31
775.45	225.24
775.77	225.08
776.09	224.95
776.42	224.76
776.74	224.78
777.07	224.72
777.39	224.57
777.72	224.44
778.04	224.37
778.36	224.28
778.69	224.23
779.01	224.08
779.33	223.89
779.66	223.59
779.98	223.45
780.31	223.39
780.63	223.28
780.95	223.26
781.28	223.07
781.60	222.94
781.92	222.86
782.25	222.71
782.57	222.62
782.89	222.59
783.22	222.51
783.54	222.35
783.86	222.17
784.19	222.01
784.51	221.93
784.83	221.80
785.16	221.60
785.48	221.42
785.80	221.45
786.12	221.30
786.45	221.26
786.77	221.15
787.09	221.10
787.42	220.97
787.74	220.88
788.06	220.87
788.38	220.75
788.71	220.62
789.03	220.59
789.35	220.58
789.67	220.43
789.99	220.35
790.32	220.25
790.64	220.25
790.96	220.37
791.28	220.31
791.61	220.23
791.93	220.29
792.25	220.29
792.57	220.26
792.89	220.12
793.21	219.97
793.54	219.90
793.86	219.73
794.18	219.57
794.50	219.40
794.82	219.29
795.14	219.26
795.47	219.23
795.79	219.03
796.11	218.90
796.43	218.80
796.75	218.73
797.07	218.70
797.39	218.68
797.71	218.50
798.04	218.36
798.36	218.27
798.68	218.10
799.00	218.00
799.32	217.79
799.64	217.86
799.96	217.76
800.28	217.66
800.60	217.60
800.92	217.62
801.24	217.62
801.56	217.55
801.89	217.52
802.21	217.46
802.53	217.43
802.85	217.35
803.17	217.39
803.49	217.27
803.81	217.07
804.13	216.85
804.45	216.71
804.77	216.70
805.09	216.67
805.41	216.67
805.73	216.56
806.05	216.51
806.37	216.38
806.69	216.30
807.01	216.27
807.33	216.19
807.65	216.09
807.97	216.07
808.28	215.98
808.60	215.86
808.92	215.74
809.24	215.83
809.56	215.77
809.88	215.63
810.20	215.59
810.52	215.61
810.84	215.63
811.16	215.53
811.48	215.51
811.80	215.45
812.12	215.38
812.43	215.34
812.75	215.33
813.07	215.28
813.39	215.27
813.71	215.30
814.03	215.28
814.35	215.24
814.67	215.13
814.98	215.09
815.30	215.09
815.62	215.10
815.94	214.97
816.26	214.95
816.58	214.86
816.89	214.84
817.21	214.77
817.53	214.73
817.85	214.74
818.17	214.59
818.48	214.57
818.80	214.51
819.12	214.48
819.44	214.42
819.76	214.35
820.07	214.29
820.39	214.18
820.71	214.12
821.03	214.10
821.34	214.06
821.66	214.06
821.98	213.89
822.30	213.82
822.61	213.87
822.93	213.78
823.25	213.74
823.57	213.70
823.88	213.65
824.20	213.67
824.52	213.70
824.83	213.67
825.15	213.67
825.47	213.64
825.79	213.61
826.10	213.63
826.42	213.59
826.74	213.67
827.05	213.61
827.37	213.63
827.69	213.58
828.00	213.52
828.32	213.48
828.64	213.63
828.95	213.69
829.27	213.59
829.58	213.58
829.90	213.61
830.22	213.59
830.53	213.54
830.85	213.44
831.17	213.40
831.48	213.43
831.80	213.38
832.11	213.36
832.43	213.38
832.75	213.30
833.06	213.42
833.38	213.32
833.69	213.31
834.01	213.28
834.32	213.26
834.64	213.25
834.96	213.21
835.27	213.05
835.59	212.94
835.90	212.90
836.22	212.93
836.53	212.88
836.85	212.80
837.16	213.02
837.48	212.99
837.79	212.99
838.11	212.92
838.42	212.89
838.74	212.89
839.05	212.79
839.37	212.74
839.68	212.63
840.00	212.53
840.31	212.55
840.63	212.56
840.94	212.57
841.26	212.58
841.57	212.60
841.88	212.68
842.20	212.75
842.51	212.72
842.83	212.64
843.14	212.76
843.46	212.80
843.77	212.66
844.08	212.69
844.40	212.62
844.71	212.63
845.03	212.61
845.34	212.60
845.65	212.65
845.97	212.68
846.28	212.65
846.60	212.68
846.91	212.70
847.22	212.66
847.54	212.65
847.85	212.60
848.16	212.57
848.48	212.50
848.79	212.51
849.10	212.56
849.42	212.61
849.73	212.50
850.04	212.46
850.36	212.46
850.67	212.50
850.98	212.51
851.30	212.54
851.61	212.53
851.92	212.48
852.23	212.49
852.55	212.50
852.86	212.49
853.17	212.55
853.49	212.52
853.80	212.49
854.11	212.54
854.42	212.57
854.74	212.54
855.05	212.59
855.36	212.44
855.67	212.40
855.99	212.32
856.30	212.52
856.61	212.56
856.92	212.52
857.23	212.50
857.55	212.48
857.86	212.46
858.17	212.50
858.48	212.48
858.79	212.43
859.11	212.41
859.42	212.41
859.73	212.33
860.04	212.32
860.35	212.37
860.66	212.28
860.98	212.27
861.29	212.32
861.60	212.25
861.91	212.32
862.22	212.30
862.53	212.30
862.84	212.11
863.16	212.10
863.47	212.07
863.78	212.01
864.09	212.03
864.40	212.01
864.71	212.04
865.02	212.12
865.33	212.15
865.64	212.11
865.95	212.06
866.27	212.18
866.58	212.22
866.89	212.16
867.20	212.23
867.51	212.19
867.82	212.18
868.13	212.20
868.44	212.11
868.75	212.14
869.06	212.13
869.37	212.09
869.68	212.00
869.99	212.03
870.30	212.03
870.61	211.96
870.92	211.92
871.23	211.87
871.54	211.78
871.85	211.80
872.16	211.81
872.47	211.82
872.78	211.74
873.09	211.70
873.40	211.73
873.71	211.64
874.02	211.65
874.33	211.60
874.64	211.57
874.95	211.65
875.26	211.61
875.56	211.66
875.87	211.69
876.18	211.66
876.49	211.83
876.80	211.75
877.11	211.80
877.42	211.72
877.73	211.75
878.04	211.74
878.35	211.67
878.66	211.70
878.96	211.67
879.27	211.60
879.58	211.57
879.89	211.49
880.20	211.53
880.51	211.54
880.82	211.56
881.12	211.62
881.43	211.63
881.74	211.61
882.05	211.52
882.36	211.47
882.67	211.52
882.97	211.40
883.28	211.43
883.59	211.36
883.90	211.47
884.21	211.45
884.51	211.49
884.82	211.51
885.13	211.48
885.44	211.58
885.74	211.60
886.05	211.55
886.36	211.63
886.67	211.60
886.98	211.63
887.28	211.63
887.59	211.60
887.90	211.57
888.20	211.55
888.51	211.63
888.82	211.64
889.13	211.67
889.43	211.77
889.74	211.82
890.05	211.85
890.35	211.81
890.66	211.76
890.97	211.76
891.28	211.73
891.58	211.71
891.89	211.69
892.20	211.64
892.50	211.65
892.81	211.64
893.12	211.62
893.42	211.53
893.73	211.53
894.04	211.46
894.34	211.48
894.65	211.51
894.95	211.45
895.26	211.50
895.57	211.54
895.87	211.35
896.18	211.38
896.48	211.35
896.79	211.39
897.10	211.42
897.40	211.39
897.71	211.47
898.01	211.49
898.32	211.51
898.63	211.49
898.93	211.57
899.24	211.60
899.54	211.61
899.85	211.61
900.15	211.64
900.46	211.72
900.76	211.78
901.07	211.75
901.38	211.71
901.68	211.64
901.99	211.55
902.29	211.57
902.60	211.50
902.90	211.48
903.21	211.49
903.51	211.46
903.82	211.53
904.12	211.51
904.43	211.48
904.73	211.44
905.03	211.50
905.34	211.55
905.64	211.46
905.95	211.44
906.25	211.51
906.56	211.49
906.86	211.45
907.17	211.33
907.47	211.31
907.77	211.35
908.08	211.32
908.38	211.33
908.69	211.25
908.99	211.31
909.30	211.36
909.60	211.28
909.90	211.25
910.21	211.17
910.51	211.14
910.81	211.17
911.12	211.15
911.42	211.09
911.73	210.92
912.03	210.95
912.33	211.02
912.64	211.00
912.94	210.98
913.24	210.97
913.55	211.00
913.85	211.02
914.15	211.13
914.46	211.23
914.76	211.27
915.06	211.31
915.37	211.25
915.67	211.22
915.97	211.26
916.27	211.28
916.58	211.26
916.88	211.24
917.18	211.22
917.49	211.38
917.79	211.39
918.09	211.50
918.39	211.53
918.70	211.53
919.00	211.47
919.30	211.59
919.60	211.57
919.91	211.53
920.21	211.59
920.51	211.46
920.81	211.34
921.12	211.35
921.42	211.38
921.72	211.38
922.02	211.38
922.32	211.41
922.63	211.45
922.93	211.51
923.23	211.50
923.53	211.45
923.83	211.26
924.13	211.34
924.44	211.32
924.74	211.32
925.04	211.29
925.34	211.31
925.64	211.20
925.94	211.13
926.24	211.25
926.55	211.14
926.85	211.19
927.15	211.25
927.45	211.23
927.75	211.14
928.05	211.16
928.35	211.18
928.65	211.25
928.95	211.19
929.26	211.17
929.56	211.18
929.86	211.20
930.16	211.23
930.46	211.21
930.76	211.20
931.06	211.16
931.36	211.14
931.66	211.16
931.96	211.15
932.26	211.25
932.56	211.11
932.86	211.12
933.16	211.15
933.46	211.17
933.76	211.11
934.06	211.25
934.36	211.24
934.66	211.27
934.96	211.18
935.26	211.24
935.56	211.22
935.86	211.17
936.16	211.15
936.46	211.18
936.76	211.14
937.06	211.08
937.36	211.06
937.66	211.09
937.96	211.11
938.26	211.05
938.56	210.99
938.86	211.09
939.16	211.16
939.46	211.10
939.76	211.03
940.06	211.02
940.35	210.99
940.65	210.90
940.95	210.89
941.25	210.90
941.55	210.87
941.85	210.90
942.15	210.98
942.45	211.04
942.75	210.97
943.04	211.00
943.34	211.01
943.64	211.05
943.94	211.00
944.24	210.94
944.54	210.95
944.84	210.95
945.13	210.94
945.43	210.94
945.73	210.97
946.03	210.96
946.33	210.98
946.62	210.88
946.92	210.90
947.22	210.97
947.52	210.92
947.82	210.88
948.11	210.87
948.41	210.78
948.71	210.72
949.01	210.74
949.31	210.70
949.60	210.75
949.90	210.66
950.20	210.65
950.50	210.68
950.79	210.69
951.09	210.70
951.39	210.68
951.69	210.66
951.98	210.65
952.28	210.67
952.58	210.71
952.87	210.72
953.17	210.76
953.47	210.73
953.76	210.75
954.06	210.76
954.36	210.75
954.66	210.78
954.95	210.78
955.25	210.80
955.55	210.85
955.84	210.74
956.14	210.83
956.44	210.90
956.73	210.81
957.03	210.82
957.32	210.85
957.62	210.85
957.92	210.93
958.21	210.89
958.51	211.11
958.81	211.10
959.10	211.14
959.40	211.15
959.69	211.12
959.99	211.18
960.29	211.22
960.58	211.16
960.88	211.22
961.17	211.31
961.47	211.38
961.76	211.34
962.06	211.39
962.36	211.35
962.65	211.29
962.95	211.34
963.24	211.36
963.54	211.40
963.83	211.34
964.13	211.35
964.42	211.36
964.72	211.15
965.01	211.17
965.31	211.20
965.60	211.21
965.90	211.26
966.19	211.18
966.49	211.21
966.78	211.27
967.08	211.30
967.37	211.24
967.67	211.17
967.96	211.20
968.26	211.25
968.55	211.32
968.85	211.35
969.14	211.37
969.43	211.41
969.73	211.33
970.02	211.35
970.32	211.24
970.61	211.23
970.91	211.24
971.20	211.18
971.49	211.18
971.79	211.16
972.08	211.10
972.38	211.14
972.67	211.16
972.96	211.18
973.26	211.10
973.55	211.21
973.85	211.23
974.14	211.23
974.43	211.21
974.73	211.13
975.02	211.07
975.31	211.08
975.61	211.08
975.90	211.05
976.19	211.05
976.49	211.06
976.78	211.12
977.07	211.06
977.37	211.09
977.66	211.12
977.95	211.10
978.24	211.13
978.54	211.13
978.83	211.04
979.12	211.06
979.42	211.16
979.71	211.09
980.00	211.07
980.29	211.02
980.59	210.97
980.88	210.99
981.17	211.02
981.46	211.01
981.76	211.00
982.05	211.08
982.34	211.10
982.63	211.11
982.93	211.06
983.22	211.13
983.51	211.11
983.80	211.09
984.09	211.12
984.39	211.02
984.68	211.04
984.97	211.03
985.26	210.97
985.55	210.88
985.85	210.83
986.14	210.88
986.43	210.94
986.72	210.92
987.01	210.85
987.30	210.82
987.59	210.77
987.89	210.72
988.18	210.70
988.47	210.72
988.76	210.70
989.05	210.69
989.34	210.68
989.63	210.71
989.92	210.70
990.22	210.65
990.51	210.65
990.80	210.60
991.09	210.65
991.38	210.65
991.67	210.66
991.96	210.65
992.25	210.60
992.54	210.60
992.83	210.65
993.12	210.64
993.41	210.69
993.70	210.71
993.99	210.79
994.28	210.78
994.58	210.73
994.87	210.75
995.16	210.77
995.45	210.76
995.74	210.80
996.03	210.75
996.32	210.80
996.61	210.86
996.90	210.87
997.19	210.91
997.48	210.96
997.77	210.96
998.06	210.92
998.34	210.86
998.63	210.83
998.92	210.80
999.21	210.87
999.50	210.89
999.79	210.87
1000.08	210.76
1000.37	210.74
1000.66	210.71
1000.95	210.72
1001.24	210.66
1001.53	210.65
1001.82	210.61
1002.11	210.63
1002.40	210.60
1002.68	210.62
1002.97	210.72
1003.26	210.64
1003.55	210.56
1003.84	210.47
1004.13	210.53
1004.42	210.60
1004.71	210.64
1004.99	210.66
1005.28	210.72
1005.57	210.71
1005.86	210.81
1006.15	210.84
1006.44	210.80
1006.72	210.84
1007.01	210.81
1007.30	210.86
1007.59	210.87
1007.88	210.81
1008.17	210.85
1008.45	210.90
1008.74	210.86
1009.03	210.83
1009.32	210.86
1009.60	210.85
1009.89	210.87
1010.18	210.77
1010.47	210.73
1010.76	210.69
1011.04	210.70
1011.33	210.67
1011.62	210.66
1011.91	210.52
1012.19	210.57
1012.48	210.58
1012.77	210.59
1013.05	210.70
1013.34	210.67
1013.63	210.62
1013.92	210.66
1014.20	210.60
1014.49	210.57
1014.78	210.55
1015.06	210.51
1015.35	210.41
1015.64	210.48
1015.92	210.51
1016.21	210.60
1016.50	210.62
1016.78	210.60
1017.07	210.58
1017.36	210.59
1017.64	210.54
1017.93	210.55
1018.22	210.62
1018.50	210.63
1018.79	210.54
1019.08	210.46
1019.36	210.49
1019.65	210.47
1019.93	210.48
1020.22	210.55
1020.51	210.66
1020.79	210.69
1021.08	212.45
1021.36	209.80
1021.65	208.85
1021.94	211.15
1022.22	210.55
1022.51	209.80
1022.79	210.90
1023.08	211.25
1023.36	213.50
1023.65	210.90
>>>>>End Processed Spectral Data<<<<<
