SpectraSuite Data File
++++++++++++++++++++++++++++++++++++
Date: Mon Feb 25 17:29:42 EST 2013
User: group
Dark Spectrum Present: No
Reference Spectrum Present: No
Number of Sampled Component Spectra: 1
Spectrometers: USB2E7196
Integration Time (usec): 52000 (USB2E7196)
Spectra Averaged: 20 (USB2E7196)
Boxcar Smoothing: 10 (USB2E7196)
Correct for Electrical Dark: No (USB2E7196)
Strobe/Lamp Enabled: No (USB2E7196)
Correct for Detector Non-linearity: No (USB2E7196)
Correct for Stray Light: No (USB2E7196)
Number of Pixels in Processed Spectrum: 2048
>>>>>Begin Processed Spectral Data<<<<<
339.09	0.00
339.48	200.75
339.86	201.10
340.24	201.25
340.63	203.60
341.01	206.80
341.39	205.70
341.78	207.10
342.16	208.70
342.54	209.05
342.93	198.65
343.31	208.62
343.69	209.09
344.07	209.58
344.46	210.04
344.84	210.40
345.22	210.61
345.60	210.83
345.99	211.10
346.37	211.22
346.75	211.34
347.13	211.37
347.52	211.42
347.90	211.56
348.28	211.53
348.66	211.57
349.05	211.45
349.43	211.49
349.81	211.55
350.19	211.55
350.57	211.60
350.96	211.62
351.34	211.76
351.72	211.86
352.10	211.89
352.48	211.91
352.87	211.90
353.25	211.97
353.63	212.11
354.01	212.15
354.39	212.25
354.77	212.25
355.15	212.32
355.54	212.31
355.92	212.32
356.30	212.36
356.68	212.55
357.06	212.66
357.44	212.72
357.82	212.69
358.20	212.83
358.58	212.97
358.97	213.02
359.35	213.15
359.73	213.18
360.11	213.22
360.49	213.30
360.87	213.43
361.25	213.51
361.63	213.55
362.01	213.54
362.39	213.59
362.77	213.66
363.15	213.65
363.53	213.74
363.91	213.72
364.29	213.80
364.67	213.65
365.05	213.64
365.43	213.57
365.81	213.63
366.19	213.69
366.57	213.70
366.95	213.71
367.33	213.61
367.71	213.59
368.09	213.61
368.47	213.64
368.85	213.66
369.23	213.64
369.61	213.58
369.99	213.61
370.37	213.56
370.75	213.60
371.13	213.54
371.51	213.48
371.89	213.44
372.27	213.41
372.65	213.32
373.03	213.30
373.41	213.33
373.78	213.27
374.16	213.09
374.54	213.01
374.92	212.96
375.30	212.90
375.68	212.81
376.06	212.81
376.44	212.73
376.82	212.61
377.19	212.61
377.57	212.54
377.95	212.47
378.33	212.38
378.71	212.25
379.09	212.31
379.47	212.29
379.84	212.28
380.22	212.19
380.60	212.12
380.98	212.04
381.36	212.01
381.73	211.96
382.11	211.99
382.49	212.05
382.87	212.03
383.25	212.00
383.62	212.21
384.00	212.11
384.38	212.08
384.76	212.14
385.13	212.10
385.51	212.07
385.89	212.01
386.27	212.00
386.64	212.03
387.02	211.97
387.40	211.92
387.78	211.86
388.15	211.85
388.53	211.86
388.91	211.85
389.29	211.75
389.66	211.77
390.04	211.70
390.42	211.62
390.79	211.55
391.17	211.53
391.55	211.29
391.92	211.29
392.30	211.31
392.68	211.25
393.05	211.21
393.43	211.23
393.81	211.25
394.18	211.25
394.56	211.24
394.94	211.22
395.31	211.19
395.69	211.27
396.06	211.28
396.44	211.28
396.82	211.27
397.19	211.40
397.57	211.41
397.95	211.48
398.32	211.49
398.70	211.57
399.07	211.67
399.45	211.70
399.82	211.75
400.20	211.76
400.58	211.73
400.95	211.75
401.33	211.88
401.70	212.03
402.08	212.10
402.45	212.09
402.83	212.20
403.20	212.28
403.58	212.30
403.95	212.42
404.33	212.53
404.71	212.61
405.08	212.83
405.46	212.87
405.83	212.98
406.21	213.04
406.58	213.15
406.96	213.23
407.33	213.43
407.70	213.59
408.08	213.82
408.45	214.04
408.83	214.25
409.20	214.36
409.58	214.42
409.95	214.65
410.33	214.96
410.70	215.18
411.08	215.57
411.45	215.90
411.82	216.22
412.20	216.65
412.57	217.11
412.95	217.30
413.32	217.80
413.69	218.21
414.07	218.70
414.44	219.22
414.82	219.79
415.19	220.39
415.56	221.03
415.94	221.67
416.31	222.36
416.68	223.06
417.06	223.92
417.43	224.83
417.81	225.71
418.18	226.65
418.55	227.67
418.93	228.71
419.30	229.85
419.67	231.05
420.04	232.29
420.42	233.50
420.79	235.06
421.16	236.50
421.54	238.24
421.91	239.88
422.28	241.54
422.66	243.33
423.03	245.13
423.40	246.90
423.77	248.84
424.15	250.90
424.52	252.99
424.89	255.26
425.26	257.37
425.64	259.45
426.01	261.69
426.38	264.04
426.75	266.34
427.13	268.77
427.50	271.33
427.87	273.94
428.24	276.70
428.61	279.22
428.99	282.08
429.36	284.98
429.73	287.97
430.10	290.96
430.47	294.03
430.85	297.23
431.22	300.53
431.59	304.16
431.96	307.48
432.33	311.22
432.70	314.79
433.08	319.04
433.45	323.01
433.82	327.02
434.19	331.43
434.56	335.82
434.93	339.85
435.30	343.99
435.68	348.57
436.05	353.02
436.42	357.49
436.79	361.51
437.16	365.93
437.53	370.54
437.90	375.08
438.27	379.55
438.64	384.28
439.01	388.50
439.38	392.29
439.75	396.10
440.13	400.38
440.50	404.46
440.87	407.60
441.24	411.06
441.61	414.70
441.98	417.49
442.35	420.65
442.72	423.89
443.09	427.01
443.46	428.88
443.83	430.11
444.20	431.28
444.57	432.90
444.94	433.60
445.31	434.45
445.68	435.25
446.05	435.52
446.42	434.68
446.79	434.32
447.16	433.66
447.53	433.16
447.90	431.35
448.27	429.63
448.64	427.32
449.01	425.47
449.37	422.51
449.74	419.52
450.11	416.02
450.48	412.18
450.85	408.20
451.22	404.83
451.59	401.57
451.96	398.47
452.33	394.37
452.70	390.74
453.07	386.23
453.43	381.75
453.80	377.52
454.17	373.68
454.54	369.75
454.91	365.56
455.28	361.53
455.65	357.71
456.02	353.91
456.38	350.67
456.75	346.75
457.12	343.49
457.49	340.11
457.86	336.81
458.23	334.17
458.59	331.19
458.96	328.15
459.33	325.55
459.70	322.90
460.07	320.77
460.43	318.23
460.80	315.95
461.17	313.82
461.54	311.69
461.91	309.57
462.27	307.55
462.64	305.80
463.01	303.80
463.38	301.95
463.74	300.01
464.11	298.43
464.48	297.10
464.85	295.44
465.21	294.30
465.58	293.09
465.95	291.60
466.32	290.44
466.68	289.21
467.05	287.97
467.42	286.69
467.78	285.50
468.15	284.32
468.52	283.44
468.88	282.42
469.25	281.45
469.62	280.81
469.98	279.98
470.35	279.27
470.72	278.64
471.08	277.93
471.45	277.35
471.82	276.61
472.18	275.77
472.55	275.38
472.92	274.78
473.28	274.39
473.65	273.86
474.02	273.34
474.38	273.05
474.75	272.84
475.11	272.57
475.48	272.38
475.85	272.32
476.21	272.23
476.58	272.14
476.94	272.15
477.31	272.05
477.67	272.17
478.04	272.24
478.41	272.45
478.77	272.75
479.14	272.92
479.50	273.30
479.87	273.75
480.23	274.15
480.60	274.60
480.96	274.98
481.33	275.68
481.69	276.31
482.06	276.97
482.42	277.69
482.79	278.39
483.15	279.23
483.52	280.09
483.88	281.01
484.25	281.98
484.61	283.06
484.98	284.21
485.34	285.46
485.71	286.76
486.07	288.13
486.44	289.52
486.80	291.04
487.17	292.65
487.53	294.43
487.90	296.23
488.26	298.14
488.62	300.19
488.99	302.26
489.35	304.38
489.72	306.68
490.08	309.02
490.44	311.51
490.81	314.14
491.17	316.92
491.54	319.87
491.90	322.95
492.26	326.08
492.63	329.36
492.99	332.90
493.36	336.65
493.72	340.50
494.08	344.50
494.45	348.75
494.81	353.17
495.17	357.70
495.54	362.50
495.90	367.47
496.26	372.60
496.63	378.01
496.99	383.77
497.35	389.54
497.72	395.63
498.08	402.07
498.44	408.70
498.80	415.74
499.17	422.96
499.53	430.49
499.89	438.36
500.26	446.38
500.62	454.34
500.98	462.83
501.34	471.68
501.71	480.80
502.07	490.17
502.43	499.88
502.79	509.70
503.16	519.94
503.52	530.46
503.88	541.39
504.24	552.53
504.60	563.99
504.97	575.87
505.33	588.00
505.69	600.71
506.05	613.60
506.41	626.64
506.78	639.80
507.14	653.11
507.50	666.95
507.86	681.10
508.22	695.67
508.59	710.18
508.95	725.21
509.31	740.49
509.67	756.28
510.03	772.22
510.39	788.77
510.75	805.40
511.12	822.40
511.48	839.64
511.84	856.82
512.20	873.95
512.56	892.06
512.92	910.13
513.28	928.30
513.64	946.57
514.00	964.91
514.37	983.78
514.73	1002.86
515.09	1021.98
515.45	1041.02
515.81	1060.51
516.17	1080.08
516.53	1099.43
516.89	1119.05
517.25	1138.58
517.61	1158.46
517.97	1177.97
518.33	1197.45
518.69	1217.22
519.05	1237.32
519.41	1257.56
519.77	1278.18
520.13	1297.87
520.49	1317.81
520.85	1337.89
521.21	1358.05
521.57	1378.59
521.93	1398.05
522.29	1418.33
522.65	1438.46
523.01	1458.44
523.37	1478.13
523.73	1497.95
524.09	1518.00
524.45	1537.74
524.81	1557.35
525.17	1576.97
525.53	1596.93
525.89	1616.55
526.25	1635.89
526.61	1654.07
526.97	1673.00
527.33	1691.30
527.68	1709.92
528.04	1728.28
528.40	1746.11
528.76	1764.08
529.12	1781.85
529.48	1800.53
529.84	1818.27
530.20	1835.56
530.56	1853.06
530.91	1870.62
531.27	1888.04
531.63	1904.96
531.99	1921.76
532.35	1938.25
532.71	1954.38
533.07	1970.66
533.42	1986.45
533.78	2002.33
534.14	2018.01
534.50	2032.24
534.86	2047.45
535.21	2061.47
535.57	2076.22
535.93	2090.33
536.29	2103.98
536.65	2117.45
537.00	2129.84
537.36	2142.14
537.72	2154.41
538.08	2166.79
538.44	2178.96
538.79	2191.08
539.15	2202.86
539.51	2214.40
539.87	2226.45
540.22	2237.90
540.58	2249.48
540.94	2260.56
541.29	2270.32
541.65	2279.95
542.01	2290.25
542.37	2299.20
542.72	2308.57
543.08	2316.68
543.44	2325.80
543.79	2333.86
544.15	2341.41
544.51	2349.90
544.87	2358.01
545.22	2364.47
545.58	2370.55
545.94	2375.88
546.29	2380.42
546.65	2384.48
547.01	2388.70
547.36	2392.31
547.72	2395.97
548.07	2398.23
548.43	2400.35
548.79	2402.65
549.14	2405.36
549.50	2407.94
549.86	2410.35
550.21	2412.75
550.57	2414.95
550.92	2415.89
551.28	2416.93
551.64	2418.05
551.99	2419.09
552.35	2419.48
552.70	2421.03
553.06	2422.32
553.41	2423.52
553.77	2424.62
554.13	2425.50
554.48	2426.32
554.84	2426.26
555.19	2425.48
555.55	2424.60
555.90	2423.86
556.26	2422.84
556.61	2421.43
556.97	2419.04
557.32	2417.31
557.68	2414.40
558.03	2412.22
558.39	2409.90
558.74	2408.21
559.10	2406.25
559.45	2403.50
559.81	2401.40
560.16	2398.18
560.52	2394.87
560.87	2391.32
561.23	2387.14
561.58	2384.25
561.94	2379.89
562.29	2375.90
562.64	2373.07
563.00	2370.24
563.35	2367.59
563.71	2365.40
564.06	2362.87
564.42	2360.33
564.77	2357.32
565.12	2355.01
565.48	2351.44
565.83	2347.98
566.19	2344.22
566.54	2339.91
566.89	2335.79
567.25	2331.79
567.60	2328.24
567.96	2324.36
568.31	2320.50
568.66	2317.02
569.02	2312.10
569.37	2307.23
569.72	2303.40
570.08	2298.29
570.43	2292.85
570.78	2287.30
571.14	2281.34
571.49	2274.96
571.84	2269.57
572.20	2263.19
572.55	2257.18
572.90	2250.86
573.26	2244.45
573.61	2237.73
573.96	2231.64
574.31	2224.36
574.67	2216.68
575.02	2208.80
575.37	2201.22
575.72	2193.36
576.08	2186.35
576.43	2178.71
576.78	2171.86
577.13	2164.39
577.49	2156.87
577.84	2149.76
578.19	2143.07
578.54	2136.42
578.90	2130.17
579.25	2122.28
579.60	2114.19
579.95	2105.98
580.30	2098.85
580.66	2091.90
581.01	2084.42
581.36	2076.31
581.71	2068.94
582.06	2061.67
582.42	2054.64
582.77	2047.02
583.12	2039.18
583.47	2031.31
583.82	2024.24
584.17	2016.24
584.53	2008.45
584.88	2000.96
585.23	1993.15
585.58	1984.58
585.93	1976.39
586.28	1968.63
586.63	1961.28
586.98	1954.38
587.34	1947.31
587.69	1939.75
588.04	1931.68
588.39	1924.56
588.74	1916.95
589.09	1909.74
589.44	1901.72
589.79	1894.43
590.14	1887.54
590.49	1880.62
590.84	1873.03
591.19	1866.09
591.54	1858.86
591.89	1850.23
592.25	1842.23
592.60	1834.11
592.95	1826.71
593.30	1818.50
593.65	1810.00
594.00	1801.66
594.35	1794.87
594.70	1787.05
595.05	1779.46
595.40	1772.19
595.75	1763.85
596.10	1756.86
596.45	1749.40
596.80	1742.85
597.15	1735.72
597.50	1727.90
597.85	1720.67
598.19	1713.42
598.54	1706.09
598.89	1699.40
599.24	1693.80
599.59	1687.65
599.94	1681.95
600.29	1675.10
600.64	1668.50
600.99	1661.61
601.34	1655.80
601.69	1648.25
602.04	1641.40
602.39	1634.37
602.74	1627.90
603.08	1622.24
603.43	1616.16
603.78	1609.31
604.13	1602.29
604.48	1595.63
604.83	1589.94
605.18	1583.93
605.53	1577.37
605.87	1570.94
606.22	1564.87
606.57	1558.01
606.92	1550.86
607.27	1543.65
607.62	1537.32
607.96	1531.35
608.31	1526.03
608.66	1519.01
609.01	1512.65
609.36	1506.02
609.70	1499.22
610.05	1492.27
610.40	1485.39
610.75	1477.70
611.10	1471.31
611.44	1463.44
611.79	1455.77
612.14	1447.59
612.49	1439.38
612.83	1432.12
613.18	1423.49
613.53	1415.43
613.88	1407.34
614.22	1399.89
614.57	1392.12
614.92	1384.38
615.27	1376.46
615.61	1368.24
615.96	1360.48
616.31	1353.23
616.65	1346.52
617.00	1339.47
617.35	1332.20
617.70	1324.68
618.04	1317.31
618.39	1309.24
618.74	1302.54
619.08	1295.15
619.43	1288.18
619.78	1281.55
620.12	1274.45
620.47	1268.08
620.82	1261.00
621.16	1253.91
621.51	1246.88
621.85	1240.18
622.20	1232.65
622.55	1225.48
622.89	1218.32
623.24	1211.74
623.59	1204.19
623.93	1196.55
624.28	1189.79
624.62	1182.92
624.97	1175.87
625.32	1169.07
625.66	1163.05
626.01	1156.88
626.35	1150.74
626.70	1144.18
627.04	1137.84
627.39	1131.53
627.73	1125.17
628.08	1119.24
628.43	1113.16
628.77	1107.05
629.12	1100.42
629.46	1095.02
629.81	1088.97
630.15	1082.71
630.50	1076.45
630.84	1070.34
631.19	1064.43
631.53	1058.51
631.88	1052.01
632.22	1045.35
632.57	1039.53
632.91	1033.03
633.26	1026.58
633.60	1020.23
633.95	1014.63
634.29	1008.37
634.64	1002.53
634.98	996.63
635.32	990.54
635.67	984.90
636.01	978.98
636.36	973.23
636.70	967.59
637.05	962.05
637.39	956.67
637.73	951.15
638.08	946.22
638.42	941.08
638.77	935.54
639.11	930.18
639.45	925.33
639.80	919.68
640.14	914.29
640.49	909.00
640.83	903.91
641.17	898.16
641.52	892.95
641.86	887.39
642.20	881.81
642.55	875.90
642.89	870.38
643.23	864.72
643.58	859.68
643.92	853.92
644.26	848.45
644.61	843.26
644.95	838.03
645.29	832.44
645.64	826.72
645.98	821.30
646.32	816.30
646.66	811.11
647.01	805.91
647.35	800.85
647.69	795.31
648.04	790.08
648.38	785.11
648.72	779.80
649.06	774.59
649.41	769.45
649.75	764.49
650.09	759.29
650.43	754.32
650.78	748.97
651.12	743.70
651.46	738.66
651.80	733.52
652.14	728.43
652.49	723.38
652.83	718.52
653.17	713.19
653.51	707.92
653.85	702.84
654.20	697.73
654.54	692.71
654.88	688.08
655.22	682.99
655.56	677.80
655.90	672.82
656.25	667.99
656.59	663.25
656.93	659.02
657.27	654.60
657.61	649.87
657.95	645.45
658.29	641.06
658.64	636.61
658.98	632.18
659.32	627.50
659.66	623.20
660.00	618.69
660.34	614.27
660.68	609.81
661.02	605.43
661.36	601.36
661.70	597.16
662.05	593.02
662.39	589.26
662.73	585.51
663.07	581.95
663.41	578.08
663.75	574.05
664.09	569.77
664.43	565.83
664.77	562.01
665.11	558.17
665.45	554.40
665.79	550.61
666.13	546.61
666.47	543.04
666.81	539.22
667.15	535.69
667.49	532.42
667.83	529.13
668.17	525.75
668.51	522.40
668.85	519.16
669.19	515.90
669.53	512.53
669.87	508.92
670.21	505.45
670.55	502.11
670.89	499.20
671.23	496.31
671.57	493.24
671.91	490.30
672.25	487.14
672.58	484.29
672.92	481.32
673.26	478.69
673.60	475.94
673.94	473.13
674.28	470.34
674.62	467.66
674.96	464.90
675.30	462.40
675.64	459.67
675.97	457.07
676.31	454.52
676.65	451.96
676.99	449.82
677.33	447.25
677.67	444.76
678.01	442.00
678.34	439.44
678.68	436.91
679.02	434.37
679.36	432.05
679.70	429.55
680.04	427.11
680.37	424.57
680.71	422.04
681.05	419.78
681.39	417.44
681.73	415.00
682.06	412.81
682.40	410.48
682.74	408.32
683.08	406.11
683.42	403.83
683.75	401.50
684.09	399.17
684.43	397.07
684.77	394.86
685.10	392.82
685.44	390.65
685.78	388.54
686.12	386.64
686.45	384.54
686.79	382.62
687.13	380.80
687.46	378.90
687.80	377.01
688.14	374.95
688.48	373.11
688.81	371.31
689.15	369.30
689.49	367.36
689.82	365.39
690.16	363.37
690.50	361.42
690.83	359.56
691.17	357.61
691.51	355.68
691.84	353.92
692.18	352.22
692.52	350.50
692.85	348.93
693.19	347.16
693.52	345.50
693.86	343.73
694.20	341.96
694.53	340.41
694.87	338.75
695.21	337.15
695.54	335.42
695.88	333.66
696.21	332.17
696.55	330.67
696.88	329.22
697.22	327.68
697.56	326.24
697.89	324.75
698.23	323.39
698.56	321.97
698.90	320.72
699.23	319.26
699.57	317.91
699.90	316.40
700.24	315.02
700.58	313.76
700.91	312.46
701.25	311.20
701.58	309.97
701.92	308.79
702.25	307.58
702.59	306.46
702.92	305.41
703.26	304.28
703.59	303.24
703.93	302.24
704.26	301.21
704.60	300.21
704.93	299.21
705.26	298.15
705.60	297.21
705.93	296.08
706.27	295.17
706.60	294.26
706.94	293.38
707.27	292.33
707.61	291.33
707.94	290.33
708.27	289.32
708.61	288.25
708.94	287.29
709.28	286.34
709.61	285.30
709.94	284.40
710.28	283.55
710.61	282.50
710.95	281.48
711.28	280.70
711.61	279.79
711.95	278.98
712.28	278.07
712.61	277.19
712.95	276.41
713.28	275.58
713.61	274.69
713.95	273.95
714.28	273.27
714.61	272.36
714.95	271.58
715.28	270.79
715.61	270.00
715.95	269.28
716.28	268.57
716.61	267.91
716.95	267.13
717.28	266.26
717.61	265.61
717.94	264.84
718.28	264.05
718.61	263.43
718.94	262.73
719.27	262.06
719.61	261.42
719.94	260.81
720.27	260.12
720.60	259.49
720.94	258.81
721.27	258.21
721.60	257.75
721.93	257.27
722.27	256.87
722.60	256.35
722.93	255.81
723.26	255.23
723.59	254.70
723.93	254.20
724.26	253.81
724.59	253.32
724.92	252.92
725.25	252.50
725.59	251.99
725.92	251.52
726.25	251.16
726.58	250.74
726.91	250.20
727.24	249.77
727.57	249.35
727.91	248.85
728.24	248.43
728.57	248.03
728.90	247.58
729.23	247.03
729.56	246.75
729.89	246.36
730.22	245.98
730.55	245.64
730.89	245.28
731.22	244.85
731.55	244.48
731.88	244.12
732.21	243.71
732.54	243.25
732.87	242.91
733.20	242.55
733.53	242.08
733.86	241.82
734.19	241.47
734.52	241.13
734.85	241.00
735.18	240.64
735.51	240.41
735.84	240.03
736.17	239.80
736.50	239.34
736.83	239.23
737.16	238.88
737.49	238.50
737.82	238.09
738.15	237.83
738.48	237.45
738.81	237.16
739.14	236.83
739.47	236.59
739.80	236.22
740.13	235.89
740.46	235.66
740.79	235.27
741.12	235.04
741.45	234.69
741.78	234.36
742.11	234.08
742.44	233.69
742.77	233.46
743.10	233.13
743.43	232.92
743.75	232.43
744.08	232.43
744.41	232.17
744.74	231.95
745.07	231.67
745.40	231.54
745.73	231.39
746.06	231.17
746.39	230.89
746.71	230.69
747.04	230.51
747.37	230.25
747.70	230.12
748.03	229.81
748.36	229.62
748.68	229.35
749.01	229.08
749.34	228.80
749.67	228.58
750.00	228.39
750.33	228.28
750.65	228.14
750.98	227.69
751.31	227.46
751.64	227.24
751.97	227.14
752.29	226.86
752.62	226.56
752.95	226.35
753.28	226.20
753.60	226.05
753.93	225.84
754.26	225.69
754.59	225.44
754.91	225.23
755.24	225.09
755.57	224.93
755.90	224.81
756.22	224.72
756.55	224.55
756.88	224.33
757.20	224.01
757.53	223.74
757.86	223.58
758.19	223.47
758.51	223.35
758.84	223.07
759.17	222.99
759.49	222.85
759.82	222.78
760.15	222.55
760.47	222.39
760.80	222.25
761.13	222.12
761.45	221.99
761.78	221.95
762.11	221.86
762.43	221.69
762.76	221.55
763.08	221.45
763.41	221.41
763.74	221.27
764.06	221.18
764.39	221.10
764.71	221.02
765.04	220.95
765.37	220.79
765.69	220.61
766.02	220.44
766.34	220.26
766.67	220.15
767.00	220.12
767.32	220.12
767.65	220.03
767.97	219.96
768.30	219.82
768.62	219.73
768.95	219.61
769.27	219.48
769.60	219.40
769.92	219.28
770.25	219.09
770.57	219.00
770.90	218.94
771.22	218.85
771.55	218.76
771.87	218.64
772.20	218.62
772.52	218.80
772.85	218.98
773.17	218.99
773.50	218.89
773.82	218.74
774.15	218.53
774.47	218.35
774.80	218.28
775.12	218.24
775.45	218.15
775.77	218.13
776.09	218.15
776.42	218.07
776.74	218.05
777.07	217.99
777.39	218.00
777.72	218.00
778.04	217.95
778.36	217.88
778.69	217.87
779.01	217.83
779.33	217.56
779.66	217.21
779.98	217.10
780.31	217.02
780.63	217.08
780.95	217.11
781.28	217.07
781.60	216.96
781.92	216.93
782.25	216.91
782.57	216.71
782.89	216.63
783.22	216.60
783.54	216.47
783.86	216.38
784.19	216.23
784.51	216.19
784.83	216.07
785.16	216.03
785.48	215.93
785.80	215.84
786.12	215.81
786.45	215.82
786.77	215.83
787.09	215.71
787.42	215.59
787.74	215.51
788.06	215.48
788.38	215.46
788.71	215.44
789.03	215.41
789.35	215.43
789.67	215.36
789.99	215.29
790.32	215.21
790.64	215.20
790.96	215.38
791.28	215.20
791.61	215.24
791.93	215.18
792.25	215.14
792.57	215.25
792.89	215.16
793.21	215.08
793.54	214.98
793.86	214.97
794.18	215.00
794.50	214.90
794.82	214.86
795.14	214.81
795.47	214.75
795.79	214.69
796.11	214.71
796.43	214.65
796.75	214.66
797.07	214.71
797.39	214.72
797.71	214.51
798.04	214.53
798.36	214.43
798.68	214.41
799.00	214.33
799.32	214.24
799.64	214.26
799.96	214.27
800.28	214.24
800.60	214.15
800.92	214.11
801.24	214.08
801.56	214.05
801.89	213.97
802.21	213.86
802.53	213.82
802.85	213.77
803.17	213.80
803.49	213.71
803.81	213.60
804.13	213.55
804.45	213.47
804.77	213.40
805.09	213.37
805.41	213.32
805.73	213.33
806.05	213.20
806.37	213.16
806.69	213.08
807.01	213.10
807.33	213.13
807.65	213.06
807.97	213.16
808.28	213.18
808.60	213.15
808.92	213.19
809.24	213.22
809.56	213.18
809.88	213.11
810.20	213.13
810.52	213.19
810.84	213.15
811.16	213.20
811.48	213.25
811.80	213.25
812.12	213.23
812.43	213.20
812.75	213.16
813.07	213.14
813.39	213.16
813.71	213.13
814.03	213.08
814.35	213.06
814.67	212.94
814.98	212.90
815.30	212.86
815.62	212.84
815.94	212.71
816.26	212.63
816.58	212.59
816.89	212.57
817.21	212.43
817.53	212.45
817.85	212.40
818.17	212.36
818.48	212.39
818.80	212.35
819.12	212.32
819.44	212.33
819.76	212.31
820.07	212.33
820.39	212.28
820.71	212.29
821.03	212.25
821.34	212.24
821.66	212.27
821.98	212.41
822.30	212.34
822.61	212.38
822.93	212.33
823.25	212.29
823.57	212.27
823.88	212.27
824.20	212.27
824.52	212.30
824.83	212.30
825.15	212.22
825.47	212.21
825.79	212.19
826.10	212.17
826.42	212.15
826.74	212.13
827.05	212.10
827.37	212.12
827.69	212.07
828.00	212.11
828.32	212.12
828.64	212.01
828.95	212.13
829.27	212.15
829.58	212.14
829.90	212.15
830.22	212.19
830.53	212.22
830.85	212.17
831.17	212.16
831.48	212.09
831.80	212.12
832.11	212.12
832.43	212.15
832.75	212.17
833.06	212.24
833.38	212.14
833.69	212.18
834.01	212.13
834.32	212.18
834.64	212.10
834.96	211.99
835.27	211.97
835.59	211.90
835.90	211.80
836.22	211.83
836.53	211.82
836.85	211.79
837.16	211.99
837.48	211.99
837.79	212.00
838.11	212.04
838.42	212.01
838.74	211.97
839.05	211.90
839.37	211.88
839.68	211.78
840.00	211.82
840.31	211.85
840.63	211.82
840.94	211.82
841.26	211.77
841.57	211.76
841.88	211.76
842.20	211.73
842.51	211.85
842.83	211.85
843.14	211.96
843.46	211.90
843.77	211.77
844.08	211.70
844.40	211.63
844.71	211.60
845.03	211.60
845.34	211.62
845.65	211.62
845.97	211.63
846.28	211.65
846.60	211.74
846.91	211.70
847.22	211.75
847.54	211.78
847.85	211.76
848.16	211.83
848.48	211.86
848.79	211.92
849.10	211.87
849.42	211.89
849.73	211.74
850.04	211.71
850.36	211.64
850.67	211.78
850.98	211.75
851.30	211.75
851.61	211.79
851.92	211.78
852.23	211.86
852.55	211.90
852.86	211.90
853.17	211.82
853.49	211.82
853.80	211.87
854.11	211.82
854.42	211.91
854.74	211.79
855.05	211.80
855.36	211.70
855.67	211.71
855.99	211.67
856.30	211.87
856.61	211.89
856.92	211.92
857.23	211.83
857.55	211.83
857.86	211.86
858.17	211.89
858.48	211.90
858.79	211.88
859.11	211.90
859.42	211.87
859.73	211.87
860.04	211.84
860.35	211.78
860.66	211.78
860.98	211.76
861.29	211.79
861.60	211.70
861.91	211.73
862.22	211.71
862.53	211.77
862.84	211.57
863.16	211.65
863.47	211.58
863.78	211.62
864.09	211.67
864.40	211.67
864.71	211.61
865.02	211.58
865.33	211.46
865.64	211.40
865.95	211.45
866.27	211.60
866.58	211.62
866.89	211.68
867.20	211.65
867.51	211.62
867.82	211.59
868.13	211.70
868.44	211.74
868.75	211.82
869.06	211.76
869.37	211.81
869.68	211.78
869.99	211.79
870.30	211.74
870.61	211.76
870.92	211.67
871.23	211.76
871.54	211.84
871.85	211.90
872.16	211.93
872.47	211.86
872.78	211.73
873.09	211.74
873.40	211.67
873.71	211.64
874.02	211.60
874.33	211.70
874.64	211.64
874.95	211.64
875.26	211.58
875.56	211.60
875.87	211.60
876.18	211.59
876.49	211.87
876.80	211.88
877.11	211.79
877.42	211.81
877.73	211.73
878.04	211.73
878.35	211.73
878.66	211.75
878.96	211.73
879.27	211.76
879.58	211.74
879.89	211.76
880.20	211.80
880.51	211.82
880.82	211.79
881.12	211.76
881.43	211.70
881.74	211.58
882.05	211.63
882.36	211.59
882.67	211.59
882.97	211.32
883.28	211.26
883.59	211.26
883.90	211.29
884.21	211.35
884.51	211.34
884.82	211.28
885.13	211.27
885.44	211.24
885.74	211.20
886.05	211.18
886.36	211.06
886.67	211.07
886.98	211.20
887.28	211.22
887.59	211.25
887.90	211.29
888.20	211.35
888.51	211.36
888.82	211.39
889.13	211.35
889.43	211.50
889.74	211.62
890.05	211.65
890.35	211.63
890.66	211.55
890.97	211.52
891.28	211.54
891.58	211.49
891.89	211.50
892.20	211.47
892.50	211.49
892.81	211.53
893.12	211.54
893.42	211.46
893.73	211.50
894.04	211.45
894.34	211.42
894.65	211.38
894.95	211.30
895.26	211.29
895.57	211.33
895.87	211.20
896.18	211.13
896.48	211.10
896.79	211.14
897.10	211.14
897.40	211.10
897.71	211.19
898.01	211.14
898.32	211.16
898.63	211.20
898.93	211.22
899.24	211.23
899.54	211.20
899.85	211.20
900.15	211.17
900.46	211.23
900.76	211.26
901.07	211.27
901.38	211.30
901.68	211.31
901.99	211.32
902.29	211.33
902.60	211.30
902.90	211.31
903.21	211.23
903.51	211.27
903.82	211.27
904.12	211.26
904.43	211.30
904.73	211.28
905.03	211.32
905.34	211.39
905.64	211.35
905.95	211.32
906.25	211.35
906.56	211.33
906.86	211.34
907.17	211.28
907.47	211.28
907.77	211.26
908.08	211.20
908.38	211.15
908.69	211.15
908.99	211.29
909.30	211.30
909.60	211.35
909.90	211.33
910.21	211.28
910.51	211.20
910.81	211.30
911.12	211.31
911.42	211.24
911.73	211.10
912.03	211.21
912.33	211.26
912.64	211.17
912.94	211.17
913.24	211.10
913.55	211.17
913.85	211.16
914.15	211.13
914.46	211.19
914.76	211.15
915.06	211.12
915.37	210.95
915.67	210.92
915.97	210.95
916.27	210.90
916.58	210.94
916.88	210.97
917.18	210.87
917.49	211.00
917.79	211.03
918.09	211.10
918.39	211.10
918.70	211.07
919.00	211.12
919.30	211.13
919.60	211.12
919.91	211.04
920.21	211.11
920.51	211.11
920.81	211.10
921.12	211.13
921.42	211.13
921.72	211.18
922.02	211.16
922.32	211.17
922.63	211.15
922.93	211.24
923.23	211.20
923.53	211.15
923.83	211.01
924.13	210.97
924.44	210.92
924.74	210.94
925.04	210.96
925.34	210.95
925.64	210.88
925.94	210.90
926.24	210.99
926.55	210.96
926.85	211.01
927.15	210.96
927.45	211.02
927.75	211.02
928.05	211.06
928.35	211.09
928.65	211.09
928.95	211.16
929.26	211.07
929.56	211.14
929.86	211.15
930.16	211.14
930.46	211.15
930.76	211.15
931.06	211.14
931.36	211.12
931.66	211.11
931.96	211.20
932.26	211.20
932.56	211.13
932.86	211.05
933.16	210.92
933.46	210.93
933.76	210.88
934.06	210.87
934.36	210.85
934.66	210.79
934.96	210.86
935.26	210.79
935.56	210.78
935.86	210.74
936.16	210.80
936.46	210.77
936.76	210.76
937.06	210.75
937.36	210.70
937.66	210.70
937.96	210.74
938.26	210.67
938.56	210.62
938.86	210.69
939.16	210.81
939.46	210.95
939.76	210.98
940.06	210.99
940.35	210.95
940.65	210.95
940.95	211.04
941.25	210.91
941.55	210.91
941.85	210.97
942.15	211.02
942.45	211.01
942.75	211.02
943.04	211.02
943.34	211.07
943.64	211.01
943.94	210.97
944.24	210.97
944.54	211.01
944.84	211.05
945.13	210.93
945.43	210.79
945.73	210.65
946.03	210.66
946.33	210.65
946.62	210.65
946.92	210.57
947.22	210.51
947.52	210.55
947.82	210.59
948.11	210.59
948.41	210.54
948.71	210.50
949.01	210.55
949.31	210.57
949.60	210.55
949.90	210.62
950.20	210.60
950.50	210.53
950.79	210.50
951.09	210.51
951.39	210.53
951.69	210.60
951.98	210.75
952.28	210.76
952.58	210.74
952.87	210.78
953.17	210.86
953.47	210.90
953.76	210.89
954.06	210.90
954.36	210.89
954.66	210.85
954.95	210.90
955.25	210.87
955.55	210.92
955.84	210.85
956.14	210.87
956.44	210.87
956.73	210.93
957.03	210.94
957.32	210.97
957.62	210.99
957.92	211.04
958.21	210.99
958.51	211.18
958.81	211.25
959.10	211.29
959.40	211.31
959.69	211.24
959.99	211.32
960.29	211.26
960.58	211.29
960.88	211.36
961.17	211.33
961.47	211.40
961.76	211.40
962.06	211.49
962.36	211.50
962.65	211.53
962.95	211.55
963.24	211.48
963.54	211.45
963.83	211.50
964.13	211.47
964.42	211.43
964.72	211.26
965.01	211.21
965.31	211.17
965.60	211.13
965.90	211.28
966.19	211.20
966.49	211.25
966.78	211.23
967.08	211.27
967.37	211.31
967.67	211.22
967.96	211.23
968.26	211.19
968.55	211.17
968.85	211.17
969.14	211.15
969.43	211.20
969.73	211.17
970.02	211.13
970.32	211.10
970.61	211.12
970.91	211.09
971.20	211.07
971.49	211.07
971.79	211.08
972.08	210.95
972.38	210.94
972.67	210.86
972.96	210.88
973.26	210.84
973.55	210.92
973.85	210.91
974.14	210.87
974.43	210.85
974.73	210.83
975.02	210.77
975.31	210.79
975.61	210.80
975.90	210.78
976.19	210.77
976.49	210.83
976.78	210.90
977.07	210.86
977.37	210.89
977.66	210.86
977.95	210.80
978.24	210.83
978.54	210.94
978.83	211.03
979.12	210.94
979.42	210.90
979.71	210.76
980.00	210.74
980.29	210.73
980.59	210.73
980.88	210.74
981.17	210.78
981.46	210.77
981.76	210.74
982.05	210.83
982.34	210.85
982.63	210.83
982.93	210.80
983.22	210.85
983.51	210.82
983.80	210.89
984.09	210.90
984.39	210.89
984.68	210.81
984.97	210.80
985.26	210.88
985.55	210.83
985.85	210.84
986.14	210.90
986.43	210.91
986.72	210.90
987.01	210.92
987.30	210.92
987.59	210.85
987.89	210.87
988.18	210.78
988.47	210.83
988.76	210.76
989.05	210.71
989.34	210.70
989.63	210.79
989.92	210.78
990.22	210.82
990.51	210.79
990.80	210.82
991.09	210.85
991.38	210.84
991.67	210.93
991.96	210.96
992.25	210.90
992.54	210.95
992.83	210.95
993.12	210.93
993.41	210.90
993.70	211.00
993.99	211.07
994.28	211.10
994.58	211.07
994.87	211.08
995.16	211.11
995.45	211.07
995.74	210.91
996.03	210.94
996.32	210.94
996.61	210.99
996.90	210.91
997.19	210.88
997.48	210.86
997.77	210.82
998.06	210.80
998.34	210.86
998.63	210.82
998.92	210.86
999.21	210.89
999.50	210.94
999.79	210.85
1000.08	210.80
1000.37	210.84
1000.66	210.85
1000.95	210.94
1001.24	210.96
1001.53	211.01
1001.82	211.11
1002.11	211.10
1002.40	211.16
1002.68	211.22
1002.97	211.39
1003.26	211.34
1003.55	211.28
1003.84	211.33
1004.13	211.38
1004.42	211.33
1004.71	211.32
1004.99	211.24
1005.28	211.31
1005.57	211.30
1005.86	211.32
1006.15	211.36
1006.44	211.29
1006.72	211.27
1007.01	211.20
1007.30	211.16
1007.59	211.22
1007.88	211.21
1008.17	211.16
1008.45	211.09
1008.74	210.98
1009.03	210.89
1009.32	210.97
1009.60	210.98
1009.89	210.94
1010.18	210.87
1010.47	210.85
1010.76	210.86
1011.04	210.86
1011.33	210.84
1011.62	210.82
1011.91	210.80
1012.19	210.77
1012.48	210.84
1012.77	210.83
1013.05	210.90
1013.34	210.88
1013.63	210.80
1013.92	210.77
1014.20	210.75
1014.49	210.79
1014.78	210.83
1015.06	210.78
1015.35	210.69
1015.64	210.70
1015.92	210.68
1016.21	210.70
1016.50	210.73
1016.78	210.70
1017.07	210.80
1017.36	210.75
1017.64	210.75
1017.93	210.76
1018.22	210.74
1018.50	210.66
1018.79	210.67
1019.08	210.63
1019.36	210.65
1019.65	210.60
1019.93	210.63
1020.22	210.70
1020.51	210.74
1020.79	210.69
1021.08	210.40
1021.36	209.75
1021.65	210.90
1021.94	211.20
1022.22	210.55
1022.51	209.55
1022.79	211.40
1023.08	211.45
1023.36	212.65
1023.65	210.10
>>>>>End Processed Spectral Data<<<<<
