SpectraSuite Data File
++++++++++++++++++++++++++++++++++++
Date: Mon Feb 25 17:31:08 EST 2013
User: group
Dark Spectrum Present: No
Reference Spectrum Present: No
Number of Sampled Component Spectra: 1
Spectrometers: USB2E7196
Integration Time (usec): 52000 (USB2E7196)
Spectra Averaged: 20 (USB2E7196)
Boxcar Smoothing: 10 (USB2E7196)
Correct for Electrical Dark: No (USB2E7196)
Strobe/Lamp Enabled: No (USB2E7196)
Correct for Detector Non-linearity: No (USB2E7196)
Correct for Stray Light: No (USB2E7196)
Number of Pixels in Processed Spectrum: 2048
>>>>>Begin Processed Spectral Data<<<<<
339.09	0.00
339.48	199.40
339.86	199.60
340.24	201.05
340.63	202.75
341.01	208.05
341.39	205.80
341.78	206.80
342.16	207.90
342.54	209.15
342.93	198.12
343.31	208.11
343.69	208.62
344.07	209.13
344.46	209.63
344.84	210.04
345.22	210.16
345.60	210.45
345.99	210.70
346.37	210.90
346.75	211.00
347.13	211.07
347.52	211.14
347.90	211.30
348.28	211.34
348.66	211.31
349.05	211.26
349.43	211.32
349.81	211.37
350.19	211.38
350.57	211.44
350.96	211.53
351.34	211.69
351.72	211.86
352.10	211.97
352.48	212.04
352.87	212.09
353.25	212.11
353.63	212.14
354.01	212.20
354.39	212.21
354.77	212.30
355.15	212.46
355.54	212.56
355.92	212.48
356.30	212.49
356.68	212.72
357.06	212.88
357.44	212.95
357.82	212.99
358.20	213.12
358.58	213.29
358.97	213.37
359.35	213.47
359.73	213.49
360.11	213.57
360.49	213.62
360.87	213.70
361.25	213.80
361.63	213.91
362.01	213.95
362.39	214.07
362.77	214.09
363.15	214.12
363.53	214.11
363.91	214.19
364.29	214.25
364.67	214.06
365.05	214.02
365.43	214.07
365.81	214.15
366.19	214.15
366.57	214.13
366.95	214.12
367.33	214.06
367.71	214.10
368.09	214.07
368.47	214.10
368.85	214.03
369.23	214.05
369.61	213.98
369.99	214.07
370.37	213.99
370.75	214.13
371.13	214.00
371.51	213.95
371.89	213.93
372.27	213.88
372.65	213.85
373.03	213.86
373.41	213.83
373.78	213.71
374.16	213.61
374.54	213.48
374.92	213.34
375.30	213.28
375.68	213.20
376.06	213.17
376.44	213.07
376.82	213.08
377.19	213.06
377.57	213.00
377.95	212.85
378.33	212.80
378.71	212.59
379.09	212.63
379.47	212.60
379.84	212.57
380.22	212.48
380.60	212.44
380.98	212.37
381.36	212.30
381.73	212.29
382.11	212.28
382.49	212.24
382.87	212.22
383.25	212.15
383.62	212.26
384.00	212.20
384.38	212.18
384.76	212.15
385.13	212.12
385.51	212.12
385.89	212.10
386.27	212.07
386.64	212.04
387.02	211.93
387.40	211.90
387.78	211.95
388.15	211.98
388.53	211.92
388.91	211.90
389.29	211.87
389.66	211.83
390.04	211.80
390.42	211.80
390.79	211.74
391.17	211.78
391.55	211.64
391.92	211.58
392.30	211.56
392.68	211.47
393.05	211.48
393.43	211.40
393.81	211.41
394.18	211.39
394.56	211.42
394.94	211.53
395.31	211.56
395.69	211.49
396.06	211.52
396.44	211.63
396.82	211.60
397.19	211.70
397.57	211.66
397.95	211.68
398.32	211.70
398.70	211.80
399.07	211.80
399.45	211.75
399.82	211.78
400.20	211.78
400.58	211.86
400.95	211.81
401.33	211.91
401.70	212.08
402.08	212.16
402.45	212.19
402.83	212.20
403.20	212.25
403.58	212.41
403.95	212.54
404.33	212.57
404.71	212.71
405.08	212.94
405.46	213.10
405.83	213.28
406.21	213.39
406.58	213.52
406.96	213.75
407.33	213.97
407.70	214.24
408.08	214.58
408.45	214.84
408.83	215.16
409.20	215.44
409.58	215.52
409.95	215.83
410.33	216.12
410.70	216.36
411.08	216.76
411.45	217.14
411.82	217.44
412.20	217.89
412.57	218.40
412.95	218.70
413.32	219.23
413.69	219.63
414.07	220.20
414.44	220.82
414.82	221.40
415.19	222.19
415.56	222.88
415.94	223.59
416.31	224.43
416.68	225.31
417.06	226.23
417.43	227.24
417.81	228.31
418.18	229.52
418.55	230.81
418.93	232.03
419.30	233.28
419.67	234.59
420.04	235.98
420.42	237.36
420.79	239.15
421.16	240.79
421.54	242.70
421.91	244.58
422.28	246.46
422.66	248.46
423.03	250.39
423.40	252.40
423.77	254.48
424.15	256.68
424.52	258.95
424.89	261.47
425.26	263.93
425.64	266.22
426.01	268.74
426.38	271.26
426.75	273.98
427.13	276.76
427.50	279.70
427.87	282.70
428.24	285.80
428.61	288.55
428.99	291.83
429.36	295.25
429.73	298.58
430.10	301.98
430.47	305.45
430.85	309.02
431.22	312.85
431.59	317.03
431.96	320.96
432.33	325.13
432.70	329.24
433.08	334.02
433.45	338.57
433.82	343.00
434.19	348.07
434.56	352.91
434.93	357.60
435.30	362.26
435.68	367.48
436.05	372.63
436.42	377.74
436.79	382.23
437.16	387.27
437.53	392.54
437.90	397.73
438.27	402.69
438.64	407.87
439.01	412.83
439.38	417.11
439.75	421.21
440.13	425.99
440.50	430.38
440.87	434.00
441.24	437.74
441.61	441.85
441.98	444.82
442.35	448.31
442.72	451.78
443.09	455.25
443.46	457.30
443.83	458.56
444.20	459.74
444.57	461.49
444.94	462.11
445.31	462.82
445.68	463.65
446.05	464.00
446.42	463.34
446.79	462.53
447.16	461.70
447.53	461.10
447.90	459.19
448.27	457.14
448.64	454.30
449.01	452.24
449.37	448.81
449.74	445.35
450.11	441.42
450.48	437.11
450.85	432.57
451.22	428.59
451.59	424.92
451.96	421.36
452.33	416.69
452.70	412.46
453.07	407.43
453.43	402.16
453.80	397.15
454.17	392.53
454.54	387.94
454.91	383.19
455.28	378.64
455.65	374.19
456.02	370.00
456.38	366.31
456.75	361.76
457.12	357.92
457.49	354.21
457.86	350.49
458.23	347.32
458.59	343.88
458.96	340.41
459.33	337.26
459.70	334.17
460.07	331.71
460.43	328.87
460.80	326.35
461.17	324.05
461.54	321.68
461.91	319.36
462.27	317.16
462.64	315.18
463.01	312.98
463.38	310.96
463.74	308.76
464.11	306.96
464.48	305.29
464.85	303.53
465.21	302.23
465.58	300.87
465.95	299.20
466.32	297.75
466.68	296.43
467.05	295.13
467.42	293.80
467.78	292.45
468.15	291.22
468.52	290.21
468.88	288.91
469.25	287.76
469.62	286.96
469.98	285.91
470.35	285.01
470.72	284.17
471.08	283.26
471.45	282.53
471.82	281.71
472.18	280.88
472.55	280.30
472.92	279.55
473.28	278.85
473.65	278.24
474.02	277.75
474.38	277.33
474.75	276.94
475.11	276.48
475.48	276.25
475.85	275.99
476.21	275.70
476.58	275.57
476.94	275.59
477.31	275.40
477.67	275.42
478.04	275.47
478.41	275.48
478.77	275.73
479.14	275.87
479.50	276.13
479.87	276.44
480.23	276.80
480.60	277.25
480.96	277.79
481.33	278.41
481.69	279.09
482.06	279.70
482.42	280.37
482.79	281.14
483.15	282.01
483.52	283.00
483.88	284.01
484.25	285.05
484.61	286.06
484.98	287.13
485.34	288.45
485.71	289.77
486.07	291.10
486.44	292.43
486.80	293.91
487.17	295.58
487.53	297.40
487.90	299.25
488.26	301.17
488.62	303.11
488.99	305.13
489.35	307.27
489.72	309.62
490.08	311.89
490.44	314.37
490.81	316.95
491.17	319.56
491.54	322.45
491.90	325.45
492.26	328.69
492.63	332.20
492.99	335.61
493.36	339.15
493.72	343.08
494.08	347.05
494.45	351.37
494.81	355.78
495.17	360.40
495.54	365.20
495.90	370.23
496.26	375.44
496.63	381.02
496.99	386.80
497.35	392.78
497.72	399.11
498.08	405.59
498.44	412.25
498.80	419.30
499.17	426.63
499.53	434.33
499.89	442.22
500.26	450.32
500.62	458.52
500.98	467.41
501.34	476.46
501.71	485.87
502.07	495.40
502.43	505.26
502.79	515.42
503.16	526.05
503.52	536.84
503.88	548.19
504.24	559.64
504.60	571.39
504.97	583.61
505.33	596.11
505.69	609.38
506.05	622.79
506.41	636.33
506.78	650.05
507.14	664.05
507.50	678.58
507.86	693.43
508.22	708.87
508.59	724.03
508.95	739.90
509.31	755.98
509.67	772.59
510.03	789.45
510.39	806.88
510.75	824.50
511.12	842.36
511.48	860.47
511.84	878.65
512.20	897.16
512.56	916.18
512.92	935.48
513.28	954.76
513.64	974.27
514.00	994.05
514.37	1014.29
514.73	1034.77
515.09	1055.45
515.45	1076.02
515.81	1096.82
516.17	1118.11
516.53	1139.37
516.89	1160.75
517.25	1181.99
517.61	1203.29
517.97	1224.35
518.33	1245.33
518.69	1266.89
519.05	1288.57
519.41	1310.81
519.77	1333.19
520.13	1355.17
520.49	1377.09
520.85	1399.40
521.21	1421.73
521.57	1444.25
521.93	1466.06
522.29	1488.66
522.65	1510.67
523.01	1532.90
523.37	1554.68
523.73	1576.75
524.09	1598.95
524.45	1620.90
524.81	1642.94
525.17	1665.13
525.53	1687.44
525.89	1709.82
526.25	1731.69
526.61	1752.85
526.97	1774.19
527.33	1795.01
527.68	1816.12
528.04	1836.94
528.40	1856.91
528.76	1877.37
529.12	1897.68
529.48	1918.79
529.84	1938.70
530.20	1958.62
530.56	1978.63
530.91	1999.25
531.27	2019.31
531.63	2038.47
531.99	2058.12
532.35	2077.22
532.71	2095.82
533.07	2115.18
533.42	2133.49
533.78	2152.28
534.14	2170.32
534.50	2187.23
534.86	2204.77
535.21	2221.18
535.57	2238.45
535.93	2255.43
536.29	2271.51
536.65	2287.78
537.00	2302.72
537.36	2317.53
537.72	2332.55
538.08	2347.55
538.44	2362.41
538.79	2377.08
539.15	2391.67
539.51	2405.76
539.87	2420.33
540.22	2434.41
540.58	2448.56
540.94	2462.39
541.29	2474.47
541.65	2486.49
542.01	2499.15
542.37	2510.91
542.72	2522.83
543.08	2533.52
543.44	2545.08
543.79	2555.30
544.15	2565.09
544.51	2576.20
544.87	2586.89
545.22	2595.77
545.58	2603.74
545.94	2610.59
546.29	2617.02
546.65	2622.77
547.01	2628.78
547.36	2634.27
547.72	2639.66
548.07	2643.41
548.43	2646.74
548.79	2650.29
549.14	2654.49
549.50	2659.02
549.86	2662.39
550.21	2666.30
550.57	2670.05
550.92	2672.47
551.28	2675.20
551.64	2677.75
551.99	2679.75
552.35	2681.09
552.70	2683.40
553.06	2685.93
553.41	2688.73
553.77	2691.22
554.13	2693.49
554.48	2695.00
554.84	2696.04
555.19	2696.25
555.55	2696.75
555.90	2697.55
556.26	2698.02
556.61	2697.79
556.97	2696.00
557.32	2695.79
557.68	2693.74
558.03	2692.25
558.39	2690.41
558.74	2689.48
559.10	2688.15
559.45	2686.35
559.81	2685.08
560.16	2682.58
560.52	2680.07
560.87	2677.06
561.23	2673.40
561.58	2670.89
561.94	2667.63
562.29	2664.04
562.64	2662.05
563.00	2659.06
563.35	2656.62
563.71	2654.57
564.06	2652.39
564.42	2650.48
564.77	2647.92
565.12	2645.73
565.48	2642.30
565.83	2639.46
566.19	2636.09
566.54	2631.82
566.89	2627.60
567.25	2624.00
567.60	2620.54
567.96	2616.83
568.31	2613.05
568.66	2609.26
569.02	2604.67
569.37	2599.74
569.72	2596.10
570.08	2590.65
570.43	2585.05
570.78	2579.17
571.14	2572.96
571.49	2566.43
571.84	2560.28
572.20	2553.16
572.55	2546.80
572.90	2540.08
573.26	2533.28
573.61	2526.21
573.96	2519.87
574.31	2512.22
574.67	2504.01
575.02	2495.72
575.37	2487.13
575.72	2478.35
576.08	2470.82
576.43	2462.24
576.78	2454.50
577.13	2446.13
577.49	2437.93
577.84	2430.52
578.19	2423.31
578.54	2416.14
578.90	2409.41
579.25	2401.09
579.60	2392.46
579.95	2383.40
580.30	2375.69
580.66	2367.56
581.01	2358.81
581.36	2349.42
581.71	2341.12
582.06	2332.68
582.42	2324.75
582.77	2316.01
583.12	2307.33
583.47	2298.67
583.82	2290.32
584.17	2281.09
584.53	2272.20
584.88	2263.70
585.23	2254.66
585.58	2245.25
585.93	2235.62
586.28	2226.45
586.63	2217.72
586.98	2209.92
587.34	2202.18
587.69	2193.03
588.04	2183.98
588.39	2175.94
588.74	2167.20
589.09	2158.95
589.44	2149.53
589.79	2141.03
590.14	2133.34
590.49	2125.15
590.84	2116.35
591.19	2108.67
591.54	2100.54
591.89	2090.90
592.25	2081.76
592.60	2072.37
592.95	2063.19
593.30	2053.99
593.65	2044.45
594.00	2034.99
594.35	2026.51
594.70	2017.36
595.05	2008.94
595.40	2000.19
595.75	1990.65
596.10	1982.84
596.45	1974.11
596.80	1966.75
597.15	1958.74
597.50	1949.54
597.85	1941.25
598.19	1932.79
598.54	1924.10
598.89	1916.35
599.24	1909.72
599.59	1903.10
599.94	1896.41
600.29	1888.97
600.64	1881.20
600.99	1873.01
601.34	1866.13
601.69	1857.71
602.04	1849.51
602.39	1841.63
602.74	1833.96
603.08	1827.59
603.43	1820.40
603.78	1812.47
604.13	1804.43
604.48	1796.47
604.83	1789.83
605.18	1783.03
605.53	1775.43
605.87	1768.10
606.22	1760.98
606.57	1753.21
606.92	1744.66
607.27	1736.91
607.62	1729.44
607.96	1722.70
608.31	1716.61
608.66	1708.70
609.01	1701.10
609.36	1693.53
609.70	1685.79
610.05	1678.24
610.40	1670.10
610.75	1661.58
611.10	1654.44
611.44	1645.71
611.79	1636.88
612.14	1627.97
612.49	1618.60
612.83	1610.26
613.18	1600.61
613.53	1591.33
613.88	1581.62
614.22	1573.11
614.57	1563.81
614.92	1554.79
615.27	1545.70
615.61	1536.02
615.96	1527.41
616.31	1519.14
616.65	1511.37
617.00	1503.07
617.35	1494.83
617.70	1486.16
618.04	1477.33
618.39	1468.00
618.74	1459.91
619.08	1451.26
619.43	1443.09
619.78	1435.33
620.12	1427.36
620.47	1420.10
620.82	1411.86
621.16	1403.82
621.51	1395.55
621.85	1387.22
622.20	1378.82
622.55	1370.53
622.89	1362.55
623.24	1354.86
623.59	1346.44
623.93	1337.88
624.28	1329.78
624.62	1321.65
624.97	1313.55
625.32	1305.99
625.66	1298.78
626.01	1291.51
626.35	1284.72
626.70	1277.04
627.04	1269.75
627.39	1262.18
627.73	1254.57
628.08	1247.86
628.43	1240.87
628.77	1233.52
629.12	1226.31
629.46	1219.80
629.81	1212.91
630.15	1205.77
630.50	1198.12
630.84	1190.87
631.19	1183.98
631.53	1177.46
631.88	1170.14
632.22	1162.68
632.57	1156.00
632.91	1148.58
633.26	1141.25
633.60	1134.13
633.95	1127.69
634.29	1120.43
634.64	1113.88
634.98	1107.22
635.32	1100.25
635.67	1093.96
636.01	1087.56
636.36	1081.11
636.70	1074.56
637.05	1068.02
637.39	1061.71
637.73	1055.69
638.08	1049.91
638.42	1044.16
638.77	1037.55
639.11	1031.23
639.45	1025.49
639.80	1019.08
640.14	1012.84
640.49	1006.55
640.83	1000.19
641.17	993.79
641.52	987.68
641.86	981.45
642.20	975.14
642.55	968.32
642.89	961.91
643.23	955.49
643.58	949.74
643.92	943.26
644.26	937.11
644.61	931.06
644.95	925.06
645.29	919.09
645.64	912.53
645.98	906.31
646.32	900.53
646.66	894.46
647.01	888.49
647.35	882.91
647.69	876.80
648.04	871.20
648.38	865.35
648.72	859.50
649.06	853.47
649.41	847.68
649.75	842.24
650.09	836.47
650.43	830.81
650.78	824.58
651.12	818.70
651.46	812.97
651.80	807.20
652.14	801.27
652.49	795.27
652.83	789.71
653.17	783.76
653.51	777.98
653.85	772.16
654.20	766.36
654.54	760.49
654.88	755.17
655.22	749.37
655.56	743.51
655.90	737.85
656.25	732.17
656.59	726.65
656.93	721.42
657.27	716.25
657.61	710.65
657.95	705.64
658.29	700.65
658.64	695.63
658.98	690.55
659.32	685.27
659.66	680.13
660.00	674.69
660.34	669.78
660.68	664.80
661.02	659.89
661.36	655.19
661.70	650.27
662.05	645.63
662.39	641.31
662.73	637.20
663.07	633.09
663.41	628.78
663.75	624.38
664.09	619.77
664.43	615.09
664.77	610.89
665.11	606.44
665.45	602.04
665.79	597.60
666.13	593.21
666.47	589.21
666.81	585.19
667.15	581.33
667.49	577.54
667.83	573.51
668.17	569.71
668.51	565.98
668.85	562.52
669.19	558.84
669.53	554.90
669.87	550.72
670.21	546.86
670.55	543.04
670.89	539.60
671.23	536.26
671.57	532.95
671.91	529.56
672.25	526.03
672.58	522.66
672.92	519.34
673.26	516.38
673.60	513.03
673.94	509.70
674.28	506.50
674.62	503.39
674.96	500.52
675.30	497.58
675.64	494.48
675.97	491.32
676.31	488.38
676.65	485.54
676.99	482.99
677.33	480.02
677.67	477.08
678.01	474.08
678.34	471.18
678.68	468.23
679.02	465.34
679.36	462.69
679.70	459.95
680.04	457.14
680.37	454.20
680.71	451.51
681.05	449.06
681.39	446.36
681.73	443.65
682.06	440.97
682.40	438.36
682.74	435.77
683.08	433.23
683.42	430.60
683.75	428.09
684.09	425.49
684.43	423.06
684.77	420.72
685.10	418.24
685.44	415.65
685.78	413.39
686.12	411.09
686.45	408.80
686.79	406.46
687.13	404.31
687.46	402.05
687.80	400.03
688.14	397.65
688.48	395.45
688.81	393.35
689.15	391.21
689.49	388.99
689.82	386.79
690.16	384.56
690.50	382.37
690.83	380.00
691.17	377.89
691.51	375.67
691.84	373.65
692.18	371.65
692.52	369.79
692.85	367.81
693.19	366.06
693.52	364.12
693.86	362.25
694.20	360.28
694.53	358.39
694.87	356.40
695.21	354.54
695.54	352.85
695.88	350.88
696.21	349.02
696.55	347.27
696.88	345.52
697.22	343.84
697.56	342.27
697.89	340.75
698.23	339.14
698.56	337.63
698.90	336.13
699.23	334.57
699.57	333.04
699.90	331.34
700.24	329.51
700.58	328.00
700.91	326.40
701.25	324.97
701.58	323.60
701.92	322.15
702.25	320.76
702.59	319.36
702.92	318.08
703.26	316.81
703.59	315.57
703.93	314.47
704.26	313.19
704.60	311.99
704.93	310.72
705.26	309.45
705.60	308.20
705.93	306.94
706.27	305.72
706.60	304.62
706.94	303.69
707.27	302.68
707.61	301.60
707.94	300.58
708.27	299.50
708.61	298.50
708.94	297.40
709.28	296.39
709.61	295.37
709.94	294.37
710.28	293.35
710.61	292.32
710.95	291.15
711.28	290.26
711.61	289.24
711.95	288.45
712.28	287.41
712.61	286.49
712.95	285.59
713.28	284.74
713.61	283.75
713.95	282.74
714.28	281.80
714.61	280.90
714.95	280.02
715.28	279.05
715.61	277.99
715.95	277.11
716.28	276.13
716.61	275.30
716.95	274.37
717.28	273.51
717.61	272.74
717.94	272.04
718.28	271.17
718.61	270.40
718.94	269.51
719.27	268.96
719.61	268.25
719.94	267.53
720.27	266.77
720.60	266.05
720.94	265.37
721.27	264.74
721.60	264.04
721.93	263.41
722.27	262.91
722.60	262.38
722.93	261.78
723.26	261.28
723.59	260.62
723.93	260.12
724.26	259.61
724.59	258.99
724.92	258.39
725.25	257.98
725.59	257.48
725.92	257.08
726.25	256.50
726.58	256.00
726.91	255.41
727.24	254.94
727.57	254.52
727.91	253.93
728.24	253.50
728.57	253.10
728.90	252.67
729.23	252.13
729.56	251.74
729.89	251.30
730.22	250.72
730.55	250.30
730.89	249.86
731.22	249.32
731.55	248.94
731.88	248.51
732.21	247.96
732.54	247.41
732.87	246.91
733.20	246.43
733.53	246.00
733.86	245.66
734.19	245.20
734.52	244.85
734.85	244.61
735.18	244.10
735.51	243.67
735.84	243.28
736.17	242.91
736.50	242.38
736.83	242.26
737.16	242.03
737.49	241.65
737.82	241.28
738.15	241.00
738.48	240.66
738.81	240.27
739.14	239.91
739.47	239.63
739.80	239.30
740.13	239.00
740.46	238.66
740.79	238.24
741.12	237.95
741.45	237.50
741.78	237.16
742.11	236.95
742.44	236.62
742.77	236.36
743.10	236.07
743.43	235.77
743.75	235.26
744.08	235.08
744.41	234.76
744.74	234.46
745.07	234.05
745.40	233.72
745.73	233.56
746.06	233.32
746.39	233.00
746.71	232.73
747.04	232.41
747.37	232.16
747.70	231.95
748.03	231.66
748.36	231.51
748.68	231.24
749.01	230.89
749.34	230.74
749.67	230.52
750.00	230.30
750.33	230.28
750.65	230.06
750.98	229.66
751.31	229.47
751.64	229.31
751.97	229.27
752.29	229.06
752.62	228.76
752.95	228.48
753.28	228.25
753.60	228.02
753.93	227.96
754.26	227.70
754.59	227.52
754.91	227.33
755.24	227.09
755.57	226.98
755.90	226.84
756.22	226.58
756.55	226.40
756.88	226.11
757.20	225.82
757.53	225.50
757.86	225.44
758.19	225.24
758.51	225.04
758.84	224.70
759.17	224.49
759.49	224.32
759.82	224.34
760.15	224.32
760.47	224.16
760.80	223.90
761.13	223.77
761.45	223.59
761.78	223.45
762.11	223.31
762.43	223.04
762.76	222.93
763.08	222.79
763.41	222.65
763.74	222.63
764.06	222.55
764.39	222.53
764.71	222.30
765.04	222.22
765.37	222.09
765.69	222.04
766.02	221.97
766.34	221.92
766.67	221.68
767.00	221.57
767.32	221.54
767.65	221.50
767.97	221.41
768.30	221.32
768.62	221.17
768.95	221.00
769.27	220.93
769.60	220.85
769.92	220.70
770.25	220.55
770.57	220.38
770.90	220.13
771.22	219.99
771.55	219.93
771.87	219.81
772.20	219.70
772.52	219.78
772.85	219.88
773.17	219.69
773.50	219.52
773.82	219.27
774.15	219.12
774.47	218.94
774.80	218.79
775.12	218.63
775.45	218.56
775.77	218.62
776.09	218.51
776.42	218.38
776.74	218.32
777.07	218.11
777.39	218.01
777.72	217.93
778.04	217.89
778.36	217.75
778.69	217.75
779.01	217.74
779.33	217.45
779.66	217.10
779.98	217.07
780.31	217.05
780.63	217.14
780.95	217.09
781.28	217.08
781.60	217.06
781.92	217.06
782.25	217.03
782.57	216.89
782.89	216.80
783.22	216.74
783.54	216.75
783.86	216.76
784.19	216.75
784.51	216.78
784.83	216.70
785.16	216.64
785.48	216.53
785.80	216.43
786.12	216.48
786.45	216.46
786.77	216.45
787.09	216.41
787.42	216.26
787.74	216.18
788.06	216.14
788.38	216.09
788.71	216.01
789.03	216.01
789.35	215.94
789.67	215.91
789.99	215.88
790.32	215.75
790.64	215.73
790.96	215.79
791.28	215.65
791.61	215.61
791.93	215.63
792.25	215.55
792.57	215.70
792.89	215.55
793.21	215.52
793.54	215.46
793.86	215.45
794.18	215.43
794.50	215.41
794.82	215.35
795.14	215.33
795.47	215.29
795.79	215.20
796.11	215.13
796.43	214.97
796.75	214.87
797.07	214.90
797.39	214.85
797.71	214.66
798.04	214.66
798.36	214.60
798.68	214.53
799.00	214.51
799.32	214.30
799.64	214.31
799.96	214.29
800.28	214.27
800.60	214.14
800.92	214.18
801.24	214.10
801.56	214.01
801.89	213.89
802.21	213.89
802.53	213.83
802.85	213.86
803.17	214.00
803.49	213.97
803.81	213.94
804.13	213.89
804.45	213.83
804.77	213.81
805.09	213.83
805.41	213.75
805.73	213.72
806.05	213.65
806.37	213.60
806.69	213.58
807.01	213.52
807.33	213.58
807.65	213.45
807.97	213.52
808.28	213.55
808.60	213.59
808.92	213.58
809.24	213.72
809.56	213.68
809.88	213.59
810.20	213.60
810.52	213.63
810.84	213.62
811.16	213.57
811.48	213.57
811.80	213.55
812.12	213.59
812.43	213.58
812.75	213.56
813.07	213.50
813.39	213.45
813.71	213.45
814.03	213.34
814.35	213.29
814.67	213.15
814.98	213.05
815.30	213.03
815.62	212.94
815.94	212.74
816.26	212.74
816.58	212.70
816.89	212.66
817.21	212.63
817.53	212.63
817.85	212.63
818.17	212.55
818.48	212.55
818.80	212.55
819.12	212.44
819.44	212.41
819.76	212.43
820.07	212.48
820.39	212.51
820.71	212.57
821.03	212.63
821.34	212.63
821.66	212.71
821.98	212.70
822.30	212.65
822.61	212.76
822.93	212.73
823.25	212.73
823.57	212.71
823.88	212.73
824.20	212.71
824.52	212.84
824.83	212.90
825.15	212.84
825.47	212.87
825.79	212.95
826.10	213.03
826.42	213.07
826.74	213.09
827.05	213.06
827.37	213.00
827.69	212.99
828.00	212.98
828.32	212.96
828.64	212.90
828.95	213.05
829.27	213.00
829.58	213.03
829.90	213.05
830.22	213.11
830.53	212.99
830.85	212.95
831.17	212.89
831.48	212.89
831.80	212.86
832.11	212.76
832.43	212.72
832.75	212.68
833.06	212.71
833.38	212.63
833.69	212.59
834.01	212.61
834.32	212.63
834.64	212.56
834.96	212.50
835.27	212.54
835.59	212.45
835.90	212.41
836.22	212.37
836.53	212.26
836.85	212.20
837.16	212.36
837.48	212.40
837.79	212.43
838.11	212.32
838.42	212.29
838.74	212.32
839.05	212.27
839.37	212.15
839.68	212.04
840.00	212.04
840.31	212.00
840.63	212.02
840.94	212.00
841.26	212.05
841.57	212.06
841.88	212.05
842.20	212.00
842.51	211.92
842.83	211.86
843.14	212.06
843.46	212.05
843.77	211.91
844.08	211.88
844.40	211.76
844.71	211.78
845.03	211.80
845.34	211.74
845.65	211.74
845.97	211.77
846.28	211.71
846.60	211.68
846.91	211.71
847.22	211.61
847.54	211.64
847.85	211.65
848.16	211.65
848.48	211.61
848.79	211.64
849.10	211.68
849.42	211.63
849.73	211.45
850.04	211.50
850.36	211.48
850.67	211.46
850.98	211.47
851.30	211.51
851.61	211.48
851.92	211.46
852.23	211.54
852.55	211.58
852.86	211.67
853.17	211.68
853.49	211.66
853.80	211.74
854.11	211.71
854.42	211.67
854.74	211.68
855.05	211.69
855.36	211.60
855.67	211.60
855.99	211.72
856.30	211.95
856.61	211.90
856.92	211.89
857.23	211.89
857.55	211.90
857.86	211.88
858.17	211.94
858.48	211.93
858.79	211.95
859.11	212.03
859.42	211.97
859.73	211.93
860.04	211.92
860.35	211.86
860.66	211.76
860.98	211.80
861.29	211.76
861.60	211.70
861.91	211.80
862.22	211.80
862.53	211.75
862.84	211.55
863.16	211.57
863.47	211.57
863.78	211.62
864.09	211.64
864.40	211.61
864.71	211.62
865.02	211.63
865.33	211.47
865.64	211.41
865.95	211.39
866.27	211.50
866.58	211.50
866.89	211.59
867.20	211.58
867.51	211.52
867.82	211.56
868.13	211.56
868.44	211.52
868.75	211.55
869.06	211.53
869.37	211.55
869.68	211.51
869.99	211.52
870.30	211.50
870.61	211.51
870.92	211.50
871.23	211.47
871.54	211.46
871.85	211.61
872.16	211.58
872.47	211.68
872.78	211.56
873.09	211.54
873.40	211.48
873.71	211.51
874.02	211.51
874.33	211.49
874.64	211.53
874.95	211.57
875.26	211.43
875.56	211.51
875.87	211.43
876.18	211.33
876.49	211.54
876.80	211.50
877.11	211.41
877.42	211.36
877.73	211.34
878.04	211.34
878.35	211.26
878.66	211.22
878.96	211.15
879.27	211.15
879.58	211.20
879.89	211.17
880.20	211.19
880.51	211.20
880.82	211.20
881.12	211.15
881.43	211.13
881.74	211.23
882.05	211.13
882.36	211.12
882.67	211.16
882.97	210.91
883.28	210.86
883.59	210.83
883.90	210.80
884.21	210.84
884.51	210.85
884.82	210.82
885.13	210.83
885.44	210.78
885.74	210.79
886.05	210.71
886.36	210.72
886.67	210.61
886.98	210.71
887.28	210.69
887.59	210.76
887.90	210.70
888.20	210.69
888.51	210.73
888.82	210.78
889.13	210.83
889.43	211.01
889.74	211.03
890.05	211.07
890.35	211.20
890.66	211.19
890.97	211.15
891.28	211.13
891.58	211.20
891.89	211.22
892.20	211.17
892.50	211.19
892.81	211.21
893.12	211.20
893.42	211.09
893.73	211.11
894.04	211.04
894.34	211.07
894.65	211.09
894.95	211.12
895.26	211.10
895.57	211.16
895.87	210.96
896.18	210.97
896.48	210.95
896.79	210.95
897.10	210.97
897.40	210.94
897.71	211.02
898.01	210.96
898.32	210.98
898.63	211.01
898.93	211.00
899.24	210.98
899.54	211.05
899.85	211.03
900.15	210.98
900.46	211.00
900.76	210.98
901.07	210.91
901.38	210.86
901.68	210.90
901.99	210.83
902.29	210.87
902.60	210.86
902.90	210.87
903.21	210.85
903.51	210.86
903.82	210.93
904.12	210.91
904.43	210.92
904.73	210.93
905.03	210.93
905.34	211.04
905.64	211.03
905.95	210.97
906.25	210.98
906.56	211.06
906.86	211.05
907.17	211.08
907.47	211.06
907.77	211.07
908.08	211.02
908.38	211.05
908.69	211.06
908.99	211.12
909.30	211.12
909.60	211.15
909.90	211.13
910.21	211.05
910.51	211.02
910.81	211.06
911.12	211.02
911.42	211.02
911.73	210.94
912.03	211.00
912.33	211.09
912.64	211.03
912.94	211.00
913.24	211.01
913.55	211.01
913.85	211.03
914.15	211.05
914.46	211.10
914.76	211.07
915.06	211.09
915.37	211.02
915.67	211.07
915.97	211.07
916.27	210.99
916.58	211.04
916.88	211.03
917.18	211.00
917.49	211.14
917.79	211.23
918.09	211.20
918.39	211.23
918.70	211.19
919.00	211.29
919.30	211.39
919.60	211.37
919.91	211.36
920.21	211.43
920.51	211.39
920.81	211.41
921.12	211.46
921.42	211.41
921.72	211.43
922.02	211.45
922.32	211.45
922.63	211.45
922.93	211.56
923.23	211.59
923.53	211.58
923.83	211.45
924.13	211.47
924.44	211.49
924.74	211.49
925.04	211.52
925.34	211.43
925.64	211.30
925.94	211.38
926.24	211.47
926.55	211.39
926.85	211.42
927.15	211.42
927.45	211.48
927.75	211.51
928.05	211.57
928.35	211.55
928.65	211.55
928.95	211.59
929.26	211.53
929.56	211.51
929.86	211.52
930.16	211.64
930.46	211.54
930.76	211.60
931.06	211.56
931.36	211.51
931.66	211.58
931.96	211.62
932.26	211.50
932.56	211.44
932.86	211.46
933.16	211.45
933.46	211.42
933.76	211.35
934.06	211.36
934.36	211.35
934.66	211.31
934.96	211.25
935.26	211.27
935.56	211.30
935.86	211.30
936.16	211.24
936.46	211.13
936.76	211.11
937.06	211.01
937.36	211.04
937.66	211.10
937.96	211.09
938.26	211.07
938.56	211.13
938.86	211.17
939.16	211.20
939.46	211.20
939.76	211.21
940.06	211.22
940.35	211.18
940.65	211.10
940.95	211.11
941.25	211.11
941.55	211.06
941.85	211.09
942.15	211.09
942.45	211.14
942.75	211.09
943.04	211.15
943.34	211.18
943.64	211.09
943.94	211.07
944.24	211.06
944.54	211.08
944.84	211.05
945.13	210.99
945.43	210.95
945.73	210.95
946.03	210.90
946.33	210.88
946.62	210.85
946.92	210.84
947.22	210.80
947.52	210.83
947.82	210.84
948.11	210.74
948.41	210.76
948.71	210.64
949.01	210.71
949.31	210.62
949.60	210.63
949.90	210.66
950.20	210.60
950.50	210.58
950.79	210.52
951.09	210.55
951.39	210.56
951.69	210.55
951.98	210.60
952.28	210.58
952.58	210.54
952.87	210.60
953.17	210.60
953.47	210.63
953.76	210.55
954.06	210.52
954.36	210.51
954.66	210.50
954.95	210.65
955.25	210.67
955.55	210.78
955.84	210.73
956.14	210.80
956.44	210.79
956.73	210.77
957.03	210.80
957.32	210.77
957.62	210.74
957.92	210.72
958.21	210.68
958.51	210.90
958.81	210.95
959.10	210.97
959.40	211.05
959.69	211.05
959.99	211.15
960.29	211.14
960.58	211.17
960.88	211.24
961.17	211.19
961.47	211.14
961.76	211.12
962.06	211.16
962.36	211.07
962.65	211.16
962.95	211.23
963.24	211.18
963.54	211.27
963.83	211.30
964.13	211.34
964.42	211.32
964.72	211.22
965.01	211.24
965.31	211.23
965.60	211.16
965.90	211.24
966.19	211.26
966.49	211.31
966.78	211.31
967.08	211.25
967.37	211.28
967.67	211.33
967.96	211.36
968.26	211.36
968.55	211.45
968.85	211.41
969.14	211.38
969.43	211.43
969.73	211.34
970.02	211.34
970.32	211.41
970.61	211.42
970.91	211.33
971.20	211.28
971.49	211.30
971.79	211.36
972.08	211.34
972.38	211.30
972.67	211.27
972.96	211.34
973.26	211.36
973.55	211.38
973.85	211.36
974.14	211.38
974.43	211.38
974.73	211.31
975.02	211.29
975.31	211.24
975.61	211.24
975.90	211.29
976.19	211.24
976.49	211.20
976.78	211.22
977.07	211.29
977.37	211.36
977.66	211.39
977.95	211.30
978.24	211.28
978.54	211.36
978.83	211.37
979.12	211.32
979.42	211.24
979.71	211.19
980.00	211.20
980.29	211.09
980.59	211.08
980.88	211.13
981.17	211.13
981.46	211.15
981.76	211.17
982.05	211.14
982.34	211.18
982.63	211.14
982.93	211.11
983.22	211.10
983.51	211.07
983.80	211.03
984.09	211.09
984.39	211.05
984.68	210.93
984.97	210.91
985.26	210.87
985.55	210.93
985.85	210.89
986.14	210.81
986.43	210.87
986.72	210.83
987.01	210.71
987.30	210.67
987.59	210.66
987.89	210.61
988.18	210.58
988.47	210.58
988.76	210.54
989.05	210.48
989.34	210.43
989.63	210.46
989.92	210.37
990.22	210.33
990.51	210.39
990.80	210.37
991.09	210.44
991.38	210.47
991.67	210.39
991.96	210.40
992.25	210.49
992.54	210.50
992.83	210.48
993.12	210.52
993.41	210.55
993.70	210.60
993.99	210.65
994.28	210.74
994.58	210.77
994.87	210.82
995.16	210.85
995.45	210.74
995.74	210.69
996.03	210.80
996.32	210.83
996.61	210.79
996.90	210.75
997.19	210.68
997.48	210.67
997.77	210.73
998.06	210.80
998.34	210.80
998.63	210.77
998.92	210.80
999.21	210.94
999.50	210.95
999.79	210.90
1000.08	210.86
1000.37	210.81
1000.66	210.69
1000.95	210.67
1001.24	210.71
1001.53	210.89
1001.82	210.84
1002.11	210.77
1002.40	210.85
1002.68	210.97
1002.97	211.08
1003.26	211.08
1003.55	211.05
1003.84	211.12
1004.13	211.16
1004.42	211.15
1004.71	211.15
1004.99	211.16
1005.28	211.17
1005.57	211.20
1005.86	211.22
1006.15	211.31
1006.44	211.22
1006.72	211.31
1007.01	211.36
1007.30	211.32
1007.59	211.22
1007.88	211.27
1008.17	211.33
1008.45	211.30
1008.74	211.18
1009.03	211.14
1009.32	211.16
1009.60	211.16
1009.89	211.08
1010.18	210.97
1010.47	210.98
1010.76	211.03
1011.04	211.01
1011.33	210.98
1011.62	211.00
1011.91	211.03
1012.19	211.04
1012.48	211.12
1012.77	211.13
1013.05	211.18
1013.34	211.21
1013.63	211.24
1013.92	211.19
1014.20	211.11
1014.49	211.06
1014.78	211.09
1015.06	211.04
1015.35	211.03
1015.64	211.07
1015.92	211.12
1016.21	211.15
1016.50	211.19
1016.78	211.19
1017.07	211.14
1017.36	211.10
1017.64	211.06
1017.93	211.06
1018.22	211.00
1018.50	210.98
1018.79	211.01
1019.08	210.93
1019.36	210.89
1019.65	210.87
1019.93	210.89
1020.22	210.94
1020.51	211.00
1020.79	211.00
1021.08	210.70
1021.36	210.65
1021.65	212.05
1021.94	211.10
1022.22	210.25
1022.51	210.70
1022.79	210.35
1023.08	211.00
1023.36	212.40
1023.65	210.95
>>>>>End Processed Spectral Data<<<<<
