SpectraSuite Data File
++++++++++++++++++++++++++++++++++++
Date: Mon Feb 25 17:32:59 EST 2013
User: group
Dark Spectrum Present: No
Reference Spectrum Present: No
Number of Sampled Component Spectra: 1
Spectrometers: USB2E7196
Integration Time (usec): 52000 (USB2E7196)
Spectra Averaged: 20 (USB2E7196)
Boxcar Smoothing: 10 (USB2E7196)
Correct for Electrical Dark: No (USB2E7196)
Strobe/Lamp Enabled: No (USB2E7196)
Correct for Detector Non-linearity: No (USB2E7196)
Correct for Stray Light: No (USB2E7196)
Number of Pixels in Processed Spectrum: 2048
>>>>>Begin Processed Spectral Data<<<<<
339.09	0.00
339.48	198.20
339.86	201.65
340.24	201.65
340.63	204.00
341.01	208.05
341.39	205.50
341.78	208.15
342.16	210.05
342.54	207.70
342.93	198.37
343.31	208.41
343.69	209.01
344.07	209.46
344.46	209.90
344.84	210.22
345.22	210.41
345.60	210.68
345.99	210.84
346.37	210.91
346.75	211.14
347.13	211.19
347.52	211.24
347.90	211.30
348.28	211.34
348.66	211.48
349.05	211.53
349.43	211.57
349.81	211.68
350.19	211.71
350.57	211.75
350.96	211.77
351.34	211.86
351.72	211.95
352.10	211.96
352.48	212.06
352.87	212.16
353.25	212.14
353.63	212.23
354.01	212.32
354.39	212.40
354.77	212.40
355.15	212.53
355.54	212.55
355.92	212.60
356.30	212.66
356.68	212.78
357.06	212.84
357.44	212.98
357.82	213.02
358.20	213.10
358.58	213.16
358.97	213.33
359.35	213.37
359.73	213.45
360.11	213.55
360.49	213.53
360.87	213.61
361.25	213.72
361.63	213.82
362.01	213.85
362.39	213.85
362.77	213.93
363.15	213.96
363.53	214.09
363.91	214.04
364.29	214.11
364.67	214.00
365.05	214.00
365.43	213.91
365.81	213.97
366.19	214.09
366.57	214.17
366.95	214.13
367.33	214.15
367.71	214.07
368.09	214.16
368.47	214.22
368.85	214.18
369.23	214.27
369.61	214.19
369.99	214.27
370.37	214.36
370.75	214.41
371.13	214.32
371.51	214.29
371.89	214.32
372.27	214.23
372.65	214.17
373.03	214.14
373.41	214.15
373.78	214.06
374.16	213.90
374.54	213.88
374.92	213.83
375.30	213.79
375.68	213.78
376.06	213.67
376.44	213.60
376.82	213.55
377.19	213.40
377.57	213.31
377.95	213.13
378.33	213.00
378.71	212.82
379.09	212.86
379.47	212.79
379.84	212.84
380.22	212.83
380.60	212.86
380.98	212.82
381.36	212.72
381.73	212.68
382.11	212.68
382.49	212.57
382.87	212.40
383.25	212.34
383.62	212.50
384.00	212.45
384.38	212.44
384.76	212.45
385.13	212.47
385.51	212.45
385.89	212.43
386.27	212.40
386.64	212.45
387.02	212.40
387.40	212.32
387.78	212.23
388.15	212.15
388.53	212.06
388.91	211.98
389.29	211.91
389.66	211.91
390.04	211.87
390.42	211.90
390.79	212.01
391.17	211.97
391.55	211.78
391.92	211.82
392.30	211.86
392.68	211.80
393.05	211.80
393.43	211.81
393.81	211.78
394.18	211.70
394.56	211.67
394.94	211.66
395.31	211.67
395.69	211.74
396.06	211.74
396.44	211.83
396.82	211.83
397.19	211.92
397.57	211.92
397.95	211.99
398.32	211.96
398.70	211.90
399.07	211.98
399.45	212.02
399.82	212.01
400.20	211.97
400.58	211.98
400.95	211.91
401.33	212.02
401.70	212.17
402.08	212.25
402.45	212.26
402.83	212.41
403.20	212.51
403.58	212.47
403.95	212.67
404.33	212.62
404.71	212.73
405.08	213.02
405.46	213.11
405.83	213.23
406.21	213.33
406.58	213.56
406.96	213.69
407.33	213.83
407.70	213.95
408.08	214.18
408.45	214.42
408.83	214.73
409.20	214.89
409.58	215.06
409.95	215.46
410.33	215.83
410.70	216.03
411.08	216.40
411.45	216.84
411.82	217.15
412.20	217.70
412.57	218.24
412.95	218.49
413.32	219.03
413.69	219.57
414.07	220.16
414.44	220.70
414.82	221.33
415.19	222.03
415.56	222.80
415.94	223.62
416.31	224.58
416.68	225.40
417.06	226.46
417.43	227.48
417.81	228.56
418.18	229.76
418.55	231.00
418.93	232.29
419.30	233.59
419.67	235.01
420.04	236.39
420.42	237.85
420.79	239.73
421.16	241.49
421.54	243.31
421.91	245.12
422.28	247.06
422.66	249.20
423.03	251.30
423.40	253.34
423.77	255.56
424.15	257.71
424.52	260.01
424.89	262.55
425.26	265.10
425.64	267.33
426.01	269.88
426.38	272.47
426.75	275.16
427.13	278.10
427.50	281.00
427.87	284.02
428.24	287.07
428.61	289.86
428.99	293.11
429.36	296.50
429.73	299.98
430.10	303.48
430.47	306.93
430.85	310.53
431.22	314.51
431.59	318.67
431.96	322.58
432.33	326.96
432.70	331.22
433.08	336.05
433.45	340.70
433.82	345.35
434.19	350.48
434.56	355.45
434.93	360.07
435.30	364.78
435.68	370.00
436.05	375.18
436.42	380.28
436.79	385.00
437.16	390.10
437.53	395.51
437.90	400.67
438.27	405.88
438.64	411.29
439.01	416.21
439.38	420.58
439.75	424.96
440.13	429.68
440.50	434.08
440.87	437.86
441.24	441.61
441.61	445.72
441.98	448.88
442.35	452.49
442.72	456.04
443.09	459.67
443.46	461.91
443.83	463.33
444.20	464.63
444.57	466.33
444.94	467.15
445.31	467.98
445.68	468.81
446.05	469.03
446.42	468.21
446.79	467.44
447.16	466.53
447.53	465.86
447.90	463.86
448.27	461.78
448.64	458.82
449.01	456.78
449.37	453.14
449.74	449.62
450.11	445.55
450.48	441.12
450.85	436.46
451.22	432.46
451.59	428.79
451.96	425.13
452.33	420.39
452.70	415.97
453.07	410.74
453.43	405.51
453.80	400.51
454.17	395.86
454.54	391.31
454.91	386.56
455.28	381.80
455.65	377.44
456.02	373.15
456.38	369.38
456.75	364.70
457.12	360.84
457.49	357.05
457.86	353.30
458.23	350.14
458.59	346.67
458.96	343.14
459.33	339.93
459.70	336.80
460.07	334.12
460.43	331.32
460.80	328.69
461.17	326.37
461.54	323.98
461.91	321.59
462.27	319.28
462.64	317.14
463.01	314.83
463.38	312.77
463.74	310.45
464.11	308.60
464.48	307.00
464.85	305.25
465.21	303.86
465.58	302.45
465.95	300.74
466.32	299.38
466.68	298.00
467.05	296.53
467.42	295.20
467.78	293.78
468.15	292.40
468.52	291.39
468.88	290.11
469.25	288.83
469.62	287.98
469.98	286.95
470.35	286.15
470.72	285.40
471.08	284.42
471.45	283.73
471.82	282.97
472.18	282.17
472.55	281.62
472.92	280.87
473.28	280.22
473.65	279.66
474.02	279.08
474.38	278.63
474.75	278.33
475.11	277.87
475.48	277.75
475.85	277.56
476.21	277.35
476.58	277.12
476.94	277.19
477.31	277.09
477.67	277.06
478.04	277.10
478.41	277.23
478.77	277.49
479.14	277.57
479.50	277.82
479.87	278.21
480.23	278.56
480.60	278.89
480.96	279.28
481.33	279.93
481.69	280.48
482.06	281.12
482.42	281.72
482.79	282.52
483.15	283.37
483.52	284.37
483.88	285.25
484.25	286.27
484.61	287.25
484.98	288.29
485.34	289.58
485.71	290.91
486.07	292.35
486.44	293.63
486.80	295.29
487.17	296.86
487.53	298.59
487.90	300.29
488.26	302.27
488.62	304.41
488.99	306.43
489.35	308.63
489.72	310.93
490.08	313.38
490.44	315.80
490.81	318.37
491.17	320.99
491.54	323.82
491.90	326.89
492.26	330.07
492.63	333.54
492.99	336.94
493.36	340.46
493.72	344.27
494.08	348.40
494.45	352.55
494.81	357.09
495.17	361.70
495.54	366.62
495.90	371.70
496.26	376.75
496.63	382.27
496.99	387.95
497.35	393.90
497.72	400.15
498.08	406.67
498.44	413.45
498.80	420.70
499.17	428.20
499.53	435.74
499.89	443.74
500.26	451.72
500.62	460.04
500.98	468.95
501.34	477.99
501.71	487.33
502.07	496.88
502.43	506.84
502.79	517.05
503.16	527.67
503.52	538.69
503.88	549.89
504.24	561.36
504.60	573.28
504.97	585.59
505.33	598.10
505.69	611.45
506.05	624.85
506.41	638.24
506.78	651.88
507.14	666.13
507.50	680.61
507.86	695.50
508.22	711.02
508.59	726.54
508.95	742.43
509.31	758.57
509.67	775.28
510.03	792.15
510.39	809.67
510.75	827.39
511.12	845.27
511.48	863.66
511.84	882.35
512.20	901.05
512.56	920.36
512.92	939.68
513.28	959.06
513.64	978.76
514.00	998.71
514.37	1019.13
514.73	1040.01
515.09	1060.84
515.45	1081.75
515.81	1102.93
516.17	1124.19
516.53	1145.71
516.89	1167.41
517.25	1188.96
517.61	1210.60
517.97	1232.05
518.33	1253.52
518.69	1275.21
519.05	1297.24
519.41	1319.25
519.77	1341.80
520.13	1363.70
520.49	1385.78
520.85	1408.39
521.21	1430.88
521.57	1453.73
521.93	1475.57
522.29	1498.12
522.65	1520.67
523.01	1543.26
523.37	1565.37
523.73	1587.69
524.09	1609.74
524.45	1631.90
524.81	1654.32
525.17	1676.96
525.53	1699.52
525.89	1721.98
526.25	1744.26
526.61	1765.41
526.97	1787.43
527.33	1808.80
527.68	1830.45
528.04	1851.71
528.40	1872.00
528.76	1892.73
529.12	1913.57
529.48	1935.51
529.84	1955.94
530.20	1975.95
530.56	1996.45
530.91	2017.33
531.27	2037.65
531.63	2057.78
531.99	2077.55
532.35	2096.84
532.71	2115.70
533.07	2135.17
533.42	2153.62
533.78	2172.42
534.14	2191.10
534.50	2208.07
534.86	2226.11
535.21	2242.86
535.57	2260.98
535.93	2278.16
536.29	2295.35
536.65	2311.95
537.00	2327.31
537.36	2342.29
537.72	2357.66
538.08	2372.79
538.44	2387.98
538.79	2403.31
539.15	2418.46
539.51	2433.18
539.87	2448.20
540.22	2462.80
540.58	2477.48
540.94	2492.37
541.29	2505.20
541.65	2517.80
542.01	2531.07
542.37	2542.90
542.72	2555.30
543.08	2565.90
543.44	2578.02
543.79	2588.08
544.15	2598.52
544.51	2609.32
544.87	2620.73
545.22	2629.95
545.58	2638.60
545.94	2645.52
546.29	2651.83
546.65	2657.72
547.01	2663.99
547.36	2669.82
547.72	2675.05
548.07	2678.83
548.43	2682.45
548.79	2686.16
549.14	2690.70
549.50	2694.81
549.86	2698.58
550.21	2702.43
550.57	2706.63
550.92	2709.21
551.28	2712.02
551.64	2714.46
551.99	2717.00
552.35	2718.41
552.70	2721.40
553.06	2724.34
553.41	2727.19
553.77	2730.45
554.13	2732.79
554.48	2734.87
554.84	2736.26
555.19	2737.06
555.55	2737.91
555.90	2738.22
556.26	2738.80
556.61	2738.22
556.97	2737.18
557.32	2737.10
557.68	2735.55
558.03	2734.08
558.39	2732.61
558.74	2732.10
559.10	2730.78
559.45	2729.14
559.81	2728.28
560.16	2725.72
560.52	2722.66
560.87	2719.90
561.23	2716.09
561.58	2713.94
561.94	2710.64
562.29	2706.89
562.64	2704.70
563.00	2701.93
563.35	2699.70
563.71	2698.24
564.06	2696.71
564.42	2694.92
564.77	2692.21
565.12	2690.35
565.48	2687.16
565.83	2684.11
566.19	2680.90
566.54	2676.83
566.89	2672.70
567.25	2668.32
567.60	2664.87
567.96	2661.35
568.31	2658.00
568.66	2654.13
569.02	2649.27
569.37	2644.50
569.72	2640.73
570.08	2635.38
570.43	2629.89
570.78	2624.32
571.14	2617.96
571.49	2611.24
571.84	2605.44
572.20	2598.71
572.55	2592.14
572.90	2585.25
573.26	2578.21
573.61	2571.04
573.96	2564.43
574.31	2556.76
574.67	2548.97
575.02	2540.59
575.37	2531.91
575.72	2522.76
576.08	2515.28
576.43	2506.68
576.78	2498.62
577.13	2490.56
577.49	2482.28
577.84	2474.78
578.19	2467.29
578.54	2459.47
578.90	2452.16
579.25	2443.27
579.60	2434.04
579.95	2424.75
580.30	2416.93
580.66	2409.02
581.01	2399.80
581.36	2390.56
581.71	2382.28
582.06	2373.61
582.42	2365.33
582.77	2356.43
583.12	2347.43
583.47	2338.75
583.82	2330.65
584.17	2321.54
584.53	2312.39
584.88	2303.57
585.23	2294.09
585.58	2284.27
585.93	2274.77
586.28	2265.87
586.63	2257.05
586.98	2248.62
587.34	2240.31
587.69	2230.94
588.04	2221.48
588.39	2213.21
588.74	2204.31
589.09	2195.61
589.44	2186.36
589.79	2177.81
590.14	2170.14
590.49	2161.75
590.84	2152.33
591.19	2143.93
591.54	2134.87
591.89	2124.69
592.25	2115.47
592.60	2105.91
592.95	2096.68
593.30	2087.20
593.65	2076.94
594.00	2067.38
594.35	2059.34
594.70	2050.01
595.05	2041.43
595.40	2032.83
595.75	2023.18
596.10	2014.94
596.45	2006.21
596.80	1998.32
597.15	1990.13
597.50	1980.95
597.85	1972.60
598.19	1964.25
598.54	1955.57
598.89	1948.01
599.24	1941.45
599.59	1934.23
599.94	1927.35
600.29	1919.49
600.64	1911.72
600.99	1903.87
601.34	1896.69
601.69	1887.63
602.04	1879.74
602.39	1871.56
602.74	1863.84
603.08	1857.52
603.43	1850.29
603.78	1842.37
604.13	1834.45
604.48	1826.37
604.83	1819.48
605.18	1812.33
605.53	1804.63
605.87	1797.22
606.22	1790.22
606.57	1782.16
606.92	1773.64
607.27	1765.57
607.62	1758.30
607.96	1751.25
608.31	1745.03
608.66	1737.01
609.01	1729.68
609.36	1721.64
609.70	1714.01
610.05	1706.40
610.40	1697.92
610.75	1689.24
611.10	1681.56
611.44	1672.42
611.79	1663.42
612.14	1653.85
612.49	1644.38
612.83	1635.82
613.18	1625.84
613.53	1616.22
613.88	1606.53
614.22	1598.08
614.57	1588.87
614.92	1579.59
615.27	1570.30
615.61	1560.17
615.96	1551.10
616.31	1542.63
616.65	1535.03
617.00	1526.69
617.35	1517.88
617.70	1508.87
618.04	1499.89
618.39	1490.63
618.74	1482.28
619.08	1473.56
619.43	1465.40
619.78	1457.48
620.12	1449.39
620.47	1442.02
620.82	1433.36
621.16	1425.06
621.51	1416.38
621.85	1408.11
622.20	1399.55
622.55	1391.09
622.89	1382.93
623.24	1375.07
623.59	1366.44
623.93	1357.69
624.28	1349.40
624.62	1341.10
624.97	1332.91
625.32	1325.17
625.66	1317.67
626.01	1310.49
626.35	1303.33
626.70	1295.62
627.04	1288.35
627.39	1280.59
627.73	1272.90
628.08	1266.05
628.43	1259.01
628.77	1251.84
629.12	1244.38
629.46	1237.78
629.81	1230.64
630.15	1223.27
630.50	1215.75
630.84	1208.39
631.19	1201.19
631.53	1194.01
631.88	1186.34
632.22	1178.76
632.57	1171.78
632.91	1164.07
633.26	1156.27
633.60	1149.07
633.95	1142.27
634.29	1134.97
634.64	1128.07
634.98	1120.95
635.32	1113.91
635.67	1107.26
636.01	1100.58
636.36	1093.76
636.70	1086.90
637.05	1080.33
637.39	1074.29
637.73	1068.15
638.08	1062.52
638.42	1056.70
638.77	1050.22
639.11	1043.90
639.45	1038.21
639.80	1031.58
640.14	1025.49
640.49	1019.52
640.83	1013.31
641.17	1006.86
641.52	1000.66
641.86	994.43
642.20	988.27
642.55	981.44
642.89	975.16
643.23	968.71
643.58	962.95
643.92	956.58
644.26	950.23
644.61	944.13
644.95	937.96
645.29	931.53
645.64	924.82
645.98	918.74
646.32	912.98
646.66	906.73
647.01	900.87
647.35	895.15
647.69	888.75
648.04	882.69
648.38	876.85
648.72	870.87
649.06	864.60
649.41	858.56
649.75	852.94
650.09	846.89
650.43	840.96
650.78	834.66
651.12	828.56
651.46	822.90
651.80	816.76
652.14	810.77
652.49	804.95
652.83	799.14
653.17	793.00
653.51	787.17
653.85	781.46
654.20	775.57
654.54	769.62
654.88	764.18
655.22	758.40
655.56	752.60
655.90	746.85
656.25	741.30
656.59	735.71
656.93	730.50
657.27	725.42
657.61	719.87
657.95	714.73
658.29	709.79
658.64	704.73
658.98	699.59
659.32	694.17
659.66	688.76
660.00	683.36
660.34	678.24
660.68	673.10
661.02	667.95
661.36	663.23
661.70	658.27
662.05	653.44
662.39	649.02
662.73	644.57
663.07	640.27
663.41	635.86
663.75	631.46
664.09	626.71
664.43	621.92
664.77	617.76
665.11	613.42
665.45	608.93
665.79	604.37
666.13	600.09
666.47	596.06
666.81	592.04
667.15	588.03
667.49	584.22
667.83	580.24
668.17	576.38
668.51	572.43
668.85	568.82
669.19	565.22
669.53	561.23
669.87	557.19
670.21	553.26
670.55	549.44
670.89	545.98
671.23	542.81
671.57	539.44
671.91	535.77
672.25	532.19
672.58	528.70
672.92	525.38
673.26	522.18
673.60	518.81
673.94	515.50
674.28	512.37
674.62	509.20
674.96	505.94
675.30	502.87
675.64	499.71
675.97	496.46
676.31	493.48
676.65	490.56
676.99	487.92
677.33	484.90
677.67	482.10
678.01	478.95
678.34	475.83
678.68	472.87
679.02	470.05
679.36	467.26
679.70	464.30
680.04	461.22
680.37	458.25
680.71	455.53
681.05	452.89
681.39	450.29
681.73	447.64
682.06	445.18
682.40	442.69
682.74	440.16
683.08	437.69
683.42	434.95
683.75	432.35
684.09	429.71
684.43	427.26
684.77	424.70
685.10	422.20
685.44	419.62
685.78	417.13
686.12	414.81
686.45	412.44
686.79	410.28
687.13	408.30
687.46	406.05
687.80	403.80
688.14	401.43
688.48	399.15
688.81	396.85
689.15	394.69
689.49	392.36
689.82	390.10
690.16	387.74
690.50	385.43
690.83	383.17
691.17	380.99
691.51	378.88
691.84	376.68
692.18	374.69
692.52	372.77
692.85	370.95
693.19	369.08
693.52	367.11
693.86	365.17
694.20	363.27
694.53	361.38
694.87	359.47
695.21	357.62
695.54	355.65
695.88	353.77
696.21	351.82
696.55	350.06
696.88	348.26
697.22	346.52
697.56	345.20
697.89	343.67
698.23	341.97
698.56	340.35
698.90	338.90
699.23	337.27
699.57	335.61
699.90	333.92
700.24	332.16
700.58	330.55
700.91	329.01
701.25	327.63
701.58	326.19
701.92	324.77
702.25	323.43
702.59	322.15
702.92	320.78
703.26	319.50
703.59	318.19
703.93	317.17
704.26	315.98
704.60	314.45
704.93	313.23
705.26	312.00
705.60	310.80
705.93	309.51
706.27	308.40
706.60	307.30
706.94	306.21
707.27	305.09
707.61	304.02
707.94	302.94
708.27	301.62
708.61	300.55
708.94	299.42
709.28	298.24
709.61	297.15
709.94	296.23
710.28	295.12
710.61	294.12
710.95	292.87
711.28	292.00
711.61	291.02
711.95	290.07
712.28	289.03
712.61	288.03
712.95	287.03
713.28	286.14
713.61	285.14
713.95	284.20
714.28	283.31
714.61	282.41
714.95	281.45
715.28	280.51
715.61	279.60
715.95	278.74
716.28	277.93
716.61	277.05
716.95	276.04
717.28	275.25
717.61	274.43
717.94	273.68
718.28	272.81
718.61	272.04
718.94	271.20
719.27	270.52
719.61	269.82
719.94	269.15
720.27	268.35
720.60	267.64
720.94	267.01
721.27	266.40
721.60	265.85
721.93	265.31
722.27	264.78
722.60	264.11
722.93	263.51
723.26	262.89
723.59	262.31
723.93	261.83
724.26	261.35
724.59	260.72
724.92	260.16
725.25	259.59
725.59	259.06
725.92	258.56
726.25	257.96
726.58	257.36
726.91	256.89
727.24	256.35
727.57	255.88
727.91	255.25
728.24	254.82
728.57	254.29
728.90	253.75
729.23	253.20
729.56	252.84
729.89	252.32
730.22	251.82
730.55	251.28
730.89	250.81
731.22	250.24
731.55	249.80
731.88	249.30
732.21	248.85
732.54	248.41
732.87	248.01
733.20	247.64
733.53	247.32
733.86	246.84
734.19	246.37
734.52	245.97
734.85	245.75
735.18	245.31
735.51	244.91
735.84	244.50
736.17	244.19
736.50	243.71
736.83	243.62
737.16	243.23
737.49	242.93
737.82	242.62
738.15	242.33
738.48	242.03
738.81	241.69
739.14	241.34
739.47	240.95
739.80	240.50
740.13	240.16
740.46	239.78
740.79	239.38
741.12	239.08
741.45	238.73
741.78	238.31
742.11	238.04
742.44	237.68
742.77	237.47
743.10	237.08
743.43	236.79
743.75	236.21
744.08	236.18
744.41	235.80
744.74	235.43
745.07	235.09
745.40	234.80
745.73	234.59
746.06	234.25
746.39	234.02
746.71	233.80
747.04	233.42
747.37	233.11
747.70	232.93
748.03	232.70
748.36	232.45
748.68	232.15
749.01	231.75
749.34	231.59
749.67	231.22
750.00	231.04
750.33	230.94
750.65	230.65
750.98	230.19
751.31	230.05
751.64	229.80
751.97	229.72
752.29	229.47
752.62	229.22
752.95	229.00
753.28	228.73
753.60	228.53
753.93	228.43
754.26	228.22
754.59	227.95
754.91	227.75
755.24	227.62
755.57	227.46
755.90	227.30
756.22	227.00
756.55	226.85
756.88	226.67
757.20	226.38
757.53	226.24
757.86	225.96
758.19	225.74
758.51	225.56
758.84	225.21
759.17	225.07
759.49	224.85
759.82	224.83
760.15	224.66
760.47	224.41
760.80	224.14
761.13	223.97
761.45	223.75
761.78	223.46
762.11	223.20
762.43	223.00
762.76	222.85
763.08	222.70
763.41	222.48
763.74	222.28
764.06	222.05
764.39	221.96
764.71	221.88
765.04	221.68
765.37	221.54
765.69	221.47
766.02	221.29
766.34	221.16
766.67	220.83
767.00	220.79
767.32	220.82
767.65	220.87
767.97	220.75
768.30	220.71
768.62	220.63
768.95	220.54
769.27	220.50
769.60	220.43
769.92	220.30
770.25	220.18
770.57	220.11
770.90	220.06
771.22	219.91
771.55	219.85
771.87	219.83
772.20	219.69
772.52	219.70
772.85	219.81
773.17	219.72
773.50	219.73
773.82	219.63
774.15	219.44
774.47	219.25
774.80	219.18
775.12	219.05
775.45	219.07
775.77	219.04
776.09	218.86
776.42	218.80
776.74	218.72
777.07	218.75
777.39	218.70
777.72	218.63
778.04	218.61
778.36	218.48
778.69	218.33
779.01	218.23
779.33	217.98
779.66	217.72
779.98	217.61
780.31	217.55
780.63	217.55
780.95	217.48
781.28	217.43
781.60	217.36
781.92	217.32
782.25	217.21
782.57	217.09
782.89	217.04
783.22	216.97
783.54	216.94
783.86	216.83
784.19	216.68
784.51	216.61
784.83	216.48
785.16	216.44
785.48	216.45
785.80	216.43
786.12	216.42
786.45	216.35
786.77	216.34
787.09	216.30
787.42	216.12
787.74	216.05
788.06	215.94
788.38	215.85
788.71	215.79
789.03	215.74
789.35	215.75
789.67	215.72
789.99	215.70
790.32	215.60
790.64	215.57
790.96	215.70
791.28	215.68
791.61	215.63
791.93	215.62
792.25	215.57
792.57	215.66
792.89	215.56
793.21	215.58
793.54	215.51
793.86	215.39
794.18	215.36
794.50	215.25
794.82	215.25
795.14	215.33
795.47	215.35
795.79	215.27
796.11	215.20
796.43	215.10
796.75	215.03
797.07	215.05
797.39	215.02
797.71	214.88
798.04	214.79
798.36	214.78
798.68	214.67
799.00	214.67
799.32	214.57
799.64	214.62
799.96	214.52
800.28	214.57
800.60	214.58
800.92	214.61
801.24	214.59
801.56	214.61
801.89	214.45
802.21	214.43
802.53	214.38
802.85	214.43
803.17	214.48
803.49	214.39
803.81	214.31
804.13	214.25
804.45	214.21
804.77	214.16
805.09	214.10
805.41	214.10
805.73	214.05
806.05	213.98
806.37	213.92
806.69	213.92
807.01	213.77
807.33	213.73
807.65	213.60
807.97	213.68
808.28	213.58
808.60	213.60
808.92	213.50
809.24	213.64
809.56	213.55
809.88	213.55
810.20	213.53
810.52	213.61
810.84	213.60
811.16	213.51
811.48	213.56
811.80	213.66
812.12	213.65
812.43	213.63
812.75	213.56
813.07	213.55
813.39	213.55
813.71	213.56
814.03	213.55
814.35	213.57
814.67	213.46
814.98	213.44
815.30	213.40
815.62	213.40
815.94	213.27
816.26	213.29
816.58	213.24
816.89	213.26
817.21	213.15
817.53	213.07
817.85	213.11
818.17	213.09
818.48	213.01
818.80	213.03
819.12	213.00
819.44	213.01
819.76	212.94
820.07	212.89
820.39	212.89
820.71	212.96
821.03	212.92
821.34	212.98
821.66	212.97
821.98	213.02
822.30	213.04
822.61	213.10
822.93	213.00
823.25	212.93
823.57	212.92
823.88	212.95
824.20	212.94
824.52	212.89
824.83	212.86
825.15	212.82
825.47	212.85
825.79	212.81
826.10	212.84
826.42	212.83
826.74	212.88
827.05	212.83
827.37	212.74
827.69	212.71
828.00	212.69
828.32	212.70
828.64	212.67
828.95	212.69
829.27	212.67
829.58	212.74
829.90	212.79
830.22	212.75
830.53	212.71
830.85	212.69
831.17	212.73
831.48	212.69
831.80	212.68
832.11	212.59
832.43	212.54
832.75	212.48
833.06	212.58
833.38	212.46
833.69	212.46
834.01	212.47
834.32	212.45
834.64	212.36
834.96	212.35
835.27	212.31
835.59	212.21
835.90	212.12
836.22	212.12
836.53	212.10
836.85	212.04
837.16	212.24
837.48	212.25
837.79	212.23
838.11	212.24
838.42	212.17
838.74	212.24
839.05	212.20
839.37	212.14
839.68	212.04
840.00	212.00
840.31	211.97
840.63	211.97
840.94	211.95
841.26	212.01
841.57	212.03
841.88	212.10
842.20	212.12
842.51	212.12
842.83	212.08
843.14	212.15
843.46	212.22
843.77	212.10
844.08	212.05
844.40	212.00
844.71	212.03
845.03	212.01
845.34	211.93
845.65	211.93
845.97	211.96
846.28	211.95
846.60	212.00
846.91	212.00
847.22	211.98
847.54	211.94
847.85	211.89
848.16	211.88
848.48	211.81
848.79	211.88
849.10	211.90
849.42	211.92
849.73	211.79
850.04	211.75
850.36	211.65
850.67	211.69
850.98	211.68
851.30	211.59
851.61	211.64
851.92	211.61
852.23	211.67
852.55	211.65
852.86	211.66
853.17	211.64
853.49	211.62
853.80	211.60
854.11	211.74
854.42	211.75
854.74	211.70
855.05	211.65
855.36	211.61
855.67	211.63
855.99	211.56
856.30	211.77
856.61	211.78
856.92	211.82
857.23	211.83
857.55	211.83
857.86	211.87
858.17	211.87
858.48	211.87
858.79	211.85
859.11	211.90
859.42	211.87
859.73	211.84
860.04	211.88
860.35	211.89
860.66	211.84
860.98	211.87
861.29	211.91
861.60	211.88
861.91	211.83
862.22	211.74
862.53	211.76
862.84	211.54
863.16	211.59
863.47	211.57
863.78	211.55
864.09	211.62
864.40	211.68
864.71	211.63
865.02	211.65
865.33	211.67
865.64	211.68
865.95	211.70
866.27	211.82
866.58	211.82
866.89	211.78
867.20	211.74
867.51	211.75
867.82	211.70
868.13	211.80
868.44	211.83
868.75	211.91
869.06	211.90
869.37	211.92
869.68	211.85
869.99	211.94
870.30	211.97
870.61	212.03
870.92	211.99
871.23	212.07
871.54	212.12
871.85	212.14
872.16	212.20
872.47	212.19
872.78	212.17
873.09	212.21
873.40	212.18
873.71	212.24
874.02	212.23
874.33	212.25
874.64	212.12
874.95	212.16
875.26	212.05
875.56	212.02
875.87	212.03
876.18	212.04
876.49	212.12
876.80	212.15
877.11	212.07
877.42	212.03
877.73	212.01
878.04	211.90
878.35	211.90
878.66	211.84
878.96	211.79
879.27	211.73
879.58	211.72
879.89	211.79
880.20	211.81
880.51	211.75
880.82	211.80
881.12	211.92
881.43	211.84
881.74	211.87
882.05	211.83
882.36	211.80
882.67	211.84
882.97	211.68
883.28	211.60
883.59	211.51
883.90	211.54
884.21	211.50
884.51	211.56
884.82	211.53
885.13	211.57
885.44	211.59
885.74	211.55
886.05	211.47
886.36	211.42
886.67	211.30
886.98	211.42
887.28	211.31
887.59	211.30
887.90	211.24
888.20	211.12
888.51	211.16
888.82	211.15
889.13	211.14
889.43	211.27
889.74	211.24
890.05	211.26
890.35	211.22
890.66	211.21
890.97	211.16
891.28	211.14
891.58	211.07
891.89	211.02
892.20	211.07
892.50	211.07
892.81	211.04
893.12	211.04
893.42	210.89
893.73	210.95
894.04	210.93
894.34	210.92
894.65	210.99
894.95	211.00
895.26	211.06
895.57	211.06
895.87	210.88
896.18	210.84
896.48	210.82
896.79	210.79
897.10	210.90
897.40	210.85
897.71	210.85
898.01	210.76
898.32	210.85
898.63	210.84
898.93	210.82
899.24	210.85
899.54	210.81
899.85	210.78
900.15	210.74
900.46	210.73
900.76	210.82
901.07	210.88
901.38	210.86
901.68	210.84
901.99	210.84
902.29	210.86
902.60	210.95
902.90	210.99
903.21	211.05
903.51	210.93
903.82	211.00
904.12	211.08
904.43	211.15
904.73	211.11
905.03	211.07
905.34	211.25
905.64	211.20
905.95	211.23
906.25	211.26
906.56	211.26
906.86	211.27
907.17	211.28
907.47	211.23
907.77	211.21
908.08	211.23
908.38	211.20
908.69	211.18
908.99	211.17
909.30	211.15
909.60	211.15
909.90	211.23
910.21	211.19
910.51	211.13
910.81	211.14
911.12	211.11
911.42	211.18
911.73	211.04
912.03	211.03
912.33	211.04
912.64	211.01
912.94	210.94
913.24	210.93
913.55	210.87
913.85	210.85
914.15	210.90
914.46	210.87
914.76	210.83
915.06	210.84
915.37	210.78
915.67	210.84
915.97	210.84
916.27	210.76
916.58	210.82
916.88	210.84
917.18	210.76
917.49	210.85
917.79	210.82
918.09	210.83
918.39	211.00
918.70	211.06
919.00	211.13
919.30	211.25
919.60	211.26
919.91	211.23
920.21	211.20
920.51	211.19
920.81	211.18
921.12	211.21
921.42	211.24
921.72	211.25
922.02	211.25
922.32	211.28
922.63	211.28
922.93	211.37
923.23	211.34
923.53	211.33
923.83	211.33
924.13	211.38
924.44	211.36
924.74	211.30
925.04	211.36
925.34	211.35
925.64	211.30
925.94	211.27
926.24	211.42
926.55	211.52
926.85	211.55
927.15	211.62
927.45	211.61
927.75	211.58
928.05	211.59
928.35	211.54
928.65	211.57
928.95	211.63
929.26	211.61
929.56	211.66
929.86	211.68
930.16	211.62
930.46	211.52
930.76	211.59
931.06	211.53
931.36	211.41
931.66	211.40
931.96	211.48
932.26	211.50
932.56	211.36
932.86	211.35
933.16	211.41
933.46	211.28
933.76	211.21
934.06	211.29
934.36	211.39
934.66	211.43
934.96	211.37
935.26	211.35
935.56	211.35
935.86	211.33
936.16	211.37
936.46	211.38
936.76	211.45
937.06	211.43
937.36	211.37
937.66	211.42
937.96	211.42
938.26	211.34
938.56	211.36
938.86	211.44
939.16	211.51
939.46	211.35
939.76	211.36
940.06	211.31
940.35	211.20
940.65	211.04
940.95	211.02
941.25	211.02
941.55	211.05
941.85	211.03
942.15	210.99
942.45	211.07
942.75	211.02
943.04	211.03
943.34	210.99
943.64	211.05
943.94	210.99
944.24	210.96
944.54	210.96
944.84	210.93
945.13	210.86
945.43	210.81
945.73	210.88
946.03	210.93
946.33	211.05
946.62	211.04
946.92	211.15
947.22	211.15
947.52	211.15
947.82	211.11
948.11	211.05
948.41	211.03
948.71	210.95
949.01	211.00
949.31	210.96
949.60	211.00
949.90	210.96
950.20	211.01
950.50	211.02
950.79	211.00
951.09	211.05
951.39	211.06
951.69	211.02
951.98	211.04
952.28	211.00
952.58	210.94
952.87	210.97
953.17	210.92
953.47	210.95
953.76	210.91
954.06	210.92
954.36	210.92
954.66	210.92
954.95	210.89
955.25	210.88
955.55	210.90
955.84	210.85
956.14	210.85
956.44	210.87
956.73	210.84
957.03	210.84
957.32	210.81
957.62	210.77
957.92	210.80
958.21	210.81
958.51	211.06
958.81	211.13
959.10	211.16
959.40	211.25
959.69	211.21
959.99	211.25
960.29	211.21
960.58	211.20
960.88	211.24
961.17	211.20
961.47	211.19
961.76	211.17
962.06	211.22
962.36	211.22
962.65	211.16
962.95	211.20
963.24	211.18
963.54	211.14
963.83	211.17
964.13	211.14
964.42	211.08
964.72	210.93
965.01	210.93
965.31	210.94
965.60	210.78
965.90	210.90
966.19	210.79
966.49	210.81
966.78	210.75
967.08	210.81
967.37	210.86
967.67	210.92
967.96	210.95
968.26	210.87
968.55	210.85
968.85	210.90
969.14	210.88
969.43	210.93
969.73	210.94
970.02	210.95
970.32	210.95
970.61	210.89
970.91	210.84
971.20	210.83
971.49	210.74
971.79	210.85
972.08	210.70
972.38	210.86
972.67	210.81
972.96	210.97
973.26	210.90
973.55	210.96
973.85	210.90
974.14	210.86
974.43	210.88
974.73	210.93
975.02	210.92
975.31	210.96
975.61	210.95
975.90	210.91
976.19	210.84
976.49	210.84
976.78	210.95
977.07	211.00
977.37	210.96
977.66	211.02
977.95	210.95
978.24	210.97
978.54	210.97
978.83	210.98
979.12	210.83
979.42	210.86
979.71	210.83
980.00	210.83
980.29	210.89
980.59	210.88
980.88	210.90
981.17	210.90
981.46	210.92
981.76	210.91
982.05	211.02
982.34	211.05
982.63	211.12
982.93	211.12
983.22	211.14
983.51	211.14
983.80	211.13
984.09	211.17
984.39	211.23
984.68	211.15
984.97	211.20
985.26	211.29
985.55	211.25
985.85	211.23
986.14	211.24
986.43	211.19
986.72	211.23
987.01	211.20
987.30	211.27
987.59	211.19
987.89	211.18
988.18	211.11
988.47	211.15
988.76	211.14
989.05	211.10
989.34	211.03
989.63	211.07
989.92	211.10
990.22	211.10
990.51	211.04
990.80	211.14
991.09	211.17
991.38	211.13
991.67	211.15
991.96	211.14
992.25	211.15
992.54	211.19
992.83	211.19
993.12	211.25
993.41	211.25
993.70	211.45
993.99	211.53
994.28	211.53
994.58	211.53
994.87	211.52
995.16	211.52
995.45	211.57
995.74	211.64
996.03	211.60
996.32	211.65
996.61	211.76
996.90	211.69
997.19	211.71
997.48	211.77
997.77	211.71
998.06	211.71
998.34	211.74
998.63	211.78
998.92	211.82
999.21	211.76
999.50	211.72
999.79	211.60
1000.08	211.59
1000.37	211.68
1000.66	211.70
1000.95	211.75
1001.24	211.76
1001.53	211.74
1001.82	211.63
1002.11	211.68
1002.40	211.65
1002.68	211.63
1002.97	211.72
1003.26	211.69
1003.55	211.65
1003.84	211.68
1004.13	211.70
1004.42	211.75
1004.71	211.71
1004.99	211.63
1005.28	211.64
1005.57	211.63
1005.86	211.68
1006.15	211.70
1006.44	211.58
1006.72	211.59
1007.01	211.55
1007.30	211.46
1007.59	211.45
1007.88	211.41
1008.17	211.39
1008.45	211.35
1008.74	211.26
1009.03	211.16
1009.32	211.14
1009.60	211.11
1009.89	211.06
1010.18	211.05
1010.47	210.99
1010.76	210.94
1011.04	210.96
1011.33	210.97
1011.62	210.91
1011.91	210.80
1012.19	210.85
1012.48	210.87
1012.77	210.86
1013.05	210.90
1013.34	210.91
1013.63	210.87
1013.92	210.96
1014.20	210.89
1014.49	210.91
1014.78	210.91
1015.06	210.90
1015.35	210.80
1015.64	210.82
1015.92	210.88
1016.21	210.87
1016.50	210.85
1016.78	210.85
1017.07	210.88
1017.36	210.88
1017.64	210.88
1017.93	210.92
1018.22	210.80
1018.50	210.79
1018.79	210.75
1019.08	210.69
1019.36	210.71
1019.65	210.72
1019.93	210.73
1020.22	210.75
1020.51	210.81
1020.79	210.89
1021.08	210.70
1021.36	210.85
1021.65	210.45
1021.94	211.10
1022.22	210.45
1022.51	210.80
1022.79	211.70
1023.08	209.70
1023.36	213.05
1023.65	212.30
>>>>>End Processed Spectral Data<<<<<
