SpectraSuite Data File
++++++++++++++++++++++++++++++++++++
Date: Mon Feb 25 17:29:39 EST 2013
User: group
Dark Spectrum Present: No
Reference Spectrum Present: No
Number of Sampled Component Spectra: 1
Spectrometers: USB2E7196
Integration Time (usec): 52000 (USB2E7196)
Spectra Averaged: 20 (USB2E7196)
Boxcar Smoothing: 10 (USB2E7196)
Correct for Electrical Dark: No (USB2E7196)
Strobe/Lamp Enabled: No (USB2E7196)
Correct for Detector Non-linearity: No (USB2E7196)
Correct for Stray Light: No (USB2E7196)
Number of Pixels in Processed Spectrum: 2048
>>>>>Begin Processed Spectral Data<<<<<
339.09	0.00
339.48	198.65
339.86	200.55
340.24	201.95
340.63	203.00
341.01	207.65
341.39	205.80
341.78	207.95
342.16	209.15
342.54	207.85
342.93	198.23
343.31	208.27
343.69	208.82
344.07	209.28
344.46	209.72
344.84	210.12
345.22	210.25
345.60	210.52
345.99	210.73
346.37	210.85
346.75	211.05
347.13	211.16
347.52	211.23
347.90	211.30
348.28	211.30
348.66	211.45
349.05	211.46
349.43	211.54
349.81	211.53
350.19	211.58
350.57	211.62
350.96	211.71
351.34	211.78
351.72	211.90
352.10	212.01
352.48	212.04
352.87	212.11
353.25	212.19
353.63	212.23
354.01	212.25
354.39	212.29
354.77	212.29
355.15	212.40
355.54	212.42
355.92	212.48
356.30	212.53
356.68	212.72
357.06	212.75
357.44	212.74
357.82	212.83
358.20	212.89
358.58	212.98
358.97	213.04
359.35	213.17
359.73	213.24
360.11	213.29
360.49	213.35
360.87	213.36
361.25	213.42
361.63	213.55
362.01	213.55
362.39	213.59
362.77	213.67
363.15	213.72
363.53	213.72
363.91	213.75
364.29	213.78
364.67	213.54
365.05	213.58
365.43	213.54
365.81	213.65
366.19	213.70
366.57	213.70
366.95	213.72
367.33	213.62
367.71	213.60
368.09	213.53
368.47	213.55
368.85	213.57
369.23	213.63
369.61	213.51
369.99	213.55
370.37	213.50
370.75	213.58
371.13	213.49
371.51	213.43
371.89	213.35
372.27	213.31
372.65	213.30
373.03	213.28
373.41	213.27
373.78	213.14
374.16	212.98
374.54	212.97
374.92	212.89
375.30	212.88
375.68	212.77
376.06	212.84
376.44	212.75
376.82	212.67
377.19	212.55
377.57	212.52
377.95	212.43
378.33	212.33
378.71	212.10
379.09	212.05
379.47	212.10
379.84	212.06
380.22	212.02
380.60	211.97
380.98	211.90
381.36	211.89
381.73	211.85
382.11	211.88
382.49	211.76
382.87	211.74
383.25	211.70
383.62	211.87
384.00	211.78
384.38	211.77
384.76	211.79
385.13	211.84
385.51	211.90
385.89	211.85
386.27	211.93
386.64	211.98
387.02	211.90
387.40	211.82
387.78	211.88
388.15	211.84
388.53	211.85
388.91	211.88
389.29	211.82
389.66	211.83
390.04	211.80
390.42	211.91
390.79	211.83
391.17	211.79
391.55	211.57
391.92	211.55
392.30	211.60
392.68	211.54
393.05	211.50
393.43	211.41
393.81	211.40
394.18	211.31
394.56	211.30
394.94	211.40
395.31	211.42
395.69	211.41
396.06	211.41
396.44	211.48
396.82	211.47
397.19	211.53
397.57	211.51
397.95	211.53
398.32	211.38
398.70	211.44
399.07	211.50
399.45	211.58
399.82	211.64
400.20	211.60
400.58	211.67
400.95	211.65
401.33	211.71
401.70	211.86
402.08	211.93
402.45	211.95
402.83	212.00
403.20	212.06
403.58	212.04
403.95	212.22
404.33	212.29
404.71	212.31
405.08	212.56
405.46	212.64
405.83	212.75
406.21	212.95
406.58	213.06
406.96	213.13
407.33	213.26
407.70	213.35
408.08	213.63
408.45	213.84
408.83	214.11
409.20	214.30
409.58	214.40
409.95	214.70
410.33	215.06
410.70	215.22
411.08	215.55
411.45	215.91
411.82	216.17
412.20	216.53
412.57	217.02
412.95	217.19
413.32	217.63
413.69	218.08
414.07	218.60
414.44	219.15
414.82	219.70
415.19	220.38
415.56	221.08
415.94	221.69
416.31	222.48
416.68	223.13
417.06	223.93
417.43	224.82
417.81	225.77
418.18	226.64
418.55	227.67
418.93	228.75
419.30	229.83
419.67	231.04
420.04	232.24
420.42	233.51
420.79	235.15
421.16	236.68
421.54	238.29
421.91	239.84
422.28	241.54
422.66	243.34
423.03	245.10
423.40	246.84
423.77	248.74
424.15	250.64
424.52	252.72
424.89	254.98
425.26	257.19
425.64	259.24
426.01	261.42
426.38	263.86
426.75	266.21
427.13	268.72
427.50	271.27
427.87	273.95
428.24	276.67
428.61	279.21
428.99	282.00
429.36	285.05
429.73	288.06
430.10	291.01
430.47	294.05
430.85	297.27
431.22	300.66
431.59	304.29
431.96	307.69
432.33	311.47
432.70	315.08
433.08	319.28
433.45	323.37
433.82	327.49
434.19	331.84
434.56	336.23
434.93	340.35
435.30	344.57
435.68	349.14
436.05	353.61
436.42	358.05
436.79	362.06
437.16	366.47
437.53	371.10
437.90	375.62
438.27	380.17
438.64	384.75
439.01	389.05
439.38	392.82
439.75	396.60
440.13	400.80
440.50	404.71
440.87	407.98
441.24	411.25
441.61	414.97
441.98	417.71
442.35	420.82
442.72	424.09
443.09	427.13
443.46	429.06
443.83	430.36
444.20	431.40
444.57	433.10
444.94	433.72
445.31	434.47
445.68	435.24
446.05	435.53
446.42	435.05
446.79	434.52
447.16	433.85
447.53	433.36
447.90	431.48
448.27	429.84
448.64	427.35
449.01	425.57
449.37	422.44
449.74	419.45
450.11	415.93
450.48	412.07
450.85	408.11
451.22	404.56
451.59	401.31
451.96	398.36
452.33	394.22
452.70	390.60
453.07	386.16
453.43	381.72
453.80	377.39
454.17	373.20
454.54	369.23
454.91	365.11
455.28	361.01
455.65	357.41
456.02	353.63
456.38	350.41
456.75	346.40
457.12	343.01
457.49	339.73
457.86	336.57
458.23	333.81
458.59	330.80
458.96	327.88
459.33	325.10
459.70	322.30
460.07	320.17
460.43	317.68
460.80	315.40
461.17	313.44
461.54	311.36
461.91	309.45
462.27	307.48
462.64	305.66
463.01	303.82
463.38	302.04
463.74	300.14
464.11	298.53
464.48	297.17
464.85	295.64
465.21	294.51
465.58	293.29
465.95	291.85
466.32	290.71
466.68	289.43
467.05	288.37
467.42	287.17
467.78	285.89
468.15	284.72
468.52	283.85
468.88	282.62
469.25	281.61
469.62	280.82
469.98	279.92
470.35	279.32
470.72	278.48
471.08	277.59
471.45	277.03
471.82	276.45
472.18	275.80
472.55	275.43
472.92	274.80
473.28	274.25
473.65	273.78
474.02	273.22
474.38	272.92
474.75	272.64
475.11	272.38
475.48	272.23
475.85	272.12
476.21	272.01
476.58	272.08
476.94	272.14
477.31	272.03
477.67	272.08
478.04	272.12
478.41	272.33
478.77	272.74
479.14	272.93
479.50	273.21
479.87	273.59
480.23	273.94
480.60	274.37
480.96	274.96
481.33	275.68
481.69	276.34
482.06	277.11
482.42	277.75
482.79	278.51
483.15	279.35
483.52	280.31
483.88	281.36
484.25	282.26
484.61	283.35
484.98	284.66
485.34	285.98
485.71	287.33
486.07	288.79
486.44	290.09
486.80	291.67
487.17	293.30
487.53	295.00
487.90	296.87
488.26	298.81
488.62	300.77
488.99	302.73
489.35	304.94
489.72	307.19
490.08	309.66
490.44	312.25
490.81	314.95
491.17	317.61
491.54	320.44
491.90	323.49
492.26	326.73
492.63	329.92
492.99	333.27
493.36	336.90
493.72	340.75
494.08	344.82
494.45	348.95
494.81	353.34
495.17	357.89
495.54	362.72
495.90	367.80
496.26	372.89
496.63	378.35
496.99	383.99
497.35	389.92
497.72	396.00
498.08	402.33
498.44	408.88
498.80	416.05
499.17	423.40
499.53	430.93
499.89	438.70
500.26	446.64
500.62	454.83
500.98	463.53
501.34	472.23
501.71	481.33
502.07	490.80
502.43	500.46
502.79	510.40
503.16	520.60
503.52	530.94
503.88	541.84
504.24	552.75
504.60	564.14
504.97	575.86
505.33	587.79
505.69	600.34
506.05	613.17
506.41	626.10
506.78	639.14
507.14	652.41
507.50	666.15
507.86	680.27
508.22	694.87
508.59	709.29
508.95	724.54
509.31	739.80
509.67	755.33
510.03	771.36
510.39	787.63
510.75	804.32
511.12	821.31
511.48	838.48
511.84	856.07
512.20	873.38
512.56	891.33
512.92	909.36
513.28	927.42
513.64	946.01
514.00	964.33
514.37	982.96
514.73	1002.34
515.09	1021.47
515.45	1040.75
515.81	1060.23
516.17	1079.67
516.53	1098.97
516.89	1118.65
517.25	1138.33
517.61	1157.90
517.97	1177.45
518.33	1196.95
518.69	1216.74
519.05	1236.63
519.41	1256.75
519.77	1277.54
520.13	1297.24
520.49	1317.24
520.85	1337.55
521.21	1357.51
521.57	1377.86
521.93	1397.57
522.29	1417.79
522.65	1437.83
523.01	1457.94
523.37	1477.45
523.73	1497.14
524.09	1516.89
524.45	1536.64
524.81	1556.46
525.17	1576.38
525.53	1596.09
525.89	1615.77
526.25	1634.93
526.61	1653.60
526.97	1672.55
527.33	1690.69
527.68	1709.45
528.04	1727.86
528.40	1745.53
528.76	1763.32
529.12	1781.15
529.48	1799.93
529.84	1817.39
530.20	1835.02
530.56	1852.28
530.91	1870.05
531.27	1887.62
531.63	1904.96
531.99	1921.78
532.35	1938.08
532.71	1953.92
533.07	1970.36
533.42	1985.99
533.78	2001.84
534.14	2017.24
534.50	2031.23
534.86	2046.22
535.21	2059.81
535.57	2074.62
535.93	2089.12
536.29	2103.23
536.65	2116.95
537.00	2129.58
537.36	2142.08
537.72	2154.23
538.08	2166.62
538.44	2178.95
538.79	2191.25
539.15	2202.85
539.51	2214.56
539.87	2226.78
540.22	2238.42
540.58	2250.33
540.94	2261.75
541.29	2271.99
541.65	2281.55
542.01	2292.15
542.37	2301.60
542.72	2311.55
543.08	2319.86
543.44	2328.97
543.79	2336.25
544.15	2343.85
544.51	2352.09
544.87	2360.30
545.22	2366.95
545.58	2373.24
545.94	2378.15
546.29	2382.40
546.65	2386.72
547.01	2390.68
547.36	2394.24
547.72	2397.78
548.07	2400.06
548.43	2402.03
548.79	2403.78
549.14	2406.45
549.50	2409.04
549.86	2410.98
550.21	2413.32
550.57	2415.37
550.92	2416.01
551.28	2417.20
551.64	2418.05
551.99	2418.86
552.35	2418.92
552.70	2419.94
553.06	2420.84
553.41	2422.23
553.77	2423.92
554.13	2424.50
554.48	2425.22
554.84	2425.14
555.19	2424.26
555.55	2423.58
555.90	2422.89
556.26	2422.50
556.61	2421.46
556.97	2419.02
557.32	2417.46
557.68	2414.61
558.03	2412.20
558.39	2410.15
558.74	2408.70
559.10	2406.65
559.45	2403.84
559.81	2401.56
560.16	2398.40
560.52	2395.25
560.87	2391.53
561.23	2386.87
561.58	2384.24
561.94	2380.29
562.29	2376.08
562.64	2373.29
563.00	2369.96
563.35	2367.06
563.71	2364.56
564.06	2361.99
564.42	2359.72
564.77	2356.94
565.12	2354.53
565.48	2351.26
565.83	2347.63
566.19	2344.15
566.54	2339.85
566.89	2335.65
567.25	2332.01
567.60	2328.45
567.96	2324.92
568.31	2321.51
568.66	2317.90
569.02	2312.70
569.37	2307.87
569.72	2304.61
570.08	2299.37
570.43	2293.82
570.78	2288.25
571.14	2282.21
571.49	2275.70
571.84	2269.65
572.20	2262.93
572.55	2256.95
572.90	2250.62
573.26	2244.21
573.61	2237.42
573.96	2231.27
574.31	2224.50
574.67	2216.89
575.02	2209.45
575.37	2201.21
575.72	2193.02
576.08	2186.23
576.43	2178.72
576.78	2171.50
577.13	2163.69
577.49	2156.68
577.84	2149.86
578.19	2143.36
578.54	2136.71
578.90	2130.52
579.25	2123.06
579.60	2115.23
579.95	2106.78
580.30	2099.46
580.66	2092.50
581.01	2085.04
581.36	2076.98
581.71	2069.54
582.06	2062.31
582.42	2055.12
582.77	2047.47
583.12	2039.75
583.47	2031.99
583.82	2024.96
584.17	2017.01
584.53	2009.02
584.88	2001.53
585.23	1993.72
585.58	1985.05
585.93	1976.66
586.28	1968.88
586.63	1961.24
586.98	1954.30
587.34	1947.43
587.69	1939.75
588.04	1931.57
588.39	1924.33
588.74	1916.65
589.09	1909.15
589.44	1901.05
589.79	1893.66
590.14	1887.30
590.49	1880.37
590.84	1872.60
591.19	1865.50
591.54	1858.55
591.89	1850.11
592.25	1841.90
592.60	1834.00
592.95	1826.45
593.30	1818.59
593.65	1810.20
594.00	1802.01
594.35	1795.01
594.70	1787.29
595.05	1780.02
595.40	1772.86
595.75	1764.39
596.10	1757.51
596.45	1750.39
596.80	1743.64
597.15	1736.69
597.50	1728.86
597.85	1721.54
598.19	1714.21
598.54	1706.97
598.89	1699.83
599.24	1694.29
599.59	1688.24
599.94	1682.36
600.29	1675.77
600.64	1669.04
600.99	1661.84
601.34	1655.80
601.69	1648.23
602.04	1641.09
602.39	1634.09
602.74	1627.26
603.08	1622.17
603.43	1615.95
603.78	1609.11
604.13	1602.40
604.48	1595.39
604.83	1589.49
605.18	1583.35
605.53	1577.28
605.87	1570.74
606.22	1565.10
606.57	1558.43
606.92	1551.41
607.27	1544.24
607.62	1537.80
607.96	1532.01
608.31	1527.00
608.66	1520.35
609.01	1513.84
609.36	1507.50
609.70	1500.92
610.05	1494.53
610.40	1487.04
610.75	1479.89
611.10	1473.41
611.44	1465.73
611.79	1458.30
612.14	1450.43
612.49	1442.43
612.83	1434.80
613.18	1426.51
613.53	1418.17
613.88	1409.68
614.22	1401.98
614.57	1394.42
614.92	1386.68
615.27	1378.62
615.61	1369.94
615.96	1362.24
616.31	1355.10
616.65	1348.39
617.00	1341.17
617.35	1333.69
617.70	1326.42
618.04	1318.74
618.39	1310.78
618.74	1303.58
619.08	1296.21
619.43	1288.81
619.78	1282.49
620.12	1275.69
620.47	1269.15
620.82	1261.92
621.16	1255.00
621.51	1247.98
621.85	1240.69
622.20	1233.34
622.55	1226.20
622.89	1219.46
623.24	1212.66
623.59	1205.40
623.93	1197.92
624.28	1190.92
624.62	1183.91
624.97	1176.88
625.32	1170.21
625.66	1164.09
626.01	1157.65
626.35	1151.55
626.70	1145.00
627.04	1138.35
627.39	1131.77
627.73	1125.49
628.08	1119.78
628.43	1113.44
628.77	1107.34
629.12	1100.95
629.46	1095.25
629.81	1089.25
630.15	1082.88
630.50	1076.41
630.84	1070.15
631.19	1063.96
631.53	1058.05
631.88	1051.49
632.22	1044.85
632.57	1038.83
632.91	1032.25
633.26	1026.18
633.60	1019.87
633.95	1014.32
634.29	1008.08
634.64	1002.05
634.98	995.82
635.32	989.53
635.67	984.09
636.01	978.20
636.36	972.42
636.70	966.74
637.05	960.95
637.39	955.62
637.73	950.50
638.08	945.38
638.42	940.25
638.77	934.54
639.11	929.29
639.45	924.30
639.80	918.82
640.14	913.36
640.49	907.97
640.83	902.62
641.17	897.17
641.52	891.85
641.86	886.41
642.20	881.23
642.55	875.75
642.89	870.21
643.23	864.66
643.58	859.60
643.92	854.06
644.26	848.74
644.61	843.46
644.95	838.05
645.29	832.65
645.64	827.02
645.98	821.90
646.32	816.93
646.66	811.60
647.01	806.47
647.35	801.34
647.69	795.82
648.04	790.76
648.38	785.37
648.72	780.04
649.06	774.65
649.41	769.37
649.75	764.25
650.09	759.13
650.43	754.11
650.78	748.84
651.12	743.56
651.46	738.34
651.80	733.29
652.14	728.11
652.49	722.92
652.83	717.98
653.17	712.68
653.51	707.63
653.85	702.67
654.20	697.52
654.54	692.43
654.88	687.76
655.22	682.79
655.56	677.75
655.90	672.85
656.25	668.11
656.59	663.43
656.93	658.97
657.27	654.51
657.61	649.75
657.95	645.36
658.29	640.95
658.64	636.63
658.98	632.04
659.32	627.54
659.66	623.18
660.00	618.46
660.34	613.85
660.68	609.17
661.02	604.85
661.36	600.75
661.70	596.66
662.05	592.50
662.39	588.54
662.73	584.77
663.07	581.10
663.41	577.31
663.75	573.24
664.09	569.15
664.43	565.02
664.77	561.27
665.11	557.29
665.45	553.46
665.79	549.66
666.13	545.91
666.47	542.28
666.81	538.57
667.15	535.06
667.49	531.87
667.83	528.65
668.17	525.33
668.51	522.09
668.85	518.95
669.19	515.85
669.53	512.51
669.87	509.09
670.21	505.75
670.55	502.40
670.89	499.47
671.23	496.54
671.57	493.65
671.91	490.68
672.25	487.70
672.58	484.69
672.92	481.76
673.26	478.96
673.60	476.11
673.94	473.30
674.28	470.63
674.62	467.80
674.96	464.97
675.30	462.25
675.64	459.40
675.97	456.60
676.31	454.00
676.65	451.47
676.99	449.07
677.33	446.50
677.67	444.01
678.01	441.35
678.34	438.79
678.68	436.19
679.02	433.51
679.36	431.14
679.70	428.68
680.04	426.20
680.37	423.69
680.71	421.29
681.05	418.98
681.39	416.68
681.73	414.44
682.06	412.34
682.40	410.15
682.74	407.96
683.08	405.84
683.42	403.48
683.75	401.10
684.09	398.91
684.43	396.83
684.77	394.63
685.10	392.45
685.44	390.13
685.78	388.09
686.12	386.22
686.45	384.10
686.79	382.16
687.13	380.32
687.46	378.48
687.80	376.58
688.14	374.66
688.48	372.82
688.81	370.97
689.15	369.06
689.49	367.12
689.82	365.27
690.16	363.29
690.50	361.36
690.83	359.62
691.17	357.64
691.51	355.66
691.84	353.98
692.18	352.21
692.52	350.60
692.85	348.96
693.19	347.29
693.52	345.73
693.86	344.06
694.20	342.38
694.53	340.77
694.87	339.19
695.21	337.57
695.54	335.88
695.88	334.20
696.21	332.51
696.55	331.02
696.88	329.56
697.22	328.10
697.56	326.77
697.89	325.41
698.23	324.13
698.56	322.85
698.90	321.48
699.23	320.14
699.57	318.73
699.90	317.29
700.24	315.85
700.58	314.47
700.91	313.20
701.25	312.02
701.58	310.80
701.92	309.53
702.25	308.34
702.59	307.16
702.92	306.08
703.26	304.96
703.59	303.81
703.93	302.78
704.26	301.66
704.60	300.53
704.93	299.45
705.26	298.33
705.60	297.28
705.93	296.21
706.27	295.28
706.60	294.35
706.94	293.45
707.27	292.45
707.61	291.38
707.94	290.37
708.27	289.30
708.61	288.22
708.94	287.21
709.28	286.26
709.61	285.23
709.94	284.29
710.28	283.37
710.61	282.40
710.95	281.36
711.28	280.68
711.61	279.74
711.95	278.86
712.28	278.00
712.61	277.10
712.95	276.33
713.28	275.48
713.61	274.68
713.95	273.79
714.28	273.06
714.61	272.37
714.95	271.59
715.28	270.84
715.61	270.03
715.95	269.34
716.28	268.61
716.61	267.95
716.95	267.18
717.28	266.51
717.61	265.83
717.94	265.15
718.28	264.30
718.61	263.67
718.94	262.97
719.27	262.34
719.61	261.75
719.94	261.05
720.27	260.42
720.60	259.81
720.94	259.24
721.27	258.63
721.60	258.11
721.93	257.60
722.27	257.10
722.60	256.71
722.93	256.07
723.26	255.57
723.59	255.04
723.93	254.52
724.26	254.02
724.59	253.57
724.92	253.11
725.25	252.64
725.59	252.18
725.92	251.75
726.25	251.30
726.58	250.83
726.91	250.38
727.24	249.95
727.57	249.52
727.91	249.04
728.24	248.61
728.57	248.18
728.90	247.79
729.23	247.35
729.56	246.95
729.89	246.63
730.22	246.20
730.55	245.82
730.89	245.48
731.22	245.03
731.55	244.71
731.88	244.30
732.21	243.93
732.54	243.53
732.87	243.12
733.20	242.73
733.53	242.40
733.86	242.10
734.19	241.66
734.52	241.32
734.85	241.15
735.18	240.84
735.51	240.47
735.84	240.09
736.17	239.79
736.50	239.37
736.83	239.18
737.16	238.82
737.49	238.47
737.82	238.11
738.15	237.80
738.48	237.46
738.81	237.14
739.14	236.78
739.47	236.51
739.80	236.28
740.13	236.00
740.46	235.65
740.79	235.32
741.12	235.09
741.45	234.80
741.78	234.40
742.11	234.20
742.44	233.92
742.77	233.71
743.10	233.41
743.43	233.11
743.75	232.75
744.08	232.69
744.41	232.45
744.74	232.18
745.07	231.96
745.40	231.74
745.73	231.52
746.06	231.33
746.39	231.00
746.71	230.72
747.04	230.52
747.37	230.31
747.70	230.15
748.03	229.92
748.36	229.74
748.68	229.54
749.01	229.26
749.34	229.12
749.67	228.94
750.00	228.78
750.33	228.78
750.65	228.48
750.98	228.05
751.31	227.84
751.64	227.69
751.97	227.60
752.29	227.37
752.62	227.19
752.95	226.95
753.28	226.80
753.60	226.62
753.93	226.45
754.26	226.21
754.59	225.95
754.91	225.76
755.24	225.61
755.57	225.44
755.90	225.21
756.22	225.00
756.55	224.80
756.88	224.63
757.20	224.33
757.53	224.19
757.86	224.08
758.19	223.94
758.51	223.73
758.84	223.52
759.17	223.33
759.49	223.17
759.82	223.14
760.15	222.98
760.47	222.80
760.80	222.57
761.13	222.50
761.45	222.34
761.78	222.20
762.11	222.02
762.43	221.85
762.76	221.77
763.08	221.59
763.41	221.46
763.74	221.24
764.06	221.09
764.39	220.91
764.71	220.78
765.04	220.63
765.37	220.56
765.69	220.38
766.02	220.28
766.34	220.14
766.67	219.95
767.00	219.91
767.32	219.89
767.65	219.98
767.97	219.87
768.30	219.78
768.62	219.67
768.95	219.51
769.27	219.49
769.60	219.41
769.92	219.35
770.25	219.22
770.57	219.16
770.90	219.08
771.22	219.02
771.55	218.96
771.87	218.90
772.20	218.77
772.52	218.80
772.85	219.00
773.17	218.91
773.50	218.83
773.82	218.70
774.15	218.47
774.47	218.20
774.80	218.10
775.12	218.03
775.45	217.90
775.77	217.87
776.09	217.78
776.42	217.63
776.74	217.55
777.07	217.50
777.39	217.39
777.72	217.30
778.04	217.32
778.36	217.21
778.69	217.13
779.01	217.10
779.33	216.92
779.66	216.51
779.98	216.46
780.31	216.37
780.63	216.40
780.95	216.42
781.28	216.40
781.60	216.27
781.92	216.27
782.25	216.32
782.57	216.23
782.89	216.17
783.22	216.17
783.54	216.15
783.86	216.13
784.19	216.06
784.51	216.04
784.83	215.89
785.16	215.81
785.48	215.78
785.80	215.74
786.12	215.75
786.45	215.81
786.77	215.73
787.09	215.67
787.42	215.58
787.74	215.59
788.06	215.55
788.38	215.53
788.71	215.38
789.03	215.25
789.35	215.17
789.67	215.08
789.99	215.03
790.32	214.91
790.64	214.85
790.96	215.04
791.28	214.90
791.61	214.85
791.93	214.84
792.25	214.77
792.57	214.77
792.89	214.64
793.21	214.57
793.54	214.60
793.86	214.58
794.18	214.54
794.50	214.47
794.82	214.36
795.14	214.35
795.47	214.35
795.79	214.30
796.11	214.36
796.43	214.29
796.75	214.22
797.07	214.18
797.39	214.10
797.71	213.94
798.04	213.94
798.36	214.01
798.68	213.97
799.00	213.94
799.32	213.86
799.64	213.85
799.96	213.82
800.28	213.78
800.60	213.80
800.92	213.74
801.24	213.70
801.56	213.75
801.89	213.66
802.21	213.73
802.53	213.71
802.85	213.67
803.17	213.71
803.49	213.68
803.81	213.65
804.13	213.60
804.45	213.51
804.77	213.52
805.09	213.44
805.41	213.44
805.73	213.43
806.05	213.32
806.37	213.34
806.69	213.34
807.01	213.22
807.33	213.22
807.65	213.22
807.97	213.27
808.28	213.20
808.60	213.22
808.92	213.11
809.24	213.22
809.56	213.14
809.88	213.10
810.20	213.13
810.52	213.15
810.84	213.15
811.16	213.13
811.48	213.12
811.80	213.11
812.12	213.00
812.43	213.00
812.75	213.04
813.07	212.96
813.39	212.94
813.71	213.04
814.03	212.99
814.35	212.95
814.67	212.82
814.98	212.85
815.30	212.80
815.62	212.73
815.94	212.59
816.26	212.56
816.58	212.55
816.89	212.54
817.21	212.46
817.53	212.48
817.85	212.41
818.17	212.40
818.48	212.25
818.80	212.33
819.12	212.28
819.44	212.24
819.76	212.23
820.07	212.15
820.39	212.06
820.71	212.03
821.03	211.95
821.34	211.96
821.66	211.98
821.98	212.01
822.30	212.00
822.61	212.11
822.93	212.16
823.25	212.11
823.57	212.05
823.88	212.10
824.20	212.09
824.52	212.09
824.83	212.06
825.15	212.08
825.47	212.04
825.79	212.08
826.10	212.00
826.42	212.00
826.74	212.06
827.05	212.09
827.37	212.08
827.69	212.01
828.00	212.00
828.32	211.91
828.64	211.89
828.95	211.93
829.27	211.89
829.58	211.80
829.90	211.84
830.22	211.88
830.53	211.85
830.85	211.83
831.17	211.83
831.48	211.84
831.80	211.95
832.11	211.95
832.43	211.82
832.75	211.87
833.06	211.92
833.38	211.88
833.69	211.85
834.01	211.85
834.32	211.91
834.64	211.89
834.96	211.84
835.27	211.88
835.59	211.91
835.90	211.88
836.22	211.91
836.53	211.85
836.85	211.87
837.16	212.06
837.48	212.04
837.79	212.10
838.11	212.07
838.42	212.02
838.74	212.04
839.05	212.12
839.37	212.11
839.68	212.05
840.00	212.02
840.31	212.06
840.63	212.01
840.94	212.03
841.26	212.04
841.57	212.10
841.88	212.11
842.20	212.06
842.51	211.98
842.83	212.04
843.14	212.17
843.46	212.06
843.77	211.93
844.08	211.90
844.40	211.82
844.71	211.74
845.03	211.71
845.34	211.73
845.65	211.73
845.97	211.68
846.28	211.65
846.60	211.55
846.91	211.50
847.22	211.49
847.54	211.55
847.85	211.59
848.16	211.56
848.48	211.54
848.79	211.59
849.10	211.60
849.42	211.49
849.73	211.33
850.04	211.33
850.36	211.24
850.67	211.26
850.98	211.28
851.30	211.36
851.61	211.37
851.92	211.31
852.23	211.33
852.55	211.34
852.86	211.42
853.17	211.49
853.49	211.47
853.80	211.51
854.11	211.51
854.42	211.52
854.74	211.49
855.05	211.43
855.36	211.34
855.67	211.38
855.99	211.46
856.30	211.68
856.61	211.65
856.92	211.65
857.23	211.66
857.55	211.57
857.86	211.54
858.17	211.57
858.48	211.55
858.79	211.57
859.11	211.63
859.42	211.55
859.73	211.54
860.04	211.62
860.35	211.55
860.66	211.48
860.98	211.49
861.29	211.48
861.60	211.45
861.91	211.50
862.22	211.50
862.53	211.39
862.84	211.20
863.16	211.31
863.47	211.31
863.78	211.31
864.09	211.36
864.40	211.36
864.71	211.31
865.02	211.35
865.33	211.31
865.64	211.29
865.95	211.36
866.27	211.52
866.58	211.44
866.89	211.45
867.20	211.47
867.51	211.43
867.82	211.46
868.13	211.57
868.44	211.57
868.75	211.54
869.06	211.54
869.37	211.50
869.68	211.45
869.99	211.51
870.30	211.55
870.61	211.60
870.92	211.58
871.23	211.58
871.54	211.60
871.85	211.63
872.16	211.69
872.47	211.60
872.78	211.52
873.09	211.56
873.40	211.59
873.71	211.56
874.02	211.56
874.33	211.57
874.64	211.48
874.95	211.48
875.26	211.54
875.56	211.61
875.87	211.66
876.18	211.71
876.49	211.83
876.80	211.77
877.11	211.76
877.42	211.75
877.73	211.75
878.04	211.69
878.35	211.67
878.66	211.62
878.96	211.71
879.27	211.68
879.58	211.69
879.89	211.67
880.20	211.73
880.51	211.65
880.82	211.60
881.12	211.62
881.43	211.62
881.74	211.47
882.05	211.49
882.36	211.50
882.67	211.48
882.97	211.24
883.28	211.23
883.59	211.24
883.90	211.30
884.21	211.33
884.51	211.37
884.82	211.27
885.13	211.28
885.44	211.20
885.74	211.18
886.05	211.14
886.36	211.14
886.67	211.02
886.98	211.16
887.28	211.21
887.59	211.24
887.90	211.25
888.20	211.28
888.51	211.31
888.82	211.19
889.13	211.21
889.43	211.32
889.74	211.34
890.05	211.31
890.35	211.30
890.66	211.28
890.97	211.16
891.28	211.22
891.58	211.22
891.89	211.18
892.20	211.07
892.50	211.10
892.81	211.12
893.12	211.20
893.42	211.06
893.73	210.98
894.04	210.94
894.34	210.87
894.65	210.89
894.95	210.83
895.26	210.89
895.57	210.90
895.87	210.80
896.18	210.84
896.48	210.89
896.79	210.90
897.10	210.94
897.40	210.93
897.71	210.95
898.01	210.92
898.32	210.95
898.63	211.04
898.93	211.01
899.24	210.99
899.54	210.95
899.85	210.91
900.15	211.00
900.46	211.07
900.76	211.14
901.07	211.12
901.38	211.12
901.68	211.11
901.99	211.06
902.29	211.05
902.60	211.04
902.90	210.98
903.21	210.99
903.51	210.95
903.82	211.02
904.12	211.09
904.43	211.09
904.73	211.04
905.03	211.10
905.34	211.27
905.64	211.24
905.95	211.27
906.25	211.35
906.56	211.35
906.86	211.28
907.17	211.25
907.47	211.26
907.77	211.22
908.08	211.21
908.38	211.24
908.69	211.23
908.99	211.21
909.30	211.19
909.60	211.14
909.90	211.11
910.21	211.07
910.51	210.99
910.81	211.02
911.12	211.08
911.42	211.06
911.73	210.85
912.03	210.95
912.33	210.92
912.64	210.89
912.94	210.84
913.24	210.81
913.55	210.77
913.85	210.72
914.15	210.76
914.46	210.75
914.76	210.66
915.06	210.75
915.37	210.76
915.67	210.78
915.97	210.75
916.27	210.75
916.58	210.79
916.88	210.72
917.18	210.69
917.49	210.74
917.79	210.71
918.09	210.78
918.39	210.83
918.70	210.85
919.00	210.87
919.30	210.94
919.60	210.97
919.91	210.95
920.21	211.03
920.51	211.03
920.81	211.05
921.12	211.06
921.42	210.98
921.72	210.99
922.02	211.01
922.32	211.10
922.63	211.05
922.93	211.11
923.23	211.18
923.53	211.17
923.83	211.14
924.13	211.22
924.44	211.21
924.74	211.11
925.04	211.15
925.34	211.19
925.64	211.11
925.94	211.06
926.24	211.15
926.55	211.14
926.85	211.12
927.15	211.06
927.45	211.15
927.75	211.21
928.05	211.19
928.35	211.17
928.65	211.13
928.95	211.20
929.26	211.13
929.56	211.13
929.86	211.10
930.16	211.06
930.46	211.00
930.76	210.98
931.06	210.95
931.36	210.88
931.66	210.86
931.96	210.89
932.26	210.93
932.56	210.79
932.86	210.83
933.16	210.87
933.46	210.89
933.76	210.82
934.06	210.83
934.36	210.90
934.66	210.89
934.96	210.88
935.26	210.87
935.56	210.92
935.86	210.91
936.16	211.01
936.46	211.00
936.76	211.00
937.06	210.95
937.36	211.02
937.66	211.03
937.96	211.06
938.26	211.09
938.56	211.10
938.86	211.15
939.16	211.13
939.46	211.06
939.76	211.07
940.06	211.07
940.35	211.02
940.65	210.92
940.95	210.95
941.25	210.88
941.55	210.85
941.85	210.75
942.15	210.78
942.45	210.76
942.75	210.77
943.04	210.73
943.34	210.83
943.64	210.76
943.94	210.74
944.24	210.67
944.54	210.65
944.84	210.64
945.13	210.73
945.43	210.73
945.73	210.79
946.03	210.82
946.33	210.77
946.62	210.79
946.92	210.79
947.22	210.82
947.52	210.88
947.82	210.91
948.11	210.93
948.41	210.89
948.71	210.83
949.01	210.85
949.31	210.89
949.60	210.87
949.90	210.91
950.20	210.88
950.50	210.93
950.79	210.92
951.09	210.90
951.39	210.74
951.69	210.71
951.98	210.73
952.28	210.70
952.58	210.71
952.87	210.71
953.17	210.67
953.47	210.65
953.76	210.71
954.06	210.70
954.36	210.70
954.66	210.73
954.95	210.82
955.25	210.80
955.55	210.76
955.84	210.76
956.14	210.84
956.44	210.90
956.73	210.82
957.03	210.80
957.32	210.81
957.62	210.95
957.92	211.00
958.21	210.99
958.51	211.21
958.81	211.22
959.10	211.24
959.40	211.36
959.69	211.29
959.99	211.32
960.29	211.31
960.58	211.25
960.88	211.30
961.17	211.26
961.47	211.32
961.76	211.32
962.06	211.35
962.36	211.19
962.65	211.18
962.95	211.26
963.24	211.23
963.54	211.21
963.83	211.16
964.13	211.15
964.42	211.11
964.72	210.90
965.01	210.92
965.31	210.94
965.60	210.91
965.90	211.03
966.19	210.97
966.49	211.01
966.78	211.04
967.08	211.00
967.37	211.02
967.67	210.95
967.96	210.99
968.26	210.94
968.55	211.03
968.85	211.07
969.14	211.07
969.43	211.11
969.73	211.15
970.02	211.16
970.32	211.12
970.61	211.12
970.91	211.11
971.20	211.08
971.49	211.02
971.79	210.94
972.08	210.90
972.38	210.90
972.67	210.84
972.96	210.92
973.26	210.90
973.55	210.86
973.85	210.87
974.14	210.89
974.43	210.86
974.73	210.83
975.02	210.78
975.31	210.75
975.61	210.73
975.90	210.74
976.19	210.69
976.49	210.74
976.78	210.78
977.07	210.79
977.37	210.80
977.66	210.82
977.95	210.85
978.24	210.85
978.54	210.90
978.83	210.93
979.12	210.92
979.42	210.91
979.71	210.90
980.00	210.81
980.29	210.83
980.59	210.81
980.88	210.83
981.17	210.81
981.46	210.87
981.76	210.85
982.05	210.85
982.34	210.89
982.63	210.91
982.93	210.89
983.22	210.91
983.51	210.99
983.80	210.98
984.09	211.04
984.39	210.98
984.68	210.90
984.97	210.84
985.26	210.73
985.55	210.81
985.85	210.80
986.14	210.90
986.43	210.91
986.72	210.90
987.01	210.87
987.30	210.86
987.59	210.80
987.89	210.87
988.18	210.86
988.47	210.86
988.76	210.81
989.05	210.84
989.34	210.84
989.63	210.86
989.92	210.85
990.22	210.84
990.51	210.89
990.80	210.87
991.09	210.89
991.38	211.02
991.67	210.93
991.96	210.92
992.25	211.00
992.54	210.95
992.83	210.90
993.12	210.84
993.41	210.89
993.70	210.95
993.99	210.93
994.28	210.91
994.58	210.92
994.87	210.97
995.16	210.98
995.45	210.93
995.74	210.80
996.03	210.86
996.32	210.80
996.61	210.86
996.90	210.86
997.19	210.93
997.48	210.89
997.77	210.94
998.06	210.94
998.34	210.91
998.63	210.80
998.92	210.84
999.21	210.95
999.50	210.97
999.79	210.96
1000.08	210.95
1000.37	211.02
1000.66	210.90
1000.95	210.84
1001.24	210.77
1001.53	210.79
1001.82	210.82
1002.11	210.80
1002.40	210.91
1002.68	210.91
1002.97	211.03
1003.26	211.02
1003.55	211.02
1003.84	210.98
1004.13	211.05
1004.42	211.00
1004.71	211.03
1004.99	211.08
1005.28	211.07
1005.57	211.03
1005.86	210.97
1006.15	210.95
1006.44	210.91
1006.72	211.01
1007.01	211.04
1007.30	211.04
1007.59	211.01
1007.88	211.03
1008.17	210.99
1008.45	210.96
1008.74	210.90
1009.03	210.79
1009.32	210.71
1009.60	210.69
1009.89	210.71
1010.18	210.58
1010.47	210.50
1010.76	210.57
1011.04	210.51
1011.33	210.53
1011.62	210.55
1011.91	210.56
1012.19	210.57
1012.48	210.59
1012.77	210.61
1013.05	210.65
1013.34	210.62
1013.63	210.64
1013.92	210.62
1014.20	210.62
1014.49	210.55
1014.78	210.53
1015.06	210.50
1015.35	210.60
1015.64	210.68
1015.92	210.67
1016.21	210.77
1016.50	210.84
1016.78	210.86
1017.07	210.96
1017.36	210.91
1017.64	210.87
1017.93	210.91
1018.22	210.87
1018.50	210.82
1018.79	210.82
1019.08	210.80
1019.36	210.91
1019.65	210.88
1019.93	210.90
1020.22	210.94
1020.51	211.09
1020.79	211.04
1021.08	209.90
1021.36	210.90
1021.65	210.90
1021.94	211.35
1022.22	212.10
1022.51	209.95
1022.79	210.70
1023.08	210.95
1023.36	213.55
1023.65	210.00
>>>>>End Processed Spectral Data<<<<<
