SpectraSuite Data File
++++++++++++++++++++++++++++++++++++
Date: Mon Feb 25 17:36:42 EST 2013
User: group
Dark Spectrum Present: No
Reference Spectrum Present: No
Number of Sampled Component Spectra: 1
Spectrometers: USB2E7196
Integration Time (usec): 52000 (USB2E7196)
Spectra Averaged: 20 (USB2E7196)
Boxcar Smoothing: 10 (USB2E7196)
Correct for Electrical Dark: No (USB2E7196)
Strobe/Lamp Enabled: No (USB2E7196)
Correct for Detector Non-linearity: No (USB2E7196)
Correct for Stray Light: No (USB2E7196)
Number of Pixels in Processed Spectrum: 2048
>>>>>Begin Processed Spectral Data<<<<<
339.09	0.00
339.48	199.05
339.86	199.80
340.24	201.30
340.63	202.85
341.01	207.45
341.39	206.35
341.78	205.95
342.16	209.80
342.54	208.55
342.93	197.84
343.31	207.89
343.69	208.39
344.07	208.86
344.46	209.39
344.84	209.87
345.22	210.03
345.60	210.36
345.99	210.76
346.37	210.94
346.75	211.11
347.13	211.30
347.52	211.43
347.90	211.66
348.28	211.77
348.66	211.99
349.05	212.11
349.43	212.21
349.81	212.44
350.19	212.62
350.57	212.80
350.96	213.05
351.34	213.20
351.72	213.45
352.10	213.67
352.48	213.80
352.87	213.86
353.25	214.02
353.63	214.13
354.01	214.13
354.39	214.14
354.77	214.25
355.15	214.38
355.54	214.41
355.92	214.45
356.30	214.59
356.68	214.73
357.06	214.80
357.44	214.85
357.82	214.92
358.20	215.03
358.58	215.10
358.97	215.16
359.35	215.24
359.73	215.35
360.11	215.46
360.49	215.50
360.87	215.59
361.25	215.68
361.63	215.79
362.01	215.83
362.39	215.97
362.77	216.09
363.15	216.07
363.53	216.20
363.91	216.24
364.29	216.18
364.67	216.06
365.05	216.13
365.43	216.20
365.81	216.23
366.19	216.40
366.57	216.51
366.95	216.56
367.33	216.57
367.71	216.59
368.09	216.66
368.47	216.70
368.85	216.65
369.23	216.70
369.61	216.60
369.99	216.70
370.37	216.64
370.75	216.75
371.13	216.71
371.51	216.68
371.89	216.71
372.27	216.74
372.65	216.75
373.03	216.64
373.41	216.75
373.78	216.79
374.16	216.58
374.54	216.49
374.92	216.38
375.30	216.41
375.68	216.30
376.06	216.24
376.44	216.20
376.82	216.27
377.19	216.21
377.57	216.27
377.95	216.21
378.33	216.18
378.71	215.95
379.09	215.95
379.47	216.00
379.84	215.94
380.22	215.95
380.60	215.87
380.98	215.88
381.36	215.79
381.73	215.65
382.11	215.68
382.49	215.66
382.87	215.67
383.25	215.54
383.62	215.74
384.00	215.70
384.38	215.56
384.76	215.52
385.13	215.56
385.51	215.37
385.89	215.31
386.27	215.33
386.64	215.37
387.02	215.37
387.40	215.25
387.78	215.15
388.15	215.10
388.53	215.13
388.91	215.14
389.29	215.17
389.66	215.23
390.04	215.21
390.42	215.24
390.79	215.20
391.17	215.29
391.55	215.07
391.92	215.07
392.30	215.17
392.68	215.18
393.05	215.28
393.43	215.39
393.81	215.40
394.18	215.39
394.56	215.45
394.94	215.46
395.31	215.50
395.69	215.70
396.06	215.81
396.44	215.89
396.82	215.99
397.19	216.15
397.57	216.24
397.95	216.41
398.32	216.49
398.70	216.74
399.07	217.00
399.45	217.17
399.82	217.39
400.20	217.54
400.58	217.76
400.95	217.87
401.33	218.27
401.70	218.74
402.08	219.12
402.45	219.47
402.83	219.96
403.20	220.43
403.58	220.80
403.95	221.25
404.33	221.84
404.71	222.36
405.08	223.10
405.46	223.90
405.83	224.59
406.21	225.40
406.58	226.29
406.96	227.09
407.33	228.12
407.70	229.26
408.08	230.66
408.45	232.06
408.83	233.55
409.20	234.93
409.58	236.43
409.95	238.11
410.33	240.00
410.70	241.93
411.08	243.96
411.45	246.33
411.82	248.74
412.20	251.28
412.57	254.29
412.95	257.11
413.32	260.19
413.69	263.66
414.07	267.24
414.44	271.18
414.82	275.26
415.19	280.03
415.56	284.76
415.94	289.98
416.31	295.61
416.68	301.33
417.06	307.80
417.43	313.91
417.81	321.10
418.18	328.40
418.55	336.34
418.93	344.74
419.30	353.35
419.67	362.48
420.04	372.13
420.42	382.17
420.79	393.23
421.16	404.89
421.54	416.48
421.91	429.00
422.28	441.95
422.66	455.82
423.03	468.93
423.40	483.19
423.77	498.42
424.15	514.07
424.52	530.33
424.89	548.05
425.26	565.36
425.64	581.89
426.01	600.11
426.38	619.38
426.75	638.77
427.13	659.02
427.50	680.54
427.87	703.02
428.24	725.65
428.61	747.61
428.99	770.92
429.36	797.29
429.73	822.89
430.10	848.28
430.47	874.47
430.85	902.25
431.22	931.16
431.59	961.28
431.96	990.81
432.33	1023.57
432.70	1055.29
433.08	1092.62
433.45	1128.03
433.82	1163.35
434.19	1202.12
434.56	1240.51
434.93	1278.13
435.30	1315.34
435.68	1356.29
436.05	1397.27
436.42	1438.25
436.79	1476.05
437.16	1516.55
437.53	1559.39
437.90	1602.22
438.27	1644.12
438.64	1688.11
439.01	1729.05
439.38	1766.66
439.75	1802.58
440.13	1843.40
440.50	1881.73
440.87	1913.76
441.24	1947.38
441.61	1984.29
441.98	2013.26
442.35	2045.93
442.72	2078.13
443.09	2109.74
443.46	2130.89
443.83	2146.07
444.20	2159.92
444.57	2178.89
444.94	2189.93
445.31	2201.50
445.68	2210.89
446.05	2218.38
446.42	2218.54
446.79	2217.14
447.16	2215.40
447.53	2215.20
447.90	2203.72
448.27	2192.60
448.64	2175.01
449.01	2162.65
449.37	2138.15
449.74	2114.17
450.11	2084.54
450.48	2053.32
450.85	2021.40
451.22	1993.78
451.59	1967.20
451.96	1942.01
452.33	1907.00
452.70	1875.23
453.07	1836.59
453.43	1798.57
453.80	1761.09
454.17	1724.85
454.54	1691.41
454.91	1654.85
455.28	1619.07
455.65	1585.52
456.02	1550.02
456.38	1521.28
456.75	1484.98
457.12	1455.11
457.49	1425.43
457.86	1397.55
458.23	1372.00
458.59	1344.14
458.96	1316.33
459.33	1291.94
459.70	1266.89
460.07	1247.09
460.43	1224.47
460.80	1202.61
461.17	1184.00
461.54	1164.12
461.91	1145.22
462.27	1126.02
462.64	1109.87
463.01	1091.58
463.38	1073.77
463.74	1057.97
464.11	1042.95
464.48	1029.66
464.85	1015.09
465.21	1003.42
465.58	991.18
465.95	977.10
466.32	965.22
466.68	953.25
467.05	941.12
467.42	929.61
467.78	917.07
468.15	905.35
468.52	896.77
468.88	885.70
469.25	875.67
469.62	867.47
469.98	858.75
470.35	850.51
470.72	843.00
471.08	834.92
471.45	827.77
471.82	820.07
472.18	812.26
472.55	806.50
472.92	800.14
473.28	794.34
473.65	788.92
474.02	783.27
474.38	778.51
474.75	774.46
475.11	770.05
475.48	766.76
475.85	763.88
476.21	761.22
476.58	758.82
476.94	756.98
477.31	754.87
477.67	752.71
478.04	750.98
478.41	749.89
478.77	748.95
479.14	748.00
479.50	747.86
479.87	748.43
480.23	749.02
480.60	749.07
480.96	749.15
481.33	750.45
481.69	751.99
482.06	752.91
482.42	753.84
482.79	755.21
483.15	757.73
483.52	761.05
483.88	763.78
484.25	766.82
484.61	769.69
484.98	772.98
485.34	777.18
485.71	781.84
486.07	786.61
486.44	791.87
486.80	797.39
487.17	802.95
487.53	809.30
487.90	815.99
488.26	822.99
488.62	830.95
488.99	838.48
489.35	846.17
489.72	855.34
490.08	865.16
490.44	875.02
490.81	884.80
491.17	894.36
491.54	905.31
491.90	915.89
492.26	927.66
492.63	939.64
492.99	952.04
493.36	964.60
493.72	978.11
494.08	991.72
494.45	1006.27
494.81	1021.47
495.17	1036.76
495.54	1052.56
495.90	1069.61
496.26	1086.28
496.63	1104.02
496.99	1122.13
497.35	1140.01
497.72	1158.28
498.08	1177.00
498.44	1196.08
498.80	1216.29
499.17	1236.20
499.53	1256.91
499.89	1278.11
500.26	1299.36
500.62	1320.39
500.98	1342.78
501.34	1364.88
501.71	1387.46
502.07	1410.19
502.43	1433.37
502.79	1456.45
503.16	1479.78
503.52	1502.65
503.88	1525.76
504.24	1548.73
504.60	1572.35
504.97	1596.50
505.33	1620.50
505.69	1645.66
506.05	1670.45
506.41	1694.78
506.78	1719.35
507.14	1743.72
507.50	1768.51
507.86	1793.75
508.22	1819.44
508.59	1844.07
508.95	1869.09
509.31	1894.39
509.67	1919.95
510.03	1945.02
510.39	1970.62
510.75	1995.67
511.12	2020.36
511.48	2045.25
511.84	2070.00
512.20	2094.07
512.56	2118.59
512.92	2142.91
513.28	2166.85
513.64	2190.50
514.00	2213.94
514.37	2237.35
514.73	2260.99
515.09	2283.30
515.45	2305.46
515.81	2327.63
516.17	2349.99
516.53	2371.67
516.89	2392.93
517.25	2412.56
517.61	2432.01
517.97	2451.48
518.33	2470.45
518.69	2490.09
519.05	2509.47
519.41	2528.89
519.77	2548.41
520.13	2567.21
520.49	2585.34
520.85	2602.89
521.21	2620.21
521.57	2638.17
521.93	2654.67
522.29	2671.58
522.65	2688.85
523.01	2705.49
523.37	2720.98
523.73	2736.82
524.09	2751.68
524.45	2766.48
524.81	2781.40
525.17	2797.41
525.53	2811.90
525.89	2826.95
526.25	2841.23
526.61	2854.05
526.97	2867.17
527.33	2880.21
527.68	2893.19
528.04	2906.39
528.40	2918.48
528.76	2931.43
529.12	2942.52
529.48	2954.76
529.84	2964.58
530.20	2975.52
530.56	2986.77
530.91	2998.59
531.27	3009.06
531.63	3020.25
531.99	3030.57
532.35	3040.96
532.71	3050.51
533.07	3062.06
533.42	3071.60
533.78	3082.47
534.14	3092.49
534.50	3101.37
534.86	3110.62
535.21	3118.13
535.57	3126.87
535.93	3135.29
536.29	3142.16
536.65	3150.92
537.00	3158.40
537.36	3167.51
537.72	3174.42
538.08	3181.65
538.44	3188.56
538.79	3195.31
539.15	3202.36
539.51	3209.74
539.87	3217.03
540.22	3223.43
540.58	3229.15
540.94	3235.86
541.29	3240.14
541.65	3244.01
542.01	3248.59
542.37	3252.41
542.72	3257.57
543.08	3261.26
543.44	3265.24
543.79	3268.78
544.15	3271.69
544.51	3275.77
544.87	3279.49
545.22	3282.23
545.58	3283.81
545.94	3285.12
546.29	3286.35
546.65	3287.18
547.01	3287.88
547.36	3289.11
547.72	3290.22
548.07	3289.84
548.43	3289.44
548.79	3289.28
549.14	3290.86
549.50	3291.96
549.86	3293.24
550.21	3292.90
550.57	3293.10
550.92	3292.35
551.28	3291.46
551.64	3290.61
551.99	3289.57
552.35	3288.38
552.70	3288.21
553.06	3287.74
553.41	3287.50
553.77	3287.49
554.13	3286.64
554.48	3286.73
554.84	3286.00
555.19	3284.61
555.55	3284.30
555.90	3283.65
556.26	3283.14
556.61	3282.15
556.97	3279.75
557.32	3276.49
557.68	3274.03
558.03	3271.31
558.39	3269.59
558.74	3269.74
559.10	3269.42
559.45	3268.19
559.81	3267.07
560.16	3265.29
560.52	3264.56
560.87	3262.81
561.23	3259.49
561.58	3256.90
561.94	3252.52
562.29	3248.13
562.64	3245.06
563.00	3241.37
563.35	3237.13
563.71	3233.78
564.06	3230.84
564.42	3227.94
564.77	3225.43
565.12	3222.99
565.48	3219.95
565.83	3217.14
566.19	3213.93
566.54	3209.95
566.89	3205.40
567.25	3200.08
567.60	3196.37
567.96	3191.19
568.31	3186.55
568.66	3182.77
569.02	3179.28
569.37	3176.13
569.72	3172.85
570.08	3168.83
570.43	3163.48
570.78	3159.48
571.14	3154.87
571.49	3149.77
571.84	3145.85
572.20	3140.11
572.55	3135.23
572.90	3129.55
573.26	3123.61
573.61	3116.00
573.96	3108.70
574.31	3101.05
574.67	3094.92
575.02	3087.30
575.37	3080.10
575.72	3072.84
576.08	3065.64
576.43	3057.40
576.78	3049.82
577.13	3042.12
577.49	3034.50
577.84	3027.63
578.19	3019.71
578.54	3011.63
578.90	3003.71
579.25	2994.48
579.60	2985.49
579.95	2976.21
580.30	2967.94
580.66	2958.54
581.01	2949.89
581.36	2940.17
581.71	2932.44
582.06	2923.63
582.42	2915.52
582.77	2905.94
583.12	2896.07
583.47	2886.73
583.82	2877.45
584.17	2866.84
584.53	2857.55
584.88	2847.13
585.23	2837.04
585.58	2827.59
585.93	2817.61
586.28	2808.05
586.63	2798.69
586.98	2789.57
587.34	2780.31
587.69	2770.03
588.04	2761.33
588.39	2752.41
588.74	2741.98
589.09	2731.88
589.44	2720.26
589.79	2709.10
590.14	2699.48
590.49	2688.83
590.84	2678.74
591.19	2669.05
591.54	2659.15
591.89	2647.63
592.25	2637.55
592.60	2626.45
592.95	2614.90
593.30	2603.90
593.65	2592.72
594.00	2581.66
594.35	2572.36
594.70	2561.10
595.05	2550.60
595.40	2538.13
595.75	2525.87
596.10	2516.12
596.45	2504.70
596.80	2495.31
597.15	2484.57
597.50	2473.35
597.85	2463.60
598.19	2451.69
598.54	2439.95
598.89	2428.84
599.24	2418.44
599.59	2407.42
599.94	2397.65
600.29	2388.07
600.64	2377.56
600.99	2365.61
601.34	2355.33
601.69	2343.33
602.04	2332.41
602.39	2321.76
602.74	2313.25
603.08	2304.79
603.43	2296.11
603.78	2286.59
604.13	2276.17
604.48	2265.31
604.83	2255.93
605.18	2245.89
605.53	2236.45
605.87	2226.65
606.22	2217.46
606.57	2207.37
606.92	2196.70
607.27	2185.71
607.62	2174.93
607.96	2164.85
608.31	2155.85
608.66	2145.06
609.01	2134.30
609.36	2124.03
609.70	2112.96
610.05	2100.46
610.40	2088.31
610.75	2075.96
611.10	2064.49
611.44	2052.52
611.79	2041.83
612.14	2030.32
612.49	2017.86
612.83	2006.29
613.18	1994.05
613.53	1981.97
613.88	1969.47
614.22	1957.42
614.57	1945.05
614.92	1932.65
615.27	1920.26
615.61	1907.39
615.96	1895.31
616.31	1884.07
616.65	1873.04
617.00	1862.23
617.35	1851.62
617.70	1839.57
618.04	1827.59
618.39	1815.55
618.74	1804.10
619.08	1791.96
619.43	1779.44
619.78	1768.30
620.12	1757.64
620.47	1747.11
620.82	1735.96
621.16	1725.43
621.51	1715.14
621.85	1704.73
622.20	1693.87
622.55	1682.68
622.89	1671.90
623.24	1661.16
623.59	1650.13
623.93	1639.01
624.28	1627.81
624.62	1616.82
624.97	1606.55
625.32	1596.24
625.66	1586.54
626.01	1576.68
626.35	1568.07
626.70	1559.11
627.04	1549.72
627.39	1539.22
627.73	1529.45
628.08	1519.92
628.43	1510.33
628.77	1501.28
629.12	1491.75
629.46	1482.31
629.81	1472.80
630.15	1463.23
630.50	1453.85
630.84	1444.34
631.19	1434.18
631.53	1425.02
631.88	1415.52
632.22	1406.67
632.57	1398.19
632.91	1389.22
633.26	1380.61
633.60	1371.17
633.95	1362.51
634.29	1353.76
634.64	1345.83
634.98	1336.63
635.32	1328.04
635.67	1319.89
636.01	1311.34
636.36	1302.79
636.70	1294.53
637.05	1286.42
637.39	1278.71
637.73	1270.38
638.08	1263.03
638.42	1256.03
638.77	1248.27
639.11	1240.80
639.45	1232.74
639.80	1224.50
640.14	1216.79
640.49	1208.60
640.83	1200.36
641.17	1191.95
641.52	1183.81
641.86	1175.27
642.20	1167.57
642.55	1158.75
642.89	1150.03
643.23	1141.63
643.58	1134.10
643.92	1126.11
644.26	1118.20
644.61	1110.14
644.95	1102.03
645.29	1093.63
645.64	1084.99
645.98	1076.79
646.32	1068.85
646.66	1061.41
647.01	1053.84
647.35	1045.85
647.69	1037.87
648.04	1030.11
648.38	1022.21
648.72	1014.74
649.06	1007.14
649.41	999.72
649.75	992.60
650.09	985.78
650.43	978.75
650.78	971.31
651.12	964.19
651.46	957.50
651.80	950.72
652.14	944.56
652.49	938.02
652.83	931.56
653.17	924.34
653.51	917.33
653.85	910.69
654.20	904.21
654.54	897.71
654.88	891.34
655.22	884.69
655.56	877.80
655.90	870.68
656.25	863.85
656.59	857.36
656.93	851.18
657.27	844.59
657.61	837.82
657.95	831.52
658.29	825.39
658.64	819.29
658.98	813.14
659.32	806.72
659.66	800.63
660.00	794.59
660.34	789.25
660.68	783.58
661.02	777.26
661.36	771.19
661.70	765.45
662.05	760.00
662.39	754.89
662.73	750.06
663.07	745.40
663.41	740.65
663.75	735.85
664.09	730.62
664.43	725.56
664.77	720.74
665.11	715.90
665.45	711.06
665.79	706.13
666.13	701.62
666.47	697.08
666.81	692.43
667.15	687.92
667.49	683.52
667.83	679.15
668.17	674.95
668.51	670.78
668.85	666.35
669.19	662.18
669.53	657.68
669.87	653.13
670.21	648.70
670.55	644.27
670.89	639.74
671.23	635.79
671.57	631.45
671.91	627.41
672.25	623.36
672.58	619.15
672.92	615.02
673.26	610.94
673.60	606.98
673.94	603.17
674.28	599.56
674.62	595.68
674.96	591.61
675.30	587.66
675.64	583.76
675.97	580.27
676.31	576.71
676.65	573.44
676.99	570.45
677.33	567.25
677.67	563.92
678.01	560.53
678.34	556.99
678.68	553.88
679.02	550.42
679.36	546.98
679.70	543.70
680.04	540.48
680.37	537.21
680.71	534.05
681.05	530.89
681.39	527.68
681.73	524.54
682.06	521.74
682.40	518.81
682.74	515.80
683.08	512.61
683.42	509.43
683.75	506.11
684.09	502.93
684.43	499.76
684.77	496.70
685.10	493.63
685.44	490.50
685.78	487.51
686.12	484.63
686.45	481.67
686.79	478.82
687.13	476.29
687.46	473.62
687.80	470.70
688.14	467.93
688.48	465.10
688.81	462.35
689.15	459.67
689.49	456.98
689.82	454.14
690.16	451.29
690.50	448.48
690.83	445.94
691.17	443.20
691.51	440.59
691.84	438.14
692.18	435.75
692.52	433.42
692.85	431.05
693.19	428.67
693.52	426.39
693.86	423.98
694.20	421.35
694.53	418.85
694.87	416.42
695.21	413.93
695.54	411.63
695.88	409.37
696.21	407.07
696.55	404.93
696.88	403.00
697.22	401.15
697.56	399.24
697.89	397.22
698.23	395.27
698.56	393.14
698.90	391.14
699.23	389.22
699.57	387.29
699.90	385.25
700.24	383.28
700.58	381.51
700.91	379.82
701.25	378.01
701.58	376.22
701.92	374.59
702.25	373.01
702.59	371.25
702.92	369.44
703.26	367.84
703.59	366.16
703.93	364.62
704.26	362.89
704.60	361.27
704.93	359.62
705.26	357.95
705.60	356.40
705.93	354.92
706.27	353.36
706.60	351.90
706.94	350.53
707.27	348.96
707.61	347.27
707.94	345.70
708.27	344.16
708.61	342.79
708.94	341.42
709.28	339.98
709.61	338.62
709.94	337.26
710.28	335.55
710.61	334.09
710.95	332.41
711.28	331.10
711.61	329.56
711.95	328.26
712.28	326.92
712.61	325.60
712.95	324.29
713.28	323.05
713.61	321.78
713.95	320.44
714.28	319.23
714.61	318.12
714.95	316.93
715.28	315.78
715.61	314.48
715.95	313.13
716.28	311.85
716.61	310.59
716.95	309.37
717.28	308.36
717.61	307.26
717.94	306.23
718.28	305.07
718.61	304.08
718.94	302.96
719.27	301.88
719.61	300.92
719.94	300.04
720.27	298.94
720.60	297.90
720.94	297.05
721.27	296.22
721.60	295.29
721.93	294.42
722.27	293.61
722.60	292.73
722.93	291.99
723.26	291.23
723.59	290.46
723.93	289.70
724.26	288.97
724.59	288.14
724.92	287.37
725.25	286.55
725.59	285.86
725.92	285.19
726.25	284.52
726.58	283.86
726.91	283.00
727.24	282.27
727.57	281.65
727.91	280.77
728.24	279.95
728.57	279.20
728.90	278.52
729.23	277.70
729.56	277.12
729.89	276.39
730.22	275.65
730.55	274.89
730.89	274.29
731.22	273.58
731.55	273.00
731.88	272.36
732.21	271.77
732.54	271.11
732.87	270.35
733.20	269.75
733.53	269.05
733.86	268.52
734.19	268.00
734.52	267.46
734.85	267.11
735.18	266.61
735.51	266.12
735.84	265.52
736.17	265.08
736.50	264.38
736.83	263.98
737.16	263.45
737.49	262.99
737.82	262.43
738.15	261.86
738.48	261.33
738.81	260.74
739.14	260.19
739.47	259.62
739.80	259.22
740.13	258.69
740.46	258.20
740.79	257.67
741.12	257.09
741.45	256.53
741.78	255.83
742.11	255.36
742.44	254.80
742.77	254.39
743.10	253.77
743.43	253.27
743.75	252.55
744.08	252.33
744.41	251.74
744.74	251.20
745.07	250.75
745.40	250.35
745.73	250.04
746.06	249.60
746.39	249.22
746.71	248.71
747.04	248.29
747.37	247.86
747.70	247.37
748.03	247.00
748.36	246.60
748.68	246.25
749.01	245.74
749.34	245.33
749.67	244.93
750.00	244.59
750.33	244.29
750.65	244.01
750.98	243.34
751.31	243.08
751.64	242.69
751.97	242.40
752.29	242.04
752.62	241.59
752.95	241.24
753.28	240.85
753.60	240.60
753.93	240.34
754.26	240.02
754.59	239.55
754.91	239.14
755.24	238.89
755.57	238.53
755.90	238.25
756.22	237.92
756.55	237.50
756.88	237.19
757.20	236.87
757.53	236.48
757.86	236.33
758.19	236.13
758.51	235.85
758.84	235.57
759.17	235.34
759.49	235.11
759.82	234.92
760.15	234.70
760.47	234.35
760.80	233.94
761.13	233.68
761.45	233.53
761.78	233.32
762.11	232.99
762.43	232.72
762.76	232.49
763.08	232.31
763.41	232.12
763.74	231.89
764.06	231.60
764.39	231.36
764.71	231.00
765.04	230.67
765.37	230.45
765.69	230.13
766.02	229.83
766.34	229.58
766.67	229.36
767.00	229.17
767.32	229.04
767.65	229.03
767.97	228.82
768.30	228.69
768.62	228.48
768.95	228.30
769.27	228.19
769.60	228.05
769.92	227.81
770.25	227.60
770.57	227.31
770.90	227.10
771.22	226.95
771.55	226.81
771.87	226.64
772.20	226.46
772.52	226.51
772.85	226.55
773.17	226.47
773.50	226.25
773.82	226.01
774.15	225.77
774.47	225.51
774.80	225.43
775.12	225.19
775.45	224.96
775.77	224.78
776.09	224.59
776.42	224.46
776.74	224.37
777.07	224.23
777.39	224.12
777.72	224.10
778.04	223.99
778.36	223.84
778.69	223.70
779.01	223.65
779.33	223.33
779.66	223.01
779.98	222.83
780.31	222.69
780.63	222.69
780.95	222.63
781.28	222.51
781.60	222.30
781.92	222.16
782.25	222.09
782.57	221.93
782.89	221.80
783.22	221.65
783.54	221.53
783.86	221.40
784.19	221.31
784.51	221.15
784.83	221.01
785.16	220.90
785.48	220.75
785.80	220.60
786.12	220.60
786.45	220.46
786.77	220.33
787.09	220.26
787.42	220.11
787.74	220.01
788.06	219.91
788.38	219.84
788.71	219.81
789.03	219.76
789.35	219.82
789.67	219.75
789.99	219.70
790.32	219.56
790.64	219.50
790.96	219.58
791.28	219.45
791.61	219.42
791.93	219.41
792.25	219.38
792.57	219.42
792.89	219.23
793.21	219.25
793.54	219.13
793.86	219.03
794.18	218.89
794.50	218.84
794.82	218.74
795.14	218.72
795.47	218.68
795.79	218.57
796.11	218.40
796.43	218.30
796.75	218.26
797.07	218.22
797.39	218.17
797.71	218.03
798.04	217.92
798.36	217.81
798.68	217.80
799.00	217.77
799.32	217.68
799.64	217.61
799.96	217.45
800.28	217.48
800.60	217.45
800.92	217.44
801.24	217.38
801.56	217.44
801.89	217.30
802.21	217.23
802.53	217.15
802.85	217.12
803.17	217.15
803.49	217.00
803.81	216.92
804.13	216.84
804.45	216.68
804.77	216.72
805.09	216.71
805.41	216.57
805.73	216.55
806.05	216.45
806.37	216.45
806.69	216.41
807.01	216.33
807.33	216.31
807.65	216.14
807.97	216.11
808.28	215.87
808.60	215.87
808.92	215.77
809.24	215.85
809.56	215.78
809.88	215.70
810.20	215.67
810.52	215.66
810.84	215.58
811.16	215.52
811.48	215.52
811.80	215.55
812.12	215.48
812.43	215.45
812.75	215.37
813.07	215.20
813.39	215.17
813.71	215.13
814.03	215.04
814.35	215.07
814.67	214.96
814.98	214.95
815.30	214.88
815.62	214.86
815.94	214.71
816.26	214.66
816.58	214.57
816.89	214.55
817.21	214.49
817.53	214.53
817.85	214.59
818.17	214.41
818.48	214.32
818.80	214.37
819.12	214.28
819.44	214.20
819.76	214.24
820.07	214.22
820.39	214.13
820.71	214.16
821.03	214.14
821.34	214.12
821.66	214.10
821.98	214.22
822.30	214.26
822.61	214.41
822.93	214.39
823.25	214.36
823.57	214.30
823.88	214.28
824.20	214.17
824.52	214.12
824.83	214.14
825.15	214.07
825.47	213.98
825.79	214.03
826.10	214.04
826.42	214.08
826.74	214.13
827.05	214.15
827.37	214.11
827.69	214.10
828.00	214.09
828.32	214.06
828.64	213.86
828.95	213.81
829.27	213.69
829.58	213.68
829.90	213.72
830.22	213.78
830.53	213.68
830.85	213.70
831.17	213.68
831.48	213.68
831.80	213.67
832.11	213.67
832.43	213.59
832.75	213.53
833.06	213.54
833.38	213.42
833.69	213.42
834.01	213.36
834.32	213.22
834.64	213.19
834.96	213.21
835.27	213.18
835.59	213.07
835.90	213.05
836.22	212.98
836.53	212.88
836.85	212.78
837.16	213.03
837.48	213.00
837.79	213.05
838.11	213.07
838.42	212.99
838.74	212.90
839.05	212.87
839.37	212.84
839.68	212.69
840.00	212.66
840.31	212.60
840.63	212.59
840.94	212.62
841.26	212.61
841.57	212.59
841.88	212.61
842.20	212.67
842.51	212.68
842.83	212.71
843.14	212.92
843.46	212.93
843.77	212.75
844.08	212.69
844.40	212.67
844.71	212.57
845.03	212.55
845.34	212.58
845.65	212.57
845.97	212.56
846.28	212.59
846.60	212.69
846.91	212.69
847.22	212.71
847.54	212.79
847.85	212.72
848.16	212.68
848.48	212.70
848.79	212.74
849.10	212.65
849.42	212.67
849.73	212.45
850.04	212.37
850.36	212.31
850.67	212.40
850.98	212.33
851.30	212.35
851.61	212.31
851.92	212.30
852.23	212.31
852.55	212.34
852.86	212.40
853.17	212.27
853.49	212.37
853.80	212.31
854.11	212.32
854.42	212.33
854.74	212.34
855.05	212.29
855.36	212.22
855.67	212.22
855.99	212.18
856.30	212.39
856.61	212.44
856.92	212.47
857.23	212.46
857.55	212.46
857.86	212.45
858.17	212.59
858.48	212.63
858.79	212.62
859.11	212.58
859.42	212.51
859.73	212.51
860.04	212.45
860.35	212.43
860.66	212.39
860.98	212.43
861.29	212.36
861.60	212.35
861.91	212.33
862.22	212.33
862.53	212.31
862.84	212.06
863.16	212.13
863.47	212.05
863.78	212.03
864.09	211.92
864.40	211.99
864.71	211.95
865.02	211.88
865.33	211.79
865.64	211.83
865.95	211.79
866.27	211.95
866.58	211.94
866.89	211.96
867.20	211.95
867.51	211.93
867.82	211.96
868.13	212.06
868.44	212.02
868.75	212.06
869.06	212.05
869.37	212.05
869.68	212.00
869.99	212.05
870.30	212.13
870.61	212.26
870.92	212.18
871.23	212.08
871.54	212.08
871.85	212.23
872.16	212.22
872.47	212.21
872.78	212.13
873.09	212.04
873.40	212.10
873.71	212.02
874.02	212.02
874.33	212.00
874.64	211.89
874.95	211.91
875.26	211.91
875.56	211.89
875.87	211.98
876.18	211.93
876.49	212.13
876.80	212.00
877.11	211.94
877.42	211.96
877.73	212.09
878.04	212.12
878.35	212.10
878.66	212.05
878.96	212.03
879.27	212.01
879.58	212.14
879.89	212.09
880.20	212.17
880.51	212.13
880.82	212.12
881.12	212.20
881.43	212.18
881.74	212.09
882.05	212.14
882.36	212.06
882.67	212.10
882.97	211.89
883.28	211.92
883.59	211.86
883.90	211.85
884.21	211.85
884.51	211.79
884.82	211.73
885.13	211.74
885.44	211.80
885.74	211.75
886.05	211.70
886.36	211.69
886.67	211.55
886.98	211.63
887.28	211.67
887.59	211.57
887.90	211.63
888.20	211.65
888.51	211.65
888.82	211.61
889.13	211.55
889.43	211.70
889.74	211.65
890.05	211.67
890.35	211.69
890.66	211.61
890.97	211.65
891.28	211.64
891.58	211.66
891.89	211.58
892.20	211.59
892.50	211.61
892.81	211.59
893.12	211.64
893.42	211.60
893.73	211.53
894.04	211.60
894.34	211.51
894.65	211.51
894.95	211.55
895.26	211.57
895.57	211.66
895.87	211.49
896.18	211.60
896.48	211.65
896.79	211.62
897.10	211.66
897.40	211.61
897.71	211.63
898.01	211.63
898.32	211.65
898.63	211.65
898.93	211.56
899.24	211.53
899.54	211.55
899.85	211.55
900.15	211.61
900.46	211.55
900.76	211.60
901.07	211.55
901.38	211.55
901.68	211.56
901.99	211.46
902.29	211.50
902.60	211.47
902.90	211.46
903.21	211.47
903.51	211.48
903.82	211.51
904.12	211.46
904.43	211.55
904.73	211.58
905.03	211.52
905.34	211.71
905.64	211.72
905.95	211.69
906.25	211.66
906.56	211.68
906.86	211.77
907.17	211.79
907.47	211.79
907.77	211.75
908.08	211.74
908.38	211.85
908.69	211.83
908.99	211.85
909.30	211.87
909.60	211.84
909.90	211.81
910.21	211.82
910.51	211.89
910.81	211.85
911.12	211.90
911.42	211.94
911.73	211.74
912.03	211.72
912.33	211.79
912.64	211.80
912.94	211.78
913.24	211.68
913.55	211.62
913.85	211.68
914.15	211.72
914.46	211.80
914.76	211.69
915.06	211.74
915.37	211.68
915.67	211.65
915.97	211.70
916.27	211.62
916.58	211.59
916.88	211.61
917.18	211.51
917.49	211.60
917.79	211.65
918.09	211.67
918.39	211.77
918.70	211.75
919.00	211.79
919.30	211.83
919.60	211.81
919.91	211.91
920.21	211.89
920.51	211.75
920.81	211.68
921.12	211.78
921.42	211.70
921.72	211.68
922.02	211.71
922.32	211.73
922.63	211.79
922.93	211.83
923.23	211.74
923.53	211.74
923.83	211.59
924.13	211.56
924.44	211.52
924.74	211.52
925.04	211.53
925.34	211.49
925.64	211.41
925.94	211.47
926.24	211.44
926.55	211.37
926.85	211.49
927.15	211.45
927.45	211.38
927.75	211.31
928.05	211.33
928.35	211.25
928.65	211.29
928.95	211.34
929.26	211.34
929.56	211.38
929.86	211.41
930.16	211.39
930.46	211.37
930.76	211.41
931.06	211.32
931.36	211.28
931.66	211.32
931.96	211.36
932.26	211.38
932.56	211.29
932.86	211.35
933.16	211.32
933.46	211.34
933.76	211.31
934.06	211.41
934.36	211.49
934.66	211.55
934.96	211.49
935.26	211.42
935.56	211.40
935.86	211.28
936.16	211.26
936.46	211.27
936.76	211.29
937.06	211.29
937.36	211.25
937.66	211.26
937.96	211.21
938.26	211.17
938.56	211.13
938.86	211.18
939.16	211.24
939.46	211.29
939.76	211.29
940.06	211.27
940.35	211.25
940.65	211.09
940.95	211.06
941.25	211.02
941.55	210.99
941.85	210.96
942.15	211.07
942.45	211.18
942.75	211.14
943.04	211.04
943.34	211.05
943.64	211.10
943.94	211.04
944.24	211.07
944.54	211.08
944.84	210.99
945.13	210.97
945.43	210.90
945.73	210.84
946.03	210.85
946.33	210.88
946.62	210.89
946.92	210.96
947.22	210.98
947.52	210.97
947.82	211.08
948.11	211.11
948.41	211.03
948.71	210.95
949.01	210.95
949.31	210.99
949.60	211.03
949.90	211.08
950.20	211.07
950.50	211.04
950.79	210.95
951.09	210.98
951.39	210.98
951.69	210.88
951.98	211.00
952.28	211.00
952.58	211.03
952.87	211.02
953.17	211.01
953.47	211.01
953.76	210.98
954.06	210.88
954.36	210.79
954.66	210.81
954.95	210.84
955.25	210.85
955.55	210.86
955.84	210.83
956.14	210.79
956.44	210.83
956.73	210.78
957.03	210.80
957.32	210.80
957.62	210.77
957.92	210.87
958.21	210.80
958.51	211.00
958.81	210.97
959.10	210.91
959.40	210.97
959.69	210.95
959.99	210.99
960.29	210.99
960.58	211.07
960.88	211.11
961.17	211.10
961.47	211.19
961.76	211.21
962.06	211.19
962.36	211.19
962.65	211.20
962.95	211.28
963.24	211.30
963.54	211.35
963.83	211.41
964.13	211.40
964.42	211.35
964.72	211.16
965.01	211.14
965.31	211.20
965.60	211.13
965.90	211.22
966.19	211.10
966.49	211.13
966.78	211.09
967.08	211.03
967.37	211.06
967.67	210.92
967.96	210.83
968.26	210.89
968.55	210.95
968.85	210.93
969.14	210.93
969.43	211.00
969.73	210.95
970.02	210.86
970.32	210.82
970.61	210.79
970.91	210.72
971.20	210.72
971.49	210.71
971.79	210.71
972.08	210.62
972.38	210.70
972.67	210.70
972.96	210.68
973.26	210.71
973.55	210.75
973.85	210.75
974.14	210.75
974.43	210.73
974.73	210.66
975.02	210.65
975.31	210.65
975.61	210.59
975.90	210.61
976.19	210.62
976.49	210.66
976.78	210.71
977.07	210.81
977.37	210.81
977.66	210.83
977.95	210.83
978.24	210.81
978.54	210.95
978.83	210.99
979.12	211.00
979.42	211.04
979.71	211.00
980.00	211.03
980.29	211.04
980.59	210.98
980.88	211.01
981.17	211.04
981.46	211.04
981.76	211.09
982.05	211.08
982.34	211.13
982.63	211.19
982.93	211.18
983.22	211.18
983.51	211.17
983.80	211.14
984.09	211.16
984.39	211.10
984.68	210.98
984.97	210.94
985.26	210.95
985.55	210.97
985.85	210.96
986.14	211.04
986.43	211.15
986.72	211.16
987.01	211.13
987.30	211.10
987.59	211.09
987.89	211.10
988.18	211.15
988.47	211.15
988.76	211.07
989.05	211.07
989.34	211.10
989.63	211.20
989.92	211.18
990.22	211.23
990.51	211.25
990.80	211.25
991.09	211.24
991.38	211.29
991.67	211.28
991.96	211.23
992.25	211.20
992.54	211.12
992.83	211.15
993.12	211.19
993.41	211.27
993.70	211.36
993.99	211.38
994.28	211.31
994.58	211.29
994.87	211.27
995.16	211.32
995.45	211.23
995.74	211.08
996.03	211.18
996.32	211.17
996.61	211.27
996.90	211.29
997.19	211.34
997.48	211.33
997.77	211.29
998.06	211.31
998.34	211.32
998.63	211.33
998.92	211.30
999.21	211.21
999.50	211.20
999.79	211.09
1000.08	211.08
1000.37	211.15
1000.66	211.14
1000.95	211.25
1001.24	211.14
1001.53	211.26
1001.82	211.32
1002.11	211.29
1002.40	211.27
1002.68	211.23
1002.97	211.43
1003.26	211.37
1003.55	211.32
1003.84	211.34
1004.13	211.42
1004.42	211.40
1004.71	211.38
1004.99	211.36
1005.28	211.39
1005.57	211.36
1005.86	211.39
1006.15	211.35
1006.44	211.31
1006.72	211.31
1007.01	211.19
1007.30	211.27
1007.59	211.18
1007.88	211.10
1008.17	211.07
1008.45	211.05
1008.74	210.99
1009.03	210.79
1009.32	210.81
1009.60	210.83
1009.89	210.75
1010.18	210.70
1010.47	210.69
1010.76	210.72
1011.04	210.76
1011.33	210.84
1011.62	210.81
1011.91	210.79
1012.19	210.81
1012.48	210.79
1012.77	210.86
1013.05	210.98
1013.34	210.96
1013.63	210.95
1013.92	211.05
1014.20	211.05
1014.49	211.00
1014.78	211.03
1015.06	211.02
1015.35	211.00
1015.64	211.09
1015.92	211.12
1016.21	211.05
1016.50	211.07
1016.78	211.07
1017.07	211.05
1017.36	211.02
1017.64	211.03
1017.93	210.99
1018.22	210.97
1018.50	210.92
1018.79	210.89
1019.08	210.74
1019.36	210.71
1019.65	210.73
1019.93	210.72
1020.22	210.79
1020.51	210.89
1020.79	210.97
1021.08	210.55
1021.36	209.65
1021.65	211.25
1021.94	209.35
1022.22	210.45
1022.51	211.35
1022.79	211.05
1023.08	212.50
1023.36	212.55
1023.65	212.05
>>>>>End Processed Spectral Data<<<<<
