SpectraSuite Data File
++++++++++++++++++++++++++++++++++++
Date: Mon Feb 25 17:32:14 EST 2013
User: group
Dark Spectrum Present: No
Reference Spectrum Present: No
Number of Sampled Component Spectra: 1
Spectrometers: USB2E7196
Integration Time (usec): 52000 (USB2E7196)
Spectra Averaged: 20 (USB2E7196)
Boxcar Smoothing: 10 (USB2E7196)
Correct for Electrical Dark: No (USB2E7196)
Strobe/Lamp Enabled: No (USB2E7196)
Correct for Detector Non-linearity: No (USB2E7196)
Correct for Stray Light: No (USB2E7196)
Number of Pixels in Processed Spectrum: 2048
>>>>>Begin Processed Spectral Data<<<<<
339.09	0.00
339.48	198.25
339.86	199.45
340.24	201.85
340.63	201.80
341.01	207.85
341.39	205.40
341.78	207.60
342.16	207.65
342.54	208.95
342.93	198.08
343.31	208.13
343.69	208.70
344.07	209.25
344.46	209.68
344.84	210.16
345.22	210.26
345.60	210.57
345.99	210.80
346.37	211.02
346.75	211.14
347.13	211.24
347.52	211.39
347.90	211.60
348.28	211.65
348.66	211.81
349.05	211.84
349.43	211.85
349.81	211.90
350.19	211.99
350.57	212.08
350.96	212.20
351.34	212.34
351.72	212.43
352.10	212.52
352.48	212.65
352.87	212.73
353.25	212.89
353.63	212.92
354.01	213.03
354.39	213.08
354.77	213.17
355.15	213.30
355.54	213.30
355.92	213.31
356.30	213.40
356.68	213.55
357.06	213.68
357.44	213.71
357.82	213.83
358.20	213.87
358.58	213.99
358.97	214.01
359.35	214.10
359.73	214.24
360.11	214.29
360.49	214.37
360.87	214.38
361.25	214.44
361.63	214.54
362.01	214.53
362.39	214.57
362.77	214.61
363.15	214.61
363.53	214.64
363.91	214.58
364.29	214.56
364.67	214.34
365.05	214.31
365.43	214.33
365.81	214.32
366.19	214.45
366.57	214.49
366.95	214.53
367.33	214.45
367.71	214.40
368.09	214.39
368.47	214.36
368.85	214.28
369.23	214.26
369.61	214.13
369.99	214.13
370.37	214.10
370.75	214.15
371.13	214.04
371.51	213.93
371.89	213.93
372.27	213.90
372.65	213.97
373.03	213.90
373.41	213.81
373.78	213.72
374.16	213.57
374.54	213.43
374.92	213.31
375.30	213.22
375.68	213.08
376.06	213.07
376.44	212.92
376.82	212.94
377.19	212.91
377.57	212.91
377.95	212.78
378.33	212.70
378.71	212.51
379.09	212.52
379.47	212.43
379.84	212.39
380.22	212.30
380.60	212.19
380.98	212.12
381.36	212.13
381.73	212.06
382.11	211.95
382.49	211.90
382.87	211.87
383.25	211.80
383.62	211.99
384.00	211.84
384.38	211.84
384.76	211.83
385.13	211.89
385.51	211.92
385.89	211.84
386.27	211.82
386.64	211.84
387.02	211.77
387.40	211.80
387.78	211.79
388.15	211.79
388.53	211.73
388.91	211.73
389.29	211.65
389.66	211.65
390.04	211.66
390.42	211.72
390.79	211.75
391.17	211.79
391.55	211.60
391.92	211.65
392.30	211.63
392.68	211.58
393.05	211.43
393.43	211.38
393.81	211.50
394.18	211.45
394.56	211.46
394.94	211.53
395.31	211.54
395.69	211.54
396.06	211.60
396.44	211.65
396.82	211.59
397.19	211.71
397.57	211.77
397.95	211.78
398.32	211.70
398.70	211.73
399.07	211.78
399.45	211.82
399.82	211.88
400.20	211.98
400.58	212.06
400.95	212.15
401.33	212.22
401.70	212.35
402.08	212.44
402.45	212.46
402.83	212.58
403.20	212.70
403.58	212.82
403.95	212.88
404.33	213.03
404.71	213.22
405.08	213.36
405.46	213.42
405.83	213.57
406.21	213.71
406.58	213.87
406.96	213.92
407.33	214.07
407.70	214.26
408.08	214.61
408.45	214.76
408.83	215.03
409.20	215.25
409.58	215.40
409.95	215.73
410.33	215.97
410.70	216.24
411.08	216.53
411.45	216.91
411.82	217.25
412.20	217.66
412.57	218.18
412.95	218.55
413.32	219.08
413.69	219.58
414.07	220.15
414.44	220.77
414.82	221.51
415.19	222.31
415.56	223.01
415.94	223.67
416.31	224.55
416.68	225.34
417.06	226.33
417.43	227.24
417.81	228.31
418.18	229.52
418.55	230.64
418.93	231.92
419.30	233.20
419.67	234.54
420.04	235.98
420.42	237.41
420.79	239.17
421.16	240.91
421.54	242.76
421.91	244.61
422.28	246.53
422.66	248.46
423.03	250.49
423.40	252.56
423.77	254.81
424.15	257.04
424.52	259.38
424.89	261.88
425.26	264.36
425.64	266.77
426.01	269.32
426.38	272.00
426.75	274.81
427.13	277.56
427.50	280.64
427.87	283.70
428.24	286.79
428.61	289.71
428.99	292.92
429.36	296.40
429.73	299.82
430.10	303.12
430.47	306.72
430.85	310.25
431.22	314.13
431.59	318.25
431.96	322.20
432.33	326.54
432.70	330.76
433.08	335.57
433.45	340.15
433.82	344.60
434.19	349.73
434.56	354.64
434.93	359.38
435.30	364.03
435.68	369.23
436.05	374.42
436.42	379.45
436.79	384.07
437.16	389.05
437.53	394.43
437.90	399.93
438.27	404.96
438.64	410.41
439.01	415.40
439.38	419.64
439.75	423.70
440.13	428.48
440.50	432.92
440.87	436.65
441.24	440.37
441.61	444.84
441.98	447.99
442.35	451.49
442.72	455.15
443.09	458.70
443.46	460.66
443.83	461.95
444.20	463.17
444.57	464.96
444.94	465.72
445.31	466.43
445.68	466.97
446.05	467.33
446.42	466.61
446.79	465.71
447.16	464.87
447.53	464.32
447.90	462.20
448.27	460.15
448.64	457.24
449.01	455.22
449.37	451.44
449.74	447.86
450.11	443.83
450.48	439.39
450.85	434.63
451.22	430.81
451.59	427.07
451.96	423.47
452.33	418.87
452.70	414.54
453.07	409.35
453.43	404.25
453.80	399.28
454.17	394.57
454.54	390.13
454.91	385.37
455.28	380.72
455.65	376.35
456.02	372.05
456.38	368.38
456.75	363.69
457.12	359.82
457.49	355.99
457.86	352.30
458.23	349.07
458.59	345.78
458.96	342.29
459.33	339.15
459.70	335.94
460.07	333.25
460.43	330.47
460.80	327.91
461.17	325.48
461.54	322.99
461.91	320.63
462.27	318.25
462.64	316.19
463.01	313.96
463.38	311.89
463.74	309.68
464.11	307.82
464.48	306.29
464.85	304.51
465.21	303.14
465.58	301.67
465.95	299.92
466.32	298.46
466.68	297.00
467.05	295.75
467.42	294.50
467.78	293.13
468.15	291.78
468.52	290.83
468.88	289.57
469.25	288.44
469.62	287.47
469.98	286.52
470.35	285.64
470.72	284.89
471.08	283.90
471.45	283.12
471.82	282.40
472.18	281.51
472.55	281.03
472.92	280.40
473.28	279.80
473.65	279.20
474.02	278.66
474.38	278.24
474.75	277.80
475.11	277.34
475.48	277.10
475.85	276.84
476.21	276.57
476.58	276.39
476.94	276.28
477.31	276.31
477.67	276.29
478.04	276.31
478.41	276.39
478.77	276.69
479.14	276.81
479.50	277.00
479.87	277.35
480.23	277.67
480.60	278.04
480.96	278.44
481.33	279.17
481.69	279.71
482.06	280.33
482.42	280.97
482.79	281.69
483.15	282.53
483.52	283.51
483.88	284.43
484.25	285.41
484.61	286.52
484.98	287.61
485.34	288.87
485.71	290.26
486.07	291.62
486.44	293.03
486.80	294.55
487.17	296.18
487.53	297.87
487.90	299.67
488.26	301.61
488.62	303.63
488.99	305.54
489.35	307.71
489.72	310.01
490.08	312.46
490.44	315.03
490.81	317.59
491.17	320.30
491.54	323.25
491.90	326.25
492.26	329.35
492.63	332.58
492.99	335.95
493.36	339.59
493.72	343.46
494.08	347.40
494.45	351.64
494.81	356.17
495.17	360.82
495.54	365.76
495.90	370.75
496.26	375.99
496.63	381.63
496.99	387.42
497.35	393.41
497.72	399.68
498.08	406.16
498.44	412.98
498.80	420.16
499.17	427.52
499.53	435.18
499.89	443.18
500.26	451.39
500.62	459.77
500.98	468.58
501.34	477.76
501.71	487.17
502.07	496.93
502.43	506.85
502.79	517.00
503.16	527.70
503.52	538.52
503.88	549.83
504.24	561.46
504.60	573.31
504.97	585.61
505.33	598.02
505.69	611.41
506.05	624.68
506.41	638.26
506.78	652.05
507.14	666.15
507.50	680.63
507.86	695.50
508.22	710.89
508.59	726.31
508.95	742.22
509.31	758.36
509.67	774.98
510.03	791.94
510.39	809.50
510.75	827.17
511.12	845.36
511.48	863.49
511.84	881.78
512.20	900.52
512.56	919.66
512.92	939.03
513.28	958.24
513.64	978.16
514.00	998.01
514.37	1018.13
514.73	1038.79
515.09	1059.61
515.45	1080.20
515.81	1101.24
516.17	1122.44
516.53	1143.73
516.89	1165.41
517.25	1186.96
517.61	1208.44
517.97	1229.87
518.33	1251.40
518.69	1272.95
519.05	1294.87
519.41	1316.83
519.77	1339.18
520.13	1361.13
520.49	1383.24
520.85	1406.02
521.21	1428.29
521.57	1451.12
521.93	1473.11
522.29	1495.87
522.65	1518.62
523.01	1541.40
523.37	1563.29
523.73	1585.56
524.09	1607.52
524.45	1629.61
524.81	1651.80
525.17	1673.86
525.53	1696.09
525.89	1718.35
526.25	1740.29
526.61	1761.75
526.97	1783.67
527.33	1804.90
527.68	1826.33
528.04	1847.70
528.40	1867.55
528.76	1887.89
529.12	1908.38
529.48	1930.34
529.84	1950.62
530.20	1970.61
530.56	1990.83
530.91	2011.72
531.27	2031.85
531.63	2051.84
531.99	2071.49
532.35	2090.66
532.71	2109.92
533.07	2129.26
533.42	2147.36
533.78	2166.14
534.14	2184.38
534.50	2201.47
534.86	2219.45
535.21	2236.10
535.57	2253.30
535.93	2270.69
536.29	2287.75
536.65	2304.35
537.00	2319.30
537.36	2334.38
537.72	2349.53
538.08	2364.58
538.44	2379.58
538.79	2395.05
539.15	2409.84
539.51	2424.32
539.87	2439.11
540.22	2453.26
540.58	2467.39
540.94	2481.74
541.29	2494.50
541.65	2506.59
542.01	2519.56
542.37	2530.92
542.72	2543.16
543.08	2554.11
543.44	2565.88
543.79	2576.01
544.15	2586.18
544.51	2597.17
544.87	2608.07
545.22	2617.25
545.58	2625.81
545.94	2633.12
546.29	2639.30
546.65	2645.61
547.01	2651.86
547.36	2657.60
547.72	2663.21
548.07	2667.61
548.43	2671.27
548.79	2675.35
549.14	2680.22
549.50	2684.53
549.86	2688.64
550.21	2692.32
550.57	2696.38
550.92	2698.83
551.28	2701.78
551.64	2704.08
551.99	2706.50
552.35	2708.16
552.70	2710.68
553.06	2713.15
553.41	2715.67
553.77	2718.75
554.13	2720.54
554.48	2722.22
554.84	2723.55
555.19	2724.09
555.55	2724.74
555.90	2725.37
556.26	2725.80
556.61	2725.59
556.97	2723.98
557.32	2723.70
557.68	2722.09
558.03	2720.36
558.39	2719.17
558.74	2718.38
559.10	2717.06
559.45	2714.86
559.81	2713.57
560.16	2710.72
560.52	2708.01
560.87	2705.16
561.23	2701.32
561.58	2699.25
561.94	2696.26
562.29	2692.68
562.64	2690.78
563.00	2688.10
563.35	2685.75
563.71	2683.78
564.06	2681.69
564.42	2680.17
564.77	2677.68
565.12	2676.12
565.48	2673.04
565.83	2669.85
566.19	2666.51
566.54	2662.44
566.89	2658.73
567.25	2654.90
567.60	2651.89
567.96	2648.58
568.31	2645.26
568.66	2641.45
569.02	2636.57
569.37	2631.25
569.72	2627.40
570.08	2621.57
570.43	2616.03
570.78	2610.26
571.14	2603.65
571.49	2596.89
571.84	2591.06
572.20	2584.17
572.55	2577.24
572.90	2570.51
573.26	2563.49
573.61	2556.20
573.96	2549.59
574.31	2541.72
574.67	2533.54
575.02	2525.04
575.37	2516.25
575.72	2507.25
576.08	2499.74
576.43	2491.41
576.78	2483.89
577.13	2475.54
577.49	2467.32
577.84	2459.78
578.19	2452.41
578.54	2445.40
578.90	2438.65
579.25	2429.51
579.60	2420.37
579.95	2411.36
580.30	2403.18
580.66	2395.01
581.01	2386.16
581.36	2376.95
581.71	2368.47
582.06	2360.13
582.42	2352.02
582.77	2343.18
583.12	2334.24
583.47	2325.26
583.82	2317.16
584.17	2307.92
584.53	2299.20
584.88	2290.69
585.23	2281.15
585.58	2271.67
585.93	2262.09
586.28	2252.67
586.63	2243.96
586.98	2235.60
587.34	2227.06
587.69	2218.20
588.04	2209.11
588.39	2200.92
588.74	2192.27
589.09	2183.90
589.44	2174.36
589.79	2165.81
590.14	2158.02
590.49	2149.94
590.84	2141.10
591.19	2132.91
591.54	2124.46
591.89	2114.50
592.25	2105.43
592.60	2096.54
592.95	2087.39
593.30	2077.64
593.65	2067.94
594.00	2058.60
594.35	2050.68
594.70	2041.70
595.05	2033.03
595.40	2024.14
595.75	2014.50
596.10	2005.99
596.45	1997.20
596.80	1989.47
597.15	1981.04
597.50	1971.88
597.85	1963.40
598.19	1954.45
598.54	1945.75
598.89	1937.73
599.24	1931.08
599.59	1923.54
599.94	1916.26
600.29	1908.33
600.64	1900.67
600.99	1892.34
601.34	1885.13
601.69	1876.15
602.04	1867.99
602.39	1860.16
602.74	1852.56
603.08	1846.01
603.43	1839.12
603.78	1831.14
604.13	1823.30
604.48	1815.40
604.83	1808.48
605.18	1801.53
605.53	1794.48
605.87	1786.75
606.22	1779.75
606.57	1771.85
606.92	1764.00
607.27	1755.79
607.62	1748.62
607.96	1741.88
608.31	1735.86
608.66	1728.07
609.01	1720.98
609.36	1713.71
609.70	1705.66
610.05	1697.95
610.40	1689.72
610.75	1680.92
611.10	1673.41
611.44	1664.12
611.79	1654.93
612.14	1645.56
612.49	1635.90
612.83	1627.08
613.18	1617.40
613.53	1607.85
613.88	1598.14
614.22	1589.43
614.57	1580.41
614.92	1570.93
615.27	1561.61
615.61	1551.80
615.96	1542.88
616.31	1534.16
616.65	1526.09
617.00	1517.52
617.35	1509.03
617.70	1500.35
618.04	1491.58
618.39	1482.53
618.74	1474.47
619.08	1466.16
619.43	1458.08
619.78	1450.40
620.12	1442.36
620.47	1434.75
620.82	1426.20
621.16	1418.06
621.51	1409.50
621.85	1401.21
622.20	1392.88
622.55	1384.41
622.89	1376.41
623.24	1368.49
623.59	1359.99
623.93	1351.52
624.28	1343.61
624.62	1335.44
624.97	1327.27
625.32	1319.52
625.66	1312.07
626.01	1304.77
626.35	1297.70
626.70	1290.03
627.04	1282.37
627.39	1274.61
627.73	1267.28
628.08	1260.74
628.43	1253.19
628.77	1245.78
629.12	1238.57
629.46	1232.16
629.81	1224.87
630.15	1217.29
630.50	1209.73
630.84	1202.60
631.19	1195.40
631.53	1188.54
631.88	1181.00
632.22	1173.45
632.57	1166.63
632.91	1159.18
633.26	1151.69
633.60	1144.47
633.95	1137.85
634.29	1130.78
634.64	1124.41
634.98	1117.29
635.32	1110.13
635.67	1104.00
636.01	1097.31
636.36	1090.58
636.70	1083.64
637.05	1077.14
637.39	1071.09
637.73	1065.07
638.08	1059.14
638.42	1053.36
638.77	1046.98
639.11	1040.90
639.45	1034.90
639.80	1028.12
640.14	1021.81
640.49	1015.74
640.83	1009.66
641.17	1003.37
641.52	997.13
641.86	990.53
642.20	984.41
642.55	977.66
642.89	971.16
643.23	964.88
643.58	958.95
643.92	952.65
644.26	946.48
644.61	940.34
644.95	934.30
645.29	927.95
645.64	921.10
645.98	914.88
646.32	908.70
646.66	902.76
647.01	896.98
647.35	891.10
647.69	884.79
648.04	878.79
648.38	872.81
648.72	866.98
649.06	860.98
649.41	854.93
649.75	849.28
650.09	843.42
650.43	837.61
650.78	831.49
651.12	825.40
651.46	819.82
651.80	813.94
652.14	807.84
652.49	802.03
652.83	796.50
653.17	790.51
653.51	784.80
653.85	778.95
654.20	773.11
654.54	767.34
654.88	761.93
655.22	756.16
655.56	750.24
655.90	744.37
656.25	738.68
656.59	733.14
656.93	727.98
657.27	723.00
657.61	717.48
657.95	712.40
658.29	707.42
658.64	702.24
658.98	697.00
659.32	691.81
659.66	686.58
660.00	681.19
660.34	675.91
660.68	670.90
661.02	666.00
661.36	661.26
661.70	656.45
662.05	651.67
662.39	647.19
662.73	642.89
663.07	638.63
663.41	634.36
663.75	629.96
664.09	625.12
664.43	620.22
664.77	615.95
665.11	611.55
665.45	607.22
665.79	602.73
666.13	598.42
666.47	594.13
666.81	589.97
667.15	585.88
667.49	582.15
667.83	578.11
668.17	574.20
668.51	570.44
668.85	566.88
669.19	563.19
669.53	559.18
669.87	555.12
670.21	551.25
670.55	547.37
670.89	543.93
671.23	540.73
671.57	537.30
671.91	533.67
672.25	530.17
672.58	526.51
672.92	523.19
673.26	520.03
673.60	516.93
673.94	513.64
674.28	510.48
674.62	507.25
674.96	504.18
675.30	501.25
675.64	498.06
675.97	494.79
676.31	491.74
676.65	488.84
676.99	486.20
677.33	483.25
677.67	480.32
678.01	477.13
678.34	474.21
678.68	471.27
679.02	468.48
679.36	465.58
679.70	462.93
680.04	460.02
680.37	456.99
680.71	454.09
681.05	451.56
681.39	448.93
681.73	446.29
682.06	443.78
682.40	440.94
682.74	438.34
683.08	435.85
683.42	433.22
683.75	430.78
684.09	428.16
684.43	425.69
684.77	423.12
685.10	420.63
685.44	418.06
685.78	415.69
686.12	413.33
686.45	410.99
686.79	408.61
687.13	406.51
687.46	404.32
687.80	402.15
688.14	399.77
688.48	397.65
688.81	395.31
689.15	393.08
689.49	390.91
689.82	388.73
690.16	386.35
690.50	384.10
690.83	381.88
691.17	379.68
691.51	377.60
691.84	375.58
692.18	373.66
692.52	371.76
692.85	369.97
693.19	368.05
693.52	366.14
693.86	364.16
694.20	362.21
694.53	360.41
694.87	358.46
695.21	356.59
695.54	354.62
695.88	352.87
696.21	351.04
696.55	349.35
696.88	347.50
697.22	345.90
697.56	344.40
697.89	342.72
698.23	341.16
698.56	339.41
698.90	337.91
699.23	336.24
699.57	334.60
699.90	332.77
700.24	331.20
700.58	329.57
700.91	328.19
701.25	326.74
701.58	325.30
701.92	323.91
702.25	322.59
702.59	321.24
702.92	319.93
703.26	318.59
703.59	317.29
703.93	316.21
704.26	314.88
704.60	313.45
704.93	312.28
705.26	310.92
705.60	309.92
705.93	308.56
706.27	307.45
706.60	306.41
706.94	305.38
707.27	304.15
707.61	303.15
707.94	302.01
708.27	300.86
708.61	299.74
708.94	298.62
709.28	297.38
709.61	296.19
709.94	295.21
710.28	294.06
710.61	292.99
710.95	291.86
711.28	290.91
711.61	290.07
711.95	288.98
712.28	288.04
712.61	286.95
712.95	286.18
713.28	285.34
713.61	284.28
713.95	283.33
714.28	282.55
714.61	281.59
714.95	280.66
715.28	279.75
715.61	278.74
715.95	277.87
716.28	277.05
716.61	276.25
716.95	275.30
717.28	274.57
717.61	273.77
717.94	272.91
718.28	272.09
718.61	271.32
718.94	270.60
719.27	269.81
719.61	269.06
719.94	268.35
720.27	267.60
720.60	266.86
720.94	266.12
721.27	265.39
721.60	264.77
721.93	264.17
722.27	263.57
722.60	263.02
722.93	262.38
723.26	261.79
723.59	261.20
723.93	260.66
724.26	260.07
724.59	259.47
724.92	259.01
725.25	258.52
725.59	257.93
725.92	257.43
726.25	256.96
726.58	256.54
726.91	255.99
727.24	255.44
727.57	254.99
727.91	254.50
728.24	254.02
728.57	253.52
728.90	253.02
729.23	252.47
729.56	252.09
729.89	251.61
730.22	251.16
730.55	250.70
730.89	250.20
731.22	249.75
731.55	249.32
731.88	248.80
732.21	248.32
732.54	247.86
732.87	247.40
733.20	246.92
733.53	246.43
733.86	245.94
734.19	245.55
734.52	245.17
734.85	244.97
735.18	244.56
735.51	244.18
735.84	243.80
736.17	243.50
736.50	243.04
736.83	242.91
737.16	242.50
737.49	242.20
737.82	241.81
738.15	241.48
738.48	241.10
738.81	240.80
739.14	240.37
739.47	240.03
739.80	239.71
740.13	239.40
740.46	239.11
740.79	238.74
741.12	238.33
741.45	237.93
741.78	237.46
742.11	237.20
742.44	236.89
742.77	236.56
743.10	236.18
743.43	235.88
743.75	235.43
744.08	235.39
744.41	235.10
744.74	234.79
745.07	234.43
745.40	234.18
745.73	233.95
746.06	233.73
746.39	233.46
746.71	233.17
747.04	232.93
747.37	232.60
747.70	232.42
748.03	232.09
748.36	231.84
748.68	231.60
749.01	231.32
749.34	231.02
749.67	230.81
750.00	230.66
750.33	230.54
750.65	230.28
750.98	229.85
751.31	229.56
751.64	229.40
751.97	229.32
752.29	229.21
752.62	228.91
752.95	228.70
753.28	228.39
753.60	228.11
753.93	227.91
754.26	227.74
754.59	227.44
754.91	227.33
755.24	227.22
755.57	227.08
755.90	226.89
756.22	226.74
756.55	226.51
756.88	226.31
757.20	226.00
757.53	225.74
757.86	225.56
758.19	225.37
758.51	225.18
758.84	224.89
759.17	224.59
759.49	224.41
759.82	224.31
760.15	224.28
760.47	224.13
760.80	223.97
761.13	223.75
761.45	223.63
761.78	223.40
762.11	223.20
762.43	222.93
762.76	222.74
763.08	222.53
763.41	222.40
763.74	222.22
764.06	222.08
764.39	222.02
764.71	221.89
765.04	221.77
765.37	221.63
765.69	221.45
766.02	221.34
766.34	221.20
766.67	221.02
767.00	220.89
767.32	220.89
767.65	220.90
767.97	220.81
768.30	220.74
768.62	220.64
768.95	220.51
769.27	220.44
769.60	220.34
769.92	220.26
770.25	220.14
770.57	219.95
770.90	219.83
771.22	219.67
771.55	219.56
771.87	219.52
772.20	219.38
772.52	219.44
772.85	219.59
773.17	219.53
773.50	219.45
773.82	219.29
774.15	219.12
774.47	218.86
774.80	218.82
775.12	218.75
775.45	218.68
775.77	218.57
776.09	218.51
776.42	218.43
776.74	218.35
777.07	218.27
777.39	218.29
777.72	218.14
778.04	218.02
778.36	217.95
778.69	217.84
779.01	217.76
779.33	217.60
779.66	217.27
779.98	217.22
780.31	217.10
780.63	217.11
780.95	217.06
781.28	217.04
781.60	216.96
781.92	216.90
782.25	216.90
782.57	216.89
782.89	216.83
783.22	216.75
783.54	216.70
783.86	216.63
784.19	216.51
784.51	216.59
784.83	216.64
785.16	216.62
785.48	216.59
785.80	216.56
786.12	216.47
786.45	216.44
786.77	216.31
787.09	216.33
787.42	216.19
787.74	216.08
788.06	216.07
788.38	216.00
788.71	215.90
789.03	215.85
789.35	215.87
789.67	215.79
789.99	215.78
790.32	215.76
790.64	215.78
790.96	215.97
791.28	215.83
791.61	215.76
791.93	215.77
792.25	215.70
792.57	215.82
792.89	215.80
793.21	215.78
793.54	215.73
793.86	215.68
794.18	215.69
794.50	215.70
794.82	215.56
795.14	215.51
795.47	215.46
795.79	215.43
796.11	215.30
796.43	215.24
796.75	215.17
797.07	215.16
797.39	215.15
797.71	214.94
798.04	214.90
798.36	214.85
798.68	214.75
799.00	214.73
799.32	214.55
799.64	214.58
799.96	214.56
800.28	214.65
800.60	214.60
800.92	214.58
801.24	214.55
801.56	214.64
801.89	214.63
802.21	214.59
802.53	214.51
802.85	214.54
803.17	214.60
803.49	214.55
803.81	214.46
804.13	214.37
804.45	214.36
804.77	214.34
805.09	214.37
805.41	214.28
805.73	214.28
806.05	214.25
806.37	214.21
806.69	214.13
807.01	214.04
807.33	214.04
807.65	213.94
807.97	213.94
808.28	213.90
808.60	213.83
808.92	213.86
809.24	213.93
809.56	213.85
809.88	213.81
810.20	213.85
810.52	213.90
810.84	213.89
811.16	213.88
811.48	213.87
811.80	213.87
812.12	213.85
812.43	213.74
812.75	213.70
813.07	213.67
813.39	213.64
813.71	213.65
814.03	213.55
814.35	213.54
814.67	213.48
814.98	213.38
815.30	213.35
815.62	213.28
815.94	213.16
816.26	213.13
816.58	213.07
816.89	213.05
817.21	212.93
817.53	212.91
817.85	212.80
818.17	212.79
818.48	212.73
818.80	212.83
819.12	212.85
819.44	212.80
819.76	212.70
820.07	212.74
820.39	212.68
820.71	212.67
821.03	212.68
821.34	212.63
821.66	212.68
821.98	212.69
822.30	212.65
822.61	212.72
822.93	212.70
823.25	212.66
823.57	212.58
823.88	212.68
824.20	212.65
824.52	212.68
824.83	212.66
825.15	212.62
825.47	212.49
825.79	212.41
826.10	212.43
826.42	212.45
826.74	212.39
827.05	212.38
827.37	212.41
827.69	212.35
828.00	212.39
828.32	212.31
828.64	212.28
828.95	212.42
829.27	212.35
829.58	212.35
829.90	212.40
830.22	212.43
830.53	212.35
830.85	212.30
831.17	212.28
831.48	212.36
831.80	212.35
832.11	212.40
832.43	212.44
832.75	212.49
833.06	212.66
833.38	212.65
833.69	212.64
834.01	212.63
834.32	212.67
834.64	212.62
834.96	212.73
835.27	212.68
835.59	212.55
835.90	212.51
836.22	212.53
836.53	212.46
836.85	212.48
837.16	212.63
837.48	212.64
837.79	212.69
838.11	212.65
838.42	212.69
838.74	212.75
839.05	212.72
839.37	212.73
839.68	212.58
840.00	212.56
840.31	212.64
840.63	212.60
840.94	212.60
841.26	212.62
841.57	212.56
841.88	212.61
842.20	212.64
842.51	212.60
842.83	212.56
843.14	212.76
843.46	212.68
843.77	212.58
844.08	212.57
844.40	212.51
844.71	212.47
845.03	212.40
845.34	212.35
845.65	212.36
845.97	212.30
846.28	212.23
846.60	212.25
846.91	212.15
847.22	212.15
847.54	212.10
847.85	212.06
848.16	212.00
848.48	212.00
848.79	212.10
849.10	212.18
849.42	212.21
849.73	211.97
850.04	211.96
850.36	211.86
850.67	211.92
850.98	211.85
851.30	211.81
851.61	211.83
851.92	211.78
852.23	211.69
852.55	211.71
852.86	211.72
853.17	211.71
853.49	211.75
853.80	211.78
854.11	211.79
854.42	211.81
854.74	211.85
855.05	211.83
855.36	211.67
855.67	211.60
855.99	211.60
856.30	211.80
856.61	211.82
856.92	211.94
857.23	211.84
857.55	211.89
857.86	211.88
858.17	211.94
858.48	211.90
858.79	211.91
859.11	211.89
859.42	211.81
859.73	211.75
860.04	211.74
860.35	211.67
860.66	211.69
860.98	211.65
861.29	211.62
861.60	211.64
861.91	211.68
862.22	211.65
862.53	211.57
862.84	211.37
863.16	211.37
863.47	211.20
863.78	211.24
864.09	211.28
864.40	211.26
864.71	211.18
865.02	211.22
865.33	211.24
865.64	211.20
865.95	211.28
866.27	211.44
866.58	211.41
866.89	211.45
867.20	211.40
867.51	211.45
867.82	211.43
868.13	211.39
868.44	211.32
868.75	211.43
869.06	211.44
869.37	211.46
869.68	211.49
869.99	211.58
870.30	211.56
870.61	211.55
870.92	211.58
871.23	211.63
871.54	211.59
871.85	211.61
872.16	211.65
872.47	211.65
872.78	211.48
873.09	211.54
873.40	211.48
873.71	211.52
874.02	211.49
874.33	211.49
874.64	211.50
874.95	211.54
875.26	211.43
875.56	211.50
875.87	211.48
876.18	211.42
876.49	211.57
876.80	211.59
877.11	211.54
877.42	211.54
877.73	211.51
878.04	211.52
878.35	211.56
878.66	211.50
878.96	211.47
879.27	211.47
879.58	211.46
879.89	211.48
880.20	211.56
880.51	211.54
880.82	211.51
881.12	211.51
881.43	211.46
881.74	211.43
882.05	211.43
882.36	211.47
882.67	211.47
882.97	211.22
883.28	211.23
883.59	211.22
883.90	211.25
884.21	211.19
884.51	211.19
884.82	211.06
885.13	211.04
885.44	211.02
885.74	211.07
886.05	210.98
886.36	210.97
886.67	210.82
886.98	210.87
887.28	210.90
887.59	210.91
887.90	211.02
888.20	211.03
888.51	210.99
888.82	211.00
889.13	211.01
889.43	211.31
889.74	211.19
890.05	211.20
890.35	211.10
890.66	211.16
890.97	211.18
891.28	211.22
891.58	211.28
891.89	211.31
892.20	211.25
892.50	211.20
892.81	211.19
893.12	211.23
893.42	211.19
893.73	211.13
894.04	211.13
894.34	211.08
894.65	211.03
894.95	211.05
895.26	210.97
895.57	211.11
895.87	210.85
896.18	210.97
896.48	210.97
896.79	211.01
897.10	210.96
897.40	210.93
897.71	211.02
898.01	210.98
898.32	211.00
898.63	211.02
898.93	211.06
899.24	211.13
899.54	211.14
899.85	211.07
900.15	211.16
900.46	211.14
900.76	211.13
901.07	211.13
901.38	211.02
901.68	211.11
901.99	210.92
902.29	210.96
902.60	210.93
902.90	210.93
903.21	210.96
903.51	211.02
903.82	211.05
904.12	211.09
904.43	211.14
904.73	211.11
905.03	211.11
905.34	211.32
905.64	211.22
905.95	211.20
906.25	211.27
906.56	211.29
906.86	211.28
907.17	211.35
907.47	211.44
907.77	211.50
908.08	211.41
908.38	211.49
908.69	211.50
908.99	211.54
909.30	211.55
909.60	211.56
909.90	211.52
910.21	211.46
910.51	211.42
910.81	211.40
911.12	211.53
911.42	211.57
911.73	211.40
912.03	211.51
912.33	211.57
912.64	211.55
912.94	211.49
913.24	211.40
913.55	211.40
913.85	211.38
914.15	211.41
914.46	211.51
914.76	211.52
915.06	211.54
915.37	211.42
915.67	211.43
915.97	211.40
916.27	211.41
916.58	211.47
916.88	211.35
917.18	211.41
917.49	211.41
917.79	211.40
918.09	211.45
918.39	211.47
918.70	211.52
919.00	211.57
919.30	211.72
919.60	211.84
919.91	211.77
920.21	211.76
920.51	211.78
920.81	211.71
921.12	211.76
921.42	211.73
921.72	211.78
922.02	211.78
922.32	211.81
922.63	211.79
922.93	211.84
923.23	211.92
923.53	211.83
923.83	211.73
924.13	211.75
924.44	211.70
924.74	211.70
925.04	211.66
925.34	211.59
925.64	211.46
925.94	211.41
926.24	211.47
926.55	211.44
926.85	211.40
927.15	211.42
927.45	211.40
927.75	211.45
928.05	211.45
928.35	211.48
928.65	211.52
928.95	211.60
929.26	211.55
929.56	211.54
929.86	211.64
930.16	211.64
930.46	211.65
930.76	211.65
931.06	211.60
931.36	211.59
931.66	211.68
931.96	211.70
932.26	211.73
932.56	211.68
932.86	211.73
933.16	211.77
933.46	211.71
933.76	211.65
934.06	211.66
934.36	211.76
934.66	211.65
934.96	211.60
935.26	211.57
935.56	211.61
935.86	211.59
936.16	211.49
936.46	211.49
936.76	211.50
937.06	211.48
937.36	211.44
937.66	211.43
937.96	211.40
938.26	211.32
938.56	211.35
938.86	211.36
939.16	211.40
939.46	211.41
939.76	211.43
940.06	211.37
940.35	211.28
940.65	211.16
940.95	211.23
941.25	211.16
941.55	211.11
941.85	211.10
942.15	211.18
942.45	211.18
942.75	211.20
943.04	211.16
943.34	211.23
943.64	211.24
943.94	211.25
944.24	211.26
944.54	211.25
944.84	211.24
945.13	211.20
945.43	211.18
945.73	211.16
946.03	211.17
946.33	211.15
946.62	211.14
946.92	211.16
947.22	211.20
947.52	211.22
947.82	211.25
948.11	211.18
948.41	211.05
948.71	211.08
949.01	211.08
949.31	211.06
949.60	210.98
949.90	210.90
950.20	210.86
950.50	210.79
950.79	210.85
951.09	210.85
951.39	210.85
951.69	210.83
951.98	210.80
952.28	210.83
952.58	210.85
952.87	210.81
953.17	210.83
953.47	210.74
953.76	210.76
954.06	210.73
954.36	210.75
954.66	210.81
954.95	210.80
955.25	210.74
955.55	210.71
955.84	210.69
956.14	210.75
956.44	210.78
956.73	210.77
957.03	210.78
957.32	210.71
957.62	210.70
957.92	210.68
958.21	210.66
958.51	210.80
958.81	210.91
959.10	210.94
959.40	210.93
959.69	210.97
959.99	210.96
960.29	210.94
960.58	210.93
960.88	210.95
961.17	210.92
961.47	210.92
961.76	210.93
962.06	210.99
962.36	210.97
962.65	211.00
962.95	210.98
963.24	210.95
963.54	211.00
963.83	211.00
964.13	211.01
964.42	211.07
964.72	210.96
965.01	210.91
965.31	210.95
965.60	210.93
965.90	211.01
966.19	211.02
966.49	211.02
966.78	210.96
967.08	211.04
967.37	211.06
967.67	211.01
967.96	211.04
968.26	211.00
968.55	211.05
968.85	210.93
969.14	210.96
969.43	210.96
969.73	210.87
970.02	210.87
970.32	210.89
970.61	210.82
970.91	210.80
971.20	210.77
971.49	210.76
971.79	210.79
972.08	210.74
972.38	210.75
972.67	210.80
972.96	210.85
973.26	210.75
973.55	210.79
973.85	210.84
974.14	210.89
974.43	210.94
974.73	210.89
975.02	210.99
975.31	210.96
975.61	210.96
975.90	211.02
976.19	210.97
976.49	211.01
976.78	211.00
977.07	211.00
977.37	211.02
977.66	211.03
977.95	210.97
978.24	210.92
978.54	210.92
978.83	210.83
979.12	210.87
979.42	210.87
979.71	210.80
980.00	210.77
980.29	210.72
980.59	210.70
980.88	210.82
981.17	210.86
981.46	210.85
981.76	210.88
982.05	210.87
982.34	210.96
982.63	210.88
982.93	210.89
983.22	210.84
983.51	210.87
983.80	210.93
984.09	210.93
984.39	210.92
984.68	210.95
984.97	211.01
985.26	210.93
985.55	210.88
985.85	210.86
986.14	210.86
986.43	210.85
986.72	210.83
987.01	210.68
987.30	210.60
987.59	210.57
987.89	210.55
988.18	210.57
988.47	210.47
988.76	210.50
989.05	210.54
989.34	210.58
989.63	210.63
989.92	210.60
990.22	210.60
990.51	210.56
990.80	210.44
991.09	210.41
991.38	210.46
991.67	210.52
991.96	210.55
992.25	210.63
992.54	210.55
992.83	210.54
993.12	210.56
993.41	210.60
993.70	210.75
993.99	210.77
994.28	210.75
994.58	210.80
994.87	210.81
995.16	210.77
995.45	210.77
995.74	210.67
996.03	210.69
996.32	210.71
996.61	210.79
996.90	210.82
997.19	210.89
997.48	210.96
997.77	210.89
998.06	210.94
998.34	210.92
998.63	211.02
998.92	211.02
999.21	211.03
999.50	211.01
999.79	210.90
1000.08	210.89
1000.37	210.93
1000.66	210.94
1000.95	210.99
1001.24	210.93
1001.53	210.86
1001.82	210.87
1002.11	210.82
1002.40	210.88
1002.68	210.90
1002.97	211.09
1003.26	211.06
1003.55	210.98
1003.84	211.10
1004.13	211.09
1004.42	211.02
1004.71	211.05
1004.99	211.00
1005.28	211.05
1005.57	211.06
1005.86	211.02
1006.15	210.95
1006.44	210.93
1006.72	210.93
1007.01	210.81
1007.30	210.92
1007.59	211.01
1007.88	210.97
1008.17	210.89
1008.45	210.78
1008.74	210.73
1009.03	210.65
1009.32	210.62
1009.60	210.61
1009.89	210.49
1010.18	210.47
1010.47	210.52
1010.76	210.45
1011.04	210.55
1011.33	210.57
1011.62	210.53
1011.91	210.55
1012.19	210.62
1012.48	210.58
1012.77	210.56
1013.05	210.74
1013.34	210.70
1013.63	210.65
1013.92	210.73
1014.20	210.78
1014.49	210.81
1014.78	210.79
1015.06	210.73
1015.35	210.70
1015.64	210.74
1015.92	210.82
1016.21	210.80
1016.50	210.80
1016.78	210.79
1017.07	210.72
1017.36	210.61
1017.64	210.64
1017.93	210.66
1018.22	210.69
1018.50	210.73
1018.79	210.72
1019.08	210.59
1019.36	210.61
1019.65	210.59
1019.93	210.58
1020.22	210.61
1020.51	210.71
1020.79	210.75
1021.08	211.70
1021.36	210.80
1021.65	210.50
1021.94	210.15
1022.22	211.20
1022.51	209.90
1022.79	211.40
1023.08	210.70
1023.36	212.45
1023.65	211.10
>>>>>End Processed Spectral Data<<<<<
