SpectraSuite Data File
++++++++++++++++++++++++++++++++++++
Date: Mon Feb 25 17:31:22 EST 2013
User: group
Dark Spectrum Present: No
Reference Spectrum Present: No
Number of Sampled Component Spectra: 1
Spectrometers: USB2E7196
Integration Time (usec): 52000 (USB2E7196)
Spectra Averaged: 20 (USB2E7196)
Boxcar Smoothing: 10 (USB2E7196)
Correct for Electrical Dark: No (USB2E7196)
Strobe/Lamp Enabled: No (USB2E7196)
Correct for Detector Non-linearity: No (USB2E7196)
Correct for Stray Light: No (USB2E7196)
Number of Pixels in Processed Spectrum: 2048
>>>>>Begin Processed Spectral Data<<<<<
339.09	0.00
339.48	200.15
339.86	199.25
340.24	201.60
340.63	204.10
341.01	206.90
341.39	205.20
341.78	207.10
342.16	208.70
342.54	208.80
342.93	198.28
343.31	208.33
343.69	208.83
344.07	209.34
344.46	209.75
344.84	210.11
345.22	210.35
345.60	210.67
345.99	210.90
346.37	211.04
346.75	211.14
347.13	211.18
347.52	211.26
347.90	211.41
348.28	211.46
348.66	211.56
349.05	211.65
349.43	211.70
349.81	211.78
350.19	211.84
350.57	211.96
350.96	211.95
351.34	212.00
351.72	212.08
352.10	212.15
352.48	212.33
352.87	212.35
353.25	212.40
353.63	212.40
354.01	212.44
354.39	212.53
354.77	212.61
355.15	212.79
355.54	212.84
355.92	212.81
356.30	212.85
356.68	212.97
357.06	212.94
357.44	212.99
357.82	213.02
358.20	213.05
358.58	213.06
358.97	213.17
359.35	213.24
359.73	213.32
360.11	213.39
360.49	213.42
360.87	213.52
361.25	213.53
361.63	213.61
362.01	213.60
362.39	213.58
362.77	213.59
363.15	213.52
363.53	213.57
363.91	213.64
364.29	213.66
364.67	213.51
365.05	213.56
365.43	213.58
365.81	213.62
366.19	213.71
366.57	213.78
366.95	213.73
367.33	213.67
367.71	213.65
368.09	213.67
368.47	213.63
368.85	213.61
369.23	213.61
369.61	213.55
369.99	213.67
370.37	213.67
370.75	213.72
371.13	213.65
371.51	213.63
371.89	213.64
372.27	213.59
372.65	213.52
373.03	213.46
373.41	213.40
373.78	213.34
374.16	213.20
374.54	213.05
374.92	212.96
375.30	213.01
375.68	212.92
376.06	212.89
376.44	212.78
376.82	212.70
377.19	212.67
377.57	212.65
377.95	212.45
378.33	212.45
378.71	212.36
379.09	212.41
379.47	212.35
379.84	212.26
380.22	212.23
380.60	212.18
380.98	212.11
381.36	212.11
381.73	212.08
382.11	212.06
382.49	212.08
382.87	212.06
383.25	211.96
383.62	212.14
384.00	212.00
384.38	212.00
384.76	212.01
385.13	212.16
385.51	212.07
385.89	212.02
386.27	211.95
386.64	211.94
387.02	211.82
387.40	211.75
387.78	211.68
388.15	211.60
388.53	211.58
388.91	211.58
389.29	211.49
389.66	211.46
390.04	211.44
390.42	211.42
390.79	211.38
391.17	211.40
391.55	211.24
391.92	211.32
392.30	211.36
392.68	211.27
393.05	211.09
393.43	211.10
393.81	211.11
394.18	211.07
394.56	211.06
394.94	211.14
395.31	211.21
395.69	211.25
396.06	211.32
396.44	211.40
396.82	211.44
397.19	211.55
397.57	211.55
397.95	211.48
398.32	211.45
398.70	211.50
399.07	211.55
399.45	211.52
399.82	211.54
400.20	211.53
400.58	211.61
400.95	211.62
401.33	211.82
401.70	212.05
402.08	212.18
402.45	212.18
402.83	212.24
403.20	212.29
403.58	212.37
403.95	212.47
404.33	212.57
404.71	212.63
405.08	212.79
405.46	212.96
405.83	213.21
406.21	213.41
406.58	213.58
406.96	213.75
407.33	213.90
407.70	214.11
408.08	214.44
408.45	214.68
408.83	214.96
409.20	215.10
409.58	215.31
409.95	215.55
410.33	215.91
410.70	216.27
411.08	216.62
411.45	217.00
411.82	217.36
412.20	217.77
412.57	218.28
412.95	218.61
413.32	219.06
413.69	219.53
414.07	220.10
414.44	220.65
414.82	221.22
415.19	221.97
415.56	222.59
415.94	223.29
416.31	224.10
416.68	224.91
417.06	225.89
417.43	226.74
417.81	227.85
418.18	228.98
418.55	230.14
418.93	231.37
419.30	232.64
419.67	234.02
420.04	235.41
420.42	236.86
420.79	238.69
421.16	240.42
421.54	242.26
421.91	244.02
422.28	245.98
422.66	247.97
423.03	249.98
423.40	252.07
423.77	254.22
424.15	256.45
424.52	258.82
424.89	261.36
425.26	263.78
425.64	266.10
426.01	268.55
426.38	271.20
426.75	273.88
427.13	276.69
427.50	279.57
427.87	282.67
428.24	285.61
428.61	288.47
428.99	291.71
429.36	295.11
429.73	298.57
430.10	301.94
430.47	305.50
430.85	309.10
431.22	312.98
431.59	317.15
431.96	321.01
432.33	325.25
432.70	329.43
433.08	334.35
433.45	338.90
433.82	343.52
434.19	348.56
434.56	353.55
434.93	358.21
435.30	362.96
435.68	368.12
436.05	373.34
436.42	378.44
436.79	382.99
437.16	388.01
437.53	393.29
437.90	398.35
438.27	403.37
438.64	408.60
439.01	413.38
439.38	417.67
439.75	421.85
440.13	426.63
440.50	430.96
440.87	434.54
441.24	438.35
441.61	442.55
441.98	445.53
442.35	449.08
442.72	452.66
443.09	456.15
443.46	458.22
443.83	459.55
444.20	460.68
444.57	462.46
444.94	463.22
445.31	463.96
445.68	464.77
446.05	465.05
446.42	464.43
446.79	463.76
447.16	462.93
447.53	462.31
447.90	460.25
448.27	458.26
448.64	455.60
449.01	453.45
449.37	449.78
449.74	446.27
450.11	442.22
450.48	437.71
450.85	433.17
451.22	429.20
451.59	425.55
451.96	421.98
452.33	417.20
452.70	412.86
453.07	407.85
453.43	402.75
453.80	397.91
454.17	393.19
454.54	388.80
454.91	384.04
455.28	379.37
455.65	375.02
456.02	370.82
456.38	367.00
456.75	362.52
457.12	358.75
457.49	355.03
457.86	351.32
458.23	348.31
458.59	344.85
458.96	341.42
459.33	338.23
459.70	335.16
460.07	332.79
460.43	330.01
460.80	327.40
461.17	325.09
461.54	322.63
461.91	320.34
462.27	317.95
462.64	315.93
463.01	313.84
463.38	311.74
463.74	309.48
464.11	307.54
464.48	305.90
464.85	304.16
465.21	302.87
465.58	301.43
465.95	299.72
466.32	298.31
466.68	296.91
467.05	295.53
467.42	294.17
467.78	292.71
468.15	291.40
468.52	290.28
468.88	288.96
469.25	287.80
469.62	286.79
469.98	285.78
470.35	284.85
470.72	283.99
471.08	283.07
471.45	282.30
471.82	281.69
472.18	280.91
472.55	280.44
472.92	279.75
473.28	279.18
473.65	278.63
474.02	278.09
474.38	277.67
474.75	277.35
475.11	276.95
475.48	276.75
475.85	276.56
476.21	276.36
476.58	276.18
476.94	276.19
477.31	276.17
477.67	276.18
478.04	276.28
478.41	276.44
478.77	276.75
479.14	276.91
479.50	277.11
479.87	277.44
480.23	277.73
480.60	278.06
480.96	278.42
481.33	279.10
481.69	279.77
482.06	280.36
482.42	281.12
482.79	281.76
483.15	282.53
483.52	283.59
483.88	284.55
484.25	285.54
484.61	286.56
484.98	287.72
485.34	289.06
485.71	290.42
486.07	291.75
486.44	293.03
486.80	294.62
487.17	296.25
487.53	297.92
487.90	299.66
488.26	301.60
488.62	303.71
488.99	305.69
489.35	307.83
489.72	310.16
490.08	312.45
490.44	314.96
490.81	317.61
491.17	320.14
491.54	323.03
491.90	326.07
492.26	329.30
492.63	332.66
492.99	335.97
493.36	339.46
493.72	343.32
494.08	347.41
494.45	351.61
494.81	356.02
495.17	360.62
495.54	365.55
495.90	370.59
496.26	375.78
496.63	381.24
496.99	386.90
497.35	392.71
497.72	398.95
498.08	405.43
498.44	412.17
498.80	419.32
499.17	426.72
499.53	434.33
499.89	442.25
500.26	450.41
500.62	458.79
500.98	467.61
501.34	476.74
501.71	486.06
502.07	495.81
502.43	505.88
502.79	515.98
503.16	526.52
503.52	537.35
503.88	548.56
504.24	560.03
504.60	571.89
504.97	584.21
505.33	596.75
505.69	609.98
506.05	623.26
506.41	636.75
506.78	650.58
507.14	664.66
507.50	679.18
507.86	694.07
508.22	709.38
508.59	724.73
508.95	740.63
509.31	756.80
509.67	773.16
510.03	789.76
510.39	807.15
510.75	825.01
511.12	843.12
511.48	861.31
511.84	879.88
512.20	898.32
512.56	917.44
512.92	936.71
513.28	955.90
513.64	975.54
514.00	995.29
514.37	1015.32
514.73	1035.76
515.09	1056.43
515.45	1077.08
515.81	1097.94
516.17	1119.30
516.53	1140.25
516.89	1161.74
517.25	1183.08
517.61	1204.75
517.97	1225.79
518.33	1246.85
518.69	1268.33
519.05	1290.31
519.41	1312.35
519.77	1334.76
520.13	1356.75
520.49	1378.76
520.85	1401.25
521.21	1423.60
521.57	1446.43
521.93	1468.16
522.29	1490.99
522.65	1513.03
523.01	1535.08
523.37	1557.14
523.73	1579.27
524.09	1601.39
524.45	1623.45
524.81	1645.98
525.17	1668.13
525.53	1690.65
525.89	1712.72
526.25	1734.41
526.61	1755.21
526.97	1776.62
527.33	1797.87
527.68	1818.93
528.04	1839.99
528.40	1859.89
528.76	1880.39
529.12	1900.79
529.48	1922.32
529.84	1942.44
530.20	1962.66
530.56	1982.66
530.91	2002.93
531.27	2022.94
531.63	2042.63
531.99	2062.07
532.35	2080.61
532.71	2099.02
533.07	2118.38
533.42	2136.81
533.78	2155.47
534.14	2173.71
534.50	2190.51
534.86	2208.27
535.21	2224.94
535.57	2242.09
535.93	2259.25
536.29	2275.65
536.65	2291.61
537.00	2306.95
537.36	2321.74
537.72	2336.95
538.08	2352.14
538.44	2367.32
538.79	2382.45
539.15	2397.13
539.51	2411.45
539.87	2426.28
540.22	2440.94
540.58	2455.25
540.94	2469.17
541.29	2481.73
541.65	2494.02
542.01	2507.06
542.37	2518.34
542.72	2530.35
543.08	2541.29
543.44	2553.06
543.79	2563.14
544.15	2573.25
544.51	2583.68
544.87	2594.58
545.22	2603.26
545.58	2611.40
545.94	2618.00
546.29	2623.99
546.65	2629.88
547.01	2635.35
547.36	2640.87
547.72	2645.98
548.07	2649.73
548.43	2653.23
548.79	2656.81
549.14	2660.95
549.50	2665.00
549.86	2668.80
550.21	2672.78
550.57	2676.45
550.92	2678.93
551.28	2681.54
551.64	2683.66
551.99	2685.74
552.35	2686.63
552.70	2688.95
553.06	2691.50
553.41	2694.40
553.77	2697.02
554.13	2699.04
554.48	2701.17
554.84	2702.52
555.19	2702.94
555.55	2703.37
555.90	2703.83
556.26	2704.16
556.61	2704.11
556.97	2702.81
557.32	2701.93
557.68	2699.75
558.03	2698.18
558.39	2696.67
558.74	2696.00
559.10	2694.87
559.45	2692.84
559.81	2692.03
560.16	2689.69
560.52	2687.38
560.87	2684.45
561.23	2680.64
561.58	2678.47
561.94	2675.07
562.29	2671.20
562.64	2668.80
563.00	2666.16
563.35	2664.29
563.71	2662.55
564.06	2660.29
564.42	2658.20
564.77	2655.88
565.12	2654.19
565.48	2650.90
565.83	2647.55
566.19	2644.17
566.54	2640.36
566.89	2636.40
567.25	2632.24
567.60	2628.98
567.96	2625.28
568.31	2621.84
568.66	2618.14
569.02	2613.65
569.37	2608.86
569.72	2605.30
570.08	2599.84
570.43	2594.25
570.78	2588.07
571.14	2581.69
571.49	2574.85
571.84	2569.13
572.20	2562.68
572.55	2556.11
572.90	2549.45
573.26	2542.25
573.61	2535.43
573.96	2528.35
574.31	2520.85
574.67	2512.95
575.02	2504.17
575.37	2495.40
575.72	2486.36
576.08	2478.90
576.43	2470.18
576.78	2462.40
577.13	2454.26
577.49	2446.58
577.84	2438.92
578.19	2431.41
578.54	2424.33
578.90	2417.64
579.25	2409.07
579.60	2399.89
579.95	2390.91
580.30	2383.06
580.66	2375.28
581.01	2366.20
581.36	2357.16
581.71	2349.00
582.06	2340.66
582.42	2332.62
582.77	2323.75
583.12	2314.80
583.47	2306.25
583.82	2297.86
584.17	2288.98
584.53	2280.10
584.88	2271.37
585.23	2262.50
585.58	2253.29
585.93	2243.47
586.28	2234.36
586.63	2225.45
586.98	2217.17
587.34	2208.51
587.69	2199.42
588.04	2190.52
588.39	2182.48
588.74	2173.96
589.09	2165.28
589.44	2156.00
589.79	2147.52
590.14	2139.82
590.49	2131.79
590.84	2122.62
591.19	2114.54
591.54	2105.93
591.89	2095.86
592.25	2086.57
592.60	2077.20
592.95	2067.90
593.30	2058.66
593.65	2048.79
594.00	2039.13
594.35	2031.06
594.70	2022.21
595.05	2013.62
595.40	2004.84
595.75	1995.30
596.10	1987.32
596.45	1978.85
596.80	1971.29
597.15	1963.13
597.50	1953.97
597.85	1945.58
598.19	1937.11
598.54	1928.75
598.89	1921.09
599.24	1914.51
599.59	1907.28
599.94	1900.46
600.29	1893.01
600.64	1884.99
600.99	1876.89
601.34	1869.95
601.69	1861.34
602.04	1853.25
602.39	1845.27
602.74	1837.67
603.08	1831.08
603.43	1823.73
603.78	1815.82
604.13	1807.80
604.48	1800.07
604.83	1793.38
605.18	1786.66
605.53	1779.46
605.87	1771.85
606.22	1764.54
606.57	1756.82
606.92	1748.80
607.27	1740.77
607.62	1733.65
607.96	1727.33
608.31	1721.56
608.66	1714.06
609.01	1706.90
609.36	1699.40
609.70	1691.58
610.05	1684.09
610.40	1676.03
610.75	1667.51
611.10	1660.22
611.44	1651.33
611.79	1642.52
612.14	1633.53
612.49	1624.15
612.83	1615.48
613.18	1606.02
613.53	1596.74
613.88	1587.20
614.22	1578.54
614.57	1569.19
614.92	1559.66
615.27	1550.32
615.61	1540.38
615.96	1531.25
616.31	1522.66
616.65	1514.92
617.00	1506.91
617.35	1498.06
617.70	1489.25
618.04	1480.60
618.39	1471.12
618.74	1463.12
619.08	1454.85
619.43	1446.53
619.78	1438.79
620.12	1430.78
620.47	1423.18
620.82	1414.70
621.16	1406.55
621.51	1398.15
621.85	1390.17
622.20	1381.99
622.55	1373.75
622.89	1365.81
623.24	1358.08
623.59	1349.56
623.93	1340.66
624.28	1332.39
624.62	1324.46
624.97	1316.42
625.32	1308.58
625.66	1301.68
626.01	1294.12
626.35	1286.70
626.70	1279.26
627.04	1271.84
627.39	1264.41
627.73	1257.04
628.08	1250.60
628.43	1243.18
628.77	1236.06
629.12	1228.84
629.46	1222.29
629.81	1215.16
630.15	1207.91
630.50	1200.72
630.84	1193.67
631.19	1186.91
631.53	1179.83
631.88	1172.48
632.22	1164.92
632.57	1158.11
632.91	1150.58
633.26	1143.16
633.60	1136.19
633.95	1129.68
634.29	1122.43
634.64	1115.81
634.98	1108.86
635.32	1101.72
635.67	1095.79
636.01	1089.16
636.36	1082.48
636.70	1075.73
637.05	1069.19
637.39	1062.94
637.73	1056.79
638.08	1051.06
638.42	1045.20
638.77	1039.04
639.11	1032.73
639.45	1026.85
639.80	1020.31
640.14	1014.00
640.49	1008.09
640.83	1001.97
641.17	995.65
641.52	989.58
641.86	983.12
642.20	976.94
642.55	970.23
642.89	963.52
643.23	957.25
643.58	951.32
643.92	945.05
644.26	939.06
644.61	933.19
644.95	926.85
645.29	920.47
645.64	914.25
645.98	908.30
646.32	902.60
646.66	896.63
647.01	890.88
647.35	885.12
647.69	878.99
648.04	873.13
648.38	867.09
648.72	861.10
649.06	855.15
649.41	849.31
649.75	843.73
650.09	838.04
650.43	832.30
650.78	826.26
651.12	820.27
651.46	814.15
651.80	808.19
652.14	802.47
652.49	796.80
652.83	791.07
653.17	784.88
653.51	779.13
653.85	773.55
654.20	767.72
654.54	761.95
654.88	756.50
655.22	750.61
655.56	744.74
655.90	739.11
656.25	733.68
656.59	728.17
656.93	722.97
657.27	717.93
657.61	712.41
657.95	707.44
658.29	702.56
658.64	697.74
658.98	692.49
659.32	687.21
659.66	682.15
660.00	676.83
660.34	671.74
660.68	666.70
661.02	661.69
661.36	657.07
661.70	652.40
662.05	647.67
662.39	643.32
662.73	639.03
663.07	634.77
663.41	630.37
663.75	625.93
664.09	621.26
664.43	616.43
664.77	612.15
665.11	607.56
665.45	603.12
665.79	598.71
666.13	594.47
666.47	590.42
666.81	586.19
667.15	582.16
667.49	578.48
667.83	574.64
668.17	570.85
668.51	567.07
668.85	563.37
669.19	559.74
669.53	555.93
669.87	552.07
670.21	548.29
670.55	544.33
670.89	540.89
671.23	537.72
671.57	534.51
671.91	530.90
672.25	527.46
672.58	524.09
672.92	520.83
673.26	517.71
673.60	514.44
673.94	511.04
674.28	507.79
674.62	504.70
674.96	501.52
675.30	498.40
675.64	495.19
675.97	491.99
676.31	489.00
676.65	486.10
676.99	483.43
677.33	480.53
677.67	477.73
678.01	474.62
678.34	471.54
678.68	468.60
679.02	465.90
679.36	463.30
679.70	460.55
680.04	457.64
680.37	454.59
680.71	451.88
681.05	449.34
681.39	446.77
681.73	444.07
682.06	441.61
682.40	439.09
682.74	436.60
683.08	434.22
683.42	431.45
683.75	428.87
684.09	426.32
684.43	423.83
684.77	421.41
685.10	419.05
685.44	416.67
685.78	414.15
686.12	411.88
686.45	409.52
686.79	407.19
687.13	405.20
687.46	403.19
687.80	400.95
688.14	398.70
688.48	396.55
688.81	394.33
689.15	392.06
689.49	389.83
689.82	387.67
690.16	385.28
690.50	383.25
690.83	381.05
691.17	378.91
691.51	376.84
691.84	374.68
692.18	372.65
692.52	370.70
692.85	368.90
693.19	366.99
693.52	365.07
693.86	363.21
694.20	361.25
694.53	359.38
694.87	357.53
695.21	355.61
695.54	353.67
695.88	351.81
696.21	349.92
696.55	348.27
696.88	346.51
697.22	344.95
697.56	343.30
697.89	341.82
698.23	340.13
698.56	338.55
698.90	337.06
699.23	335.51
699.57	333.93
699.90	332.31
700.24	330.71
700.58	329.15
700.91	327.58
701.25	326.22
701.58	324.81
701.92	323.37
702.25	322.01
702.59	320.68
702.92	319.43
703.26	318.12
703.59	316.87
703.93	315.66
704.26	314.42
704.60	313.21
704.93	311.92
705.26	310.71
705.60	309.51
705.93	308.26
706.27	307.14
706.60	306.08
706.94	305.04
707.27	303.85
707.61	302.68
707.94	301.58
708.27	300.26
708.61	299.08
708.94	298.02
709.28	296.90
709.61	295.80
709.94	294.72
710.28	293.75
710.61	292.65
710.95	291.56
711.28	290.62
711.61	289.58
711.95	288.63
712.28	287.66
712.61	286.72
712.95	285.85
713.28	284.91
713.61	283.85
713.95	282.86
714.28	281.99
714.61	281.06
714.95	280.20
715.28	279.36
715.61	278.45
715.95	277.59
716.28	276.76
716.61	275.91
716.95	275.12
717.28	274.29
717.61	273.45
717.94	272.75
718.28	271.89
718.61	271.15
718.94	270.26
719.27	269.51
719.61	268.75
719.94	267.95
720.27	267.16
720.60	266.55
720.94	265.81
721.27	265.12
721.60	264.55
721.93	263.90
722.27	263.33
722.60	262.78
722.93	262.15
723.26	261.57
723.59	260.96
723.93	260.32
724.26	259.72
724.59	259.17
724.92	258.56
725.25	258.05
725.59	257.43
725.92	256.96
726.25	256.40
726.58	255.85
726.91	255.37
727.24	254.90
727.57	254.37
727.91	253.94
728.24	253.51
728.57	253.02
728.90	252.60
729.23	252.14
729.56	251.75
729.89	251.27
730.22	250.83
730.55	250.45
730.89	250.02
731.22	249.61
731.55	249.13
731.88	248.71
732.21	248.19
732.54	247.75
732.87	247.28
733.20	246.92
733.53	246.51
733.86	246.11
734.19	245.64
734.52	245.25
734.85	244.95
735.18	244.51
735.51	244.18
735.84	243.80
736.17	243.34
736.50	242.86
736.83	242.70
737.16	242.31
737.49	241.87
737.82	241.53
738.15	241.17
738.48	240.85
738.81	240.44
739.14	240.08
739.47	239.75
739.80	239.43
740.13	239.11
740.46	238.76
740.79	238.41
741.12	238.13
741.45	237.75
741.78	237.29
742.11	237.04
742.44	236.61
742.77	236.35
743.10	236.05
743.43	235.80
743.75	235.38
744.08	235.31
744.41	235.06
744.74	234.77
745.07	234.50
745.40	234.25
745.73	234.10
746.06	233.85
746.39	233.58
746.71	233.34
747.04	233.00
747.37	232.75
747.70	232.50
748.03	232.23
748.36	232.07
748.68	231.88
749.01	231.60
749.34	231.44
749.67	231.19
750.00	230.98
750.33	230.85
750.65	230.58
750.98	230.09
751.31	229.83
751.64	229.56
751.97	229.40
752.29	229.17
752.62	228.84
752.95	228.61
753.28	228.45
753.60	228.21
753.93	228.04
754.26	227.80
754.59	227.55
754.91	227.37
755.24	227.14
755.57	226.93
755.90	226.73
756.22	226.54
756.55	226.24
756.88	226.07
757.20	225.80
757.53	225.53
757.86	225.35
758.19	225.23
758.51	225.09
758.84	224.82
759.17	224.71
759.49	224.61
759.82	224.54
760.15	224.41
760.47	224.23
760.80	224.05
761.13	223.92
761.45	223.76
761.78	223.66
762.11	223.50
762.43	223.36
762.76	223.25
763.08	223.08
763.41	223.03
763.74	222.84
764.06	222.66
764.39	222.59
764.71	222.51
765.04	222.39
765.37	222.20
765.69	222.06
766.02	221.85
766.34	221.65
766.67	221.53
767.00	221.40
767.32	221.40
767.65	221.36
767.97	221.30
768.30	221.24
768.62	221.08
768.95	220.87
769.27	220.77
769.60	220.64
769.92	220.57
770.25	220.39
770.57	220.28
770.90	220.21
771.22	220.06
771.55	219.92
771.87	219.81
772.20	219.73
772.52	219.79
772.85	219.86
773.17	219.76
773.50	219.61
773.82	219.48
774.15	219.30
774.47	219.11
774.80	218.95
775.12	218.81
775.45	218.71
775.77	218.65
776.09	218.62
776.42	218.54
776.74	218.41
777.07	218.33
777.39	218.20
777.72	218.09
778.04	218.03
778.36	217.95
778.69	217.90
779.01	217.87
779.33	217.61
779.66	217.37
779.98	217.32
780.31	217.20
780.63	217.22
780.95	217.20
781.28	217.17
781.60	217.00
781.92	216.93
782.25	216.87
782.57	216.85
782.89	216.74
783.22	216.65
783.54	216.60
783.86	216.59
784.19	216.53
784.51	216.49
784.83	216.40
785.16	216.29
785.48	216.26
785.80	216.15
786.12	216.11
786.45	216.10
786.77	216.04
787.09	216.07
787.42	215.91
787.74	215.81
788.06	215.72
788.38	215.70
788.71	215.72
789.03	215.71
789.35	215.73
789.67	215.61
789.99	215.61
790.32	215.54
790.64	215.48
790.96	215.64
791.28	215.57
791.61	215.53
791.93	215.55
792.25	215.46
792.57	215.60
792.89	215.55
793.21	215.54
793.54	215.50
793.86	215.37
794.18	215.32
794.50	215.27
794.82	215.27
795.14	215.33
795.47	215.27
795.79	215.17
796.11	215.08
796.43	215.10
796.75	215.00
797.07	214.98
797.39	214.95
797.71	214.75
798.04	214.70
798.36	214.65
798.68	214.59
799.00	214.53
799.32	214.34
799.64	214.38
799.96	214.30
800.28	214.34
800.60	214.34
800.92	214.34
801.24	214.28
801.56	214.26
801.89	214.18
802.21	214.15
802.53	214.15
802.85	214.18
803.17	214.19
803.49	214.11
803.81	214.02
804.13	213.96
804.45	213.94
804.77	213.96
805.09	213.96
805.41	213.94
805.73	213.92
806.05	213.86
806.37	213.80
806.69	213.79
807.01	213.71
807.33	213.73
807.65	213.71
807.97	213.85
808.28	213.78
808.60	213.77
808.92	213.74
809.24	213.81
809.56	213.73
809.88	213.70
810.20	213.73
810.52	213.76
810.84	213.77
811.16	213.74
811.48	213.66
811.80	213.69
812.12	213.68
812.43	213.70
812.75	213.69
813.07	213.63
813.39	213.58
813.71	213.55
814.03	213.44
814.35	213.35
814.67	213.25
814.98	213.26
815.30	213.21
815.62	213.17
815.94	212.98
816.26	212.99
816.58	212.89
816.89	212.90
817.21	212.89
817.53	212.83
817.85	212.81
818.17	212.78
818.48	212.70
818.80	212.74
819.12	212.67
819.44	212.69
819.76	212.69
820.07	212.65
820.39	212.62
820.71	212.61
821.03	212.58
821.34	212.51
821.66	212.46
821.98	212.50
822.30	212.51
822.61	212.65
822.93	212.55
823.25	212.50
823.57	212.45
823.88	212.45
824.20	212.41
824.52	212.41
824.83	212.44
825.15	212.48
825.47	212.41
825.79	212.43
826.10	212.32
826.42	212.25
826.74	212.30
827.05	212.27
827.37	212.32
827.69	212.35
828.00	212.28
828.32	212.25
828.64	212.20
828.95	212.21
829.27	212.12
829.58	212.16
829.90	212.23
830.22	212.18
830.53	212.11
830.85	212.14
831.17	212.10
831.48	212.06
831.80	212.01
832.11	212.05
832.43	211.97
832.75	211.98
833.06	212.11
833.38	211.99
833.69	211.96
834.01	211.93
834.32	211.94
834.64	211.94
834.96	211.98
835.27	212.00
835.59	211.94
835.90	211.88
836.22	211.90
836.53	211.77
836.85	211.75
837.16	211.90
837.48	211.90
837.79	212.00
838.11	212.05
838.42	212.01
838.74	212.02
839.05	212.09
839.37	212.19
839.68	212.08
840.00	212.13
840.31	212.18
840.63	212.15
840.94	212.12
841.26	212.19
841.57	212.14
841.88	212.13
842.20	212.12
842.51	212.17
842.83	212.11
843.14	212.40
843.46	212.45
843.77	212.38
844.08	212.30
844.40	212.20
844.71	212.15
845.03	212.10
845.34	212.06
845.65	212.03
845.97	211.95
846.28	212.00
846.60	211.99
846.91	212.00
847.22	212.04
847.54	212.05
847.85	211.98
848.16	212.06
848.48	212.01
848.79	212.06
849.10	212.01
849.42	212.11
849.73	211.89
850.04	211.88
850.36	211.80
850.67	211.93
850.98	211.99
851.30	212.01
851.61	212.07
851.92	212.02
852.23	212.01
852.55	211.96
852.86	211.92
853.17	211.99
853.49	211.99
853.80	212.00
854.11	212.08
854.42	212.10
854.74	212.02
855.05	212.09
855.36	211.94
855.67	211.92
855.99	211.87
856.30	212.11
856.61	212.09
856.92	212.15
857.23	212.13
857.55	212.09
857.86	212.08
858.17	212.09
858.48	212.05
858.79	212.08
859.11	212.18
859.42	212.18
859.73	212.14
860.04	212.15
860.35	212.09
860.66	212.02
860.98	212.04
861.29	212.06
861.60	212.09
861.91	212.23
862.22	212.23
862.53	212.16
862.84	211.95
863.16	212.00
863.47	211.88
863.78	211.85
864.09	211.83
864.40	211.85
864.71	211.87
865.02	211.93
865.33	211.90
865.64	211.85
865.95	211.82
866.27	211.95
866.58	211.93
866.89	211.94
867.20	211.91
867.51	211.87
867.82	211.86
868.13	211.87
868.44	211.81
868.75	211.82
869.06	211.89
869.37	211.87
869.68	211.85
869.99	211.87
870.30	211.92
870.61	211.95
870.92	211.91
871.23	211.87
871.54	211.87
871.85	211.97
872.16	211.96
872.47	211.96
872.78	211.79
873.09	211.77
873.40	211.80
873.71	211.84
874.02	211.88
874.33	211.82
874.64	211.77
874.95	211.83
875.26	211.84
875.56	211.83
875.87	211.79
876.18	211.76
876.49	211.95
876.80	211.89
877.11	211.92
877.42	211.95
877.73	211.98
878.04	211.97
878.35	211.86
878.66	211.87
878.96	211.91
879.27	211.90
879.58	211.89
879.89	211.85
880.20	211.85
880.51	211.78
880.82	211.79
881.12	211.80
881.43	211.73
881.74	211.73
882.05	211.64
882.36	211.65
882.67	211.60
882.97	211.48
883.28	211.51
883.59	211.48
883.90	211.47
884.21	211.47
884.51	211.50
884.82	211.53
885.13	211.52
885.44	211.46
885.74	211.45
886.05	211.46
886.36	211.48
886.67	211.39
886.98	211.55
887.28	211.59
887.59	211.57
887.90	211.54
888.20	211.56
888.51	211.62
888.82	211.62
889.13	211.71
889.43	211.79
889.74	211.72
890.05	211.65
890.35	211.65
890.66	211.59
890.97	211.47
891.28	211.38
891.58	211.37
891.89	211.43
892.20	211.43
892.50	211.36
892.81	211.38
893.12	211.41
893.42	211.31
893.73	211.29
894.04	211.21
894.34	211.25
894.65	211.19
894.95	211.15
895.26	211.14
895.57	211.15
895.87	211.00
896.18	211.00
896.48	211.00
896.79	211.00
897.10	211.01
897.40	211.07
897.71	211.15
898.01	211.15
898.32	211.10
898.63	211.13
898.93	211.12
899.24	211.05
899.54	211.09
899.85	211.01
900.15	210.99
900.46	211.06
900.76	211.01
901.07	211.00
901.38	211.03
901.68	211.10
901.99	211.06
902.29	211.06
902.60	211.06
902.90	211.10
903.21	211.05
903.51	211.01
903.82	211.02
904.12	210.99
904.43	211.00
904.73	210.93
905.03	210.83
905.34	211.01
905.64	211.01
905.95	210.92
906.25	210.92
906.56	210.89
906.86	210.86
907.17	210.92
907.47	210.94
907.77	210.90
908.08	210.83
908.38	210.76
908.69	210.76
908.99	210.76
909.30	210.79
909.60	210.85
909.90	210.87
910.21	210.88
910.51	210.85
910.81	210.91
911.12	210.88
911.42	210.98
911.73	210.75
912.03	210.81
912.33	210.85
912.64	210.85
912.94	210.92
913.24	210.85
913.55	210.79
913.85	210.83
914.15	210.87
914.46	210.93
914.76	210.93
915.06	210.91
915.37	210.90
915.67	210.84
915.97	210.81
916.27	210.83
916.58	210.81
916.88	210.79
917.18	210.76
917.49	210.96
917.79	210.99
918.09	211.07
918.39	211.11
918.70	211.12
919.00	211.19
919.30	211.21
919.60	211.18
919.91	211.20
920.21	211.15
920.51	211.12
920.81	211.04
921.12	211.08
921.42	211.10
921.72	211.14
922.02	211.13
922.32	211.17
922.63	211.13
922.93	211.18
923.23	211.22
923.53	211.21
923.83	211.14
924.13	211.14
924.44	211.23
924.74	211.24
925.04	211.30
925.34	211.28
925.64	211.28
925.94	211.39
926.24	211.51
926.55	211.50
926.85	211.51
927.15	211.53
927.45	211.56
927.75	211.58
928.05	211.53
928.35	211.50
928.65	211.50
928.95	211.56
929.26	211.48
929.56	211.49
929.86	211.48
930.16	211.40
930.46	211.34
930.76	211.29
931.06	211.21
931.36	211.12
931.66	211.11
931.96	211.11
932.26	211.05
932.56	210.94
932.86	210.96
933.16	211.01
933.46	210.98
933.76	210.97
934.06	211.09
934.36	211.18
934.66	211.20
934.96	211.18
935.26	211.16
935.56	211.20
935.86	211.20
936.16	211.20
936.46	211.16
936.76	211.18
937.06	211.13
937.36	211.10
937.66	211.10
937.96	211.09
938.26	211.09
938.56	211.09
938.86	211.05
939.16	211.05
939.46	210.99
939.76	210.99
940.06	210.94
940.35	210.77
940.65	210.68
940.95	210.65
941.25	210.59
941.55	210.57
941.85	210.51
942.15	210.48
942.45	210.48
942.75	210.49
943.04	210.49
943.34	210.52
943.64	210.55
943.94	210.56
944.24	210.56
944.54	210.42
944.84	210.42
945.13	210.41
945.43	210.44
945.73	210.42
946.03	210.38
946.33	210.31
946.62	210.33
946.92	210.32
947.22	210.35
947.52	210.41
947.82	210.41
948.11	210.44
948.41	210.43
948.71	210.39
949.01	210.45
949.31	210.44
949.60	210.39
949.90	210.37
950.20	210.35
950.50	210.32
950.79	210.38
951.09	210.38
951.39	210.42
951.69	210.39
951.98	210.48
952.28	210.55
952.58	210.67
952.87	210.66
953.17	210.67
953.47	210.70
953.76	210.73
954.06	210.75
954.36	210.73
954.66	210.76
954.95	210.88
955.25	210.95
955.55	210.94
955.84	210.99
956.14	211.04
956.44	211.10
956.73	211.03
957.03	211.04
957.32	211.08
957.62	211.05
957.92	211.01
958.21	210.94
958.51	211.14
958.81	211.07
959.10	211.12
959.40	211.19
959.69	211.18
959.99	211.17
960.29	211.13
960.58	211.11
960.88	211.15
961.17	211.07
961.47	211.06
961.76	211.00
962.06	210.97
962.36	210.90
962.65	210.92
962.95	211.03
963.24	211.01
963.54	211.03
963.83	211.07
964.13	211.13
964.42	211.12
964.72	210.95
965.01	210.97
965.31	211.00
965.60	210.93
965.90	211.03
966.19	210.96
966.49	210.97
966.78	211.00
967.08	210.92
967.37	210.85
967.67	210.72
967.96	210.84
968.26	210.93
968.55	210.95
968.85	210.94
969.14	210.92
969.43	210.96
969.73	211.00
970.02	210.94
970.32	210.96
970.61	210.91
970.91	210.88
971.20	210.88
971.49	210.79
971.79	210.85
972.08	210.71
972.38	210.71
972.67	210.70
972.96	210.72
973.26	210.72
973.55	210.78
973.85	210.90
974.14	210.85
974.43	210.75
974.73	210.78
975.02	210.65
975.31	210.64
975.61	210.61
975.90	210.52
976.19	210.59
976.49	210.49
976.78	210.50
977.07	210.49
977.37	210.50
977.66	210.49
977.95	210.41
978.24	210.45
978.54	210.51
978.83	210.50
979.12	210.50
979.42	210.47
979.71	210.46
980.00	210.36
980.29	210.38
980.59	210.30
980.88	210.33
981.17	210.40
981.46	210.36
981.76	210.35
982.05	210.42
982.34	210.30
982.63	210.32
982.93	210.37
983.22	210.35
983.51	210.35
983.80	210.41
984.09	210.45
984.39	210.43
984.68	210.42
984.97	210.40
985.26	210.37
985.55	210.44
985.85	210.44
986.14	210.52
986.43	210.50
986.72	210.54
987.01	210.48
987.30	210.44
987.59	210.53
987.89	210.52
988.18	210.47
988.47	210.52
988.76	210.57
989.05	210.45
989.34	210.51
989.63	210.49
989.92	210.48
990.22	210.39
990.51	210.41
990.80	210.39
991.09	210.40
991.38	210.44
991.67	210.39
991.96	210.40
992.25	210.30
992.54	210.29
992.83	210.31
993.12	210.33
993.41	210.34
993.70	210.38
993.99	210.42
994.28	210.40
994.58	210.45
994.87	210.45
995.16	210.54
995.45	210.49
995.74	210.46
996.03	210.49
996.32	210.56
996.61	210.57
996.90	210.58
997.19	210.62
997.48	210.56
997.77	210.55
998.06	210.59
998.34	210.66
998.63	210.65
998.92	210.68
999.21	210.72
999.50	210.81
999.79	210.73
1000.08	210.80
1000.37	210.88
1000.66	210.89
1000.95	210.89
1001.24	210.89
1001.53	210.92
1001.82	210.91
1002.11	210.85
1002.40	210.86
1002.68	210.90
1002.97	210.98
1003.26	210.94
1003.55	210.93
1003.84	210.94
1004.13	211.03
1004.42	211.02
1004.71	211.06
1004.99	211.02
1005.28	211.01
1005.57	210.99
1005.86	210.96
1006.15	210.94
1006.44	210.93
1006.72	210.96
1007.01	210.91
1007.30	210.93
1007.59	210.94
1007.88	210.96
1008.17	211.01
1008.45	210.99
1008.74	210.96
1009.03	210.86
1009.32	210.92
1009.60	211.00
1009.89	210.97
1010.18	210.87
1010.47	210.88
1010.76	210.89
1011.04	210.85
1011.33	210.85
1011.62	210.85
1011.91	210.88
1012.19	210.85
1012.48	210.80
1012.77	210.75
1013.05	210.88
1013.34	210.83
1013.63	210.79
1013.92	210.80
1014.20	210.78
1014.49	210.81
1014.78	210.77
1015.06	210.71
1015.35	210.65
1015.64	210.60
1015.92	210.57
1016.21	210.55
1016.50	210.55
1016.78	210.59
1017.07	210.69
1017.36	210.65
1017.64	210.56
1017.93	210.50
1018.22	210.50
1018.50	210.53
1018.79	210.49
1019.08	210.38
1019.36	210.40
1019.65	210.39
1019.93	210.45
1020.22	210.52
1020.51	210.57
1020.79	210.60
1021.08	210.85
1021.36	211.10
1021.65	209.70
1021.94	210.40
1022.22	210.20
1022.51	210.05
1022.79	211.50
1023.08	212.00
1023.36	212.00
1023.65	210.95
>>>>>End Processed Spectral Data<<<<<
