SpectraSuite Data File
++++++++++++++++++++++++++++++++++++
Date: Mon Feb 25 17:31:00 EST 2013
User: group
Dark Spectrum Present: No
Reference Spectrum Present: No
Number of Sampled Component Spectra: 1
Spectrometers: USB2E7196
Integration Time (usec): 52000 (USB2E7196)
Spectra Averaged: 20 (USB2E7196)
Boxcar Smoothing: 10 (USB2E7196)
Correct for Electrical Dark: No (USB2E7196)
Strobe/Lamp Enabled: No (USB2E7196)
Correct for Detector Non-linearity: No (USB2E7196)
Correct for Stray Light: No (USB2E7196)
Number of Pixels in Processed Spectrum: 2048
>>>>>Begin Processed Spectral Data<<<<<
339.09	0.00
339.48	200.05
339.86	200.60
340.24	201.90
340.63	203.95
341.01	207.60
341.39	206.75
341.78	207.35
342.16	209.45
342.54	209.00
342.93	198.90
343.31	208.95
343.69	209.48
344.07	209.99
344.46	210.51
344.84	210.95
345.22	211.20
345.60	211.44
345.99	211.72
346.37	211.84
346.75	211.99
347.13	212.06
347.52	212.07
347.90	212.13
348.28	212.19
348.66	212.30
349.05	212.23
349.43	212.31
349.81	212.41
350.19	212.41
350.57	212.47
350.96	212.56
351.34	212.65
351.72	212.71
352.10	212.74
352.48	212.74
352.87	212.76
353.25	212.75
353.63	212.76
354.01	212.76
354.39	212.80
354.77	212.90
355.15	212.98
355.54	213.05
355.92	213.14
356.30	213.13
356.68	213.19
357.06	213.25
357.44	213.24
357.82	213.32
358.20	213.45
358.58	213.53
358.97	213.61
359.35	213.71
359.73	213.82
360.11	213.85
360.49	213.86
360.87	213.91
361.25	213.97
361.63	214.04
362.01	214.01
362.39	214.00
362.77	213.89
363.15	213.87
363.53	213.93
363.91	213.86
364.29	213.90
364.67	213.71
365.05	213.76
365.43	213.75
365.81	213.68
366.19	213.69
366.57	213.68
366.95	213.65
367.33	213.51
367.71	213.41
368.09	213.46
368.47	213.45
368.85	213.41
369.23	213.44
369.61	213.43
369.99	213.51
370.37	213.59
370.75	213.75
371.13	213.64
371.51	213.51
371.89	213.50
372.27	213.47
372.65	213.46
373.03	213.33
373.41	213.32
373.78	213.35
374.16	213.16
374.54	213.11
374.92	213.02
375.30	212.97
375.68	212.89
376.06	212.90
376.44	212.89
376.82	212.85
377.19	212.77
377.57	212.69
377.95	212.60
378.33	212.51
378.71	212.26
379.09	212.24
379.47	212.19
379.84	212.18
380.22	212.06
380.60	212.05
380.98	211.95
381.36	211.85
381.73	211.72
382.11	211.73
382.49	211.67
382.87	211.63
383.25	211.63
383.62	211.81
384.00	211.72
384.38	211.72
384.76	211.69
385.13	211.74
385.51	211.74
385.89	211.62
386.27	211.62
386.64	211.71
387.02	211.77
387.40	211.79
387.78	211.70
388.15	211.70
388.53	211.61
388.91	211.73
389.29	211.70
389.66	211.73
390.04	211.68
390.42	211.67
390.79	211.66
391.17	211.69
391.55	211.49
391.92	211.43
392.30	211.46
392.68	211.46
393.05	211.44
393.43	211.40
393.81	211.46
394.18	211.37
394.56	211.37
394.94	211.35
395.31	211.38
395.69	211.48
396.06	211.55
396.44	211.61
396.82	211.56
397.19	211.68
397.57	211.65
397.95	211.70
398.32	211.70
398.70	211.74
399.07	211.76
399.45	211.78
399.82	211.80
400.20	211.69
400.58	211.67
400.95	211.62
401.33	211.71
401.70	211.90
402.08	211.94
402.45	211.99
402.83	212.06
403.20	212.12
403.58	212.25
403.95	212.30
404.33	212.40
404.71	212.55
405.08	212.70
405.46	212.77
405.83	212.92
406.21	213.05
406.58	213.22
406.96	213.41
407.33	213.60
407.70	213.78
408.08	214.16
408.45	214.42
408.83	214.67
409.20	214.86
409.58	214.96
409.95	215.29
410.33	215.63
410.70	215.91
411.08	216.18
411.45	216.42
411.82	216.76
412.20	217.20
412.57	217.72
412.95	218.03
413.32	218.61
413.69	219.20
414.07	219.73
414.44	220.27
414.82	220.84
415.19	221.60
415.56	222.36
415.94	223.03
416.31	223.96
416.68	224.84
417.06	225.88
417.43	226.86
417.81	227.90
418.18	229.03
418.55	230.17
418.93	231.41
419.30	232.76
419.67	234.16
420.04	235.56
420.42	237.00
420.79	238.73
421.16	240.36
421.54	242.06
421.91	244.01
422.28	245.87
422.66	247.95
423.03	249.95
423.40	252.01
423.77	254.23
424.15	256.34
424.52	258.71
424.89	261.17
425.26	263.60
425.64	265.83
426.01	268.30
426.38	270.97
426.75	273.75
427.13	276.52
427.50	279.41
427.87	282.38
428.24	285.34
428.61	288.19
428.99	291.38
429.36	294.76
429.73	298.06
430.10	301.54
430.47	304.98
430.85	308.48
431.22	312.31
431.59	316.39
431.96	320.24
432.33	324.51
432.70	328.65
433.08	333.48
433.45	338.11
433.82	342.65
434.19	347.72
434.56	352.65
434.93	357.27
435.30	361.93
435.68	367.18
436.05	372.34
436.42	377.37
436.79	381.98
437.16	386.98
437.53	392.20
437.90	397.40
438.27	402.43
438.64	407.68
439.01	412.65
439.38	416.85
439.75	421.11
440.13	425.76
440.50	430.10
440.87	433.76
441.24	437.54
441.61	441.69
441.98	444.68
442.35	448.22
442.72	451.69
443.09	455.25
443.46	457.22
443.83	458.64
444.20	459.86
444.57	461.69
444.94	462.45
445.31	463.20
445.68	463.87
446.05	464.03
446.42	463.48
446.79	462.60
447.16	461.75
447.53	461.03
447.90	458.94
448.27	456.98
448.64	454.09
449.01	452.03
449.37	448.40
449.74	444.94
450.11	440.87
450.48	436.56
450.85	431.98
451.22	428.13
451.59	424.32
451.96	420.93
452.33	416.20
452.70	411.93
453.07	406.99
453.43	401.85
453.80	397.07
454.17	392.35
454.54	388.04
454.91	383.40
455.28	378.77
455.65	374.48
456.02	370.30
456.38	366.66
456.75	362.07
457.12	358.32
457.49	354.65
457.86	350.91
458.23	347.80
458.59	344.41
458.96	340.89
459.33	337.84
459.70	334.60
460.07	332.07
460.43	329.39
460.80	326.64
461.17	324.29
461.54	321.94
461.91	319.64
462.27	317.24
462.64	315.25
463.01	313.06
463.38	311.02
463.74	308.83
464.11	307.06
464.48	305.54
464.85	303.77
465.21	302.37
465.58	300.99
465.95	299.30
466.32	297.83
466.68	296.42
467.05	294.99
467.42	293.71
467.78	292.27
468.15	290.91
468.52	290.00
468.88	288.82
469.25	287.59
469.62	286.74
469.98	285.70
470.35	284.79
470.72	283.98
471.08	283.06
471.45	282.24
471.82	281.37
472.18	280.55
472.55	279.98
472.92	279.30
473.28	278.71
473.65	278.06
474.02	277.54
474.38	277.25
474.75	276.98
475.11	276.57
475.48	276.38
475.85	276.05
476.21	275.77
476.58	275.68
476.94	275.72
477.31	275.55
477.67	275.45
478.04	275.46
478.41	275.55
478.77	275.88
479.14	276.06
479.50	276.29
479.87	276.61
480.23	277.03
480.60	277.38
480.96	277.88
481.33	278.66
481.69	279.32
482.06	279.88
482.42	280.54
482.79	281.38
483.15	282.31
483.52	283.40
483.88	284.36
484.25	285.31
484.61	286.36
484.98	287.52
485.34	288.94
485.71	290.28
486.07	291.67
486.44	293.02
486.80	294.58
487.17	296.28
487.53	298.07
487.90	299.85
488.26	301.78
488.62	303.77
488.99	305.81
489.35	307.97
489.72	310.31
490.08	312.71
490.44	315.08
490.81	317.73
491.17	320.40
491.54	323.41
491.90	326.47
492.26	329.77
492.63	333.04
492.99	336.41
493.36	340.11
493.72	343.99
494.08	348.01
494.45	352.38
494.81	356.78
495.17	361.37
495.54	366.33
495.90	371.43
496.26	376.63
496.63	382.09
496.99	387.72
497.35	393.70
497.72	399.94
498.08	406.43
498.44	413.10
498.80	420.19
499.17	427.56
499.53	435.05
499.89	443.01
500.26	451.18
500.62	459.60
500.98	468.35
501.34	477.46
501.71	486.67
502.07	496.20
502.43	506.07
502.79	516.12
503.16	526.63
503.52	537.37
503.88	548.61
504.24	559.99
504.60	571.93
504.97	584.10
505.33	596.51
505.69	609.85
506.05	623.28
506.41	636.75
506.78	650.52
507.14	664.65
507.50	679.05
507.86	693.95
508.22	709.19
508.59	724.66
508.95	740.36
509.31	756.57
509.67	773.12
510.03	789.95
510.39	807.35
510.75	825.03
511.12	842.94
511.48	861.16
511.84	879.63
512.20	898.20
512.56	917.26
512.92	936.40
513.28	955.38
513.64	974.73
514.00	994.39
514.37	1014.43
514.73	1035.03
515.09	1055.65
515.45	1076.24
515.81	1096.97
516.17	1117.84
516.53	1139.13
516.89	1160.43
517.25	1181.70
517.61	1203.02
517.97	1224.21
518.33	1245.06
518.69	1266.68
519.05	1288.40
519.41	1310.26
519.77	1332.40
520.13	1354.15
520.49	1376.25
520.85	1398.71
521.21	1420.95
521.57	1443.68
521.93	1465.37
522.29	1487.63
522.65	1509.61
523.01	1531.57
523.37	1553.75
523.73	1575.98
524.09	1597.81
524.45	1619.97
524.81	1641.88
525.17	1663.93
525.53	1686.08
525.89	1708.68
526.25	1730.38
526.61	1751.18
526.97	1772.77
527.33	1793.52
527.68	1814.61
528.04	1835.16
528.40	1855.19
528.76	1875.59
529.12	1895.96
529.48	1917.08
529.84	1937.13
530.20	1957.19
530.56	1977.22
530.91	1997.43
531.27	2017.34
531.63	2037.06
531.99	2056.26
532.35	2075.30
532.71	2093.92
533.07	2113.11
533.42	2130.98
533.78	2149.65
534.14	2168.26
534.50	2184.70
534.86	2202.41
535.21	2218.76
535.57	2236.02
535.93	2253.07
536.29	2269.65
536.65	2285.61
537.00	2300.67
537.36	2315.50
537.72	2330.39
538.08	2345.37
538.44	2360.15
538.79	2375.14
539.15	2389.25
539.51	2403.21
539.87	2418.24
540.22	2432.24
540.58	2446.65
540.94	2460.40
541.29	2472.49
541.65	2484.10
542.01	2497.04
542.37	2508.53
542.72	2520.60
543.08	2531.14
543.44	2542.55
543.79	2552.25
544.15	2561.95
544.51	2572.73
544.87	2583.27
545.22	2591.98
545.58	2600.39
545.94	2607.20
546.29	2613.38
546.65	2619.49
547.01	2625.54
547.36	2630.46
547.72	2635.76
548.07	2639.16
548.43	2643.00
548.79	2646.72
549.14	2650.79
549.50	2654.94
549.86	2658.41
550.21	2661.89
550.57	2665.63
550.92	2667.76
551.28	2670.65
551.64	2673.09
551.99	2675.20
552.35	2676.58
552.70	2679.19
553.06	2681.49
553.41	2684.15
553.77	2686.78
554.13	2688.92
554.48	2690.55
554.84	2691.80
555.19	2692.17
555.55	2692.49
555.90	2692.94
556.26	2693.25
556.61	2692.82
556.97	2691.37
557.32	2690.85
557.68	2689.16
558.03	2687.72
558.39	2686.07
558.74	2685.18
559.10	2683.90
559.45	2681.71
559.81	2680.78
560.16	2678.14
560.52	2675.54
560.87	2672.58
561.23	2668.51
561.58	2666.07
561.94	2662.83
562.29	2658.98
562.64	2656.46
563.00	2654.07
563.35	2651.65
563.71	2649.67
564.06	2647.62
564.42	2645.86
564.77	2643.40
565.12	2641.69
565.48	2638.60
565.83	2635.54
566.19	2632.04
566.54	2627.75
566.89	2624.11
567.25	2620.07
567.60	2616.95
567.96	2613.32
568.31	2609.92
568.66	2605.93
569.02	2601.19
569.37	2596.21
569.72	2592.25
570.08	2586.84
570.43	2580.90
570.78	2574.86
571.14	2568.66
571.49	2562.00
571.84	2555.65
572.20	2548.89
572.55	2542.13
572.90	2535.37
573.26	2528.37
573.61	2521.39
573.96	2514.79
574.31	2506.76
574.67	2498.48
575.02	2489.84
575.37	2481.15
575.72	2472.40
576.08	2465.33
576.43	2456.66
576.78	2448.83
577.13	2441.03
577.49	2433.44
577.84	2425.89
578.19	2418.91
578.54	2411.53
578.90	2404.84
579.25	2396.62
579.60	2387.72
579.95	2378.47
580.30	2370.55
580.66	2362.67
581.01	2353.71
581.36	2344.74
581.71	2336.78
582.06	2328.63
582.42	2320.60
582.77	2312.04
583.12	2302.99
583.47	2294.00
583.82	2285.96
584.17	2276.96
584.53	2267.96
584.88	2259.26
585.23	2250.50
585.58	2240.91
585.93	2231.39
586.28	2222.53
586.63	2213.96
586.98	2206.01
587.34	2198.11
587.69	2189.06
588.04	2180.00
588.39	2172.05
588.74	2163.37
589.09	2154.72
589.44	2145.10
589.79	2136.37
590.14	2128.72
590.49	2120.88
590.84	2112.09
591.19	2104.19
591.54	2095.82
591.89	2085.90
592.25	2076.91
592.60	2067.80
592.95	2058.68
593.30	2049.57
593.65	2039.90
594.00	2030.51
594.35	2022.39
594.70	2013.26
595.05	2004.68
595.40	1996.25
595.75	1986.45
596.10	1978.43
596.45	1970.10
596.80	1962.78
597.15	1954.88
597.50	1945.80
597.85	1937.31
598.19	1929.12
598.54	1920.61
598.89	1912.84
599.24	1906.53
599.59	1899.09
599.94	1892.01
600.29	1884.55
600.64	1876.78
600.99	1868.59
601.34	1861.31
601.69	1852.65
602.04	1844.91
602.39	1837.10
602.74	1829.28
603.08	1822.96
603.43	1815.84
603.78	1808.25
604.13	1800.17
604.48	1792.28
604.83	1785.40
605.18	1778.32
605.53	1770.91
605.87	1763.30
606.22	1756.40
606.57	1748.79
606.92	1741.14
607.27	1733.27
607.62	1725.88
607.96	1719.15
608.31	1713.35
608.66	1705.65
609.01	1698.36
609.36	1690.86
609.70	1683.35
610.05	1675.98
610.40	1668.10
610.75	1659.75
611.10	1652.09
611.44	1643.60
611.79	1635.28
612.14	1626.16
612.49	1616.77
612.83	1608.36
613.18	1599.06
613.53	1590.01
613.88	1580.30
614.22	1571.38
614.57	1561.95
614.92	1552.91
615.27	1543.93
615.61	1534.06
615.96	1525.25
616.31	1516.77
616.65	1508.94
617.00	1500.65
617.35	1492.08
617.70	1483.32
618.04	1474.67
618.39	1465.61
618.74	1457.41
619.08	1448.52
619.43	1440.57
619.78	1433.20
620.12	1425.13
620.47	1417.53
620.82	1408.81
621.16	1400.81
621.51	1392.51
621.85	1384.97
622.20	1376.76
622.55	1368.56
622.89	1360.52
623.24	1352.70
623.59	1344.42
623.93	1335.87
624.28	1327.64
624.62	1319.95
624.97	1311.97
625.32	1304.20
625.66	1296.96
626.01	1289.75
626.35	1282.78
626.70	1275.18
627.04	1267.86
627.39	1260.34
627.73	1253.08
628.08	1246.55
628.43	1239.37
628.77	1232.45
629.12	1225.15
629.46	1218.53
629.81	1211.30
630.15	1204.29
630.50	1197.33
630.84	1190.12
631.19	1183.20
631.53	1176.73
631.88	1169.10
632.22	1161.45
632.57	1154.68
632.91	1147.20
633.26	1139.73
633.60	1132.61
633.95	1125.95
634.29	1118.69
634.64	1112.00
634.98	1105.06
635.32	1098.18
635.67	1091.89
636.01	1085.31
636.36	1078.54
636.70	1071.85
637.05	1065.57
637.39	1059.13
637.73	1052.69
638.08	1046.98
638.42	1041.11
638.77	1034.59
639.11	1028.46
639.45	1022.97
639.80	1016.50
640.14	1010.25
640.49	1004.28
640.83	998.20
641.17	991.99
641.52	985.96
641.86	979.60
642.20	973.60
642.55	967.00
642.89	960.54
643.23	954.13
643.58	948.33
643.92	941.99
644.26	935.57
644.61	929.49
644.95	923.57
645.29	917.42
645.64	911.01
645.98	904.99
646.32	899.28
646.66	893.21
647.01	887.31
647.35	881.65
647.69	875.45
648.04	869.63
648.38	863.66
648.72	857.80
649.06	851.97
649.41	845.99
649.75	840.21
650.09	834.48
650.43	828.86
650.78	822.87
651.12	817.07
651.46	811.63
651.80	805.97
652.14	800.17
652.49	794.45
652.83	788.78
653.17	782.94
653.51	777.05
653.85	771.29
654.20	765.73
654.54	759.91
654.88	754.62
655.22	748.84
655.56	743.11
655.90	737.34
656.25	731.63
656.59	726.28
656.93	721.31
657.27	716.40
657.61	711.00
657.95	706.08
658.29	700.95
658.64	695.80
658.98	690.60
659.32	685.24
659.66	680.10
660.00	674.79
660.34	669.47
660.68	664.52
661.02	659.64
661.36	654.94
661.70	650.35
662.05	645.49
662.39	641.23
662.73	636.98
663.07	632.97
663.41	628.87
663.75	624.42
664.09	619.63
664.43	614.74
664.77	610.55
665.11	606.17
665.45	602.00
665.79	597.58
666.13	593.32
666.47	588.99
666.81	584.82
667.15	580.95
667.49	577.37
667.83	573.58
668.17	569.69
668.51	565.97
668.85	562.28
669.19	558.84
669.53	554.94
669.87	550.95
670.21	546.90
670.55	543.02
670.89	539.47
671.23	536.26
671.57	532.94
671.91	529.27
672.25	525.60
672.58	522.17
672.92	518.88
673.26	515.98
673.60	513.05
673.94	509.83
674.28	506.56
674.62	503.24
674.96	499.99
675.30	497.06
675.64	493.75
675.97	490.58
676.31	487.52
676.65	484.73
676.99	482.19
677.33	479.37
677.67	476.49
678.01	473.65
678.34	470.78
678.68	467.92
679.02	465.08
679.36	462.49
679.70	459.70
680.04	456.88
680.37	453.85
680.71	451.05
681.05	448.47
681.39	445.82
681.73	443.30
682.06	440.87
682.40	438.38
682.74	435.90
683.08	433.52
683.42	430.95
683.75	428.34
684.09	425.64
684.43	423.26
684.77	420.72
685.10	418.25
685.44	415.73
685.78	413.39
686.12	411.28
686.45	408.90
686.79	406.66
687.13	404.69
687.46	402.53
687.80	400.51
688.14	398.20
688.48	396.15
688.81	393.95
689.15	391.68
689.49	389.37
689.82	387.17
690.16	384.70
690.50	382.50
690.83	380.29
691.17	378.12
691.51	375.86
691.84	373.89
692.18	371.74
692.52	369.85
692.85	367.91
693.19	365.98
693.52	364.03
693.86	362.06
694.20	360.19
694.53	358.31
694.87	356.42
695.21	354.54
695.54	352.58
695.88	350.67
696.21	348.81
696.55	347.15
696.88	345.49
697.22	343.87
697.56	342.32
697.89	340.74
698.23	339.21
698.56	337.74
698.90	336.25
699.23	334.78
699.57	333.20
699.90	331.53
700.24	329.88
700.58	328.32
700.91	326.90
701.25	325.40
701.58	323.92
701.92	322.47
702.25	321.12
702.59	319.79
702.92	318.58
703.26	317.25
703.59	315.86
703.93	314.70
704.26	313.58
704.60	312.32
704.93	311.09
705.26	309.81
705.60	308.58
705.93	307.31
706.27	306.09
706.60	305.03
706.94	304.04
707.27	302.89
707.61	301.80
707.94	300.57
708.27	299.33
708.61	298.34
708.94	297.16
709.28	296.08
709.61	294.98
709.94	293.95
710.28	292.98
710.61	292.05
710.95	290.88
711.28	289.91
711.61	288.85
711.95	287.84
712.28	286.94
712.61	285.94
712.95	285.11
713.28	284.35
713.61	283.28
713.95	282.30
714.28	281.43
714.61	280.46
714.95	279.65
715.28	278.68
715.61	277.70
715.95	276.79
716.28	275.91
716.61	275.12
716.95	274.19
717.28	273.41
717.61	272.57
717.94	271.86
718.28	271.01
718.61	270.26
718.94	269.53
719.27	268.76
719.61	268.04
719.94	267.30
720.27	266.41
720.60	265.73
720.94	265.07
721.27	264.45
721.60	263.79
721.93	263.13
722.27	262.67
722.60	262.09
722.93	261.57
723.26	261.03
723.59	260.40
723.93	259.89
724.26	259.33
724.59	258.76
724.92	258.14
725.25	257.59
725.59	256.98
725.92	256.47
726.25	255.98
726.58	255.55
726.91	255.00
727.24	254.58
727.57	254.14
727.91	253.57
728.24	253.03
728.57	252.62
728.90	252.23
729.23	251.69
729.56	251.32
729.89	250.78
730.22	250.26
730.55	249.77
730.89	249.24
731.22	248.80
731.55	248.43
731.88	247.98
732.21	247.53
732.54	247.16
732.87	246.74
733.20	246.27
733.53	245.80
733.86	245.42
734.19	244.94
734.52	244.55
734.85	244.33
735.18	243.96
735.51	243.65
735.84	243.24
736.17	242.92
736.50	242.45
736.83	242.36
737.16	242.05
737.49	241.79
737.82	241.51
738.15	241.12
738.48	240.66
738.81	240.41
739.14	240.10
739.47	239.75
739.80	239.47
740.13	239.18
740.46	238.86
740.79	238.50
741.12	238.21
741.45	237.85
741.78	237.47
742.11	237.16
742.44	236.83
742.77	236.62
743.10	236.34
743.43	236.08
743.75	235.60
744.08	235.53
744.41	235.20
744.74	234.87
745.07	234.56
745.40	234.42
745.73	234.14
746.06	233.90
746.39	233.67
746.71	233.39
747.04	233.11
747.37	232.84
747.70	232.62
748.03	232.38
748.36	232.28
748.68	231.99
749.01	231.74
749.34	231.49
749.67	231.13
750.00	230.91
750.33	230.74
750.65	230.54
750.98	230.05
751.31	229.82
751.64	229.61
751.97	229.56
752.29	229.23
752.62	228.95
752.95	228.63
753.28	228.41
753.60	228.17
753.93	227.94
754.26	227.74
754.59	227.47
754.91	227.24
755.24	226.97
755.57	226.78
755.90	226.61
756.22	226.40
756.55	226.20
756.88	225.99
757.20	225.76
757.53	225.54
757.86	225.37
758.19	225.16
758.51	225.05
758.84	224.72
759.17	224.57
759.49	224.44
759.82	224.35
760.15	224.22
760.47	224.09
760.80	223.94
761.13	223.78
761.45	223.58
761.78	223.48
762.11	223.29
762.43	223.14
762.76	223.03
763.08	222.89
763.41	222.78
763.74	222.68
764.06	222.52
764.39	222.40
764.71	222.29
765.04	222.17
765.37	222.00
765.69	221.88
766.02	221.74
766.34	221.60
766.67	221.43
767.00	221.35
767.32	221.30
767.65	221.22
767.97	221.06
768.30	221.01
768.62	220.88
768.95	220.76
769.27	220.66
769.60	220.58
769.92	220.42
770.25	220.30
770.57	220.10
770.90	219.95
771.22	219.83
771.55	219.76
771.87	219.73
772.20	219.64
772.52	219.75
772.85	219.95
773.17	219.89
773.50	219.80
773.82	219.65
774.15	219.47
774.47	219.28
774.80	219.26
775.12	219.18
775.45	219.07
775.77	218.97
776.09	218.85
776.42	218.68
776.74	218.64
777.07	218.55
777.39	218.50
777.72	218.47
778.04	218.42
778.36	218.26
778.69	218.16
779.01	218.06
779.33	217.78
779.66	217.50
779.98	217.34
780.31	217.29
780.63	217.31
780.95	217.31
781.28	217.22
781.60	217.08
781.92	217.02
782.25	216.95
782.57	216.95
782.89	216.90
783.22	216.85
783.54	216.85
783.86	216.78
784.19	216.79
784.51	216.74
784.83	216.69
785.16	216.67
785.48	216.61
785.80	216.53
786.12	216.54
786.45	216.45
786.77	216.51
787.09	216.44
787.42	216.29
787.74	216.14
788.06	216.15
788.38	216.20
788.71	216.14
789.03	216.04
789.35	215.98
789.67	215.92
789.99	215.92
790.32	215.80
790.64	215.77
790.96	215.84
791.28	215.76
791.61	215.63
791.93	215.65
792.25	215.57
792.57	215.76
792.89	215.63
793.21	215.57
793.54	215.55
793.86	215.54
794.18	215.53
794.50	215.54
794.82	215.48
795.14	215.36
795.47	215.39
795.79	215.37
796.11	215.29
796.43	215.28
796.75	215.15
797.07	215.13
797.39	215.09
797.71	214.87
798.04	214.90
798.36	214.91
798.68	214.86
799.00	214.90
799.32	214.72
799.64	214.73
799.96	214.64
800.28	214.58
800.60	214.47
800.92	214.40
801.24	214.39
801.56	214.35
801.89	214.34
802.21	214.22
802.53	214.14
802.85	214.15
803.17	214.16
803.49	214.06
803.81	213.99
804.13	214.00
804.45	213.96
804.77	213.90
805.09	213.87
805.41	213.81
805.73	213.70
806.05	213.56
806.37	213.52
806.69	213.54
807.01	213.45
807.33	213.47
807.65	213.44
807.97	213.41
808.28	213.37
808.60	213.37
808.92	213.43
809.24	213.51
809.56	213.44
809.88	213.37
810.20	213.49
810.52	213.58
810.84	213.52
811.16	213.48
811.48	213.43
811.80	213.51
812.12	213.47
812.43	213.51
812.75	213.55
813.07	213.55
813.39	213.55
813.71	213.49
814.03	213.49
814.35	213.43
814.67	213.35
814.98	213.34
815.30	213.28
815.62	213.22
815.94	213.10
816.26	213.12
816.58	213.12
816.89	213.03
817.21	212.90
817.53	212.85
817.85	212.80
818.17	212.76
818.48	212.63
818.80	212.66
819.12	212.64
819.44	212.60
819.76	212.54
820.07	212.50
820.39	212.54
820.71	212.48
821.03	212.51
821.34	212.41
821.66	212.45
821.98	212.45
822.30	212.40
822.61	212.54
822.93	212.57
823.25	212.52
823.57	212.46
823.88	212.48
824.20	212.52
824.52	212.57
824.83	212.51
825.15	212.45
825.47	212.38
825.79	212.37
826.10	212.31
826.42	212.33
826.74	212.46
827.05	212.37
827.37	212.40
827.69	212.36
828.00	212.45
828.32	212.42
828.64	212.42
828.95	212.52
829.27	212.46
829.58	212.40
829.90	212.37
830.22	212.45
830.53	212.43
830.85	212.44
831.17	212.43
831.48	212.45
831.80	212.51
832.11	212.54
832.43	212.45
832.75	212.49
833.06	212.58
833.38	212.45
833.69	212.49
834.01	212.49
834.32	212.50
834.64	212.49
834.96	212.47
835.27	212.42
835.59	212.36
835.90	212.31
836.22	212.27
836.53	212.34
836.85	212.34
837.16	212.52
837.48	212.47
837.79	212.49
838.11	212.57
838.42	212.58
838.74	212.65
839.05	212.71
839.37	212.69
839.68	212.52
840.00	212.52
840.31	212.54
840.63	212.53
840.94	212.45
841.26	212.47
841.57	212.44
841.88	212.50
842.20	212.47
842.51	212.49
842.83	212.55
843.14	212.65
843.46	212.63
843.77	212.44
844.08	212.46
844.40	212.40
844.71	212.35
845.03	212.39
845.34	212.29
845.65	212.29
845.97	212.23
846.28	212.30
846.60	212.28
846.91	212.26
847.22	212.31
847.54	212.45
847.85	212.42
848.16	212.45
848.48	212.40
848.79	212.44
849.10	212.44
849.42	212.39
849.73	212.25
850.04	212.18
850.36	212.19
850.67	212.23
850.98	212.22
851.30	212.15
851.61	212.11
851.92	212.08
852.23	212.04
852.55	212.10
852.86	212.17
853.17	212.13
853.49	212.17
853.80	212.15
854.11	212.04
854.42	212.01
854.74	211.95
855.05	211.95
855.36	211.92
855.67	211.89
855.99	211.96
856.30	212.20
856.61	212.26
856.92	212.25
857.23	212.17
857.55	212.21
857.86	212.35
858.17	212.34
858.48	212.27
858.79	212.26
859.11	212.37
859.42	212.24
859.73	212.25
860.04	212.21
860.35	212.17
860.66	212.13
860.98	212.17
861.29	212.21
861.60	212.28
861.91	212.28
862.22	212.22
862.53	212.12
862.84	211.94
863.16	212.01
863.47	211.99
863.78	211.97
864.09	211.97
864.40	211.89
864.71	211.80
865.02	211.89
865.33	211.90
865.64	211.83
865.95	211.88
866.27	212.00
866.58	211.93
866.89	211.90
867.20	211.95
867.51	211.95
867.82	211.88
868.13	211.85
868.44	211.87
868.75	211.94
869.06	211.95
869.37	211.96
869.68	211.87
869.99	211.90
870.30	211.91
870.61	211.90
870.92	211.89
871.23	211.89
871.54	211.88
871.85	211.97
872.16	211.96
872.47	212.04
872.78	211.97
873.09	212.10
873.40	212.08
873.71	212.09
874.02	212.07
874.33	212.10
874.64	212.02
874.95	211.91
875.26	211.83
875.56	211.84
875.87	211.73
876.18	211.71
876.49	211.87
876.80	211.88
877.11	211.83
877.42	211.79
877.73	211.82
878.04	211.84
878.35	211.76
878.66	211.73
878.96	211.71
879.27	211.64
879.58	211.57
879.89	211.57
880.20	211.65
880.51	211.63
880.82	211.57
881.12	211.58
881.43	211.59
881.74	211.57
882.05	211.53
882.36	211.55
882.67	211.56
882.97	211.35
883.28	211.35
883.59	211.39
883.90	211.42
884.21	211.48
884.51	211.39
884.82	211.38
885.13	211.43
885.44	211.31
885.74	211.28
886.05	211.34
886.36	211.31
886.67	211.16
886.98	211.24
887.28	211.29
887.59	211.28
887.90	211.35
888.20	211.43
888.51	211.47
888.82	211.44
889.13	211.45
889.43	211.61
889.74	211.58
890.05	211.53
890.35	211.53
890.66	211.45
890.97	211.45
891.28	211.42
891.58	211.42
891.89	211.45
892.20	211.45
892.50	211.32
892.81	211.35
893.12	211.45
893.42	211.31
893.73	211.31
894.04	211.29
894.34	211.23
894.65	211.20
894.95	211.18
895.26	211.16
895.57	211.16
895.87	210.98
896.18	210.98
896.48	211.00
896.79	210.97
897.10	211.03
897.40	211.10
897.71	211.14
898.01	211.10
898.32	211.06
898.63	211.03
898.93	211.10
899.24	211.09
899.54	210.98
899.85	211.02
900.15	211.03
900.46	211.06
900.76	211.09
901.07	211.01
901.38	211.02
901.68	211.07
901.99	211.08
902.29	211.05
902.60	211.10
902.90	211.14
903.21	211.15
903.51	211.13
903.82	211.11
904.12	211.12
904.43	211.11
904.73	211.12
905.03	211.23
905.34	211.40
905.64	211.40
905.95	211.48
906.25	211.49
906.56	211.44
906.86	211.44
907.17	211.44
907.47	211.53
907.77	211.49
908.08	211.46
908.38	211.45
908.69	211.52
908.99	211.56
909.30	211.51
909.60	211.53
909.90	211.58
910.21	211.55
910.51	211.45
910.81	211.45
911.12	211.44
911.42	211.34
911.73	211.12
912.03	211.16
912.33	211.18
912.64	211.14
912.94	211.15
913.24	211.13
913.55	211.13
913.85	211.04
914.15	211.03
914.46	211.05
914.76	210.98
915.06	210.92
915.37	210.80
915.67	210.76
915.97	210.69
916.27	210.62
916.58	210.70
916.88	210.73
917.18	210.74
917.49	210.87
917.79	210.89
918.09	210.95
918.39	210.91
918.70	210.85
919.00	210.81
919.30	210.85
919.60	210.84
919.91	210.81
920.21	210.84
920.51	210.84
920.81	210.84
921.12	210.81
921.42	210.85
921.72	210.89
922.02	210.90
922.32	210.95
922.63	210.90
922.93	210.93
923.23	210.94
923.53	210.88
923.83	210.79
924.13	210.80
924.44	210.77
924.74	210.85
925.04	210.95
925.34	210.99
925.64	210.97
925.94	210.97
926.24	211.05
926.55	211.06
926.85	211.07
927.15	211.03
927.45	211.14
927.75	211.22
928.05	211.28
928.35	211.29
928.65	211.31
928.95	211.38
929.26	211.28
929.56	211.35
929.86	211.40
930.16	211.43
930.46	211.42
930.76	211.41
931.06	211.31
931.36	211.21
931.66	211.26
931.96	211.24
932.26	211.26
932.56	211.21
932.86	211.15
933.16	211.23
933.46	211.20
933.76	211.16
934.06	211.15
934.36	211.15
934.66	211.13
934.96	211.10
935.26	211.10
935.56	211.14
935.86	211.07
936.16	211.05
936.46	210.97
936.76	210.98
937.06	211.01
937.36	211.00
937.66	211.08
937.96	211.13
938.26	211.16
938.56	211.12
938.86	211.14
939.16	211.27
939.46	211.27
939.76	211.33
940.06	211.23
940.35	211.20
940.65	211.07
940.95	211.14
941.25	211.08
941.55	211.05
941.85	211.08
942.15	211.11
942.45	211.20
942.75	211.20
943.04	211.24
943.34	211.26
943.64	211.25
943.94	211.14
944.24	211.09
944.54	211.12
944.84	211.16
945.13	211.12
945.43	211.09
945.73	211.02
946.03	211.07
946.33	211.13
946.62	211.09
946.92	211.08
947.22	211.10
947.52	211.12
947.82	211.11
948.11	211.04
948.41	211.01
948.71	210.86
949.01	210.90
949.31	210.82
949.60	210.85
949.90	210.91
950.20	210.94
950.50	210.88
950.79	210.78
951.09	210.83
951.39	210.84
951.69	210.78
951.98	210.83
952.28	210.77
952.58	210.82
952.87	210.88
953.17	210.95
953.47	210.91
953.76	211.00
954.06	211.00
954.36	210.96
954.66	210.98
954.95	211.08
955.25	211.11
955.55	211.14
955.84	211.04
956.14	211.04
956.44	211.12
956.73	211.07
957.03	211.14
957.32	211.07
957.62	211.05
957.92	211.10
958.21	211.01
958.51	211.20
958.81	211.18
959.10	211.15
959.40	211.20
959.69	211.16
959.99	211.15
960.29	211.17
960.58	211.20
960.88	211.27
961.17	211.19
961.47	211.17
961.76	211.17
962.06	211.24
962.36	211.23
962.65	211.16
962.95	211.23
963.24	211.20
963.54	211.26
963.83	211.31
964.13	211.37
964.42	211.35
964.72	211.21
965.01	211.20
965.31	211.22
965.60	211.20
965.90	211.35
966.19	211.24
966.49	211.21
966.78	211.20
967.08	211.14
967.37	211.14
967.67	211.12
967.96	211.18
968.26	211.20
968.55	211.19
968.85	211.20
969.14	211.15
969.43	211.15
969.73	211.15
970.02	211.07
970.32	211.00
970.61	211.04
970.91	210.94
971.20	210.96
971.49	210.91
971.79	210.83
972.08	210.72
972.38	210.77
972.67	210.77
972.96	210.78
973.26	210.74
973.55	210.82
973.85	210.77
974.14	210.68
974.43	210.63
974.73	210.55
975.02	210.55
975.31	210.57
975.61	210.53
975.90	210.49
976.19	210.46
976.49	210.46
976.78	210.46
977.07	210.53
977.37	210.45
977.66	210.46
977.95	210.45
978.24	210.41
978.54	210.49
978.83	210.52
979.12	210.50
979.42	210.51
979.71	210.46
980.00	210.40
980.29	210.41
980.59	210.38
980.88	210.44
981.17	210.35
981.46	210.40
981.76	210.43
982.05	210.42
982.34	210.47
982.63	210.45
982.93	210.42
983.22	210.45
983.51	210.48
983.80	210.51
984.09	210.60
984.39	210.60
984.68	210.58
984.97	210.45
985.26	210.46
985.55	210.43
985.85	210.38
986.14	210.44
986.43	210.48
986.72	210.46
987.01	210.49
987.30	210.50
987.59	210.45
987.89	210.43
988.18	210.43
988.47	210.36
988.76	210.38
989.05	210.37
989.34	210.38
989.63	210.36
989.92	210.34
990.22	210.31
990.51	210.30
990.80	210.24
991.09	210.34
991.38	210.39
991.67	210.37
991.96	210.40
992.25	210.47
992.54	210.45
992.83	210.48
993.12	210.38
993.41	210.42
993.70	210.48
993.99	210.52
994.28	210.55
994.58	210.62
994.87	210.52
995.16	210.55
995.45	210.44
995.74	210.48
996.03	210.46
996.32	210.50
996.61	210.54
996.90	210.56
997.19	210.53
997.48	210.53
997.77	210.61
998.06	210.63
998.34	210.60
998.63	210.59
998.92	210.59
999.21	210.73
999.50	210.75
999.79	210.70
1000.08	210.71
1000.37	210.72
1000.66	210.67
1000.95	210.81
1001.24	210.80
1001.53	210.90
1001.82	210.85
1002.11	210.88
1002.40	210.85
1002.68	210.90
1002.97	211.05
1003.26	211.04
1003.55	211.01
1003.84	210.99
1004.13	211.04
1004.42	211.00
1004.71	211.05
1004.99	211.04
1005.28	211.10
1005.57	211.10
1005.86	211.08
1006.15	211.10
1006.44	211.05
1006.72	211.19
1007.01	211.18
1007.30	211.26
1007.59	211.26
1007.88	211.35
1008.17	211.34
1008.45	211.28
1008.74	211.20
1009.03	211.19
1009.32	211.19
1009.60	211.21
1009.89	211.21
1010.18	211.14
1010.47	211.14
1010.76	211.09
1011.04	211.11
1011.33	211.22
1011.62	211.28
1011.91	211.38
1012.19	211.37
1012.48	211.39
1012.77	211.30
1013.05	211.39
1013.34	211.29
1013.63	211.16
1013.92	211.12
1014.20	211.12
1014.49	211.10
1014.78	211.15
1015.06	211.04
1015.35	211.10
1015.64	211.16
1015.92	211.10
1016.21	211.12
1016.50	211.13
1016.78	211.20
1017.07	211.27
1017.36	211.07
1017.64	210.99
1017.93	210.94
1018.22	210.96
1018.50	210.96
1018.79	211.01
1019.08	210.89
1019.36	210.92
1019.65	211.03
1019.93	211.02
1020.22	211.06
1020.51	211.19
1020.79	211.19
1021.08	211.60
1021.36	210.60
1021.65	211.95
1021.94	210.40
1022.22	210.50
1022.51	211.65
1022.79	210.70
1023.08	211.60
1023.36	212.70
1023.65	210.95
>>>>>End Processed Spectral Data<<<<<
