SpectraSuite Data File
++++++++++++++++++++++++++++++++++++
Date: Mon Feb 25 17:36:27 EST 2013
User: group
Dark Spectrum Present: No
Reference Spectrum Present: No
Number of Sampled Component Spectra: 1
Spectrometers: USB2E7196
Integration Time (usec): 52000 (USB2E7196)
Spectra Averaged: 20 (USB2E7196)
Boxcar Smoothing: 10 (USB2E7196)
Correct for Electrical Dark: No (USB2E7196)
Strobe/Lamp Enabled: No (USB2E7196)
Correct for Detector Non-linearity: No (USB2E7196)
Correct for Stray Light: No (USB2E7196)
Number of Pixels in Processed Spectrum: 2048
>>>>>Begin Processed Spectral Data<<<<<
339.09	0.00
339.48	198.25
339.86	199.60
340.24	201.90
340.63	202.25
341.01	207.65
341.39	205.50
341.78	206.40
342.16	207.95
342.54	207.85
342.93	197.45
343.31	207.40
343.69	207.92
344.07	208.43
344.46	208.84
344.84	209.33
345.22	209.55
345.60	209.85
345.99	210.20
346.37	210.44
346.75	210.70
347.13	210.95
347.52	211.17
347.90	211.31
348.28	211.56
348.66	211.80
349.05	211.83
349.43	211.99
349.81	212.20
350.19	212.38
350.57	212.50
350.96	212.85
351.34	213.05
351.72	213.28
352.10	213.49
352.48	213.67
352.87	213.83
353.25	213.85
353.63	213.94
354.01	213.99
354.39	214.12
354.77	214.17
355.15	214.27
355.54	214.27
355.92	214.40
356.30	214.49
356.68	214.73
357.06	214.95
357.44	214.98
357.82	215.02
358.20	215.14
358.58	215.25
358.97	215.22
359.35	215.39
359.73	215.51
360.11	215.62
360.49	215.70
360.87	215.71
361.25	215.88
361.63	216.04
362.01	216.10
362.39	216.13
362.77	216.26
363.15	216.28
363.53	216.41
363.91	216.50
364.29	216.55
364.67	216.38
365.05	216.38
365.43	216.48
365.81	216.52
366.19	216.63
366.57	216.73
366.95	216.79
367.33	216.75
367.71	216.78
368.09	216.74
368.47	216.81
368.85	216.88
369.23	216.92
369.61	216.87
369.99	216.93
370.37	216.91
370.75	216.94
371.13	216.96
371.51	216.96
371.89	216.95
372.27	216.92
372.65	216.93
373.03	217.01
373.41	216.96
373.78	216.94
374.16	216.78
374.54	216.62
374.92	216.58
375.30	216.56
375.68	216.48
376.06	216.48
376.44	216.36
376.82	216.34
377.19	216.22
377.57	216.19
377.95	216.11
378.33	216.10
378.71	215.98
379.09	215.91
379.47	215.81
379.84	215.65
380.22	215.59
380.60	215.45
380.98	215.30
381.36	215.25
381.73	215.17
382.11	215.19
382.49	215.21
382.87	215.14
383.25	215.11
383.62	215.30
384.00	215.26
384.38	215.25
384.76	215.21
385.13	215.33
385.51	215.32
385.89	215.26
386.27	215.29
386.64	215.31
387.02	215.28
387.40	215.35
387.78	215.40
388.15	215.40
388.53	215.45
388.91	215.40
389.29	215.45
389.66	215.50
390.04	215.53
390.42	215.55
390.79	215.60
391.17	215.62
391.55	215.40
391.92	215.41
392.30	215.45
392.68	215.39
393.05	215.44
393.43	215.46
393.81	215.53
394.18	215.59
394.56	215.59
394.94	215.74
395.31	215.75
395.69	215.90
396.06	216.00
396.44	216.07
396.82	216.20
397.19	216.37
397.57	216.47
397.95	216.54
398.32	216.65
398.70	216.78
399.07	216.96
399.45	217.10
399.82	217.27
400.20	217.44
400.58	217.74
400.95	217.89
401.33	218.18
401.70	218.55
402.08	218.81
402.45	219.26
402.83	219.67
403.20	220.14
403.58	220.50
403.95	221.05
404.33	221.65
404.71	222.21
405.08	222.89
405.46	223.47
405.83	224.18
406.21	224.96
406.58	225.89
406.96	226.82
407.33	227.95
407.70	229.14
408.08	230.49
408.45	231.81
408.83	233.24
409.20	234.66
409.58	236.11
409.95	237.90
410.33	239.72
410.70	241.66
411.08	243.68
411.45	245.95
411.82	248.30
412.20	250.96
412.57	253.85
412.95	256.66
413.32	259.96
413.69	263.43
414.07	267.04
414.44	270.96
414.82	275.04
415.19	279.62
415.56	284.43
415.94	289.54
416.31	295.23
416.68	300.81
417.06	307.24
417.43	313.25
417.81	320.21
418.18	327.41
418.55	335.20
418.93	343.55
419.30	352.21
419.67	361.39
420.04	370.79
420.42	381.03
420.79	392.17
421.16	403.70
421.54	415.49
421.91	427.91
422.28	440.96
422.66	454.77
423.03	467.94
423.40	481.94
423.77	497.17
424.15	512.80
424.52	529.03
424.89	546.74
425.26	564.32
425.64	580.98
426.01	599.34
426.38	618.44
426.75	637.75
427.13	657.94
427.50	679.39
427.87	701.92
428.24	724.40
428.61	746.27
428.99	769.53
429.36	795.28
429.73	820.47
430.10	845.65
430.47	871.83
430.85	899.60
431.22	928.27
431.59	958.21
431.96	987.42
432.33	1020.03
432.70	1051.77
433.08	1088.90
433.45	1123.85
433.82	1158.79
434.19	1197.48
434.56	1235.71
434.93	1272.96
435.30	1309.97
435.68	1350.68
436.05	1391.18
436.42	1432.21
436.79	1469.95
437.16	1510.58
437.53	1553.69
437.90	1596.31
438.27	1637.95
438.64	1681.75
439.01	1722.49
439.38	1760.05
439.75	1795.78
440.13	1836.17
440.50	1874.08
440.87	1906.10
441.24	1939.78
441.61	1976.39
441.98	2004.84
442.35	2037.45
442.72	2069.47
443.09	2100.60
443.46	2121.71
443.83	2137.17
444.20	2150.72
444.57	2169.28
444.94	2180.13
445.31	2190.78
445.68	2199.95
446.05	2207.06
446.42	2206.75
446.79	2205.78
447.16	2203.80
447.53	2203.37
447.90	2191.99
448.27	2180.93
448.64	2162.94
449.01	2150.20
449.37	2125.82
449.74	2102.13
450.11	2072.28
450.48	2041.42
450.85	2009.66
451.22	1981.86
451.59	1955.05
451.96	1929.76
452.33	1894.52
452.70	1862.71
453.07	1824.93
453.43	1786.96
453.80	1749.52
454.17	1713.49
454.54	1679.70
454.91	1642.85
455.28	1607.33
455.65	1573.87
456.02	1538.17
456.38	1509.38
456.75	1473.38
457.12	1443.58
457.49	1413.79
457.86	1386.01
458.23	1360.33
458.59	1332.44
458.96	1304.44
459.33	1280.00
459.70	1255.12
460.07	1235.69
460.43	1213.29
460.80	1191.46
461.17	1173.21
461.54	1153.56
461.91	1134.89
462.27	1115.82
462.64	1100.03
463.01	1081.71
463.38	1064.02
463.74	1048.67
464.11	1033.65
464.48	1020.54
464.85	1006.10
465.21	994.91
465.58	982.65
465.95	968.63
466.32	956.79
466.68	945.28
467.05	933.35
467.42	921.54
467.78	909.36
468.15	897.82
468.52	889.17
468.88	877.97
469.25	867.85
469.62	859.69
469.98	851.02
470.35	842.86
470.72	835.56
471.08	827.76
471.45	820.39
471.82	813.00
472.18	805.26
472.55	799.58
472.92	793.02
473.28	787.54
473.65	782.12
474.02	776.70
474.38	771.87
474.75	768.06
475.11	763.77
475.48	760.17
475.85	757.16
476.21	754.31
476.58	751.93
476.94	750.23
477.31	748.00
477.67	745.98
478.04	744.53
478.41	743.47
478.77	742.38
479.14	741.47
479.50	741.27
479.87	741.69
480.23	742.22
480.60	742.32
480.96	742.52
481.33	743.75
481.69	745.07
482.06	746.26
482.42	746.99
482.79	748.48
483.15	751.22
483.52	754.46
483.88	757.24
484.25	760.13
484.61	763.23
484.98	766.64
485.34	770.73
485.71	775.08
486.07	779.77
486.44	784.88
486.80	790.32
487.17	795.90
487.53	802.30
487.90	808.95
488.26	816.11
488.62	823.70
488.99	831.24
489.35	839.44
489.72	848.46
490.08	858.15
490.44	867.77
490.81	877.38
491.17	886.90
491.54	897.80
491.90	908.25
492.26	919.82
492.63	931.63
492.99	943.84
493.36	956.55
493.72	969.87
494.08	983.48
494.45	998.11
494.81	1013.30
495.17	1028.59
495.54	1044.45
495.90	1061.27
496.26	1077.91
496.63	1095.17
496.99	1112.67
497.35	1130.20
497.72	1148.39
498.08	1167.05
498.44	1185.89
498.80	1206.10
499.17	1226.08
499.53	1246.84
499.89	1267.93
500.26	1289.33
500.62	1310.31
500.98	1332.50
501.34	1354.68
501.71	1377.21
502.07	1399.95
502.43	1422.92
502.79	1445.72
503.16	1468.71
503.52	1491.78
503.88	1514.91
504.24	1538.15
504.60	1561.97
504.97	1586.66
505.33	1610.81
505.69	1635.91
506.05	1660.78
506.41	1685.12
506.78	1709.71
507.14	1734.44
507.50	1759.05
507.86	1783.90
508.22	1809.46
508.59	1834.01
508.95	1859.27
509.31	1884.50
509.67	1909.77
510.03	1934.90
510.39	1960.56
510.75	1985.65
511.12	2009.80
511.48	2034.56
511.84	2059.49
512.20	2083.90
512.56	2108.10
512.92	2132.55
513.28	2156.73
513.64	2180.94
514.00	2204.20
514.37	2227.35
514.73	2250.85
515.09	2273.39
515.45	2296.05
515.81	2318.35
516.17	2340.96
516.53	2362.32
516.89	2383.68
517.25	2403.43
517.61	2423.41
517.97	2442.77
518.33	2461.76
518.69	2481.44
519.05	2501.26
519.41	2520.87
519.77	2540.08
520.13	2558.79
520.49	2576.61
520.85	2594.30
521.21	2611.14
521.57	2629.19
521.93	2645.89
522.29	2663.37
522.65	2680.71
523.01	2697.45
523.37	2713.14
523.73	2728.98
524.09	2744.33
524.45	2759.20
524.81	2774.55
525.17	2789.78
525.53	2804.95
525.89	2820.54
526.25	2835.69
526.61	2848.59
526.97	2861.64
527.33	2874.76
527.68	2888.20
528.04	2901.73
528.40	2913.68
528.76	2926.27
529.12	2937.80
529.48	2949.87
529.84	2959.06
530.20	2970.10
530.56	2980.98
530.91	2992.70
531.27	3003.29
531.63	3014.13
531.99	3024.49
532.35	3034.38
532.71	3044.53
533.07	3055.38
533.42	3064.65
533.78	3075.05
534.14	3085.16
534.50	3093.98
534.86	3103.21
535.21	3110.29
535.57	3119.21
535.93	3127.43
536.29	3134.81
536.65	3143.62
537.00	3151.32
537.36	3160.49
537.72	3167.21
538.08	3174.43
538.44	3181.28
538.79	3187.76
539.15	3194.54
539.51	3201.85
539.87	3209.39
540.22	3215.63
540.58	3221.79
540.94	3228.05
541.29	3232.49
541.65	3235.63
542.01	3239.80
542.37	3243.58
542.72	3249.14
543.08	3252.35
543.44	3256.70
543.79	3259.62
544.15	3261.93
544.51	3265.85
544.87	3269.05
545.22	3271.67
545.58	3273.03
545.94	3274.31
546.29	3275.74
546.65	3276.41
547.01	3277.15
547.36	3278.20
547.72	3279.10
548.07	3278.59
548.43	3278.41
548.79	3277.41
549.14	3278.91
549.50	3280.24
549.86	3281.07
550.21	3279.78
550.57	3279.58
550.92	3278.50
551.28	3277.99
551.64	3277.14
551.99	3276.03
552.35	3275.45
552.70	3274.91
553.06	3274.77
553.41	3274.13
553.77	3273.83
554.13	3272.86
554.48	3273.03
554.84	3272.31
555.19	3270.37
555.55	3269.72
555.90	3269.01
556.26	3268.28
556.61	3267.01
556.97	3264.10
557.32	3260.65
557.68	3258.28
558.03	3255.66
558.39	3253.25
558.74	3253.61
559.10	3252.90
559.45	3251.64
559.81	3249.73
560.16	3247.90
560.52	3246.68
560.87	3244.99
561.23	3241.24
561.58	3238.18
561.94	3233.11
562.29	3228.45
562.64	3225.29
563.00	3221.54
563.35	3217.41
563.71	3214.00
564.06	3211.33
564.42	3209.00
564.77	3206.33
565.12	3203.37
565.48	3200.01
565.83	3197.23
566.19	3193.14
566.54	3188.83
566.89	3183.57
567.25	3178.22
567.60	3174.05
567.96	3168.59
568.31	3163.37
568.66	3159.38
569.02	3156.08
569.37	3152.97
569.72	3149.38
570.08	3145.55
570.43	3139.85
570.78	3134.99
571.14	3130.67
571.49	3124.87
571.84	3119.86
572.20	3114.30
572.55	3109.49
572.90	3103.56
573.26	3097.17
573.61	3089.52
573.96	3082.35
574.31	3074.86
574.67	3068.26
575.02	3060.35
575.37	3052.40
575.72	3044.96
576.08	3038.04
576.43	3029.27
576.78	3021.13
577.13	3013.24
577.49	3005.06
577.84	2998.38
578.19	2990.26
578.54	2981.65
578.90	2973.51
579.25	2963.94
579.60	2954.40
579.95	2945.08
580.30	2936.93
580.66	2928.06
581.01	2919.41
581.36	2909.31
581.71	2901.03
582.06	2892.48
582.42	2884.71
582.77	2875.41
583.12	2865.97
583.47	2855.95
583.82	2847.20
584.17	2836.61
584.53	2826.90
584.88	2816.53
585.23	2805.79
585.58	2796.49
585.93	2786.33
586.28	2777.14
586.63	2767.95
586.98	2759.46
587.34	2750.23
587.69	2740.00
588.04	2730.84
588.39	2721.36
588.74	2711.38
589.09	2701.68
589.44	2689.94
589.79	2678.53
590.14	2668.99
590.49	2657.92
590.84	2648.42
591.19	2638.53
591.54	2628.67
591.89	2617.42
592.25	2607.55
592.60	2596.13
592.95	2584.44
593.30	2573.30
593.65	2562.34
594.00	2551.79
594.35	2542.23
594.70	2530.83
595.05	2520.18
595.40	2507.91
595.75	2496.19
596.10	2485.99
596.45	2474.53
596.80	2464.95
597.15	2454.57
597.50	2443.33
597.85	2433.91
598.19	2421.64
598.54	2409.80
598.89	2398.67
599.24	2388.62
599.59	2377.63
599.94	2368.68
600.29	2358.88
600.64	2348.83
600.99	2336.61
601.34	2325.95
601.69	2313.53
602.04	2302.36
602.39	2292.02
602.74	2283.37
603.08	2275.15
603.43	2266.41
603.78	2257.08
604.13	2246.57
604.48	2235.89
604.83	2226.61
605.18	2216.91
605.53	2207.46
605.87	2197.82
606.22	2188.75
606.57	2178.70
606.92	2167.96
607.27	2156.78
607.62	2146.36
607.96	2136.78
608.31	2128.51
608.66	2117.89
609.01	2107.82
609.36	2097.85
609.70	2086.55
610.05	2074.48
610.40	2062.14
610.75	2050.13
611.10	2038.86
611.44	2027.33
611.79	2016.45
612.14	2005.03
612.49	1992.42
612.83	1981.19
613.18	1969.16
613.53	1957.53
613.88	1944.78
614.22	1933.12
614.57	1921.26
614.92	1909.53
615.27	1897.41
615.61	1884.37
615.96	1872.77
616.31	1861.68
616.65	1851.24
617.00	1840.97
617.35	1830.40
617.70	1818.57
618.04	1806.77
618.39	1795.12
618.74	1784.43
619.08	1772.83
619.43	1760.86
619.78	1750.04
620.12	1739.62
620.47	1729.74
620.82	1718.68
621.16	1708.66
621.51	1698.38
621.85	1687.76
622.20	1676.78
622.55	1665.66
622.89	1655.42
623.24	1645.21
623.59	1634.17
623.93	1623.26
624.28	1612.27
624.62	1601.50
624.97	1591.68
625.32	1581.72
625.66	1572.08
626.01	1562.19
626.35	1553.58
626.70	1544.81
627.04	1535.60
627.39	1525.27
627.73	1515.75
628.08	1506.50
628.43	1497.09
628.77	1488.18
629.12	1478.90
629.46	1469.77
629.81	1460.21
630.15	1450.45
630.50	1440.80
630.84	1431.49
631.19	1421.72
631.53	1412.28
631.88	1402.98
632.22	1394.17
632.57	1385.76
632.91	1376.90
633.26	1368.06
633.60	1358.43
633.95	1349.54
634.29	1341.02
634.64	1332.93
634.98	1323.39
635.32	1314.91
635.67	1307.06
636.01	1298.55
636.36	1290.15
636.70	1282.07
637.05	1274.20
637.39	1266.24
637.73	1258.19
638.08	1251.15
638.42	1244.09
638.77	1236.68
639.11	1229.32
639.45	1221.27
639.80	1213.13
640.14	1205.34
640.49	1197.47
640.83	1189.62
641.17	1181.65
641.52	1173.78
641.86	1165.64
642.20	1158.20
642.55	1149.50
642.89	1140.65
643.23	1132.49
643.58	1125.10
643.92	1116.97
644.26	1108.89
644.61	1101.07
644.95	1093.10
645.29	1084.85
645.64	1076.37
645.98	1068.58
646.32	1060.91
646.66	1053.59
647.01	1046.19
647.35	1038.53
647.69	1030.76
648.04	1023.49
648.38	1015.76
648.72	1008.13
649.06	1000.70
649.41	993.35
649.75	986.22
650.09	979.58
650.43	972.64
650.78	965.31
651.12	958.26
651.46	951.81
651.80	945.33
652.14	939.09
652.49	932.25
652.83	925.53
653.17	918.37
653.51	911.49
653.85	904.93
654.20	898.54
654.54	892.18
654.88	885.82
655.22	879.09
655.56	872.42
655.90	865.35
656.25	858.56
656.59	852.02
656.93	845.94
657.27	839.60
657.61	833.03
657.95	827.02
658.29	821.16
658.64	815.09
658.98	809.15
659.32	802.74
659.66	796.80
660.00	791.05
660.34	785.58
660.68	779.80
661.02	773.64
661.36	767.80
661.70	761.90
662.05	756.42
662.39	751.20
662.73	746.33
663.07	741.82
663.41	737.19
663.75	732.55
664.09	727.43
664.43	722.22
664.77	717.38
665.11	712.45
665.45	707.66
665.79	703.03
666.13	698.27
666.47	693.82
666.81	689.42
667.15	685.00
667.49	680.70
667.83	676.46
668.17	672.52
668.51	668.22
668.85	663.93
669.19	659.76
669.53	655.47
669.87	650.75
670.21	646.44
670.55	642.02
670.89	637.70
671.23	633.90
671.57	629.82
671.91	625.75
672.25	621.74
672.58	617.57
672.92	613.35
673.26	609.35
673.60	605.53
673.94	601.76
674.28	598.16
674.62	594.35
674.96	590.42
675.30	586.55
675.64	583.00
675.97	579.58
676.31	576.32
676.65	573.06
676.99	570.28
677.33	566.99
677.67	563.87
678.01	560.41
678.34	556.76
678.68	553.55
679.02	550.31
679.36	546.98
679.70	543.74
680.04	540.49
680.37	537.43
680.71	534.26
681.05	531.10
681.39	527.89
681.73	524.65
682.06	521.58
682.40	518.67
682.74	515.40
683.08	512.23
683.42	508.87
683.75	505.66
684.09	502.37
684.43	499.13
684.77	495.85
685.10	492.80
685.44	489.86
685.78	486.97
686.12	483.97
686.45	481.05
686.79	478.28
687.13	475.75
687.46	472.89
687.80	470.15
688.14	467.28
688.48	464.56
688.81	461.84
689.15	459.37
689.49	456.62
689.82	453.97
690.16	451.05
690.50	448.34
690.83	445.65
691.17	443.02
691.51	440.44
691.84	438.00
692.18	435.75
692.52	433.52
692.85	431.21
693.19	428.91
693.52	426.53
693.86	424.08
694.20	421.55
694.53	419.15
694.87	416.63
695.21	414.27
695.54	411.87
695.88	409.74
696.21	407.40
696.55	405.20
696.88	403.20
697.22	401.38
697.56	399.50
697.89	397.56
698.23	395.65
698.56	393.64
698.90	391.75
699.23	389.67
699.57	387.59
699.90	385.36
700.24	383.42
700.58	381.54
700.91	379.73
701.25	377.87
701.58	376.20
701.92	374.50
702.25	372.80
702.59	371.06
702.92	369.26
703.26	367.60
703.59	366.02
703.93	364.49
704.26	362.76
704.60	360.98
704.93	359.19
705.26	357.47
705.60	356.04
705.93	354.34
706.27	352.87
706.60	351.26
706.94	349.94
707.27	348.34
707.61	346.74
707.94	345.15
708.27	343.60
708.61	342.11
708.94	340.78
709.28	339.33
709.61	337.83
709.94	336.35
710.28	334.72
710.61	333.23
710.95	331.63
711.28	330.30
711.61	328.88
711.95	327.67
712.28	326.35
712.61	324.95
712.95	323.75
713.28	322.54
713.61	321.40
713.95	320.11
714.28	318.99
714.61	317.89
714.95	316.78
715.28	315.66
715.61	314.40
715.95	313.03
716.28	311.74
716.61	310.62
716.95	309.47
717.28	308.46
717.61	307.20
717.94	306.09
718.28	304.99
718.61	304.05
718.94	302.94
719.27	301.82
719.61	300.82
719.94	299.86
720.27	298.71
720.60	297.65
720.94	296.74
721.27	295.87
721.60	295.05
721.93	294.19
722.27	293.39
722.60	292.60
722.93	291.75
723.26	291.01
723.59	290.16
723.93	289.41
724.26	288.56
724.59	287.82
724.92	287.07
725.25	286.29
725.59	285.47
725.92	284.75
726.25	284.04
726.58	283.39
726.91	282.65
727.24	281.90
727.57	281.15
727.91	280.40
728.24	279.54
728.57	278.74
728.90	278.02
729.23	277.07
729.56	276.39
729.89	275.74
730.22	274.99
730.55	274.39
730.89	273.68
731.22	273.01
731.55	272.40
731.88	271.82
732.21	271.27
732.54	270.63
732.87	269.96
733.20	269.38
733.53	268.73
733.86	268.13
734.19	267.55
734.52	267.11
734.85	266.71
735.18	266.20
735.51	265.64
735.84	265.06
736.17	264.61
736.50	263.95
736.83	263.61
737.16	263.20
737.49	262.68
737.82	262.20
738.15	261.75
738.48	261.18
738.81	260.60
739.14	259.88
739.47	259.39
739.80	258.94
740.13	258.35
740.46	257.80
740.79	257.27
741.12	256.79
741.45	256.18
741.78	255.52
742.11	255.08
742.44	254.55
742.77	254.03
743.10	253.60
743.43	253.13
743.75	252.49
744.08	252.20
744.41	251.73
744.74	251.24
745.07	250.76
745.40	250.38
745.73	250.03
746.06	249.61
746.39	249.14
746.71	248.65
747.04	248.28
747.37	247.88
747.70	247.55
748.03	247.13
748.36	246.86
748.68	246.52
749.01	246.00
749.34	245.64
749.67	245.30
750.00	244.89
750.33	244.63
750.65	244.23
750.98	243.64
751.31	243.27
751.64	242.95
751.97	242.66
752.29	242.31
752.62	241.82
752.95	241.58
753.28	241.19
753.60	240.95
753.93	240.66
754.26	240.36
754.59	239.83
754.91	239.51
755.24	239.16
755.57	238.75
755.90	238.44
756.22	238.06
756.55	237.72
756.88	237.37
757.20	237.00
757.53	236.68
757.86	236.39
758.19	236.07
758.51	235.71
758.84	235.25
759.17	234.94
759.49	234.73
759.82	234.47
760.15	234.18
760.47	233.87
760.80	233.57
761.13	233.30
761.45	233.09
761.78	232.86
762.11	232.49
762.43	232.19
762.76	232.00
763.08	231.79
763.41	231.58
763.74	231.37
764.06	231.09
764.39	230.78
764.71	230.47
765.04	230.17
765.37	229.91
765.69	229.74
766.02	229.51
766.34	229.24
766.67	228.92
767.00	228.78
767.32	228.61
767.65	228.52
767.97	228.28
768.30	228.11
768.62	227.85
768.95	227.66
769.27	227.51
769.60	227.33
769.92	227.18
770.25	226.92
770.57	226.73
770.90	226.55
771.22	226.35
771.55	226.29
771.87	226.15
772.20	225.99
772.52	226.05
772.85	226.06
773.17	225.87
773.50	225.76
773.82	225.60
774.15	225.34
774.47	225.09
774.80	224.90
775.12	224.78
775.45	224.68
775.77	224.58
776.09	224.46
776.42	224.30
776.74	224.24
777.07	224.21
777.39	224.08
777.72	223.98
778.04	223.95
778.36	223.80
778.69	223.65
779.01	223.64
779.33	223.36
779.66	223.17
779.98	223.14
780.31	223.05
780.63	222.98
780.95	222.87
781.28	222.78
781.60	222.75
781.92	222.59
782.25	222.43
782.57	222.34
782.89	222.23
783.22	222.15
783.54	222.01
783.86	221.91
784.19	221.85
784.51	221.82
784.83	221.67
785.16	221.60
785.48	221.56
785.80	221.47
786.12	221.30
786.45	221.11
786.77	221.06
787.09	221.04
787.42	220.88
787.74	220.87
788.06	220.75
788.38	220.57
788.71	220.48
789.03	220.45
789.35	220.36
789.67	220.19
789.99	220.13
790.32	220.00
790.64	219.91
790.96	219.99
791.28	219.83
791.61	219.74
791.93	219.65
792.25	219.49
792.57	219.52
792.89	219.50
793.21	219.46
793.54	219.26
793.86	219.09
794.18	219.02
794.50	218.86
794.82	218.75
795.14	218.80
795.47	218.82
795.79	218.77
796.11	218.65
796.43	218.62
796.75	218.57
797.07	218.42
797.39	218.28
797.71	218.04
798.04	217.90
798.36	217.82
798.68	217.69
799.00	217.67
799.32	217.48
799.64	217.37
799.96	217.35
800.28	217.34
800.60	217.23
800.92	217.23
801.24	217.21
801.56	217.18
801.89	217.05
802.21	216.95
802.53	216.79
802.85	216.80
803.17	216.78
803.49	216.70
803.81	216.70
804.13	216.68
804.45	216.62
804.77	216.62
805.09	216.61
805.41	216.52
805.73	216.46
806.05	216.29
806.37	216.23
806.69	216.10
807.01	215.98
807.33	215.96
807.65	215.80
807.97	215.87
808.28	215.79
808.60	215.70
808.92	215.59
809.24	215.69
809.56	215.61
809.88	215.49
810.20	215.44
810.52	215.40
810.84	215.34
811.16	215.26
811.48	215.19
811.80	215.21
812.12	215.25
812.43	215.20
812.75	215.20
813.07	215.15
813.39	215.13
813.71	215.09
814.03	215.05
814.35	215.03
814.67	214.92
814.98	214.83
815.30	214.82
815.62	214.84
815.94	214.58
816.26	214.52
816.58	214.48
816.89	214.40
817.21	214.38
817.53	214.28
817.85	214.23
818.17	214.18
818.48	214.04
818.80	214.00
819.12	213.96
819.44	213.93
819.76	213.91
820.07	213.92
820.39	213.86
820.71	213.91
821.03	213.94
821.34	213.88
821.66	213.88
821.98	213.89
822.30	213.82
822.61	213.96
822.93	213.97
823.25	214.01
823.57	213.96
823.88	213.90
824.20	214.00
824.52	214.11
824.83	214.07
825.15	214.04
825.47	213.94
825.79	213.99
826.10	213.95
826.42	213.94
826.74	213.99
827.05	213.96
827.37	213.88
827.69	213.77
828.00	213.73
828.32	213.74
828.64	213.71
828.95	213.74
829.27	213.68
829.58	213.63
829.90	213.56
830.22	213.55
830.53	213.51
830.85	213.41
831.17	213.23
831.48	213.20
831.80	213.22
832.11	213.31
832.43	213.21
832.75	213.15
833.06	213.23
833.38	213.06
833.69	213.08
834.01	213.04
834.32	213.00
834.64	213.01
834.96	212.94
835.27	212.88
835.59	212.86
835.90	212.84
836.22	212.78
836.53	212.76
836.85	212.74
837.16	212.90
837.48	212.87
837.79	212.92
838.11	212.90
838.42	212.86
838.74	212.78
839.05	212.76
839.37	212.83
839.68	212.71
840.00	212.68
840.31	212.65
840.63	212.63
840.94	212.60
841.26	212.57
841.57	212.59
841.88	212.57
842.20	212.53
842.51	212.41
842.83	212.50
843.14	212.57
843.46	212.57
843.77	212.45
844.08	212.47
844.40	212.43
844.71	212.49
845.03	212.53
845.34	212.49
845.65	212.47
845.97	212.38
846.28	212.34
846.60	212.32
846.91	212.32
847.22	212.31
847.54	212.37
847.85	212.32
848.16	212.25
848.48	212.17
848.79	212.13
849.10	212.19
849.42	212.12
849.73	212.02
850.04	212.05
850.36	211.98
850.67	212.04
850.98	212.05
851.30	212.02
851.61	212.05
851.92	212.04
852.23	212.16
852.55	212.17
852.86	212.19
853.17	212.25
853.49	212.26
853.80	212.24
854.11	212.20
854.42	212.21
854.74	212.25
855.05	212.35
855.36	212.30
855.67	212.28
855.99	212.26
856.30	212.45
856.61	212.44
856.92	212.42
857.23	212.37
857.55	212.31
857.86	212.28
858.17	212.21
858.48	212.14
858.79	212.08
859.11	212.03
859.42	211.98
859.73	211.96
860.04	211.95
860.35	211.90
860.66	211.87
860.98	211.86
861.29	211.91
861.60	211.90
861.91	211.95
862.22	211.91
862.53	211.92
862.84	211.75
863.16	211.80
863.47	211.76
863.78	211.73
864.09	211.75
864.40	211.80
864.71	211.86
865.02	211.91
865.33	211.84
865.64	211.87
865.95	211.90
866.27	212.01
866.58	212.03
866.89	212.08
867.20	212.15
867.51	212.14
867.82	212.07
868.13	212.08
868.44	212.04
868.75	212.07
869.06	212.05
869.37	211.98
869.68	211.95
869.99	211.99
870.30	211.99
870.61	212.06
870.92	211.99
871.23	211.98
871.54	211.99
871.85	211.98
872.16	211.93
872.47	211.95
872.78	211.79
873.09	211.77
873.40	211.83
873.71	211.83
874.02	211.88
874.33	211.87
874.64	211.86
874.95	211.90
875.26	211.89
875.56	211.97
875.87	212.01
876.18	211.96
876.49	212.09
876.80	212.08
877.11	212.01
877.42	212.02
877.73	211.89
878.04	211.84
878.35	211.88
878.66	211.93
878.96	211.88
879.27	211.95
879.58	211.96
879.89	211.90
880.20	211.85
880.51	211.78
880.82	211.78
881.12	211.77
881.43	211.74
881.74	211.68
882.05	211.57
882.36	211.61
882.67	211.67
882.97	211.50
883.28	211.48
883.59	211.49
883.90	211.41
884.21	211.45
884.51	211.57
884.82	211.53
885.13	211.49
885.44	211.48
885.74	211.44
886.05	211.34
886.36	211.35
886.67	211.38
886.98	211.46
887.28	211.50
887.59	211.51
887.90	211.53
888.20	211.60
888.51	211.64
888.82	211.61
889.13	211.52
889.43	211.70
889.74	211.64
890.05	211.64
890.35	211.68
890.66	211.69
890.97	211.66
891.28	211.71
891.58	211.69
891.89	211.72
892.20	211.73
892.50	211.80
892.81	211.81
893.12	211.81
893.42	211.72
893.73	211.71
894.04	211.64
894.34	211.64
894.65	211.58
894.95	211.59
895.26	211.52
895.57	211.69
895.87	211.46
896.18	211.45
896.48	211.45
896.79	211.40
897.10	211.45
897.40	211.40
897.71	211.41
898.01	211.46
898.32	211.45
898.63	211.45
898.93	211.42
899.24	211.43
899.54	211.34
899.85	211.36
900.15	211.37
900.46	211.42
900.76	211.41
901.07	211.42
901.38	211.39
901.68	211.47
901.99	211.36
902.29	211.37
902.60	211.45
902.90	211.45
903.21	211.45
903.51	211.41
903.82	211.42
904.12	211.40
904.43	211.37
904.73	211.38
905.03	211.37
905.34	211.49
905.64	211.45
905.95	211.47
906.25	211.41
906.56	211.35
906.86	211.32
907.17	211.31
907.47	211.38
907.77	211.33
908.08	211.22
908.38	211.24
908.69	211.25
908.99	211.23
909.30	211.25
909.60	211.23
909.90	211.20
910.21	211.15
910.51	211.08
910.81	211.08
911.12	211.04
911.42	210.99
911.73	210.87
912.03	210.80
912.33	210.82
912.64	210.85
912.94	210.80
913.24	210.79
913.55	210.76
913.85	210.65
914.15	210.75
914.46	210.80
914.76	210.77
915.06	210.79
915.37	210.78
915.67	210.77
915.97	210.82
916.27	210.77
916.58	210.80
916.88	210.90
917.18	210.87
917.49	211.03
917.79	211.06
918.09	211.03
918.39	211.17
918.70	211.23
919.00	211.20
919.30	211.33
919.60	211.29
919.91	211.18
920.21	211.15
920.51	211.07
920.81	211.14
921.12	211.15
921.42	211.12
921.72	211.11
922.02	211.10
922.32	211.15
922.63	211.28
922.93	211.32
923.23	211.28
923.53	211.31
923.83	211.20
924.13	211.20
924.44	211.19
924.74	211.21
925.04	211.19
925.34	211.24
925.64	211.21
925.94	211.18
926.24	211.35
926.55	211.39
926.85	211.39
927.15	211.30
927.45	211.31
927.75	211.35
928.05	211.33
928.35	211.30
928.65	211.34
928.95	211.29
929.26	211.30
929.56	211.33
929.86	211.35
930.16	211.27
930.46	211.27
930.76	211.27
931.06	211.19
931.36	211.16
931.66	211.20
931.96	211.25
932.26	211.30
932.56	211.26
932.86	211.30
933.16	211.33
933.46	211.33
933.76	211.35
934.06	211.41
934.36	211.54
934.66	211.54
934.96	211.50
935.26	211.54
935.56	211.52
935.86	211.50
936.16	211.48
936.46	211.55
936.76	211.55
937.06	211.59
937.36	211.53
937.66	211.55
937.96	211.48
938.26	211.42
938.56	211.45
938.86	211.46
939.16	211.50
939.46	211.58
939.76	211.58
940.06	211.53
940.35	211.40
940.65	211.28
940.95	211.29
941.25	211.20
941.55	211.09
941.85	211.07
942.15	211.05
942.45	211.08
942.75	211.07
943.04	211.08
943.34	211.09
943.64	211.04
943.94	210.96
944.24	211.02
944.54	211.06
944.84	211.08
945.13	211.08
945.43	210.97
945.73	210.97
946.03	211.04
946.33	210.94
946.62	211.01
946.92	211.05
947.22	211.07
947.52	211.12
947.82	211.25
948.11	211.27
948.41	211.16
948.71	211.16
949.01	211.21
949.31	211.18
949.60	211.20
949.90	211.25
950.20	211.27
950.50	211.22
950.79	211.16
951.09	211.14
951.39	211.10
951.69	211.15
951.98	211.15
952.28	211.12
952.58	211.22
952.87	211.20
953.17	211.18
953.47	211.16
953.76	211.21
954.06	211.13
954.36	211.07
954.66	211.14
954.95	211.20
955.25	211.22
955.55	211.29
955.84	211.26
956.14	211.34
956.44	211.36
956.73	211.30
957.03	211.31
957.32	211.31
957.62	211.36
957.92	211.41
958.21	211.37
958.51	211.65
958.81	211.62
959.10	211.64
959.40	211.67
959.69	211.69
959.99	211.68
960.29	211.73
960.58	211.73
960.88	211.83
961.17	211.75
961.47	211.70
961.76	211.63
962.06	211.64
962.36	211.64
962.65	211.60
962.95	211.63
963.24	211.59
963.54	211.57
963.83	211.52
964.13	211.48
964.42	211.44
964.72	211.20
965.01	211.15
965.31	211.01
965.60	210.96
965.90	211.09
966.19	211.01
966.49	210.96
966.78	210.94
967.08	210.88
967.37	210.87
967.67	210.88
967.96	210.85
968.26	210.85
968.55	210.77
968.85	210.85
969.14	210.80
969.43	210.79
969.73	210.78
970.02	210.69
970.32	210.70
970.61	210.74
970.91	210.74
971.20	210.78
971.49	210.85
971.79	210.85
972.08	210.66
972.38	210.66
972.67	210.66
972.96	210.68
973.26	210.64
973.55	210.74
973.85	210.68
974.14	210.70
974.43	210.67
974.73	210.60
975.02	210.63
975.31	210.63
975.61	210.68
975.90	210.71
976.19	210.71
976.49	210.69
976.78	210.63
977.07	210.70
977.37	210.74
977.66	210.73
977.95	210.75
978.24	210.77
978.54	210.79
978.83	210.80
979.12	210.82
979.42	210.84
979.71	210.74
980.00	210.77
980.29	210.75
980.59	210.77
980.88	210.91
981.17	210.82
981.46	210.85
981.76	210.87
982.05	210.88
982.34	210.94
982.63	210.91
982.93	210.94
983.22	210.88
983.51	210.85
983.80	210.94
984.09	210.95
984.39	210.94
984.68	210.94
984.97	210.94
985.26	210.98
985.55	211.00
985.85	211.02
986.14	210.99
986.43	211.05
986.72	211.02
987.01	210.96
987.30	210.93
987.59	210.96
987.89	210.95
988.18	210.85
988.47	210.88
988.76	210.93
989.05	210.93
989.34	210.82
989.63	210.88
989.92	210.82
990.22	210.81
990.51	210.81
990.80	210.80
991.09	210.80
991.38	210.78
991.67	210.74
991.96	210.72
992.25	210.78
992.54	210.74
992.83	210.75
993.12	210.76
993.41	210.83
993.70	210.83
993.99	210.87
994.28	210.92
994.58	210.89
994.87	210.86
995.16	210.81
995.45	210.83
995.74	210.76
996.03	210.79
996.32	210.80
996.61	210.84
996.90	210.88
997.19	210.87
997.48	210.84
997.77	210.85
998.06	210.81
998.34	210.75
998.63	210.75
998.92	210.73
999.21	210.76
999.50	210.75
999.79	210.80
1000.08	210.76
1000.37	210.81
1000.66	210.84
1000.95	210.85
1001.24	210.91
1001.53	210.99
1001.82	210.98
1002.11	210.95
1002.40	210.98
1002.68	211.05
1002.97	211.15
1003.26	211.15
1003.55	211.11
1003.84	211.02
1004.13	211.11
1004.42	211.11
1004.71	211.06
1004.99	211.11
1005.28	211.20
1005.57	211.17
1005.86	211.09
1006.15	211.06
1006.44	211.00
1006.72	210.97
1007.01	210.99
1007.30	211.02
1007.59	210.98
1007.88	210.98
1008.17	210.95
1008.45	210.91
1008.74	210.77
1009.03	210.66
1009.32	210.60
1009.60	210.67
1009.89	210.72
1010.18	210.66
1010.47	210.67
1010.76	210.69
1011.04	210.70
1011.33	210.63
1011.62	210.66
1011.91	210.62
1012.19	210.63
1012.48	210.63
1012.77	210.63
1013.05	210.68
1013.34	210.59
1013.63	210.61
1013.92	210.57
1014.20	210.56
1014.49	210.55
1014.78	210.56
1015.06	210.54
1015.35	210.61
1015.64	210.63
1015.92	210.65
1016.21	210.59
1016.50	210.60
1016.78	210.64
1017.07	210.60
1017.36	210.58
1017.64	210.56
1017.93	210.60
1018.22	210.53
1018.50	210.54
1018.79	210.57
1019.08	210.44
1019.36	210.44
1019.65	210.35
1019.93	210.41
1020.22	210.43
1020.51	210.53
1020.79	210.55
1021.08	209.15
1021.36	210.10
1021.65	210.95
1021.94	209.90
1022.22	210.20
1022.51	209.50
1022.79	210.85
1023.08	210.55
1023.36	212.65
1023.65	210.45
>>>>>End Processed Spectral Data<<<<<
