SpectraSuite Data File
++++++++++++++++++++++++++++++++++++
Date: Fri Feb 01 14:34:29 EST 2013
User: group
Dark Spectrum Present: No
Reference Spectrum Present: No
Number of Sampled Component Spectra: 1
Spectrometers: USB2E7196
Integration Time (usec): 70000 (USB2E7196)
Spectra Averaged: 10 (USB2E7196)
Boxcar Smoothing: 10 (USB2E7196)
Correct for Electrical Dark: No (USB2E7196)
Strobe/Lamp Enabled: No (USB2E7196)
Correct for Detector Non-linearity: No (USB2E7196)
Correct for Stray Light: No (USB2E7196)
Number of Pixels in Processed Spectrum: 2048
>>>>>Begin Processed Spectral Data<<<<<
339.09	0.00
339.48	215.40
339.86	216.50
340.24	219.30
340.63	219.80
341.01	223.50
341.39	224.30
341.78	224.60
342.16	225.80
342.54	227.20
342.93	214.74
343.31	225.64
343.69	226.20
344.07	226.71
344.46	227.12
344.84	227.52
345.22	227.75
345.60	227.93
345.99	228.14
346.37	228.25
346.75	228.21
347.13	228.28
347.52	228.30
347.90	228.41
348.28	228.49
348.66	228.55
349.05	228.54
349.43	228.52
349.81	228.68
350.19	228.61
350.57	228.54
350.96	228.55
351.34	228.57
351.72	228.65
352.10	228.83
352.48	228.90
352.87	228.97
353.25	229.06
353.63	229.13
354.01	229.16
354.39	229.24
354.77	229.39
355.15	229.56
355.54	229.59
355.92	229.64
356.30	229.62
356.68	229.71
357.06	229.83
357.44	229.89
357.82	229.85
358.20	230.10
358.58	230.10
358.97	230.18
359.35	230.22
359.73	230.35
360.11	230.30
360.49	230.39
360.87	230.44
361.25	230.44
361.63	230.47
362.01	230.58
362.39	230.59
362.77	230.65
363.15	230.59
363.53	230.62
363.91	230.62
364.29	230.72
364.67	230.51
365.05	230.50
365.43	230.60
365.81	230.60
366.19	230.46
366.57	230.65
366.95	230.71
367.33	230.74
367.71	230.71
368.09	230.74
368.47	230.60
368.85	230.59
369.23	230.63
369.61	230.59
369.99	230.55
370.37	230.57
370.75	230.59
371.13	230.50
371.51	230.59
371.89	230.58
372.27	230.47
372.65	230.48
373.03	230.35
373.41	230.25
373.78	230.14
374.16	230.09
374.54	229.91
374.92	229.80
375.30	229.60
375.68	229.43
376.06	229.43
376.44	229.37
376.82	229.22
377.19	229.15
377.57	229.14
377.95	229.12
378.33	228.93
378.71	228.79
379.09	228.77
379.47	228.66
379.84	228.62
380.22	228.50
380.60	228.40
380.98	228.29
381.36	228.24
381.73	228.17
382.11	228.08
382.49	228.00
382.87	227.88
383.25	227.87
383.62	228.19
384.00	228.03
384.38	228.05
384.76	228.02
385.13	227.98
385.51	227.83
385.89	227.62
386.27	227.58
386.64	227.51
387.02	227.45
387.40	227.37
387.78	227.29
388.15	227.38
388.53	227.33
388.91	227.43
389.29	227.35
389.66	227.40
390.04	227.37
390.42	227.36
390.79	227.33
391.17	227.33
391.55	226.90
391.92	226.91
392.30	226.92
392.68	226.94
393.05	226.95
393.43	227.02
393.81	227.09
394.18	227.13
394.56	227.18
394.94	227.21
395.31	227.23
395.69	227.31
396.06	227.35
396.44	227.56
396.82	227.59
397.19	227.81
397.57	227.85
397.95	228.03
398.32	228.22
398.70	228.38
399.07	228.57
399.45	228.78
399.82	228.97
400.20	229.13
400.58	229.36
400.95	229.47
401.33	229.56
401.70	229.79
402.08	230.10
402.45	230.30
402.83	230.62
403.20	230.92
403.58	231.16
403.95	231.48
404.33	231.71
404.71	232.03
405.08	232.36
405.46	232.67
405.83	233.03
406.21	233.29
406.58	233.59
406.96	234.08
407.33	234.47
407.70	234.88
408.08	235.47
408.45	235.89
408.83	236.55
409.20	237.14
409.58	237.70
409.95	238.33
410.33	239.09
410.70	239.83
411.08	240.65
411.45	241.51
411.82	242.41
412.20	243.38
412.57	244.50
412.95	245.45
413.32	246.60
413.69	247.78
414.07	249.17
414.44	250.72
414.82	252.11
415.19	253.89
415.56	255.61
415.94	257.45
416.31	259.60
416.68	261.37
417.06	263.69
417.43	265.97
417.81	268.40
418.18	270.85
418.55	273.38
418.93	276.18
419.30	279.16
419.67	282.11
420.04	285.20
420.42	288.44
420.79	292.20
421.16	296.10
421.54	300.01
421.91	303.89
422.28	308.15
422.66	312.72
423.03	317.05
423.40	321.53
423.77	326.32
424.15	331.19
424.52	336.34
424.89	341.85
425.26	347.22
425.64	352.15
426.01	357.86
426.38	363.71
426.75	369.56
427.13	375.58
427.50	381.99
427.87	388.87
428.24	395.60
428.61	402.00
428.99	408.89
429.36	416.63
429.73	424.22
430.10	431.48
430.47	438.93
430.85	446.81
431.22	455.12
431.59	463.59
431.96	472.10
432.33	481.53
432.70	490.54
433.08	501.07
433.45	511.29
433.82	521.10
434.19	532.09
434.56	542.85
434.93	552.96
435.30	563.20
435.68	574.53
436.05	585.62
436.42	596.50
436.79	606.68
437.16	617.56
437.53	629.00
437.90	640.36
438.27	651.48
438.64	662.99
439.01	673.76
439.38	683.46
439.75	692.55
440.13	703.14
440.50	713.31
440.87	721.52
441.24	730.25
441.61	739.86
441.98	747.15
442.35	755.72
442.72	764.42
443.09	772.76
443.46	777.88
443.83	781.79
444.20	785.60
444.57	790.42
444.94	792.88
445.31	795.74
445.68	798.49
446.05	800.50
446.42	800.86
446.79	800.91
447.16	801.06
447.53	801.70
447.90	799.05
448.27	796.09
448.64	791.61
449.01	788.74
449.37	782.43
449.74	776.32
450.11	768.59
450.48	760.33
450.85	752.00
451.22	745.03
451.59	738.27
451.96	731.79
452.33	722.53
452.70	714.51
453.07	704.45
453.43	694.44
453.80	684.65
454.17	674.87
454.54	665.68
454.91	655.79
455.28	645.81
455.65	636.63
456.02	627.32
456.38	619.37
456.75	609.25
457.12	601.30
457.49	593.08
457.86	585.26
458.23	578.40
458.59	570.54
458.96	562.73
459.33	555.95
459.70	549.07
460.07	543.57
460.43	537.10
460.80	531.05
461.17	525.77
461.54	519.97
461.91	514.60
462.27	509.09
462.64	504.20
463.01	498.94
463.38	493.88
463.74	488.98
464.11	484.70
464.48	480.82
464.85	476.38
465.21	473.13
465.58	469.74
465.95	465.58
466.32	462.31
466.68	458.96
467.05	455.39
467.42	451.84
467.78	448.23
468.15	444.94
468.52	442.37
468.88	438.93
469.25	436.03
469.62	433.63
469.98	431.04
470.35	428.58
470.72	426.40
471.08	423.96
471.45	421.80
471.82	419.62
472.18	417.23
472.55	415.42
472.92	413.29
473.28	411.25
473.65	409.52
474.02	407.74
474.38	406.10
474.75	404.80
475.11	403.42
475.48	402.47
475.85	401.44
476.21	400.52
476.58	399.61
476.94	398.75
477.31	397.90
477.67	396.99
478.04	396.34
478.41	395.86
478.77	395.47
479.14	394.95
479.50	394.60
479.87	394.42
480.23	394.47
480.60	394.17
480.96	394.13
481.33	394.32
481.69	394.42
482.06	394.64
482.42	394.63
482.79	394.85
483.15	395.25
483.52	395.80
483.88	396.37
484.25	396.96
484.61	397.69
484.98	398.43
485.34	399.55
485.71	400.68
486.07	401.72
486.44	402.68
486.80	403.97
487.17	405.30
487.53	407.06
487.90	408.54
488.26	410.42
488.62	412.00
488.99	413.64
489.35	415.53
489.72	417.51
490.08	419.87
490.44	421.99
490.81	424.27
491.17	426.67
491.54	429.00
491.90	431.55
492.26	434.22
492.63	437.09
492.99	439.70
493.36	442.66
493.72	445.63
494.08	448.94
494.45	452.15
494.81	455.55
495.17	458.85
495.54	462.32
495.90	465.71
496.26	469.65
496.63	473.55
496.99	477.51
497.35	481.54
497.72	485.44
498.08	489.46
498.44	493.47
498.80	497.91
499.17	502.25
499.53	506.43
499.89	510.66
500.26	514.90
500.62	519.40
500.98	524.00
501.34	528.61
501.71	533.08
502.07	537.61
502.43	542.00
502.79	546.48
503.16	551.18
503.52	556.10
503.88	560.50
504.24	565.08
504.60	569.30
504.97	573.77
505.33	578.28
505.69	583.21
506.05	587.82
506.41	592.01
506.78	596.33
507.14	600.98
507.50	605.64
507.86	610.34
508.22	614.96
508.59	619.22
508.95	623.54
509.31	627.98
509.67	632.67
510.03	637.08
510.39	641.39
510.75	645.59
511.12	649.64
511.48	653.83
511.84	657.73
512.20	661.87
512.56	666.07
512.92	670.01
513.28	673.75
513.64	677.66
514.00	681.47
514.37	685.26
514.73	688.70
515.09	691.93
515.45	695.17
515.81	698.12
516.17	701.40
516.53	704.57
516.89	707.49
517.25	710.18
517.61	713.18
517.97	715.82
518.33	718.65
518.69	721.30
519.05	724.04
519.41	726.65
519.77	729.53
520.13	731.87
520.49	734.32
520.85	736.70
521.21	738.99
521.57	741.47
521.93	743.79
522.29	746.23
522.65	748.49
523.01	750.43
523.37	752.45
523.73	754.68
524.09	756.61
524.45	758.79
524.81	760.85
525.17	762.97
525.53	765.51
525.89	767.42
526.25	769.49
526.61	771.35
526.97	773.42
527.33	775.32
527.68	777.28
528.04	779.13
528.40	781.00
528.76	783.09
529.12	785.20
529.48	787.19
529.84	789.03
530.20	791.27
530.56	793.58
530.91	796.49
531.27	798.66
531.63	801.03
531.99	803.31
532.35	805.43
532.71	807.37
533.07	809.44
533.42	811.60
533.78	813.98
534.14	816.18
534.50	818.30
534.86	820.53
535.21	822.51
535.57	825.03
535.93	827.45
536.29	829.80
536.65	831.93
537.00	834.03
537.36	836.73
537.72	839.19
538.08	841.64
538.44	843.55
538.79	845.72
539.15	847.78
539.51	850.28
539.87	853.05
540.22	855.82
540.58	858.45
540.94	861.10
541.29	863.24
541.65	866.01
542.01	868.73
542.37	871.22
542.72	874.08
543.08	876.60
543.44	879.36
543.79	881.59
544.15	883.95
544.51	886.88
544.87	889.37
545.22	891.85
545.58	894.54
545.94	897.13
546.29	899.62
546.65	902.48
547.01	904.70
547.36	907.00
547.72	909.18
548.07	911.60
548.43	913.97
548.79	916.43
549.14	918.51
549.50	920.76
549.86	923.42
550.21	925.74
550.57	928.14
550.92	930.51
551.28	933.10
551.64	935.63
551.99	938.10
552.35	940.59
552.70	943.20
553.06	945.60
553.41	948.21
553.77	950.91
554.13	953.37
554.48	955.85
554.84	958.45
555.19	960.93
555.55	963.29
555.90	965.62
556.26	968.23
556.61	970.85
556.97	973.20
557.32	975.36
557.68	977.66
558.03	980.04
558.39	982.23
558.74	984.79
559.10	987.17
559.45	989.49
559.81	992.06
560.16	993.90
560.52	996.12
560.87	998.27
561.23	1000.28
561.58	1002.56
561.94	1004.79
562.29	1006.68
562.64	1008.60
563.00	1010.46
563.35	1012.76
563.71	1014.97
564.06	1017.22
564.42	1019.42
564.77	1021.62
565.12	1023.90
565.48	1026.03
565.83	1027.83
566.19	1029.82
566.54	1031.58
566.89	1033.27
567.25	1034.67
567.60	1036.95
567.96	1038.55
568.31	1040.43
568.66	1041.86
569.02	1042.92
569.37	1044.10
569.72	1045.64
570.08	1046.97
570.43	1048.26
570.78	1049.27
571.14	1049.97
571.49	1050.81
571.84	1052.12
572.20	1052.67
572.55	1053.49
572.90	1053.69
573.26	1054.46
573.61	1054.42
573.96	1055.00
574.31	1054.79
574.67	1054.62
575.02	1054.19
575.37	1054.06
575.72	1053.20
576.08	1053.13
576.43	1053.31
576.78	1053.31
577.13	1053.01
577.49	1052.75
577.84	1052.33
578.19	1051.71
578.54	1051.20
578.90	1050.38
579.25	1048.79
579.60	1047.86
579.95	1046.51
580.30	1045.63
580.66	1044.33
581.01	1043.49
581.36	1042.33
581.71	1041.72
582.06	1040.96
582.42	1039.84
582.77	1038.73
583.12	1037.60
583.47	1036.77
583.82	1035.66
584.17	1034.20
584.53	1032.56
584.88	1031.24
585.23	1029.69
585.58	1028.26
585.93	1026.85
586.28	1025.83
586.63	1024.95
586.98	1023.84
587.34	1022.77
587.69	1021.43
588.04	1020.21
588.39	1018.79
588.74	1016.83
589.09	1015.10
589.44	1012.89
589.79	1011.35
590.14	1009.85
590.49	1008.05
590.84	1005.98
591.19	1003.89
591.54	1001.70
591.89	999.49
592.25	997.44
592.60	995.18
592.95	992.81
593.30	990.59
593.65	988.03
594.00	985.59
594.35	983.62
594.70	980.72
595.05	978.64
595.40	975.85
595.75	973.22
596.10	970.93
596.45	968.93
596.80	966.89
597.15	964.51
597.50	961.74
597.85	959.59
598.19	957.24
598.54	954.95
598.89	952.76
599.24	950.68
599.59	948.47
599.94	946.15
600.29	943.91
600.64	941.25
600.99	938.50
601.34	935.89
601.69	932.62
602.04	930.44
602.39	927.65
602.74	925.38
603.08	923.00
603.43	920.71
603.78	917.70
604.13	915.15
604.48	912.31
604.83	909.87
605.18	907.51
605.53	904.50
605.87	901.15
606.22	898.36
606.57	895.68
606.92	892.78
607.27	890.22
607.62	887.67
607.96	885.19
608.31	882.77
608.66	879.78
609.01	876.89
609.36	873.75
609.70	870.17
610.05	867.09
610.40	864.16
610.75	860.80
611.10	857.59
611.44	853.90
611.79	851.04
612.14	847.59
612.49	843.76
612.83	840.25
613.18	837.02
613.53	833.77
613.88	830.05
614.22	826.28
614.57	822.53
614.92	818.86
615.27	815.60
615.61	811.84
615.96	808.78
616.31	805.49
616.65	802.60
617.00	799.65
617.35	796.12
617.70	792.33
618.04	788.64
618.39	785.23
618.74	782.19
619.08	778.21
619.43	775.08
619.78	771.98
620.12	768.83
620.47	765.74
620.82	762.25
621.16	759.12
621.51	756.33
621.85	753.14
622.20	749.70
622.55	746.19
622.89	742.89
623.24	739.42
623.59	736.42
623.93	733.10
624.28	730.02
624.62	727.17
624.97	724.38
625.32	721.65
625.66	718.60
626.01	715.61
626.35	712.91
626.70	709.77
627.04	706.79
627.39	703.48
627.73	700.33
628.08	697.23
628.43	694.00
628.77	690.85
629.12	687.95
629.46	685.08
629.81	681.89
630.15	678.83
630.50	675.64
630.84	672.22
631.19	668.90
631.53	665.63
631.88	662.08
632.22	658.48
632.57	655.48
632.91	652.39
633.26	649.37
633.60	646.03
633.95	643.05
634.29	639.72
634.64	637.01
634.98	633.90
635.32	631.07
635.67	628.49
636.01	625.59
636.36	622.54
636.70	619.60
637.05	617.08
637.39	614.44
637.73	611.86
638.08	609.47
638.42	606.92
638.77	604.40
639.11	601.83
639.45	599.48
639.80	596.77
640.14	594.15
640.49	591.45
640.83	589.08
641.17	586.37
641.52	584.06
641.86	581.32
642.20	578.92
642.55	576.43
642.89	573.66
643.23	571.00
643.58	568.88
643.92	566.43
644.26	563.75
644.61	561.36
644.95	558.90
645.29	556.06
645.64	553.42
645.98	550.81
646.32	548.40
646.66	545.86
647.01	543.36
647.35	541.03
647.69	538.69
648.04	536.29
648.38	533.78
648.72	531.11
649.06	528.62
649.41	526.14
649.75	523.58
650.09	521.27
650.43	518.70
650.78	515.81
651.12	513.36
651.46	510.99
651.80	508.70
652.14	506.28
652.49	504.22
652.83	501.86
653.17	499.42
653.51	497.08
653.85	494.64
654.20	492.33
654.54	489.72
654.88	487.16
655.22	484.75
655.56	482.33
655.90	480.12
656.25	477.97
656.59	475.71
656.93	473.35
657.27	470.86
657.61	468.51
657.95	466.50
658.29	464.28
658.64	462.00
658.98	459.43
659.32	457.12
659.66	454.73
660.00	452.52
660.34	450.48
660.68	448.27
661.02	446.14
661.36	443.94
661.70	442.10
662.05	440.12
662.39	438.16
662.73	436.16
663.07	434.29
663.41	432.40
663.75	430.50
664.09	428.83
664.43	427.14
664.77	425.60
665.11	423.84
665.45	421.95
665.79	420.15
666.13	418.30
666.47	416.58
666.81	414.67
667.15	412.74
667.49	411.08
667.83	409.49
668.17	407.68
668.51	405.92
668.85	404.18
669.19	402.52
669.53	400.67
669.87	399.05
670.21	397.44
670.55	395.86
670.89	394.31
671.23	392.73
671.57	391.00
671.91	389.35
672.25	387.65
672.58	386.32
672.92	384.90
673.26	383.57
673.60	382.09
673.94	380.87
674.28	379.64
674.62	378.23
674.96	376.83
675.30	375.66
675.64	374.39
675.97	372.92
676.31	371.66
676.65	370.41
676.99	369.21
677.33	367.85
677.67	366.53
678.01	365.20
678.34	363.80
678.68	362.62
679.02	361.32
679.36	360.12
679.70	358.80
680.04	357.44
680.37	356.19
680.71	354.99
681.05	353.80
681.39	352.67
681.73	351.57
682.06	350.43
682.40	349.22
682.74	348.18
683.08	347.10
683.42	345.88
683.75	344.85
684.09	343.61
684.43	342.43
684.77	341.33
685.10	340.30
685.44	339.27
685.78	338.25
686.12	337.18
686.45	336.08
686.79	334.92
687.13	333.83
687.46	332.77
687.80	331.74
688.14	330.68
688.48	329.71
688.81	328.63
689.15	327.59
689.49	326.68
689.82	325.67
690.16	324.78
690.50	323.88
690.83	322.87
691.17	321.96
691.51	321.07
691.84	320.15
692.18	319.07
692.52	318.22
692.85	317.34
693.19	316.54
693.52	315.75
693.86	314.94
694.20	314.29
694.53	313.60
694.87	312.84
695.21	311.99
695.54	311.03
695.88	310.12
696.21	309.23
696.55	308.32
696.88	307.39
697.22	306.59
697.56	305.86
697.89	305.09
698.23	304.28
698.56	303.61
698.90	302.89
699.23	302.03
699.57	301.11
699.90	300.21
700.24	299.40
700.58	298.49
700.91	297.81
701.25	297.03
701.58	296.31
701.92	295.55
702.25	294.90
702.59	294.23
702.92	293.62
703.26	292.92
703.59	292.28
703.93	291.81
704.26	291.03
704.60	290.33
704.93	289.63
705.26	289.10
705.60	288.40
705.93	287.73
706.27	287.40
706.60	286.84
706.94	286.30
707.27	285.55
707.61	284.99
707.94	284.41
708.27	283.62
708.61	282.89
708.94	282.34
709.28	281.71
709.61	281.11
709.94	280.50
710.28	279.96
710.61	279.35
710.95	278.53
711.28	278.09
711.61	277.49
711.95	277.01
712.28	276.38
712.61	275.73
712.95	275.27
713.28	274.77
713.61	274.17
713.95	273.70
714.28	273.28
714.61	272.77
714.95	272.21
715.28	271.80
715.61	271.31
715.95	270.74
716.28	270.20
716.61	269.74
716.95	269.25
717.28	268.74
717.61	268.30
717.94	267.92
718.28	267.37
718.61	266.83
718.94	266.38
719.27	265.96
719.61	265.61
719.94	265.03
720.27	264.48
720.60	264.19
720.94	263.70
721.27	263.43
721.60	263.06
721.93	262.70
722.27	262.41
722.60	262.06
722.93	261.74
723.26	261.45
723.59	260.99
723.93	260.72
724.26	260.47
724.59	260.08
724.92	259.78
725.25	259.56
725.59	259.41
725.92	259.09
726.25	258.82
726.58	258.59
726.91	258.40
727.24	258.10
727.57	257.80
727.91	257.61
728.24	257.32
728.57	257.18
728.90	256.99
729.23	256.53
729.56	256.49
729.89	256.27
730.22	256.01
730.55	255.91
730.89	255.58
731.22	255.40
731.55	255.24
731.88	255.08
732.21	254.70
732.54	254.35
732.87	254.16
733.20	253.88
733.53	253.67
733.86	253.44
734.19	253.15
734.52	252.97
734.85	252.93
735.18	252.71
735.51	252.40
735.84	252.16
736.17	252.18
736.50	251.90
736.83	251.97
737.16	251.76
737.49	251.50
737.82	251.33
738.15	251.04
738.48	250.78
738.81	250.47
739.14	250.41
739.47	250.28
739.80	250.07
740.13	249.89
740.46	249.58
740.79	249.40
741.12	249.30
741.45	249.16
741.78	248.81
742.11	248.50
742.44	248.20
742.77	247.94
743.10	247.74
743.43	247.37
743.75	246.83
744.08	246.84
744.41	246.67
744.74	246.50
745.07	246.32
745.40	246.29
745.73	246.20
746.06	246.03
746.39	245.83
746.71	245.52
747.04	245.34
747.37	245.22
747.70	244.96
748.03	244.89
748.36	244.62
748.68	244.40
749.01	244.29
749.34	244.20
749.67	244.09
750.00	243.89
750.33	243.90
750.65	243.82
750.98	243.40
751.31	243.23
751.64	243.05
751.97	243.01
752.29	242.65
752.62	242.35
752.95	242.12
753.28	241.96
753.60	241.77
753.93	241.66
754.26	241.41
754.59	241.23
754.91	240.89
755.24	240.62
755.57	240.36
755.90	240.03
756.22	239.87
756.55	239.61
756.88	239.34
757.20	239.05
757.53	238.82
757.86	238.75
758.19	238.51
758.51	238.39
758.84	238.07
759.17	237.95
759.49	237.92
759.82	237.86
760.15	237.67
760.47	237.63
760.80	237.44
761.13	237.35
761.45	237.13
761.78	237.03
762.11	237.00
762.43	236.88
762.76	236.93
763.08	236.76
763.41	236.68
763.74	236.60
764.06	236.44
764.39	236.16
764.71	235.97
765.04	235.95
765.37	235.72
765.69	235.72
766.02	235.73
766.34	235.62
766.67	235.36
767.00	235.32
767.32	235.30
767.65	235.38
767.97	235.34
768.30	235.34
768.62	235.23
768.95	235.06
769.27	234.93
769.60	234.81
769.92	234.73
770.25	234.66
770.57	234.56
770.90	234.60
771.22	234.60
771.55	234.54
771.87	234.44
772.20	234.51
772.52	234.55
772.85	234.75
773.17	234.63
773.50	234.67
773.82	234.68
774.15	234.62
774.47	234.41
774.80	234.43
775.12	234.44
775.45	234.44
775.77	234.48
776.09	234.70
776.42	234.71
776.74	234.78
777.07	234.70
777.39	234.77
777.72	234.64
778.04	234.73
778.36	234.72
778.69	234.74
779.01	234.60
779.33	234.39
779.66	234.04
779.98	233.99
780.31	233.87
780.63	233.85
780.95	233.79
781.28	233.73
781.60	233.63
781.92	233.53
782.25	233.53
782.57	233.49
782.89	233.40
783.22	233.30
783.54	233.26
783.86	233.32
784.19	233.07
784.51	233.14
784.83	233.10
785.16	233.10
785.48	233.09
785.80	233.02
786.12	233.04
786.45	232.96
786.77	233.04
787.09	233.09
787.42	232.96
787.74	232.95
788.06	232.93
788.38	232.91
788.71	232.89
789.03	232.84
789.35	232.84
789.67	232.66
789.99	232.61
790.32	232.56
790.64	232.48
790.96	232.72
791.28	232.59
791.61	232.58
791.93	232.48
792.25	232.38
792.57	232.52
792.89	232.42
793.21	232.48
793.54	232.33
793.86	232.11
794.18	232.04
794.50	231.93
794.82	231.82
795.14	231.70
795.47	231.72
795.79	231.58
796.11	231.46
796.43	231.46
796.75	231.41
797.07	231.31
797.39	231.28
797.71	231.00
798.04	231.05
798.36	230.98
798.68	230.89
799.00	230.87
799.32	230.71
799.64	230.68
799.96	230.57
800.28	230.59
800.60	230.67
800.92	230.62
801.24	230.59
801.56	230.63
801.89	230.58
802.21	230.59
802.53	230.61
802.85	230.57
803.17	230.59
803.49	230.52
803.81	230.46
804.13	230.36
804.45	230.34
804.77	230.24
805.09	230.17
805.41	230.21
805.73	230.11
806.05	230.05
806.37	230.09
806.69	229.99
807.01	229.94
807.33	229.92
807.65	229.86
807.97	229.92
808.28	229.81
808.60	229.90
808.92	229.83
809.24	229.87
809.56	229.98
809.88	229.89
810.20	229.94
810.52	229.95
810.84	229.95
811.16	230.10
811.48	230.13
811.80	230.27
812.12	230.26
812.43	230.35
812.75	230.42
813.07	230.27
813.39	230.39
813.71	230.43
814.03	230.46
814.35	230.54
814.67	230.50
814.98	230.56
815.30	230.42
815.62	230.42
815.94	230.35
816.26	230.37
816.58	230.40
816.89	230.32
817.21	230.18
817.53	230.24
817.85	230.18
818.17	230.22
818.48	230.10
818.80	230.13
819.12	230.05
819.44	229.97
819.76	230.11
820.07	230.11
820.39	230.09
820.71	230.00
821.03	230.03
821.34	230.04
821.66	229.92
821.98	229.97
822.30	229.92
822.61	230.11
822.93	229.96
823.25	229.94
823.57	230.01
823.88	230.25
824.20	230.14
824.52	230.10
824.83	230.00
825.15	229.91
825.47	229.93
825.79	230.01
826.10	230.01
826.42	229.94
826.74	229.92
827.05	229.82
827.37	229.95
827.69	229.88
828.00	229.76
828.32	229.86
828.64	229.83
828.95	229.85
829.27	229.64
829.58	229.65
829.90	229.67
830.22	229.63
830.53	229.52
830.85	229.49
831.17	229.45
831.48	229.44
831.80	229.51
832.11	229.43
832.43	229.37
832.75	229.35
833.06	229.41
833.38	229.34
833.69	229.33
834.01	229.19
834.32	229.20
834.64	229.19
834.96	229.20
835.27	229.11
835.59	229.04
835.90	229.09
836.22	229.10
836.53	229.02
836.85	228.93
837.16	229.10
837.48	229.14
837.79	229.22
838.11	229.08
838.42	229.09
838.74	229.03
839.05	228.94
839.37	228.94
839.68	228.80
840.00	228.81
840.31	228.87
840.63	228.78
840.94	228.70
841.26	228.71
841.57	228.69
841.88	228.79
842.20	228.76
842.51	228.70
842.83	228.64
843.14	228.79
843.46	228.85
843.77	228.75
844.08	228.76
844.40	228.68
844.71	228.85
845.03	228.76
845.34	228.81
845.65	228.88
845.97	228.88
846.28	228.90
846.60	228.81
846.91	228.69
847.22	228.72
847.54	228.85
847.85	228.86
848.16	228.84
848.48	228.80
848.79	228.80
849.10	228.80
849.42	228.85
849.73	228.73
850.04	228.79
850.36	228.72
850.67	228.78
850.98	228.79
851.30	228.74
851.61	228.75
851.92	228.70
852.23	228.75
852.55	228.83
852.86	228.86
853.17	228.93
853.49	228.99
853.80	229.08
854.11	229.12
854.42	229.24
854.74	229.20
855.05	229.31
855.36	229.41
855.67	229.45
855.99	229.43
856.30	229.60
856.61	229.51
856.92	229.50
857.23	229.50
857.55	229.47
857.86	229.49
858.17	229.54
858.48	229.57
858.79	229.48
859.11	229.40
859.42	229.38
859.73	229.41
860.04	229.52
860.35	229.47
860.66	229.33
860.98	229.35
861.29	229.46
861.60	229.35
861.91	229.31
862.22	229.28
862.53	229.29
862.84	229.05
863.16	229.09
863.47	229.07
863.78	228.96
864.09	228.96
864.40	228.87
864.71	228.97
865.02	228.95
865.33	228.87
865.64	228.87
865.95	229.01
866.27	229.15
866.58	228.97
866.89	229.08
867.20	229.01
867.51	228.84
867.82	228.72
868.13	228.70
868.44	228.66
868.75	228.70
869.06	228.66
869.37	228.70
869.68	228.68
869.99	228.69
870.30	228.71
870.61	228.68
870.92	228.70
871.23	228.54
871.54	228.51
871.85	228.58
872.16	228.53
872.47	228.37
872.78	228.12
873.09	228.27
873.40	228.18
873.71	228.18
874.02	228.24
874.33	228.21
874.64	228.22
874.95	228.16
875.26	228.09
875.56	228.03
875.87	228.10
876.18	228.08
876.49	228.25
876.80	228.30
877.11	228.25
877.42	228.27
877.73	228.42
878.04	228.38
878.35	228.46
878.66	228.44
878.96	228.43
879.27	228.41
879.58	228.28
879.89	228.32
880.20	228.41
880.51	228.38
880.82	228.42
881.12	228.39
881.43	228.38
881.74	228.32
882.05	228.40
882.36	228.33
882.67	228.32
882.97	228.15
883.28	228.12
883.59	228.20
883.90	228.23
884.21	228.13
884.51	228.19
884.82	228.06
885.13	228.17
885.44	228.17
885.74	228.28
886.05	228.33
886.36	228.26
886.67	228.25
886.98	228.33
887.28	228.32
887.59	228.42
887.90	228.47
888.20	228.57
888.51	228.57
888.82	228.60
889.13	228.60
889.43	228.80
889.74	228.83
890.05	228.85
890.35	228.83
890.66	228.80
890.97	228.83
891.28	228.84
891.58	228.80
891.89	228.85
892.20	228.80
892.50	228.90
892.81	228.93
893.12	229.02
893.42	228.94
893.73	228.94
894.04	228.86
894.34	228.87
894.65	228.84
894.95	228.79
895.26	228.78
895.57	228.93
895.87	228.72
896.18	228.70
896.48	228.70
896.79	228.72
897.10	228.78
897.40	228.77
897.71	228.82
898.01	228.85
898.32	228.80
898.63	228.87
898.93	228.84
899.24	228.84
899.54	228.79
899.85	228.70
900.15	228.65
900.46	228.72
900.76	228.78
901.07	228.86
901.38	228.89
901.68	228.95
901.99	228.78
902.29	228.78
902.60	228.78
902.90	228.77
903.21	228.78
903.51	228.85
903.82	228.92
904.12	228.90
904.43	228.87
904.73	228.81
905.03	228.74
905.34	228.87
905.64	228.87
905.95	228.81
906.25	228.95
906.56	229.01
906.86	229.00
907.17	228.96
907.47	228.83
907.77	228.84
908.08	228.72
908.38	228.74
908.69	228.75
908.99	228.78
909.30	228.79
909.60	228.77
909.90	228.61
910.21	228.48
910.51	228.51
910.81	228.52
911.12	228.55
911.42	228.52
911.73	228.43
912.03	228.50
912.33	228.60
912.64	228.45
912.94	228.35
913.24	228.27
913.55	228.26
913.85	228.25
914.15	228.30
914.46	228.37
914.76	228.36
915.06	228.33
915.37	228.36
915.67	228.31
915.97	228.28
916.27	228.39
916.58	228.46
916.88	228.41
917.18	228.39
917.49	228.64
917.79	228.67
918.09	228.64
918.39	228.65
918.70	228.57
919.00	228.75
919.30	228.86
919.60	228.93
919.91	228.86
920.21	228.97
920.51	228.93
920.81	228.95
921.12	229.04
921.42	229.04
921.72	228.98
922.02	229.00
922.32	229.00
922.63	228.99
922.93	229.05
923.23	229.05
923.53	229.02
923.83	228.87
924.13	228.93
924.44	228.91
924.74	228.95
925.04	228.98
925.34	228.82
925.64	228.81
925.94	228.78
926.24	228.97
926.55	228.80
926.85	228.75
927.15	228.72
927.45	228.65
927.75	228.68
928.05	228.73
928.35	228.77
928.65	228.80
928.95	228.70
929.26	228.64
929.56	228.63
929.86	228.74
930.16	228.71
930.46	228.61
930.76	228.54
931.06	228.43
931.36	228.37
931.66	228.45
931.96	228.49
932.26	228.47
932.56	228.29
932.86	228.44
933.16	228.56
933.46	228.53
933.76	228.57
934.06	228.66
934.36	228.71
934.66	228.73
934.96	228.67
935.26	228.72
935.56	228.67
935.86	228.70
936.16	228.67
936.46	228.60
936.76	228.64
937.06	228.68
937.36	228.63
937.66	228.60
937.96	228.63
938.26	228.50
938.56	228.45
938.86	228.46
939.16	228.48
939.46	228.35
939.76	228.38
940.06	228.40
940.35	228.27
940.65	228.14
940.95	228.18
941.25	228.17
941.55	228.20
941.85	228.21
942.15	228.25
942.45	228.18
942.75	228.22
943.04	228.31
943.34	228.41
943.64	228.50
943.94	228.57
944.24	228.52
944.54	228.59
944.84	228.63
945.13	228.67
945.43	228.64
945.73	228.70
946.03	228.66
946.33	228.60
946.62	228.57
946.92	228.57
947.22	228.48
947.52	228.50
947.82	228.48
948.11	228.42
948.41	228.41
948.71	228.35
949.01	228.34
949.31	228.21
949.60	228.13
949.90	227.96
950.20	227.87
950.50	227.80
950.79	227.68
951.09	227.67
951.39	227.70
951.69	227.60
951.98	227.59
952.28	227.61
952.58	227.64
952.87	227.71
953.17	227.75
953.47	227.68
953.76	227.67
954.06	227.70
954.36	227.64
954.66	227.58
954.95	227.67
955.25	227.62
955.55	227.67
955.84	227.63
956.14	227.77
956.44	227.82
956.73	227.82
957.03	227.90
957.32	227.92
957.62	227.85
957.92	227.99
958.21	228.06
958.51	228.26
958.81	228.39
959.10	228.42
959.40	228.54
959.69	228.54
959.99	228.58
960.29	228.47
960.58	228.62
960.88	228.67
961.17	228.71
961.47	228.87
961.76	228.87
962.06	228.88
962.36	228.86
962.65	228.89
962.95	229.03
963.24	229.04
963.54	229.05
963.83	229.00
964.13	228.99
964.42	228.88
964.72	228.75
965.01	228.67
965.31	228.59
965.60	228.45
965.90	228.63
966.19	228.68
966.49	228.75
966.78	228.70
967.08	228.70
967.37	228.59
967.67	228.50
967.96	228.53
968.26	228.56
968.55	228.61
968.85	228.55
969.14	228.59
969.43	228.58
969.73	228.55
970.02	228.62
970.32	228.57
970.61	228.60
970.91	228.47
971.20	228.50
971.49	228.52
971.79	228.56
972.08	228.47
972.38	228.39
972.67	228.42
972.96	228.43
973.26	228.44
973.55	228.58
973.85	228.56
974.14	228.51
974.43	228.44
974.73	228.31
975.02	228.39
975.31	228.30
975.61	228.37
975.90	228.37
976.19	228.40
976.49	228.45
976.78	228.42
977.07	228.55
977.37	228.50
977.66	228.52
977.95	228.51
978.24	228.47
978.54	228.57
978.83	228.48
979.12	228.39
979.42	228.40
979.71	228.34
980.00	228.38
980.29	228.54
980.59	228.53
980.88	228.66
981.17	228.57
981.46	228.57
981.76	228.64
982.05	228.75
982.34	228.68
982.63	228.73
982.93	228.82
983.22	228.80
983.51	228.68
983.80	228.63
984.09	228.60
984.39	228.61
984.68	228.42
984.97	228.45
985.26	228.50
985.55	228.53
985.85	228.52
986.14	228.59
986.43	228.48
986.72	228.43
987.01	228.28
987.30	228.36
987.59	228.32
987.89	228.16
988.18	228.04
988.47	227.96
988.76	227.90
989.05	227.84
989.34	227.79
989.63	227.85
989.92	227.84
990.22	227.80
990.51	227.89
990.80	228.00
991.09	227.97
991.38	228.00
991.67	228.00
991.96	228.04
992.25	227.98
992.54	227.99
992.83	228.13
993.12	228.17
993.41	228.15
993.70	228.29
993.99	228.32
994.28	228.42
994.58	228.48
994.87	228.49
995.16	228.52
995.45	228.53
995.74	228.46
996.03	228.58
996.32	228.60
996.61	228.61
996.90	228.61
997.19	228.70
997.48	228.67
997.77	228.58
998.06	228.50
998.34	228.50
998.63	228.49
998.92	228.46
999.21	228.49
999.50	228.58
999.79	228.50
1000.08	228.48
1000.37	228.43
1000.66	228.44
1000.95	228.50
1001.24	228.48
1001.53	228.49
1001.82	228.52
1002.11	228.53
1002.40	228.66
1002.68	228.67
1002.97	228.69
1003.26	228.64
1003.55	228.70
1003.84	228.80
1004.13	228.86
1004.42	228.91
1004.71	228.86
1004.99	228.81
1005.28	228.83
1005.57	228.73
1005.86	228.66
1006.15	228.70
1006.44	228.72
1006.72	228.79
1007.01	228.74
1007.30	228.75
1007.59	228.79
1007.88	228.77
1008.17	228.66
1008.45	228.57
1008.74	228.40
1009.03	228.49
1009.32	228.52
1009.60	228.50
1009.89	228.39
1010.18	228.37
1010.47	228.28
1010.76	228.30
1011.04	228.30
1011.33	228.40
1011.62	228.43
1011.91	228.45
1012.19	228.50
1012.48	228.51
1012.77	228.43
1013.05	228.62
1013.34	228.72
1013.63	228.68
1013.92	228.79
1014.20	228.80
1014.49	228.74
1014.78	228.84
1015.06	228.72
1015.35	228.77
1015.64	228.78
1015.92	228.84
1016.21	228.85
1016.50	228.85
1016.78	228.86
1017.07	228.91
1017.36	228.86
1017.64	228.86
1017.93	228.88
1018.22	228.81
1018.50	228.76
1018.79	228.80
1019.08	228.59
1019.36	228.49
1019.65	228.39
1019.93	228.27
1020.22	228.38
1020.51	228.54
1020.79	228.53
1021.08	228.10
1021.36	227.70
1021.65	228.50
1021.94	228.30
1022.22	229.00
1022.51	226.50
1022.79	226.80
1023.08	230.20
1023.36	230.60
1023.65	228.30
>>>>>End Processed Spectral Data<<<<<
