SpectraSuite Data File
++++++++++++++++++++++++++++++++++++
Date: Fri Feb 01 14:35:45 EST 2013
User: group
Dark Spectrum Present: No
Reference Spectrum Present: No
Number of Sampled Component Spectra: 1
Spectrometers: USB2E7196
Integration Time (usec): 70000 (USB2E7196)
Spectra Averaged: 10 (USB2E7196)
Boxcar Smoothing: 10 (USB2E7196)
Correct for Electrical Dark: No (USB2E7196)
Strobe/Lamp Enabled: No (USB2E7196)
Correct for Detector Non-linearity: No (USB2E7196)
Correct for Stray Light: No (USB2E7196)
Number of Pixels in Processed Spectrum: 2048
>>>>>Begin Processed Spectral Data<<<<<
339.09	0.00
339.48	217.20
339.86	218.70
340.24	218.40
340.63	218.80
341.01	225.70
341.39	221.00
341.78	224.40
342.16	226.80
342.54	225.60
342.93	214.43
343.31	225.22
343.69	225.65
344.07	226.01
344.46	226.50
344.84	227.00
345.22	227.09
345.60	227.46
345.99	227.60
346.37	227.69
346.75	227.75
347.13	227.85
347.52	227.89
347.90	227.94
348.28	227.98
348.66	227.95
349.05	227.84
349.43	227.88
349.81	227.88
350.19	227.88
350.57	227.94
350.96	228.02
351.34	228.12
351.72	228.20
352.10	228.34
352.48	228.37
352.87	228.38
353.25	228.38
353.63	228.44
354.01	228.50
354.39	228.52
354.77	228.67
355.15	228.85
355.54	228.87
355.92	228.82
356.30	228.82
356.68	229.18
357.06	229.32
357.44	229.45
357.82	229.48
358.20	229.54
358.58	229.54
358.97	229.63
359.35	229.83
359.73	229.93
360.11	230.08
360.49	230.10
360.87	230.13
361.25	230.29
361.63	230.25
362.01	230.34
362.39	230.39
362.77	230.45
363.15	230.37
363.53	230.41
363.91	230.53
364.29	230.51
364.67	230.30
365.05	230.32
365.43	230.30
365.81	230.31
366.19	230.39
366.57	230.46
366.95	230.44
367.33	230.30
367.71	230.35
368.09	230.29
368.47	230.20
368.85	230.15
369.23	230.17
369.61	230.20
369.99	230.26
370.37	230.29
370.75	230.24
371.13	230.17
371.51	230.15
371.89	230.09
372.27	230.15
372.65	230.05
373.03	229.99
373.41	229.85
373.78	229.88
374.16	229.78
374.54	229.72
374.92	229.72
375.30	229.69
375.68	229.53
376.06	229.52
376.44	229.53
376.82	229.45
377.19	229.30
377.57	229.15
377.95	229.03
378.33	228.94
378.71	228.84
379.09	228.81
379.47	228.72
379.84	228.61
380.22	228.43
380.60	228.35
380.98	228.28
381.36	228.25
381.73	228.05
382.11	228.03
382.49	227.82
382.87	227.66
383.25	227.51
383.62	227.71
384.00	227.48
384.38	227.48
384.76	227.53
385.13	227.60
385.51	227.56
385.89	227.40
386.27	227.30
386.64	227.30
387.02	227.20
387.40	227.14
387.78	227.10
388.15	227.18
388.53	227.12
388.91	227.16
389.29	227.06
389.66	227.08
390.04	226.96
390.42	227.06
390.79	227.05
391.17	227.03
391.55	226.73
391.92	226.79
392.30	226.71
392.68	226.70
393.05	226.60
393.43	226.64
393.81	226.71
394.18	226.70
394.56	226.66
394.94	226.80
395.31	226.85
395.69	227.00
396.06	226.89
396.44	227.02
396.82	226.96
397.19	227.19
397.57	227.32
397.95	227.42
398.32	227.42
398.70	227.54
399.07	227.73
399.45	227.88
399.82	227.93
400.20	228.04
400.58	228.11
400.95	228.21
401.33	228.52
401.70	228.76
402.08	228.97
402.45	229.07
402.83	229.27
403.20	229.45
403.58	229.62
403.95	229.94
404.33	230.15
404.71	230.50
405.08	230.80
405.46	231.01
405.83	231.28
406.21	231.49
406.58	231.88
406.96	232.23
407.33	232.59
407.70	233.01
408.08	233.59
408.45	234.00
408.83	234.48
409.20	234.78
409.58	235.20
409.95	235.80
410.33	236.51
410.70	237.00
411.08	237.70
411.45	238.39
411.82	239.16
412.20	239.99
412.57	240.84
412.95	241.58
413.32	242.52
413.69	243.53
414.07	244.64
414.44	245.75
414.82	246.88
415.19	248.11
415.56	249.40
415.94	250.69
416.31	252.19
416.68	253.70
417.06	255.36
417.43	256.92
417.81	258.77
418.18	260.58
418.55	262.71
418.93	264.83
419.30	267.02
419.67	269.21
420.04	271.57
420.42	273.98
420.79	276.73
421.16	279.52
421.54	282.59
421.91	285.70
422.28	288.85
422.66	292.19
423.03	295.43
423.40	298.97
423.77	302.61
424.15	306.39
424.52	310.40
424.89	314.75
425.26	318.89
425.64	322.69
426.01	327.06
426.38	331.41
426.75	335.92
427.13	340.61
427.50	345.54
427.87	350.61
428.24	355.83
428.61	360.68
428.99	366.00
429.36	371.67
429.73	377.40
430.10	383.08
430.47	388.74
430.85	394.75
431.22	400.98
431.59	407.52
431.96	413.94
432.33	420.71
432.70	427.27
433.08	435.19
433.45	442.77
433.82	450.30
434.19	458.50
434.56	466.38
434.93	474.06
435.30	481.76
435.68	490.34
436.05	498.70
436.42	507.15
436.79	514.71
437.16	522.79
437.53	531.35
437.90	539.73
438.27	548.12
438.64	556.95
439.01	564.99
439.38	572.23
439.75	578.97
440.13	586.87
440.50	594.60
440.87	600.85
441.24	607.43
441.61	614.40
441.98	619.79
442.35	626.19
442.72	632.50
443.09	638.70
443.46	642.55
443.83	645.26
444.20	647.77
444.57	651.29
444.94	653.25
445.31	655.17
445.68	657.50
446.05	659.09
446.42	659.19
446.79	659.22
447.16	659.21
447.53	659.61
447.90	657.82
448.27	655.51
448.64	651.90
449.01	649.64
449.37	644.90
449.74	640.35
450.11	634.70
450.48	628.60
450.85	622.19
451.22	616.90
451.59	612.11
451.96	607.23
452.33	600.30
452.70	594.21
453.07	586.68
453.43	578.93
453.80	571.42
454.17	564.05
454.54	557.17
454.91	549.67
455.28	542.31
455.65	535.33
456.02	528.52
456.38	522.75
456.75	515.19
457.12	508.97
457.49	502.74
457.86	496.91
458.23	491.65
458.59	485.95
458.96	480.08
459.33	474.64
459.70	469.34
460.07	465.34
460.43	460.50
460.80	455.91
461.17	451.85
461.54	447.48
461.91	443.47
462.27	439.32
462.64	435.71
463.01	431.62
463.38	427.80
463.74	423.86
464.11	420.56
464.48	417.56
464.85	414.38
465.21	412.01
465.58	409.10
465.95	405.89
466.32	403.36
466.68	400.62
467.05	397.99
467.42	395.46
467.78	392.61
468.15	390.02
468.52	388.03
468.88	385.38
469.25	383.13
469.62	381.30
469.98	379.18
470.35	377.32
470.72	375.61
471.08	373.68
471.45	372.16
471.82	370.40
472.18	368.55
472.55	367.24
472.92	365.50
473.28	364.18
473.65	362.82
474.02	361.35
474.38	360.14
474.75	359.10
475.11	358.00
475.48	357.25
475.85	356.44
476.21	355.62
476.58	355.05
476.94	354.42
477.31	353.68
477.67	352.91
478.04	352.29
478.41	351.82
478.77	351.40
479.14	350.75
479.50	350.48
479.87	350.31
480.23	350.18
480.60	350.03
480.96	349.69
481.33	349.79
481.69	349.67
482.06	349.64
482.42	349.38
482.79	349.26
483.15	349.31
483.52	349.67
483.88	350.01
484.25	349.99
484.61	350.22
484.98	350.47
485.34	351.12
485.71	351.59
486.07	352.17
486.44	352.76
486.80	353.57
487.17	354.34
487.53	355.30
487.90	356.06
488.26	357.09
488.62	358.29
488.99	359.15
489.35	360.22
489.72	361.30
490.08	362.74
490.44	364.13
490.81	365.45
491.17	366.77
491.54	368.27
491.90	369.85
492.26	371.54
492.63	373.21
492.99	374.84
493.36	376.71
493.72	378.53
494.08	380.34
494.45	382.14
494.81	384.14
495.17	385.94
495.54	387.95
495.90	389.85
496.26	391.77
496.63	393.86
496.99	396.21
497.35	398.49
497.72	400.63
498.08	402.93
498.44	405.26
498.80	407.55
499.17	409.76
499.53	412.03
499.89	414.33
500.26	416.62
500.62	418.84
500.98	421.20
501.34	423.42
501.71	425.92
502.07	428.43
502.43	430.59
502.79	432.99
503.16	435.37
503.52	437.81
503.88	440.08
504.24	442.27
504.60	444.50
504.97	446.74
505.33	448.98
505.69	451.31
506.05	453.38
506.41	455.27
506.78	457.27
507.14	459.27
507.50	461.35
507.86	463.34
508.22	465.33
508.59	467.07
508.95	468.92
509.31	470.61
509.67	472.37
510.03	474.19
510.39	475.81
510.75	477.33
511.12	478.55
511.48	479.99
511.84	481.67
512.20	483.00
512.56	484.61
512.92	486.10
513.28	487.15
513.64	488.24
514.00	489.54
514.37	490.71
514.73	491.80
515.09	492.69
515.45	493.70
515.81	494.46
516.17	495.27
516.53	496.20
516.89	496.91
517.25	497.58
517.61	498.20
517.97	498.74
518.33	499.34
518.69	500.23
519.05	500.97
519.41	501.57
519.77	502.25
520.13	502.55
520.49	502.94
520.85	503.40
521.21	504.08
521.57	504.85
521.93	505.48
522.29	506.14
522.65	506.60
523.01	507.03
523.37	507.56
523.73	508.34
524.09	508.93
524.45	509.60
524.81	510.31
525.17	511.13
525.53	512.17
525.89	512.99
526.25	513.97
526.61	514.90
526.97	515.77
527.33	516.54
527.68	517.69
528.04	518.65
528.40	519.85
528.76	521.08
529.12	522.19
529.48	523.57
529.84	524.78
530.20	526.30
530.56	527.85
530.91	529.54
531.27	530.89
531.63	532.69
531.99	534.32
532.35	535.74
532.71	537.40
533.07	539.19
533.42	540.99
533.78	542.67
534.14	544.47
534.50	546.40
534.86	548.64
535.21	550.48
535.57	552.73
535.93	554.94
536.29	557.28
536.65	559.53
537.00	561.62
537.36	564.21
537.72	566.61
538.08	569.05
538.44	571.50
538.79	574.34
539.15	576.78
539.51	579.92
539.87	582.85
540.22	585.71
540.58	588.65
540.94	591.58
541.29	594.39
541.65	597.46
542.01	600.55
542.37	603.60
542.72	606.76
543.08	610.03
543.44	613.39
543.79	616.36
544.15	619.72
544.51	623.33
544.87	626.78
545.22	630.09
545.58	633.53
545.94	636.88
546.29	640.21
546.65	643.59
547.01	646.49
547.36	649.86
547.72	653.30
548.07	656.57
548.43	660.08
548.79	663.86
549.14	667.32
549.50	670.84
549.86	674.26
550.21	678.01
550.57	681.69
550.92	685.16
551.28	688.66
551.64	692.13
551.99	695.71
552.35	699.21
552.70	702.96
553.06	706.74
553.41	710.63
553.77	714.36
554.13	718.37
554.48	722.17
554.84	726.14
555.19	729.72
555.55	733.40
555.90	737.09
556.26	740.59
556.61	744.06
556.97	747.53
557.32	751.23
557.68	754.86
558.03	758.56
558.39	761.99
558.74	766.00
559.10	769.57
559.45	773.00
559.81	776.62
560.16	780.28
560.52	783.55
560.87	787.13
561.23	790.39
561.58	793.69
561.94	797.06
562.29	800.13
562.64	803.30
563.00	806.56
563.35	809.97
563.71	813.41
564.06	817.11
564.42	820.72
564.77	823.85
565.12	826.84
565.48	829.87
565.83	832.87
566.19	835.80
566.54	838.64
566.89	841.47
567.25	844.40
567.60	847.33
567.96	850.31
568.31	852.99
568.66	855.65
569.02	858.10
569.37	860.53
569.72	863.43
570.08	866.10
570.43	868.60
570.78	870.59
571.14	872.85
571.49	874.82
571.84	876.98
572.20	879.03
572.55	880.90
572.90	882.56
573.26	884.78
573.61	886.38
573.96	888.06
574.31	889.59
574.67	890.58
575.02	891.61
575.37	893.23
575.72	894.20
576.08	895.66
576.43	896.85
576.78	898.27
577.13	899.31
577.49	900.51
577.84	901.34
578.19	902.72
578.54	903.51
578.90	904.17
579.25	904.32
579.60	904.71
579.95	905.61
580.30	905.95
580.66	906.20
581.01	906.54
581.36	907.11
581.71	907.44
582.06	907.73
582.42	907.81
582.77	907.58
583.12	907.71
583.47	907.85
583.82	907.96
584.17	907.63
584.53	907.28
584.88	907.00
585.23	906.99
585.58	906.48
585.93	906.13
586.28	905.99
586.63	906.04
586.98	906.14
587.34	905.59
587.69	905.27
588.04	904.78
588.39	904.56
588.74	903.41
589.09	902.80
589.44	902.22
589.79	901.53
590.14	900.92
590.49	900.26
590.84	899.13
591.19	898.58
591.54	897.55
591.89	896.33
592.25	895.43
592.60	894.08
592.95	892.84
593.30	891.48
593.65	890.21
594.00	888.79
594.35	887.69
594.70	886.01
595.05	884.65
595.40	883.31
595.75	881.48
596.10	880.65
596.45	879.50
596.80	878.57
597.15	877.19
597.50	875.42
597.85	874.12
598.19	872.79
598.54	871.14
598.89	869.90
599.24	868.79
599.59	867.09
599.94	865.90
600.29	864.43
600.64	863.06
600.99	861.25
601.34	859.65
601.69	857.36
602.04	855.72
602.39	854.05
602.74	852.29
603.08	850.90
603.43	849.26
603.78	847.21
604.13	845.10
604.48	843.26
604.83	841.68
605.18	839.65
605.53	837.62
605.87	835.05
606.22	832.90
606.57	830.63
606.92	828.57
607.27	826.34
607.62	824.58
607.96	822.78
608.31	820.89
608.66	818.60
609.01	816.49
609.36	814.19
609.70	811.71
610.05	809.09
610.40	806.78
610.75	803.83
611.10	801.28
611.44	798.57
611.79	796.45
612.14	793.93
612.49	791.20
612.83	788.47
613.18	786.18
613.53	783.61
613.88	780.74
614.22	778.01
614.57	775.08
614.92	771.84
615.27	768.75
615.61	765.61
615.96	762.75
616.31	760.15
616.65	757.90
617.00	755.48
617.35	753.01
617.70	750.04
618.04	747.56
618.39	744.97
618.74	742.28
619.08	739.37
619.43	736.60
619.78	733.99
620.12	731.21
620.47	728.49
620.82	725.59
621.16	723.08
621.51	720.55
621.85	717.93
622.20	715.17
622.55	712.46
622.89	710.06
623.24	707.75
623.59	705.14
623.93	702.49
624.28	699.73
624.62	697.22
624.97	694.67
625.32	692.13
625.66	689.63
626.01	687.14
626.35	684.38
626.70	681.68
627.04	679.18
627.39	676.62
627.73	673.89
628.08	671.52
628.43	668.78
628.77	665.95
629.12	663.19
629.46	660.80
629.81	658.05
630.15	655.21
630.50	652.23
630.84	649.28
631.19	646.21
631.53	643.23
631.88	640.06
632.22	636.98
632.57	634.43
632.91	631.38
633.26	628.46
633.60	625.58
633.95	622.97
634.29	620.10
634.64	617.52
634.98	614.91
635.32	612.30
635.67	610.00
636.01	607.60
636.36	605.13
636.70	602.66
637.05	600.33
637.39	597.94
637.73	595.53
638.08	593.34
638.42	591.22
638.77	589.18
639.11	587.12
639.45	585.08
639.80	582.34
640.14	580.28
640.49	577.94
640.83	575.65
641.17	573.28
641.52	570.86
641.86	568.40
642.20	566.16
642.55	563.82
642.89	561.54
643.23	559.10
643.58	556.79
643.92	554.36
644.26	551.93
644.61	549.72
644.95	547.60
645.29	544.93
645.64	542.32
645.98	539.80
646.32	537.33
646.66	534.74
647.01	532.44
647.35	529.99
647.69	527.81
648.04	525.77
648.38	523.20
648.72	520.90
649.06	518.53
649.41	516.08
649.75	513.52
650.09	511.02
650.43	508.62
650.78	506.26
651.12	503.92
651.46	501.75
651.80	499.59
652.14	497.40
652.49	495.52
652.83	493.38
653.17	490.97
653.51	488.70
653.85	486.58
654.20	484.35
654.54	482.06
654.88	479.67
655.22	477.20
655.56	474.99
655.90	472.85
656.25	470.78
656.59	468.65
656.93	466.67
657.27	464.54
657.61	462.30
657.95	460.24
658.29	458.21
658.64	456.01
658.98	453.72
659.32	451.24
659.66	448.87
660.00	446.88
660.34	444.92
660.68	442.78
661.02	440.72
661.36	438.89
661.70	436.98
662.05	435.19
662.39	433.39
662.73	431.73
663.07	429.99
663.41	428.20
663.75	426.44
664.09	424.56
664.43	422.69
664.77	421.15
665.11	419.54
665.45	417.83
665.79	416.34
666.13	414.72
666.47	413.13
666.81	411.50
667.15	409.55
667.49	408.10
667.83	406.61
668.17	405.15
668.51	403.37
668.85	401.78
669.19	400.11
669.53	398.58
669.87	396.90
670.21	395.40
670.55	393.90
670.89	392.63
671.23	391.12
671.57	389.67
671.91	388.17
672.25	386.57
672.58	385.20
672.92	383.48
673.26	381.91
673.60	380.56
673.94	379.24
674.28	378.11
674.62	376.63
674.96	375.40
675.30	374.00
675.64	372.79
675.97	371.46
676.31	370.25
676.65	368.85
676.99	367.70
677.33	366.30
677.67	364.93
678.01	363.49
678.34	362.36
678.68	361.23
679.02	360.03
679.36	358.82
679.70	357.53
680.04	356.35
680.37	355.13
680.71	353.92
681.05	352.80
681.39	351.68
681.73	350.51
682.06	349.42
682.40	348.36
682.74	347.11
683.08	346.01
683.42	344.94
683.75	344.02
684.09	342.87
684.43	341.76
684.77	340.72
685.10	339.64
685.44	338.57
685.78	337.47
686.12	336.40
686.45	335.30
686.79	334.16
687.13	333.14
687.46	332.13
687.80	331.11
688.14	329.97
688.48	328.93
688.81	327.90
689.15	326.79
689.49	325.71
689.82	324.77
690.16	323.76
690.50	322.82
690.83	321.79
691.17	320.75
691.51	319.85
691.84	318.94
692.18	317.95
692.52	316.93
692.85	316.11
693.19	315.08
693.52	314.29
693.86	313.37
694.20	312.44
694.53	311.70
694.87	310.78
695.21	309.92
695.54	308.96
695.88	308.20
696.21	307.28
696.55	306.39
696.88	305.55
697.22	304.90
697.56	304.06
697.89	303.22
698.23	302.49
698.56	301.58
698.90	300.87
699.23	300.00
699.57	299.27
699.90	298.34
700.24	297.61
700.58	296.68
700.91	296.03
701.25	295.36
701.58	294.65
701.92	294.06
702.25	293.40
702.59	292.79
702.92	292.18
703.26	291.66
703.59	291.05
703.93	290.65
704.26	289.87
704.60	289.16
704.93	288.46
705.26	287.76
705.60	287.32
705.93	286.69
706.27	286.24
706.60	285.62
706.94	285.09
707.27	284.62
707.61	284.09
707.94	283.61
708.27	282.93
708.61	282.26
708.94	281.64
709.28	281.25
709.61	280.67
709.94	280.12
710.28	279.49
710.61	278.99
710.95	278.29
711.28	277.80
711.61	277.30
711.95	276.83
712.28	276.34
712.61	275.75
712.95	275.28
713.28	274.72
713.61	274.19
713.95	273.67
714.28	273.09
714.61	272.77
714.95	272.11
715.28	271.70
715.61	271.23
715.95	270.83
716.28	270.19
716.61	269.78
716.95	269.28
717.28	268.84
717.61	268.46
717.94	267.95
718.28	267.43
718.61	267.00
718.94	266.55
719.27	266.11
719.61	265.61
719.94	265.20
720.27	264.72
720.60	264.36
720.94	263.95
721.27	263.62
721.60	263.22
721.93	262.93
722.27	262.60
722.60	262.31
722.93	261.88
723.26	261.54
723.59	261.16
723.93	260.74
724.26	260.43
724.59	259.94
724.92	259.60
725.25	259.37
725.59	259.12
725.92	258.74
726.25	258.41
726.58	258.14
726.91	257.80
727.24	257.57
727.57	257.22
727.91	256.95
728.24	256.64
728.57	256.32
728.90	256.07
729.23	255.73
729.56	255.47
729.89	255.26
730.22	255.04
730.55	254.80
730.89	254.61
731.22	254.33
731.55	254.15
731.88	253.90
732.21	253.60
732.54	253.13
732.87	252.95
733.20	252.74
733.53	252.58
733.86	252.41
734.19	252.09
734.52	251.88
734.85	251.64
735.18	251.32
735.51	251.07
735.84	250.77
736.17	250.61
736.50	250.36
736.83	250.40
737.16	250.09
737.49	249.76
737.82	249.50
738.15	249.34
738.48	249.04
738.81	248.92
739.14	248.65
739.47	248.60
739.80	248.37
740.13	248.29
740.46	248.03
740.79	247.73
741.12	247.57
741.45	247.39
741.78	247.24
742.11	247.08
742.44	246.90
742.77	246.80
743.10	246.63
743.43	246.38
743.75	245.91
744.08	246.01
744.41	245.95
744.74	245.75
745.07	245.46
745.40	245.39
745.73	245.30
746.06	245.10
746.39	244.97
746.71	244.89
747.04	244.49
747.37	244.37
747.70	244.21
748.03	244.05
748.36	243.97
748.68	243.74
749.01	243.60
749.34	243.44
749.67	243.15
750.00	242.94
750.33	242.98
750.65	242.88
750.98	242.50
751.31	242.28
751.64	242.13
751.97	242.19
752.29	242.01
752.62	241.73
752.95	241.65
753.28	241.42
753.60	241.17
753.93	241.19
754.26	240.99
754.59	240.86
754.91	240.71
755.24	240.47
755.57	240.29
755.90	240.10
756.22	239.92
756.55	239.83
756.88	239.75
757.20	239.50
757.53	239.29
757.86	239.14
758.19	239.03
758.51	238.96
758.84	238.67
759.17	238.57
759.49	238.53
759.82	238.39
760.15	238.35
760.47	238.23
760.80	238.02
761.13	238.04
761.45	237.90
761.78	237.82
762.11	237.70
762.43	237.63
762.76	237.53
763.08	237.55
763.41	237.49
763.74	237.28
764.06	237.01
764.39	236.93
764.71	236.86
765.04	236.72
765.37	236.59
765.69	236.50
766.02	236.46
766.34	236.29
766.67	236.13
767.00	236.06
767.32	236.13
767.65	236.18
767.97	236.02
768.30	235.91
768.62	235.73
768.95	235.71
769.27	235.63
769.60	235.56
769.92	235.33
770.25	235.17
770.57	235.04
770.90	235.08
771.22	234.89
771.55	234.80
771.87	234.72
772.20	234.62
772.52	234.73
772.85	234.72
773.17	234.69
773.50	234.60
773.82	234.43
774.15	234.21
774.47	234.06
774.80	234.04
775.12	234.00
775.45	234.04
775.77	233.96
776.09	233.97
776.42	233.92
776.74	233.98
777.07	233.93
777.39	233.98
777.72	233.88
778.04	233.90
778.36	233.86
778.69	233.91
779.01	233.81
779.33	233.63
779.66	233.39
779.98	233.33
780.31	233.30
780.63	233.42
780.95	233.47
781.28	233.43
781.60	233.31
781.92	233.16
782.25	233.07
782.57	233.06
782.89	232.98
783.22	232.95
783.54	232.90
783.86	232.86
784.19	232.88
784.51	232.92
784.83	232.87
785.16	232.78
785.48	232.71
785.80	232.77
786.12	232.62
786.45	232.70
786.77	232.64
787.09	232.62
787.42	232.56
787.74	232.62
788.06	232.53
788.38	232.55
788.71	232.65
789.03	232.63
789.35	232.66
789.67	232.68
789.99	232.65
790.32	232.50
790.64	232.55
790.96	232.63
791.28	232.63
791.61	232.62
791.93	232.62
792.25	232.53
792.57	232.67
792.89	232.73
793.21	232.72
793.54	232.69
793.86	232.69
794.18	232.57
794.50	232.44
794.82	232.42
795.14	232.37
795.47	232.35
795.79	232.25
796.11	232.15
796.43	232.07
796.75	232.07
797.07	232.10
797.39	232.00
797.71	231.87
798.04	231.73
798.36	231.76
798.68	231.77
799.00	231.74
799.32	231.50
799.64	231.44
799.96	231.34
800.28	231.34
800.60	231.43
800.92	231.37
801.24	231.28
801.56	231.35
801.89	231.31
802.21	231.21
802.53	231.18
802.85	231.17
803.17	231.27
803.49	231.19
803.81	231.19
804.13	231.12
804.45	230.99
804.77	231.00
805.09	230.94
805.41	230.81
805.73	230.75
806.05	230.68
806.37	230.67
806.69	230.62
807.01	230.51
807.33	230.36
807.65	230.29
807.97	230.38
808.28	230.31
808.60	230.30
808.92	230.26
809.24	230.36
809.56	230.23
809.88	230.10
810.20	230.09
810.52	230.06
810.84	230.10
811.16	230.07
811.48	230.02
811.80	230.13
812.12	230.24
812.43	230.24
812.75	230.25
813.07	230.21
813.39	230.16
813.71	230.16
814.03	230.10
814.35	230.13
814.67	230.00
814.98	229.97
815.30	229.88
815.62	229.89
815.94	229.81
816.26	229.97
816.58	229.88
816.89	229.93
817.21	229.99
817.53	230.00
817.85	230.04
818.17	230.07
818.48	230.01
818.80	229.96
819.12	229.99
819.44	229.94
819.76	229.87
820.07	229.88
820.39	229.94
820.71	229.95
821.03	229.92
821.34	229.98
821.66	230.01
821.98	230.08
822.30	230.06
822.61	230.09
822.93	229.99
823.25	230.05
823.57	229.98
823.88	229.94
824.20	229.97
824.52	229.99
824.83	229.90
825.15	229.89
825.47	229.82
825.79	229.85
826.10	229.96
826.42	230.07
826.74	230.11
827.05	230.07
827.37	230.08
827.69	230.13
828.00	230.10
828.32	229.98
828.64	229.97
828.95	230.16
829.27	230.20
829.58	230.20
829.90	230.19
830.22	230.20
830.53	230.20
830.85	230.06
831.17	230.07
831.48	230.14
831.80	230.07
832.11	230.26
832.43	230.25
832.75	230.15
833.06	230.29
833.38	230.25
833.69	230.28
834.01	230.29
834.32	230.26
834.64	230.19
834.96	230.20
835.27	230.17
835.59	230.02
835.90	229.87
836.22	229.89
836.53	229.87
836.85	229.80
837.16	229.95
837.48	230.01
837.79	230.02
838.11	229.99
838.42	229.94
838.74	229.81
839.05	229.70
839.37	229.72
839.68	229.50
840.00	229.50
840.31	229.45
840.63	229.43
840.94	229.39
841.26	229.42
841.57	229.43
841.88	229.44
842.20	229.42
842.51	229.42
842.83	229.29
843.14	229.39
843.46	229.39
843.77	229.16
844.08	229.14
844.40	229.00
844.71	228.95
845.03	228.88
845.34	228.83
845.65	228.76
845.97	228.68
846.28	228.61
846.60	228.61
846.91	228.58
847.22	228.55
847.54	228.55
847.85	228.49
848.16	228.44
848.48	228.42
848.79	228.41
849.10	228.46
849.42	228.43
849.73	228.22
850.04	228.25
850.36	228.20
850.67	228.18
850.98	228.20
851.30	228.20
851.61	228.27
851.92	228.24
852.23	228.46
852.55	228.50
852.86	228.46
853.17	228.46
853.49	228.46
853.80	228.47
854.11	228.52
854.42	228.63
854.74	228.65
855.05	228.57
855.36	228.53
855.67	228.46
855.99	228.50
856.30	228.66
856.61	228.62
856.92	228.61
857.23	228.62
857.55	228.61
857.86	228.60
858.17	228.65
858.48	228.64
858.79	228.55
859.11	228.63
859.42	228.73
859.73	228.67
860.04	228.70
860.35	228.65
860.66	228.58
860.98	228.49
861.29	228.51
861.60	228.60
861.91	228.66
862.22	228.65
862.53	228.57
862.84	228.44
863.16	228.50
863.47	228.49
863.78	228.53
864.09	228.53
864.40	228.51
864.71	228.49
865.02	228.57
865.33	228.56
865.64	228.50
865.95	228.52
866.27	228.60
866.58	228.62
866.89	228.73
867.20	228.74
867.51	228.67
867.82	228.60
868.13	228.53
868.44	228.42
868.75	228.44
869.06	228.54
869.37	228.55
869.68	228.48
869.99	228.51
870.30	228.53
870.61	228.56
870.92	228.48
871.23	228.40
871.54	228.29
871.85	228.31
872.16	228.28
872.47	228.22
872.78	228.12
873.09	228.13
873.40	228.01
873.71	228.01
874.02	228.12
874.33	228.15
874.64	228.17
874.95	228.27
875.26	228.32
875.56	228.27
875.87	228.26
876.18	228.40
876.49	228.58
876.80	228.54
877.11	228.49
877.42	228.57
877.73	228.69
878.04	228.76
878.35	228.71
878.66	228.79
878.96	228.77
879.27	228.87
879.58	228.71
879.89	228.68
880.20	228.69
880.51	228.60
880.82	228.59
881.12	228.61
881.43	228.50
881.74	228.50
882.05	228.50
882.36	228.48
882.67	228.46
882.97	228.22
883.28	228.11
883.59	228.13
883.90	228.19
884.21	228.09
884.51	228.10
884.82	228.07
885.13	228.00
885.44	228.02
885.74	228.01
886.05	228.01
886.36	228.08
886.67	228.03
886.98	228.29
887.28	228.25
887.59	228.17
887.90	228.30
888.20	228.19
888.51	228.23
888.82	228.26
889.13	228.23
889.43	228.44
889.74	228.50
890.05	228.49
890.35	228.47
890.66	228.51
890.97	228.50
891.28	228.48
891.58	228.50
891.89	228.53
892.20	228.46
892.50	228.45
892.81	228.49
893.12	228.46
893.42	228.20
893.73	228.33
894.04	228.31
894.34	228.27
894.65	228.33
894.95	228.34
895.26	228.31
895.57	228.34
895.87	228.14
896.18	228.19
896.48	228.25
896.79	228.19
897.10	228.30
897.40	228.26
897.71	228.36
898.01	228.42
898.32	228.37
898.63	228.36
898.93	228.49
899.24	228.48
899.54	228.59
899.85	228.67
900.15	228.59
900.46	228.69
900.76	228.65
901.07	228.70
901.38	228.61
901.68	228.66
901.99	228.67
902.29	228.74
902.60	228.70
902.90	228.67
903.21	228.69
903.51	228.68
903.82	228.73
904.12	228.67
904.43	228.68
904.73	228.69
905.03	228.68
905.34	228.85
905.64	228.84
905.95	228.87
906.25	228.85
906.56	228.93
906.86	228.89
907.17	228.93
907.47	228.82
907.77	228.95
908.08	229.00
908.38	228.97
908.69	228.94
908.99	228.93
909.30	228.98
909.60	229.03
909.90	228.91
910.21	228.79
910.51	228.76
910.81	228.78
911.12	228.84
911.42	228.90
911.73	228.64
912.03	228.66
912.33	228.53
912.64	228.59
912.94	228.53
913.24	228.50
913.55	228.45
913.85	228.49
914.15	228.49
914.46	228.44
914.76	228.37
915.06	228.48
915.37	228.52
915.67	228.37
915.97	228.25
916.27	228.24
916.58	228.35
916.88	228.35
917.18	228.25
917.49	228.27
917.79	228.18
918.09	228.20
918.39	228.24
918.70	228.29
919.00	228.30
919.30	228.39
919.60	228.40
919.91	228.41
920.21	228.42
920.51	228.32
920.81	228.33
921.12	228.39
921.42	228.28
921.72	228.28
922.02	228.36
922.32	228.38
922.63	228.36
922.93	228.39
923.23	228.39
923.53	228.40
923.83	228.25
924.13	228.28
924.44	228.22
924.74	228.19
925.04	228.27
925.34	228.17
925.64	228.07
925.94	228.06
926.24	228.14
926.55	228.10
926.85	228.08
927.15	228.07
927.45	228.01
927.75	227.92
928.05	227.87
928.35	227.74
928.65	227.80
928.95	227.81
929.26	227.75
929.56	227.76
929.86	227.74
930.16	227.82
930.46	227.87
930.76	228.00
931.06	227.99
931.36	227.87
931.66	227.90
931.96	227.85
932.26	227.86
932.56	227.72
932.86	227.83
933.16	227.90
933.46	227.89
933.76	227.82
934.06	227.97
934.36	228.03
934.66	228.11
934.96	228.18
935.26	228.18
935.56	228.17
935.86	228.14
936.16	228.19
936.46	228.15
936.76	228.06
937.06	228.01
937.36	228.02
937.66	228.10
937.96	228.11
938.26	228.13
938.56	228.15
938.86	228.30
939.16	228.35
939.46	228.32
939.76	228.28
940.06	228.34
940.35	228.33
940.65	228.26
940.95	228.30
941.25	228.22
941.55	228.26
941.85	228.31
942.15	228.41
942.45	228.50
942.75	228.54
943.04	228.57
943.34	228.61
943.64	228.53
943.94	228.44
944.24	228.44
944.54	228.47
944.84	228.41
945.13	228.36
945.43	228.26
945.73	228.37
946.03	228.40
946.33	228.45
946.62	228.43
946.92	228.50
947.22	228.51
947.52	228.46
947.82	228.47
948.11	228.42
948.41	228.39
948.71	228.20
949.01	228.31
949.31	228.35
949.60	228.31
949.90	228.27
950.20	228.30
950.50	228.23
950.79	228.31
951.09	228.48
951.39	228.40
951.69	228.39
951.98	228.40
952.28	228.34
952.58	228.30
952.87	228.17
953.17	228.04
953.47	227.96
953.76	228.03
954.06	227.97
954.36	227.97
954.66	227.90
954.95	228.00
955.25	227.95
955.55	227.91
955.84	227.87
956.14	228.05
956.44	228.12
956.73	228.12
957.03	228.09
957.32	228.00
957.62	228.02
957.92	228.02
958.21	227.94
958.51	228.12
958.81	228.12
959.10	228.18
959.40	228.33
959.69	228.40
959.99	228.37
960.29	228.41
960.58	228.41
960.88	228.52
961.17	228.44
961.47	228.32
961.76	228.21
962.06	228.29
962.36	228.17
962.65	228.06
962.95	228.08
963.24	227.92
963.54	227.86
963.83	227.82
964.13	227.79
964.42	227.75
964.72	227.74
965.01	227.69
965.31	227.77
965.60	227.75
965.90	227.90
966.19	227.87
966.49	227.85
966.78	227.79
967.08	227.73
967.37	227.87
967.67	227.78
967.96	227.93
968.26	227.89
968.55	227.93
968.85	227.89
969.14	227.94
969.43	228.05
969.73	228.01
970.02	227.92
970.32	228.03
970.61	227.99
970.91	227.87
971.20	227.86
971.49	227.73
971.79	227.65
972.08	227.50
972.38	227.52
972.67	227.60
972.96	227.64
973.26	227.54
973.55	227.49
973.85	227.71
974.14	227.68
974.43	227.70
974.73	227.70
975.02	227.74
975.31	227.71
975.61	227.71
975.90	227.80
976.19	227.94
976.49	227.95
976.78	227.99
977.07	228.02
977.37	228.10
977.66	228.24
977.95	228.33
978.24	228.36
978.54	228.40
978.83	228.20
979.12	228.27
979.42	228.41
979.71	228.33
980.00	228.20
980.29	228.17
980.59	228.21
980.88	228.16
981.17	228.17
981.46	228.20
981.76	228.12
982.05	228.12
982.34	228.18
982.63	228.17
982.93	228.17
983.22	228.19
983.51	228.20
983.80	228.22
984.09	228.15
984.39	228.11
984.68	228.12
984.97	228.20
985.26	228.17
985.55	228.13
985.85	228.16
986.14	228.18
986.43	228.32
986.72	228.27
987.01	228.26
987.30	228.31
987.59	228.36
987.89	228.42
988.18	228.30
988.47	228.28
988.76	228.20
989.05	228.27
989.34	228.30
989.63	228.27
989.92	228.18
990.22	228.11
990.51	228.09
990.80	228.03
991.09	228.05
991.38	228.02
991.67	228.12
991.96	228.15
992.25	228.21
992.54	228.12
992.83	228.19
993.12	228.17
993.41	228.15
993.70	228.20
993.99	228.18
994.28	228.34
994.58	228.28
994.87	228.33
995.16	228.15
995.45	228.20
995.74	228.15
996.03	228.13
996.32	228.36
996.61	228.46
996.90	228.52
997.19	228.55
997.48	228.69
997.77	228.62
998.06	228.60
998.34	228.56
998.63	228.59
998.92	228.49
999.21	228.51
999.50	228.50
999.79	228.38
1000.08	228.43
1000.37	228.35
1000.66	228.37
1000.95	228.39
1001.24	228.59
1001.53	228.50
1001.82	228.51
1002.11	228.53
1002.40	228.42
1002.68	228.44
1002.97	228.56
1003.26	228.51
1003.55	228.34
1003.84	228.23
1004.13	228.30
1004.42	228.31
1004.71	228.28
1004.99	228.32
1005.28	228.39
1005.57	228.40
1005.86	228.35
1006.15	228.36
1006.44	228.43
1006.72	228.50
1007.01	228.45
1007.30	228.43
1007.59	228.41
1007.88	228.33
1008.17	228.30
1008.45	228.19
1008.74	228.06
1009.03	228.04
1009.32	228.04
1009.60	228.02
1009.89	228.00
1010.18	227.95
1010.47	228.04
1010.76	228.02
1011.04	228.02
1011.33	228.08
1011.62	228.12
1011.91	228.13
1012.19	228.11
1012.48	227.93
1012.77	227.82
1013.05	227.94
1013.34	227.79
1013.63	227.83
1013.92	227.89
1014.20	227.92
1014.49	228.05
1014.78	228.18
1015.06	227.98
1015.35	227.98
1015.64	228.09
1015.92	228.10
1016.21	228.09
1016.50	227.93
1016.78	228.01
1017.07	227.95
1017.36	227.86
1017.64	227.78
1017.93	227.82
1018.22	227.79
1018.50	227.87
1018.79	227.85
1019.08	227.72
1019.36	227.80
1019.65	227.69
1019.93	227.76
1020.22	227.73
1020.51	227.70
1020.79	227.56
1021.08	227.30
1021.36	227.00
1021.65	226.70
1021.94	228.10
1022.22	228.00
1022.51	226.60
1022.79	228.80
1023.08	227.60
1023.36	228.40
1023.65	226.20
>>>>>End Processed Spectral Data<<<<<
