SpectraSuite Data File
++++++++++++++++++++++++++++++++++++
Date: Fri Feb 01 14:41:05 EST 2013
User: group
Dark Spectrum Present: No
Reference Spectrum Present: No
Number of Sampled Component Spectra: 1
Spectrometers: USB2E7196
Integration Time (usec): 70000 (USB2E7196)
Spectra Averaged: 10 (USB2E7196)
Boxcar Smoothing: 10 (USB2E7196)
Correct for Electrical Dark: No (USB2E7196)
Strobe/Lamp Enabled: No (USB2E7196)
Correct for Detector Non-linearity: No (USB2E7196)
Correct for Stray Light: No (USB2E7196)
Number of Pixels in Processed Spectrum: 2048
>>>>>Begin Processed Spectral Data<<<<<
339.09	0.00
339.48	216.10
339.86	218.90
340.24	219.50
340.63	219.30
341.01	224.20
341.39	222.40
341.78	225.00
342.16	225.30
342.54	225.50
342.93	214.35
343.31	225.09
343.69	225.60
344.07	225.99
344.46	226.39
344.84	226.83
345.22	226.98
345.60	227.31
345.99	227.46
346.37	227.51
346.75	227.70
347.13	227.78
347.52	227.79
347.90	227.96
348.28	227.98
348.66	227.98
349.05	228.00
349.43	228.05
349.81	228.11
350.19	228.17
350.57	228.21
350.96	228.30
351.34	228.47
351.72	228.56
352.10	228.64
352.48	228.68
352.87	228.66
353.25	228.90
353.63	228.89
354.01	228.99
354.39	229.23
354.77	229.20
355.15	229.27
355.54	229.29
355.92	229.28
356.30	229.34
356.68	229.60
357.06	229.71
357.44	229.80
357.82	229.90
358.20	230.02
358.58	230.19
358.97	230.15
359.35	230.25
359.73	230.38
360.11	230.46
360.49	230.46
360.87	230.52
361.25	230.51
361.63	230.63
362.01	230.67
362.39	230.63
362.77	230.75
363.15	230.82
363.53	230.87
363.91	230.88
364.29	230.96
364.67	230.72
365.05	230.71
365.43	230.69
365.81	230.69
366.19	230.72
366.57	230.64
366.95	230.71
367.33	230.62
367.71	230.55
368.09	230.60
368.47	230.65
368.85	230.70
369.23	230.66
369.61	230.55
369.99	230.56
370.37	230.57
370.75	230.60
371.13	230.55
371.51	230.52
371.89	230.55
372.27	230.51
372.65	230.48
373.03	230.43
373.41	230.40
373.78	230.33
374.16	230.26
374.54	230.19
374.92	230.13
375.30	230.11
375.68	230.09
376.06	229.99
376.44	229.89
376.82	229.72
377.19	229.63
377.57	229.60
377.95	229.39
378.33	229.25
378.71	229.06
379.09	228.95
379.47	228.91
379.84	228.71
380.22	228.57
380.60	228.49
380.98	228.38
381.36	228.27
381.73	228.08
382.11	228.08
382.49	228.00
382.87	227.90
383.25	227.89
383.62	227.94
384.00	227.83
384.38	227.79
384.76	227.92
385.13	227.87
385.51	227.79
385.89	227.81
386.27	227.82
386.64	227.70
387.02	227.70
387.40	227.66
387.78	227.69
388.15	227.66
388.53	227.65
388.91	227.62
389.29	227.65
389.66	227.78
390.04	227.70
390.42	227.70
390.79	227.68
391.17	227.59
391.55	227.49
391.92	227.47
392.30	227.51
392.68	227.40
393.05	227.40
393.43	227.44
393.81	227.49
394.18	227.41
394.56	227.47
394.94	227.58
395.31	227.55
395.69	227.66
396.06	227.83
396.44	227.88
396.82	228.00
397.19	228.14
397.57	228.14
397.95	228.28
398.32	228.33
398.70	228.47
399.07	228.55
399.45	228.63
399.82	228.70
400.20	228.85
400.58	228.90
400.95	228.97
401.33	229.14
401.70	229.35
402.08	229.47
402.45	229.71
402.83	229.75
403.20	229.90
403.58	229.97
403.95	230.11
404.33	230.32
404.71	230.44
405.08	230.63
405.46	230.72
405.83	230.80
406.21	230.97
406.58	231.20
406.96	231.44
407.33	231.63
407.70	231.91
408.08	232.21
408.45	232.62
408.83	232.92
409.20	233.11
409.58	233.26
409.95	233.69
410.33	234.01
410.70	234.28
411.08	234.67
411.45	235.03
411.82	235.27
412.20	235.68
412.57	236.18
412.95	236.40
413.32	236.99
413.69	237.45
414.07	237.93
414.44	238.39
414.82	238.95
415.19	239.58
415.56	240.16
415.94	240.67
416.31	241.31
416.68	242.00
417.06	242.77
417.43	243.53
417.81	244.39
418.18	245.08
418.55	246.04
418.93	246.83
419.30	247.76
419.67	248.84
420.04	249.88
420.42	250.93
420.79	252.25
421.16	253.38
421.54	254.76
421.91	256.18
422.28	257.64
422.66	259.11
423.03	260.50
423.40	262.00
423.77	263.50
424.15	265.01
424.52	266.72
424.89	268.47
425.26	270.26
425.64	271.72
426.01	273.49
426.38	275.36
426.75	277.34
427.13	279.26
427.50	281.32
427.87	283.30
428.24	285.31
428.61	287.25
428.99	289.46
429.36	291.70
429.73	293.87
430.10	296.12
430.47	298.36
430.85	300.69
431.22	303.14
431.59	305.79
431.96	308.36
432.33	311.11
432.70	313.82
433.08	316.83
433.45	319.84
433.82	322.88
434.19	326.05
434.56	329.18
434.93	332.18
435.30	335.10
435.68	338.43
436.05	341.67
436.42	344.87
436.79	347.68
437.16	350.67
437.53	353.82
437.90	356.83
438.27	359.94
438.64	363.08
439.01	366.11
439.38	368.54
439.75	370.88
440.13	373.52
440.50	376.08
440.87	378.18
441.24	380.22
441.61	382.56
441.98	384.21
442.35	386.15
442.72	388.13
443.09	390.10
443.46	391.01
443.83	391.67
444.20	392.23
444.57	393.22
444.94	393.44
445.31	393.69
445.68	394.14
446.05	394.18
446.42	393.65
446.79	393.06
447.16	392.75
447.53	392.41
447.90	391.17
448.27	389.81
448.64	388.13
449.01	387.04
449.37	384.87
449.74	382.82
450.11	380.43
450.48	377.70
450.85	374.83
451.22	372.53
451.59	369.99
451.96	367.70
452.33	364.76
452.70	362.23
453.07	359.20
453.43	355.85
453.80	352.79
454.17	349.88
454.54	347.06
454.91	343.96
455.28	340.90
455.65	338.15
456.02	335.61
456.38	333.09
456.75	329.97
457.12	327.48
457.49	324.91
457.86	322.42
458.23	320.42
458.59	318.10
458.96	315.73
459.33	313.82
459.70	311.70
460.07	310.03
460.43	308.07
460.80	306.29
461.17	304.70
461.54	302.94
461.91	301.31
462.27	299.59
462.64	298.04
463.01	296.38
463.38	294.82
463.74	292.96
464.11	291.67
464.48	290.50
464.85	289.17
465.21	288.08
465.58	286.97
465.95	285.68
466.32	284.62
466.68	283.61
467.05	282.60
467.42	281.62
467.78	280.56
468.15	279.46
468.52	278.68
468.88	277.70
469.25	276.78
469.62	276.10
469.98	275.30
470.35	274.63
470.72	274.12
471.08	273.36
471.45	272.83
471.82	272.11
472.18	271.32
472.55	270.66
472.92	270.02
473.28	269.45
473.65	268.87
474.02	268.24
474.38	267.70
474.75	267.24
475.11	266.68
475.48	266.15
475.85	265.84
476.21	265.30
476.58	264.95
476.94	264.57
477.31	264.32
477.67	263.91
478.04	263.61
478.41	263.33
478.77	263.19
479.14	262.93
479.50	262.69
479.87	262.58
480.23	262.48
480.60	262.34
480.96	262.15
481.33	262.08
481.69	262.13
482.06	262.14
482.42	262.05
482.79	262.01
483.15	262.13
483.52	262.21
483.88	262.40
484.25	262.41
484.61	262.54
484.98	262.56
485.34	263.01
485.71	263.22
486.07	263.44
486.44	263.58
486.80	263.90
487.17	264.34
487.53	264.90
487.90	265.36
488.26	265.77
488.62	266.42
488.99	266.93
489.35	267.52
489.72	268.24
490.08	268.91
490.44	269.80
490.81	270.45
491.17	271.30
491.54	272.18
491.90	273.22
492.26	274.40
492.63	275.59
492.99	276.67
493.36	277.91
493.72	279.29
494.08	280.76
494.45	282.40
494.81	284.02
495.17	285.59
495.54	287.40
495.90	289.50
496.26	291.35
496.63	293.36
496.99	295.54
497.35	297.76
497.72	300.31
498.08	302.85
498.44	305.70
498.80	308.63
499.17	311.63
499.53	314.67
499.89	317.87
500.26	321.16
500.62	324.63
500.98	328.38
501.34	332.11
501.71	336.13
502.07	340.13
502.43	344.29
502.79	348.45
503.16	353.01
503.52	357.78
503.88	362.76
504.24	367.87
504.60	373.27
504.97	378.91
505.33	384.57
505.69	390.61
506.05	396.63
506.41	402.84
506.78	409.29
507.14	416.12
507.50	423.14
507.86	430.39
508.22	437.78
508.59	445.24
508.95	453.21
509.31	461.17
509.67	469.56
510.03	478.17
510.39	487.20
510.75	496.26
511.12	505.45
511.48	515.05
511.84	524.86
512.20	534.72
512.56	544.86
512.92	555.11
513.28	565.57
513.64	576.50
514.00	587.38
514.37	598.67
514.73	610.11
515.09	621.64
515.45	633.32
515.81	645.48
516.17	658.06
516.53	670.66
516.89	683.37
517.25	696.13
517.61	709.40
517.97	722.51
518.33	735.57
518.69	749.06
519.05	762.80
519.41	776.50
519.77	790.81
520.13	804.97
520.49	819.52
520.85	834.33
521.21	848.88
521.57	864.13
521.93	878.96
522.29	894.00
522.65	909.10
523.01	924.33
523.37	939.15
523.73	954.41
524.09	970.14
524.45	985.99
524.81	1001.87
525.17	1017.90
525.53	1034.03
525.89	1050.58
526.25	1066.98
526.61	1083.27
526.97	1100.03
527.33	1116.43
527.68	1133.55
528.04	1150.49
528.40	1166.90
528.76	1184.37
529.12	1201.95
529.48	1219.24
529.84	1236.10
530.20	1253.99
530.56	1271.92
530.91	1290.16
531.27	1307.69
531.63	1324.84
531.99	1342.32
532.35	1359.40
532.71	1376.14
533.07	1393.55
533.42	1410.74
533.78	1427.96
534.14	1445.22
534.50	1461.81
534.86	1478.99
535.21	1495.09
535.57	1511.80
535.93	1528.56
536.29	1544.86
536.65	1560.68
537.00	1576.62
537.36	1593.70
537.72	1609.22
538.08	1624.69
538.44	1640.17
538.79	1656.24
539.15	1671.48
539.51	1687.25
539.87	1703.26
540.22	1719.00
540.58	1734.65
540.94	1750.28
541.29	1765.27
541.65	1780.03
542.01	1795.43
542.37	1809.70
542.72	1824.30
543.08	1838.90
543.44	1853.40
543.79	1866.83
544.15	1880.91
544.51	1895.41
544.87	1908.91
545.22	1922.33
545.58	1935.64
545.94	1948.30
546.29	1960.75
546.65	1973.62
547.01	1985.20
547.36	1996.98
547.72	2008.53
548.07	2019.62
548.43	2030.36
548.79	2041.06
549.14	2051.40
549.50	2061.13
549.86	2071.19
550.21	2081.01
550.57	2090.80
550.92	2100.47
551.28	2109.75
551.64	2118.92
551.99	2127.81
552.35	2136.11
552.70	2145.21
553.06	2154.12
553.41	2163.30
553.77	2171.54
554.13	2180.17
554.48	2188.69
554.84	2196.87
555.19	2204.89
555.55	2212.50
555.90	2219.87
556.26	2226.99
556.61	2234.17
556.97	2241.69
557.32	2249.04
557.68	2256.10
558.03	2262.80
558.39	2269.47
558.74	2277.47
559.10	2283.93
559.45	2290.32
559.81	2297.97
560.16	2303.60
560.52	2309.03
560.87	2314.73
561.23	2319.83
561.58	2325.27
561.94	2330.03
562.29	2334.08
562.64	2338.36
563.00	2342.63
563.35	2347.74
563.71	2353.41
564.06	2358.72
564.42	2362.77
564.77	2367.31
565.12	2371.95
565.48	2376.07
565.83	2379.38
566.19	2382.26
566.54	2384.77
566.89	2387.72
567.25	2389.87
567.60	2393.15
567.96	2396.03
568.31	2398.40
568.66	2401.02
569.02	2402.90
569.37	2405.00
569.72	2407.38
570.08	2408.83
570.43	2410.65
570.78	2411.16
571.14	2411.10
571.49	2411.41
571.84	2413.03
572.20	2412.80
572.55	2412.20
572.90	2411.26
573.26	2411.15
573.61	2410.78
573.96	2410.38
574.31	2408.84
574.67	2406.36
575.02	2404.35
575.37	2402.28
575.72	2399.58
576.08	2397.43
576.43	2394.82
576.78	2392.39
577.13	2389.96
577.49	2387.97
577.84	2385.28
578.19	2382.72
578.54	2380.04
578.90	2376.68
579.25	2372.17
579.60	2368.38
579.95	2364.74
580.30	2360.62
580.66	2356.56
581.01	2351.67
581.36	2347.54
581.71	2343.69
582.06	2340.13
582.42	2335.55
582.77	2331.14
583.12	2326.68
583.47	2322.75
583.82	2318.53
584.17	2313.83
584.53	2309.10
584.88	2304.11
585.23	2299.18
585.58	2294.80
585.93	2289.71
586.28	2284.88
586.63	2280.38
586.98	2275.60
587.34	2270.80
587.69	2266.25
588.04	2261.37
588.39	2256.67
588.74	2250.70
589.09	2244.48
589.44	2238.15
589.79	2232.85
590.14	2227.72
590.49	2222.20
590.84	2215.62
591.19	2209.38
591.54	2202.60
591.89	2195.18
592.25	2189.29
592.60	2181.90
592.95	2173.92
593.30	2167.02
593.65	2159.46
594.00	2152.53
594.35	2146.08
594.70	2138.16
595.05	2131.87
595.40	2124.11
595.75	2116.56
596.10	2109.95
596.45	2103.77
596.80	2097.67
597.15	2090.92
597.50	2083.72
597.85	2077.11
598.19	2071.13
598.54	2064.83
598.89	2058.69
599.24	2053.57
599.59	2046.64
599.94	2040.65
600.29	2034.72
600.64	2028.00
600.99	2020.89
601.34	2013.76
601.69	2006.33
602.04	2000.16
602.39	1992.56
602.74	1986.32
603.08	1980.04
603.43	1973.84
603.78	1966.82
604.13	1959.63
604.48	1952.23
604.83	1944.99
605.18	1937.94
605.53	1929.44
605.87	1920.43
606.22	1912.82
606.57	1904.58
606.92	1896.91
607.27	1889.77
607.62	1882.73
607.96	1875.43
608.31	1868.84
608.66	1861.05
609.01	1853.28
609.36	1844.72
609.70	1835.59
610.05	1826.46
610.40	1817.69
610.75	1808.82
611.10	1800.05
611.44	1790.88
611.79	1782.81
612.14	1774.39
612.49	1764.91
612.83	1756.36
613.18	1748.37
613.53	1740.19
613.88	1731.04
614.22	1722.24
614.57	1712.85
614.92	1703.55
615.27	1695.32
615.61	1686.27
615.96	1677.83
616.31	1669.65
616.65	1662.17
617.00	1654.87
617.35	1647.37
617.70	1639.13
618.04	1630.35
618.39	1621.95
618.74	1613.96
619.08	1605.06
619.43	1596.94
619.78	1589.24
620.12	1581.07
620.47	1572.59
620.82	1563.70
621.16	1555.71
621.51	1547.79
621.85	1539.80
622.20	1531.40
622.55	1522.69
622.89	1514.80
623.24	1507.06
623.59	1498.96
623.93	1490.77
624.28	1482.67
624.62	1474.40
624.97	1466.73
625.32	1459.27
625.66	1451.92
626.01	1443.87
626.35	1436.22
626.70	1428.01
627.04	1419.79
627.39	1411.65
627.73	1404.14
628.08	1396.88
628.43	1388.95
628.77	1380.86
629.12	1372.24
629.46	1364.12
629.81	1355.58
630.15	1346.94
630.50	1338.48
630.84	1329.83
631.19	1321.25
631.53	1312.70
631.88	1304.07
632.22	1295.40
632.57	1287.53
632.91	1278.95
633.26	1270.93
633.60	1262.58
633.95	1254.35
634.29	1246.68
634.64	1239.28
634.98	1231.30
635.32	1223.52
635.67	1216.40
636.01	1209.06
636.36	1202.20
636.70	1194.94
637.05	1187.89
637.39	1181.48
637.73	1174.43
638.08	1167.85
638.42	1161.23
638.77	1154.57
639.11	1147.60
639.45	1140.65
639.80	1133.30
640.14	1126.57
640.49	1119.48
640.83	1112.55
641.17	1106.06
641.52	1099.16
641.86	1092.41
642.20	1085.77
642.55	1078.57
642.89	1071.67
643.23	1064.43
643.58	1058.03
643.92	1051.12
644.26	1044.38
644.61	1037.48
644.95	1030.59
645.29	1023.01
645.64	1015.73
645.98	1008.76
646.32	1002.43
646.66	995.84
647.01	988.86
647.35	982.25
647.69	976.14
648.04	969.84
648.38	962.61
648.72	955.33
649.06	948.55
649.41	941.99
649.75	935.16
650.09	928.17
650.43	921.40
650.78	914.15
651.12	907.61
651.46	901.02
651.80	894.57
652.14	888.20
652.49	882.09
652.83	876.02
653.17	869.65
653.51	863.06
653.85	856.67
654.20	850.40
654.54	843.81
654.88	837.35
655.22	830.77
655.56	824.50
655.90	818.94
656.25	812.86
656.59	806.84
656.93	801.36
657.27	795.91
657.61	789.93
657.95	784.49
658.29	778.95
658.64	773.36
658.98	767.46
659.32	761.44
659.66	755.89
660.00	750.20
660.34	744.44
660.68	739.06
661.02	733.58
661.36	728.55
661.70	723.46
662.05	718.34
662.39	713.54
662.73	708.77
663.07	704.10
663.41	699.13
663.75	694.03
664.09	688.85
664.43	683.93
664.77	679.48
665.11	674.83
665.45	670.32
665.79	665.59
666.13	660.97
666.47	656.71
666.81	652.21
667.15	647.52
667.49	643.25
667.83	639.01
668.17	634.73
668.51	630.18
668.85	625.85
669.19	621.70
669.53	617.42
669.87	613.13
670.21	608.69
670.55	604.58
670.89	600.87
671.23	597.15
671.57	593.10
671.91	589.10
672.25	585.16
672.58	581.18
672.92	577.38
673.26	573.88
673.60	570.13
673.94	566.47
674.28	563.16
674.62	559.85
674.96	556.43
675.30	553.10
675.64	549.72
675.97	546.36
676.31	543.13
676.65	539.87
676.99	536.95
677.33	533.83
677.67	530.59
678.01	527.17
678.34	523.89
678.68	520.85
679.02	517.62
679.36	514.43
679.70	511.41
680.04	508.58
680.37	505.44
680.71	502.46
681.05	499.80
681.39	496.86
681.73	493.99
682.06	491.03
682.40	488.21
682.74	485.75
683.08	483.10
683.42	480.18
683.75	477.52
684.09	474.54
684.43	471.75
684.77	468.98
685.10	466.41
685.44	463.73
685.78	461.13
686.12	458.86
686.45	456.33
686.79	453.71
687.13	451.13
687.46	448.59
687.80	446.15
688.14	443.35
688.48	441.03
688.81	438.46
689.15	436.15
689.49	433.73
689.82	431.22
690.16	428.72
690.50	426.45
690.83	423.97
691.17	421.81
691.51	419.63
691.84	417.50
692.18	415.36
692.52	413.27
692.85	411.03
693.19	408.80
693.52	406.73
693.86	404.50
694.20	402.25
694.53	400.21
694.87	398.28
695.21	396.43
695.54	394.40
695.88	392.40
696.21	390.19
696.55	388.38
696.88	386.59
697.22	384.81
697.56	382.93
697.89	381.06
698.23	379.30
698.56	377.44
698.90	375.78
699.23	373.74
699.57	371.85
699.90	370.04
700.24	368.34
700.58	366.66
700.91	364.94
701.25	363.52
701.58	361.88
701.92	360.22
702.25	358.50
702.59	356.93
702.92	355.43
703.26	354.01
703.59	352.36
703.93	350.75
704.26	349.30
704.60	347.81
704.93	346.26
705.26	344.71
705.60	343.31
705.93	342.00
706.27	340.92
706.60	339.81
706.94	338.55
707.27	337.18
707.61	335.63
707.94	334.45
708.27	333.18
708.61	331.90
708.94	330.52
709.28	329.34
709.61	328.11
709.94	327.15
710.28	325.99
710.61	324.79
710.95	323.51
711.28	322.45
711.61	321.28
711.95	320.28
712.28	319.25
712.61	318.07
712.95	316.84
713.28	315.81
713.61	314.58
713.95	313.37
714.28	312.29
714.61	311.45
714.95	310.44
715.28	309.28
715.61	308.22
715.95	307.37
716.28	306.50
716.61	305.58
716.95	304.49
717.28	303.70
717.61	302.77
717.94	301.97
718.28	301.00
718.61	300.24
718.94	299.46
719.27	298.51
719.61	297.80
719.94	297.04
720.27	296.12
720.60	295.35
720.94	294.78
721.27	294.08
721.60	293.40
721.93	292.62
722.27	292.01
722.60	291.46
722.93	290.68
723.26	290.02
723.59	289.34
723.93	288.65
724.26	287.89
724.59	287.29
724.92	286.61
725.25	286.00
725.59	285.38
725.92	284.80
726.25	284.20
726.58	283.64
726.91	283.10
727.24	282.58
727.57	282.06
727.91	281.55
728.24	281.01
728.57	280.50
728.90	280.02
729.23	279.38
729.56	278.87
729.89	278.36
730.22	277.79
730.55	277.33
730.89	276.75
731.22	276.28
731.55	275.79
731.88	275.31
732.21	274.67
732.54	274.10
732.87	273.60
733.20	273.19
733.53	272.57
733.86	272.03
734.19	271.49
734.52	270.93
734.85	270.43
735.18	269.87
735.51	269.41
735.84	268.94
736.17	268.57
736.50	268.00
736.83	267.81
737.16	267.44
737.49	266.86
737.82	266.45
738.15	266.04
738.48	265.63
738.81	265.20
739.14	264.75
739.47	264.40
739.80	263.90
740.13	263.49
740.46	263.19
740.79	262.83
741.12	262.28
741.45	261.94
741.78	261.48
742.11	261.22
742.44	260.80
742.77	260.36
743.10	259.94
743.43	259.60
743.75	258.99
744.08	258.69
744.41	258.24
744.74	257.91
745.07	257.38
745.40	257.05
745.73	256.73
746.06	256.52
746.39	256.12
746.71	255.72
747.04	255.40
747.37	254.96
747.70	254.67
748.03	254.45
748.36	254.09
748.68	253.70
749.01	253.30
749.34	252.90
749.67	252.68
750.00	252.39
750.33	252.14
750.65	251.83
750.98	251.40
751.31	251.24
751.64	251.02
751.97	251.04
752.29	250.56
752.62	250.15
752.95	249.80
753.28	249.63
753.60	249.45
753.93	249.15
754.26	249.04
754.59	248.70
754.91	248.47
755.24	248.28
755.57	248.11
755.90	247.90
756.22	247.67
756.55	247.35
756.88	247.02
757.20	246.63
757.53	246.33
757.86	246.15
758.19	245.96
758.51	245.63
758.84	245.18
759.17	245.14
759.49	245.00
759.82	244.86
760.15	244.69
760.47	244.44
760.80	244.19
761.13	243.94
761.45	243.72
761.78	243.55
762.11	243.38
762.43	243.18
762.76	242.99
763.08	242.93
763.41	242.89
763.74	242.77
764.06	242.71
764.39	242.55
764.71	242.27
765.04	242.02
765.37	241.91
765.69	241.81
766.02	241.64
766.34	241.49
766.67	241.30
767.00	241.05
767.32	241.06
767.65	241.11
767.97	241.02
768.30	240.93
768.62	240.72
768.95	240.66
769.27	240.43
769.60	240.38
769.92	240.15
770.25	239.89
770.57	239.73
770.90	239.63
771.22	239.49
771.55	239.35
771.87	239.26
772.20	239.18
772.52	239.21
772.85	239.30
773.17	239.16
773.50	239.03
773.82	238.91
774.15	238.66
774.47	238.45
774.80	238.28
775.12	238.15
775.45	238.11
775.77	237.92
776.09	237.95
776.42	237.78
776.74	237.77
777.07	237.72
777.39	237.72
777.72	237.61
778.04	237.59
778.36	237.48
778.69	237.53
779.01	237.47
779.33	237.25
779.66	236.98
779.98	236.87
780.31	236.84
780.63	236.74
780.95	236.77
781.28	236.67
781.60	236.62
781.92	236.49
782.25	236.46
782.57	236.35
782.89	236.13
783.22	236.15
783.54	236.02
783.86	235.92
784.19	235.82
784.51	235.88
784.83	235.76
785.16	235.75
785.48	235.59
785.80	235.47
786.12	235.42
786.45	235.30
786.77	235.33
787.09	235.27
787.42	235.25
787.74	235.15
788.06	235.05
788.38	234.97
788.71	234.90
789.03	234.74
789.35	234.79
789.67	234.77
789.99	234.64
790.32	234.44
790.64	234.41
790.96	234.53
791.28	234.26
791.61	234.24
791.93	234.20
792.25	234.17
792.57	234.23
792.89	234.14
793.21	234.08
793.54	233.99
793.86	233.78
794.18	233.60
794.50	233.48
794.82	233.48
795.14	233.40
795.47	233.42
795.79	233.39
796.11	233.24
796.43	233.19
796.75	233.08
797.07	233.20
797.39	233.14
797.71	232.90
798.04	232.94
798.36	232.82
798.68	232.71
799.00	232.63
799.32	232.46
799.64	232.36
799.96	232.37
800.28	232.31
800.60	232.30
800.92	232.46
801.24	232.43
801.56	232.41
801.89	232.35
802.21	232.36
802.53	232.34
802.85	232.30
803.17	232.28
803.49	232.24
803.81	232.17
804.13	232.15
804.45	232.05
804.77	232.04
805.09	232.01
805.41	231.90
805.73	231.81
806.05	231.72
806.37	231.76
806.69	231.70
807.01	231.68
807.33	231.71
807.65	231.58
807.97	231.74
808.28	231.57
808.60	231.56
808.92	231.45
809.24	231.57
809.56	231.59
809.88	231.61
810.20	231.62
810.52	231.51
810.84	231.51
811.16	231.51
811.48	231.44
811.80	231.47
812.12	231.47
812.43	231.56
812.75	231.56
813.07	231.54
813.39	231.48
813.71	231.44
814.03	231.41
814.35	231.42
814.67	231.24
814.98	231.22
815.30	231.21
815.62	231.15
815.94	230.91
816.26	230.90
816.58	230.85
816.89	230.78
817.21	230.80
817.53	230.74
817.85	230.74
818.17	230.67
818.48	230.60
818.80	230.68
819.12	230.52
819.44	230.47
819.76	230.36
820.07	230.38
820.39	230.40
820.71	230.42
821.03	230.35
821.34	230.27
821.66	230.32
821.98	230.36
822.30	230.36
822.61	230.50
822.93	230.41
823.25	230.29
823.57	230.33
823.88	230.31
824.20	230.29
824.52	230.37
824.83	230.40
825.15	230.43
825.47	230.30
825.79	230.40
826.10	230.44
826.42	230.45
826.74	230.43
827.05	230.40
827.37	230.32
827.69	230.28
828.00	230.30
828.32	230.33
828.64	230.20
828.95	230.24
829.27	230.22
829.58	230.24
829.90	230.32
830.22	230.27
830.53	230.26
830.85	230.29
831.17	230.16
831.48	230.12
831.80	230.09
832.11	230.20
832.43	230.24
832.75	230.23
833.06	230.40
833.38	230.42
833.69	230.35
834.01	230.36
834.32	230.40
834.64	230.38
834.96	230.34
835.27	230.38
835.59	230.41
835.90	230.33
836.22	230.25
836.53	230.22
836.85	230.30
837.16	230.44
837.48	230.39
837.79	230.42
838.11	230.45
838.42	230.44
838.74	230.40
839.05	230.35
839.37	230.35
839.68	230.09
840.00	230.06
840.31	230.09
840.63	230.05
840.94	230.08
841.26	230.07
841.57	230.08
841.88	230.05
842.20	229.95
842.51	229.87
842.83	229.91
843.14	230.09
843.46	229.92
843.77	229.80
844.08	229.71
844.40	229.62
844.71	229.58
845.03	229.56
845.34	229.64
845.65	229.51
845.97	229.53
846.28	229.64
846.60	229.55
846.91	229.56
847.22	229.61
847.54	229.54
847.85	229.54
848.16	229.49
848.48	229.49
848.79	229.60
849.10	229.60
849.42	229.54
849.73	229.34
850.04	229.42
850.36	229.38
850.67	229.50
850.98	229.56
851.30	229.61
851.61	229.63
851.92	229.47
852.23	229.52
852.55	229.46
852.86	229.45
853.17	229.48
853.49	229.58
853.80	229.60
854.11	229.70
854.42	229.70
854.74	229.65
855.05	229.60
855.36	229.47
855.67	229.57
855.99	229.55
856.30	229.80
856.61	229.76
856.92	229.70
857.23	229.69
857.55	229.61
857.86	229.49
858.17	229.43
858.48	229.44
858.79	229.40
859.11	229.47
859.42	229.46
859.73	229.54
860.04	229.47
860.35	229.47
860.66	229.30
860.98	229.37
861.29	229.46
861.60	229.51
861.91	229.61
862.22	229.61
862.53	229.60
862.84	229.28
863.16	229.30
863.47	229.40
863.78	229.38
864.09	229.42
864.40	229.51
864.71	229.64
865.02	229.67
865.33	229.72
865.64	229.58
865.95	229.52
866.27	229.65
866.58	229.66
866.89	229.61
867.20	229.68
867.51	229.60
867.82	229.47
868.13	229.50
868.44	229.31
868.75	229.28
869.06	229.39
869.37	229.50
869.68	229.48
869.99	229.42
870.30	229.47
870.61	229.50
870.92	229.40
871.23	229.24
871.54	229.30
871.85	229.32
872.16	229.35
872.47	229.34
872.78	229.18
873.09	229.07
873.40	229.03
873.71	229.10
874.02	229.13
874.33	229.20
874.64	229.13
874.95	229.34
875.26	229.25
875.56	229.25
875.87	229.21
876.18	229.33
876.49	229.49
876.80	229.43
877.11	229.30
877.42	229.43
877.73	229.54
878.04	229.53
878.35	229.44
878.66	229.50
878.96	229.55
879.27	229.50
879.58	229.52
879.89	229.51
880.20	229.51
880.51	229.46
880.82	229.39
881.12	229.31
881.43	229.21
881.74	229.30
882.05	229.16
882.36	229.20
882.67	229.06
882.97	228.87
883.28	228.86
883.59	228.97
883.90	228.91
884.21	228.81
884.51	228.70
884.82	228.70
885.13	228.68
885.44	228.71
885.74	228.65
886.05	228.62
886.36	228.66
886.67	228.56
886.98	228.61
887.28	228.66
887.59	228.72
887.90	228.72
888.20	228.63
888.51	228.80
888.82	228.76
889.13	228.80
889.43	229.07
889.74	229.04
890.05	228.97
890.35	228.89
890.66	228.90
890.97	228.96
891.28	229.07
891.58	229.07
891.89	229.00
892.20	229.05
892.50	229.11
892.81	229.11
893.12	229.14
893.42	229.18
893.73	229.18
894.04	229.23
894.34	229.27
894.65	229.30
894.95	229.20
895.26	229.15
895.57	229.25
895.87	228.91
896.18	229.00
896.48	229.08
896.79	229.22
897.10	229.30
897.40	229.30
897.71	229.29
898.01	229.34
898.32	229.32
898.63	229.31
898.93	229.28
899.24	229.30
899.54	229.27
899.85	229.24
900.15	229.26
900.46	229.19
900.76	229.11
901.07	229.14
901.38	229.17
901.68	229.19
901.99	229.06
902.29	229.19
902.60	229.16
902.90	229.16
903.21	229.11
903.51	229.06
903.82	229.17
904.12	229.11
904.43	229.02
904.73	229.08
905.03	229.14
905.34	229.42
905.64	229.36
905.95	229.36
906.25	229.35
906.56	229.29
906.86	229.33
907.17	229.35
907.47	229.32
907.77	229.27
908.08	229.26
908.38	229.24
908.69	229.33
908.99	229.29
909.30	229.35
909.60	229.35
909.90	229.37
910.21	229.28
910.51	229.22
910.81	229.17
911.12	229.18
911.42	229.15
911.73	228.87
912.03	228.95
912.33	229.02
912.64	228.89
912.94	228.93
913.24	228.86
913.55	228.83
913.85	228.70
914.15	228.69
914.46	228.71
914.76	228.79
915.06	228.60
915.37	228.59
915.67	228.43
915.97	228.42
916.27	228.33
916.58	228.31
916.88	228.38
917.18	228.45
917.49	228.57
917.79	228.45
918.09	228.43
918.39	228.40
918.70	228.30
919.00	228.32
919.30	228.33
919.60	228.33
919.91	228.37
920.21	228.47
920.51	228.50
920.81	228.41
921.12	228.35
921.42	228.44
921.72	228.40
922.02	228.48
922.32	228.43
922.63	228.37
922.93	228.32
923.23	228.26
923.53	228.16
923.83	227.95
924.13	228.03
924.44	228.00
924.74	228.04
925.04	228.14
925.34	228.11
925.64	228.08
925.94	228.08
926.24	228.10
926.55	228.00
926.85	227.94
927.15	227.96
927.45	227.98
927.75	227.87
928.05	227.89
928.35	227.87
928.65	227.88
928.95	227.97
929.26	228.04
929.56	228.10
929.86	228.16
930.16	228.29
930.46	228.23
930.76	228.35
931.06	228.24
931.36	228.05
931.66	228.09
931.96	228.15
932.26	228.08
932.56	227.93
932.86	228.06
933.16	228.16
933.46	228.18
933.76	228.14
934.06	228.26
934.36	228.33
934.66	228.31
934.96	228.28
935.26	228.36
935.56	228.31
935.86	228.27
936.16	228.30
936.46	228.18
936.76	228.28
937.06	228.22
937.36	228.27
937.66	228.36
937.96	228.45
938.26	228.41
938.56	228.45
938.86	228.64
939.16	228.65
939.46	228.57
939.76	228.63
940.06	228.61
940.35	228.54
940.65	228.46
940.95	228.43
941.25	228.49
941.55	228.48
941.85	228.42
942.15	228.49
942.45	228.57
942.75	228.64
943.04	228.50
943.34	228.50
943.64	228.47
943.94	228.43
944.24	228.32
944.54	228.26
944.84	228.33
945.13	228.18
945.43	228.20
945.73	228.20
946.03	228.07
946.33	228.10
946.62	228.10
946.92	228.19
947.22	228.24
947.52	228.28
947.82	228.20
948.11	228.25
948.41	228.23
948.71	228.17
949.01	228.06
949.31	228.27
949.60	228.25
949.90	228.30
950.20	228.48
950.50	228.59
950.79	228.64
951.09	228.53
951.39	228.57
951.69	228.49
951.98	228.58
952.28	228.67
952.58	228.61
952.87	228.58
953.17	228.49
953.47	228.45
953.76	228.39
954.06	228.43
954.36	228.37
954.66	228.36
954.95	228.36
955.25	228.44
955.55	228.39
955.84	228.40
956.14	228.44
956.44	228.28
956.73	228.17
957.03	228.21
957.32	228.31
957.62	228.27
957.92	228.34
958.21	228.23
958.51	228.40
958.81	228.42
959.10	228.53
959.40	228.50
959.69	228.53
959.99	228.63
960.29	228.60
960.58	228.63
960.88	228.70
961.17	228.65
961.47	228.60
961.76	228.50
962.06	228.46
962.36	228.36
962.65	228.38
962.95	228.40
963.24	228.35
963.54	228.39
963.83	228.42
964.13	228.40
964.42	228.43
964.72	228.27
965.01	228.30
965.31	228.26
965.60	228.27
965.90	228.19
966.19	228.10
966.49	228.04
966.78	228.05
967.08	227.95
967.37	227.97
967.67	227.96
967.96	227.97
968.26	228.08
968.55	228.11
968.85	228.19
969.14	228.10
969.43	228.10
969.73	227.98
970.02	228.00
970.32	227.97
970.61	227.91
970.91	227.84
971.20	227.75
971.49	227.70
971.79	227.74
972.08	227.84
972.38	227.77
972.67	227.70
972.96	227.74
973.26	227.72
973.55	227.76
973.85	227.74
974.14	227.77
974.43	227.79
974.73	227.77
975.02	227.64
975.31	227.73
975.61	227.75
975.90	227.77
976.19	227.72
976.49	227.77
976.78	227.94
977.07	227.97
977.37	227.98
977.66	228.00
977.95	228.01
978.24	227.96
978.54	228.02
978.83	228.17
979.12	228.13
979.42	228.10
979.71	228.01
980.00	228.09
980.29	228.03
980.59	227.92
980.88	227.99
981.17	228.07
981.46	228.09
981.76	228.02
982.05	228.13
982.34	228.09
982.63	228.14
982.93	227.98
983.22	228.05
983.51	228.17
983.80	228.20
984.09	228.20
984.39	228.19
984.68	228.22
984.97	228.23
985.26	228.26
985.55	228.31
985.85	228.40
986.14	228.40
986.43	228.51
986.72	228.40
987.01	228.38
987.30	228.38
987.59	228.37
987.89	228.48
988.18	228.43
988.47	228.45
988.76	228.51
989.05	228.53
989.34	228.52
989.63	228.60
989.92	228.65
990.22	228.67
990.51	228.69
990.80	228.61
991.09	228.55
991.38	228.53
991.67	228.58
991.96	228.45
992.25	228.50
992.54	228.48
992.83	228.60
993.12	228.57
993.41	228.57
993.70	228.64
993.99	228.59
994.28	228.60
994.58	228.72
994.87	228.65
995.16	228.76
995.45	228.65
995.74	228.52
996.03	228.44
996.32	228.43
996.61	228.47
996.90	228.55
997.19	228.62
997.48	228.70
997.77	228.65
998.06	228.78
998.34	228.74
998.63	228.69
998.92	228.72
999.21	228.77
999.50	228.79
999.79	228.71
1000.08	228.80
1000.37	228.67
1000.66	228.64
1000.95	228.51
1001.24	228.51
1001.53	228.65
1001.82	228.70
1002.11	228.68
1002.40	228.69
1002.68	228.71
1002.97	228.81
1003.26	228.73
1003.55	228.63
1003.84	228.59
1004.13	228.59
1004.42	228.59
1004.71	228.73
1004.99	228.76
1005.28	228.83
1005.57	228.90
1005.86	228.94
1006.15	228.87
1006.44	228.98
1006.72	228.95
1007.01	229.00
1007.30	229.00
1007.59	228.94
1007.88	228.90
1008.17	228.89
1008.45	228.84
1008.74	228.82
1009.03	228.77
1009.32	228.80
1009.60	228.79
1009.89	228.88
1010.18	228.83
1010.47	228.77
1010.76	228.68
1011.04	228.59
1011.33	228.59
1011.62	228.59
1011.91	228.64
1012.19	228.65
1012.48	228.61
1012.77	228.68
1013.05	228.87
1013.34	228.82
1013.63	228.74
1013.92	228.74
1014.20	228.74
1014.49	228.79
1014.78	228.76
1015.06	228.75
1015.35	228.80
1015.64	228.89
1015.92	228.88
1016.21	228.87
1016.50	228.91
1016.78	228.89
1017.07	228.91
1017.36	228.80
1017.64	228.68
1017.93	228.72
1018.22	228.73
1018.50	228.84
1018.79	228.83
1019.08	228.71
1019.36	228.70
1019.65	228.68
1019.93	228.74
1020.22	228.79
1020.51	228.90
1020.79	228.96
1021.08	228.60
1021.36	230.30
1021.65	229.80
1021.94	229.20
1022.22	228.00
1022.51	226.80
1022.79	229.50
1023.08	228.50
1023.36	231.50
1023.65	230.00
>>>>>End Processed Spectral Data<<<<<
