SpectraSuite Data File
++++++++++++++++++++++++++++++++++++
Date: Fri Feb 01 14:40:49 EST 2013
User: group
Dark Spectrum Present: No
Reference Spectrum Present: No
Number of Sampled Component Spectra: 1
Spectrometers: USB2E7196
Integration Time (usec): 70000 (USB2E7196)
Spectra Averaged: 10 (USB2E7196)
Boxcar Smoothing: 10 (USB2E7196)
Correct for Electrical Dark: No (USB2E7196)
Strobe/Lamp Enabled: No (USB2E7196)
Correct for Detector Non-linearity: No (USB2E7196)
Correct for Stray Light: No (USB2E7196)
Number of Pixels in Processed Spectrum: 2048
>>>>>Begin Processed Spectral Data<<<<<
339.09	0.00
339.48	216.70
339.86	217.80
340.24	218.70
340.63	220.30
341.01	224.70
341.39	223.10
341.78	224.60
342.16	225.40
342.54	226.00
342.93	214.63
343.31	225.45
343.69	225.90
344.07	226.34
344.46	226.73
344.84	227.12
345.22	227.35
345.60	227.66
345.99	227.85
346.37	227.89
346.75	227.91
347.13	227.96
347.52	228.06
347.90	228.17
348.28	228.19
348.66	228.12
349.05	228.17
349.43	228.16
349.81	228.21
350.19	228.27
350.57	228.30
350.96	228.34
351.34	228.42
351.72	228.51
352.10	228.61
352.48	228.73
352.87	228.78
353.25	228.74
353.63	228.69
354.01	228.74
354.39	228.95
354.77	229.04
355.15	229.22
355.54	229.33
355.92	229.36
356.30	229.42
356.68	229.76
357.06	229.84
357.44	229.94
357.82	229.94
358.20	229.91
358.58	230.01
358.97	230.16
359.35	230.33
359.73	230.47
360.11	230.49
360.49	230.55
360.87	230.68
361.25	230.83
361.63	230.97
362.01	231.07
362.39	231.11
362.77	231.30
363.15	231.33
363.53	231.37
363.91	231.34
364.29	231.33
364.67	231.12
365.05	231.16
365.43	231.18
365.81	231.24
366.19	231.49
366.57	231.55
366.95	231.45
367.33	231.34
367.71	231.36
368.09	231.42
368.47	231.42
368.85	231.34
369.23	231.28
369.61	231.27
369.99	231.27
370.37	231.24
370.75	231.23
371.13	231.11
371.51	231.00
371.89	231.09
372.27	231.11
372.65	231.03
373.03	230.96
373.41	230.92
373.78	230.78
374.16	230.57
374.54	230.50
374.92	230.57
375.30	230.45
375.68	230.35
376.06	230.38
376.44	230.32
376.82	230.26
377.19	230.27
377.57	230.23
377.95	230.10
378.33	229.97
378.71	229.79
379.09	229.78
379.47	229.74
379.84	229.54
380.22	229.25
380.60	229.20
380.98	229.14
381.36	229.03
381.73	229.02
382.11	228.93
382.49	228.74
382.87	228.54
383.25	228.60
383.62	228.74
384.00	228.48
384.38	228.42
384.76	228.41
385.13	228.39
385.51	228.15
385.89	227.99
386.27	227.96
386.64	227.87
387.02	227.73
387.40	227.70
387.78	227.66
388.15	227.83
388.53	227.67
388.91	227.51
389.29	227.41
389.66	227.35
390.04	227.26
390.42	227.30
390.79	227.25
391.17	227.15
391.55	226.90
391.92	226.90
392.30	226.80
392.68	226.73
393.05	226.65
393.43	226.73
393.81	226.84
394.18	226.79
394.56	226.85
394.94	226.85
395.31	226.81
395.69	226.96
396.06	226.85
396.44	226.99
396.82	227.09
397.19	227.23
397.57	227.38
397.95	227.51
398.32	227.50
398.70	227.62
399.07	227.77
399.45	227.83
399.82	228.06
400.20	228.16
400.58	228.16
400.95	228.17
401.33	228.30
401.70	228.49
402.08	228.61
402.45	228.66
402.83	228.94
403.20	229.13
403.58	229.17
403.95	229.44
404.33	229.54
404.71	229.68
405.08	230.00
405.46	230.02
405.83	230.24
406.21	230.43
406.58	230.65
406.96	230.82
407.33	231.07
407.70	231.29
408.08	231.71
408.45	232.09
408.83	232.49
409.20	232.70
409.58	232.83
409.95	233.10
410.33	233.49
410.70	233.72
411.08	234.02
411.45	234.32
411.82	234.63
412.20	235.04
412.57	235.62
412.95	235.65
413.32	236.16
413.69	236.52
414.07	236.95
414.44	237.36
414.82	237.89
415.19	238.41
415.56	238.98
415.94	239.49
416.31	240.14
416.68	240.71
417.06	241.42
417.43	242.19
417.81	242.99
418.18	243.89
418.55	244.80
418.93	245.73
419.30	246.57
419.67	247.50
420.04	248.47
420.42	249.42
420.79	250.86
421.16	252.08
421.54	253.31
421.91	254.66
422.28	255.97
422.66	257.32
423.03	258.74
423.40	260.03
423.77	261.39
424.15	262.73
424.52	264.21
424.89	266.01
425.26	267.65
425.64	269.08
426.01	270.63
426.38	272.22
426.75	274.00
427.13	275.89
427.50	277.89
427.87	279.89
428.24	281.80
428.61	283.56
428.99	285.52
429.36	287.77
429.73	289.85
430.10	292.01
430.47	294.11
430.85	296.20
431.22	298.60
431.59	301.21
431.96	303.70
432.33	306.27
432.70	308.65
433.08	311.56
433.45	314.49
433.82	317.17
434.19	320.18
434.56	323.05
434.93	325.94
435.30	328.60
435.68	331.56
436.05	334.56
436.42	337.59
436.79	340.32
437.16	342.97
437.53	345.98
437.90	348.90
438.27	351.95
438.64	354.99
439.01	357.60
439.38	359.89
439.75	361.98
440.13	364.51
440.50	366.85
440.87	368.72
441.24	370.58
441.61	372.79
441.98	374.45
442.35	376.23
442.72	377.98
443.09	379.89
443.46	381.00
443.83	381.55
444.20	381.92
444.57	382.60
444.94	382.94
445.31	383.22
445.68	383.61
446.05	383.49
446.42	383.03
446.79	382.71
447.16	382.26
447.53	381.96
447.90	380.96
448.27	379.96
448.64	378.27
449.01	377.12
449.37	375.16
449.74	373.20
450.11	371.02
450.48	368.48
450.85	365.81
451.22	363.51
451.59	361.39
451.96	359.40
452.33	356.74
452.70	354.31
453.07	351.47
453.43	348.38
453.80	345.61
454.17	342.85
454.54	340.12
454.91	337.26
455.28	334.51
455.65	331.74
456.02	329.17
456.38	326.94
456.75	324.15
457.12	321.82
457.49	319.40
457.86	316.97
458.23	315.08
458.59	312.87
458.96	310.66
459.33	308.67
459.70	306.71
460.07	305.19
460.43	303.33
460.80	301.56
461.17	299.97
461.54	298.34
461.91	296.81
462.27	295.25
462.64	293.91
463.01	292.50
463.38	291.21
463.74	289.63
464.11	288.36
464.48	287.29
464.85	286.07
465.21	285.05
465.58	284.20
465.95	283.03
466.32	281.99
466.68	281.00
467.05	280.05
467.42	278.98
467.78	277.86
468.15	276.85
468.52	276.03
468.88	275.07
469.25	274.10
469.62	273.41
469.98	272.59
470.35	271.80
470.72	271.06
471.08	270.23
471.45	269.55
471.82	268.79
472.18	268.07
472.55	267.43
472.92	266.77
473.28	266.09
473.65	265.42
474.02	264.92
474.38	264.40
474.75	263.92
475.11	263.56
475.48	263.20
475.85	262.87
476.21	262.50
476.58	262.23
476.94	261.88
477.31	261.50
477.67	261.13
478.04	260.76
478.41	260.60
478.77	260.48
479.14	260.24
479.50	260.12
479.87	259.88
480.23	259.65
480.60	259.47
480.96	259.29
481.33	259.21
481.69	259.09
482.06	258.93
482.42	258.79
482.79	258.65
483.15	258.58
483.52	258.63
483.88	258.50
484.25	258.45
484.61	258.51
484.98	258.48
485.34	258.64
485.71	258.79
486.07	258.80
486.44	258.85
486.80	259.01
487.17	259.23
487.53	259.51
487.90	259.84
488.26	260.30
488.62	260.71
488.99	261.16
489.35	261.59
489.72	262.17
490.08	262.78
490.44	263.28
490.81	263.92
491.17	264.51
491.54	265.27
491.90	266.11
492.26	266.92
492.63	267.84
492.99	268.66
493.36	269.70
493.72	270.90
494.08	271.96
494.45	273.12
494.81	274.48
495.17	275.80
495.54	277.20
495.90	278.67
496.26	280.19
496.63	281.84
496.99	283.62
497.35	285.37
497.72	287.21
498.08	289.18
498.44	291.26
498.80	293.56
499.17	295.92
499.53	298.36
499.89	300.96
500.26	303.45
500.62	306.21
500.98	309.14
501.34	311.96
501.71	315.03
502.07	318.29
502.43	321.66
502.79	325.11
503.16	328.80
503.52	332.62
503.88	336.49
504.24	340.49
504.60	344.68
504.97	349.09
505.33	353.64
505.69	358.59
506.05	363.60
506.41	368.68
506.78	373.93
507.14	379.20
507.50	384.74
507.86	390.73
508.22	396.72
508.59	402.75
508.95	409.13
509.31	415.68
509.67	422.49
510.03	429.41
510.39	436.58
510.75	443.89
511.12	451.18
511.48	458.89
511.84	466.79
512.20	474.61
512.56	482.87
512.92	491.41
513.28	500.06
513.64	508.70
514.00	517.69
514.37	526.98
514.73	536.51
515.09	546.00
515.45	555.36
515.81	565.31
516.17	575.48
516.53	585.93
516.89	596.51
517.25	607.09
517.61	617.62
517.97	628.45
518.33	639.27
518.69	650.45
519.05	661.94
519.41	673.60
519.77	685.63
520.13	697.62
520.49	709.45
520.85	721.44
521.21	733.79
521.57	746.43
521.93	758.67
522.29	771.31
522.65	784.12
523.01	797.11
523.37	809.74
523.73	822.76
524.09	835.83
524.45	849.30
524.81	862.96
525.17	876.74
525.53	890.80
525.89	904.99
526.25	919.34
526.61	933.05
526.97	947.14
527.33	961.50
527.68	976.13
528.04	990.73
528.40	1005.39
528.76	1020.33
529.12	1034.98
529.48	1050.16
529.84	1064.61
530.20	1079.74
530.56	1095.24
530.91	1111.15
531.27	1126.53
531.63	1141.54
531.99	1156.67
532.35	1171.25
532.71	1186.23
533.07	1201.60
533.42	1216.78
533.78	1231.97
534.14	1247.25
534.50	1261.71
534.86	1276.70
535.21	1290.95
535.57	1305.99
535.93	1320.85
536.29	1335.35
536.65	1349.82
537.00	1364.13
537.36	1378.78
537.72	1392.95
538.08	1406.80
538.44	1420.86
538.79	1434.85
539.15	1449.02
539.51	1462.83
539.87	1477.48
540.22	1491.41
540.58	1505.19
540.94	1518.40
541.29	1531.53
541.65	1545.20
542.01	1559.43
542.37	1572.72
542.72	1585.90
543.08	1598.72
543.44	1611.84
543.79	1624.09
544.15	1636.80
544.51	1649.86
544.87	1662.54
545.22	1674.73
545.58	1687.03
545.94	1698.14
546.29	1709.71
546.65	1720.96
547.01	1732.38
547.36	1743.18
547.72	1753.59
548.07	1763.36
548.43	1774.14
548.79	1784.36
549.14	1793.90
549.50	1803.29
549.86	1812.60
550.21	1822.16
550.57	1831.31
550.92	1840.31
551.28	1849.65
551.64	1858.57
551.99	1867.11
552.35	1876.07
552.70	1884.40
553.06	1893.06
553.41	1901.64
553.77	1909.74
554.13	1917.87
554.48	1925.70
554.84	1933.01
555.19	1940.89
555.55	1949.02
555.90	1955.74
556.26	1962.91
556.61	1970.23
556.97	1976.71
557.32	1983.41
557.68	1990.09
558.03	1996.82
558.39	2002.86
558.74	2009.83
559.10	2015.94
559.45	2021.80
559.81	2028.20
560.16	2034.28
560.52	2039.80
560.87	2045.50
561.23	2050.66
561.58	2055.71
561.94	2060.44
562.29	2065.19
562.64	2069.87
563.00	2074.01
563.35	2079.35
563.71	2084.80
564.06	2089.53
564.42	2094.81
564.77	2099.61
565.12	2104.32
565.48	2108.65
565.83	2112.33
566.19	2115.66
566.54	2118.66
566.89	2121.62
567.25	2124.44
567.60	2128.17
567.96	2130.94
568.31	2133.52
568.66	2136.06
569.02	2139.01
569.37	2141.42
569.72	2143.93
570.08	2145.64
570.43	2147.22
570.78	2148.26
571.14	2148.62
571.49	2149.30
571.84	2150.70
572.20	2150.78
572.55	2150.78
572.90	2150.67
573.26	2151.52
573.61	2151.21
573.96	2151.35
574.31	2150.68
574.67	2148.60
575.02	2146.55
575.37	2145.45
575.72	2143.70
576.08	2142.58
576.43	2140.70
576.78	2139.03
577.13	2137.99
577.49	2136.95
577.84	2135.47
578.19	2133.57
578.54	2131.34
578.90	2128.77
579.25	2125.08
579.60	2122.18
579.95	2119.31
580.30	2115.99
580.66	2112.76
581.01	2109.23
581.36	2105.98
581.71	2103.19
582.06	2100.68
582.42	2097.15
582.77	2093.33
583.12	2089.85
583.47	2086.62
583.82	2083.60
584.17	2079.92
584.53	2075.79
584.88	2071.56
585.23	2067.47
585.58	2063.26
585.93	2059.46
586.28	2056.25
586.63	2052.87
586.98	2049.50
587.34	2045.84
587.69	2042.19
588.04	2037.60
588.39	2034.20
588.74	2029.10
589.09	2024.22
589.44	2018.90
589.79	2014.79
590.14	2010.90
590.49	2006.14
590.84	2000.76
591.19	1995.39
591.54	1989.72
591.89	1983.40
592.25	1977.86
592.60	1971.50
592.95	1965.75
593.30	1959.54
593.65	1953.28
594.00	1947.00
594.35	1941.30
594.70	1934.82
595.05	1929.12
595.40	1922.89
595.75	1915.75
596.10	1910.61
596.45	1905.14
596.80	1900.39
597.15	1894.62
597.50	1888.44
597.85	1883.04
598.19	1877.77
598.54	1872.03
598.89	1866.60
599.24	1861.92
599.59	1856.33
599.94	1851.38
600.29	1845.82
600.64	1840.25
600.99	1833.67
601.34	1827.77
601.69	1821.31
602.04	1815.19
602.39	1808.99
602.74	1803.45
603.08	1798.28
603.43	1792.50
603.78	1786.31
604.13	1779.50
604.48	1773.32
604.83	1767.25
605.18	1761.06
605.53	1754.02
605.87	1746.90
606.22	1740.42
606.57	1733.18
606.92	1726.52
607.27	1720.43
607.62	1714.35
607.96	1707.79
608.31	1701.80
608.66	1694.47
609.01	1687.37
609.36	1680.07
609.70	1671.96
610.05	1664.17
610.40	1656.99
610.75	1649.11
611.10	1641.40
611.44	1633.41
611.79	1626.13
612.14	1618.12
612.49	1609.62
612.83	1601.68
613.18	1594.15
613.53	1586.48
613.88	1578.32
614.22	1570.58
614.57	1562.19
614.92	1553.94
615.27	1546.40
615.61	1538.57
615.96	1531.30
616.31	1524.01
616.65	1517.30
617.00	1510.32
617.35	1503.53
617.70	1495.65
618.04	1487.66
618.39	1480.55
618.74	1473.63
619.08	1465.58
619.43	1458.40
619.78	1451.65
620.12	1444.62
620.47	1437.10
620.82	1429.12
621.16	1422.19
621.51	1415.33
621.85	1408.08
622.20	1400.44
622.55	1393.10
622.89	1386.06
623.24	1379.16
623.59	1372.17
623.93	1365.07
624.28	1358.11
624.62	1350.60
624.97	1343.72
625.32	1337.28
625.66	1330.24
626.01	1323.34
626.35	1316.31
626.70	1308.90
627.04	1302.19
627.39	1295.05
627.73	1288.30
628.08	1282.06
628.43	1275.09
628.77	1267.69
629.12	1260.40
629.46	1253.63
629.81	1246.24
630.15	1238.66
630.50	1231.30
630.84	1223.29
631.19	1215.45
631.53	1208.11
631.88	1200.71
632.22	1192.97
632.57	1186.02
632.91	1178.34
633.26	1171.15
633.60	1163.80
633.95	1156.69
634.29	1149.45
634.64	1142.96
634.98	1135.88
635.32	1128.95
635.67	1122.56
636.01	1116.01
636.36	1109.54
636.70	1103.04
637.05	1096.70
637.39	1090.66
637.73	1084.09
638.08	1078.33
638.42	1072.17
638.77	1066.17
639.11	1059.89
639.45	1053.68
639.80	1047.15
640.14	1041.03
640.49	1034.76
640.83	1028.74
641.17	1022.61
641.52	1016.36
641.86	1009.48
642.20	1003.74
642.55	997.69
642.89	991.22
643.23	984.79
643.58	978.97
643.92	972.46
644.26	966.33
644.61	960.15
644.95	954.33
645.29	947.96
645.64	941.76
645.98	935.63
646.32	929.74
646.66	923.84
647.01	917.90
647.35	912.32
647.69	906.53
648.04	900.99
648.38	894.94
648.72	888.82
649.06	882.78
649.41	876.31
649.75	869.91
650.09	864.01
650.43	858.20
650.78	851.75
651.12	846.01
651.46	840.29
651.80	834.47
652.14	828.60
652.49	822.86
652.83	817.46
653.17	811.36
653.51	805.57
653.85	800.05
654.20	794.20
654.54	788.31
654.88	782.29
655.22	776.10
655.56	770.41
655.90	764.81
656.25	759.60
656.59	754.33
656.93	749.08
657.27	743.76
657.61	738.25
657.95	733.52
658.29	728.40
658.64	722.79
658.98	717.38
659.32	712.09
659.66	707.03
660.00	701.76
660.34	696.89
660.68	692.04
661.02	687.00
661.36	682.22
661.70	677.56
662.05	673.23
662.39	669.10
662.73	664.77
663.07	660.58
663.41	656.24
663.75	652.01
664.09	647.79
664.43	643.38
664.77	639.13
665.11	634.97
665.45	630.86
665.79	627.03
666.13	622.94
666.47	618.80
666.81	614.92
667.15	610.80
667.49	606.84
667.83	603.06
668.17	599.18
668.51	595.19
668.85	591.00
669.19	587.26
669.53	583.29
669.87	579.43
670.21	575.81
670.55	572.21
670.89	568.77
671.23	565.26
671.57	561.80
671.91	558.38
672.25	554.60
672.58	551.20
672.92	547.70
673.26	544.60
673.60	541.69
673.94	538.34
674.28	535.43
674.62	532.45
674.96	529.29
675.30	526.15
675.64	523.31
675.97	520.65
676.31	517.35
676.65	514.31
676.99	511.49
677.33	508.42
677.67	505.49
678.01	502.30
678.34	499.40
678.68	496.71
679.02	493.80
679.36	491.10
679.70	488.41
680.04	485.75
680.37	483.09
680.71	480.38
681.05	477.92
681.39	475.38
681.73	472.66
682.06	470.30
682.40	468.12
682.74	465.66
683.08	463.15
683.42	460.81
683.75	458.51
684.09	455.97
684.43	453.43
684.77	451.00
685.10	448.65
685.44	446.34
685.78	444.06
686.12	441.90
686.45	439.63
686.79	437.34
687.13	435.03
687.46	432.42
687.80	430.02
688.14	427.60
688.48	425.16
688.81	422.98
689.15	420.58
689.49	418.34
689.82	416.25
690.16	414.10
690.50	412.02
690.83	409.78
691.17	407.65
691.51	405.60
691.84	403.60
692.18	401.67
692.52	399.48
692.85	397.38
693.19	395.51
693.52	393.56
693.86	391.49
694.20	389.60
694.53	387.91
694.87	386.05
695.21	384.14
695.54	382.32
695.88	380.42
696.21	378.50
696.55	376.38
696.88	374.49
697.22	372.68
697.56	370.96
697.89	369.23
698.23	367.54
698.56	365.87
698.90	364.17
699.23	362.38
699.57	360.75
699.90	359.01
700.24	357.19
700.58	355.45
700.91	353.90
701.25	352.43
701.58	350.77
701.92	349.17
702.25	347.74
702.59	346.31
702.92	344.97
703.26	343.66
703.59	342.52
703.93	341.32
704.26	339.96
704.60	338.49
704.93	337.21
705.26	335.82
705.60	334.58
705.93	333.31
706.27	332.15
706.60	330.96
706.94	329.78
707.27	328.49
707.61	327.44
707.94	326.31
708.27	324.91
708.61	323.77
708.94	322.75
709.28	321.67
709.61	320.50
709.94	319.51
710.28	318.37
710.61	317.25
710.95	315.92
711.28	314.92
711.61	313.91
711.95	312.85
712.28	311.99
712.61	310.88
712.95	310.00
713.28	309.07
713.61	308.15
713.95	307.24
714.28	306.34
714.61	305.37
714.95	304.53
715.28	303.78
715.61	302.88
715.95	301.96
716.28	301.05
716.61	300.35
716.95	299.42
717.28	298.60
717.61	297.63
717.94	296.81
718.28	296.00
718.61	295.22
718.94	294.58
719.27	293.77
719.61	293.12
719.94	292.39
720.27	291.58
720.60	290.89
720.94	290.11
721.27	289.62
721.60	288.97
721.93	288.24
722.27	287.57
722.60	287.00
722.93	286.42
723.26	285.77
723.59	285.09
723.93	284.53
724.26	283.97
724.59	283.50
724.92	283.00
725.25	282.39
725.59	281.84
725.92	281.27
726.25	280.71
726.58	280.16
726.91	279.69
727.24	279.30
727.57	278.78
727.91	278.39
728.24	277.90
728.57	277.34
728.90	276.88
729.23	276.46
729.56	276.11
729.89	275.51
730.22	275.08
730.55	274.55
730.89	274.04
731.22	273.62
731.55	273.02
731.88	272.50
732.21	272.01
732.54	271.58
732.87	271.04
733.20	270.61
733.53	270.15
733.86	269.64
734.19	269.10
734.52	268.54
734.85	268.19
735.18	267.66
735.51	267.24
735.84	266.83
736.17	266.38
736.50	265.73
736.83	265.57
737.16	265.19
737.49	264.79
737.82	264.29
738.15	263.78
738.48	263.38
738.81	263.04
739.14	262.67
739.47	262.23
739.80	261.93
740.13	261.41
740.46	261.06
740.79	260.62
741.12	260.23
741.45	259.87
741.78	259.35
742.11	258.90
742.44	258.52
742.77	258.19
743.10	257.75
743.43	257.48
743.75	256.86
744.08	256.63
744.41	256.21
744.74	255.96
745.07	255.66
745.40	255.39
745.73	255.12
746.06	254.90
746.39	254.63
746.71	254.15
747.04	253.88
747.37	253.47
747.70	253.21
748.03	252.89
748.36	252.67
748.68	252.33
749.01	252.00
749.34	251.78
749.67	251.51
750.00	251.29
750.33	251.10
750.65	250.96
750.98	250.51
751.31	250.30
751.64	250.06
751.97	249.91
752.29	249.68
752.62	249.35
752.95	248.99
753.28	248.62
753.60	248.51
753.93	248.41
754.26	248.28
754.59	248.07
754.91	247.79
755.24	247.63
755.57	247.50
755.90	247.38
756.22	247.11
756.55	246.79
756.88	246.58
757.20	246.34
757.53	246.10
757.86	245.91
758.19	245.83
758.51	245.68
758.84	245.39
759.17	245.19
759.49	244.97
759.82	244.92
760.15	244.87
760.47	244.69
760.80	244.42
761.13	244.29
761.45	244.01
761.78	243.86
762.11	243.68
762.43	243.53
762.76	243.38
763.08	243.30
763.41	243.25
763.74	243.14
764.06	242.96
764.39	242.70
764.71	242.53
765.04	242.26
765.37	242.03
765.69	241.96
766.02	241.80
766.34	241.64
766.67	241.39
767.00	241.20
767.32	241.14
767.65	241.17
767.97	240.91
768.30	240.81
768.62	240.71
768.95	240.56
769.27	240.34
769.60	240.15
769.92	239.97
770.25	239.77
770.57	239.56
770.90	239.46
771.22	239.40
771.55	239.26
771.87	239.21
772.20	239.10
772.52	239.07
772.85	239.13
773.17	239.01
773.50	238.87
773.82	238.73
774.15	238.58
774.47	238.28
774.80	238.14
775.12	237.98
775.45	237.84
775.77	237.67
776.09	237.48
776.42	237.41
776.74	237.28
777.07	237.07
777.39	237.02
777.72	236.87
778.04	236.75
778.36	236.70
778.69	236.53
779.01	236.36
779.33	236.03
779.66	235.77
779.98	235.72
780.31	235.60
780.63	235.50
780.95	235.36
781.28	235.29
781.60	235.22
781.92	235.20
782.25	235.01
782.57	234.92
782.89	234.92
783.22	234.76
783.54	234.67
783.86	234.70
784.19	234.49
784.51	234.42
784.83	234.24
785.16	234.13
785.48	234.04
785.80	234.01
786.12	234.04
786.45	233.95
786.77	233.85
787.09	233.85
787.42	233.81
787.74	233.79
788.06	233.69
788.38	233.59
788.71	233.40
789.03	233.50
789.35	233.49
789.67	233.52
789.99	233.46
790.32	233.39
790.64	233.25
790.96	233.42
791.28	233.22
791.61	233.20
791.93	233.12
792.25	233.12
792.57	233.21
792.89	233.13
793.21	233.13
793.54	233.10
793.86	233.03
794.18	232.95
794.50	232.84
794.82	232.90
795.14	233.00
795.47	233.10
795.79	232.92
796.11	232.80
796.43	232.66
796.75	232.75
797.07	232.69
797.39	232.80
797.71	232.66
798.04	232.72
798.36	232.68
798.68	232.63
799.00	232.58
799.32	232.51
799.64	232.52
799.96	232.50
800.28	232.41
800.60	232.41
800.92	232.42
801.24	232.37
801.56	232.30
801.89	232.24
802.21	232.23
802.53	232.20
802.85	232.30
803.17	232.32
803.49	232.21
803.81	232.26
804.13	232.24
804.45	232.13
804.77	232.20
805.09	232.23
805.41	232.20
805.73	232.25
806.05	232.14
806.37	232.06
806.69	232.05
807.01	232.00
807.33	232.02
807.65	231.88
807.97	232.01
808.28	231.90
808.60	231.83
808.92	231.78
809.24	231.90
809.56	231.93
809.88	231.87
810.20	231.86
810.52	231.77
810.84	231.70
811.16	231.68
811.48	231.53
811.80	231.50
812.12	231.55
812.43	231.54
812.75	231.47
813.07	231.38
813.39	231.31
813.71	231.28
814.03	231.13
814.35	231.05
814.67	230.90
814.98	230.88
815.30	230.80
815.62	230.70
815.94	230.46
816.26	230.45
816.58	230.31
816.89	230.27
817.21	230.18
817.53	230.10
817.85	230.08
818.17	230.06
818.48	229.96
818.80	229.89
819.12	229.73
819.44	229.70
819.76	229.76
820.07	229.75
820.39	229.73
820.71	229.74
821.03	229.85
821.34	229.76
821.66	229.68
821.98	229.68
822.30	229.56
822.61	229.73
822.93	229.52
823.25	229.51
823.57	229.47
823.88	229.46
824.20	229.36
824.52	229.25
824.83	229.24
825.15	229.21
825.47	229.24
825.79	229.22
826.10	229.15
826.42	229.07
826.74	228.94
827.05	228.92
827.37	228.89
827.69	228.88
828.00	228.83
828.32	228.85
828.64	228.88
828.95	229.05
829.27	228.92
829.58	228.90
829.90	228.97
830.22	228.92
830.53	228.87
830.85	228.89
831.17	228.84
831.48	228.79
831.80	228.75
832.11	228.72
832.43	228.70
832.75	228.73
833.06	228.77
833.38	228.81
833.69	228.85
834.01	228.93
834.32	228.90
834.64	228.89
834.96	228.95
835.27	228.95
835.59	228.83
835.90	228.83
836.22	228.85
836.53	228.78
836.85	228.90
837.16	229.08
837.48	229.15
837.79	229.40
838.11	229.47
838.42	229.49
838.74	229.59
839.05	229.65
839.37	229.71
839.68	229.71
840.00	229.78
840.31	229.78
840.63	229.77
840.94	229.70
841.26	229.74
841.57	229.80
841.88	229.74
842.20	229.90
842.51	229.93
842.83	230.07
843.14	230.27
843.46	230.20
843.77	230.10
844.08	230.07
844.40	230.00
844.71	230.01
845.03	230.02
845.34	229.92
845.65	229.93
845.97	229.98
846.28	229.99
846.60	229.90
846.91	229.84
847.22	229.90
847.54	230.00
847.85	230.05
848.16	230.05
848.48	229.98
848.79	229.97
849.10	229.96
849.42	229.88
849.73	229.73
850.04	229.80
850.36	229.75
850.67	229.75
850.98	229.76
851.30	229.73
851.61	229.71
851.92	229.73
852.23	229.76
852.55	229.59
852.86	229.57
853.17	229.65
853.49	229.79
853.80	229.66
854.11	229.65
854.42	229.74
854.74	229.63
855.05	229.77
855.36	229.68
855.67	229.83
855.99	229.75
856.30	229.85
856.61	229.81
856.92	229.81
857.23	229.74
857.55	229.65
857.86	229.51
858.17	229.51
858.48	229.35
858.79	229.33
859.11	229.40
859.42	229.32
859.73	229.21
860.04	229.20
860.35	229.11
860.66	229.03
860.98	228.89
861.29	228.88
861.60	228.80
861.91	228.80
862.22	228.54
862.53	228.52
862.84	228.42
863.16	228.42
863.47	228.49
863.78	228.56
864.09	228.60
864.40	228.65
864.71	228.60
865.02	228.78
865.33	228.65
865.64	228.51
865.95	228.53
866.27	228.70
866.58	228.45
866.89	228.55
867.20	228.57
867.51	228.48
867.82	228.44
868.13	228.47
868.44	228.39
868.75	228.46
869.06	228.51
869.37	228.51
869.68	228.41
869.99	228.34
870.30	228.40
870.61	228.36
870.92	228.50
871.23	228.57
871.54	228.52
871.85	228.55
872.16	228.72
872.47	228.65
872.78	228.52
873.09	228.62
873.40	228.56
873.71	228.55
874.02	228.67
874.33	228.65
874.64	228.54
874.95	228.68
875.26	228.64
875.56	228.63
875.87	228.68
876.18	228.65
876.49	228.94
876.80	228.92
877.11	228.91
877.42	228.84
877.73	228.94
878.04	229.06
878.35	229.22
878.66	229.23
878.96	229.38
879.27	229.34
879.58	229.49
879.89	229.62
880.20	229.71
880.51	229.73
880.82	229.79
881.12	229.98
881.43	229.93
881.74	229.99
882.05	230.00
882.36	229.95
882.67	230.12
882.97	229.85
883.28	229.86
883.59	229.87
883.90	229.90
884.21	229.86
884.51	229.84
884.82	229.76
885.13	229.84
885.44	229.84
885.74	229.85
886.05	229.79
886.36	229.69
886.67	229.58
886.98	229.68
887.28	229.77
887.59	229.79
887.90	229.87
888.20	229.83
888.51	229.89
888.82	229.92
889.13	229.87
889.43	229.99
889.74	229.91
890.05	229.98
890.35	229.99
890.66	229.96
890.97	229.82
891.28	229.81
891.58	229.71
891.89	229.59
892.20	229.68
892.50	229.58
892.81	229.52
893.12	229.60
893.42	229.39
893.73	229.40
894.04	229.32
894.34	229.24
894.65	229.30
894.95	229.25
895.26	229.20
895.57	229.17
895.87	228.97
896.18	228.94
896.48	228.85
896.79	228.70
897.10	228.59
897.40	228.67
897.71	228.60
898.01	228.60
898.32	228.69
898.63	228.65
898.93	228.70
899.24	228.75
899.54	228.63
899.85	228.67
900.15	228.53
900.46	228.45
900.76	228.40
901.07	228.34
901.38	228.30
901.68	228.32
901.99	228.33
902.29	228.30
902.60	228.32
902.90	228.26
903.21	228.25
903.51	228.35
903.82	228.26
904.12	228.20
904.43	228.22
904.73	228.18
905.03	228.11
905.34	228.28
905.64	228.28
905.95	228.30
906.25	228.27
906.56	228.38
906.86	228.37
907.17	228.33
907.47	228.26
907.77	228.29
908.08	228.25
908.38	228.26
908.69	228.21
908.99	228.21
909.30	228.22
909.60	228.26
909.90	228.24
910.21	228.19
910.51	228.20
910.81	228.08
911.12	228.16
911.42	228.14
911.73	227.93
912.03	227.92
912.33	228.01
912.64	228.07
912.94	227.95
913.24	228.01
913.55	228.06
913.85	228.08
914.15	228.10
914.46	228.12
914.76	228.17
915.06	228.25
915.37	228.25
915.67	228.30
915.97	228.37
916.27	228.43
916.58	228.48
916.88	228.60
917.18	228.59
917.49	228.74
917.79	228.78
918.09	228.87
918.39	228.91
918.70	228.89
919.00	228.81
919.30	228.90
919.60	228.87
919.91	228.88
920.21	228.87
920.51	228.93
920.81	228.89
921.12	228.97
921.42	228.99
921.72	229.00
922.02	229.13
922.32	229.10
922.63	229.10
922.93	229.19
923.23	229.14
923.53	229.21
923.83	229.00
924.13	228.99
924.44	228.93
924.74	229.07
925.04	229.08
925.34	229.10
925.64	229.07
925.94	229.06
926.24	229.08
926.55	229.09
926.85	228.98
927.15	228.96
927.45	228.88
927.75	228.91
928.05	228.98
928.35	229.00
928.65	229.07
928.95	229.05
929.26	228.96
929.56	228.94
929.86	228.97
930.16	228.99
930.46	228.99
930.76	229.02
931.06	228.79
931.36	228.71
931.66	228.74
931.96	228.72
932.26	228.69
932.56	228.67
932.86	228.72
933.16	228.75
933.46	228.83
933.76	228.75
934.06	228.65
934.36	228.60
934.66	228.36
934.96	228.29
935.26	228.27
935.56	228.30
935.86	228.36
936.16	228.39
936.46	228.28
936.76	228.28
937.06	228.21
937.36	228.25
937.66	228.21
937.96	228.16
938.26	228.09
938.56	228.07
938.86	228.06
939.16	228.00
939.46	227.99
939.76	227.86
940.06	227.76
940.35	227.78
940.65	227.73
940.95	227.76
941.25	227.62
941.55	227.63
941.85	227.66
942.15	227.66
942.45	227.59
942.75	227.66
943.04	227.58
943.34	227.57
943.64	227.57
943.94	227.62
944.24	227.72
944.54	227.74
944.84	227.70
945.13	227.68
945.43	227.67
945.73	227.70
946.03	227.75
946.33	227.80
946.62	227.77
946.92	227.71
947.22	227.79
947.52	227.90
947.82	227.81
948.11	227.65
948.41	227.55
948.71	227.45
949.01	227.44
949.31	227.41
949.60	227.40
949.90	227.36
950.20	227.28
950.50	227.25
950.79	227.31
951.09	227.33
951.39	227.27
951.69	227.34
951.98	227.34
952.28	227.35
952.58	227.30
952.87	227.45
953.17	227.48
953.47	227.51
953.76	227.49
954.06	227.59
954.36	227.73
954.66	227.82
954.95	227.99
955.25	228.06
955.55	228.20
955.84	228.37
956.14	228.45
956.44	228.59
956.73	228.60
957.03	228.60
957.32	228.70
957.62	228.81
957.92	228.97
958.21	229.00
958.51	229.20
958.81	229.42
959.10	229.41
959.40	229.53
959.69	229.52
959.99	229.53
960.29	229.44
960.58	229.45
960.88	229.41
961.17	229.37
961.47	229.36
961.76	229.39
962.06	229.32
962.36	229.20
962.65	229.15
962.95	229.17
963.24	229.20
963.54	229.10
963.83	229.08
964.13	229.00
964.42	228.98
964.72	228.84
965.01	228.77
965.31	228.69
965.60	228.69
965.90	228.81
966.19	228.76
966.49	228.86
966.78	228.71
967.08	228.83
967.37	228.83
967.67	228.70
967.96	228.66
968.26	228.51
968.55	228.64
968.85	228.68
969.14	228.68
969.43	228.61
969.73	228.66
970.02	228.69
970.32	228.58
970.61	228.53
970.91	228.56
971.20	228.42
971.49	228.40
971.79	228.32
972.08	228.22
972.38	228.30
972.67	228.23
972.96	228.26
973.26	228.17
973.55	228.14
973.85	228.13
974.14	228.09
974.43	228.18
974.73	228.12
975.02	228.02
975.31	227.95
975.61	227.86
975.90	227.84
976.19	227.76
976.49	227.72
976.78	227.67
977.07	227.61
977.37	227.60
977.66	227.54
977.95	227.49
978.24	227.38
978.54	227.20
978.83	227.25
979.12	227.28
979.42	227.23
979.71	227.30
980.00	227.33
980.29	227.37
980.59	227.39
980.88	227.42
981.17	227.48
981.46	227.51
981.76	227.63
982.05	227.64
982.34	227.59
982.63	227.65
982.93	227.69
983.22	227.54
983.51	227.67
983.80	227.77
984.09	227.89
984.39	227.95
984.68	228.10
984.97	228.05
985.26	228.10
985.55	228.09
985.85	228.07
986.14	228.10
986.43	228.07
986.72	228.10
987.01	228.16
987.30	228.10
987.59	228.11
987.89	228.10
988.18	228.11
988.47	228.20
988.76	228.23
989.05	228.29
989.34	228.35
989.63	228.30
989.92	228.31
990.22	228.18
990.51	228.12
990.80	228.16
991.09	228.16
991.38	228.18
991.67	228.20
991.96	228.19
992.25	228.29
992.54	228.39
992.83	228.38
993.12	228.40
993.41	228.47
993.70	228.50
993.99	228.52
994.28	228.57
994.58	228.60
994.87	228.60
995.16	228.60
995.45	228.70
995.74	228.72
996.03	228.67
996.32	228.76
996.61	228.87
996.90	228.89
997.19	228.99
997.48	228.93
997.77	228.90
998.06	228.94
998.34	228.93
998.63	228.90
998.92	228.98
999.21	229.00
999.50	229.06
999.79	229.10
1000.08	229.18
1000.37	229.23
1000.66	229.16
1000.95	229.25
1001.24	229.28
1001.53	229.38
1001.82	229.42
1002.11	229.39
1002.40	229.42
1002.68	229.48
1002.97	229.58
1003.26	229.48
1003.55	229.44
1003.84	229.60
1004.13	229.61
1004.42	229.51
1004.71	229.49
1004.99	229.40
1005.28	229.35
1005.57	229.34
1005.86	229.21
1006.15	229.17
1006.44	229.00
1006.72	229.12
1007.01	228.94
1007.30	228.86
1007.59	228.70
1007.88	228.67
1008.17	228.70
1008.45	228.60
1008.74	228.51
1009.03	228.46
1009.32	228.47
1009.60	228.54
1009.89	228.40
1010.18	228.30
1010.47	228.25
1010.76	228.23
1011.04	228.16
1011.33	228.20
1011.62	228.11
1011.91	228.16
1012.19	228.10
1012.48	228.22
1012.77	228.07
1013.05	228.19
1013.34	228.10
1013.63	228.05
1013.92	227.95
1014.20	227.90
1014.49	227.90
1014.78	227.83
1015.06	227.72
1015.35	227.78
1015.64	227.74
1015.92	227.77
1016.21	227.77
1016.50	227.71
1016.78	227.67
1017.07	227.63
1017.36	227.61
1017.64	227.61
1017.93	227.57
1018.22	227.52
1018.50	227.48
1018.79	227.55
1019.08	227.55
1019.36	227.70
1019.65	227.76
1019.93	227.85
1020.22	227.93
1020.51	228.06
1020.79	228.00
1021.08	227.00
1021.36	228.40
1021.65	228.70
1021.94	229.50
1022.22	229.30
1022.51	227.80
1022.79	228.10
1023.08	228.70
1023.36	230.10
1023.65	226.10
>>>>>End Processed Spectral Data<<<<<
