SpectraSuite Data File
++++++++++++++++++++++++++++++++++++
Date: Fri Feb 01 14:36:07 EST 2013
User: group
Dark Spectrum Present: No
Reference Spectrum Present: No
Number of Sampled Component Spectra: 1
Spectrometers: USB2E7196
Integration Time (usec): 70000 (USB2E7196)
Spectra Averaged: 10 (USB2E7196)
Boxcar Smoothing: 10 (USB2E7196)
Correct for Electrical Dark: No (USB2E7196)
Strobe/Lamp Enabled: No (USB2E7196)
Correct for Detector Non-linearity: No (USB2E7196)
Correct for Stray Light: No (USB2E7196)
Number of Pixels in Processed Spectrum: 2048
>>>>>Begin Processed Spectral Data<<<<<
339.09	0.00
339.48	216.80
339.86	217.10
340.24	218.90
340.63	222.00
341.01	223.60
341.39	221.60
341.78	225.30
342.16	226.00
342.54	226.20
342.93	213.92
343.31	224.75
343.69	225.15
344.07	225.63
344.46	225.99
344.84	226.20
345.22	226.42
345.60	226.71
345.99	226.97
346.37	227.08
346.75	227.09
347.13	227.21
347.52	227.29
347.90	227.42
348.28	227.51
348.66	227.54
349.05	227.55
349.43	227.62
349.81	227.69
350.19	227.67
350.57	227.77
350.96	227.78
351.34	227.93
351.72	228.13
352.10	228.26
352.48	228.44
352.87	228.65
353.25	228.66
353.63	228.78
354.01	228.69
354.39	228.70
354.77	228.86
355.15	229.03
355.54	229.21
355.92	229.19
356.30	229.17
356.68	229.40
357.06	229.49
357.44	229.49
357.82	229.53
358.20	229.62
358.58	229.65
358.97	229.81
359.35	229.76
359.73	229.80
360.11	229.85
360.49	229.78
360.87	229.80
361.25	229.95
361.63	230.03
362.01	230.11
362.39	230.11
362.77	230.17
363.15	230.20
363.53	230.15
363.91	230.15
364.29	230.23
364.67	230.15
365.05	230.18
365.43	230.24
365.81	230.27
366.19	230.38
366.57	230.39
366.95	230.40
367.33	230.43
367.71	230.37
368.09	230.35
368.47	230.40
368.85	230.38
369.23	230.39
369.61	230.22
369.99	230.21
370.37	230.25
370.75	230.37
371.13	230.23
371.51	230.20
371.89	230.22
372.27	230.19
372.65	230.14
373.03	230.10
373.41	230.06
373.78	229.98
374.16	229.91
374.54	229.88
374.92	229.80
375.30	229.75
375.68	229.77
376.06	229.71
376.44	229.62
376.82	229.49
377.19	229.35
377.57	229.32
377.95	229.16
378.33	229.09
378.71	228.84
379.09	228.81
379.47	228.69
379.84	228.63
380.22	228.54
380.60	228.37
380.98	228.33
381.36	228.28
381.73	228.20
382.11	228.09
382.49	228.07
382.87	227.92
383.25	227.80
383.62	227.80
384.00	227.69
384.38	227.65
384.76	227.69
385.13	227.63
385.51	227.55
385.89	227.51
386.27	227.41
386.64	227.29
387.02	227.29
387.40	227.27
387.78	227.23
388.15	227.14
388.53	227.16
388.91	227.17
389.29	227.16
389.66	227.24
390.04	227.20
390.42	227.20
390.79	227.20
391.17	227.25
391.55	227.08
391.92	227.05
392.30	227.16
392.68	227.11
393.05	227.16
393.43	227.18
393.81	227.24
394.18	227.31
394.56	227.40
394.94	227.43
395.31	227.48
395.69	227.60
396.06	227.83
396.44	227.87
396.82	227.85
397.19	227.90
397.57	227.93
397.95	228.05
398.32	228.05
398.70	228.19
399.07	228.31
399.45	228.41
399.82	228.50
400.20	228.56
400.58	228.60
400.95	228.62
401.33	228.84
401.70	229.13
402.08	229.24
402.45	229.46
402.83	229.63
403.20	229.67
403.58	229.79
403.95	229.91
404.33	230.11
404.71	230.39
405.08	230.82
405.46	231.07
405.83	231.29
406.21	231.57
406.58	231.88
406.96	232.19
407.33	232.49
407.70	232.98
408.08	233.38
408.45	233.86
408.83	234.42
409.20	234.88
409.58	235.17
409.95	235.76
410.33	236.23
410.70	236.76
411.08	237.48
411.45	238.18
411.82	238.80
412.20	239.47
412.57	240.25
412.95	240.84
413.32	241.72
413.69	242.67
414.07	243.61
414.44	244.55
414.82	245.50
415.19	246.78
415.56	247.91
415.94	249.19
416.31	250.60
416.68	251.88
417.06	253.38
417.43	254.96
417.81	256.60
418.18	258.39
418.55	260.19
418.93	262.12
419.30	264.09
419.67	266.26
420.04	268.38
420.42	270.64
420.79	273.22
421.16	275.73
421.54	278.35
421.91	281.17
422.28	284.01
422.66	287.16
423.03	290.12
423.40	293.23
423.77	296.53
424.15	299.93
424.52	303.63
424.89	307.52
425.26	311.21
425.64	314.71
426.01	318.50
426.38	322.65
426.75	326.66
427.13	330.99
427.50	335.46
427.87	340.30
428.24	344.95
428.61	349.43
428.99	354.30
429.36	359.59
429.73	364.90
430.10	370.17
430.47	375.29
430.85	380.84
431.22	386.56
431.59	392.51
431.96	398.10
432.33	404.24
432.70	410.38
433.08	417.49
433.45	424.39
433.82	431.04
434.19	438.49
434.56	446.07
434.93	453.00
435.30	460.04
435.68	467.66
436.05	475.21
436.42	482.74
436.79	489.87
437.16	497.27
437.53	504.91
437.90	512.55
438.27	520.28
438.64	528.24
439.01	535.74
439.38	542.56
439.75	549.15
440.13	556.52
440.50	563.39
440.87	569.20
441.24	575.07
441.61	581.89
441.98	586.88
442.35	592.50
442.72	598.50
443.09	604.12
443.46	607.88
443.83	610.63
444.20	613.00
444.57	616.15
444.94	618.05
445.31	620.19
445.68	622.18
446.05	623.52
446.42	623.57
446.79	623.44
447.16	623.23
447.53	623.47
447.90	621.49
448.27	619.46
448.64	616.11
449.01	614.22
449.37	609.92
449.74	605.64
450.11	600.40
450.48	594.47
450.85	588.66
451.22	583.73
451.59	578.91
451.96	574.50
452.33	568.18
452.70	562.69
453.07	555.54
453.43	548.47
453.80	541.56
454.17	534.87
454.54	528.42
454.91	521.54
455.28	514.51
455.65	508.24
456.02	501.90
456.38	496.63
456.75	489.41
457.12	483.55
457.49	477.78
457.86	472.23
458.23	467.54
458.59	462.10
458.96	456.80
459.33	452.10
459.70	447.30
460.07	443.53
460.43	438.91
460.80	434.57
461.17	430.69
461.54	426.63
461.91	422.87
462.27	419.16
462.64	415.73
463.01	412.34
463.38	408.87
463.74	405.52
464.11	402.48
464.48	399.80
464.85	396.92
465.21	394.76
465.58	392.36
465.95	389.36
466.32	386.95
466.68	384.40
467.05	381.98
467.42	379.41
467.78	376.84
468.15	374.34
468.52	372.55
468.88	370.27
469.25	368.24
469.62	366.47
469.98	364.69
470.35	363.00
470.72	361.28
471.08	359.53
471.45	357.83
471.82	356.18
472.18	354.78
472.55	353.37
472.92	351.87
473.28	350.57
473.65	349.24
474.02	347.98
474.38	346.71
474.75	345.65
475.11	344.69
475.48	343.73
475.85	343.13
476.21	342.47
476.58	341.86
476.94	341.30
477.31	340.72
477.67	340.00
478.04	339.50
478.41	338.92
478.77	338.59
479.14	338.16
479.50	337.92
479.87	337.53
480.23	337.58
480.60	337.18
480.96	336.99
481.33	337.06
481.69	337.00
482.06	337.03
482.42	336.90
482.79	336.74
483.15	336.92
483.52	337.08
483.88	337.17
484.25	337.25
484.61	337.52
484.98	337.66
485.34	338.09
485.71	338.59
486.07	339.28
486.44	339.68
486.80	340.27
487.17	340.89
487.53	341.74
487.90	342.38
488.26	343.48
488.62	344.39
488.99	345.17
489.35	346.09
489.72	347.19
490.08	348.30
490.44	349.46
490.81	350.60
491.17	351.56
491.54	352.90
491.90	354.25
492.26	355.59
492.63	356.84
492.99	358.14
493.36	359.50
493.72	361.00
494.08	362.53
494.45	364.08
494.81	365.70
495.17	367.23
495.54	368.93
495.90	370.44
496.26	371.90
496.63	373.85
496.99	375.61
497.35	377.35
497.72	379.15
498.08	381.08
498.44	382.83
498.80	384.84
499.17	386.62
499.53	388.52
499.89	390.38
500.26	392.23
500.62	394.07
500.98	395.96
501.34	397.65
501.71	399.52
502.07	401.31
502.43	403.00
502.79	404.85
503.16	406.50
503.52	408.34
503.88	409.98
504.24	411.56
504.60	413.36
504.97	415.08
505.33	416.70
505.69	418.25
506.05	419.88
506.41	421.26
506.78	422.63
507.14	423.93
507.50	425.15
507.86	426.70
508.22	428.07
508.59	429.18
508.95	430.51
509.31	431.55
509.67	432.68
510.03	433.78
510.39	434.81
510.75	435.81
511.12	436.53
511.48	437.50
511.84	438.20
512.20	438.93
512.56	439.73
512.92	440.53
513.28	441.41
513.64	441.90
514.00	442.54
514.37	443.28
514.73	443.79
515.09	444.44
515.45	444.85
515.81	445.32
516.17	445.81
516.53	446.12
516.89	446.47
517.25	446.77
517.61	447.22
517.97	447.48
518.33	447.82
518.69	448.31
519.05	448.57
519.41	449.03
519.77	449.45
520.13	449.89
520.49	450.20
520.85	450.25
521.21	450.73
521.57	451.12
521.93	451.51
522.29	452.26
522.65	452.56
523.01	453.09
523.37	453.34
523.73	453.80
524.09	454.35
524.45	455.03
524.81	455.65
525.17	456.31
525.53	457.06
525.89	457.77
526.25	458.58
526.61	459.37
526.97	460.40
527.33	461.36
527.68	462.19
528.04	463.19
528.40	464.36
528.76	465.59
529.12	466.89
529.48	468.22
529.84	469.31
530.20	470.83
530.56	472.23
530.91	474.05
531.27	475.72
531.63	477.33
531.99	478.97
532.35	480.69
532.71	482.41
533.07	484.27
533.42	486.37
533.78	488.36
534.14	490.69
534.50	492.53
534.86	494.51
535.21	496.72
535.57	499.14
535.93	501.50
536.29	503.87
536.65	506.19
537.00	508.43
537.36	511.05
537.72	513.68
538.08	516.34
538.44	518.70
538.79	521.57
539.15	524.33
539.51	527.44
539.87	530.56
540.22	533.48
540.58	536.63
540.94	539.57
541.29	542.65
541.65	545.62
542.01	548.96
542.37	552.57
542.72	555.71
543.08	559.07
543.44	562.53
543.79	565.79
544.15	569.31
544.51	573.18
544.87	576.84
545.22	580.48
545.58	584.03
545.94	587.73
546.29	591.22
546.65	594.90
547.01	598.47
547.36	602.01
547.72	605.89
548.07	609.55
548.43	613.34
548.79	617.16
549.14	620.97
549.50	624.64
549.86	628.05
550.21	631.85
550.57	635.60
550.92	639.37
551.28	643.18
551.64	647.13
551.99	650.82
552.35	654.66
552.70	658.38
553.06	662.31
553.41	666.35
553.77	670.54
554.13	674.50
554.48	678.60
554.84	682.66
555.19	686.38
555.55	690.33
555.90	694.03
556.26	697.85
556.61	701.90
556.97	705.87
557.32	709.72
557.68	713.80
558.03	717.69
558.39	721.62
558.74	725.60
559.10	729.35
559.45	733.11
559.81	736.92
560.16	740.67
560.52	744.47
560.87	748.28
561.23	751.64
561.58	755.45
561.94	758.90
562.29	762.47
562.64	765.88
563.00	769.38
563.35	773.24
563.71	776.99
564.06	780.68
564.42	784.33
564.77	787.98
565.12	791.38
565.48	794.76
565.83	798.11
566.19	801.60
566.54	804.79
566.89	808.02
567.25	811.31
567.60	814.90
567.96	818.16
568.31	821.44
568.66	824.52
569.02	827.38
569.37	830.01
569.72	833.02
570.08	835.99
570.43	838.76
570.78	841.29
571.14	843.33
571.49	845.53
571.84	848.01
572.20	850.45
572.55	852.84
572.90	854.93
573.26	856.94
573.61	858.87
573.96	860.93
574.31	862.73
574.67	864.13
575.02	865.31
575.37	866.61
575.72	867.57
576.08	869.11
576.43	870.54
576.78	872.30
577.13	873.58
577.49	874.73
577.84	876.04
578.19	877.04
578.54	878.27
578.90	878.98
579.25	879.22
579.60	879.65
579.95	880.04
580.30	880.52
580.66	881.06
581.01	881.40
581.36	881.92
581.71	882.46
582.06	882.93
582.42	883.35
582.77	883.92
583.12	884.37
583.47	884.61
583.82	884.86
584.17	884.73
584.53	884.96
584.88	885.26
585.23	885.34
585.58	885.18
585.93	885.52
586.28	885.77
586.63	886.24
586.98	886.49
587.34	886.56
587.69	886.49
588.04	886.37
588.39	886.56
588.74	886.05
589.09	885.59
589.44	885.22
589.79	884.94
590.14	884.34
590.49	883.70
590.84	882.98
591.19	882.46
591.54	881.75
591.89	880.50
592.25	879.61
592.60	878.23
592.95	877.25
593.30	875.77
593.65	874.49
594.00	873.23
594.35	872.32
594.70	870.63
595.05	869.62
595.40	868.27
595.75	866.64
596.10	865.65
596.45	864.62
596.80	863.55
597.15	862.33
597.50	861.13
597.85	860.23
598.19	859.24
598.54	857.83
598.89	856.75
599.24	855.68
599.59	854.46
599.94	853.23
600.29	851.92
600.64	850.60
600.99	849.37
601.34	848.19
601.69	846.29
602.04	845.02
602.39	843.54
602.74	842.20
603.08	840.65
603.43	839.22
603.78	837.64
604.13	835.74
604.48	833.93
604.83	832.20
605.18	830.42
605.53	828.14
605.87	826.20
606.22	824.11
606.57	822.22
606.92	820.30
607.27	818.75
607.62	817.04
607.96	815.28
608.31	813.54
608.66	811.25
609.01	809.16
609.36	807.00
609.70	804.40
610.05	802.03
610.40	800.01
610.75	797.40
611.10	794.71
611.44	792.32
611.79	790.17
612.14	787.81
612.49	784.86
612.83	782.37
613.18	779.82
613.53	777.44
613.88	774.88
614.22	772.30
614.57	769.25
614.92	766.75
615.27	764.03
615.61	761.25
615.96	758.71
616.31	756.30
616.65	754.15
617.00	751.93
617.35	749.51
617.70	746.80
618.04	744.05
618.39	741.67
618.74	739.32
619.08	736.49
619.43	733.89
619.78	731.50
620.12	729.14
620.47	726.50
620.82	723.59
621.16	720.86
621.51	718.23
621.85	715.75
622.20	712.89
622.55	710.35
622.89	707.72
623.24	705.22
623.59	702.69
623.93	700.10
624.28	697.48
624.62	695.03
624.97	692.57
625.32	690.32
625.66	687.70
626.01	685.14
626.35	682.71
626.70	680.14
627.04	677.76
627.39	675.15
627.73	672.45
628.08	670.09
628.43	667.60
628.77	664.99
629.12	662.40
629.46	659.99
629.81	657.19
630.15	654.48
630.50	651.86
630.84	649.06
631.19	646.10
631.53	643.46
631.88	640.32
632.22	637.44
632.57	634.67
632.91	632.01
633.26	629.23
633.60	626.40
633.95	623.70
634.29	621.18
634.64	618.63
634.98	616.36
635.32	613.95
635.67	611.32
636.01	608.99
636.36	606.47
636.70	604.03
637.05	601.70
637.39	599.40
637.73	596.75
638.08	594.53
638.42	592.40
638.77	590.00
639.11	587.84
639.45	585.66
639.80	583.10
640.14	580.83
640.49	578.58
640.83	576.22
641.17	573.98
641.52	571.47
641.86	568.93
642.20	566.50
642.55	563.98
642.89	561.80
643.23	559.35
643.58	557.33
643.92	554.82
644.26	552.50
644.61	550.36
644.95	548.31
645.29	545.70
645.64	543.10
645.98	540.75
646.32	538.49
646.66	536.00
647.01	533.90
647.35	531.62
647.69	529.27
648.04	527.17
648.38	524.59
648.72	522.13
649.06	519.90
649.41	517.64
649.75	515.28
650.09	512.80
650.43	510.40
650.78	507.78
651.12	505.30
651.46	503.11
651.80	500.64
652.14	498.22
652.49	496.06
652.83	494.00
653.17	491.77
653.51	489.43
653.85	487.27
654.20	485.17
654.54	482.81
654.88	480.52
655.22	478.14
655.56	475.87
655.90	473.84
656.25	471.78
656.59	469.62
656.93	467.71
657.27	465.64
657.61	463.50
657.95	461.68
658.29	459.77
658.64	457.60
658.98	455.42
659.32	453.27
659.66	451.29
660.00	449.07
660.34	447.06
660.68	445.02
661.02	443.02
661.36	440.82
661.70	438.91
662.05	437.09
662.39	435.32
662.73	433.69
663.07	431.98
663.41	430.23
663.75	428.26
664.09	426.31
664.43	424.62
664.77	422.94
665.11	421.12
665.45	419.48
665.79	417.94
666.13	416.20
666.47	414.51
666.81	412.78
667.15	411.00
667.49	409.33
667.83	407.72
668.17	405.96
668.51	404.16
668.85	402.59
669.19	401.05
669.53	399.42
669.87	397.66
670.21	395.98
670.55	394.37
670.89	392.95
671.23	391.41
671.57	389.88
671.91	388.37
672.25	386.71
672.58	385.30
672.92	383.68
673.26	382.41
673.60	381.07
673.94	379.67
674.28	378.52
674.62	377.30
674.96	375.95
675.30	374.73
675.64	373.64
675.97	372.26
676.31	370.97
676.65	369.70
676.99	368.54
677.33	367.33
677.67	366.03
678.01	364.62
678.34	363.54
678.68	362.28
679.02	361.00
679.36	359.95
679.70	358.64
680.04	357.38
680.37	356.02
680.71	354.80
681.05	353.64
681.39	352.38
681.73	351.11
682.06	350.07
682.40	348.89
682.74	347.75
683.08	346.77
683.42	345.46
683.75	344.33
684.09	343.30
684.43	342.23
684.77	341.10
685.10	340.17
685.44	338.91
685.78	337.83
686.12	336.65
686.45	335.44
686.79	334.34
687.13	333.45
687.46	332.49
687.80	331.36
688.14	330.36
688.48	329.43
688.81	328.31
689.15	327.28
689.49	326.27
689.82	325.30
690.16	324.15
690.50	323.27
690.83	322.22
691.17	321.11
691.51	320.10
691.84	319.27
692.18	318.24
692.52	317.33
692.85	316.46
693.19	315.67
693.52	314.85
693.86	313.92
694.20	312.84
694.53	311.95
694.87	311.13
695.21	310.30
695.54	309.40
695.88	308.52
696.21	307.61
696.55	306.84
696.88	306.00
697.22	305.14
697.56	304.30
697.89	303.44
698.23	302.71
698.56	301.91
698.90	300.99
699.23	300.23
699.57	299.41
699.90	298.52
700.24	297.73
700.58	296.90
700.91	296.22
701.25	295.74
701.58	295.13
701.92	294.45
702.25	293.70
702.59	292.98
702.92	292.38
703.26	291.85
703.59	291.10
703.93	290.61
704.26	289.96
704.60	289.32
704.93	288.78
705.26	288.20
705.60	287.62
705.93	286.97
706.27	286.40
706.60	285.89
706.94	285.37
707.27	284.77
707.61	284.21
707.94	283.68
708.27	282.95
708.61	282.22
708.94	281.60
709.28	280.97
709.61	280.48
709.94	280.08
710.28	279.46
710.61	278.93
710.95	278.21
711.28	277.88
711.61	277.38
711.95	276.86
712.28	276.34
712.61	275.78
712.95	275.43
713.28	274.91
713.61	274.32
713.95	273.85
714.28	273.34
714.61	272.95
714.95	272.46
715.28	272.00
715.61	271.51
715.95	271.13
716.28	270.64
716.61	270.35
716.95	269.70
717.28	269.20
717.61	268.79
717.94	268.30
718.28	267.78
718.61	267.26
718.94	266.81
719.27	266.39
719.61	265.98
719.94	265.54
720.27	265.17
720.60	264.80
720.94	264.36
721.27	264.03
721.60	263.60
721.93	263.28
722.27	262.97
722.60	262.77
722.93	262.49
723.26	262.18
723.59	261.64
723.93	261.40
724.26	261.10
724.59	260.85
724.92	260.56
725.25	260.33
725.59	260.03
725.92	259.81
726.25	259.43
726.58	259.02
726.91	258.71
727.24	258.40
727.57	258.14
727.91	257.86
728.24	257.47
728.57	257.03
728.90	256.67
729.23	256.34
729.56	256.14
729.89	255.86
730.22	255.53
730.55	255.17
730.89	254.98
731.22	254.77
731.55	254.33
731.88	254.08
732.21	253.73
732.54	253.44
732.87	253.21
733.20	252.95
733.53	252.80
733.86	252.52
734.19	252.31
734.52	252.11
734.85	252.04
735.18	251.86
735.51	251.87
735.84	251.67
736.17	251.44
736.50	250.99
736.83	250.86
737.16	250.69
737.49	250.52
737.82	250.23
738.15	250.02
738.48	249.90
738.81	249.66
739.14	249.40
739.47	249.23
739.80	248.86
740.13	248.64
740.46	248.40
740.79	248.17
741.12	247.92
741.45	247.71
741.78	247.38
742.11	247.19
742.44	246.90
742.77	246.67
743.10	246.50
743.43	246.34
743.75	245.94
744.08	246.01
744.41	245.82
744.74	245.66
745.07	245.43
745.40	245.25
745.73	245.14
746.06	244.97
746.39	244.81
746.71	244.67
747.04	244.52
747.37	244.30
747.70	244.20
748.03	244.05
748.36	243.79
748.68	243.68
749.01	243.49
749.34	243.30
749.67	243.04
750.00	242.84
750.33	242.82
750.65	242.69
750.98	242.30
751.31	242.11
751.64	241.93
751.97	241.90
752.29	241.71
752.62	241.48
752.95	241.32
753.28	241.25
753.60	241.12
753.93	240.99
754.26	240.89
754.59	240.78
754.91	240.54
755.24	240.49
755.57	240.31
755.90	240.23
756.22	240.09
756.55	240.00
756.88	239.92
757.20	239.67
757.53	239.47
757.86	239.44
758.19	239.32
758.51	239.13
758.84	238.95
759.17	238.82
759.49	238.88
759.82	238.86
760.15	238.71
760.47	238.63
760.80	238.51
761.13	238.46
761.45	238.35
761.78	238.31
762.11	238.22
762.43	238.07
762.76	237.98
763.08	237.99
763.41	238.00
763.74	237.83
764.06	237.79
764.39	237.82
764.71	237.70
765.04	237.64
765.37	237.59
765.69	237.37
766.02	237.34
766.34	237.12
766.67	236.94
767.00	236.83
767.32	236.89
767.65	236.95
767.97	236.96
768.30	236.82
768.62	236.77
768.95	236.61
769.27	236.55
769.60	236.47
769.92	236.30
770.25	236.15
770.57	236.17
770.90	236.01
771.22	235.84
771.55	235.77
771.87	235.70
772.20	235.63
772.52	235.75
772.85	235.83
773.17	235.68
773.50	235.57
773.82	235.44
774.15	235.17
774.47	234.99
774.80	234.85
775.12	234.72
775.45	234.66
775.77	234.72
776.09	234.70
776.42	234.53
776.74	234.56
777.07	234.52
777.39	234.38
777.72	234.34
778.04	234.31
778.36	234.19
778.69	234.17
779.01	234.11
779.33	233.91
779.66	233.62
779.98	233.63
780.31	233.57
780.63	233.59
780.95	233.67
781.28	233.60
781.60	233.45
781.92	233.39
782.25	233.27
782.57	233.05
782.89	232.90
783.22	232.86
783.54	232.63
783.86	232.52
784.19	232.43
784.51	232.45
784.83	232.28
785.16	232.15
785.48	232.03
785.80	231.90
786.12	231.81
786.45	231.79
786.77	231.78
787.09	231.77
787.42	231.63
787.74	231.54
788.06	231.47
788.38	231.45
788.71	231.44
789.03	231.39
789.35	231.43
789.67	231.41
789.99	231.36
790.32	231.40
790.64	231.36
790.96	231.45
791.28	231.33
791.61	231.34
791.93	231.31
792.25	231.33
792.57	231.55
792.89	231.58
793.21	231.57
793.54	231.45
793.86	231.50
794.18	231.48
794.50	231.29
794.82	231.25
795.14	231.11
795.47	231.19
795.79	231.27
796.11	231.14
796.43	231.10
796.75	231.16
797.07	231.07
797.39	231.06
797.71	230.88
798.04	230.82
798.36	230.80
798.68	230.84
799.00	230.80
799.32	230.67
799.64	230.68
799.96	230.71
800.28	230.80
800.60	230.68
800.92	230.70
801.24	230.68
801.56	230.69
801.89	230.82
802.21	230.71
802.53	230.56
802.85	230.73
803.17	230.84
803.49	230.76
803.81	230.87
804.13	230.81
804.45	230.93
804.77	230.98
805.09	231.00
805.41	231.08
805.73	231.09
806.05	230.97
806.37	231.00
806.69	230.88
807.01	230.81
807.33	230.88
807.65	230.88
807.97	231.04
808.28	231.05
808.60	230.96
808.92	230.99
809.24	231.15
809.56	231.03
809.88	230.97
810.20	230.93
810.52	230.88
810.84	230.91
811.16	230.80
811.48	230.82
811.80	230.98
812.12	230.81
812.43	230.76
812.75	230.82
813.07	230.68
813.39	230.82
813.71	230.78
814.03	230.71
814.35	230.68
814.67	230.53
814.98	230.53
815.30	230.64
815.62	230.59
815.94	230.43
816.26	230.39
816.58	230.30
816.89	230.32
817.21	230.27
817.53	230.26
817.85	230.21
818.17	230.15
818.48	229.95
818.80	230.01
819.12	229.95
819.44	229.86
819.76	229.76
820.07	229.61
820.39	229.58
820.71	229.59
821.03	229.51
821.34	229.55
821.66	229.54
821.98	229.40
822.30	229.35
822.61	229.36
822.93	229.32
823.25	229.29
823.57	229.22
823.88	229.22
824.20	229.08
824.52	229.04
824.83	228.97
825.15	228.86
825.47	228.84
825.79	228.82
826.10	228.74
826.42	228.66
826.74	228.69
827.05	228.68
827.37	228.59
827.69	228.58
828.00	228.50
828.32	228.40
828.64	228.42
828.95	228.43
829.27	228.43
829.58	228.40
829.90	228.38
830.22	228.43
830.53	228.33
830.85	228.34
831.17	228.34
831.48	228.31
831.80	228.30
832.11	228.26
832.43	228.28
832.75	228.20
833.06	228.40
833.38	228.32
833.69	228.26
834.01	228.20
834.32	228.19
834.64	228.16
834.96	228.05
835.27	227.97
835.59	228.03
835.90	227.98
836.22	227.98
836.53	227.96
836.85	227.96
837.16	228.16
837.48	228.16
837.79	228.21
838.11	228.28
838.42	228.36
838.74	228.38
839.05	228.41
839.37	228.50
839.68	228.39
840.00	228.37
840.31	228.49
840.63	228.60
840.94	228.62
841.26	228.72
841.57	228.79
841.88	228.87
842.20	228.79
842.51	228.77
842.83	228.78
843.14	228.94
843.46	228.91
843.77	228.86
844.08	228.94
844.40	228.93
844.71	228.99
845.03	229.12
845.34	229.04
845.65	229.09
845.97	229.17
846.28	229.19
846.60	229.24
846.91	229.23
847.22	229.28
847.54	229.34
847.85	229.35
848.16	229.45
848.48	229.29
848.79	229.37
849.10	229.44
849.42	229.46
849.73	229.30
850.04	229.38
850.36	229.31
850.67	229.45
850.98	229.41
851.30	229.38
851.61	229.19
851.92	229.29
852.23	229.32
852.55	229.31
852.86	229.34
853.17	229.40
853.49	229.34
853.80	229.32
854.11	229.45
854.42	229.45
854.74	229.46
855.05	229.64
855.36	229.68
855.67	229.78
855.99	229.73
856.30	230.06
856.61	229.97
856.92	230.03
857.23	229.91
857.55	229.93
857.86	229.81
858.17	229.90
858.48	229.82
858.79	229.73
859.11	229.74
859.42	229.77
859.73	229.63
860.04	229.72
860.35	229.67
860.66	229.48
860.98	229.48
861.29	229.37
861.60	229.26
861.91	229.20
862.22	229.00
862.53	229.09
862.84	228.80
863.16	228.90
863.47	228.75
863.78	228.80
864.09	228.79
864.40	228.82
864.71	228.79
865.02	228.74
865.33	228.72
865.64	228.66
865.95	228.62
866.27	228.74
866.58	228.61
866.89	228.61
867.20	228.61
867.51	228.60
867.82	228.70
868.13	228.70
868.44	228.58
868.75	228.65
869.06	228.55
869.37	228.57
869.68	228.47
869.99	228.65
870.30	228.50
870.61	228.47
870.92	228.50
871.23	228.50
871.54	228.60
871.85	228.62
872.16	228.58
872.47	228.63
872.78	228.51
873.09	228.58
873.40	228.51
873.71	228.54
874.02	228.51
874.33	228.48
874.64	228.57
874.95	228.69
875.26	228.66
875.56	228.70
875.87	228.68
876.18	228.68
876.49	228.80
876.80	228.83
877.11	228.82
877.42	228.77
877.73	228.73
878.04	228.69
878.35	228.60
878.66	228.69
878.96	228.53
879.27	228.52
879.58	228.54
879.89	228.51
880.20	228.54
880.51	228.50
880.82	228.45
881.12	228.36
881.43	228.30
881.74	228.29
882.05	228.29
882.36	228.30
882.67	228.24
882.97	227.95
883.28	227.91
883.59	227.90
883.90	227.94
884.21	227.94
884.51	227.92
884.82	228.04
885.13	228.06
885.44	228.10
885.74	228.27
886.05	228.28
886.36	228.30
886.67	228.24
886.98	228.33
887.28	228.26
887.59	228.27
887.90	228.25
888.20	228.28
888.51	228.30
888.82	228.23
889.13	228.32
889.43	228.53
889.74	228.58
890.05	228.64
890.35	228.66
890.66	228.68
890.97	228.65
891.28	228.59
891.58	228.48
891.89	228.56
892.20	228.46
892.50	228.41
892.81	228.48
893.12	228.54
893.42	228.53
893.73	228.66
894.04	228.76
894.34	228.95
894.65	228.96
894.95	229.00
895.26	229.10
895.57	229.18
895.87	228.93
896.18	229.04
896.48	228.98
896.79	228.96
897.10	229.05
897.40	229.10
897.71	229.11
898.01	229.16
898.32	229.07
898.63	229.10
898.93	229.13
899.24	229.13
899.54	229.08
899.85	228.98
900.15	228.91
900.46	228.94
900.76	228.83
901.07	228.80
901.38	228.74
901.68	228.75
901.99	228.60
902.29	228.68
902.60	228.50
902.90	228.52
903.21	228.40
903.51	228.41
903.82	228.46
904.12	228.45
904.43	228.52
904.73	228.55
905.03	228.43
905.34	228.60
905.64	228.53
905.95	228.57
906.25	228.62
906.56	228.72
906.86	228.62
907.17	228.58
907.47	228.66
907.77	228.55
908.08	228.55
908.38	228.61
908.69	228.61
908.99	228.76
909.30	228.71
909.60	228.77
909.90	228.70
910.21	228.57
910.51	228.52
910.81	228.52
911.12	228.53
911.42	228.55
911.73	228.31
912.03	228.38
912.33	228.32
912.64	228.32
912.94	228.21
913.24	228.15
913.55	228.07
913.85	228.05
914.15	228.23
914.46	228.18
914.76	228.17
915.06	228.16
915.37	228.09
915.67	228.22
915.97	228.25
916.27	228.22
916.58	228.20
916.88	228.31
917.18	228.32
917.49	228.49
917.79	228.43
918.09	228.48
918.39	228.60
918.70	228.68
919.00	228.66
919.30	228.75
919.60	228.84
919.91	228.88
920.21	228.87
920.51	228.80
920.81	228.84
921.12	228.83
921.42	228.83
921.72	228.88
922.02	228.87
922.32	228.95
922.63	228.98
922.93	229.08
923.23	229.06
923.53	228.95
923.83	228.86
924.13	228.98
924.44	229.06
924.74	228.97
925.04	229.00
925.34	228.91
925.64	228.87
925.94	228.87
926.24	228.97
926.55	228.93
926.85	228.90
927.15	228.87
927.45	228.89
927.75	228.91
928.05	228.86
928.35	228.87
928.65	228.90
928.95	228.90
929.26	228.85
929.56	228.87
929.86	228.91
930.16	228.83
930.46	228.80
930.76	228.84
931.06	228.81
931.36	228.75
931.66	228.84
931.96	228.93
932.26	228.88
932.56	228.77
932.86	228.74
933.16	228.80
933.46	228.80
933.76	228.79
934.06	228.83
934.36	228.96
934.66	228.86
934.96	228.83
935.26	228.87
935.56	229.09
935.86	229.04
936.16	229.04
936.46	229.10
936.76	229.09
937.06	229.03
937.36	229.00
937.66	229.03
937.96	229.11
938.26	228.96
938.56	228.92
938.86	228.91
939.16	228.95
939.46	228.97
939.76	228.87
940.06	228.86
940.35	228.83
940.65	228.62
940.95	228.62
941.25	228.52
941.55	228.51
941.85	228.35
942.15	228.36
942.45	228.40
942.75	228.37
943.04	228.42
943.34	228.50
943.64	228.50
943.94	228.42
944.24	228.36
944.54	228.49
944.84	228.49
945.13	228.48
945.43	228.43
945.73	228.44
946.03	228.50
946.33	228.37
946.62	228.34
946.92	228.40
947.22	228.38
947.52	228.36
947.82	228.25
948.11	228.20
948.41	228.16
948.71	228.02
949.01	227.96
949.31	227.98
949.60	227.82
949.90	227.87
950.20	227.84
950.50	227.83
950.79	227.65
951.09	227.60
951.39	227.54
951.69	227.51
951.98	227.50
952.28	227.47
952.58	227.57
952.87	227.51
953.17	227.54
953.47	227.54
953.76	227.69
954.06	227.69
954.36	227.64
954.66	227.60
954.95	227.73
955.25	227.83
955.55	227.75
955.84	227.70
956.14	227.70
956.44	227.67
956.73	227.67
957.03	227.77
957.32	227.86
957.62	227.87
957.92	227.96
958.21	227.88
958.51	228.11
958.81	228.17
959.10	228.18
959.40	228.33
959.69	228.38
959.99	228.28
960.29	228.29
960.58	228.33
960.88	228.48
961.17	228.40
961.47	228.26
961.76	228.23
962.06	228.20
962.36	228.14
962.65	228.22
962.95	228.18
963.24	228.17
963.54	228.25
963.83	228.36
964.13	228.46
964.42	228.42
964.72	228.38
965.01	228.30
965.31	228.28
965.60	228.11
965.90	228.30
966.19	228.41
966.49	228.40
966.78	228.45
967.08	228.40
967.37	228.44
967.67	228.51
967.96	228.60
968.26	228.72
968.55	228.77
968.85	228.77
969.14	228.89
969.43	228.92
969.73	228.89
970.02	228.80
970.32	228.70
970.61	228.70
970.91	228.59
971.20	228.53
971.49	228.62
971.79	228.65
972.08	228.50
972.38	228.41
972.67	228.54
972.96	228.50
973.26	228.53
973.55	228.67
973.85	228.59
974.14	228.54
974.43	228.57
974.73	228.49
975.02	228.48
975.31	228.35
975.61	228.36
975.90	228.23
976.19	228.28
976.49	228.28
976.78	228.32
977.07	228.33
977.37	228.41
977.66	228.35
977.95	228.35
978.24	228.44
978.54	228.38
978.83	228.31
979.12	228.21
979.42	228.19
979.71	228.10
980.00	228.18
980.29	228.25
980.59	228.15
980.88	228.17
981.17	228.14
981.46	228.24
981.76	228.19
982.05	228.30
982.34	228.28
982.63	228.27
982.93	228.16
983.22	228.16
983.51	228.18
983.80	228.21
984.09	228.14
984.39	228.03
984.68	228.12
984.97	228.08
985.26	228.14
985.55	228.12
985.85	227.94
986.14	227.93
986.43	227.90
986.72	227.90
987.01	227.90
987.30	227.92
987.59	227.84
987.89	227.85
988.18	227.79
988.47	227.78
988.76	227.73
989.05	227.78
989.34	227.80
989.63	227.80
989.92	227.69
990.22	227.74
990.51	227.72
990.80	227.64
991.09	227.70
991.38	227.71
991.67	227.70
991.96	227.77
992.25	227.83
992.54	227.78
992.83	227.82
993.12	227.81
993.41	227.72
993.70	227.78
993.99	227.83
994.28	227.88
994.58	227.82
994.87	227.73
995.16	227.79
995.45	227.80
995.74	227.78
996.03	227.83
996.32	227.82
996.61	227.83
996.90	227.80
997.19	227.80
997.48	227.81
997.77	227.84
998.06	227.90
998.34	227.89
998.63	227.98
998.92	228.00
999.21	228.09
999.50	228.13
999.79	228.13
1000.08	228.12
1000.37	228.20
1000.66	228.33
1000.95	228.47
1001.24	228.53
1001.53	228.52
1001.82	228.58
1002.11	228.61
1002.40	228.53
1002.68	228.60
1002.97	228.89
1003.26	228.93
1003.55	228.94
1003.84	228.97
1004.13	229.06
1004.42	229.01
1004.71	228.95
1004.99	228.95
1005.28	229.01
1005.57	229.06
1005.86	229.04
1006.15	229.06
1006.44	228.99
1006.72	228.92
1007.01	228.96
1007.30	229.00
1007.59	228.93
1007.88	228.83
1008.17	228.91
1008.45	229.05
1008.74	229.00
1009.03	228.86
1009.32	228.81
1009.60	228.81
1009.89	228.80
1010.18	228.64
1010.47	228.56
1010.76	228.58
1011.04	228.50
1011.33	228.50
1011.62	228.49
1011.91	228.50
1012.19	228.45
1012.48	228.43
1012.77	228.42
1013.05	228.43
1013.34	228.37
1013.63	228.39
1013.92	228.38
1014.20	228.38
1014.49	228.45
1014.78	228.44
1015.06	228.34
1015.35	228.36
1015.64	228.32
1015.92	228.32
1016.21	228.34
1016.50	228.49
1016.78	228.46
1017.07	228.56
1017.36	228.49
1017.64	228.51
1017.93	228.50
1018.22	228.39
1018.50	228.38
1018.79	228.50
1019.08	228.45
1019.36	228.45
1019.65	228.42
1019.93	228.47
1020.22	228.39
1020.51	228.38
1020.79	228.35
1021.08	225.60
1021.36	228.10
1021.65	230.10
1021.94	228.70
1022.22	228.70
1022.51	227.30
1022.79	228.10
1023.08	227.60
1023.36	230.40
1023.65	227.20
>>>>>End Processed Spectral Data<<<<<
