SpectraSuite Data File
++++++++++++++++++++++++++++++++++++
Date: Fri Feb 01 14:35:28 EST 2013
User: group
Dark Spectrum Present: No
Reference Spectrum Present: No
Number of Sampled Component Spectra: 1
Spectrometers: USB2E7196
Integration Time (usec): 70000 (USB2E7196)
Spectra Averaged: 10 (USB2E7196)
Boxcar Smoothing: 10 (USB2E7196)
Correct for Electrical Dark: No (USB2E7196)
Strobe/Lamp Enabled: No (USB2E7196)
Correct for Detector Non-linearity: No (USB2E7196)
Correct for Stray Light: No (USB2E7196)
Number of Pixels in Processed Spectrum: 2048
>>>>>Begin Processed Spectral Data<<<<<
339.09	0.00
339.48	217.00
339.86	217.30
340.24	218.00
340.63	221.40
341.01	223.60
341.39	223.50
341.78	225.40
342.16	226.00
342.54	227.30
342.93	215.27
343.31	226.12
343.69	226.60
344.07	227.08
344.46	227.60
344.84	228.03
345.22	228.23
345.60	228.48
345.99	228.68
346.37	228.70
346.75	228.70
347.13	228.84
347.52	228.93
347.90	228.96
348.28	228.97
348.66	229.00
349.05	228.81
349.43	228.89
349.81	228.86
350.19	228.81
350.57	228.85
350.96	228.90
351.34	228.96
351.72	229.11
352.10	229.14
352.48	229.20
352.87	229.09
353.25	229.23
353.63	229.30
354.01	229.35
354.39	229.56
354.77	229.59
355.15	229.62
355.54	229.64
355.92	229.60
356.30	229.76
356.68	229.87
357.06	229.95
357.44	229.96
357.82	230.00
358.20	230.05
358.58	230.06
358.97	230.07
359.35	230.19
359.73	230.18
360.11	230.29
360.49	230.38
360.87	230.44
361.25	230.40
361.63	230.47
362.01	230.40
362.39	230.36
362.77	230.44
363.15	230.41
363.53	230.38
363.91	230.34
364.29	230.25
364.67	229.99
365.05	229.99
365.43	229.92
365.81	229.92
366.19	229.95
366.57	230.00
366.95	229.97
367.33	229.85
367.71	229.83
368.09	229.74
368.47	229.64
368.85	229.62
369.23	229.63
369.61	229.45
369.99	229.48
370.37	229.49
370.75	229.53
371.13	229.32
371.51	229.33
371.89	229.35
372.27	229.30
372.65	229.29
373.03	229.26
373.41	229.31
373.78	229.17
374.16	229.05
374.54	228.91
374.92	228.84
375.30	228.70
375.68	228.62
376.06	228.56
376.44	228.40
376.82	228.28
377.19	228.24
377.57	228.11
377.95	227.99
378.33	227.89
378.71	227.69
379.09	227.69
379.47	227.49
379.84	227.28
380.22	227.28
380.60	227.17
380.98	227.08
381.36	226.93
381.73	226.90
382.11	226.86
382.49	226.78
382.87	226.68
383.25	226.77
383.62	226.92
384.00	226.91
384.38	226.93
384.76	227.03
385.13	226.96
385.51	227.02
385.89	226.94
386.27	226.85
386.64	226.91
387.02	226.92
387.40	226.99
387.78	227.01
388.15	226.89
388.53	226.97
388.91	227.01
389.29	227.01
389.66	227.12
390.04	227.13
390.42	227.14
390.79	227.26
391.17	227.33
391.55	227.18
391.92	227.25
392.30	227.27
392.68	227.30
393.05	227.39
393.43	227.48
393.81	227.58
394.18	227.77
394.56	227.77
394.94	227.80
395.31	227.88
395.69	228.03
396.06	228.16
396.44	228.22
396.82	228.27
397.19	228.40
397.57	228.51
397.95	228.70
398.32	228.73
398.70	228.80
399.07	228.83
399.45	228.88
399.82	228.97
400.20	229.08
400.58	229.07
400.95	229.19
401.33	229.36
401.70	229.58
402.08	229.63
402.45	229.89
402.83	230.10
403.20	230.24
403.58	230.49
403.95	230.81
404.33	231.03
404.71	231.35
405.08	231.78
405.46	231.97
405.83	232.16
406.21	232.52
406.58	232.91
406.96	233.19
407.33	233.64
407.70	234.12
408.08	234.76
408.45	235.31
408.83	235.83
409.20	236.25
409.58	236.64
409.95	237.22
410.33	237.76
410.70	238.50
411.08	239.19
411.45	239.76
411.82	240.43
412.20	241.24
412.57	242.10
412.95	242.64
413.32	243.61
413.69	244.58
414.07	245.61
414.44	246.62
414.82	247.83
415.19	249.18
415.56	250.56
415.94	251.84
416.31	253.41
416.68	255.01
417.06	256.96
417.43	258.76
417.81	260.71
418.18	262.71
418.55	264.81
418.93	267.12
419.30	269.52
419.67	271.82
420.04	274.38
420.42	276.94
420.79	280.17
421.16	283.18
421.54	286.45
421.91	289.73
422.28	293.20
422.66	296.82
423.03	300.34
423.40	303.88
423.77	307.76
424.15	311.70
424.52	315.86
424.89	320.30
425.26	324.72
425.64	328.86
426.01	333.29
426.38	338.01
426.75	342.79
427.13	347.77
427.50	353.14
427.87	358.58
428.24	364.11
428.61	369.25
428.99	374.98
429.36	381.23
429.73	387.23
430.10	393.21
430.47	399.17
430.85	405.40
431.22	412.07
431.59	419.25
431.96	425.97
432.33	433.42
432.70	440.56
433.08	448.90
433.45	457.02
433.82	465.05
434.19	473.81
434.56	482.50
434.93	490.74
435.30	498.96
435.68	508.19
436.05	516.96
436.42	525.73
436.79	533.81
437.16	542.39
437.53	551.56
437.90	560.77
438.27	569.95
438.64	579.38
439.01	588.07
439.38	595.72
439.75	603.15
440.13	611.73
440.50	619.96
440.87	626.98
441.24	633.94
441.61	641.76
441.98	647.59
442.35	654.48
442.72	661.29
443.09	668.16
443.46	672.46
443.83	675.58
444.20	678.46
444.57	682.72
444.94	685.07
445.31	687.60
445.68	689.98
446.05	691.60
446.42	691.77
446.79	691.64
447.16	691.65
447.53	692.23
447.90	690.00
448.27	687.70
448.64	683.68
449.01	681.24
449.37	676.22
449.74	671.22
450.11	664.88
450.48	658.25
450.85	651.28
451.22	645.41
451.59	640.00
451.96	634.87
452.33	627.14
452.70	620.45
453.07	612.30
453.43	603.92
453.80	595.90
454.17	587.95
454.54	580.71
454.91	572.52
455.28	564.37
455.65	556.80
456.02	549.18
456.38	542.86
456.75	534.78
457.12	528.17
457.49	521.67
457.86	515.41
458.23	509.92
458.59	503.66
458.96	497.20
459.33	491.69
459.70	486.06
460.07	481.65
460.43	476.44
460.80	471.35
461.17	466.88
461.54	462.28
461.91	458.01
462.27	453.49
462.64	449.85
463.01	445.66
463.38	441.63
463.74	437.57
464.11	434.08
464.48	430.88
464.85	427.29
465.21	424.68
465.58	421.64
465.95	418.28
466.32	415.38
466.68	412.73
467.05	409.84
467.42	407.07
467.78	404.06
468.15	401.18
468.52	399.12
468.88	396.45
469.25	393.84
469.62	391.80
469.98	389.53
470.35	387.34
470.72	385.46
471.08	383.50
471.45	381.82
471.82	379.96
472.18	378.00
472.55	376.64
472.92	374.89
473.28	373.47
473.65	371.93
474.02	370.52
474.38	369.16
474.75	368.03
475.11	366.77
475.48	365.79
475.85	365.02
476.21	364.22
476.58	363.53
476.94	362.82
477.31	362.19
477.67	361.66
478.04	360.93
478.41	360.45
478.77	360.18
479.14	359.60
479.50	359.33
479.87	359.27
480.23	359.15
480.60	358.85
480.96	358.61
481.33	358.64
481.69	358.73
482.06	358.71
482.42	358.67
482.79	358.79
483.15	358.96
483.52	359.19
483.88	359.43
484.25	359.71
484.61	360.23
484.98	360.64
485.34	361.36
485.71	362.26
486.07	362.99
486.44	363.55
486.80	364.36
487.17	365.10
487.53	366.07
487.90	367.09
488.26	368.22
488.62	369.61
488.99	370.69
489.35	371.96
489.72	373.37
490.08	374.98
490.44	376.46
490.81	377.93
491.17	379.64
491.54	381.35
491.90	383.00
492.26	384.73
492.63	386.69
492.99	388.43
493.36	390.49
493.72	392.70
494.08	394.66
494.45	397.04
494.81	399.38
495.17	401.77
495.54	404.02
495.90	406.33
496.26	408.55
496.63	411.30
496.99	413.72
497.35	416.39
497.72	418.80
498.08	421.29
498.44	424.07
498.80	426.81
499.17	429.51
499.53	432.26
499.89	435.23
500.26	437.79
500.62	440.64
500.98	443.25
501.34	445.95
501.71	448.96
502.07	451.63
502.43	454.32
502.79	456.91
503.16	459.49
503.52	462.19
503.88	464.83
504.24	467.34
504.60	470.13
504.97	472.89
505.33	475.60
505.69	478.59
506.05	481.26
506.41	483.77
506.78	486.19
507.14	488.57
507.50	490.96
507.86	493.50
508.22	495.96
508.59	498.29
508.95	500.65
509.31	502.81
509.67	504.90
510.03	507.12
510.39	509.27
510.75	511.53
511.12	513.52
511.48	515.32
511.84	517.20
512.20	518.78
512.56	520.44
512.92	522.22
513.28	523.58
513.64	525.08
514.00	526.42
514.37	528.00
514.73	529.52
515.09	530.88
515.45	532.15
515.81	533.30
516.17	534.42
516.53	535.71
516.89	536.91
517.25	538.13
517.61	539.29
517.97	540.25
518.33	541.13
518.69	542.13
519.05	543.43
519.41	544.50
519.77	545.76
520.13	546.72
520.49	547.60
520.85	548.40
521.21	549.28
521.57	550.45
521.93	551.33
522.29	552.42
522.65	553.30
523.01	553.99
523.37	554.75
523.73	555.85
524.09	556.40
524.45	557.10
524.81	557.99
525.17	559.10
525.53	560.10
525.89	561.19
526.25	562.49
526.61	563.30
526.97	564.20
527.33	565.13
527.68	566.28
528.04	567.27
528.40	568.77
528.76	570.30
529.12	571.51
529.48	572.93
529.84	573.99
530.20	575.44
530.56	577.24
530.91	578.85
531.27	580.49
531.63	582.34
531.99	584.18
532.35	585.74
532.71	587.12
533.07	589.13
533.42	591.04
533.78	592.80
534.14	594.87
534.50	596.85
534.86	599.04
535.21	601.16
535.57	603.76
535.93	605.82
536.29	607.89
536.65	610.19
537.00	612.27
537.36	614.85
537.72	617.22
538.08	619.61
538.44	621.90
538.79	624.37
539.15	626.72
539.51	629.30
539.87	632.14
540.22	635.02
540.58	637.82
540.94	640.63
541.29	643.56
541.65	646.34
542.01	649.41
542.37	652.32
542.72	655.09
543.08	657.86
543.44	660.93
543.79	663.70
544.15	666.91
544.51	670.37
544.87	673.60
545.22	676.81
545.58	679.75
545.94	683.07
546.29	686.38
546.65	689.79
547.01	693.00
547.36	696.17
547.72	699.33
548.07	702.52
548.43	705.59
548.79	709.02
549.14	712.43
549.50	715.62
549.86	718.83
550.21	722.08
550.57	725.54
550.92	728.90
551.28	732.43
551.64	735.60
551.99	739.01
552.35	742.33
552.70	745.60
553.06	749.26
553.41	752.75
553.77	756.01
554.13	759.52
554.48	762.97
554.84	766.61
555.19	770.16
555.55	773.63
555.90	777.16
556.26	780.26
556.61	783.57
556.97	786.87
557.32	790.05
557.68	793.38
558.03	796.37
558.39	799.82
558.74	803.29
559.10	806.50
559.45	809.58
559.81	812.97
560.16	816.38
560.52	819.56
560.87	822.84
561.23	826.00
561.58	829.07
561.94	832.53
562.29	835.32
562.64	838.30
563.00	841.21
563.35	844.08
563.71	847.49
564.06	850.58
564.42	853.73
564.77	857.00
565.12	860.27
565.48	863.42
565.83	865.71
566.19	868.65
566.54	871.66
566.89	874.41
567.25	877.10
567.60	880.11
567.96	882.81
568.31	885.49
568.66	887.98
569.02	890.28
569.37	892.01
569.72	894.53
570.08	896.69
570.43	899.05
570.78	901.38
571.14	902.80
571.49	904.85
571.84	906.90
572.20	908.72
572.55	910.38
572.90	912.33
573.26	914.53
573.61	916.03
573.96	917.21
574.31	918.60
574.67	919.50
575.02	920.11
575.37	921.24
575.72	921.87
576.08	922.94
576.43	923.87
576.78	925.12
577.13	926.04
577.49	927.00
577.84	927.44
578.19	928.31
578.54	929.00
578.90	929.33
579.25	929.30
579.60	929.51
579.95	929.72
580.30	929.47
580.66	929.47
581.01	929.40
581.36	929.70
581.71	929.76
582.06	930.04
582.42	930.22
582.77	930.17
583.12	930.51
583.47	930.55
583.82	930.35
584.17	930.03
584.53	929.95
584.88	929.50
585.23	929.17
585.58	928.42
585.93	928.12
586.28	928.06
586.63	928.05
586.98	927.83
587.34	927.63
587.69	927.16
588.04	926.51
588.39	925.78
588.74	924.57
589.09	923.76
589.44	922.56
589.79	921.74
590.14	920.83
590.49	919.71
590.84	918.56
591.19	917.57
591.54	916.45
591.89	914.60
592.25	913.62
592.60	912.24
592.95	910.68
593.30	909.03
593.65	907.07
594.00	905.41
594.35	903.85
594.70	901.87
595.05	900.30
595.40	898.63
595.75	896.94
596.10	895.70
596.45	894.00
596.80	892.69
597.15	891.10
597.50	889.22
597.85	887.44
598.19	885.83
598.54	884.44
598.89	882.65
599.24	881.21
599.59	879.54
599.94	878.04
600.29	876.47
600.64	874.80
600.99	872.93
601.34	871.08
601.69	868.93
602.04	867.03
602.39	865.05
602.74	863.41
603.08	861.82
603.43	860.12
603.78	858.38
604.13	856.47
604.48	854.24
604.83	852.30
605.18	850.50
605.53	847.95
605.87	845.30
606.22	843.23
606.57	840.97
606.92	838.56
607.27	836.27
607.62	834.38
607.96	832.34
608.31	830.26
608.66	828.04
609.01	825.78
609.36	823.34
609.70	820.59
610.05	817.65
610.40	814.68
610.75	811.98
611.10	809.13
611.44	805.96
611.79	803.34
612.14	800.45
612.49	797.12
612.83	794.50
613.18	791.72
613.53	788.91
613.88	786.13
614.22	783.20
614.57	780.32
614.92	777.13
615.27	774.50
615.61	771.33
615.96	768.64
616.31	765.70
616.65	763.15
617.00	760.89
617.35	758.36
617.70	755.57
618.04	752.66
618.39	749.83
618.74	747.55
619.08	744.75
619.43	742.28
619.78	739.77
620.12	736.93
620.47	734.23
620.82	731.11
621.16	728.26
621.51	725.57
621.85	722.70
622.20	719.85
622.55	716.86
622.89	714.41
623.24	711.42
623.59	708.85
623.93	705.92
624.28	703.04
624.62	700.39
624.97	698.03
625.32	695.25
625.66	692.55
626.01	689.69
626.35	686.79
626.70	683.91
627.04	681.29
627.39	678.57
627.73	676.08
628.08	673.70
628.43	671.01
628.77	668.43
629.12	665.73
629.46	663.01
629.81	660.04
630.15	657.31
630.50	654.46
630.84	651.45
631.19	648.56
631.53	645.64
631.88	642.42
632.22	639.20
632.57	636.58
632.91	633.87
633.26	630.97
633.60	628.22
633.95	625.40
634.29	622.76
634.64	620.12
634.98	617.29
635.32	614.85
635.67	612.30
636.01	609.67
636.36	607.09
636.70	604.84
637.05	602.51
637.39	599.96
637.73	597.51
638.08	595.23
638.42	593.10
638.77	590.64
639.11	588.27
639.45	585.99
639.80	583.26
640.14	580.84
640.49	578.58
640.83	576.23
641.17	573.84
641.52	571.11
641.86	568.86
642.20	566.43
642.55	563.81
642.89	561.39
643.23	559.07
643.58	556.84
643.92	554.15
644.26	551.80
644.61	549.66
644.95	547.38
645.29	544.93
645.64	542.34
645.98	540.07
646.32	537.91
646.66	535.50
647.01	533.33
647.35	531.08
647.69	528.78
648.04	526.65
648.38	524.44
648.72	522.39
649.06	519.84
649.41	517.64
649.75	515.32
650.09	513.08
650.43	510.50
650.78	507.93
651.12	505.71
651.46	503.39
651.80	501.00
652.14	498.85
652.49	496.50
652.83	494.35
653.17	492.11
653.51	489.92
653.85	487.86
654.20	485.65
654.54	483.05
654.88	480.71
655.22	478.35
655.56	475.99
655.90	473.83
656.25	471.73
656.59	469.46
656.93	467.24
657.27	465.01
657.61	462.74
657.95	460.89
658.29	458.73
658.64	456.55
658.98	454.40
659.32	451.99
659.66	450.00
660.00	447.99
660.34	445.92
660.68	443.74
661.02	441.50
661.36	439.54
661.70	437.76
662.05	435.97
662.39	434.12
662.73	432.44
663.07	430.51
663.41	428.71
663.75	426.98
664.09	425.16
664.43	423.22
664.77	421.64
665.11	419.75
665.45	418.05
665.79	416.42
666.13	414.55
666.47	412.86
666.81	411.11
667.15	409.10
667.49	407.39
667.83	405.85
668.17	404.20
668.51	402.30
668.85	400.64
669.19	399.04
669.53	397.29
669.87	395.45
670.21	393.89
670.55	392.34
670.89	390.91
671.23	389.34
671.57	387.91
671.91	386.47
672.25	384.97
672.58	383.57
672.92	382.03
673.26	380.84
673.60	379.59
673.94	378.18
674.28	377.11
674.62	375.67
674.96	374.09
675.30	372.98
675.64	371.89
675.97	370.76
676.31	369.31
676.65	368.02
676.99	366.93
677.33	365.54
677.67	364.28
678.01	362.79
678.34	361.59
678.68	360.48
679.02	359.22
679.36	358.00
679.70	356.76
680.04	355.65
680.37	354.19
680.71	352.88
681.05	351.80
681.39	350.59
681.73	349.69
682.06	348.75
682.40	347.56
682.74	346.44
683.08	345.18
683.42	344.21
683.75	343.31
684.09	342.18
684.43	341.10
684.77	339.98
685.10	338.87
685.44	337.74
685.78	336.58
686.12	335.38
686.45	334.35
686.79	333.22
687.13	332.15
687.46	331.18
687.80	330.22
688.14	329.18
688.48	328.13
688.81	327.03
689.15	326.05
689.49	325.03
689.82	324.09
690.16	323.13
690.50	322.30
690.83	321.30
691.17	320.29
691.51	319.45
691.84	318.66
692.18	317.72
692.52	316.86
692.85	316.04
693.19	315.31
693.52	314.38
693.86	313.62
694.20	312.74
694.53	311.95
694.87	311.04
695.21	310.09
695.54	309.30
695.88	308.52
696.21	307.59
696.55	306.88
696.88	305.87
697.22	305.03
697.56	304.07
697.89	303.21
698.23	302.41
698.56	301.58
698.90	300.70
699.23	300.00
699.57	299.21
699.90	298.40
700.24	297.66
700.58	296.85
700.91	296.11
701.25	295.60
701.58	294.91
701.92	294.31
702.25	293.65
702.59	292.95
702.92	292.22
703.26	291.73
703.59	290.90
703.93	290.56
704.26	290.00
704.60	289.33
704.93	288.71
705.26	288.11
705.60	287.52
705.93	286.94
706.27	286.41
706.60	285.87
706.94	285.27
707.27	284.53
707.61	284.05
707.94	283.37
708.27	282.57
708.61	281.94
708.94	281.30
709.28	280.80
709.61	280.24
709.94	279.77
710.28	279.24
710.61	278.74
710.95	277.96
711.28	277.56
711.61	276.94
711.95	276.33
712.28	275.78
712.61	275.10
712.95	274.65
713.28	274.16
713.61	273.65
713.95	273.28
714.28	272.85
714.61	272.23
714.95	271.73
715.28	271.14
715.61	270.55
715.95	270.18
716.28	269.66
716.61	269.11
716.95	268.61
717.28	268.11
717.61	267.71
717.94	267.24
718.28	266.63
718.61	266.23
718.94	265.88
719.27	265.52
719.61	265.23
719.94	264.78
720.27	264.23
720.60	263.76
720.94	263.23
721.27	262.86
721.60	262.63
721.93	262.38
722.27	262.16
722.60	261.92
722.93	261.43
723.26	261.05
723.59	260.71
723.93	260.27
724.26	259.91
724.59	259.53
724.92	259.28
725.25	259.09
725.59	258.74
725.92	258.37
726.25	257.92
726.58	257.67
726.91	257.30
727.24	257.05
727.57	256.80
727.91	256.62
728.24	256.39
728.57	256.05
728.90	255.77
729.23	255.39
729.56	255.31
729.89	255.13
730.22	254.94
730.55	254.72
730.89	254.55
731.22	254.29
731.55	254.03
731.88	253.70
732.21	253.30
732.54	253.01
732.87	252.86
733.20	252.69
733.53	252.50
733.86	252.36
734.19	252.16
734.52	251.98
734.85	251.78
735.18	251.44
735.51	251.19
735.84	250.99
736.17	250.89
736.50	250.50
736.83	250.48
737.16	250.17
737.49	249.93
737.82	249.63
738.15	249.56
738.48	249.44
738.81	249.41
739.14	249.30
739.47	249.19
739.80	248.96
740.13	248.71
740.46	248.38
740.79	248.19
741.12	248.00
741.45	247.82
741.78	247.51
742.11	247.32
742.44	247.20
742.77	246.95
743.10	246.62
743.43	246.27
743.75	245.84
744.08	245.98
744.41	245.80
744.74	245.70
745.07	245.40
745.40	245.29
745.73	245.05
746.06	244.84
746.39	244.80
746.71	244.76
747.04	244.63
747.37	244.38
747.70	244.21
748.03	243.93
748.36	243.78
748.68	243.63
749.01	243.54
749.34	243.38
749.67	243.19
750.00	243.19
750.33	243.36
750.65	243.32
750.98	242.99
751.31	242.91
751.64	242.60
751.97	242.65
752.29	242.48
752.62	242.24
752.95	242.10
753.28	241.82
753.60	241.59
753.93	241.50
754.26	241.48
754.59	241.21
754.91	241.19
755.24	240.98
755.57	240.89
755.90	240.72
756.22	240.51
756.55	240.40
756.88	240.21
757.20	239.84
757.53	239.59
757.86	239.49
758.19	239.34
758.51	239.32
758.84	239.05
759.17	238.85
759.49	238.70
759.82	238.69
760.15	238.69
760.47	238.56
760.80	238.42
761.13	238.31
761.45	238.23
761.78	238.15
762.11	238.20
762.43	237.99
762.76	237.91
763.08	237.89
763.41	237.80
763.74	237.74
764.06	237.72
764.39	237.57
764.71	237.43
765.04	237.25
765.37	237.14
765.69	237.04
766.02	236.92
766.34	236.85
766.67	236.63
767.00	236.51
767.32	236.44
767.65	236.52
767.97	236.43
768.30	236.33
768.62	236.20
768.95	235.99
769.27	235.96
769.60	235.88
769.92	235.75
770.25	235.60
770.57	235.45
770.90	235.36
771.22	235.31
771.55	235.18
771.87	235.11
772.20	235.05
772.52	235.13
772.85	235.22
773.17	235.25
773.50	235.18
773.82	235.08
774.15	234.92
774.47	234.66
774.80	234.61
775.12	234.49
775.45	234.36
775.77	234.38
776.09	234.34
776.42	234.22
776.74	234.21
777.07	234.13
777.39	234.02
777.72	233.91
778.04	233.91
778.36	233.79
778.69	233.84
779.01	233.75
779.33	233.51
779.66	233.24
779.98	233.18
780.31	233.20
780.63	233.16
780.95	233.07
781.28	233.03
781.60	232.93
781.92	232.96
782.25	233.04
782.57	232.92
782.89	232.92
783.22	232.86
783.54	232.79
783.86	232.84
784.19	232.84
784.51	232.88
784.83	232.84
785.16	232.82
785.48	232.81
785.80	232.83
786.12	232.79
786.45	232.77
786.77	232.72
787.09	232.65
787.42	232.52
787.74	232.66
788.06	232.57
788.38	232.56
788.71	232.56
789.03	232.39
789.35	232.38
789.67	232.40
789.99	232.41
790.32	232.24
790.64	232.18
790.96	232.20
791.28	232.10
791.61	231.99
791.93	232.05
792.25	231.87
792.57	231.94
792.89	231.90
793.21	231.85
793.54	231.72
793.86	231.60
794.18	231.63
794.50	231.52
794.82	231.54
795.14	231.62
795.47	231.56
795.79	231.58
796.11	231.45
796.43	231.23
796.75	231.12
797.07	231.22
797.39	231.17
797.71	231.07
798.04	231.02
798.36	231.01
798.68	230.96
799.00	231.03
799.32	230.88
799.64	230.87
799.96	230.96
800.28	231.05
800.60	231.06
800.92	231.02
801.24	230.87
801.56	230.89
801.89	230.70
802.21	230.74
802.53	230.74
802.85	230.85
803.17	231.03
803.49	231.00
803.81	231.01
804.13	231.00
804.45	231.07
804.77	230.99
805.09	230.91
805.41	230.84
805.73	230.88
806.05	230.81
806.37	230.80
806.69	230.72
807.01	230.66
807.33	230.60
807.65	230.58
807.97	230.72
808.28	230.65
808.60	230.66
808.92	230.66
809.24	230.67
809.56	230.56
809.88	230.40
810.20	230.36
810.52	230.36
810.84	230.28
811.16	230.11
811.48	230.15
811.80	230.27
812.12	230.29
812.43	230.17
812.75	230.20
813.07	230.06
813.39	230.04
813.71	229.98
814.03	229.98
814.35	229.94
814.67	229.86
814.98	229.88
815.30	229.79
815.62	229.58
815.94	229.54
816.26	229.68
816.58	229.55
816.89	229.68
817.21	229.63
817.53	229.78
817.85	229.77
818.17	229.73
818.48	229.74
818.80	229.66
819.12	229.66
819.44	229.58
819.76	229.60
820.07	229.59
820.39	229.62
820.71	229.66
821.03	229.71
821.34	229.75
821.66	229.75
821.98	229.80
822.30	229.92
822.61	229.97
822.93	229.83
823.25	229.92
823.57	229.85
823.88	229.87
824.20	229.70
824.52	229.76
824.83	229.83
825.15	229.66
825.47	229.72
825.79	229.71
826.10	229.79
826.42	229.88
826.74	229.97
827.05	229.98
827.37	230.00
827.69	229.94
828.00	229.91
828.32	229.87
828.64	229.81
828.95	229.88
829.27	229.87
829.58	229.85
829.90	229.89
830.22	229.96
830.53	229.81
830.85	229.81
831.17	229.77
831.48	229.69
831.80	229.72
832.11	229.74
832.43	229.68
832.75	229.58
833.06	229.65
833.38	229.56
833.69	229.53
834.01	229.38
834.32	229.40
834.64	229.34
834.96	229.39
835.27	229.34
835.59	229.22
835.90	229.13
836.22	229.09
836.53	228.98
836.85	228.82
837.16	229.07
837.48	228.96
837.79	229.00
838.11	228.95
838.42	228.94
838.74	228.92
839.05	228.91
839.37	228.87
839.68	228.70
840.00	228.67
840.31	228.65
840.63	228.61
840.94	228.52
841.26	228.50
841.57	228.34
841.88	228.38
842.20	228.36
842.51	228.43
842.83	228.40
843.14	228.66
843.46	228.77
843.77	228.69
844.08	228.81
844.40	228.74
844.71	228.72
845.03	228.67
845.34	228.67
845.65	228.70
845.97	228.76
846.28	228.80
846.60	228.73
846.91	228.66
847.22	228.73
847.54	228.83
847.85	228.89
848.16	228.93
848.48	228.94
848.79	229.04
849.10	228.97
849.42	228.99
849.73	228.72
850.04	228.65
850.36	228.50
850.67	228.50
850.98	228.54
851.30	228.55
851.61	228.67
851.92	228.65
852.23	228.70
852.55	228.75
852.86	228.69
853.17	228.75
853.49	228.87
853.80	228.95
854.11	228.97
854.42	228.98
854.74	228.99
855.05	229.01
855.36	228.94
855.67	228.92
855.99	228.94
856.30	229.18
856.61	229.11
856.92	229.28
857.23	229.29
857.55	229.33
857.86	229.40
858.17	229.42
858.48	229.41
858.79	229.47
859.11	229.43
859.42	229.35
859.73	229.33
860.04	229.21
860.35	229.11
860.66	228.97
860.98	229.03
861.29	229.00
861.60	229.00
861.91	229.00
862.22	229.05
862.53	228.95
862.84	228.71
863.16	228.83
863.47	228.68
863.78	228.70
864.09	228.63
864.40	228.58
864.71	228.43
865.02	228.46
865.33	228.40
865.64	228.31
865.95	228.47
866.27	228.70
866.58	228.72
866.89	228.73
867.20	228.78
867.51	228.70
867.82	228.72
868.13	228.80
868.44	228.75
868.75	228.73
869.06	228.79
869.37	228.83
869.68	228.74
869.99	228.76
870.30	228.55
870.61	228.52
870.92	228.52
871.23	228.49
871.54	228.54
871.85	228.49
872.16	228.53
872.47	228.41
872.78	228.21
873.09	228.23
873.40	228.19
873.71	228.24
874.02	228.21
874.33	228.20
874.64	228.21
874.95	228.29
875.26	228.21
875.56	228.30
875.87	228.33
876.18	228.25
876.49	228.49
876.80	228.66
877.11	228.67
877.42	228.61
877.73	228.73
878.04	228.61
878.35	228.61
878.66	228.60
878.96	228.70
879.27	228.70
879.58	228.66
879.89	228.65
880.20	228.60
880.51	228.60
880.82	228.64
881.12	228.56
881.43	228.51
881.74	228.53
882.05	228.43
882.36	228.29
882.67	228.40
882.97	228.07
883.28	228.04
883.59	228.07
883.90	228.02
884.21	228.16
884.51	228.15
884.82	228.07
885.13	228.15
885.44	228.07
885.74	227.99
886.05	228.01
886.36	228.06
886.67	228.01
886.98	228.12
887.28	228.11
887.59	227.99
887.90	227.99
888.20	228.00
888.51	228.10
888.82	228.10
889.13	228.08
889.43	228.34
889.74	228.24
890.05	228.20
890.35	228.33
890.66	228.13
890.97	228.13
891.28	228.12
891.58	228.07
891.89	228.00
892.20	228.02
892.50	228.00
892.81	227.91
893.12	227.92
893.42	227.79
893.73	227.84
894.04	227.93
894.34	227.90
894.65	227.92
894.95	227.81
895.26	227.90
895.57	227.98
895.87	227.89
896.18	227.92
896.48	227.92
896.79	227.87
897.10	227.91
897.40	227.94
897.71	228.09
898.01	228.06
898.32	228.22
898.63	228.22
898.93	228.31
899.24	228.34
899.54	228.35
899.85	228.42
900.15	228.27
900.46	228.24
900.76	228.30
901.07	228.33
901.38	228.32
901.68	228.33
901.99	228.34
902.29	228.21
902.60	228.24
902.90	228.20
903.21	228.23
903.51	228.21
903.82	228.18
904.12	228.10
904.43	228.14
904.73	228.08
905.03	228.15
905.34	228.24
905.64	228.32
905.95	228.32
906.25	228.21
906.56	228.23
906.86	228.24
907.17	228.21
907.47	228.08
907.77	228.07
908.08	227.93
908.38	227.79
908.69	227.86
908.99	227.86
909.30	227.87
909.60	227.92
909.90	227.88
910.21	227.84
910.51	227.81
910.81	227.90
911.12	227.80
911.42	227.62
911.73	227.38
912.03	227.38
912.33	227.42
912.64	227.50
912.94	227.57
913.24	227.52
913.55	227.46
913.85	227.50
914.15	227.54
914.46	227.68
914.76	227.71
915.06	227.61
915.37	227.60
915.67	227.66
915.97	227.64
916.27	227.63
916.58	227.64
916.88	227.66
917.18	227.49
917.49	227.73
917.79	227.79
918.09	227.88
918.39	227.85
918.70	227.79
919.00	227.69
919.30	227.77
919.60	227.78
919.91	227.84
920.21	227.91
920.51	227.85
920.81	227.84
921.12	227.76
921.42	227.84
921.72	227.85
922.02	227.91
922.32	227.90
922.63	227.95
922.93	228.01
923.23	228.04
923.53	228.06
923.83	227.87
924.13	227.92
924.44	227.96
924.74	228.00
925.04	228.02
925.34	228.03
925.64	227.85
925.94	227.94
926.24	228.00
926.55	227.88
926.85	227.89
927.15	227.90
927.45	228.00
927.75	227.97
928.05	227.98
928.35	227.85
928.65	227.85
928.95	227.84
929.26	227.79
929.56	227.76
929.86	227.81
930.16	227.84
930.46	227.87
930.76	227.75
931.06	227.67
931.36	227.70
931.66	227.83
931.96	227.90
932.26	227.87
932.56	227.78
932.86	227.81
933.16	227.92
933.46	227.89
933.76	227.96
934.06	228.04
934.36	228.12
934.66	228.18
934.96	228.12
935.26	228.26
935.56	228.35
935.86	228.33
936.16	228.28
936.46	228.24
936.76	228.23
937.06	228.28
937.36	228.30
937.66	228.32
937.96	228.30
938.26	228.30
938.56	228.22
938.86	228.20
939.16	228.31
939.46	228.29
939.76	228.36
940.06	228.21
940.35	228.20
940.65	228.15
940.95	228.13
941.25	228.03
941.55	227.90
941.85	227.82
942.15	227.95
942.45	228.00
942.75	228.11
943.04	228.10
943.34	228.17
943.64	228.18
943.94	228.12
944.24	228.09
944.54	228.12
944.84	228.12
945.13	228.14
945.43	228.11
945.73	228.09
946.03	228.00
946.33	228.00
946.62	227.89
946.92	227.86
947.22	227.93
947.52	228.00
947.82	228.00
948.11	227.96
948.41	227.86
948.71	227.80
949.01	227.73
949.31	227.73
949.60	227.77
949.90	227.80
950.20	227.79
950.50	227.80
950.79	227.79
951.09	227.80
951.39	227.84
951.69	227.76
951.98	227.68
952.28	227.64
952.58	227.63
952.87	227.63
953.17	227.67
953.47	227.45
953.76	227.42
954.06	227.41
954.36	227.44
954.66	227.45
954.95	227.51
955.25	227.49
955.55	227.40
955.84	227.30
956.14	227.32
956.44	227.30
956.73	227.25
957.03	227.17
957.32	227.10
957.62	227.04
957.92	227.11
958.21	227.16
958.51	227.41
958.81	227.45
959.10	227.47
959.40	227.50
959.69	227.67
959.99	227.70
960.29	227.74
960.58	227.66
960.88	227.65
961.17	227.61
961.47	227.70
961.76	227.79
962.06	227.79
962.36	227.67
962.65	227.66
962.95	227.51
963.24	227.50
963.54	227.60
963.83	227.67
964.13	227.60
964.42	227.52
964.72	227.30
965.01	227.32
965.31	227.32
965.60	227.21
965.90	227.40
966.19	227.36
966.49	227.23
966.78	227.35
967.08	227.39
967.37	227.41
967.67	227.30
967.96	227.20
968.26	227.25
968.55	227.33
968.85	227.35
969.14	227.58
969.43	227.62
969.73	227.67
970.02	227.73
970.32	227.75
970.61	227.86
970.91	227.96
971.20	228.01
971.49	228.08
971.79	228.16
972.08	228.00
972.38	228.16
972.67	228.26
972.96	228.30
973.26	228.34
973.55	228.36
973.85	228.36
974.14	228.50
974.43	228.49
974.73	228.52
975.02	228.63
975.31	228.66
975.61	228.80
975.90	228.84
976.19	228.72
976.49	228.80
976.78	228.82
977.07	228.81
977.37	228.93
977.66	228.98
977.95	228.93
978.24	228.89
978.54	228.85
978.83	228.86
979.12	228.89
979.42	228.84
979.71	228.86
980.00	228.84
980.29	228.78
980.59	228.70
980.88	228.79
981.17	228.74
981.46	228.62
981.76	228.50
982.05	228.53
982.34	228.51
982.63	228.50
982.93	228.56
983.22	228.60
983.51	228.60
983.80	228.70
984.09	228.76
984.39	228.80
984.68	228.88
984.97	228.89
985.26	228.80
985.55	228.76
985.85	228.71
986.14	228.87
986.43	228.87
986.72	228.90
987.01	228.70
987.30	228.66
987.59	228.62
987.89	228.62
988.18	228.59
988.47	228.64
988.76	228.60
989.05	228.56
989.34	228.42
989.63	228.35
989.92	228.16
990.22	228.11
990.51	228.06
990.80	227.94
991.09	228.01
991.38	228.04
991.67	227.97
991.96	227.98
992.25	227.89
992.54	227.98
992.83	227.93
993.12	227.96
993.41	228.00
993.70	228.17
993.99	228.15
994.28	228.10
994.58	228.11
994.87	228.14
995.16	228.06
995.45	228.10
995.74	228.04
996.03	228.20
996.32	228.27
996.61	228.38
996.90	228.44
997.19	228.34
997.48	228.31
997.77	228.36
998.06	228.39
998.34	228.45
998.63	228.50
998.92	228.58
999.21	228.58
999.50	228.62
999.79	228.53
1000.08	228.61
1000.37	228.60
1000.66	228.58
1000.95	228.59
1001.24	228.59
1001.53	228.64
1001.82	228.65
1002.11	228.47
1002.40	228.51
1002.68	228.57
1002.97	228.69
1003.26	228.70
1003.55	228.78
1003.84	228.86
1004.13	229.01
1004.42	229.04
1004.71	228.99
1004.99	229.05
1005.28	229.15
1005.57	229.07
1005.86	229.12
1006.15	229.20
1006.44	229.32
1006.72	229.39
1007.01	229.44
1007.30	229.54
1007.59	229.47
1007.88	229.42
1008.17	229.56
1008.45	229.38
1008.74	229.26
1009.03	229.12
1009.32	229.17
1009.60	229.13
1009.89	229.09
1010.18	228.95
1010.47	228.87
1010.76	228.87
1011.04	228.81
1011.33	228.82
1011.62	228.92
1011.91	228.89
1012.19	228.80
1012.48	228.71
1012.77	228.70
1013.05	228.71
1013.34	228.73
1013.63	228.81
1013.92	228.87
1014.20	228.76
1014.49	228.88
1014.78	228.73
1015.06	228.77
1015.35	228.72
1015.64	228.72
1015.92	228.72
1016.21	228.70
1016.50	228.67
1016.78	228.66
1017.07	228.76
1017.36	228.75
1017.64	228.67
1017.93	228.69
1018.22	228.66
1018.50	228.60
1018.79	228.61
1019.08	228.48
1019.36	228.37
1019.65	228.31
1019.93	228.27
1020.22	228.31
1020.51	228.31
1020.79	228.44
1021.08	228.00
1021.36	227.30
1021.65	228.90
1021.94	227.30
1022.22	227.50
1022.51	228.30
1022.79	227.70
1023.08	228.70
1023.36	229.10
1023.65	228.10
>>>>>End Processed Spectral Data<<<<<
