SpectraSuite Data File
++++++++++++++++++++++++++++++++++++
Date: Fri Feb 01 14:39:14 EST 2013
User: group
Dark Spectrum Present: No
Reference Spectrum Present: No
Number of Sampled Component Spectra: 1
Spectrometers: USB2E7196
Integration Time (usec): 70000 (USB2E7196)
Spectra Averaged: 10 (USB2E7196)
Boxcar Smoothing: 10 (USB2E7196)
Correct for Electrical Dark: No (USB2E7196)
Strobe/Lamp Enabled: No (USB2E7196)
Correct for Detector Non-linearity: No (USB2E7196)
Correct for Stray Light: No (USB2E7196)
Number of Pixels in Processed Spectrum: 2048
>>>>>Begin Processed Spectral Data<<<<<
339.09	0.00
339.48	215.50
339.86	216.20
340.24	218.90
340.63	218.60
341.01	226.50
341.39	224.70
341.78	224.60
342.16	225.80
342.54	225.30
342.93	214.61
343.31	225.47
343.69	226.05
344.07	226.58
344.46	227.00
344.84	227.34
345.22	227.40
345.60	227.55
345.99	227.77
346.37	227.92
346.75	228.04
347.13	228.07
347.52	228.18
347.90	228.34
348.28	228.34
348.66	228.36
349.05	228.31
349.43	228.22
349.81	228.36
350.19	228.41
350.57	228.40
350.96	228.44
351.34	228.41
351.72	228.50
352.10	228.61
352.48	228.69
352.87	228.82
353.25	228.84
353.63	228.89
354.01	228.87
354.39	228.96
354.77	229.00
355.15	229.16
355.54	229.15
355.92	229.15
356.30	229.11
356.68	229.37
357.06	229.48
357.44	229.54
357.82	229.60
358.20	229.65
358.58	229.72
358.97	229.79
359.35	229.89
359.73	230.02
360.11	230.12
360.49	230.17
360.87	230.24
361.25	230.33
361.63	230.47
362.01	230.52
362.39	230.43
362.77	230.50
363.15	230.50
363.53	230.49
363.91	230.54
364.29	230.56
364.67	230.38
365.05	230.37
365.43	230.37
365.81	230.30
366.19	230.34
366.57	230.42
366.95	230.36
367.33	230.44
367.71	230.28
368.09	230.14
368.47	230.13
368.85	230.06
369.23	230.00
369.61	229.89
369.99	229.96
370.37	229.91
370.75	230.03
371.13	229.98
371.51	230.01
371.89	229.94
372.27	229.81
372.65	229.65
373.03	229.66
373.41	229.67
373.78	229.57
374.16	229.46
374.54	229.31
374.92	229.18
375.30	228.98
375.68	228.90
376.06	228.80
376.44	228.60
376.82	228.62
377.19	228.58
377.57	228.42
377.95	228.16
378.33	228.18
378.71	227.81
379.09	227.73
379.47	227.53
379.84	227.32
380.22	227.32
380.60	227.23
380.98	227.08
381.36	226.89
381.73	226.78
382.11	226.63
382.49	226.61
382.87	226.56
383.25	226.51
383.62	226.74
384.00	226.70
384.38	226.68
384.76	226.60
385.13	226.54
385.51	226.58
385.89	226.63
386.27	226.58
386.64	226.66
387.02	226.52
387.40	226.52
387.78	226.53
388.15	226.52
388.53	226.53
388.91	226.54
389.29	226.47
389.66	226.42
390.04	226.42
390.42	226.41
390.79	226.40
391.17	226.36
391.55	226.02
391.92	226.03
392.30	226.05
392.68	226.00
393.05	226.06
393.43	226.00
393.81	225.99
394.18	226.00
394.56	226.00
394.94	226.19
395.31	226.20
395.69	226.25
396.06	226.26
396.44	226.39
396.82	226.42
397.19	226.54
397.57	226.76
397.95	226.85
398.32	226.86
398.70	227.02
399.07	227.09
399.45	227.18
399.82	227.21
400.20	227.37
400.58	227.50
400.95	227.52
401.33	227.66
401.70	227.89
402.08	228.00
402.45	228.12
402.83	228.20
403.20	228.33
403.58	228.49
403.95	228.64
404.33	228.65
404.71	228.80
405.08	229.07
405.46	229.10
405.83	229.27
406.21	229.40
406.58	229.53
406.96	229.80
407.33	230.00
407.70	230.27
408.08	230.58
408.45	230.74
408.83	230.98
409.20	231.19
409.58	231.32
409.95	231.44
410.33	231.64
410.70	231.89
411.08	232.19
411.45	232.55
411.82	232.82
412.20	233.26
412.57	233.78
412.95	234.07
413.32	234.50
413.69	234.83
414.07	235.38
414.44	235.76
414.82	236.17
415.19	236.85
415.56	237.35
415.94	237.80
416.31	238.53
416.68	239.17
417.06	239.81
417.43	240.64
417.81	241.59
418.18	242.51
418.55	243.37
418.93	244.19
419.30	245.12
419.67	246.10
420.04	247.13
420.42	248.06
420.79	249.37
421.16	250.61
421.54	252.09
421.91	253.38
422.28	254.77
422.66	256.30
423.03	257.70
423.40	259.23
423.77	260.76
424.15	262.29
424.52	264.00
424.89	265.83
425.26	267.38
425.64	268.96
426.01	270.67
426.38	272.50
426.75	274.38
427.13	276.30
427.50	278.30
427.87	280.35
428.24	282.46
428.61	284.41
428.99	286.72
429.36	289.02
429.73	291.34
430.10	293.70
430.47	295.92
430.85	298.20
431.22	300.81
431.59	303.64
431.96	306.17
432.33	308.90
432.70	311.80
433.08	315.11
433.45	318.26
433.82	321.33
434.19	324.67
434.56	328.09
434.93	331.21
435.30	334.30
435.68	337.56
436.05	340.88
436.42	344.03
436.79	347.06
437.16	350.33
437.53	353.62
437.90	356.99
438.27	360.39
438.64	363.88
439.01	366.99
439.38	369.79
439.75	372.43
440.13	375.48
440.50	378.30
440.87	380.73
441.24	383.09
441.61	385.80
441.98	387.73
442.35	390.13
442.72	392.53
443.09	394.88
443.46	396.48
443.83	397.44
444.20	398.39
444.57	399.46
444.94	399.88
445.31	400.60
445.68	401.44
446.05	401.60
446.42	401.37
446.79	401.08
447.16	400.79
447.53	400.79
447.90	399.81
448.27	398.81
448.64	397.05
449.01	395.98
449.37	393.90
449.74	391.96
450.11	389.59
450.48	386.90
450.85	384.23
451.22	381.91
451.59	379.70
451.96	377.67
452.33	374.67
452.70	372.03
453.07	368.86
453.43	365.48
453.80	362.60
454.17	359.70
454.54	356.88
454.91	353.74
455.28	350.61
455.65	347.72
456.02	344.84
456.38	342.37
456.75	339.28
457.12	336.64
457.49	334.06
457.86	331.45
458.23	329.31
458.59	326.83
458.96	324.42
459.33	322.30
459.70	319.98
460.07	318.29
460.43	316.34
460.80	314.33
461.17	312.62
461.54	310.80
461.91	309.07
462.27	307.30
462.64	305.68
463.01	304.05
463.38	302.51
463.74	300.84
464.11	299.31
464.48	298.08
464.85	296.72
465.21	295.69
465.58	294.53
465.95	293.20
466.32	292.01
466.68	290.80
467.05	289.66
467.42	288.54
467.78	287.34
468.15	286.26
468.52	285.64
468.88	284.47
469.25	283.37
469.62	282.52
469.98	281.56
470.35	280.79
470.72	280.00
471.08	279.07
471.45	278.37
471.82	277.72
472.18	276.87
472.55	276.22
472.92	275.30
473.28	274.53
473.65	273.71
474.02	273.19
474.38	272.53
474.75	271.97
475.11	271.37
475.48	271.00
475.85	270.58
476.21	269.89
476.58	269.45
476.94	269.19
477.31	268.74
477.67	268.43
478.04	267.94
478.41	267.62
478.77	267.54
479.14	266.98
479.50	266.63
479.87	266.28
480.23	266.01
480.60	265.86
480.96	265.68
481.33	265.60
481.69	265.22
482.06	265.10
482.42	264.95
482.79	264.87
483.15	264.66
483.52	264.56
483.88	264.44
484.25	264.26
484.61	264.01
484.98	263.90
485.34	263.83
485.71	263.97
486.07	263.85
486.44	263.70
486.80	263.84
487.17	263.91
487.53	264.10
487.90	264.10
488.26	264.10
488.62	264.22
488.99	264.39
489.35	264.59
489.72	264.74
490.08	264.83
490.44	264.86
490.81	265.05
491.17	265.20
491.54	265.45
491.90	265.70
492.26	266.02
492.63	266.23
492.99	266.55
493.36	266.77
493.72	267.09
494.08	267.36
494.45	267.65
494.81	267.96
495.17	268.21
495.54	268.66
495.90	269.02
496.26	269.30
496.63	269.64
496.99	270.07
497.35	270.41
497.72	270.94
498.08	271.39
498.44	271.77
498.80	272.21
499.17	272.66
499.53	273.21
499.89	273.70
500.26	274.18
500.62	274.59
500.98	275.19
501.34	275.70
501.71	276.34
502.07	276.95
502.43	277.54
502.79	278.19
503.16	278.83
503.52	279.53
503.88	280.27
504.24	280.97
504.60	281.79
504.97	282.60
505.33	283.29
505.69	284.22
506.05	285.10
506.41	286.16
506.78	287.19
507.14	288.17
507.50	289.22
507.86	290.42
508.22	291.60
508.59	292.64
508.95	294.08
509.31	295.50
509.67	296.89
510.03	298.35
510.39	299.73
510.75	301.22
511.12	302.85
511.48	304.40
511.84	306.14
512.20	307.89
512.56	309.81
512.92	311.88
513.28	313.90
513.64	316.02
514.00	318.03
514.37	320.18
514.73	322.41
515.09	324.96
515.45	327.31
515.81	329.79
516.17	332.52
516.53	335.17
516.89	337.70
517.25	340.54
517.61	343.56
517.97	346.63
518.33	349.75
518.69	352.92
519.05	356.37
519.41	359.66
519.77	363.16
520.13	366.63
520.49	370.08
520.85	373.86
521.21	377.70
521.57	381.60
521.93	385.52
522.29	389.65
522.65	393.68
523.01	398.00
523.37	402.39
523.73	406.71
524.09	411.17
524.45	415.85
524.81	420.52
525.17	425.31
525.53	430.31
525.89	435.28
526.25	440.29
526.61	445.27
526.97	450.59
527.33	455.87
527.68	461.55
528.04	467.10
528.40	472.57
528.76	478.35
529.12	484.35
529.48	490.19
529.84	496.01
530.20	502.14
530.56	508.30
530.91	514.86
531.27	521.34
531.63	527.74
531.99	534.12
532.35	540.55
532.71	546.90
533.07	553.42
533.42	560.10
533.78	566.89
534.14	573.77
534.50	580.51
534.86	587.61
535.21	594.29
535.57	601.57
535.93	608.74
536.29	616.03
536.65	623.11
537.00	630.35
537.36	637.62
537.72	644.89
538.08	652.07
538.44	658.97
538.79	666.20
539.15	673.37
539.51	680.75
539.87	688.52
540.22	696.01
540.58	703.55
540.94	710.97
541.29	718.41
541.65	725.77
542.01	733.35
542.37	740.80
542.72	748.10
543.08	755.02
543.44	762.39
543.79	769.49
544.15	777.09
544.51	784.70
544.87	792.39
545.22	799.64
545.58	807.07
545.94	814.12
546.29	821.34
546.65	828.62
547.01	835.84
547.36	842.57
547.72	849.72
548.07	856.68
548.43	863.57
548.79	870.35
549.14	877.20
549.50	883.75
549.86	890.25
550.21	897.13
550.57	904.20
550.92	910.84
551.28	916.93
551.64	923.15
551.99	929.52
552.35	935.66
552.70	942.14
553.06	948.32
553.41	954.83
553.77	960.87
554.13	966.73
554.48	972.84
554.84	979.05
555.19	984.98
555.55	990.71
555.90	996.48
556.26	1002.45
556.61	1008.19
556.97	1013.80
557.32	1019.56
557.68	1025.15
558.03	1030.65
558.39	1036.20
558.74	1042.13
559.10	1047.66
559.45	1052.96
559.81	1058.80
560.16	1063.82
560.52	1069.20
560.87	1074.50
561.23	1079.58
561.58	1085.06
561.94	1089.87
562.29	1094.31
562.64	1098.93
563.00	1103.81
563.35	1109.16
563.71	1114.21
564.06	1118.88
564.42	1123.82
564.77	1128.47
565.12	1133.19
565.48	1137.64
565.83	1141.70
566.19	1146.10
566.54	1149.82
566.89	1153.50
567.25	1157.07
567.60	1161.32
567.96	1165.10
568.31	1168.67
568.66	1172.08
569.02	1175.67
569.37	1178.93
569.72	1182.43
570.08	1185.70
570.43	1188.95
570.78	1191.25
571.14	1193.74
571.49	1196.47
571.84	1199.05
572.20	1201.35
572.55	1203.23
572.90	1205.32
573.26	1207.42
573.61	1209.34
573.96	1211.54
574.31	1213.25
574.67	1214.48
575.02	1215.42
575.37	1216.73
575.72	1217.26
576.08	1218.82
576.43	1219.70
576.78	1220.60
577.13	1221.79
577.49	1223.01
577.84	1223.67
578.19	1224.69
578.54	1225.04
578.90	1225.40
579.25	1225.51
579.60	1225.93
579.95	1226.03
580.30	1226.02
580.66	1225.99
581.01	1225.78
581.36	1225.92
581.71	1226.23
582.06	1226.45
582.42	1226.43
582.77	1225.83
583.12	1225.92
583.47	1225.61
583.82	1225.30
584.17	1224.56
584.53	1224.01
584.88	1223.28
585.23	1222.43
585.58	1222.00
585.93	1221.48
586.28	1221.00
586.63	1220.49
586.98	1219.65
587.34	1219.20
587.69	1218.50
588.04	1218.01
588.39	1216.98
588.74	1215.05
589.09	1213.62
589.44	1212.00
589.79	1210.67
590.14	1209.95
590.49	1208.76
590.84	1206.82
591.19	1205.33
591.54	1203.71
591.89	1201.28
592.25	1199.42
592.60	1197.34
592.95	1194.99
593.30	1192.80
593.65	1190.63
594.00	1188.51
594.35	1186.63
594.70	1183.83
595.05	1181.41
595.40	1178.56
595.75	1176.17
596.10	1174.47
596.45	1172.44
596.80	1170.44
597.15	1168.43
597.50	1165.72
597.85	1163.11
598.19	1161.30
598.54	1158.80
598.89	1157.10
599.24	1155.63
599.59	1153.27
599.94	1151.22
600.29	1148.76
600.64	1146.21
600.99	1143.21
601.34	1140.57
601.69	1137.67
602.04	1135.44
602.39	1132.66
602.74	1130.75
603.08	1128.51
603.43	1126.26
603.78	1123.36
604.13	1120.35
604.48	1117.30
604.83	1114.66
605.18	1112.30
605.53	1108.88
605.87	1105.57
606.22	1102.36
606.57	1099.00
606.92	1095.89
607.27	1093.34
607.62	1090.49
607.96	1087.80
608.31	1085.00
608.66	1081.51
609.01	1077.81
609.36	1074.23
609.70	1070.54
610.05	1066.50
610.40	1062.67
610.75	1058.41
611.10	1054.72
611.44	1050.78
611.79	1047.27
612.14	1043.42
612.49	1038.92
612.83	1035.31
613.18	1031.41
613.53	1027.58
613.88	1023.37
614.22	1019.38
614.57	1014.82
614.92	1010.76
615.27	1006.60
615.61	1002.68
615.96	998.90
616.31	995.50
616.65	992.27
617.00	988.99
617.35	985.39
617.70	981.26
618.04	977.22
618.39	973.31
618.74	969.86
619.08	965.47
619.43	961.67
619.78	958.18
620.12	953.96
620.47	950.03
620.82	946.05
621.16	942.33
621.51	938.50
621.85	934.76
622.20	930.73
622.55	926.79
622.89	923.19
623.24	919.36
623.59	915.44
623.93	911.61
624.28	907.51
624.62	903.67
624.97	900.27
625.32	896.78
625.66	893.39
626.01	889.30
626.35	885.70
626.70	881.63
627.04	878.05
627.39	874.42
627.73	870.70
628.08	866.87
628.43	863.07
628.77	859.12
629.12	855.00
629.46	851.15
629.81	847.10
630.15	842.68
630.50	838.80
630.84	834.37
631.19	830.20
631.53	826.34
631.88	821.94
632.22	817.62
632.57	813.57
632.91	809.26
633.26	805.40
633.60	801.21
633.95	797.30
634.29	793.39
634.64	789.67
634.98	785.64
635.32	781.92
635.67	778.44
636.01	775.02
636.36	771.20
636.70	767.41
637.05	763.82
637.39	760.27
637.73	756.77
638.08	753.72
638.42	750.01
638.77	746.56
639.11	743.18
639.45	739.51
639.80	735.98
640.14	732.48
640.49	728.99
640.83	725.43
641.17	722.05
641.52	718.40
641.86	714.79
642.20	711.63
642.55	708.07
642.89	704.43
643.23	700.67
643.58	697.59
643.92	694.03
644.26	690.52
644.61	687.44
644.95	683.76
645.29	680.02
645.64	676.37
645.98	672.80
646.32	669.32
646.66	665.88
647.01	662.51
647.35	659.32
647.69	655.99
648.04	653.01
648.38	649.45
648.72	645.62
649.06	641.82
649.41	638.11
649.75	634.40
650.09	630.74
650.43	627.11
650.78	623.39
651.12	619.96
651.46	616.57
651.80	612.96
652.14	609.72
652.49	606.40
652.83	603.01
653.17	599.53
653.51	596.00
653.85	592.91
654.20	589.27
654.54	585.60
654.88	582.07
655.22	578.49
655.56	575.01
655.90	571.85
656.25	568.90
656.59	565.88
656.93	562.92
657.27	559.79
657.61	556.54
657.95	553.51
658.29	550.42
658.64	547.42
658.98	544.20
659.32	540.92
659.66	537.84
660.00	534.89
660.34	532.03
660.68	529.25
661.02	526.20
661.36	523.38
661.70	520.63
662.05	518.00
662.39	515.12
662.73	512.60
663.07	510.13
663.41	507.49
663.75	504.68
664.09	501.98
664.43	499.34
664.77	497.00
665.11	494.46
665.45	491.83
665.79	489.17
666.13	486.68
666.47	484.10
666.81	481.54
667.15	479.00
667.49	476.49
667.83	474.19
668.17	471.73
668.51	469.25
668.85	466.62
669.19	464.38
669.53	462.13
669.87	459.64
670.21	457.28
670.55	455.05
670.89	453.08
671.23	450.93
671.57	448.68
671.91	446.58
672.25	444.38
672.58	442.44
672.92	440.45
673.26	438.58
673.60	436.73
673.94	434.77
674.28	432.92
674.62	431.05
674.96	429.06
675.30	427.26
675.64	425.46
675.97	423.78
676.31	421.89
676.65	420.15
676.99	418.46
677.33	416.60
677.67	414.80
678.01	412.86
678.34	411.08
678.68	409.35
679.02	407.47
679.36	405.73
679.70	403.88
680.04	402.12
680.37	400.14
680.71	398.46
681.05	396.90
681.39	395.27
681.73	393.67
682.06	391.93
682.40	390.44
682.74	389.00
683.08	387.56
683.42	385.88
683.75	384.29
684.09	382.71
684.43	381.27
684.77	379.62
685.10	378.05
685.44	376.49
685.78	374.90
686.12	373.43
686.45	371.91
686.79	370.42
687.13	369.00
687.46	367.71
687.80	366.31
688.14	364.70
688.48	363.22
688.81	361.72
689.15	360.46
689.49	358.88
689.82	357.36
690.16	355.87
690.50	354.55
690.83	353.14
691.17	351.74
691.51	350.33
691.84	349.10
692.18	347.78
692.52	346.42
692.85	345.22
693.19	343.90
693.52	342.71
693.86	341.54
694.20	340.32
694.53	339.06
694.87	337.72
695.21	336.55
695.54	335.43
695.88	334.20
696.21	332.84
696.55	331.71
696.88	330.65
697.22	329.50
697.56	328.46
697.89	327.35
698.23	326.24
698.56	325.03
698.90	323.77
699.23	322.70
699.57	321.76
699.90	320.63
700.24	319.62
700.58	318.57
700.91	317.55
701.25	316.60
701.58	315.69
701.92	314.64
702.25	313.63
702.59	312.57
702.92	311.61
703.26	310.84
703.59	309.88
703.93	309.07
704.26	308.10
704.60	307.05
704.93	306.07
705.26	305.04
705.60	304.31
705.93	303.61
706.27	302.75
706.60	301.78
706.94	301.06
707.27	300.13
707.61	299.43
707.94	298.59
708.27	297.60
708.61	296.64
708.94	296.06
709.28	295.34
709.61	294.68
709.94	294.07
710.28	293.26
710.61	292.54
710.95	291.62
711.28	290.98
711.61	290.16
711.95	289.59
712.28	288.97
712.61	288.21
712.95	287.55
713.28	287.07
713.61	286.47
713.95	285.71
714.28	285.06
714.61	284.29
714.95	283.75
715.28	283.19
715.61	282.60
715.95	281.86
716.28	281.25
716.61	280.64
716.95	279.99
717.28	279.30
717.61	278.84
717.94	278.26
718.28	277.70
718.61	277.24
718.94	276.61
719.27	276.16
719.61	275.70
719.94	275.23
720.27	274.77
720.60	274.20
720.94	273.78
721.27	273.47
721.60	273.06
721.93	272.59
722.27	272.21
722.60	271.82
722.93	271.48
723.26	271.13
723.59	270.70
723.93	270.26
724.26	269.94
724.59	269.38
724.92	269.16
725.25	268.81
725.59	268.42
725.92	268.11
726.25	267.63
726.58	267.24
726.91	266.79
727.24	266.39
727.57	266.16
727.91	265.73
728.24	265.36
728.57	265.05
728.90	264.65
729.23	264.19
729.56	263.93
729.89	263.48
730.22	262.90
730.55	262.49
730.89	262.04
731.22	261.71
731.55	261.43
731.88	260.91
732.21	260.43
732.54	260.13
732.87	259.66
733.20	259.40
733.53	259.04
733.86	258.70
734.19	258.21
734.52	257.86
734.85	257.63
735.18	257.30
735.51	256.93
735.84	256.59
736.17	256.30
736.50	255.86
736.83	255.78
737.16	255.57
737.49	255.26
737.82	254.93
738.15	254.50
738.48	254.14
738.81	253.89
739.14	253.58
739.47	253.19
739.80	253.00
740.13	252.74
740.46	252.39
740.79	252.01
741.12	251.75
741.45	251.31
741.78	251.13
742.11	250.78
742.44	250.36
742.77	250.18
743.10	249.95
743.43	249.69
743.75	249.17
744.08	249.15
744.41	248.89
744.74	248.77
745.07	248.70
745.40	248.48
745.73	248.22
746.06	248.06
746.39	247.90
746.71	247.61
747.04	247.31
747.37	247.18
747.70	247.09
748.03	246.92
748.36	246.81
748.68	246.46
749.01	246.23
749.34	246.19
749.67	245.92
750.00	245.77
750.33	245.63
750.65	245.59
750.98	245.20
751.31	244.98
751.64	244.70
751.97	244.61
752.29	244.50
752.62	244.33
752.95	244.14
753.28	243.95
753.60	243.82
753.93	243.59
754.26	243.39
754.59	243.17
754.91	242.97
755.24	242.79
755.57	242.60
755.90	242.48
756.22	242.27
756.55	242.10
756.88	241.93
757.20	241.67
757.53	241.44
757.86	241.26
758.19	241.23
758.51	241.06
758.84	240.79
759.17	240.74
759.49	240.63
759.82	240.59
760.15	240.58
760.47	240.52
760.80	240.51
761.13	240.42
761.45	240.32
761.78	240.21
762.11	240.13
762.43	239.95
762.76	239.89
763.08	239.82
763.41	239.62
763.74	239.49
764.06	239.50
764.39	239.32
764.71	239.20
765.04	239.02
765.37	239.01
765.69	238.95
766.02	238.72
766.34	238.50
766.67	238.34
767.00	238.13
767.32	238.10
767.65	238.10
767.97	238.03
768.30	238.08
768.62	237.87
768.95	237.69
769.27	237.69
769.60	237.60
769.92	237.40
770.25	237.40
770.57	237.16
770.90	236.96
771.22	236.90
771.55	236.90
771.87	236.84
772.20	236.74
772.52	236.85
772.85	237.01
773.17	237.01
773.50	236.88
773.82	236.74
774.15	236.54
774.47	236.34
774.80	236.16
775.12	235.90
775.45	235.87
775.77	235.94
776.09	235.86
776.42	235.73
776.74	235.74
777.07	235.75
777.39	235.82
777.72	235.80
778.04	235.74
778.36	235.61
778.69	235.45
779.01	235.41
779.33	235.09
779.66	234.79
779.98	234.65
780.31	234.60
780.63	234.59
780.95	234.44
781.28	234.31
781.60	234.22
781.92	234.19
782.25	234.12
782.57	233.93
782.89	233.80
783.22	233.66
783.54	233.50
783.86	233.31
784.19	233.16
784.51	233.08
784.83	232.96
785.16	232.81
785.48	232.87
785.80	232.66
786.12	232.62
786.45	232.53
786.77	232.45
787.09	232.41
787.42	232.34
787.74	232.30
788.06	232.19
788.38	232.15
788.71	232.04
789.03	231.98
789.35	232.04
789.67	232.10
789.99	232.10
790.32	232.08
790.64	232.02
790.96	232.20
791.28	232.12
791.61	232.12
791.93	232.10
792.25	232.01
792.57	232.19
792.89	232.13
793.21	232.08
793.54	232.06
793.86	231.99
794.18	231.81
794.50	231.80
794.82	231.84
795.14	231.82
795.47	231.82
795.79	231.84
796.11	231.71
796.43	231.55
796.75	231.57
797.07	231.61
797.39	231.62
797.71	231.45
798.04	231.42
798.36	231.27
798.68	231.28
799.00	231.29
799.32	231.15
799.64	231.10
799.96	231.09
800.28	231.20
800.60	231.17
800.92	231.30
801.24	231.20
801.56	231.16
801.89	231.12
802.21	231.22
802.53	231.09
802.85	231.20
803.17	231.27
803.49	231.11
803.81	231.06
804.13	230.93
804.45	230.83
804.77	230.80
805.09	230.90
805.41	230.88
805.73	230.80
806.05	230.73
806.37	230.75
806.69	230.76
807.01	230.62
807.33	230.61
807.65	230.53
807.97	230.76
808.28	230.76
808.60	230.77
808.92	230.59
809.24	230.77
809.56	230.63
809.88	230.58
810.20	230.69
810.52	230.63
810.84	230.77
811.16	230.77
811.48	230.82
811.80	230.90
812.12	230.77
812.43	230.85
812.75	230.84
813.07	230.79
813.39	230.70
813.71	230.73
814.03	230.68
814.35	230.64
814.67	230.44
814.98	230.45
815.30	230.43
815.62	230.44
815.94	230.33
816.26	230.37
816.58	230.30
816.89	230.22
817.21	230.17
817.53	230.10
817.85	230.09
818.17	230.00
818.48	229.84
818.80	229.98
819.12	229.85
819.44	229.80
819.76	229.73
820.07	229.78
820.39	229.66
820.71	229.62
821.03	229.60
821.34	229.59
821.66	229.67
821.98	229.69
822.30	229.69
822.61	229.76
822.93	229.72
823.25	229.82
823.57	229.80
823.88	229.89
824.20	229.79
824.52	229.66
824.83	229.62
825.15	229.53
825.47	229.50
825.79	229.50
826.10	229.44
826.42	229.42
826.74	229.41
827.05	229.55
827.37	229.64
827.69	229.60
828.00	229.58
828.32	229.48
828.64	229.44
828.95	229.50
829.27	229.42
829.58	229.41
829.90	229.30
830.22	229.30
830.53	229.20
830.85	229.21
831.17	229.29
831.48	229.31
831.80	229.31
832.11	229.22
832.43	229.15
832.75	229.17
833.06	229.30
833.38	229.28
833.69	229.19
834.01	229.19
834.32	229.15
834.64	229.10
834.96	229.06
835.27	229.04
835.59	229.02
835.90	229.03
836.22	228.96
836.53	229.01
836.85	229.02
837.16	229.29
837.48	229.31
837.79	229.41
838.11	229.38
838.42	229.47
838.74	229.56
839.05	229.61
839.37	229.64
839.68	229.49
840.00	229.41
840.31	229.38
840.63	229.29
840.94	229.34
841.26	229.25
841.57	229.22
841.88	229.27
842.20	229.21
842.51	229.11
842.83	229.16
843.14	229.31
843.46	229.34
843.77	229.19
844.08	229.18
844.40	229.13
844.71	229.21
845.03	229.22
845.34	229.25
845.65	229.28
845.97	229.26
846.28	229.38
846.60	229.46
846.91	229.51
847.22	229.56
847.54	229.64
847.85	229.75
848.16	229.77
848.48	229.66
848.79	229.62
849.10	229.68
849.42	229.64
849.73	229.37
850.04	229.35
850.36	229.28
850.67	229.30
850.98	229.37
851.30	229.37
851.61	229.35
851.92	229.34
852.23	229.36
852.55	229.47
852.86	229.38
853.17	229.34
853.49	229.39
853.80	229.37
854.11	229.31
854.42	229.40
854.74	229.33
855.05	229.26
855.36	229.27
855.67	229.23
855.99	229.33
856.30	229.61
856.61	229.51
856.92	229.56
857.23	229.56
857.55	229.39
857.86	229.27
858.17	229.30
858.48	229.21
858.79	229.14
859.11	229.07
859.42	229.08
859.73	229.08
860.04	228.99
860.35	229.00
860.66	229.00
860.98	228.88
861.29	228.92
861.60	229.00
861.91	228.97
862.22	228.94
862.53	228.78
862.84	228.62
863.16	228.72
863.47	228.60
863.78	228.58
864.09	228.57
864.40	228.70
864.71	228.65
865.02	228.68
865.33	228.68
865.64	228.60
865.95	228.56
866.27	228.60
866.58	228.60
866.89	228.55
867.20	228.51
867.51	228.45
867.82	228.42
868.13	228.60
868.44	228.53
868.75	228.58
869.06	228.50
869.37	228.46
869.68	228.33
869.99	228.37
870.30	228.25
870.61	228.30
870.92	228.20
871.23	228.18
871.54	228.19
871.85	228.20
872.16	228.12
872.47	228.10
872.78	228.03
873.09	228.11
873.40	228.10
873.71	228.11
874.02	228.20
874.33	228.21
874.64	227.99
874.95	228.19
875.26	228.14
875.56	228.27
875.87	228.31
876.18	228.40
876.49	228.60
876.80	228.67
877.11	228.61
877.42	228.59
877.73	228.61
878.04	228.71
878.35	228.70
878.66	228.88
878.96	228.79
879.27	228.84
879.58	228.78
879.89	228.74
880.20	228.78
880.51	228.81
880.82	228.78
881.12	228.79
881.43	228.70
881.74	228.63
882.05	228.68
882.36	228.62
882.67	228.59
882.97	228.32
883.28	228.30
883.59	228.37
883.90	228.39
884.21	228.34
884.51	228.16
884.82	228.17
885.13	228.07
885.44	228.23
885.74	228.15
886.05	228.12
886.36	228.10
886.67	228.00
886.98	228.02
887.28	228.13
887.59	228.20
887.90	228.25
888.20	228.29
888.51	228.29
888.82	228.30
889.13	228.40
889.43	228.64
889.74	228.72
890.05	228.75
890.35	228.71
890.66	228.74
890.97	228.74
891.28	228.71
891.58	228.77
891.89	228.65
892.20	228.65
892.50	228.61
892.81	228.65
893.12	228.73
893.42	228.66
893.73	228.58
894.04	228.59
894.34	228.50
894.65	228.58
894.95	228.48
895.26	228.45
895.57	228.42
895.87	228.30
896.18	228.28
896.48	228.25
896.79	228.38
897.10	228.40
897.40	228.50
897.71	228.49
898.01	228.37
898.32	228.47
898.63	228.45
898.93	228.51
899.24	228.55
899.54	228.40
899.85	228.41
900.15	228.34
900.46	228.25
900.76	228.23
901.07	228.14
901.38	228.18
901.68	228.16
901.99	228.12
902.29	227.94
902.60	227.88
902.90	227.87
903.21	227.77
903.51	227.76
903.82	227.83
904.12	227.84
904.43	227.85
904.73	227.76
905.03	227.80
905.34	228.02
905.64	227.99
905.95	227.98
906.25	228.03
906.56	227.96
906.86	228.00
907.17	228.02
907.47	228.02
907.77	227.95
908.08	227.96
908.38	227.90
908.69	228.00
908.99	228.02
909.30	227.95
909.60	227.87
909.90	227.85
910.21	227.67
910.51	227.64
910.81	227.70
911.12	227.78
911.42	227.78
911.73	227.51
912.03	227.53
912.33	227.68
912.64	227.61
912.94	227.64
913.24	227.52
913.55	227.42
913.85	227.43
914.15	227.48
914.46	227.50
914.76	227.56
915.06	227.63
915.37	227.60
915.67	227.56
915.97	227.63
916.27	227.54
916.58	227.63
916.88	227.69
917.18	227.67
917.49	227.76
917.79	227.71
918.09	227.88
918.39	227.95
918.70	227.94
919.00	227.93
919.30	228.00
919.60	228.02
919.91	228.08
920.21	228.11
920.51	228.07
920.81	228.06
921.12	228.10
921.42	228.00
921.72	228.00
922.02	228.07
922.32	228.02
922.63	228.06
922.93	228.11
923.23	228.09
923.53	228.06
923.83	228.01
924.13	228.09
924.44	227.91
924.74	227.99
925.04	227.97
925.34	227.92
925.64	228.00
925.94	228.08
926.24	228.22
926.55	228.24
926.85	228.27
927.15	228.23
927.45	228.21
927.75	228.36
928.05	228.36
928.35	228.42
928.65	228.61
928.95	228.67
929.26	228.62
929.56	228.69
929.86	228.70
930.16	228.70
930.46	228.67
930.76	228.73
931.06	228.60
931.36	228.63
931.66	228.75
931.96	228.76
932.26	228.88
932.56	228.83
932.86	228.80
933.16	228.85
933.46	228.96
933.76	228.97
934.06	228.86
934.36	228.90
934.66	228.93
934.96	228.87
935.26	228.87
935.56	228.95
935.86	228.92
936.16	228.91
936.46	228.86
936.76	228.87
937.06	228.87
937.36	228.88
937.66	228.86
937.96	228.87
938.26	228.77
938.56	228.66
938.86	228.63
939.16	228.68
939.46	228.75
939.76	228.70
940.06	228.64
940.35	228.67
940.65	228.68
940.95	228.60
941.25	228.50
941.55	228.44
941.85	228.36
942.15	228.40
942.45	228.43
942.75	228.43
943.04	228.45
943.34	228.42
943.64	228.30
943.94	228.33
944.24	228.20
944.54	228.22
944.84	228.23
945.13	228.19
945.43	228.23
945.73	228.07
946.03	227.98
946.33	227.91
946.62	227.82
946.92	227.71
947.22	227.66
947.52	227.71
947.82	227.74
948.11	227.72
948.41	227.58
948.71	227.57
949.01	227.61
949.31	227.58
949.60	227.69
949.90	227.81
950.20	227.74
950.50	227.81
950.79	227.77
951.09	227.69
951.39	227.64
951.69	227.43
951.98	227.54
952.28	227.57
952.58	227.64
952.87	227.66
953.17	227.76
953.47	227.80
953.76	227.80
954.06	227.71
954.36	227.61
954.66	227.64
954.95	227.73
955.25	227.62
955.55	227.63
955.84	227.51
956.14	227.50
956.44	227.51
956.73	227.45
957.03	227.50
957.32	227.57
957.62	227.57
957.92	227.70
958.21	227.64
958.51	227.83
958.81	227.84
959.10	227.82
959.40	227.87
959.69	227.88
959.99	227.84
960.29	227.88
960.58	227.96
960.88	228.09
961.17	228.03
961.47	228.16
961.76	228.15
962.06	228.13
962.36	228.15
962.65	228.20
962.95	228.20
963.24	228.12
963.54	228.19
963.83	228.26
964.13	228.24
964.42	228.16
964.72	228.12
965.01	228.10
965.31	228.10
965.60	228.01
965.90	228.14
966.19	228.17
966.49	228.22
966.78	228.20
967.08	228.11
967.37	228.17
967.67	228.11
967.96	228.11
968.26	228.15
968.55	228.13
968.85	228.05
969.14	228.08
969.43	228.23
969.73	228.19
970.02	228.18
970.32	228.30
970.61	228.33
970.91	228.25
971.20	228.26
971.49	228.29
971.79	228.40
972.08	228.26
972.38	228.29
972.67	228.34
972.96	228.44
973.26	228.44
973.55	228.47
973.85	228.38
974.14	228.39
974.43	228.38
974.73	228.29
975.02	228.34
975.31	228.32
975.61	228.26
975.90	228.16
976.19	228.18
976.49	228.14
976.78	228.22
977.07	228.20
977.37	228.24
977.66	228.20
977.95	228.11
978.24	228.21
978.54	228.24
978.83	228.15
979.12	228.15
979.42	228.19
979.71	228.08
980.00	228.09
980.29	227.97
980.59	227.97
980.88	228.05
981.17	228.02
981.46	228.08
981.76	228.05
982.05	228.19
982.34	228.16
982.63	228.07
982.93	228.08
983.22	228.09
983.51	228.09
983.80	228.13
984.09	228.22
984.39	228.05
984.68	227.98
984.97	227.96
985.26	227.83
985.55	227.78
985.85	227.70
986.14	227.84
986.43	227.88
986.72	227.80
987.01	227.72
987.30	227.70
987.59	227.64
987.89	227.63
988.18	227.56
988.47	227.49
988.76	227.53
989.05	227.49
989.34	227.53
989.63	227.57
989.92	227.57
990.22	227.40
990.51	227.47
990.80	227.49
991.09	227.39
991.38	227.40
991.67	227.36
991.96	227.38
992.25	227.22
992.54	227.35
992.83	227.41
993.12	227.37
993.41	227.41
993.70	227.55
993.99	227.54
994.28	227.50
994.58	227.54
994.87	227.48
995.16	227.46
995.45	227.36
995.74	227.19
996.03	227.23
996.32	227.28
996.61	227.34
996.90	227.42
997.19	227.55
997.48	227.62
997.77	227.60
998.06	227.72
998.34	227.89
998.63	227.86
998.92	227.92
999.21	227.97
999.50	228.04
999.79	227.90
1000.08	227.95
1000.37	228.05
1000.66	227.99
1000.95	227.98
1001.24	228.05
1001.53	228.10
1001.82	228.12
1002.11	228.00
1002.40	228.11
1002.68	228.18
1002.97	228.23
1003.26	228.21
1003.55	228.27
1003.84	228.41
1004.13	228.44
1004.42	228.36
1004.71	228.37
1004.99	228.42
1005.28	228.68
1005.57	228.64
1005.86	228.61
1006.15	228.60
1006.44	228.59
1006.72	228.64
1007.01	228.78
1007.30	228.72
1007.59	228.81
1007.88	228.89
1008.17	228.95
1008.45	228.97
1008.74	228.87
1009.03	228.77
1009.32	228.81
1009.60	228.76
1009.89	228.73
1010.18	228.71
1010.47	228.67
1010.76	228.55
1011.04	228.57
1011.33	228.43
1011.62	228.45
1011.91	228.58
1012.19	228.57
1012.48	228.59
1012.77	228.58
1013.05	228.68
1013.34	228.73
1013.63	228.70
1013.92	228.83
1014.20	228.89
1014.49	228.74
1014.78	228.78
1015.06	228.79
1015.35	228.68
1015.64	228.74
1015.92	228.76
1016.21	228.63
1016.50	228.74
1016.78	228.77
1017.07	228.71
1017.36	228.74
1017.64	228.64
1017.93	228.67
1018.22	228.67
1018.50	228.64
1018.79	228.68
1019.08	228.57
1019.36	228.62
1019.65	228.51
1019.93	228.33
1020.22	228.40
1020.51	228.63
1020.79	228.59
1021.08	227.70
1021.36	227.90
1021.65	228.60
1021.94	229.50
1022.22	229.70
1022.51	227.40
1022.79	227.10
1023.08	229.90
1023.36	231.10
1023.65	228.10
>>>>>End Processed Spectral Data<<<<<
