SpectraSuite Data File
++++++++++++++++++++++++++++++++++++
Date: Fri Feb 01 14:35:25 EST 2013
User: group
Dark Spectrum Present: No
Reference Spectrum Present: No
Number of Sampled Component Spectra: 1
Spectrometers: USB2E7196
Integration Time (usec): 70000 (USB2E7196)
Spectra Averaged: 10 (USB2E7196)
Boxcar Smoothing: 10 (USB2E7196)
Correct for Electrical Dark: No (USB2E7196)
Strobe/Lamp Enabled: No (USB2E7196)
Correct for Detector Non-linearity: No (USB2E7196)
Correct for Stray Light: No (USB2E7196)
Number of Pixels in Processed Spectrum: 2048
>>>>>Begin Processed Spectral Data<<<<<
339.09	0.00
339.48	216.60
339.86	218.50
340.24	218.40
340.63	221.70
341.01	225.20
341.39	222.90
341.78	226.10
342.16	228.50
342.54	225.70
342.93	215.12
343.31	225.95
343.69	226.51
344.07	226.90
344.46	227.41
344.84	227.74
345.22	227.84
345.60	228.14
345.99	228.29
346.37	228.24
346.75	228.36
347.13	228.40
347.52	228.38
347.90	228.52
348.28	228.52
348.66	228.50
349.05	228.41
349.43	228.53
349.81	228.61
350.19	228.72
350.57	228.82
350.96	228.75
351.34	228.92
351.72	228.96
352.10	229.05
352.48	229.10
352.87	229.20
353.25	229.32
353.63	229.25
354.01	229.26
354.39	229.44
354.77	229.47
355.15	229.50
355.54	229.68
355.92	229.65
356.30	229.80
356.68	230.07
357.06	230.16
357.44	230.15
357.82	230.19
358.20	230.16
358.58	230.17
358.97	230.31
359.35	230.31
359.73	230.49
360.11	230.58
360.49	230.63
360.87	230.57
361.25	230.64
361.63	230.77
362.01	230.70
362.39	230.66
362.77	230.74
363.15	230.80
363.53	230.72
363.91	230.65
364.29	230.57
364.67	230.33
365.05	230.40
365.43	230.45
365.81	230.44
366.19	230.52
366.57	230.66
366.95	230.58
367.33	230.50
367.71	230.35
368.09	230.31
368.47	230.24
368.85	230.25
369.23	230.26
369.61	230.17
369.99	230.33
370.37	230.37
370.75	230.40
371.13	230.29
371.51	230.21
371.89	230.22
372.27	230.16
372.65	230.09
373.03	230.01
373.41	229.90
373.78	229.72
374.16	229.49
374.54	229.19
374.92	229.13
375.30	229.06
375.68	229.02
376.06	228.91
376.44	228.85
376.82	228.75
377.19	228.73
377.57	228.75
377.95	228.62
378.33	228.40
378.71	228.30
379.09	228.35
379.47	228.34
379.84	228.30
380.22	228.25
380.60	228.18
380.98	228.04
381.36	228.00
381.73	227.99
382.11	227.93
382.49	227.87
382.87	227.73
383.25	227.61
383.62	227.73
384.00	227.73
384.38	227.72
384.76	227.77
385.13	227.70
385.51	227.51
385.89	227.40
386.27	227.41
386.64	227.27
387.02	227.10
387.40	226.99
387.78	226.97
388.15	227.00
388.53	226.89
388.91	226.95
389.29	226.77
389.66	226.70
390.04	226.69
390.42	226.81
390.79	226.73
391.17	226.85
391.55	226.59
391.92	226.53
392.30	226.38
392.68	226.31
393.05	226.30
393.43	226.29
393.81	226.33
394.18	226.40
394.56	226.49
394.94	226.72
395.31	226.81
395.69	226.89
396.06	226.96
396.44	227.12
396.82	227.18
397.19	227.43
397.57	227.56
397.95	227.74
398.32	227.70
398.70	227.80
399.07	227.93
399.45	228.14
399.82	228.28
400.20	228.46
400.58	228.59
400.95	228.55
401.33	228.84
401.70	229.08
402.08	229.15
402.45	229.29
402.83	229.33
403.20	229.47
403.58	229.60
403.95	229.80
404.33	230.05
404.71	230.19
405.08	230.61
405.46	230.88
405.83	231.20
406.21	231.63
406.58	232.04
406.96	232.29
407.33	232.51
407.70	232.96
408.08	233.54
408.45	233.93
408.83	234.52
409.20	234.95
409.58	235.40
409.95	235.91
410.33	236.54
410.70	237.16
411.08	237.95
411.45	238.77
411.82	239.45
412.20	240.27
412.57	241.18
412.95	241.80
413.32	242.72
413.69	243.68
414.07	244.65
414.44	245.90
414.82	247.17
415.19	248.56
415.56	249.93
415.94	251.35
416.31	253.10
416.68	254.74
417.06	256.60
417.43	258.39
417.81	260.48
418.18	262.57
418.55	264.79
418.93	267.14
419.30	269.47
419.67	272.11
420.04	274.84
420.42	277.58
420.79	280.66
421.16	283.78
421.54	287.02
421.91	290.44
422.28	293.96
422.66	297.64
423.03	301.27
423.40	305.08
423.77	309.04
424.15	312.98
424.52	317.23
424.89	321.80
425.26	326.35
425.64	330.64
426.01	335.17
426.38	339.84
426.75	344.65
427.13	349.59
427.50	354.76
427.87	360.18
428.24	365.68
428.61	371.09
428.99	376.94
429.36	383.28
429.73	389.40
430.10	395.32
430.47	401.59
430.85	408.12
431.22	414.96
431.59	422.26
431.96	429.00
432.33	436.54
432.70	443.70
433.08	452.20
433.45	460.32
433.82	468.41
434.19	477.60
434.56	486.43
434.93	494.94
435.30	503.51
435.68	512.82
436.05	522.07
436.42	531.10
436.79	539.32
437.16	548.18
437.53	557.51
437.90	566.97
438.27	576.12
438.64	585.48
439.01	594.18
439.38	601.93
439.75	609.53
440.13	618.11
440.50	626.54
440.87	633.60
441.24	640.60
441.61	648.72
441.98	654.47
442.35	661.33
442.72	668.32
443.09	675.05
443.46	679.47
443.83	682.40
444.20	685.07
444.57	689.04
444.94	691.44
445.31	693.85
445.68	696.06
446.05	697.52
446.42	697.80
446.79	697.70
447.16	697.67
447.53	698.12
447.90	695.87
448.27	693.75
448.64	689.60
449.01	687.32
449.37	682.11
449.74	677.30
450.11	671.18
450.48	664.20
450.85	657.24
451.22	651.34
451.59	646.00
451.96	640.91
452.33	633.34
452.70	626.48
453.07	618.14
453.43	609.77
453.80	601.65
454.17	593.79
454.54	586.33
454.91	577.96
455.28	569.86
455.65	562.44
456.02	554.49
456.38	548.18
456.75	540.04
457.12	533.15
457.49	526.27
457.86	519.62
458.23	514.06
458.59	507.56
458.96	501.08
459.33	495.22
459.70	489.49
460.07	485.02
460.43	479.75
460.80	474.58
461.17	470.10
461.54	465.46
461.91	460.98
462.27	456.61
462.64	452.89
463.01	448.61
463.38	444.52
463.74	440.57
464.11	437.02
464.48	433.70
464.85	430.06
465.21	427.40
465.58	424.47
465.95	421.17
466.32	418.44
466.68	415.61
467.05	412.91
467.42	410.08
467.78	407.03
468.15	404.09
468.52	402.13
468.88	399.38
469.25	396.82
469.62	394.71
469.98	392.30
470.35	390.20
470.72	388.35
471.08	386.25
471.45	384.47
471.82	382.46
472.18	380.52
472.55	378.97
472.92	377.33
473.28	375.85
473.65	374.30
474.02	372.69
474.38	371.30
474.75	370.10
475.11	368.76
475.48	367.80
475.85	366.98
476.21	366.12
476.58	365.32
476.94	364.75
477.31	363.94
477.67	363.27
478.04	362.67
478.41	362.21
478.77	361.95
479.14	361.28
479.50	361.09
479.87	360.85
480.23	360.90
480.60	360.52
480.96	360.30
481.33	360.27
481.69	360.43
482.06	360.47
482.42	360.38
482.79	360.47
483.15	360.72
483.52	361.04
483.88	361.20
484.25	361.70
484.61	362.04
484.98	362.49
485.34	363.34
485.71	364.19
486.07	365.01
486.44	365.56
486.80	366.56
487.17	367.40
487.53	368.47
487.90	369.53
488.26	370.76
488.62	372.05
488.99	373.32
489.35	374.56
489.72	375.93
490.08	377.60
490.44	379.22
490.81	380.92
491.17	382.56
491.54	384.48
491.90	386.13
492.26	388.05
492.63	390.12
492.99	391.78
493.36	393.79
493.72	395.80
494.08	398.11
494.45	400.34
494.81	402.69
495.17	405.12
495.54	407.49
495.90	409.95
496.26	412.32
496.63	415.10
496.99	417.71
497.35	420.48
497.72	423.16
498.08	425.81
498.44	428.54
498.80	431.53
499.17	434.35
499.53	437.20
499.89	440.05
500.26	442.92
500.62	445.93
500.98	448.77
501.34	451.68
501.71	454.50
502.07	457.40
502.43	460.24
502.79	462.92
503.16	465.79
503.52	468.68
503.88	471.47
504.24	474.00
504.60	476.86
504.97	479.64
505.33	482.26
505.69	485.30
506.05	487.92
506.41	490.39
506.78	492.83
507.14	495.31
507.50	497.86
507.86	500.32
508.22	502.78
508.59	505.06
508.95	507.45
509.31	509.74
509.67	512.04
510.03	514.20
510.39	516.42
510.75	518.73
511.12	520.57
511.48	522.80
511.84	524.75
512.20	526.68
512.56	528.30
512.92	530.19
513.28	531.66
513.64	533.35
514.00	534.90
514.37	536.58
514.73	538.13
515.09	539.55
515.45	540.80
515.81	542.16
516.17	543.63
516.53	544.94
516.89	546.25
517.25	547.32
517.61	548.63
517.97	549.74
518.33	550.57
518.69	551.71
519.05	552.54
519.41	553.60
519.77	554.70
520.13	555.73
520.49	556.64
520.85	557.63
521.21	558.58
521.57	559.74
521.93	560.59
522.29	561.63
522.65	562.48
523.01	563.35
523.37	564.11
523.73	564.92
524.09	565.64
524.45	566.62
524.81	567.76
525.17	568.70
525.53	569.91
525.89	570.99
526.25	572.09
526.61	572.95
526.97	574.25
527.33	575.00
527.68	576.57
528.04	577.71
528.40	578.78
528.76	580.12
529.12	581.36
529.48	582.93
529.84	584.12
530.20	585.63
530.56	587.51
530.91	589.50
531.27	591.20
531.63	593.09
531.99	594.69
532.35	596.27
532.71	598.01
533.07	599.60
533.42	601.78
533.78	604.01
534.14	606.14
534.50	607.85
534.86	610.25
535.21	612.02
535.57	614.53
535.93	616.91
536.29	619.22
536.65	621.47
537.00	623.55
537.36	626.14
537.72	628.49
538.08	630.75
538.44	632.89
538.79	635.43
539.15	637.75
539.51	640.37
539.87	643.20
540.22	646.05
540.58	649.10
540.94	651.68
541.29	654.21
541.65	657.09
542.01	660.25
542.37	663.22
542.72	666.09
543.08	668.93
543.44	671.98
543.79	674.51
544.15	677.61
544.51	680.92
544.87	684.20
545.22	687.75
545.58	690.88
545.94	694.10
546.29	697.28
546.65	700.67
547.01	703.87
547.36	707.04
547.72	710.26
548.07	713.20
548.43	716.28
548.79	719.58
549.14	722.90
549.50	725.92
549.86	728.96
550.21	732.38
550.57	735.49
550.92	738.68
551.28	742.27
551.64	745.47
551.99	748.52
552.35	751.62
552.70	754.59
553.06	758.18
553.41	761.49
553.77	764.76
554.13	768.05
554.48	771.40
554.84	774.95
555.19	778.05
555.55	781.59
555.90	785.13
556.26	788.43
556.61	791.74
556.97	795.00
557.32	798.35
557.68	801.69
558.03	804.85
558.39	808.13
558.74	811.58
559.10	814.67
559.45	818.07
559.81	821.45
560.16	824.71
560.52	827.58
560.87	831.06
561.23	834.20
561.58	837.69
561.94	840.84
562.29	843.42
562.64	846.51
563.00	849.36
563.35	852.54
563.71	855.79
564.06	858.99
564.42	861.98
564.77	864.91
565.12	867.88
565.48	871.12
565.83	873.95
566.19	876.50
566.54	879.42
566.89	882.21
567.25	884.72
567.60	887.67
567.96	890.51
568.31	892.84
568.66	895.35
569.02	897.25
569.37	899.36
569.72	901.90
570.08	904.22
570.43	906.55
570.78	908.38
571.14	909.98
571.49	911.63
571.84	913.95
572.20	915.65
572.55	917.20
572.90	918.65
573.26	920.10
573.61	922.00
573.96	923.37
574.31	924.54
574.67	925.51
575.02	925.99
575.37	926.70
575.72	927.49
576.08	928.40
576.43	929.41
576.78	930.42
577.13	931.31
577.49	932.06
577.84	932.47
578.19	933.07
578.54	933.84
578.90	934.38
579.25	934.21
579.60	934.39
579.95	934.65
580.30	934.80
580.66	935.12
581.01	934.76
581.36	934.82
581.71	934.80
582.06	935.08
582.42	935.13
582.77	935.13
583.12	935.00
583.47	934.75
583.82	934.46
584.17	934.11
584.53	933.65
584.88	933.26
585.23	932.96
585.58	932.51
585.93	932.16
586.28	931.95
586.63	931.62
586.98	931.07
587.34	930.65
587.69	930.20
588.04	929.66
588.39	929.28
588.74	928.20
589.09	927.37
589.44	926.15
589.79	925.62
590.14	924.89
590.49	923.89
590.84	922.70
591.19	921.89
591.54	920.40
591.89	919.10
592.25	917.89
592.60	916.41
592.95	914.65
593.30	912.98
593.65	911.09
594.00	909.50
594.35	908.79
594.70	906.90
595.05	905.02
595.40	902.91
595.75	900.77
596.10	899.19
596.45	897.68
596.80	896.41
597.15	894.80
597.50	892.91
597.85	891.25
598.19	889.72
598.54	887.89
598.89	886.49
599.24	884.96
599.59	883.15
599.94	881.35
600.29	879.77
600.64	877.69
600.99	875.82
601.34	873.96
601.69	871.31
602.04	869.31
602.39	867.14
602.74	865.56
603.08	863.87
603.43	862.55
603.78	860.39
604.13	858.26
604.48	855.76
604.83	853.80
605.18	851.77
605.53	849.25
605.87	846.71
606.22	844.50
606.57	842.12
606.92	839.65
607.27	837.64
607.62	835.69
607.96	833.83
608.31	831.68
608.66	829.46
609.01	827.04
609.36	824.37
609.70	821.72
610.05	818.86
610.40	816.28
610.75	813.19
611.10	810.39
611.44	807.41
611.79	804.92
612.14	801.99
612.49	798.81
612.83	796.10
613.18	793.24
613.53	790.30
613.88	787.32
614.22	784.40
614.57	781.16
614.92	777.85
615.27	774.87
615.61	771.83
615.96	768.60
616.31	765.93
616.65	763.73
617.00	761.29
617.35	758.64
617.70	755.70
618.04	752.65
618.39	749.63
618.74	747.12
619.08	743.98
619.43	741.33
619.78	739.00
620.12	736.29
620.47	733.56
620.82	730.50
621.16	727.70
621.51	725.18
621.85	722.58
622.20	720.00
622.55	717.05
622.89	714.54
623.24	712.04
623.59	709.18
623.93	706.30
624.28	703.60
624.62	701.03
624.97	698.44
625.32	696.10
625.66	693.72
626.01	690.89
626.35	688.50
626.70	685.68
627.04	683.00
627.39	680.38
627.73	677.63
628.08	675.20
628.43	672.45
628.77	669.89
629.12	667.08
629.46	664.38
629.81	661.43
630.15	658.21
630.50	655.46
630.84	652.52
631.19	649.63
631.53	646.90
631.88	643.63
632.22	640.65
632.57	637.78
632.91	634.94
633.26	632.17
633.60	629.15
633.95	626.50
634.29	623.75
634.64	621.12
634.98	618.54
635.32	616.11
635.67	613.95
636.01	611.20
636.36	608.58
636.70	605.94
637.05	603.70
637.39	601.35
637.73	598.85
638.08	596.85
638.42	594.32
638.77	591.96
639.11	589.84
639.45	587.46
639.80	584.87
640.14	582.60
640.49	580.18
640.83	577.80
641.17	575.46
641.52	572.95
641.86	570.52
642.20	568.26
642.55	565.67
642.89	563.10
643.23	560.52
643.58	558.42
643.92	555.95
644.26	553.62
644.61	551.40
644.95	548.98
645.29	546.16
645.64	543.77
645.98	541.24
646.32	538.90
646.66	536.43
647.01	534.01
647.35	531.60
647.69	529.31
648.04	527.28
648.38	524.80
648.72	522.12
649.06	519.66
649.41	517.17
649.75	514.57
650.09	511.88
650.43	509.51
650.78	507.00
651.12	504.59
651.46	502.19
651.80	499.77
652.14	497.47
652.49	495.37
652.83	493.13
653.17	490.64
653.51	488.30
653.85	486.05
654.20	483.80
654.54	481.23
654.88	478.70
655.22	476.07
655.56	473.70
655.90	471.64
656.25	469.35
656.59	467.30
656.93	465.49
657.27	463.48
657.61	461.25
657.95	459.15
658.29	457.15
658.64	455.05
658.98	452.86
659.32	450.72
659.66	448.36
660.00	446.24
660.34	444.36
660.68	442.22
661.02	440.16
661.36	438.33
661.70	436.68
662.05	434.93
662.39	433.28
662.73	431.48
663.07	429.80
663.41	428.15
663.75	426.18
664.09	424.20
664.43	422.42
664.77	420.81
665.11	419.18
665.45	417.42
665.79	415.76
666.13	414.09
666.47	412.39
666.81	410.86
667.15	409.17
667.49	407.58
667.83	406.07
668.17	404.44
668.51	402.88
668.85	401.18
669.19	399.71
669.53	398.06
669.87	396.37
670.21	394.89
670.55	393.27
670.89	391.97
671.23	390.61
671.57	389.21
671.91	387.79
672.25	386.27
672.58	384.87
672.92	383.34
673.26	382.10
673.60	380.86
673.94	379.61
674.28	378.29
674.62	376.95
674.96	375.66
675.30	374.50
675.64	373.18
675.97	371.93
676.31	370.59
676.65	369.41
676.99	368.47
677.33	367.09
677.67	365.79
678.01	364.37
678.34	363.03
678.68	361.74
679.02	360.52
679.36	359.30
679.70	358.07
680.04	356.90
680.37	355.52
680.71	354.29
681.05	353.20
681.39	352.12
681.73	351.04
682.06	349.93
682.40	348.82
682.74	347.73
683.08	346.70
683.42	345.59
683.75	344.50
684.09	343.22
684.43	342.19
684.77	341.16
685.10	340.17
685.44	339.03
685.78	338.01
686.12	336.95
686.45	335.85
686.79	334.71
687.13	333.71
687.46	332.70
687.80	331.60
688.14	330.49
688.48	329.45
688.81	328.36
689.15	327.25
689.49	326.27
689.82	325.20
690.16	324.04
690.50	323.08
690.83	322.04
691.17	321.02
691.51	320.03
691.84	319.15
692.18	318.12
692.52	317.08
692.85	316.10
693.19	315.13
693.52	314.21
693.86	313.30
694.20	312.31
694.53	311.45
694.87	310.53
695.21	309.55
695.54	308.65
695.88	307.72
696.21	306.78
696.55	305.87
696.88	305.05
697.22	304.29
697.56	303.41
697.89	302.55
698.23	301.71
698.56	300.85
698.90	300.13
699.23	299.26
699.57	298.63
699.90	297.79
700.24	296.85
700.58	296.13
700.91	295.41
701.25	294.83
701.58	294.22
701.92	293.54
702.25	292.82
702.59	292.12
702.92	291.44
703.26	290.95
703.59	290.28
703.93	289.82
704.26	289.20
704.60	288.60
704.93	288.01
705.26	287.37
705.60	286.81
705.93	286.13
706.27	285.72
706.60	285.25
706.94	284.80
707.27	284.30
707.61	283.77
707.94	283.30
708.27	282.64
708.61	282.01
708.94	281.45
709.28	280.99
709.61	280.46
709.94	280.03
710.28	279.44
710.61	278.98
710.95	278.20
711.28	277.76
711.61	277.22
711.95	276.68
712.28	276.22
712.61	275.64
712.95	275.11
713.28	274.67
713.61	274.02
713.95	273.30
714.28	273.01
714.61	272.49
714.95	271.90
715.28	271.38
715.61	270.99
715.95	270.59
716.28	270.15
716.61	269.65
716.95	269.16
717.28	268.74
717.61	268.18
717.94	267.81
718.28	267.26
718.61	266.87
718.94	266.36
719.27	266.00
719.61	265.64
719.94	265.26
720.27	264.74
720.60	264.44
720.94	264.28
721.27	263.84
721.60	263.59
721.93	263.30
722.27	263.05
722.60	262.67
722.93	262.25
723.26	261.94
723.59	261.61
723.93	261.25
724.26	260.89
724.59	260.57
724.92	260.21
725.25	260.00
725.59	259.71
725.92	259.39
726.25	259.00
726.58	258.69
726.91	258.48
727.24	258.24
727.57	257.88
727.91	257.45
728.24	257.12
728.57	256.70
728.90	256.46
729.23	256.09
729.56	255.79
729.89	255.49
730.22	255.13
730.55	254.90
730.89	254.68
731.22	254.42
731.55	254.18
731.88	253.93
732.21	253.63
732.54	253.27
732.87	253.05
733.20	252.84
733.53	252.61
733.86	252.32
734.19	251.96
734.52	251.76
734.85	251.67
735.18	251.48
735.51	251.24
735.84	250.91
736.17	250.66
736.50	250.33
736.83	250.37
737.16	250.05
737.49	249.76
737.82	249.50
738.15	249.35
738.48	249.07
738.81	248.97
739.14	248.72
739.47	248.57
739.80	248.46
740.13	248.27
740.46	247.99
740.79	247.61
741.12	247.37
741.45	247.08
741.78	246.80
742.11	246.57
742.44	246.32
742.77	246.24
743.10	246.09
743.43	245.87
743.75	245.49
744.08	245.67
744.41	245.63
744.74	245.42
745.07	245.03
745.40	244.91
745.73	244.61
746.06	244.43
746.39	244.24
746.71	244.01
747.04	243.77
747.37	243.61
747.70	243.58
748.03	243.44
748.36	243.41
748.68	243.15
749.01	242.98
749.34	242.88
749.67	242.64
750.00	242.55
750.33	242.63
750.65	242.50
750.98	242.07
751.31	241.79
751.64	241.74
751.97	241.71
752.29	241.60
752.62	241.47
752.95	241.28
753.28	241.14
753.60	240.98
753.93	240.90
754.26	240.90
754.59	240.71
754.91	240.62
755.24	240.52
755.57	240.36
755.90	240.23
756.22	240.05
756.55	239.89
756.88	239.66
757.20	239.31
757.53	239.08
757.86	238.90
758.19	238.76
758.51	238.55
758.84	238.38
759.17	238.29
759.49	238.13
759.82	238.13
760.15	238.01
760.47	237.88
760.80	237.75
761.13	237.60
761.45	237.47
761.78	237.31
762.11	237.15
762.43	237.11
762.76	237.01
763.08	237.01
763.41	236.84
763.74	236.81
764.06	236.70
764.39	236.60
764.71	236.44
765.04	236.33
765.37	236.23
765.69	236.12
766.02	236.01
766.34	235.92
766.67	235.74
767.00	235.63
767.32	235.76
767.65	235.74
767.97	235.61
768.30	235.57
768.62	235.48
768.95	235.34
769.27	235.22
769.60	235.11
769.92	234.87
770.25	234.79
770.57	234.61
770.90	234.61
771.22	234.61
771.55	234.65
771.87	234.62
772.20	234.55
772.52	234.59
772.85	234.70
773.17	234.70
773.50	234.61
773.82	234.61
774.15	234.35
774.47	234.18
774.80	234.10
775.12	234.07
775.45	234.04
775.77	233.98
776.09	234.00
776.42	233.94
776.74	234.05
777.07	234.11
777.39	234.09
777.72	233.98
778.04	233.86
778.36	233.73
778.69	233.58
779.01	233.55
779.33	233.44
779.66	233.19
779.98	233.09
780.31	232.99
780.63	232.94
780.95	232.93
781.28	232.88
781.60	232.81
781.92	232.70
782.25	232.61
782.57	232.64
782.89	232.53
783.22	232.47
783.54	232.39
783.86	232.36
784.19	232.28
784.51	232.31
784.83	232.37
785.16	232.34
785.48	232.51
785.80	232.46
786.12	232.39
786.45	232.38
786.77	232.31
787.09	232.28
787.42	232.22
787.74	232.19
788.06	232.20
788.38	232.17
788.71	232.08
789.03	232.17
789.35	232.06
789.67	232.00
789.99	232.00
790.32	231.90
790.64	231.84
790.96	232.03
791.28	231.89
791.61	231.79
791.93	231.80
792.25	231.72
792.57	231.91
792.89	231.89
793.21	231.89
793.54	231.90
793.86	231.84
794.18	231.80
794.50	231.76
794.82	231.71
795.14	231.72
795.47	231.82
795.79	231.80
796.11	231.79
796.43	231.78
796.75	231.83
797.07	231.82
797.39	231.89
797.71	231.60
798.04	231.60
798.36	231.61
798.68	231.65
799.00	231.58
799.32	231.46
799.64	231.52
799.96	231.47
800.28	231.48
800.60	231.51
800.92	231.53
801.24	231.53
801.56	231.54
801.89	231.52
802.21	231.49
802.53	231.39
802.85	231.36
803.17	231.44
803.49	231.34
803.81	231.38
804.13	231.36
804.45	231.41
804.77	231.45
805.09	231.33
805.41	231.22
805.73	231.14
806.05	231.05
806.37	230.99
806.69	230.93
807.01	230.92
807.33	230.99
807.65	230.98
807.97	231.01
808.28	230.95
808.60	230.84
808.92	230.83
809.24	230.93
809.56	230.98
809.88	230.95
810.20	230.98
810.52	230.96
810.84	230.89
811.16	230.83
811.48	230.80
811.80	230.94
812.12	230.89
812.43	230.86
812.75	230.75
813.07	230.66
813.39	230.65
813.71	230.56
814.03	230.40
814.35	230.30
814.67	230.20
814.98	230.20
815.30	230.31
815.62	230.20
815.94	230.09
816.26	230.06
816.58	229.90
816.89	229.84
817.21	229.84
817.53	229.72
817.85	229.67
818.17	229.58
818.48	229.43
818.80	229.51
819.12	229.57
819.44	229.56
819.76	229.43
820.07	229.41
820.39	229.40
820.71	229.48
821.03	229.43
821.34	229.50
821.66	229.44
821.98	229.29
822.30	229.34
822.61	229.41
822.93	229.40
823.25	229.47
823.57	229.41
823.88	229.40
824.20	229.36
824.52	229.44
824.83	229.49
825.15	229.53
825.47	229.61
825.79	229.52
826.10	229.46
826.42	229.60
826.74	229.55
827.05	229.53
827.37	229.48
827.69	229.53
828.00	229.42
828.32	229.49
828.64	229.52
828.95	229.50
829.27	229.40
829.58	229.37
829.90	229.40
830.22	229.42
830.53	229.39
830.85	229.49
831.17	229.51
831.48	229.58
831.80	229.50
832.11	229.39
832.43	229.46
832.75	229.43
833.06	229.48
833.38	229.57
833.69	229.48
834.01	229.49
834.32	229.47
834.64	229.41
834.96	229.36
835.27	229.24
835.59	229.27
835.90	229.35
836.22	229.33
836.53	229.30
836.85	229.40
837.16	229.54
837.48	229.46
837.79	229.43
838.11	229.36
838.42	229.37
838.74	229.40
839.05	229.30
839.37	229.37
839.68	229.31
840.00	229.28
840.31	229.34
840.63	229.39
840.94	229.37
841.26	229.39
841.57	229.37
841.88	229.47
842.20	229.41
842.51	229.29
842.83	229.22
843.14	229.41
843.46	229.27
843.77	229.12
844.08	229.11
844.40	229.15
844.71	229.13
845.03	229.12
845.34	229.06
845.65	229.08
845.97	229.12
846.28	229.18
846.60	229.17
846.91	229.12
847.22	229.13
847.54	229.11
847.85	229.07
848.16	229.09
848.48	229.01
848.79	229.10
849.10	229.09
849.42	228.99
849.73	228.70
850.04	228.76
850.36	228.75
850.67	228.84
850.98	228.80
851.30	228.77
851.61	228.77
851.92	228.73
852.23	228.69
852.55	228.68
852.86	228.55
853.17	228.61
853.49	228.70
853.80	228.63
854.11	228.68
854.42	228.85
854.74	228.74
855.05	228.76
855.36	228.70
855.67	228.74
855.99	228.86
856.30	229.08
856.61	229.09
856.92	229.05
857.23	229.01
857.55	228.98
857.86	228.96
858.17	229.00
858.48	229.05
858.79	229.01
859.11	228.97
859.42	228.90
859.73	228.80
860.04	228.70
860.35	228.60
860.66	228.60
860.98	228.43
861.29	228.50
861.60	228.50
861.91	228.46
862.22	228.40
862.53	228.35
862.84	228.15
863.16	228.18
863.47	228.17
863.78	228.12
864.09	228.18
864.40	228.21
864.71	228.17
865.02	228.09
865.33	228.19
865.64	228.14
865.95	228.21
866.27	228.26
866.58	228.34
866.89	228.49
867.20	228.42
867.51	228.47
867.82	228.41
868.13	228.45
868.44	228.43
868.75	228.47
869.06	228.41
869.37	228.46
869.68	228.29
869.99	228.23
870.30	228.23
870.61	228.18
870.92	228.24
871.23	228.30
871.54	228.40
871.85	228.44
872.16	228.50
872.47	228.42
872.78	228.44
873.09	228.41
873.40	228.31
873.71	228.31
874.02	228.34
874.33	228.38
874.64	228.30
874.95	228.33
875.26	228.38
875.56	228.48
875.87	228.47
876.18	228.62
876.49	228.80
876.80	228.81
877.11	228.79
877.42	228.72
877.73	228.63
878.04	228.59
878.35	228.51
878.66	228.56
878.96	228.61
879.27	228.53
879.58	228.50
879.89	228.48
880.20	228.54
880.51	228.57
880.82	228.54
881.12	228.61
881.43	228.63
881.74	228.55
882.05	228.53
882.36	228.59
882.67	228.58
882.97	228.43
883.28	228.42
883.59	228.39
883.90	228.54
884.21	228.62
884.51	228.54
884.82	228.53
885.13	228.51
885.44	228.50
885.74	228.63
886.05	228.72
886.36	228.75
886.67	228.68
886.98	228.76
887.28	228.81
887.59	228.79
887.90	228.70
888.20	228.63
888.51	228.64
888.82	228.52
889.13	228.45
889.43	228.56
889.74	228.61
890.05	228.71
890.35	228.60
890.66	228.59
890.97	228.62
891.28	228.72
891.58	228.62
891.89	228.60
892.20	228.45
892.50	228.38
892.81	228.36
893.12	228.34
893.42	228.15
893.73	228.21
894.04	228.21
894.34	228.20
894.65	228.26
894.95	228.24
895.26	228.23
895.57	228.33
895.87	228.22
896.18	228.19
896.48	228.05
896.79	228.01
897.10	227.91
897.40	227.97
897.71	227.92
898.01	227.99
898.32	228.06
898.63	228.02
898.93	228.11
899.24	228.17
899.54	228.18
899.85	228.27
900.15	228.19
900.46	228.22
900.76	228.24
901.07	228.22
901.38	228.30
901.68	228.26
901.99	228.04
902.29	228.00
902.60	228.00
902.90	228.07
903.21	228.01
903.51	228.06
903.82	228.06
904.12	228.06
904.43	227.97
904.73	227.95
905.03	228.00
905.34	228.10
905.64	227.98
905.95	228.02
906.25	227.98
906.56	227.99
906.86	227.99
907.17	228.03
907.47	228.10
907.77	228.06
908.08	228.16
908.38	228.30
908.69	228.36
908.99	228.34
909.30	228.28
909.60	228.36
909.90	228.34
910.21	228.27
910.51	228.19
910.81	228.25
911.12	228.20
911.42	228.12
911.73	227.91
912.03	228.01
912.33	227.97
912.64	227.98
912.94	228.00
913.24	227.92
913.55	227.91
913.85	227.92
914.15	227.93
914.46	227.97
914.76	227.89
915.06	227.83
915.37	227.80
915.67	227.84
915.97	227.78
916.27	227.79
916.58	227.85
916.88	227.83
917.18	227.84
917.49	227.98
917.79	228.06
918.09	228.11
918.39	228.08
918.70	228.15
919.00	228.04
919.30	228.13
919.60	228.16
919.91	228.11
920.21	228.02
920.51	228.01
920.81	227.95
921.12	228.08
921.42	228.10
921.72	228.13
922.02	228.15
922.32	228.16
922.63	228.18
922.93	228.21
923.23	228.41
923.53	228.30
923.83	228.21
924.13	228.20
924.44	228.15
924.74	228.30
925.04	228.29
925.34	228.36
925.64	228.25
925.94	228.27
926.24	228.49
926.55	228.47
926.85	228.45
927.15	228.50
927.45	228.31
927.75	228.40
928.05	228.47
928.35	228.43
928.65	228.50
928.95	228.50
929.26	228.46
929.56	228.31
929.86	228.51
930.16	228.41
930.46	228.43
930.76	228.37
931.06	228.19
931.36	228.14
931.66	228.13
931.96	228.08
932.26	228.09
932.56	227.94
932.86	228.04
933.16	227.99
933.46	227.98
933.76	228.01
934.06	227.98
934.36	228.01
934.66	228.05
934.96	228.07
935.26	228.03
935.56	228.02
935.86	228.01
936.16	227.86
936.46	227.94
936.76	227.99
937.06	228.04
937.36	228.13
937.66	228.08
937.96	228.07
938.26	228.16
938.56	228.15
938.86	228.15
939.16	228.27
939.46	228.35
939.76	228.29
940.06	228.25
940.35	228.20
940.65	228.01
940.95	227.98
941.25	227.88
941.55	227.91
941.85	227.88
942.15	227.90
942.45	227.98
942.75	228.07
943.04	228.05
943.34	228.08
943.64	228.08
943.94	228.10
944.24	228.13
944.54	228.03
944.84	228.05
945.13	228.00
945.43	227.86
945.73	227.92
946.03	227.95
946.33	228.01
946.62	228.04
946.92	228.07
947.22	228.13
947.52	228.16
947.82	228.15
948.11	228.22
948.41	228.20
948.71	228.12
949.01	228.05
949.31	227.95
949.60	228.00
949.90	227.95
950.20	227.95
950.50	227.92
950.79	227.86
951.09	227.87
951.39	228.00
951.69	227.90
951.98	227.82
952.28	227.90
952.58	227.92
952.87	227.89
953.17	227.91
953.47	227.76
953.76	227.71
954.06	227.65
954.36	227.53
954.66	227.53
954.95	227.58
955.25	227.53
955.55	227.53
955.84	227.48
956.14	227.53
956.44	227.69
956.73	227.64
957.03	227.70
957.32	227.73
957.62	227.63
957.92	227.71
958.21	227.70
958.51	227.79
958.81	227.82
959.10	227.86
959.40	227.94
959.69	228.06
959.99	228.21
960.29	228.23
960.58	228.28
960.88	228.37
961.17	228.27
961.47	228.29
961.76	228.26
962.06	228.28
962.36	228.28
962.65	228.15
962.95	228.22
963.24	228.20
963.54	228.24
963.83	228.17
964.13	228.17
964.42	228.12
964.72	228.04
965.01	227.99
965.31	227.97
965.60	227.98
965.90	228.10
966.19	227.98
966.49	227.92
966.78	227.99
967.08	227.94
967.37	228.08
967.67	228.07
967.96	228.17
968.26	228.15
968.55	228.15
968.85	228.12
969.14	228.24
969.43	228.22
969.73	228.11
970.02	228.16
970.32	228.17
970.61	228.24
970.91	228.11
971.20	228.19
971.49	228.10
971.79	228.02
972.08	227.81
972.38	227.94
972.67	228.01
972.96	227.96
973.26	228.00
973.55	228.08
973.85	228.10
974.14	228.15
974.43	228.23
974.73	228.16
975.02	228.17
975.31	228.07
975.61	228.14
975.90	228.18
976.19	228.23
976.49	228.23
976.78	228.23
977.07	228.24
977.37	228.18
977.66	228.36
977.95	228.31
978.24	228.45
978.54	228.41
978.83	228.32
979.12	228.35
979.42	228.38
979.71	228.36
980.00	228.36
980.29	228.32
980.59	228.26
980.88	228.38
981.17	228.40
981.46	228.40
981.76	228.39
982.05	228.37
982.34	228.30
982.63	228.27
982.93	228.32
983.22	228.44
983.51	228.47
983.80	228.30
984.09	228.34
984.39	228.24
984.68	228.33
984.97	228.44
985.26	228.45
985.55	228.37
985.85	228.36
986.14	228.45
986.43	228.44
986.72	228.39
987.01	228.30
987.30	228.27
987.59	228.30
987.89	228.31
988.18	228.38
988.47	228.38
988.76	228.36
989.05	228.28
989.34	228.18
989.63	228.30
989.92	228.37
990.22	228.44
990.51	228.52
990.80	228.36
991.09	228.34
991.38	228.33
991.67	228.34
991.96	228.30
992.25	228.22
992.54	228.17
992.83	228.20
993.12	228.25
993.41	228.26
993.70	228.33
993.99	228.39
994.28	228.34
994.58	228.38
994.87	228.47
995.16	228.37
995.45	228.34
995.74	228.18
996.03	228.26
996.32	228.17
996.61	228.09
996.90	228.14
997.19	228.08
997.48	228.09
997.77	228.11
998.06	227.98
998.34	227.95
998.63	227.99
998.92	227.96
999.21	227.90
999.50	227.91
999.79	227.73
1000.08	227.69
1000.37	227.69
1000.66	227.58
1000.95	227.67
1001.24	227.74
1001.53	227.82
1001.82	227.90
1002.11	227.75
1002.40	227.77
1002.68	227.93
1002.97	228.03
1003.26	228.19
1003.55	228.15
1003.84	228.16
1004.13	228.36
1004.42	228.37
1004.71	228.42
1004.99	228.41
1005.28	228.50
1005.57	228.44
1005.86	228.60
1006.15	228.68
1006.44	228.72
1006.72	228.89
1007.01	228.76
1007.30	228.89
1007.59	228.88
1007.88	228.83
1008.17	228.97
1008.45	229.09
1008.74	228.97
1009.03	228.88
1009.32	228.88
1009.60	228.93
1009.89	228.81
1010.18	228.71
1010.47	228.80
1010.76	228.78
1011.04	228.76
1011.33	228.85
1011.62	229.04
1011.91	228.95
1012.19	228.86
1012.48	228.81
1012.77	228.77
1013.05	228.92
1013.34	228.88
1013.63	228.80
1013.92	228.78
1014.20	228.76
1014.49	228.77
1014.78	228.78
1015.06	228.83
1015.35	228.74
1015.64	228.82
1015.92	228.92
1016.21	228.99
1016.50	228.88
1016.78	228.91
1017.07	228.94
1017.36	228.92
1017.64	228.78
1017.93	228.80
1018.22	228.88
1018.50	228.85
1018.79	228.85
1019.08	228.63
1019.36	228.57
1019.65	228.60
1019.93	228.63
1020.22	228.59
1020.51	228.66
1020.79	228.64
1021.08	229.50
1021.36	228.00
1021.65	229.00
1021.94	226.00
1022.22	228.10
1022.51	228.10
1022.79	228.00
1023.08	228.40
1023.36	231.70
1023.65	228.10
>>>>>End Processed Spectral Data<<<<<
