SpectraSuite Data File
++++++++++++++++++++++++++++++++++++
Date: Fri Feb 01 14:38:24 EST 2013
User: group
Dark Spectrum Present: No
Reference Spectrum Present: No
Number of Sampled Component Spectra: 1
Spectrometers: USB2E7196
Integration Time (usec): 70000 (USB2E7196)
Spectra Averaged: 10 (USB2E7196)
Boxcar Smoothing: 10 (USB2E7196)
Correct for Electrical Dark: No (USB2E7196)
Strobe/Lamp Enabled: No (USB2E7196)
Correct for Detector Non-linearity: No (USB2E7196)
Correct for Stray Light: No (USB2E7196)
Number of Pixels in Processed Spectrum: 2048
>>>>>Begin Processed Spectral Data<<<<<
339.09	0.00
339.48	216.70
339.86	218.50
340.24	218.20
340.63	220.80
341.01	222.50
341.39	223.00
341.78	224.20
342.16	226.50
342.54	226.70
342.93	214.84
343.31	225.69
343.69	226.14
344.07	226.58
344.46	227.02
344.84	227.31
345.22	227.59
345.60	227.76
345.99	227.92
346.37	228.06
346.75	228.10
347.13	228.16
347.52	228.12
347.90	228.30
348.28	228.14
348.66	228.11
349.05	228.18
349.43	228.25
349.81	228.25
350.19	228.27
350.57	228.32
350.96	228.30
351.34	228.25
351.72	228.42
352.10	228.43
352.48	228.52
352.87	228.57
353.25	228.55
353.63	228.68
354.01	228.71
354.39	228.74
354.77	228.86
355.15	229.02
355.54	229.11
355.92	229.03
356.30	229.04
356.68	229.20
357.06	229.40
357.44	229.40
357.82	229.40
358.20	229.47
358.58	229.53
358.97	229.65
359.35	229.87
359.73	230.04
360.11	230.17
360.49	230.18
360.87	230.29
361.25	230.45
361.63	230.59
362.01	230.71
362.39	230.74
362.77	230.85
363.15	230.83
363.53	230.92
363.91	230.97
364.29	231.13
364.67	230.94
365.05	230.81
365.43	230.77
365.81	230.85
366.19	230.88
366.57	230.99
366.95	230.87
367.33	230.79
367.71	230.52
368.09	230.53
368.47	230.50
368.85	230.44
369.23	230.37
369.61	230.25
369.99	230.25
370.37	230.24
370.75	230.13
371.13	229.99
371.51	229.80
371.89	229.70
372.27	229.59
372.65	229.59
373.03	229.48
373.41	229.41
373.78	229.35
374.16	229.23
374.54	229.01
374.92	228.91
375.30	228.85
375.68	228.83
376.06	228.78
376.44	228.66
376.82	228.58
377.19	228.54
377.57	228.41
377.95	228.27
378.33	228.16
378.71	228.03
379.09	228.05
379.47	228.10
379.84	227.90
380.22	227.86
380.60	227.77
380.98	227.66
381.36	227.56
381.73	227.43
382.11	227.41
382.49	227.36
382.87	227.40
383.25	227.34
383.62	227.46
384.00	227.29
384.38	227.33
384.76	227.34
385.13	227.30
385.51	227.26
385.89	227.23
386.27	227.11
386.64	227.09
387.02	226.93
387.40	226.79
387.78	226.94
388.15	226.92
388.53	226.84
388.91	226.98
389.29	226.96
389.66	227.00
390.04	226.85
390.42	226.91
390.79	226.81
391.17	226.91
391.55	226.69
391.92	226.70
392.30	226.69
392.68	226.57
393.05	226.59
393.43	226.59
393.81	226.60
394.18	226.60
394.56	226.60
394.94	226.68
395.31	226.75
395.69	226.80
396.06	226.80
396.44	227.00
396.82	226.99
397.19	227.14
397.57	227.10
397.95	227.24
398.32	227.21
398.70	227.30
399.07	227.27
399.45	227.51
399.82	227.52
400.20	227.59
400.58	227.74
400.95	227.72
401.33	227.93
401.70	228.18
402.08	228.39
402.45	228.50
402.83	228.76
403.20	228.95
403.58	229.04
403.95	229.19
404.33	229.21
404.71	229.39
405.08	229.68
405.46	229.85
405.83	229.97
406.21	230.20
406.58	230.40
406.96	230.63
407.33	230.68
407.70	231.02
408.08	231.40
408.45	231.75
408.83	232.05
409.20	232.27
409.58	232.40
409.95	232.65
410.33	232.97
410.70	233.17
411.08	233.50
411.45	233.82
411.82	234.14
412.20	234.66
412.57	235.08
412.95	235.33
413.32	235.89
413.69	236.40
414.07	236.93
414.44	237.48
414.82	238.04
415.19	238.72
415.56	239.29
415.94	239.90
416.31	240.52
416.68	241.30
417.06	242.10
417.43	242.93
417.81	243.91
418.18	244.82
418.55	245.86
418.93	246.97
419.30	248.10
419.67	249.33
420.04	250.42
420.42	251.64
420.79	253.24
421.16	254.60
421.54	256.19
421.91	257.75
422.28	259.32
422.66	261.00
423.03	262.73
423.40	264.50
423.77	266.27
424.15	268.27
424.52	270.25
424.89	272.39
425.26	274.47
425.64	276.31
426.01	278.49
426.38	280.70
426.75	282.95
427.13	285.38
427.50	287.97
427.87	290.44
428.24	292.94
428.61	295.24
428.99	298.00
429.36	300.78
429.73	303.67
430.10	306.54
430.47	309.58
430.85	312.66
431.22	315.95
431.59	319.47
431.96	322.53
432.33	325.99
432.70	329.51
433.08	333.39
433.45	337.17
433.82	341.01
434.19	345.17
434.56	349.29
434.93	353.10
435.30	356.80
435.68	361.17
436.05	365.27
436.42	369.43
436.79	373.28
437.16	377.34
437.53	381.51
437.90	385.55
438.27	389.61
438.64	393.74
439.01	397.61
439.38	400.92
439.75	404.40
440.13	408.35
440.50	412.05
440.87	415.15
441.24	418.47
441.61	421.93
441.98	424.45
442.35	427.39
442.72	430.56
443.09	433.52
443.46	435.45
443.83	436.80
444.20	437.80
444.57	439.37
444.94	440.30
445.31	441.31
445.68	442.56
446.05	443.01
446.42	443.00
446.79	442.87
447.16	442.73
447.53	442.87
447.90	441.69
448.27	440.43
448.64	438.63
449.01	437.40
449.37	435.00
449.74	432.66
450.11	429.70
450.48	426.43
450.85	423.08
451.22	420.26
451.59	417.75
451.96	415.36
452.33	411.88
452.70	408.78
453.07	404.90
453.43	400.93
453.80	397.13
454.17	393.48
454.54	390.01
454.91	386.22
455.28	382.31
455.65	378.84
456.02	375.39
456.38	372.38
456.75	368.53
457.12	365.17
457.49	362.10
457.86	359.10
458.23	356.49
458.59	353.45
458.96	350.37
459.33	347.63
459.70	344.97
460.07	342.83
460.43	340.23
460.80	337.84
461.17	335.64
461.54	333.56
461.91	331.45
462.27	329.32
462.64	327.40
463.01	325.38
463.38	323.43
463.74	321.33
464.11	319.51
464.48	318.00
464.85	316.35
465.21	314.99
465.58	313.56
465.95	311.80
466.32	310.51
466.68	309.14
467.05	307.77
467.42	306.35
467.78	304.75
468.15	303.33
468.52	302.20
468.88	300.85
469.25	299.60
469.62	298.51
469.98	297.33
470.35	296.29
470.72	295.41
471.08	294.26
471.45	293.31
471.82	292.33
472.18	291.25
472.55	290.46
472.92	289.44
473.28	288.55
473.65	287.62
474.02	286.81
474.38	286.13
474.75	285.55
475.11	284.91
475.48	284.49
475.85	283.93
476.21	283.44
476.58	282.85
476.94	282.31
477.31	281.82
477.67	281.27
478.04	280.83
478.41	280.34
478.77	280.18
479.14	279.70
479.50	279.44
479.87	279.19
480.23	278.95
480.60	278.69
480.96	278.47
481.33	278.50
481.69	278.38
482.06	278.23
482.42	277.90
482.79	277.77
483.15	277.59
483.52	277.63
483.88	277.38
484.25	277.44
484.61	277.51
484.98	277.39
485.34	277.56
485.71	277.75
486.07	277.80
486.44	277.70
486.80	277.92
487.17	278.04
487.53	278.20
487.90	278.43
488.26	278.63
488.62	278.76
488.99	278.83
489.35	279.02
489.72	279.25
490.08	279.55
490.44	279.60
490.81	279.87
491.17	279.92
491.54	280.27
491.90	280.58
492.26	280.84
492.63	281.20
492.99	281.45
493.36	281.64
493.72	281.99
494.08	282.31
494.45	282.63
494.81	283.00
495.17	283.29
495.54	283.68
495.90	284.03
496.26	284.49
496.63	284.98
496.99	285.38
497.35	285.80
497.72	286.28
498.08	286.76
498.44	287.20
498.80	287.84
499.17	288.27
499.53	288.62
499.89	289.00
500.26	289.42
500.62	289.87
500.98	290.27
501.34	290.70
501.71	291.11
502.07	291.45
502.43	291.71
502.79	292.15
503.16	292.32
503.52	292.74
503.88	292.95
504.24	293.16
504.60	293.50
504.97	293.72
505.33	293.95
505.69	294.31
506.05	294.57
506.41	294.82
506.78	295.08
507.14	295.37
507.50	295.63
507.86	295.94
508.22	296.13
508.59	296.47
508.95	296.75
509.31	297.17
509.67	297.51
510.03	297.92
510.39	298.31
510.75	298.74
511.12	299.17
511.48	299.78
511.84	300.23
512.20	300.80
512.56	301.37
512.92	301.99
513.28	302.50
513.64	303.14
514.00	303.81
514.37	304.52
514.73	305.31
515.09	306.18
515.45	306.89
515.81	307.91
516.17	308.89
516.53	309.83
516.89	310.66
517.25	311.75
517.61	312.88
517.97	314.06
518.33	315.40
518.69	316.61
519.05	318.00
519.41	319.58
519.77	321.07
520.13	322.71
520.49	324.30
520.85	326.03
521.21	327.83
521.57	329.76
521.93	331.73
522.29	333.62
522.65	335.70
523.01	337.96
523.37	340.10
523.73	342.35
524.09	344.82
524.45	347.45
524.81	350.08
525.17	352.76
525.53	355.46
525.89	358.31
526.25	361.35
526.61	364.11
526.97	367.09
527.33	370.12
527.68	373.35
528.04	376.60
528.40	380.16
528.76	383.81
529.12	387.26
529.48	390.94
529.84	394.78
530.20	398.59
530.56	402.68
530.91	406.76
531.27	410.85
531.63	415.02
531.99	419.29
532.35	423.60
532.71	427.93
533.07	432.36
533.42	437.02
533.78	441.50
534.14	446.34
534.50	451.11
534.86	455.99
535.21	460.82
535.57	466.06
535.93	471.09
536.29	476.20
536.65	481.59
537.00	486.77
537.36	492.13
537.72	497.42
538.08	502.57
538.44	508.08
538.79	513.56
539.15	518.87
539.51	524.36
539.87	530.00
540.22	535.62
540.58	541.40
540.94	547.00
541.29	552.66
541.65	558.09
542.01	563.98
542.37	569.75
542.72	575.55
543.08	581.05
543.44	586.78
543.79	592.19
544.15	597.89
544.51	603.96
544.87	609.85
545.22	615.46
545.58	621.38
545.94	627.13
546.29	632.93
546.65	638.91
547.01	644.77
547.36	650.47
547.72	656.14
548.07	661.90
548.43	667.53
548.79	673.24
549.14	679.05
549.50	684.54
549.86	690.18
550.21	695.76
550.57	701.32
550.92	706.97
551.28	712.50
551.64	718.10
551.99	723.63
552.35	729.09
552.70	734.72
553.06	740.31
553.41	745.79
553.77	751.20
554.13	756.68
554.48	762.19
554.84	767.69
555.19	773.29
555.55	778.70
555.90	784.08
556.26	789.45
556.61	794.66
556.97	799.70
557.32	804.80
557.68	809.84
558.03	815.17
558.39	820.26
558.74	825.67
559.10	830.63
559.45	835.45
559.81	840.48
560.16	845.21
560.52	849.92
560.87	854.64
561.23	859.51
561.58	864.33
561.94	868.54
562.29	872.87
562.64	877.09
563.00	881.35
563.35	885.96
563.71	890.73
564.06	895.43
564.42	899.81
564.77	904.30
565.12	908.89
565.48	913.70
565.83	918.02
566.19	921.97
566.54	926.15
566.89	930.14
567.25	934.07
567.60	938.59
567.96	942.63
568.31	946.60
568.66	950.18
569.02	953.48
569.37	957.02
569.72	960.47
570.08	964.12
570.43	967.53
570.78	970.22
571.14	972.67
571.49	975.48
571.84	978.66
572.20	981.46
572.55	984.12
572.90	986.40
573.26	988.82
573.61	991.33
573.96	993.31
574.31	995.20
574.67	996.67
575.02	998.28
575.37	999.99
575.72	1001.26
576.08	1003.04
576.43	1004.83
576.78	1006.75
577.13	1008.61
577.49	1010.22
577.84	1011.58
578.19	1013.04
578.54	1014.57
578.90	1015.67
579.25	1016.56
579.60	1017.44
579.95	1018.17
580.30	1018.59
580.66	1018.93
581.01	1019.24
581.36	1020.06
581.71	1021.19
582.06	1022.30
582.42	1022.50
582.77	1023.07
583.12	1023.64
583.47	1023.89
583.82	1024.27
584.17	1024.29
584.53	1024.48
584.88	1024.42
585.23	1024.49
585.58	1024.57
585.93	1024.47
586.28	1024.70
586.63	1024.95
586.98	1024.93
587.34	1024.79
587.69	1024.76
588.04	1025.11
588.39	1025.39
588.74	1024.50
589.09	1023.45
589.44	1022.67
589.79	1022.49
590.14	1022.12
590.49	1021.50
590.84	1020.72
591.19	1020.05
591.54	1018.98
591.89	1017.62
592.25	1016.72
592.60	1015.26
592.95	1014.04
593.30	1012.75
593.65	1011.37
594.00	1009.55
594.35	1008.45
594.70	1006.88
595.05	1005.44
595.40	1003.50
595.75	1001.55
596.10	1000.39
596.45	999.21
596.80	998.13
597.15	996.37
597.50	994.29
597.85	993.04
598.19	991.63
598.54	989.90
598.89	988.33
599.24	987.14
599.59	985.53
599.94	984.32
600.29	982.81
600.64	981.05
600.99	978.96
601.34	977.57
601.69	975.32
602.04	973.67
602.39	971.84
602.74	970.30
603.08	968.95
603.43	967.43
603.78	965.33
604.13	963.30
604.48	961.57
604.83	959.99
605.18	957.87
605.53	955.53
605.87	953.21
606.22	951.04
606.57	948.69
606.92	946.39
607.27	943.89
607.62	941.87
607.96	939.61
608.31	937.62
608.66	934.90
609.01	932.53
609.36	929.63
609.70	926.49
610.05	923.66
610.40	920.64
610.75	917.76
611.10	914.98
611.44	911.74
611.79	908.90
612.14	905.67
612.49	902.02
612.83	898.90
613.18	895.94
613.53	893.03
613.88	889.72
614.22	886.41
614.57	883.25
614.92	879.76
615.27	876.78
615.61	873.46
615.96	870.50
616.31	867.53
616.65	864.92
617.00	862.17
617.35	859.18
617.70	856.04
618.04	852.54
618.39	849.52
618.74	846.56
619.08	843.19
619.43	840.23
619.78	837.64
620.12	834.66
620.47	831.75
620.82	828.54
621.16	825.64
621.51	822.62
621.85	819.68
622.20	816.45
622.55	813.43
622.89	810.39
623.24	807.40
623.59	804.50
623.93	801.46
624.28	798.55
624.62	795.52
624.97	792.86
625.32	790.18
625.66	787.40
626.01	784.44
626.35	781.47
626.70	778.30
627.04	775.50
627.39	772.43
627.73	769.27
628.08	766.60
628.43	763.47
628.77	760.57
629.12	757.18
629.46	754.42
629.81	751.04
630.15	747.77
630.50	744.59
630.84	741.02
631.19	737.54
631.53	734.23
631.88	730.68
632.22	726.92
632.57	723.87
632.91	720.42
633.26	717.07
633.60	713.69
633.95	710.50
634.29	706.97
634.64	704.14
634.98	700.89
635.32	697.69
635.67	694.72
636.01	691.64
636.36	688.74
636.70	685.60
637.05	682.74
637.39	680.00
637.73	677.13
638.08	674.54
638.42	671.98
638.77	669.22
639.11	666.46
639.45	663.69
639.80	660.38
640.14	657.64
640.49	654.74
640.83	651.80
641.17	648.83
641.52	645.98
641.86	642.83
642.20	639.91
642.55	636.84
642.89	633.81
643.23	630.72
643.58	628.31
643.92	625.33
644.26	622.56
644.61	619.79
644.95	616.77
645.29	613.51
645.64	610.23
645.98	607.27
646.32	604.51
646.66	601.60
647.01	598.90
647.35	595.97
647.69	593.12
648.04	590.41
648.38	587.40
648.72	584.60
649.06	581.62
649.41	578.90
649.75	575.96
650.09	572.95
650.43	570.05
650.78	566.83
651.12	563.77
651.46	560.85
651.80	558.02
652.14	555.21
652.49	552.41
652.83	550.00
653.17	547.20
653.51	544.13
653.85	541.34
654.20	538.47
654.54	535.48
654.88	532.62
655.22	529.80
655.56	527.19
655.90	524.32
656.25	521.74
656.59	518.94
656.93	516.31
657.27	513.85
657.61	511.11
657.95	508.56
658.29	506.10
658.64	503.51
658.98	500.73
659.32	497.94
659.66	495.54
660.00	492.87
660.34	490.20
660.68	487.84
661.02	485.42
661.36	483.06
661.70	480.94
662.05	478.85
662.39	476.59
662.73	474.40
663.07	472.37
663.41	470.16
663.75	467.99
664.09	465.95
664.43	463.67
664.77	461.64
665.11	459.46
665.45	457.37
665.79	455.31
666.13	453.20
666.47	451.29
666.81	449.13
667.15	446.89
667.49	445.03
667.83	442.98
668.17	440.72
668.51	438.53
668.85	436.44
669.19	434.50
669.53	432.51
669.87	430.50
670.21	428.51
670.55	426.60
670.89	424.84
671.23	422.82
671.57	421.11
671.91	419.32
672.25	417.50
672.58	415.87
672.92	414.08
673.26	412.40
673.60	410.60
673.94	408.93
674.28	407.47
674.62	405.85
674.96	404.33
675.30	403.03
675.64	401.56
675.97	399.91
676.31	398.18
676.65	396.71
676.99	395.25
677.33	393.60
677.67	391.99
678.01	390.36
678.34	388.86
678.68	387.37
679.02	385.99
679.36	384.60
679.70	383.00
680.04	381.45
680.37	379.84
680.71	378.48
681.05	377.11
681.39	375.63
681.73	374.14
682.06	372.76
682.40	371.45
682.74	370.09
683.08	368.81
683.42	367.45
683.75	366.16
684.09	364.73
684.43	363.38
684.77	362.02
685.10	360.69
685.44	359.36
685.78	358.08
686.12	356.68
686.45	355.34
686.79	354.03
687.13	352.88
687.46	351.72
687.80	350.42
688.14	348.98
688.48	347.77
688.81	346.55
689.15	345.26
689.49	343.91
689.82	342.70
690.16	341.34
690.50	340.22
690.83	338.93
691.17	337.78
691.51	336.64
691.84	335.54
692.18	334.31
692.52	333.24
692.85	332.04
693.19	330.80
693.52	329.73
693.86	328.54
694.20	327.38
694.53	326.27
694.87	325.10
695.21	324.08
695.54	322.90
695.88	321.69
696.21	320.52
696.55	319.46
696.88	318.36
697.22	317.37
697.56	316.36
697.89	315.32
698.23	314.40
698.56	313.37
698.90	312.54
699.23	311.42
699.57	310.46
699.90	309.43
700.24	308.56
700.58	307.60
700.91	306.86
701.25	306.09
701.58	305.31
701.92	304.54
702.25	303.77
702.59	303.07
702.92	302.34
703.26	301.70
703.59	300.88
703.93	300.36
704.26	299.65
704.60	298.94
704.93	298.20
705.26	297.30
705.60	296.65
705.93	295.85
706.27	295.37
706.60	294.63
706.94	293.94
707.27	293.14
707.61	292.40
707.94	291.80
708.27	291.05
708.61	290.33
708.94	289.75
709.28	289.08
709.61	288.37
709.94	287.80
710.28	287.12
710.61	286.65
710.95	285.83
711.28	285.36
711.61	284.66
711.95	284.04
712.28	283.42
712.61	282.81
712.95	282.26
713.28	281.65
713.61	281.07
713.95	280.45
714.28	279.97
714.61	279.43
714.95	278.69
715.28	278.05
715.61	277.47
715.95	276.87
716.28	276.23
716.61	275.65
716.95	275.14
717.28	274.69
717.61	274.06
717.94	273.60
718.28	272.93
718.61	272.49
718.94	271.98
719.27	271.63
719.61	271.07
719.94	270.50
720.27	270.02
720.60	269.46
720.94	269.09
721.27	268.69
721.60	268.31
721.93	267.94
722.27	267.61
722.60	267.25
722.93	266.83
723.26	266.52
723.59	266.12
723.93	265.78
724.26	265.36
724.59	265.02
724.92	264.71
725.25	264.41
725.59	263.95
725.92	263.66
726.25	263.29
726.58	263.01
726.91	262.75
727.24	262.39
727.57	262.13
727.91	261.80
728.24	261.50
728.57	261.13
728.90	260.94
729.23	260.46
729.56	260.10
729.89	259.82
730.22	259.50
730.55	259.20
730.89	258.81
731.22	258.46
731.55	258.05
731.88	257.70
732.21	257.40
732.54	257.13
732.87	256.79
733.20	256.41
733.53	256.05
733.86	255.72
734.19	255.42
734.52	255.16
734.85	254.91
735.18	254.48
735.51	254.14
735.84	253.75
736.17	253.57
736.50	253.29
736.83	253.17
737.16	252.94
737.49	252.57
737.82	252.29
738.15	251.98
738.48	251.75
738.81	251.43
739.14	251.15
739.47	250.76
739.80	250.56
740.13	250.14
740.46	249.89
740.79	249.63
741.12	249.19
741.45	249.02
741.78	248.72
742.11	248.55
742.44	248.35
742.77	248.11
743.10	247.85
743.43	247.49
743.75	247.06
744.08	246.98
744.41	246.77
744.74	246.45
745.07	246.28
745.40	246.13
745.73	245.95
746.06	245.73
746.39	245.55
746.71	245.17
747.04	245.11
747.37	244.94
747.70	244.80
748.03	244.80
748.36	244.61
748.68	244.44
749.01	244.25
749.34	244.08
749.67	243.86
750.00	243.78
750.33	243.84
750.65	243.77
750.98	243.44
751.31	243.36
751.64	243.23
751.97	243.22
752.29	243.01
752.62	242.80
752.95	242.70
753.28	242.56
753.60	242.48
753.93	242.44
754.26	242.22
754.59	242.02
754.91	241.86
755.24	241.64
755.57	241.45
755.90	241.35
756.22	241.15
756.55	240.99
756.88	240.73
757.20	240.50
757.53	240.26
757.86	240.20
758.19	240.07
758.51	239.97
758.84	239.76
759.17	239.70
759.49	239.62
759.82	239.63
760.15	239.60
760.47	239.54
760.80	239.36
761.13	239.39
761.45	239.34
761.78	239.20
762.11	239.08
762.43	239.00
762.76	238.85
763.08	238.80
763.41	238.72
763.74	238.58
764.06	238.43
764.39	238.33
764.71	238.27
765.04	238.16
765.37	238.04
765.69	237.97
766.02	237.84
766.34	237.73
766.67	237.43
767.00	237.41
767.32	237.50
767.65	237.59
767.97	237.39
768.30	237.28
768.62	237.24
768.95	237.20
769.27	237.16
769.60	237.16
769.92	237.06
770.25	236.97
770.57	236.82
770.90	236.75
771.22	236.72
771.55	236.63
771.87	236.58
772.20	236.53
772.52	236.55
772.85	236.56
773.17	236.44
773.50	236.34
773.82	236.20
774.15	235.95
774.47	235.69
774.80	235.60
775.12	235.45
775.45	235.37
775.77	235.25
776.09	235.15
776.42	235.03
776.74	235.03
777.07	234.94
777.39	234.95
777.72	234.90
778.04	234.82
778.36	234.68
778.69	234.49
779.01	234.41
779.33	234.13
779.66	233.83
779.98	233.71
780.31	233.57
780.63	233.52
780.95	233.37
781.28	233.35
781.60	233.22
781.92	233.13
782.25	232.96
782.57	232.86
782.89	232.75
783.22	232.73
783.54	232.53
783.86	232.48
784.19	232.43
784.51	232.37
784.83	232.27
785.16	232.08
785.48	232.06
785.80	231.96
786.12	231.94
786.45	231.98
786.77	232.02
787.09	232.00
787.42	231.80
787.74	231.84
788.06	231.68
788.38	231.71
788.71	231.66
789.03	231.78
789.35	231.75
789.67	231.69
789.99	231.61
790.32	231.57
790.64	231.60
790.96	231.63
791.28	231.54
791.61	231.44
791.93	231.57
792.25	231.56
792.57	231.79
792.89	231.72
793.21	231.68
793.54	231.61
793.86	231.60
794.18	231.67
794.50	231.65
794.82	231.69
795.14	231.62
795.47	231.69
795.79	231.51
796.11	231.50
796.43	231.57
796.75	231.60
797.07	231.61
797.39	231.58
797.71	231.44
798.04	231.36
798.36	231.44
798.68	231.42
799.00	231.35
799.32	231.13
799.64	231.21
799.96	231.16
800.28	231.24
800.60	231.17
800.92	231.16
801.24	231.19
801.56	231.21
801.89	231.21
802.21	231.20
802.53	231.18
802.85	231.23
803.17	231.16
803.49	231.07
803.81	230.98
804.13	230.91
804.45	230.89
804.77	230.95
805.09	230.95
805.41	230.84
805.73	230.90
806.05	230.86
806.37	230.79
806.69	230.77
807.01	230.69
807.33	230.76
807.65	230.79
807.97	230.82
808.28	230.82
808.60	230.81
808.92	230.79
809.24	230.91
809.56	230.81
809.88	230.75
810.20	230.66
810.52	230.75
810.84	230.69
811.16	230.69
811.48	230.70
811.80	230.77
812.12	230.75
812.43	230.71
812.75	230.71
813.07	230.77
813.39	230.74
813.71	230.68
814.03	230.77
814.35	230.65
814.67	230.55
814.98	230.43
815.30	230.30
815.62	230.22
815.94	230.13
816.26	230.18
816.58	230.17
816.89	230.22
817.21	230.11
817.53	230.16
817.85	230.12
818.17	230.01
818.48	229.80
818.80	229.87
819.12	229.85
819.44	229.77
819.76	229.67
820.07	229.75
820.39	229.70
820.71	229.60
821.03	229.65
821.34	229.60
821.66	229.66
821.98	229.77
822.30	229.76
822.61	229.80
822.93	229.75
823.25	229.76
823.57	229.73
823.88	229.82
824.20	229.68
824.52	229.64
824.83	229.62
825.15	229.62
825.47	229.54
825.79	229.51
826.10	229.48
826.42	229.38
826.74	229.34
827.05	229.31
827.37	229.28
827.69	229.16
828.00	229.08
828.32	229.00
828.64	229.04
828.95	229.12
829.27	229.04
829.58	229.06
829.90	229.00
830.22	228.98
830.53	228.81
830.85	228.87
831.17	228.91
831.48	229.01
831.80	229.00
832.11	229.08
832.43	228.99
832.75	229.05
833.06	229.20
833.38	229.13
833.69	229.16
834.01	229.16
834.32	229.28
834.64	229.30
834.96	229.32
835.27	229.19
835.59	229.12
835.90	229.09
836.22	228.97
836.53	228.94
836.85	228.93
837.16	229.24
837.48	229.29
837.79	229.39
838.11	229.28
838.42	229.35
838.74	229.33
839.05	229.35
839.37	229.28
839.68	229.20
840.00	229.16
840.31	229.19
840.63	229.19
840.94	229.05
841.26	229.07
841.57	229.05
841.88	229.16
842.20	229.20
842.51	229.20
842.83	229.28
843.14	229.52
843.46	229.54
843.77	229.48
844.08	229.52
844.40	229.38
844.71	229.40
845.03	229.38
845.34	229.36
845.65	229.43
845.97	229.44
846.28	229.41
846.60	229.46
846.91	229.45
847.22	229.52
847.54	229.62
847.85	229.62
848.16	229.71
848.48	229.70
848.79	229.65
849.10	229.64
849.42	229.62
849.73	229.43
850.04	229.41
850.36	229.20
850.67	229.16
850.98	229.22
851.30	229.30
851.61	229.32
851.92	229.27
852.23	229.35
852.55	229.44
852.86	229.46
853.17	229.50
853.49	229.55
853.80	229.46
854.11	229.40
854.42	229.53
854.74	229.45
855.05	229.45
855.36	229.45
855.67	229.45
855.99	229.50
856.30	229.70
856.61	229.75
856.92	229.81
857.23	229.73
857.55	229.71
857.86	229.66
858.17	229.65
858.48	229.59
858.79	229.47
859.11	229.48
859.42	229.45
859.73	229.42
860.04	229.45
860.35	229.46
860.66	229.44
860.98	229.33
861.29	229.32
861.60	229.30
861.91	229.28
862.22	229.29
862.53	229.25
862.84	229.03
863.16	229.02
863.47	229.09
863.78	229.15
864.09	229.17
864.40	229.19
864.71	229.11
865.02	229.20
865.33	229.22
865.64	229.11
865.95	229.10
866.27	229.25
866.58	229.08
866.89	229.03
867.20	229.06
867.51	229.02
867.82	229.05
868.13	229.05
868.44	229.04
868.75	229.11
869.06	229.12
869.37	229.16
869.68	229.00
869.99	228.96
870.30	228.90
870.61	228.88
870.92	228.77
871.23	228.74
871.54	228.73
871.85	228.70
872.16	228.69
872.47	228.64
872.78	228.45
873.09	228.54
873.40	228.60
873.71	228.54
874.02	228.50
874.33	228.39
874.64	228.29
874.95	228.27
875.26	228.19
875.56	228.07
875.87	228.04
876.18	228.09
876.49	228.26
876.80	228.30
877.11	228.24
877.42	228.30
877.73	228.36
878.04	228.34
878.35	228.36
878.66	228.36
878.96	228.42
879.27	228.37
879.58	228.41
879.89	228.27
880.20	228.34
880.51	228.46
880.82	228.51
881.12	228.58
881.43	228.51
881.74	228.47
882.05	228.49
882.36	228.48
882.67	228.47
882.97	228.23
883.28	228.21
883.59	228.22
883.90	228.16
884.21	228.16
884.51	228.08
884.82	228.00
885.13	227.96
885.44	227.82
885.74	227.76
886.05	227.69
886.36	227.72
886.67	227.61
886.98	227.64
887.28	227.60
887.59	227.52
887.90	227.54
888.20	227.58
888.51	227.58
888.82	227.51
889.13	227.62
889.43	227.83
889.74	227.86
890.05	227.85
890.35	227.90
890.66	227.88
890.97	228.00
891.28	228.07
891.58	228.15
891.89	228.24
892.20	228.34
892.50	228.39
892.81	228.45
893.12	228.53
893.42	228.44
893.73	228.44
894.04	228.59
894.34	228.69
894.65	228.67
894.95	228.68
895.26	228.74
895.57	228.82
895.87	228.60
896.18	228.65
896.48	228.66
896.79	228.63
897.10	228.69
897.40	228.68
897.71	228.71
898.01	228.66
898.32	228.70
898.63	228.76
898.93	228.73
899.24	228.65
899.54	228.66
899.85	228.68
900.15	228.72
900.46	228.70
900.76	228.64
901.07	228.58
901.38	228.71
901.68	228.75
901.99	228.59
902.29	228.64
902.60	228.62
902.90	228.53
903.21	228.54
903.51	228.54
903.82	228.59
904.12	228.54
904.43	228.64
904.73	228.58
905.03	228.61
905.34	228.71
905.64	228.72
905.95	228.69
906.25	228.64
906.56	228.63
906.86	228.55
907.17	228.59
907.47	228.65
907.77	228.46
908.08	228.25
908.38	228.30
908.69	228.24
908.99	228.22
909.30	228.33
909.60	228.44
909.90	228.36
910.21	228.25
910.51	228.26
910.81	228.23
911.12	228.21
911.42	228.12
911.73	227.91
912.03	227.91
912.33	227.96
912.64	227.93
912.94	227.90
913.24	227.89
913.55	227.83
913.85	227.80
914.15	227.87
914.46	228.05
914.76	227.94
915.06	227.94
915.37	227.92
915.67	227.80
915.97	227.68
916.27	227.72
916.58	227.75
916.88	227.62
917.18	227.59
917.49	227.84
917.79	227.91
918.09	227.98
918.39	227.99
918.70	227.93
919.00	227.92
919.30	228.02
919.60	227.99
919.91	227.99
920.21	228.00
920.51	227.96
920.81	227.95
921.12	228.11
921.42	228.06
921.72	228.06
922.02	228.14
922.32	228.20
922.63	228.14
922.93	228.20
923.23	228.27
923.53	228.29
923.83	228.10
924.13	228.11
924.44	228.09
924.74	228.16
925.04	228.23
925.34	228.17
925.64	228.07
925.94	228.10
926.24	228.16
926.55	228.10
926.85	228.08
927.15	228.08
927.45	228.03
927.75	228.13
928.05	228.16
928.35	228.18
928.65	228.27
928.95	228.24
929.26	228.26
929.56	228.31
929.86	228.32
930.16	228.28
930.46	228.19
930.76	228.28
931.06	228.27
931.36	228.18
931.66	228.27
931.96	228.35
932.26	228.41
932.56	228.39
932.86	228.49
933.16	228.58
933.46	228.57
933.76	228.56
934.06	228.57
934.36	228.60
934.66	228.63
934.96	228.40
935.26	228.49
935.56	228.45
935.86	228.43
936.16	228.30
936.46	228.30
936.76	228.28
937.06	228.30
937.36	228.34
937.66	228.36
937.96	228.39
938.26	228.38
938.56	228.30
938.86	228.29
939.16	228.30
939.46	228.32
939.76	228.36
940.06	228.32
940.35	228.27
940.65	228.15
940.95	228.16
941.25	228.22
941.55	228.10
941.85	228.06
942.15	228.04
942.45	228.11
942.75	228.14
943.04	228.15
943.34	228.08
943.64	227.98
943.94	227.94
944.24	227.89
944.54	227.75
944.84	227.73
945.13	227.72
945.43	227.64
945.73	227.57
946.03	227.44
946.33	227.47
946.62	227.53
946.92	227.56
947.22	227.44
947.52	227.46
947.82	227.47
948.11	227.52
948.41	227.50
948.71	227.49
949.01	227.36
949.31	227.47
949.60	227.55
949.90	227.65
950.20	227.71
950.50	227.68
950.79	227.72
951.09	227.72
951.39	227.71
951.69	227.82
951.98	227.89
952.28	227.95
952.58	227.88
952.87	227.91
953.17	227.91
953.47	228.03
953.76	228.01
954.06	228.08
954.36	227.94
954.66	228.06
954.95	228.05
955.25	228.15
955.55	228.06
955.84	227.90
956.14	227.92
956.44	227.93
956.73	227.98
957.03	228.06
957.32	228.09
957.62	228.14
957.92	228.13
958.21	228.22
958.51	228.48
958.81	228.60
959.10	228.55
959.40	228.59
959.69	228.57
959.99	228.68
960.29	228.64
960.58	228.76
960.88	228.80
961.17	228.85
961.47	228.95
961.76	228.96
962.06	229.01
962.36	228.99
962.65	228.96
962.95	229.01
963.24	228.99
963.54	229.10
963.83	229.11
964.13	229.12
964.42	228.92
964.72	228.78
965.01	228.73
965.31	228.69
965.60	228.69
965.90	228.77
966.19	228.74
966.49	228.78
966.78	228.70
967.08	228.68
967.37	228.62
967.67	228.62
967.96	228.69
968.26	228.73
968.55	228.70
968.85	228.80
969.14	228.81
969.43	228.82
969.73	228.70
970.02	228.62
970.32	228.52
970.61	228.57
970.91	228.43
971.20	228.47
971.49	228.43
971.79	228.49
972.08	228.42
972.38	228.31
972.67	228.37
972.96	228.37
973.26	228.30
973.55	228.39
973.85	228.26
974.14	228.22
974.43	228.20
974.73	228.20
975.02	228.09
975.31	228.10
975.61	228.01
975.90	228.11
976.19	228.27
976.49	228.31
976.78	228.30
977.07	228.27
977.37	228.27
977.66	228.40
977.95	228.34
978.24	228.38
978.54	228.39
978.83	228.37
979.12	228.40
979.42	228.40
979.71	228.38
980.00	228.50
980.29	228.50
980.59	228.55
980.88	228.67
981.17	228.69
981.46	228.54
981.76	228.65
982.05	228.60
982.34	228.48
982.63	228.47
982.93	228.54
983.22	228.71
983.51	228.71
983.80	228.62
984.09	228.60
984.39	228.42
984.68	228.50
984.97	228.52
985.26	228.51
985.55	228.52
985.85	228.45
986.14	228.37
986.43	228.37
986.72	228.27
987.01	228.16
987.30	228.14
987.59	228.26
987.89	228.19
988.18	228.14
988.47	228.12
988.76	228.04
989.05	227.91
989.34	227.93
989.63	227.94
989.92	228.01
990.22	228.06
990.51	228.12
990.80	228.05
991.09	228.07
991.38	228.13
991.67	228.10
991.96	228.02
992.25	228.01
992.54	228.01
992.83	228.02
993.12	227.96
993.41	227.97
993.70	228.00
993.99	228.02
994.28	228.08
994.58	228.10
994.87	228.11
995.16	228.11
995.45	228.02
995.74	227.94
996.03	227.88
996.32	227.86
996.61	227.90
996.90	227.96
997.19	227.85
997.48	227.77
997.77	227.68
998.06	227.86
998.34	227.93
998.63	227.91
998.92	228.01
999.21	228.00
999.50	228.05
999.79	227.97
1000.08	228.03
1000.37	228.05
1000.66	228.08
1000.95	228.19
1001.24	228.30
1001.53	228.30
1001.82	228.26
1002.11	228.21
1002.40	228.29
1002.68	228.32
1002.97	228.47
1003.26	228.50
1003.55	228.54
1003.84	228.68
1004.13	228.78
1004.42	228.70
1004.71	228.69
1004.99	228.65
1005.28	228.76
1005.57	228.68
1005.86	228.65
1006.15	228.68
1006.44	228.63
1006.72	228.63
1007.01	228.63
1007.30	228.67
1007.59	228.66
1007.88	228.75
1008.17	228.78
1008.45	228.66
1008.74	228.66
1009.03	228.58
1009.32	228.56
1009.60	228.58
1009.89	228.56
1010.18	228.38
1010.47	228.35
1010.76	228.36
1011.04	228.40
1011.33	228.40
1011.62	228.42
1011.91	228.47
1012.19	228.37
1012.48	228.36
1012.77	228.34
1013.05	228.40
1013.34	228.33
1013.63	228.28
1013.92	228.26
1014.20	228.27
1014.49	228.35
1014.78	228.35
1015.06	228.30
1015.35	228.32
1015.64	228.32
1015.92	228.34
1016.21	228.43
1016.50	228.45
1016.78	228.52
1017.07	228.53
1017.36	228.50
1017.64	228.52
1017.93	228.53
1018.22	228.59
1018.50	228.58
1018.79	228.50
1019.08	228.39
1019.36	228.36
1019.65	228.36
1019.93	228.35
1020.22	228.36
1020.51	228.42
1020.79	228.27
1021.08	228.70
1021.36	227.70
1021.65	226.80
1021.94	227.50
1022.22	227.50
1022.51	227.50
1022.79	227.90
1023.08	228.40
1023.36	230.50
1023.65	225.50
>>>>>End Processed Spectral Data<<<<<
