SpectraSuite Data File
++++++++++++++++++++++++++++++++++++
Date: Fri Feb 01 14:40:24 EST 2013
User: group
Dark Spectrum Present: No
Reference Spectrum Present: No
Number of Sampled Component Spectra: 1
Spectrometers: USB2E7196
Integration Time (usec): 70000 (USB2E7196)
Spectra Averaged: 10 (USB2E7196)
Boxcar Smoothing: 10 (USB2E7196)
Correct for Electrical Dark: No (USB2E7196)
Strobe/Lamp Enabled: No (USB2E7196)
Correct for Detector Non-linearity: No (USB2E7196)
Correct for Stray Light: No (USB2E7196)
Number of Pixels in Processed Spectrum: 2048
>>>>>Begin Processed Spectral Data<<<<<
339.09	0.00
339.48	216.00
339.86	217.40
340.24	218.10
340.63	220.70
341.01	224.20
341.39	223.40
341.78	225.10
342.16	226.50
342.54	226.80
342.93	214.50
343.31	225.39
343.69	225.85
344.07	226.36
344.46	226.84
344.84	227.16
345.22	227.34
345.60	227.55
345.99	227.69
346.37	227.74
346.75	227.75
347.13	227.82
347.52	227.86
347.90	227.97
348.28	227.95
348.66	228.03
349.05	227.99
349.43	228.17
349.81	228.14
350.19	228.15
350.57	228.22
350.96	228.31
351.34	228.25
351.72	228.42
352.10	228.47
352.48	228.46
352.87	228.50
353.25	228.53
353.63	228.57
354.01	228.64
354.39	228.75
354.77	228.87
355.15	228.90
355.54	228.97
355.92	228.96
356.30	229.06
356.68	229.28
357.06	229.42
357.44	229.33
357.82	229.45
358.20	229.52
358.58	229.61
358.97	229.55
359.35	229.71
359.73	229.80
360.11	229.84
360.49	229.91
360.87	230.02
361.25	230.14
361.63	230.23
362.01	230.31
362.39	230.33
362.77	230.33
363.15	230.40
363.53	230.45
363.91	230.39
364.29	230.35
364.67	230.12
365.05	230.12
365.43	230.17
365.81	230.16
366.19	230.19
366.57	230.13
366.95	230.06
367.33	230.03
367.71	230.00
368.09	230.11
368.47	230.06
368.85	230.03
369.23	229.99
369.61	229.91
369.99	229.95
370.37	229.92
370.75	229.95
371.13	229.81
371.51	229.83
371.89	229.90
372.27	229.94
372.65	229.94
373.03	229.82
373.41	229.76
373.78	229.71
374.16	229.58
374.54	229.52
374.92	229.50
375.30	229.37
375.68	229.24
376.06	229.12
376.44	229.07
376.82	228.97
377.19	228.82
377.57	228.78
377.95	228.58
378.33	228.49
378.71	228.33
379.09	228.29
379.47	228.07
379.84	228.00
380.22	227.91
380.60	227.89
380.98	227.80
381.36	227.82
381.73	227.71
382.11	227.69
382.49	227.55
382.87	227.50
383.25	227.44
383.62	227.62
384.00	227.56
384.38	227.46
384.76	227.45
385.13	227.54
385.51	227.43
385.89	227.31
386.27	227.28
386.64	227.32
387.02	227.28
387.40	227.31
387.78	227.26
388.15	227.20
388.53	227.16
388.91	227.19
389.29	227.07
389.66	227.10
390.04	226.99
390.42	227.00
390.79	226.92
391.17	226.90
391.55	226.70
391.92	226.65
392.30	226.72
392.68	226.70
393.05	226.60
393.43	226.66
393.81	226.72
394.18	226.70
394.56	226.61
394.94	226.67
395.31	226.68
395.69	226.72
396.06	226.81
396.44	226.87
396.82	226.91
397.19	227.00
397.57	226.94
397.95	227.13
398.32	227.21
398.70	227.44
399.07	227.56
399.45	227.56
399.82	227.59
400.20	227.63
400.58	227.64
400.95	227.71
401.33	227.83
401.70	228.06
402.08	228.18
402.45	228.40
402.83	228.55
403.20	228.67
403.58	228.82
403.95	228.96
404.33	229.09
404.71	229.27
405.08	229.58
405.46	229.88
405.83	230.07
406.21	230.28
406.58	230.30
406.96	230.45
407.33	230.70
407.70	230.92
408.08	231.18
408.45	231.48
408.83	231.71
409.20	231.85
409.58	232.00
409.95	232.28
410.33	232.42
410.70	232.59
411.08	232.93
411.45	233.22
411.82	233.47
412.20	233.80
412.57	234.22
412.95	234.37
413.32	234.71
413.69	235.02
414.07	235.37
414.44	235.98
414.82	236.43
415.19	237.04
415.56	237.49
415.94	238.07
416.31	238.68
416.68	239.38
417.06	240.15
417.43	240.81
417.81	241.50
418.18	242.37
418.55	243.33
418.93	244.20
419.30	245.13
419.67	246.13
420.04	247.00
420.42	247.94
420.79	249.22
421.16	250.24
421.54	251.53
421.91	252.71
422.28	253.84
422.66	255.14
423.03	256.46
423.40	257.85
423.77	259.26
424.15	260.80
424.52	262.26
424.89	263.80
425.26	265.33
425.64	266.83
426.01	268.41
426.38	269.93
426.75	271.49
427.13	273.06
427.50	274.80
427.87	276.77
428.24	278.60
428.61	280.18
428.99	282.19
429.36	284.15
429.73	286.31
430.10	288.19
430.47	290.21
430.85	292.11
431.22	294.36
431.59	296.76
431.96	298.84
432.33	301.21
432.70	303.65
433.08	306.35
433.45	308.95
433.82	311.49
434.19	314.33
434.56	317.24
434.93	319.90
435.30	322.43
435.68	325.18
436.05	327.82
436.42	330.71
436.79	333.20
437.16	335.92
437.53	338.68
437.90	341.55
438.27	344.40
438.64	347.31
439.01	349.85
439.38	351.89
439.75	354.12
440.13	356.72
440.50	359.08
440.87	361.09
441.24	363.04
441.61	365.33
441.98	366.95
442.35	368.76
442.72	370.75
443.09	372.64
443.46	373.66
443.83	374.38
444.20	374.79
444.57	375.69
444.94	376.07
445.31	376.41
445.68	376.96
446.05	376.88
446.42	376.51
446.79	376.01
447.16	375.72
447.53	375.53
447.90	374.33
448.27	373.18
448.64	371.67
449.01	370.50
449.37	368.43
449.74	366.57
450.11	364.23
450.48	361.70
450.85	359.05
451.22	357.02
451.59	355.07
451.96	353.10
452.33	350.59
452.70	348.15
453.07	345.34
453.43	342.47
453.80	339.94
454.17	337.34
454.54	334.82
454.91	332.26
455.28	329.43
455.65	326.95
456.02	324.69
456.38	322.51
456.75	319.96
457.12	317.74
457.49	315.60
457.86	313.44
458.23	311.61
458.59	309.77
458.96	307.71
459.33	305.84
459.70	304.11
460.07	302.51
460.43	300.70
460.80	299.04
461.17	297.56
461.54	296.00
461.91	294.50
462.27	293.20
462.64	291.81
463.01	290.46
463.38	289.15
463.74	287.55
464.11	286.23
464.48	285.21
464.85	284.13
465.21	283.09
465.58	282.21
465.95	281.07
466.32	280.01
466.68	279.00
467.05	278.11
467.42	277.08
467.78	276.06
468.15	275.19
468.52	274.60
468.88	273.61
469.25	272.67
469.62	271.95
469.98	271.10
470.35	270.37
470.72	269.70
471.08	268.98
471.45	268.34
471.82	267.73
472.18	267.00
472.55	266.40
472.92	265.70
473.28	265.13
473.65	264.57
474.02	263.99
474.38	263.60
474.75	263.16
475.11	262.70
475.48	262.33
475.85	262.03
476.21	261.57
476.58	261.18
476.94	260.89
477.31	260.54
477.67	260.30
478.04	260.07
478.41	259.70
478.77	259.54
479.14	259.15
479.50	258.96
479.87	258.68
480.23	258.33
480.60	258.18
480.96	257.91
481.33	257.72
481.69	257.60
482.06	257.28
482.42	257.10
482.79	256.95
483.15	256.84
483.52	256.70
483.88	256.46
484.25	256.32
484.61	256.18
484.98	256.18
485.34	256.24
485.71	256.18
486.07	256.25
486.44	256.16
486.80	256.24
487.17	256.33
487.53	256.52
487.90	256.82
488.26	257.17
488.62	257.39
488.99	257.58
489.35	257.83
489.72	258.19
490.08	258.51
490.44	258.85
490.81	259.18
491.17	259.51
491.54	260.03
491.90	260.64
492.26	261.27
492.63	261.70
492.99	262.10
493.36	262.68
493.72	263.40
494.08	264.24
494.45	265.08
494.81	265.79
495.17	266.61
495.54	267.52
495.90	268.26
496.26	269.30
496.63	270.42
496.99	271.54
497.35	272.68
497.72	273.92
498.08	275.32
498.44	276.63
498.80	278.17
499.17	279.69
499.53	281.13
499.89	282.68
500.26	284.44
500.62	286.34
500.98	288.34
501.34	290.30
501.71	292.23
502.07	294.44
502.43	296.72
502.79	299.14
503.16	301.47
503.52	304.02
503.88	306.52
504.24	309.37
504.60	312.21
504.97	315.28
505.33	318.39
505.69	321.54
506.05	324.85
506.41	328.12
506.78	331.70
507.14	335.46
507.50	339.33
507.86	343.38
508.22	347.30
508.59	351.50
508.95	355.85
509.31	360.52
509.67	365.19
510.03	370.08
510.39	375.02
510.75	380.26
511.12	385.58
511.48	391.02
511.84	396.40
512.20	402.07
512.56	407.90
512.92	413.90
513.28	419.96
513.64	426.44
514.00	433.00
514.37	439.57
514.73	446.43
515.09	453.28
515.45	460.25
515.81	467.53
516.17	474.89
516.53	482.43
516.89	489.80
517.25	497.57
517.61	505.40
517.97	513.31
518.33	521.36
518.69	529.67
519.05	538.14
519.41	546.93
519.77	555.70
520.13	564.52
520.49	573.45
520.85	582.58
521.21	591.55
521.57	601.13
521.93	610.46
522.29	620.16
522.65	629.71
523.01	639.40
523.37	649.19
523.73	658.90
524.09	668.67
524.45	679.04
524.81	689.34
525.17	699.87
525.53	710.53
525.89	721.03
526.25	731.87
526.61	742.40
526.97	753.07
527.33	764.01
527.68	775.31
528.04	786.30
528.40	797.58
528.76	809.23
529.12	820.60
529.48	832.34
529.84	843.40
530.20	855.30
530.56	867.40
530.91	879.66
531.27	891.77
531.63	903.83
531.99	915.84
532.35	927.55
532.71	939.22
533.07	951.48
533.42	963.79
533.78	975.72
534.14	988.12
534.50	1000.15
534.86	1012.39
535.21	1023.98
535.57	1036.47
535.93	1048.75
536.29	1060.69
536.65	1072.92
537.00	1084.62
537.36	1097.11
537.72	1108.84
538.08	1120.50
538.44	1131.85
538.79	1143.78
539.15	1155.69
539.51	1167.49
539.87	1179.49
540.22	1191.40
540.58	1202.78
540.94	1214.03
541.29	1225.31
541.65	1236.59
542.01	1248.24
542.37	1259.47
542.72	1271.10
543.08	1281.92
543.44	1292.66
543.79	1303.28
544.15	1313.84
544.51	1325.42
544.87	1336.41
545.22	1346.99
545.58	1357.62
545.94	1367.72
546.29	1377.74
546.65	1387.41
547.01	1396.95
547.36	1406.62
547.72	1415.75
548.07	1425.30
548.43	1434.88
548.79	1444.10
549.14	1453.00
549.50	1461.31
549.86	1469.49
550.21	1477.92
550.57	1486.51
550.92	1495.07
551.28	1503.21
551.64	1511.33
551.99	1519.10
552.35	1526.38
552.70	1534.29
553.06	1542.26
553.41	1550.45
553.77	1558.22
554.13	1566.00
554.48	1573.90
554.84	1581.21
555.19	1588.79
555.55	1595.86
555.90	1602.46
556.26	1609.20
556.61	1615.80
556.97	1622.46
557.32	1629.52
557.68	1635.60
558.03	1641.92
558.39	1648.19
558.74	1655.03
559.10	1661.20
559.45	1667.19
559.81	1673.65
560.16	1679.17
560.52	1684.41
560.87	1690.37
561.23	1695.24
561.58	1700.57
561.94	1705.49
562.29	1709.99
562.64	1714.71
563.00	1719.26
563.35	1724.60
563.71	1730.19
564.06	1735.51
564.42	1740.46
564.77	1744.93
565.12	1749.86
565.48	1754.36
565.83	1758.17
566.19	1762.17
566.54	1765.69
566.89	1769.27
567.25	1772.39
567.60	1776.70
567.96	1780.06
568.31	1782.73
568.66	1785.86
569.02	1789.00
569.37	1791.40
569.72	1794.29
570.08	1796.98
570.43	1799.33
570.78	1800.84
571.14	1801.59
571.49	1802.98
571.84	1805.28
572.20	1806.69
572.55	1807.88
572.90	1808.65
573.26	1810.21
573.61	1810.82
573.96	1811.38
574.31	1810.78
574.67	1810.53
575.02	1809.42
575.37	1809.44
575.72	1808.70
576.08	1808.26
576.43	1806.97
576.78	1806.42
577.13	1806.55
577.49	1805.88
577.84	1804.59
578.19	1803.72
578.54	1802.73
578.90	1801.11
579.25	1798.67
579.60	1796.97
579.95	1794.90
580.30	1792.95
580.66	1790.23
581.01	1787.90
581.36	1786.10
581.71	1784.83
582.06	1782.66
582.42	1780.21
582.77	1777.36
583.12	1774.71
583.47	1772.52
583.82	1770.69
584.17	1767.64
584.53	1764.20
584.88	1761.39
585.23	1758.91
585.58	1756.15
585.93	1753.54
586.28	1751.04
586.63	1748.61
586.98	1745.85
587.34	1743.00
587.69	1740.06
588.04	1737.53
588.39	1734.26
588.74	1730.24
589.09	1726.34
589.44	1722.76
589.79	1719.93
590.14	1716.73
590.49	1713.83
590.84	1710.00
591.19	1706.33
591.54	1702.35
591.89	1697.60
592.25	1693.58
592.60	1688.83
592.95	1684.24
593.30	1679.73
593.65	1674.94
594.00	1670.19
594.35	1665.76
594.70	1660.64
595.05	1656.01
595.40	1650.88
595.75	1646.08
596.10	1642.19
596.45	1638.16
596.80	1634.19
597.15	1630.05
597.50	1625.61
597.85	1620.77
598.19	1616.53
598.54	1612.11
598.89	1608.22
599.24	1604.95
599.59	1600.35
599.94	1596.68
600.29	1592.28
600.64	1587.81
600.99	1582.90
601.34	1578.39
601.69	1573.22
602.04	1568.97
602.39	1564.23
602.74	1560.26
603.08	1556.28
603.43	1551.58
603.78	1546.40
604.13	1541.71
604.48	1536.43
604.83	1531.69
605.18	1527.22
605.53	1521.64
605.87	1515.46
606.22	1510.33
606.57	1504.53
606.92	1499.11
607.27	1493.57
607.62	1488.61
607.96	1483.37
608.31	1478.70
608.66	1472.84
609.01	1467.19
609.36	1461.08
609.70	1454.69
610.05	1448.03
610.40	1441.98
610.75	1435.74
611.10	1429.90
611.44	1422.95
611.79	1417.04
612.14	1410.36
612.49	1403.06
612.83	1396.75
613.18	1390.70
613.53	1384.16
613.88	1377.69
614.22	1371.52
614.57	1364.84
614.92	1358.29
615.27	1352.14
615.61	1345.16
615.96	1338.98
616.31	1333.13
616.65	1327.92
617.00	1322.27
617.35	1316.29
617.70	1309.81
618.04	1303.50
618.39	1297.16
618.74	1291.47
619.08	1284.84
619.43	1278.90
619.78	1273.26
620.12	1267.28
620.47	1261.26
620.82	1255.21
621.16	1249.25
621.51	1243.32
621.85	1237.30
622.20	1230.93
622.55	1224.65
622.89	1219.03
623.24	1213.10
623.59	1207.23
623.93	1200.70
624.28	1194.87
624.62	1189.04
624.97	1182.91
625.32	1177.16
625.66	1171.28
626.01	1165.34
626.35	1159.70
626.70	1153.34
627.04	1147.50
627.39	1141.30
627.73	1135.24
628.08	1129.28
628.43	1123.19
628.77	1116.94
629.12	1110.83
629.46	1105.00
629.81	1098.68
630.15	1092.29
630.50	1086.12
630.84	1079.34
631.19	1072.93
631.53	1066.63
631.88	1060.02
632.22	1053.59
632.57	1047.56
632.91	1041.16
633.26	1034.87
633.60	1028.31
633.95	1022.63
634.29	1016.99
634.64	1011.51
634.98	1005.70
635.32	999.98
635.67	994.37
636.01	988.58
636.36	983.03
636.70	977.60
637.05	972.55
637.39	967.44
637.73	961.99
638.08	957.50
638.42	952.79
638.77	947.65
639.11	942.54
639.45	937.77
639.80	932.46
640.14	927.75
640.49	922.69
640.83	917.64
641.17	912.62
641.52	906.91
641.86	901.59
642.20	896.75
642.55	891.72
642.89	886.60
643.23	881.56
643.58	876.82
643.92	871.50
644.26	866.23
644.61	861.33
644.95	856.50
645.29	850.55
645.64	844.99
645.98	839.57
646.32	834.62
646.66	829.50
647.01	824.37
647.35	819.37
647.69	814.41
648.04	809.80
648.38	804.46
648.72	799.50
649.06	794.24
649.41	789.10
649.75	783.60
650.09	778.46
650.43	773.26
650.78	767.96
651.12	762.88
651.46	757.88
651.80	752.88
652.14	747.97
652.49	743.49
652.83	738.99
653.17	734.33
653.51	729.43
653.85	724.56
654.20	719.63
654.54	714.52
654.88	709.65
655.22	704.48
655.56	699.54
655.90	694.97
656.25	690.54
656.59	686.03
656.93	681.52
657.27	677.35
657.61	672.79
657.95	668.47
658.29	664.27
658.64	659.59
658.98	654.94
659.32	650.19
659.66	645.82
660.00	641.16
660.34	636.82
660.68	632.42
661.02	628.30
661.36	624.33
661.70	620.33
662.05	616.49
662.39	612.92
662.73	609.56
663.07	605.62
663.41	602.05
663.75	598.14
664.09	594.60
664.43	590.67
664.77	587.20
665.11	583.56
665.45	579.99
665.79	576.59
666.13	572.88
666.47	569.61
666.81	566.03
667.15	562.70
667.49	559.42
667.83	556.47
668.17	552.99
668.51	549.71
668.85	546.38
669.19	543.26
669.53	539.88
669.87	536.30
670.21	533.41
670.55	530.21
670.89	527.35
671.23	524.29
671.57	521.31
671.91	518.37
672.25	515.37
672.58	512.32
672.92	509.50
673.26	507.00
673.60	504.27
673.94	501.57
674.28	499.05
674.62	496.54
674.96	493.69
675.30	491.24
675.64	488.60
675.97	486.03
676.31	483.38
676.65	480.91
676.99	478.64
677.33	475.81
677.67	473.25
678.01	470.60
678.34	468.13
678.68	465.64
679.02	463.12
679.36	460.82
679.70	458.60
680.04	456.13
680.37	453.64
680.71	451.34
681.05	449.16
681.39	446.78
681.73	444.50
682.06	442.37
682.40	440.17
682.74	438.09
683.08	435.97
683.42	433.62
683.75	431.34
684.09	429.00
684.43	427.09
684.77	425.00
685.10	422.93
685.44	420.91
685.78	418.88
686.12	416.91
686.45	414.82
686.79	412.73
687.13	410.90
687.46	408.99
687.80	407.00
688.14	404.88
688.48	402.87
688.81	400.70
689.15	398.85
689.49	396.92
689.82	394.95
690.16	392.93
690.50	391.27
690.83	389.38
691.17	387.67
691.51	385.91
691.84	384.09
692.18	382.48
692.52	380.65
692.85	378.94
693.19	377.20
693.52	375.50
693.86	373.63
694.20	371.81
694.53	370.22
694.87	368.22
695.21	366.50
695.54	364.87
695.88	363.23
696.21	361.46
696.55	359.88
696.88	358.12
697.22	356.70
697.56	355.14
697.89	353.73
698.23	352.14
698.56	350.50
698.90	349.10
699.23	347.38
699.57	345.88
699.90	344.35
700.24	342.90
700.58	341.51
700.91	340.22
701.25	339.11
701.58	337.66
701.92	336.57
702.25	335.38
702.59	334.15
702.92	332.88
703.26	331.73
703.59	330.45
703.93	329.57
704.26	328.52
704.60	327.20
704.93	326.05
705.26	324.91
705.60	323.80
705.93	322.70
706.27	321.73
706.60	320.84
706.94	319.87
707.27	318.72
707.61	317.63
707.94	316.62
708.27	315.35
708.61	314.35
708.94	313.30
709.28	312.42
709.61	311.32
709.94	310.48
710.28	309.50
710.61	308.44
710.95	307.29
711.28	306.35
711.61	305.45
711.95	304.40
712.28	303.55
712.61	302.61
712.95	301.78
713.28	300.92
713.61	300.00
713.95	299.20
714.28	298.32
714.61	297.45
714.95	296.60
715.28	295.84
715.61	294.97
715.95	294.23
716.28	293.35
716.61	292.69
716.95	291.88
717.28	291.21
717.61	290.53
717.94	289.99
718.28	289.22
718.61	288.50
718.94	288.02
719.27	287.30
719.61	286.73
719.94	286.00
720.27	285.25
720.60	284.63
720.94	283.96
721.27	283.48
721.60	282.98
721.93	282.50
722.27	282.11
722.60	281.58
722.93	281.05
723.26	280.56
723.59	280.00
723.93	279.52
724.26	279.08
724.59	278.67
724.92	278.12
725.25	277.58
725.59	277.13
725.92	276.55
726.25	276.10
726.58	275.56
726.91	275.08
727.24	274.76
727.57	274.33
727.91	273.74
728.24	273.29
728.57	272.79
728.90	272.35
729.23	271.70
729.56	271.31
729.89	270.75
730.22	270.23
730.55	269.75
730.89	269.37
731.22	268.80
731.55	268.35
731.88	267.82
732.21	267.32
732.54	266.84
732.87	266.42
733.20	266.08
733.53	265.76
733.86	265.37
734.19	264.87
734.52	264.44
734.85	264.23
735.18	263.82
735.51	263.50
735.84	263.13
736.17	262.81
736.50	262.23
736.83	262.10
737.16	261.59
737.49	261.23
737.82	260.74
738.15	260.30
738.48	259.91
738.81	259.50
739.14	259.09
739.47	258.83
739.80	258.41
740.13	257.95
740.46	257.43
740.79	257.02
741.12	256.65
741.45	256.28
741.78	255.84
742.11	255.52
742.44	255.02
742.77	254.68
743.10	254.34
743.43	254.06
743.75	253.53
744.08	253.49
744.41	253.24
744.74	252.89
745.07	252.63
745.40	252.36
745.73	252.12
746.06	251.84
746.39	251.50
746.71	251.25
747.04	250.94
747.37	250.66
747.70	250.37
748.03	250.10
748.36	249.82
748.68	249.54
749.01	249.20
749.34	249.00
749.67	248.72
750.00	248.53
750.33	248.46
750.65	248.41
750.98	248.03
751.31	247.70
751.64	247.62
751.97	247.37
752.29	247.19
752.62	246.97
752.95	246.93
753.28	246.78
753.60	246.52
753.93	246.44
754.26	246.22
754.59	246.02
754.91	245.86
755.24	245.70
755.57	245.53
755.90	245.34
756.22	245.20
756.55	244.91
756.88	244.61
757.20	244.36
757.53	244.00
757.86	243.88
758.19	243.78
758.51	243.51
758.84	243.49
759.17	243.28
759.49	243.10
759.82	242.97
760.15	242.76
760.47	242.68
760.80	242.42
761.13	242.40
761.45	242.31
761.78	242.18
762.11	242.00
762.43	241.88
762.76	241.82
763.08	241.74
763.41	241.70
763.74	241.65
764.06	241.53
764.39	241.38
764.71	241.18
765.04	241.04
765.37	240.95
765.69	240.70
766.02	240.52
766.34	240.43
766.67	240.18
767.00	240.12
767.32	240.04
767.65	240.15
767.97	239.99
768.30	239.88
768.62	239.74
768.95	239.61
769.27	239.48
769.60	239.38
769.92	239.18
770.25	239.11
770.57	238.88
770.90	238.70
771.22	238.61
771.55	238.50
771.87	238.40
772.20	238.25
772.52	238.33
772.85	238.48
773.17	238.34
773.50	238.25
773.82	238.12
774.15	237.90
774.47	237.65
774.80	237.57
775.12	237.38
775.45	237.32
775.77	237.32
776.09	237.19
776.42	237.13
776.74	237.03
777.07	236.83
777.39	236.73
777.72	236.69
778.04	236.52
778.36	236.49
778.69	236.36
779.01	236.29
779.33	236.02
779.66	235.67
779.98	235.57
780.31	235.48
780.63	235.49
780.95	235.50
781.28	235.31
781.60	235.10
781.92	235.18
782.25	235.05
782.57	234.85
782.89	234.78
783.22	234.58
783.54	234.45
783.86	234.36
784.19	234.28
784.51	234.16
784.83	234.06
785.16	233.94
785.48	233.84
785.80	233.82
786.12	233.66
786.45	233.70
786.77	233.75
787.09	233.66
787.42	233.49
787.74	233.45
788.06	233.45
788.38	233.49
788.71	233.31
789.03	233.29
789.35	233.32
789.67	233.25
789.99	233.34
790.32	233.29
790.64	233.28
790.96	233.45
791.28	233.40
791.61	233.30
791.93	233.28
792.25	233.29
792.57	233.39
792.89	233.36
793.21	233.28
793.54	233.05
793.86	233.08
794.18	233.00
794.50	232.90
794.82	232.83
795.14	232.91
795.47	232.90
795.79	232.85
796.11	232.70
796.43	232.72
796.75	232.62
797.07	232.58
797.39	232.54
797.71	232.39
798.04	232.42
798.36	232.58
798.68	232.50
799.00	232.42
799.32	232.20
799.64	232.29
799.96	232.31
800.28	232.38
800.60	232.26
800.92	232.34
801.24	232.30
801.56	232.36
801.89	232.34
802.21	232.41
802.53	232.35
802.85	232.51
803.17	232.48
803.49	232.42
803.81	232.34
804.13	232.36
804.45	232.21
804.77	232.12
805.09	232.04
805.41	232.06
805.73	232.05
806.05	232.06
806.37	232.02
806.69	231.91
807.01	231.80
807.33	231.83
807.65	231.61
807.97	231.60
808.28	231.50
808.60	231.30
808.92	231.16
809.24	231.29
809.56	231.08
809.88	231.05
810.20	230.93
810.52	231.04
810.84	230.96
811.16	231.00
811.48	231.08
811.80	231.20
812.12	231.15
812.43	231.20
812.75	231.14
813.07	231.01
813.39	230.88
813.71	230.87
814.03	230.85
814.35	230.97
814.67	231.00
814.98	230.96
815.30	230.93
815.62	230.86
815.94	230.64
816.26	230.64
816.58	230.50
816.89	230.58
817.21	230.50
817.53	230.50
817.85	230.53
818.17	230.30
818.48	230.12
818.80	230.20
819.12	230.05
819.44	229.98
819.76	229.99
820.07	230.03
820.39	230.03
820.71	229.86
821.03	229.77
821.34	229.73
821.66	229.74
821.98	229.74
822.30	229.71
822.61	229.80
822.93	229.80
823.25	229.83
823.57	229.73
823.88	229.70
824.20	229.61
824.52	229.53
824.83	229.63
825.15	229.59
825.47	229.42
825.79	229.47
826.10	229.46
826.42	229.46
826.74	229.51
827.05	229.51
827.37	229.71
827.69	229.68
828.00	229.60
828.32	229.57
828.64	229.55
828.95	229.69
829.27	229.70
829.58	229.69
829.90	229.80
830.22	229.89
830.53	229.89
830.85	229.91
831.17	229.92
831.48	229.91
831.80	229.93
832.11	230.00
832.43	229.85
832.75	229.84
833.06	229.93
833.38	229.89
833.69	229.83
834.01	229.77
834.32	229.82
834.64	229.84
834.96	229.94
835.27	229.99
835.59	229.91
835.90	229.80
836.22	229.80
836.53	229.63
836.85	229.61
837.16	229.80
837.48	229.89
837.79	229.90
838.11	229.91
838.42	229.95
838.74	229.93
839.05	230.12
839.37	230.13
839.68	229.96
840.00	229.95
840.31	230.05
840.63	230.08
840.94	229.95
841.26	229.90
841.57	229.84
841.88	229.85
842.20	229.80
842.51	229.80
842.83	229.76
843.14	229.97
843.46	229.91
843.77	229.79
844.08	229.63
844.40	229.64
844.71	229.63
845.03	229.52
845.34	229.45
845.65	229.33
845.97	229.34
846.28	229.40
846.60	229.41
846.91	229.30
847.22	229.18
847.54	229.30
847.85	229.20
848.16	229.08
848.48	228.96
848.79	229.06
849.10	229.05
849.42	229.01
849.73	228.84
850.04	228.78
850.36	228.64
850.67	228.75
850.98	228.71
851.30	228.70
851.61	228.68
851.92	228.77
852.23	228.77
852.55	228.80
852.86	228.64
853.17	228.64
853.49	228.66
853.80	228.73
854.11	228.73
854.42	228.80
854.74	228.79
855.05	228.90
855.36	228.74
855.67	228.67
855.99	228.77
856.30	228.92
856.61	229.01
856.92	229.06
857.23	229.05
857.55	228.97
857.86	228.94
858.17	228.98
858.48	228.92
858.79	228.99
859.11	228.93
859.42	229.01
859.73	228.98
860.04	228.97
860.35	228.87
860.66	228.78
860.98	228.81
861.29	228.83
861.60	228.80
861.91	228.81
862.22	228.77
862.53	228.65
862.84	228.42
863.16	228.38
863.47	228.30
863.78	228.29
864.09	228.30
864.40	228.23
864.71	228.29
865.02	228.25
865.33	228.17
865.64	228.11
865.95	228.12
866.27	228.17
866.58	228.13
866.89	228.22
867.20	228.27
867.51	228.11
867.82	228.20
868.13	228.17
868.44	228.17
868.75	228.26
869.06	228.31
869.37	228.31
869.68	228.30
869.99	228.34
870.30	228.20
870.61	228.20
870.92	228.22
871.23	228.22
871.54	228.21
871.85	228.16
872.16	228.20
872.47	228.30
872.78	228.30
873.09	228.33
873.40	228.28
873.71	228.26
874.02	228.43
874.33	228.25
874.64	228.29
874.95	228.27
875.26	228.18
875.56	228.16
875.87	228.24
876.18	228.34
876.49	228.53
876.80	228.61
877.11	228.60
877.42	228.66
877.73	228.58
878.04	228.58
878.35	228.67
878.66	228.66
878.96	228.53
879.27	228.45
879.58	228.40
879.89	228.39
880.20	228.44
880.51	228.42
880.82	228.44
881.12	228.49
881.43	228.43
881.74	228.51
882.05	228.33
882.36	228.31
882.67	228.22
882.97	228.07
883.28	228.05
883.59	228.05
883.90	228.02
884.21	228.10
884.51	228.11
884.82	228.09
885.13	228.15
885.44	228.18
885.74	228.24
886.05	228.23
886.36	228.24
886.67	228.16
886.98	228.23
887.28	228.38
887.59	228.33
887.90	228.38
888.20	228.33
888.51	228.55
888.82	228.55
889.13	228.55
889.43	228.70
889.74	228.68
890.05	228.69
890.35	228.64
890.66	228.60
890.97	228.56
891.28	228.46
891.58	228.48
891.89	228.47
892.20	228.43
892.50	228.44
892.81	228.45
893.12	228.46
893.42	228.37
893.73	228.31
894.04	228.32
894.34	228.48
894.65	228.56
894.95	228.54
895.26	228.48
895.57	228.52
895.87	228.36
896.18	228.36
896.48	228.43
896.79	228.51
897.10	228.52
897.40	228.60
897.71	228.76
898.01	228.73
898.32	228.77
898.63	228.75
898.93	228.81
899.24	228.82
899.54	228.85
899.85	228.85
900.15	228.86
900.46	228.90
900.76	228.79
901.07	228.78
901.38	228.73
901.68	228.81
901.99	228.81
902.29	228.88
902.60	228.90
902.90	228.90
903.21	228.85
903.51	228.86
903.82	228.79
904.12	228.79
904.43	228.86
904.73	228.94
905.03	228.91
905.34	229.10
905.64	229.03
905.95	229.08
906.25	229.04
906.56	228.91
906.86	228.85
907.17	228.80
907.47	228.75
907.77	228.69
908.08	228.65
908.38	228.61
908.69	228.51
908.99	228.60
909.30	228.50
909.60	228.49
909.90	228.52
910.21	228.55
910.51	228.43
910.81	228.36
911.12	228.25
911.42	228.34
911.73	228.18
912.03	228.22
912.33	228.17
912.64	228.12
912.94	228.17
913.24	228.11
913.55	228.06
913.85	228.13
914.15	228.24
914.46	228.26
914.76	228.29
915.06	228.35
915.37	228.36
915.67	228.40
915.97	228.45
916.27	228.36
916.58	228.35
916.88	228.43
917.18	228.40
917.49	228.59
917.79	228.58
918.09	228.60
918.39	228.63
918.70	228.69
919.00	228.81
919.30	228.90
919.60	229.01
919.91	229.12
920.21	229.15
920.51	229.12
920.81	229.10
921.12	229.08
921.42	229.07
921.72	229.02
922.02	229.06
922.32	229.03
922.63	229.06
922.93	229.15
923.23	229.13
923.53	229.14
923.83	228.98
924.13	228.93
924.44	228.85
924.74	228.97
925.04	228.98
925.34	228.88
925.64	228.84
925.94	228.76
926.24	228.83
926.55	228.71
926.85	228.69
927.15	228.68
927.45	228.69
927.75	228.60
928.05	228.54
928.35	228.56
928.65	228.61
928.95	228.64
929.26	228.64
929.56	228.70
929.86	228.69
930.16	228.79
930.46	228.81
930.76	228.86
931.06	228.72
931.36	228.72
931.66	228.76
931.96	228.86
932.26	228.84
932.56	228.75
932.86	228.85
933.16	228.87
933.46	228.80
933.76	228.85
934.06	228.92
934.36	228.93
934.66	228.84
934.96	228.77
935.26	228.73
935.56	228.67
935.86	228.57
936.16	228.60
936.46	228.50
936.76	228.42
937.06	228.31
937.36	228.31
937.66	228.24
937.96	228.27
938.26	228.08
938.56	228.09
938.86	228.04
939.16	227.97
939.46	227.96
939.76	228.10
940.06	228.02
940.35	227.94
940.65	227.84
940.95	227.91
941.25	227.96
941.55	227.97
941.85	227.89
942.15	227.94
942.45	227.86
942.75	227.87
943.04	227.93
943.34	227.94
943.64	227.96
943.94	228.01
944.24	228.03
944.54	228.17
944.84	228.13
945.13	228.20
945.43	228.12
945.73	228.24
946.03	228.14
946.33	228.11
946.62	228.11
946.92	228.19
947.22	228.14
947.52	228.08
947.82	228.21
948.11	228.21
948.41	228.06
948.71	228.11
949.01	228.15
949.31	228.18
949.60	228.34
949.90	228.30
950.20	228.20
950.50	228.12
950.79	227.98
951.09	228.03
951.39	227.92
951.69	228.01
951.98	227.92
952.28	227.91
952.58	228.00
952.87	228.03
953.17	228.02
953.47	228.02
953.76	228.03
954.06	227.96
954.36	228.01
954.66	228.08
954.95	228.15
955.25	228.08
955.55	228.05
955.84	228.02
956.14	228.02
956.44	228.14
956.73	228.20
957.03	228.33
957.32	228.31
957.62	228.31
957.92	228.43
958.21	228.49
958.51	228.78
958.81	228.80
959.10	228.86
959.40	229.06
959.69	229.16
959.99	229.26
960.29	229.21
960.58	229.28
960.88	229.42
961.17	229.50
961.47	229.57
961.76	229.59
962.06	229.60
962.36	229.59
962.65	229.56
962.95	229.57
963.24	229.52
963.54	229.62
963.83	229.62
964.13	229.49
964.42	229.40
964.72	229.25
965.01	229.24
965.31	229.21
965.60	229.09
965.90	229.16
966.19	229.05
966.49	229.09
966.78	229.17
967.08	229.10
967.37	229.01
967.67	229.07
967.96	229.10
968.26	229.09
968.55	229.16
968.85	229.13
969.14	228.99
969.43	229.02
969.73	229.04
970.02	229.00
970.32	229.08
970.61	228.98
970.91	228.90
971.20	228.81
971.49	228.86
971.79	228.78
972.08	228.50
972.38	228.57
972.67	228.52
972.96	228.46
973.26	228.39
973.55	228.40
973.85	228.31
974.14	228.27
974.43	228.16
974.73	228.14
975.02	228.04
975.31	228.09
975.61	228.18
975.90	228.09
976.19	228.15
976.49	228.07
976.78	228.17
977.07	228.06
977.37	228.02
977.66	228.01
977.95	227.98
978.24	228.06
978.54	228.00
978.83	228.04
979.12	227.85
979.42	227.73
979.71	227.60
980.00	227.57
980.29	227.50
980.59	227.49
980.88	227.39
981.17	227.45
981.46	227.52
981.76	227.34
982.05	227.33
982.34	227.30
982.63	227.32
982.93	227.34
983.22	227.42
983.51	227.42
983.80	227.45
984.09	227.54
984.39	227.50
984.68	227.49
984.97	227.46
985.26	227.42
985.55	227.49
985.85	227.51
986.14	227.53
986.43	227.71
986.72	227.73
987.01	227.80
987.30	227.72
987.59	227.64
987.89	227.64
988.18	227.61
988.47	227.63
988.76	227.58
989.05	227.54
989.34	227.56
989.63	227.67
989.92	227.59
990.22	227.50
990.51	227.57
990.80	227.55
991.09	227.58
991.38	227.69
991.67	227.77
991.96	227.73
992.25	227.70
992.54	227.58
992.83	227.66
993.12	227.66
993.41	227.75
993.70	227.80
993.99	227.81
994.28	227.81
994.58	227.87
994.87	227.90
995.16	227.89
995.45	227.95
995.74	227.94
996.03	227.99
996.32	228.18
996.61	228.27
996.90	228.32
997.19	228.23
997.48	228.35
997.77	228.40
998.06	228.56
998.34	228.65
998.63	228.77
998.92	228.81
999.21	228.80
999.50	228.89
999.79	228.98
1000.08	229.13
1000.37	229.12
1000.66	229.13
1000.95	229.24
1001.24	229.34
1001.53	229.30
1001.82	229.29
1002.11	229.22
1002.40	229.16
1002.68	229.24
1002.97	229.42
1003.26	229.52
1003.55	229.49
1003.84	229.46
1004.13	229.42
1004.42	229.36
1004.71	229.30
1004.99	229.24
1005.28	229.30
1005.57	229.20
1005.86	229.17
1006.15	229.07
1006.44	229.03
1006.72	229.06
1007.01	229.02
1007.30	228.90
1007.59	228.92
1007.88	228.90
1008.17	228.97
1008.45	228.93
1008.74	228.79
1009.03	228.64
1009.32	228.57
1009.60	228.59
1009.89	228.56
1010.18	228.49
1010.47	228.45
1010.76	228.44
1011.04	228.46
1011.33	228.40
1011.62	228.36
1011.91	228.27
1012.19	228.31
1012.48	228.30
1012.77	228.21
1013.05	228.29
1013.34	228.33
1013.63	228.19
1013.92	228.19
1014.20	228.04
1014.49	228.03
1014.78	228.05
1015.06	227.92
1015.35	227.85
1015.64	227.81
1015.92	227.77
1016.21	227.76
1016.50	227.74
1016.78	227.75
1017.07	227.66
1017.36	227.56
1017.64	227.55
1017.93	227.59
1018.22	227.51
1018.50	227.45
1018.79	227.40
1019.08	227.27
1019.36	227.27
1019.65	227.35
1019.93	227.29
1020.22	227.45
1020.51	227.47
1020.79	227.34
1021.08	227.40
1021.36	225.20
1021.65	226.60
1021.94	227.60
1022.22	227.80
1022.51	227.70
1022.79	227.10
1023.08	229.20
1023.36	228.90
1023.65	225.80
>>>>>End Processed Spectral Data<<<<<
