SpectraSuite Data File
++++++++++++++++++++++++++++++++++++
Date: Fri Feb 01 14:36:05 EST 2013
User: group
Dark Spectrum Present: No
Reference Spectrum Present: No
Number of Sampled Component Spectra: 1
Spectrometers: USB2E7196
Integration Time (usec): 70000 (USB2E7196)
Spectra Averaged: 10 (USB2E7196)
Boxcar Smoothing: 10 (USB2E7196)
Correct for Electrical Dark: No (USB2E7196)
Strobe/Lamp Enabled: No (USB2E7196)
Correct for Detector Non-linearity: No (USB2E7196)
Correct for Stray Light: No (USB2E7196)
Number of Pixels in Processed Spectrum: 2048
>>>>>Begin Processed Spectral Data<<<<<
339.09	0.00
339.48	216.70
339.86	217.90
340.24	217.70
340.63	220.30
341.01	224.60
341.39	222.10
341.78	225.50
342.16	225.50
342.54	227.00
342.93	214.69
343.31	225.54
343.69	226.05
344.07	226.48
344.46	226.94
344.84	227.35
345.22	227.49
345.60	227.81
345.99	227.90
346.37	228.00
346.75	228.00
347.13	228.01
347.52	228.07
347.90	228.24
348.28	228.18
348.66	228.25
349.05	228.07
349.43	228.01
349.81	228.06
350.19	228.18
350.57	228.22
350.96	228.32
351.34	228.30
351.72	228.40
352.10	228.57
352.48	228.64
352.87	228.64
353.25	228.73
353.63	228.82
354.01	228.86
354.39	228.98
354.77	229.12
355.15	229.25
355.54	229.30
355.92	229.25
356.30	229.41
356.68	229.62
357.06	229.76
357.44	229.85
357.82	229.88
358.20	230.00
358.58	230.08
358.97	230.15
359.35	230.36
359.73	230.45
360.11	230.44
360.49	230.57
360.87	230.67
361.25	230.74
361.63	230.74
362.01	230.83
362.39	230.88
362.77	230.98
363.15	230.95
363.53	230.95
363.91	231.01
364.29	231.02
364.67	230.80
365.05	230.81
365.43	230.82
365.81	230.79
366.19	230.84
366.57	230.98
366.95	230.90
367.33	230.72
367.71	230.69
368.09	230.79
368.47	230.72
368.85	230.55
369.23	230.61
369.61	230.54
369.99	230.64
370.37	230.67
370.75	230.64
371.13	230.62
371.51	230.43
371.89	230.37
372.27	230.25
372.65	230.23
373.03	230.09
373.41	230.02
373.78	229.98
374.16	229.74
374.54	229.59
374.92	229.55
375.30	229.52
375.68	229.39
376.06	229.27
376.44	229.11
376.82	229.16
377.19	229.04
377.57	228.98
377.95	228.72
378.33	228.53
378.71	228.27
379.09	228.22
379.47	228.24
379.84	228.11
380.22	227.96
380.60	227.89
380.98	227.83
381.36	227.74
381.73	227.70
382.11	227.69
382.49	227.59
382.87	227.48
383.25	227.41
383.62	227.46
384.00	227.28
384.38	227.26
384.76	227.31
385.13	227.19
385.51	227.15
385.89	227.05
386.27	226.92
386.64	226.94
387.02	226.95
387.40	227.01
387.78	227.00
388.15	227.09
388.53	227.05
388.91	227.03
389.29	227.00
389.66	227.05
390.04	227.03
390.42	227.05
390.79	227.05
391.17	227.09
391.55	226.98
391.92	227.03
392.30	227.00
392.68	226.82
393.05	226.97
393.43	226.93
393.81	227.05
394.18	227.14
394.56	227.16
394.94	227.11
395.31	227.09
395.69	227.20
396.06	227.25
396.44	227.29
396.82	227.49
397.19	227.61
397.57	227.63
397.95	227.78
398.32	227.80
398.70	227.95
399.07	228.10
399.45	228.21
399.82	228.37
400.20	228.58
400.58	228.72
400.95	228.62
401.33	228.82
401.70	229.11
402.08	229.32
402.45	229.47
402.83	229.77
403.20	229.89
403.58	230.10
403.95	230.36
404.33	230.65
404.71	230.78
405.08	231.10
405.46	231.28
405.83	231.54
406.21	231.74
406.58	231.91
406.96	232.19
407.33	232.50
407.70	232.70
408.08	233.19
408.45	233.68
408.83	234.20
409.20	234.59
409.58	234.89
409.95	235.37
410.33	235.91
410.70	236.37
411.08	237.05
411.45	237.67
411.82	238.20
412.20	238.84
412.57	239.68
412.95	240.21
413.32	241.16
413.69	241.90
414.07	242.85
414.44	243.93
414.82	245.04
415.19	246.20
415.56	247.47
415.94	248.62
416.31	249.99
416.68	251.38
417.06	253.09
417.43	254.58
417.81	256.30
418.18	257.97
418.55	259.80
418.93	261.67
419.30	263.62
419.67	265.88
420.04	268.14
420.42	270.42
420.79	273.28
421.16	275.77
421.54	278.58
421.91	281.38
422.28	284.21
422.66	287.22
423.03	290.36
423.40	293.56
423.77	296.84
424.15	300.17
424.52	303.80
424.89	307.64
425.26	311.51
425.64	315.01
426.01	319.03
426.38	323.10
426.75	327.33
427.13	331.69
427.50	336.04
427.87	340.65
428.24	345.23
428.61	349.59
428.99	354.55
429.36	359.88
429.73	365.16
430.10	370.46
430.47	375.60
430.85	380.92
431.22	386.57
431.59	392.88
431.96	398.68
432.33	405.00
432.70	411.10
433.08	418.39
433.45	425.48
433.82	432.25
434.19	439.88
434.56	447.32
434.93	454.40
435.30	461.51
435.68	469.40
436.05	477.06
436.42	484.76
436.79	491.73
437.16	499.20
437.53	507.26
437.90	515.33
438.27	523.13
438.64	531.26
439.01	538.95
439.38	545.40
439.75	551.83
440.13	559.12
440.50	566.28
440.87	572.11
441.24	577.90
441.61	584.75
441.98	589.70
442.35	595.39
442.72	601.16
443.09	606.86
443.46	610.53
443.83	613.12
444.20	615.47
444.57	618.78
444.94	620.85
445.31	622.73
445.68	624.46
446.05	626.13
446.42	626.01
446.79	625.86
447.16	625.80
447.53	626.23
447.90	624.32
448.27	621.98
448.64	618.73
449.01	616.88
449.37	612.29
449.74	608.06
450.11	602.77
450.48	597.20
450.85	591.24
451.22	586.21
451.59	581.58
451.96	577.17
452.33	570.89
452.70	565.14
453.07	558.20
453.43	551.19
453.80	544.13
454.17	537.63
454.54	531.18
454.91	524.30
455.28	517.44
455.65	511.13
456.02	504.97
456.38	499.34
456.75	492.30
457.12	486.66
457.49	480.98
457.86	475.51
458.23	470.58
458.59	465.42
458.96	460.09
459.33	455.24
459.70	450.24
460.07	446.28
460.43	441.76
460.80	437.36
461.17	433.41
461.54	429.39
461.91	425.48
462.27	421.60
462.64	418.22
463.01	414.39
463.38	410.95
463.74	407.33
464.11	404.28
464.48	401.52
464.85	398.45
465.21	396.16
465.58	393.62
465.95	390.63
466.32	388.02
466.68	385.41
467.05	383.06
467.42	380.62
467.78	378.10
468.15	375.60
468.52	373.83
468.88	371.43
469.25	369.17
469.62	367.62
469.98	365.78
470.35	364.06
470.72	362.50
471.08	360.54
471.45	359.02
471.82	357.40
472.18	355.73
472.55	354.60
472.92	353.05
473.28	351.69
473.65	350.45
474.02	349.19
474.38	348.19
474.75	347.01
475.11	345.99
475.48	345.10
475.85	344.34
476.21	343.44
476.58	342.83
476.94	342.34
477.31	341.73
477.67	341.07
478.04	340.47
478.41	340.04
478.77	339.86
479.14	339.33
479.50	339.05
479.87	338.62
480.23	338.29
480.60	337.96
480.96	337.73
481.33	337.69
481.69	337.57
482.06	337.45
482.42	337.47
482.79	337.50
483.15	337.67
483.52	337.99
483.88	338.24
484.25	338.34
484.61	338.53
484.98	338.61
485.34	339.21
485.71	339.74
486.07	340.21
486.44	340.59
486.80	341.30
487.17	341.82
487.53	342.77
487.90	343.52
488.26	344.58
488.62	345.42
488.99	346.30
489.35	347.44
489.72	348.47
490.08	349.65
490.44	350.79
490.81	352.01
491.17	353.02
491.54	354.15
491.90	355.59
492.26	356.95
492.63	358.37
492.99	359.72
493.36	361.10
493.72	362.70
494.08	364.18
494.45	365.63
494.81	367.40
495.17	368.98
495.54	370.79
495.90	372.39
496.26	374.20
496.63	375.93
496.99	377.75
497.35	379.55
497.72	381.53
498.08	383.35
498.44	385.00
498.80	387.10
499.17	389.22
499.53	390.98
499.89	393.01
500.26	394.82
500.62	396.53
500.98	398.57
501.34	400.39
501.71	402.40
502.07	404.23
502.43	405.96
502.79	407.80
503.16	409.41
503.52	411.20
503.88	412.86
504.24	414.68
504.60	416.33
504.97	418.11
505.33	419.57
505.69	421.35
506.05	423.10
506.41	424.44
506.78	425.76
507.14	427.16
507.50	428.42
507.86	430.06
508.22	431.48
508.59	432.71
508.95	433.96
509.31	435.20
509.67	436.59
510.03	437.61
510.39	438.79
510.75	439.91
511.12	440.89
511.48	441.84
511.84	442.64
512.20	443.37
512.56	444.27
512.92	445.10
513.28	445.53
513.64	446.04
514.00	446.74
514.37	447.30
514.73	448.00
515.09	448.69
515.45	449.15
515.81	449.49
516.17	449.91
516.53	450.42
516.89	450.60
517.25	451.08
517.61	451.62
517.97	451.85
518.33	452.12
518.69	452.41
519.05	452.91
519.41	453.34
519.77	453.97
520.13	454.22
520.49	454.71
520.85	455.26
521.21	455.80
521.57	456.23
521.93	456.63
522.29	457.19
522.65	457.56
523.01	457.86
523.37	458.32
523.73	458.84
524.09	459.20
524.45	460.08
524.81	460.51
525.17	461.27
525.53	462.05
525.89	462.89
526.25	463.76
526.61	464.40
526.97	465.25
527.33	466.04
527.68	467.22
528.04	468.07
528.40	469.02
528.76	470.19
529.12	471.33
529.48	472.72
529.84	473.85
530.20	475.30
530.56	476.83
530.91	478.73
531.27	480.24
531.63	482.12
531.99	483.81
532.35	485.69
532.71	487.40
533.07	489.45
533.42	491.55
533.78	493.34
534.14	495.53
534.50	497.59
534.86	499.80
535.21	501.81
535.57	504.22
535.93	506.76
536.29	509.13
536.65	511.70
537.00	514.45
537.36	517.08
537.72	519.46
538.08	522.25
538.44	524.78
538.79	527.75
539.15	530.17
539.51	532.96
539.87	535.80
540.22	538.80
540.58	541.94
540.94	544.97
541.29	548.17
541.65	551.46
542.01	554.90
542.37	558.05
542.72	561.40
543.08	564.55
543.44	567.97
543.79	571.08
544.15	574.53
544.51	578.04
544.87	581.64
545.22	585.39
545.58	588.83
545.94	592.41
546.29	596.02
546.65	599.84
547.01	603.47
547.36	607.10
547.72	610.81
548.07	614.38
548.43	617.84
548.79	621.56
549.14	625.19
549.50	629.04
549.86	632.75
550.21	636.31
550.57	640.19
550.92	643.92
551.28	647.98
551.64	651.70
551.99	655.42
552.35	659.25
552.70	663.01
553.06	667.07
553.41	671.04
553.77	674.71
554.13	678.70
554.48	682.60
554.84	686.59
555.19	690.50
555.55	694.25
555.90	698.29
556.26	702.13
556.61	705.84
556.97	709.33
557.32	713.31
557.68	717.54
558.03	721.36
558.39	725.03
558.74	728.99
559.10	732.73
559.45	736.39
559.81	740.34
560.16	744.08
560.52	747.70
560.87	751.38
561.23	755.20
561.58	759.06
561.94	762.69
562.29	766.16
562.64	769.52
563.00	773.03
563.35	776.59
563.71	780.46
564.06	783.86
564.42	787.47
564.77	790.90
565.12	794.11
565.48	797.62
565.83	800.92
566.19	804.19
566.54	807.61
566.89	810.70
567.25	813.76
567.60	816.99
567.96	820.16
568.31	823.13
568.66	826.07
569.02	828.55
569.37	831.04
569.72	833.90
570.08	836.65
570.43	839.43
570.78	841.79
571.14	844.06
571.49	846.81
571.84	849.36
572.20	851.48
572.55	853.70
572.90	855.44
573.26	857.96
573.61	859.80
573.96	861.55
574.31	863.18
574.67	864.67
575.02	866.19
575.37	867.70
575.72	869.00
576.08	870.50
576.43	871.92
576.78	873.74
577.13	875.18
577.49	876.52
577.84	877.66
578.19	878.98
578.54	880.20
578.90	881.00
579.25	881.73
579.60	882.67
579.95	883.28
580.30	884.17
580.66	884.50
581.01	884.81
581.36	885.57
581.71	886.36
582.06	886.82
582.42	886.93
582.77	887.25
583.12	887.86
583.47	888.30
583.82	888.60
584.17	888.63
584.53	888.80
584.88	888.91
585.23	888.86
585.58	888.95
585.93	888.68
586.28	888.84
586.63	888.78
586.98	889.00
587.34	889.34
587.69	889.52
588.04	889.34
588.39	889.65
588.74	888.96
589.09	888.43
589.44	887.93
589.79	887.66
590.14	887.51
590.49	887.02
590.84	886.13
591.19	885.60
591.54	884.58
591.89	883.29
592.25	882.43
592.60	881.35
592.95	880.17
593.30	879.05
593.65	877.76
594.00	876.57
594.35	875.76
594.70	873.79
595.05	872.26
595.40	870.81
595.75	869.35
596.10	868.28
596.45	867.29
596.80	866.27
597.15	865.32
597.50	863.57
597.85	862.13
598.19	861.19
598.54	860.10
598.89	858.98
599.24	858.22
599.59	856.56
599.94	855.46
600.29	854.20
600.64	852.60
600.99	850.83
601.34	849.28
601.69	847.00
602.04	845.68
602.39	844.14
602.74	842.82
603.08	841.36
603.43	840.05
603.78	838.30
604.13	836.44
604.48	834.36
604.83	832.93
605.18	831.45
605.53	829.24
605.87	827.11
606.22	825.05
606.57	822.89
606.92	821.09
607.27	819.26
607.62	817.55
607.96	816.04
608.31	814.59
608.66	812.39
609.01	810.17
609.36	807.93
609.70	805.48
610.05	802.88
610.40	800.58
610.75	797.89
611.10	795.36
611.44	792.74
611.79	790.61
612.14	787.75
612.49	784.61
612.83	782.01
613.18	779.42
613.53	777.07
613.88	774.20
614.22	771.63
614.57	768.68
614.92	765.68
615.27	763.05
615.61	760.08
615.96	757.69
616.31	755.24
616.65	753.20
617.00	750.71
617.35	748.26
617.70	745.38
618.04	742.86
618.39	740.20
618.74	737.79
619.08	734.94
619.43	732.61
619.78	730.28
620.12	727.71
620.47	725.07
620.82	722.17
621.16	719.76
621.51	717.55
621.85	715.12
622.20	712.41
622.55	709.65
622.89	707.41
623.24	704.87
623.59	702.58
623.93	699.79
624.28	697.48
624.62	695.19
624.97	692.87
625.32	690.32
625.66	687.92
626.01	685.46
626.35	683.04
626.70	680.40
627.04	677.89
627.39	675.32
627.73	672.58
628.08	670.24
628.43	667.70
628.77	664.78
629.12	661.95
629.46	659.64
629.81	656.97
630.15	654.04
630.50	651.31
630.84	648.29
631.19	645.40
631.53	642.46
631.88	639.30
632.22	636.32
632.57	633.71
632.91	631.05
633.26	628.28
633.60	625.39
633.95	622.76
634.29	620.17
634.64	617.64
634.98	615.26
635.32	612.83
635.67	610.42
636.01	608.09
636.36	605.65
636.70	603.18
637.05	600.83
637.39	598.51
637.73	596.10
638.08	594.06
638.42	592.02
638.77	589.97
639.11	587.59
639.45	585.34
639.80	582.94
640.14	580.56
640.49	578.37
640.83	576.25
641.17	573.86
641.52	571.54
641.86	569.14
642.20	566.73
642.55	564.22
642.89	561.76
643.23	559.19
643.58	557.13
643.92	554.59
644.26	552.24
644.61	550.12
644.95	547.70
645.29	545.01
645.64	542.51
645.98	539.88
646.32	537.86
646.66	535.40
647.01	533.02
647.35	530.79
647.69	528.56
648.04	526.40
648.38	524.02
648.72	521.53
649.06	519.14
649.41	516.86
649.75	514.52
650.09	512.02
650.43	509.82
650.78	507.24
651.12	504.93
651.46	502.68
651.80	500.35
652.14	498.16
652.49	496.13
652.83	493.90
653.17	491.77
653.51	489.47
653.85	487.35
654.20	485.05
654.54	482.66
654.88	480.20
655.22	477.59
655.56	475.34
655.90	473.24
656.25	471.13
656.59	468.98
656.93	467.00
657.27	465.18
657.61	462.97
657.95	460.98
658.29	458.95
658.64	456.78
658.98	454.46
659.32	452.31
659.66	450.11
660.00	448.00
660.34	445.93
660.68	443.91
661.02	441.88
661.36	440.19
661.70	438.37
662.05	436.53
662.39	434.98
662.73	433.22
663.07	431.54
663.41	429.83
663.75	428.06
664.09	426.18
664.43	424.24
664.77	422.60
665.11	420.88
665.45	419.13
665.79	417.42
666.13	415.78
666.47	414.03
666.81	412.39
667.15	410.57
667.49	408.98
667.83	407.45
668.17	405.82
668.51	404.00
668.85	402.33
669.19	400.80
669.53	398.90
669.87	397.26
670.21	395.61
670.55	393.99
670.89	392.59
671.23	391.07
671.57	389.57
671.91	387.96
672.25	386.53
672.58	385.06
672.92	383.70
673.26	382.25
673.60	380.98
673.94	379.54
674.28	378.28
674.62	376.97
674.96	375.62
675.30	374.36
675.64	373.08
675.97	371.84
676.31	370.52
676.65	369.42
676.99	368.22
677.33	366.84
677.67	365.68
678.01	364.33
678.34	363.17
678.68	361.96
679.02	360.79
679.36	359.57
679.70	358.45
680.04	357.15
680.37	355.89
680.71	354.79
681.05	353.69
681.39	352.61
681.73	351.39
682.06	350.22
682.40	349.06
682.74	347.78
683.08	346.70
683.42	345.55
683.75	344.43
684.09	343.32
684.43	342.28
684.77	341.13
685.10	340.18
685.44	339.12
685.78	338.03
686.12	337.01
686.45	335.79
686.79	334.75
687.13	333.76
687.46	332.77
687.80	331.65
688.14	330.56
688.48	329.47
688.81	328.47
689.15	327.46
689.49	326.42
689.82	325.37
690.16	324.26
690.50	323.29
690.83	322.32
691.17	321.30
691.51	320.33
691.84	319.35
692.18	318.34
692.52	317.20
692.85	316.27
693.19	315.36
693.52	314.49
693.86	313.55
694.20	312.73
694.53	311.88
694.87	310.94
695.21	310.10
695.54	309.18
695.88	308.18
696.21	307.31
696.55	306.41
696.88	305.67
697.22	304.87
697.56	304.06
697.89	303.10
698.23	302.26
698.56	301.36
698.90	300.57
699.23	299.48
699.57	298.66
699.90	297.82
700.24	296.89
700.58	296.07
700.91	295.24
701.25	294.53
701.58	293.97
701.92	293.30
702.25	292.58
702.59	291.99
702.92	291.32
703.26	290.57
703.59	290.00
703.93	289.34
704.26	288.69
704.60	288.00
704.93	287.57
705.26	287.00
705.60	286.44
705.93	285.79
706.27	285.39
706.60	284.89
706.94	284.45
707.27	283.86
707.61	283.36
707.94	282.73
708.27	281.99
708.61	281.26
708.94	280.74
709.28	280.20
709.61	279.59
709.94	279.13
710.28	278.72
710.61	278.11
710.95	277.58
711.28	277.25
711.61	276.73
711.95	276.11
712.28	275.57
712.61	275.04
712.95	274.71
713.28	274.35
713.61	273.75
713.95	273.13
714.28	272.69
714.61	272.28
714.95	271.93
715.28	271.40
715.61	270.81
715.95	270.38
716.28	269.92
716.61	269.50
716.95	268.99
717.28	268.44
717.61	268.15
717.94	267.70
718.28	267.12
718.61	266.76
718.94	266.35
719.27	265.94
719.61	265.65
719.94	265.24
720.27	264.83
720.60	264.59
720.94	264.30
721.27	264.02
721.60	263.69
721.93	263.28
722.27	263.10
722.60	262.92
722.93	262.51
723.26	262.16
723.59	261.85
723.93	261.67
724.26	261.48
724.59	261.10
724.92	260.85
725.25	260.61
725.59	260.28
725.92	260.00
726.25	259.69
726.58	259.37
726.91	259.02
727.24	258.71
727.57	258.47
727.91	258.05
728.24	257.82
728.57	257.47
728.90	257.22
729.23	256.83
729.56	256.70
729.89	256.39
730.22	256.10
730.55	255.80
730.89	255.50
731.22	255.23
731.55	254.98
731.88	254.70
732.21	254.34
732.54	254.06
732.87	253.83
733.20	253.48
733.53	253.27
733.86	252.99
734.19	252.65
734.52	252.39
734.85	252.44
735.18	252.13
735.51	252.00
735.84	251.80
736.17	251.67
736.50	251.14
736.83	251.18
737.16	250.93
737.49	250.59
737.82	250.33
738.15	249.99
738.48	249.71
738.81	249.43
739.14	249.23
739.47	248.98
739.80	248.73
740.13	248.58
740.46	248.30
740.79	248.11
741.12	247.85
741.45	247.68
741.78	247.24
742.11	247.09
742.44	246.80
742.77	246.59
743.10	246.39
743.43	246.30
743.75	245.88
744.08	246.05
744.41	245.90
744.74	245.79
745.07	245.59
745.40	245.43
745.73	245.34
746.06	245.13
746.39	245.00
746.71	244.72
747.04	244.46
747.37	244.28
747.70	244.09
748.03	243.96
748.36	243.80
748.68	243.61
749.01	243.35
749.34	243.19
749.67	243.03
750.00	242.83
750.33	242.73
750.65	242.58
750.98	242.04
751.31	242.01
751.64	241.80
751.97	241.76
752.29	241.64
752.62	241.38
752.95	241.27
753.28	241.06
753.60	241.05
753.93	241.07
754.26	241.01
754.59	240.90
754.91	240.80
755.24	240.56
755.57	240.49
755.90	240.34
756.22	240.14
756.55	240.05
756.88	239.90
757.20	239.80
757.53	239.77
757.86	239.68
758.19	239.51
758.51	239.50
758.84	239.26
759.17	239.05
759.49	238.96
759.82	238.88
760.15	238.86
760.47	238.72
760.80	238.47
761.13	238.25
761.45	238.03
761.78	237.82
762.11	237.80
762.43	237.69
762.76	237.62
763.08	237.66
763.41	237.52
763.74	237.49
764.06	237.20
764.39	236.92
764.71	236.81
765.04	236.77
765.37	236.65
765.69	236.65
766.02	236.69
766.34	236.63
766.67	236.53
767.00	236.50
767.32	236.46
767.65	236.61
767.97	236.57
768.30	236.65
768.62	236.61
768.95	236.51
769.27	236.36
769.60	236.32
769.92	236.13
770.25	235.95
770.57	235.72
770.90	235.80
771.22	235.75
771.55	235.69
771.87	235.56
772.20	235.45
772.52	235.42
772.85	235.51
773.17	235.37
773.50	235.23
773.82	235.12
774.15	234.94
774.47	234.62
774.80	234.49
775.12	234.24
775.45	234.17
775.77	234.12
776.09	234.06
776.42	233.91
776.74	233.87
777.07	233.77
777.39	233.78
777.72	233.68
778.04	233.62
778.36	233.61
778.69	233.55
779.01	233.46
779.33	233.35
779.66	233.00
779.98	232.93
780.31	232.95
780.63	232.88
780.95	232.96
781.28	233.03
781.60	232.99
781.92	232.99
782.25	232.90
782.57	232.80
782.89	232.74
783.22	232.78
783.54	232.61
783.86	232.65
784.19	232.60
784.51	232.65
784.83	232.62
785.16	232.47
785.48	232.29
785.80	232.18
786.12	232.03
786.45	232.10
786.77	232.14
787.09	232.06
787.42	232.04
787.74	231.87
788.06	231.85
788.38	231.87
788.71	231.91
789.03	231.94
789.35	231.93
789.67	231.90
789.99	231.91
790.32	232.05
790.64	232.18
790.96	232.33
791.28	232.16
791.61	232.09
791.93	232.18
792.25	232.30
792.57	232.45
792.89	232.50
793.21	232.40
793.54	232.35
793.86	232.30
794.18	232.30
794.50	232.25
794.82	232.19
795.14	232.21
795.47	232.23
795.79	232.19
796.11	232.14
796.43	232.12
796.75	232.07
797.07	232.00
797.39	231.89
797.71	231.76
798.04	231.80
798.36	231.83
798.68	231.69
799.00	231.69
799.32	231.60
799.64	231.57
799.96	231.60
800.28	231.63
800.60	231.57
800.92	231.46
801.24	231.46
801.56	231.49
801.89	231.39
802.21	231.23
802.53	231.26
802.85	231.32
803.17	231.45
803.49	231.39
803.81	231.25
804.13	231.27
804.45	231.10
804.77	231.03
805.09	231.03
805.41	231.03
805.73	230.84
806.05	230.65
806.37	230.67
806.69	230.68
807.01	230.76
807.33	230.80
807.65	230.78
807.97	230.84
808.28	230.75
808.60	230.67
808.92	230.70
809.24	230.72
809.56	230.66
809.88	230.47
810.20	230.45
810.52	230.61
810.84	230.56
811.16	230.65
811.48	230.64
811.80	230.70
812.12	230.71
812.43	230.85
812.75	230.92
813.07	230.88
813.39	230.80
813.71	230.54
814.03	230.46
814.35	230.43
814.67	230.35
814.98	230.27
815.30	230.34
815.62	230.23
815.94	230.05
816.26	230.13
816.58	230.09
816.89	230.24
817.21	230.11
817.53	230.01
817.85	229.91
818.17	229.85
818.48	229.63
818.80	229.67
819.12	229.54
819.44	229.57
819.76	229.48
820.07	229.51
820.39	229.61
820.71	229.55
821.03	229.52
821.34	229.50
821.66	229.54
821.98	229.44
822.30	229.46
822.61	229.58
822.93	229.43
823.25	229.43
823.57	229.20
823.88	229.12
824.20	229.15
824.52	229.12
824.83	229.11
825.15	229.22
825.47	229.14
825.79	229.16
826.10	229.05
826.42	229.07
826.74	229.02
827.05	228.97
827.37	229.04
827.69	229.16
828.00	229.15
828.32	229.24
828.64	229.28
828.95	229.35
829.27	229.27
829.58	229.28
829.90	229.30
830.22	229.30
830.53	229.41
830.85	229.36
831.17	229.32
831.48	229.27
831.80	229.21
832.11	229.31
832.43	229.38
832.75	229.39
833.06	229.51
833.38	229.50
833.69	229.48
834.01	229.51
834.32	229.45
834.64	229.50
834.96	229.41
835.27	229.47
835.59	229.51
835.90	229.57
836.22	229.47
836.53	229.46
836.85	229.39
837.16	229.43
837.48	229.40
837.79	229.49
838.11	229.62
838.42	229.69
838.74	229.59
839.05	229.53
839.37	229.52
839.68	229.26
840.00	229.22
840.31	229.28
840.63	229.22
840.94	229.22
841.26	229.16
841.57	229.07
841.88	229.06
842.20	228.90
842.51	228.90
842.83	228.93
843.14	229.10
843.46	229.19
843.77	229.16
844.08	229.23
844.40	229.07
844.71	229.02
845.03	228.95
845.34	228.91
845.65	228.89
845.97	228.96
846.28	229.04
846.60	228.98
846.91	228.93
847.22	228.92
847.54	228.87
847.85	228.80
848.16	228.88
848.48	228.77
848.79	228.77
849.10	228.68
849.42	228.65
849.73	228.37
850.04	228.31
850.36	228.20
850.67	228.19
850.98	228.28
851.30	228.27
851.61	228.25
851.92	228.30
852.23	228.38
852.55	228.30
852.86	228.32
853.17	228.39
853.49	228.38
853.80	228.32
854.11	228.35
854.42	228.33
854.74	228.34
855.05	228.33
855.36	228.30
855.67	228.25
855.99	228.23
856.30	228.50
856.61	228.55
856.92	228.55
857.23	228.48
857.55	228.52
857.86	228.54
858.17	228.59
858.48	228.44
858.79	228.37
859.11	228.39
859.42	228.38
859.73	228.40
860.04	228.40
860.35	228.32
860.66	228.15
860.98	228.22
861.29	228.10
861.60	228.00
861.91	228.06
862.22	228.05
862.53	228.05
862.84	227.80
863.16	227.86
863.47	227.86
863.78	227.96
864.09	227.90
864.40	227.81
864.71	227.78
865.02	227.86
865.33	227.89
865.64	227.88
865.95	227.88
866.27	227.93
866.58	227.94
866.89	228.08
867.20	228.19
867.51	228.15
867.82	228.25
868.13	228.40
868.44	228.35
868.75	228.43
869.06	228.50
869.37	228.60
869.68	228.50
869.99	228.45
870.30	228.36
870.61	228.42
870.92	228.40
871.23	228.45
871.54	228.51
871.85	228.48
872.16	228.51
872.47	228.50
872.78	228.41
873.09	228.43
873.40	228.45
873.71	228.53
874.02	228.58
874.33	228.61
874.64	228.56
874.95	228.62
875.26	228.62
875.56	228.68
875.87	228.61
876.18	228.55
876.49	228.82
876.80	228.84
877.11	228.74
877.42	228.78
877.73	228.70
878.04	228.63
878.35	228.61
878.66	228.61
878.96	228.62
879.27	228.61
879.58	228.53
879.89	228.50
880.20	228.56
880.51	228.51
880.82	228.56
881.12	228.64
881.43	228.61
881.74	228.55
882.05	228.42
882.36	228.45
882.67	228.54
882.97	228.35
883.28	228.29
883.59	228.45
883.90	228.55
884.21	228.60
884.51	228.67
884.82	228.74
885.13	228.70
885.44	228.70
885.74	228.81
886.05	228.85
886.36	228.82
886.67	228.72
886.98	228.95
887.28	228.88
887.59	228.86
887.90	228.92
888.20	228.90
888.51	229.06
888.82	229.04
889.13	229.08
889.43	229.16
889.74	229.25
890.05	229.12
890.35	229.04
890.66	229.04
890.97	228.93
891.28	228.90
891.58	228.89
891.89	228.91
892.20	228.81
892.50	228.87
892.81	228.86
893.12	228.89
893.42	228.74
893.73	228.75
894.04	228.75
894.34	228.76
894.65	228.77
894.95	228.65
895.26	228.74
895.57	228.65
895.87	228.56
896.18	228.59
896.48	228.65
896.79	228.62
897.10	228.60
897.40	228.58
897.71	228.55
898.01	228.52
898.32	228.53
898.63	228.52
898.93	228.51
899.24	228.54
899.54	228.50
899.85	228.51
900.15	228.49
900.46	228.40
900.76	228.42
901.07	228.43
901.38	228.41
901.68	228.48
901.99	228.56
902.29	228.45
902.60	228.30
902.90	228.32
903.21	228.40
903.51	228.34
903.82	228.43
904.12	228.35
904.43	228.40
904.73	228.27
905.03	228.25
905.34	228.35
905.64	228.20
905.95	228.20
906.25	228.07
906.56	228.04
906.86	228.05
907.17	228.05
907.47	228.16
907.77	228.18
908.08	228.06
908.38	227.98
908.69	228.09
908.99	228.25
909.30	228.11
909.60	228.00
909.90	228.08
910.21	228.01
910.51	228.01
910.81	228.06
911.12	228.20
911.42	228.11
911.73	227.90
912.03	228.01
912.33	228.04
912.64	228.03
912.94	227.93
913.24	227.91
913.55	227.89
913.85	227.70
914.15	227.70
914.46	227.64
914.76	227.65
915.06	227.63
915.37	227.55
915.67	227.53
915.97	227.63
916.27	227.60
916.58	227.65
916.88	227.73
917.18	227.62
917.49	227.62
917.79	227.77
918.09	227.81
918.39	227.86
918.70	227.82
919.00	227.85
919.30	228.05
919.60	228.07
919.91	228.05
920.21	228.02
920.51	228.05
920.81	228.09
921.12	228.14
921.42	228.16
921.72	228.15
922.02	228.23
922.32	228.21
922.63	228.17
922.93	228.30
923.23	228.31
923.53	228.37
923.83	228.25
924.13	228.20
924.44	228.20
924.74	228.20
925.04	228.24
925.34	228.32
925.64	228.25
925.94	228.44
926.24	228.51
926.55	228.61
926.85	228.62
927.15	228.70
927.45	228.73
927.75	228.74
928.05	228.76
928.35	228.78
928.65	228.90
928.95	228.94
929.26	228.80
929.56	228.90
929.86	228.89
930.16	228.97
930.46	229.03
930.76	229.07
931.06	228.99
931.36	228.99
931.66	229.04
931.96	229.08
932.26	228.95
932.56	228.84
932.86	228.84
933.16	228.88
933.46	228.81
933.76	228.87
934.06	228.85
934.36	228.95
934.66	228.97
934.96	228.96
935.26	228.98
935.56	228.99
935.86	228.85
936.16	228.85
936.46	228.86
936.76	228.90
937.06	228.98
937.36	229.05
937.66	229.00
937.96	228.97
938.26	228.96
938.56	228.93
938.86	228.95
939.16	229.00
939.46	229.01
939.76	229.06
940.06	229.00
940.35	229.08
940.65	228.94
940.95	229.00
941.25	228.85
941.55	228.76
941.85	228.85
942.15	228.77
942.45	228.85
942.75	228.82
943.04	228.75
943.34	228.70
943.64	228.70
943.94	228.69
944.24	228.62
944.54	228.63
944.84	228.64
945.13	228.67
945.43	228.61
945.73	228.52
946.03	228.41
946.33	228.40
946.62	228.37
946.92	228.41
947.22	228.24
947.52	228.20
947.82	228.28
948.11	228.14
948.41	228.17
948.71	228.10
949.01	228.11
949.31	228.05
949.60	228.01
949.90	228.04
950.20	228.12
950.50	228.12
950.79	228.10
951.09	228.11
951.39	228.03
951.69	227.95
951.98	227.93
952.28	227.88
952.58	227.83
952.87	227.81
953.17	227.83
953.47	227.92
953.76	228.00
954.06	227.93
954.36	227.96
954.66	228.04
954.95	228.02
955.25	228.05
955.55	228.11
955.84	228.07
956.14	228.06
956.44	227.93
956.73	227.85
957.03	227.93
957.32	227.94
957.62	227.99
957.92	228.10
958.21	228.14
958.51	228.49
958.81	228.49
959.10	228.50
959.40	228.46
959.69	228.48
959.99	228.45
960.29	228.48
960.58	228.62
960.88	228.68
961.17	228.76
961.47	228.85
961.76	228.79
962.06	228.81
962.36	228.78
962.65	228.83
962.95	228.98
963.24	228.90
963.54	228.87
963.83	228.90
964.13	228.90
964.42	228.90
964.72	228.78
965.01	228.84
965.31	228.87
965.60	228.96
965.90	229.09
966.19	229.12
966.49	229.21
966.78	229.20
967.08	229.29
967.37	229.30
967.67	229.27
967.96	229.38
968.26	229.41
968.55	229.50
968.85	229.54
969.14	229.55
969.43	229.47
969.73	229.48
970.02	229.49
970.32	229.51
970.61	229.48
970.91	229.36
971.20	229.30
971.49	229.27
971.79	229.15
972.08	228.90
972.38	228.87
972.67	228.79
972.96	228.76
973.26	228.56
973.55	228.59
973.85	228.45
974.14	228.45
974.43	228.43
974.73	228.35
975.02	228.35
975.31	228.28
975.61	228.34
975.90	228.34
976.19	228.31
976.49	228.33
976.78	228.31
977.07	228.34
977.37	228.37
977.66	228.23
977.95	228.16
978.24	228.26
978.54	228.24
978.83	228.20
979.12	228.04
979.42	228.05
979.71	227.95
980.00	228.03
980.29	227.82
980.59	227.80
980.88	227.86
981.17	227.70
981.46	227.72
981.76	227.75
982.05	227.74
982.34	227.71
982.63	227.72
982.93	227.73
983.22	227.75
983.51	227.66
983.80	227.83
984.09	227.94
984.39	227.92
984.68	227.95
984.97	227.88
985.26	228.00
985.55	228.00
985.85	227.89
986.14	227.82
986.43	227.99
986.72	228.00
987.01	227.84
987.30	227.92
987.59	227.98
987.89	227.97
988.18	227.94
988.47	227.99
988.76	227.86
989.05	227.81
989.34	227.75
989.63	227.94
989.92	227.87
990.22	227.86
990.51	227.75
990.80	227.73
991.09	227.86
991.38	227.78
991.67	227.80
991.96	227.94
992.25	227.99
992.54	227.99
992.83	228.04
993.12	228.11
993.41	228.20
993.70	228.21
993.99	228.20
994.28	228.15
994.58	228.09
994.87	228.15
995.16	228.22
995.45	228.36
995.74	228.20
996.03	228.19
996.32	228.30
996.61	228.51
996.90	228.52
997.19	228.56
997.48	228.69
997.77	228.75
998.06	228.72
998.34	228.72
998.63	228.88
998.92	228.89
999.21	228.96
999.50	228.91
999.79	229.00
1000.08	229.02
1000.37	229.16
1000.66	229.31
1000.95	229.37
1001.24	229.37
1001.53	229.29
1001.82	229.35
1002.11	229.31
1002.40	229.27
1002.68	229.33
1002.97	229.45
1003.26	229.40
1003.55	229.28
1003.84	229.25
1004.13	229.39
1004.42	229.42
1004.71	229.22
1004.99	229.18
1005.28	229.13
1005.57	229.23
1005.86	229.02
1006.15	229.00
1006.44	228.89
1006.72	228.71
1007.01	228.72
1007.30	228.75
1007.59	228.67
1007.88	228.68
1008.17	228.65
1008.45	228.59
1008.74	228.49
1009.03	228.37
1009.32	228.40
1009.60	228.45
1009.89	228.36
1010.18	228.25
1010.47	228.20
1010.76	228.20
1011.04	228.12
1011.33	228.08
1011.62	227.98
1011.91	227.98
1012.19	227.94
1012.48	227.94
1012.77	227.92
1013.05	227.89
1013.34	227.78
1013.63	227.78
1013.92	227.76
1014.20	227.75
1014.49	227.72
1014.78	227.62
1015.06	227.59
1015.35	227.45
1015.64	227.35
1015.92	227.42
1016.21	227.30
1016.50	227.30
1016.78	227.25
1017.07	227.26
1017.36	227.26
1017.64	227.13
1017.93	227.14
1018.22	227.09
1018.50	227.05
1018.79	227.12
1019.08	226.97
1019.36	226.97
1019.65	226.97
1019.93	226.95
1020.22	226.98
1020.51	227.13
1020.79	227.18
1021.08	226.80
1021.36	226.30
1021.65	228.20
1021.94	226.00
1022.22	226.50
1022.51	227.40
1022.79	227.50
1023.08	227.40
1023.36	230.70
1023.65	228.00
>>>>>End Processed Spectral Data<<<<<
