SpectraSuite Data File
++++++++++++++++++++++++++++++++++++
Date: Fri Feb 01 14:38:21 EST 2013
User: group
Dark Spectrum Present: No
Reference Spectrum Present: No
Number of Sampled Component Spectra: 1
Spectrometers: USB2E7196
Integration Time (usec): 70000 (USB2E7196)
Spectra Averaged: 10 (USB2E7196)
Boxcar Smoothing: 10 (USB2E7196)
Correct for Electrical Dark: No (USB2E7196)
Strobe/Lamp Enabled: No (USB2E7196)
Correct for Detector Non-linearity: No (USB2E7196)
Correct for Stray Light: No (USB2E7196)
Number of Pixels in Processed Spectrum: 2048
>>>>>Begin Processed Spectral Data<<<<<
339.09	0.00
339.48	216.50
339.86	216.30
340.24	220.70
340.63	221.90
341.01	223.40
341.39	223.40
341.78	224.90
342.16	226.00
342.54	225.80
342.93	214.30
343.31	225.12
343.69	225.63
344.07	226.14
344.46	226.50
344.84	226.79
345.22	227.02
345.60	227.18
345.99	227.32
346.37	227.43
346.75	227.53
347.13	227.60
347.52	227.62
347.90	227.77
348.28	227.81
348.66	227.94
349.05	227.98
349.43	228.00
349.81	228.10
350.19	228.11
350.57	228.27
350.96	228.35
351.34	228.43
351.72	228.51
352.10	228.59
352.48	228.66
352.87	228.79
353.25	228.96
353.63	229.10
354.01	229.14
354.39	229.22
354.77	229.32
355.15	229.45
355.54	229.44
355.92	229.51
356.30	229.56
356.68	229.70
357.06	229.80
357.44	229.91
357.82	229.89
358.20	230.00
358.58	229.95
358.97	230.05
359.35	230.18
359.73	230.38
360.11	230.43
360.49	230.51
360.87	230.49
361.25	230.46
361.63	230.58
362.01	230.65
362.39	230.70
362.77	230.70
363.15	230.68
363.53	230.76
363.91	230.73
364.29	230.75
364.67	230.58
365.05	230.53
365.43	230.52
365.81	230.58
366.19	230.60
366.57	230.77
366.95	230.72
367.33	230.67
367.71	230.52
368.09	230.45
368.47	230.31
368.85	230.35
369.23	230.29
369.61	230.15
369.99	230.20
370.37	230.02
370.75	230.00
371.13	229.88
371.51	229.73
371.89	229.70
372.27	229.57
372.65	229.52
373.03	229.40
373.41	229.25
373.78	229.13
374.16	228.96
374.54	228.75
374.92	228.63
375.30	228.49
375.68	228.36
376.06	228.34
376.44	228.19
376.82	228.10
377.19	228.02
377.57	227.95
377.95	227.78
378.33	227.75
378.71	227.67
379.09	227.58
379.47	227.60
379.84	227.51
380.22	227.53
380.60	227.44
380.98	227.38
381.36	227.33
381.73	227.20
382.11	227.14
382.49	227.15
382.87	227.03
383.25	227.02
383.62	227.19
384.00	227.10
384.38	227.24
384.76	227.16
385.13	227.15
385.51	227.07
385.89	226.98
386.27	226.90
386.64	226.81
387.02	226.81
387.40	226.74
387.78	226.62
388.15	226.50
388.53	226.47
388.91	226.40
389.29	226.38
389.66	226.45
390.04	226.51
390.42	226.42
390.79	226.41
391.17	226.39
391.55	226.16
391.92	226.24
392.30	226.20
392.68	226.12
393.05	226.15
393.43	226.13
393.81	226.14
394.18	226.13
394.56	226.14
394.94	226.21
395.31	226.20
395.69	226.39
396.06	226.51
396.44	226.53
396.82	226.66
397.19	226.76
397.57	226.75
397.95	226.70
398.32	226.77
398.70	226.93
399.07	226.96
399.45	227.13
399.82	227.15
400.20	227.17
400.58	227.30
400.95	227.29
401.33	227.51
401.70	227.80
402.08	227.89
402.45	228.02
402.83	228.15
403.20	228.34
403.58	228.31
403.95	228.50
404.33	228.65
404.71	228.83
405.08	229.16
405.46	229.37
405.83	229.62
406.21	229.83
406.58	229.96
406.96	230.19
407.33	230.26
407.70	230.45
408.08	230.93
408.45	231.26
408.83	231.54
409.20	231.71
409.58	231.98
409.95	232.37
410.33	232.79
410.70	233.09
411.08	233.37
411.45	233.87
411.82	234.26
412.20	234.81
412.57	235.29
412.95	235.56
413.32	236.09
413.69	236.58
414.07	237.03
414.44	237.67
414.82	238.25
415.19	239.03
415.56	239.77
415.94	240.26
416.31	240.95
416.68	241.74
417.06	242.66
417.43	243.37
417.81	244.41
418.18	245.32
418.55	246.37
418.93	247.54
419.30	248.66
419.67	249.83
420.04	250.96
420.42	252.21
420.79	253.77
421.16	255.19
421.54	256.81
421.91	258.52
422.28	260.18
422.66	261.87
423.03	263.57
423.40	265.38
423.77	267.37
424.15	269.30
424.52	271.30
424.89	273.43
425.26	275.62
425.64	277.50
426.01	279.74
426.38	282.09
426.75	284.44
427.13	286.86
427.50	289.36
427.87	291.86
428.24	294.48
428.61	296.83
428.99	299.60
429.36	302.56
429.73	305.55
430.10	308.42
430.47	311.44
430.85	314.51
431.22	317.71
431.59	321.20
431.96	324.40
432.33	328.04
432.70	331.39
433.08	335.41
433.45	339.15
433.82	342.82
434.19	346.99
434.56	351.09
434.93	355.05
435.30	358.91
435.68	363.35
436.05	367.55
436.42	371.72
436.79	375.60
437.16	379.75
437.53	383.97
437.90	388.23
438.27	392.28
438.64	396.53
439.01	400.45
439.38	403.78
439.75	407.28
440.13	411.29
440.50	415.02
440.87	417.95
441.24	421.39
441.61	425.00
441.98	427.55
442.35	430.61
442.72	433.67
443.09	436.81
443.46	438.59
443.83	439.85
444.20	441.21
444.57	442.85
444.94	443.77
445.31	444.70
445.68	445.73
446.05	446.34
446.42	446.31
446.79	446.15
447.16	446.10
447.53	446.14
447.90	444.81
448.27	443.68
448.64	441.91
449.01	440.68
449.37	438.16
449.74	435.70
450.11	432.68
450.48	429.30
450.85	425.75
451.22	423.12
451.59	420.46
451.96	417.97
452.33	414.42
452.70	411.17
453.07	407.35
453.43	403.35
453.80	399.55
454.17	395.69
454.54	392.23
454.91	388.30
455.28	384.48
455.65	380.95
456.02	377.56
456.38	374.48
456.75	370.42
457.12	367.07
457.49	363.90
457.86	360.80
458.23	358.18
458.59	355.41
458.96	352.21
459.33	349.60
459.70	346.72
460.07	344.50
460.43	341.90
460.80	339.35
461.17	337.17
461.54	334.92
461.91	332.88
462.27	330.71
462.64	328.89
463.01	326.80
463.38	324.91
463.74	322.68
464.11	320.89
464.48	319.32
464.85	317.71
465.21	316.36
465.58	314.91
465.95	313.22
466.32	311.83
466.68	310.43
467.05	309.02
467.42	307.55
467.78	306.12
468.15	304.70
468.52	303.72
468.88	302.26
469.25	301.05
469.62	300.20
469.98	299.03
470.35	297.87
470.72	296.81
471.08	295.57
471.45	294.70
471.82	293.70
472.18	292.63
472.55	291.95
472.92	291.05
473.28	290.24
473.65	289.38
474.02	288.38
474.38	287.70
474.75	287.00
475.11	286.25
475.48	285.75
475.85	285.20
476.21	284.60
476.58	284.18
476.94	283.77
477.31	283.10
477.67	282.63
478.04	282.31
478.41	281.90
478.77	281.79
479.14	281.36
479.50	281.18
479.87	280.99
480.23	280.69
480.60	280.51
480.96	280.25
481.33	280.13
481.69	279.93
482.06	279.64
482.42	279.54
482.79	279.50
483.15	279.25
483.52	279.20
483.88	279.04
484.25	278.77
484.61	278.73
484.98	278.64
485.34	278.65
485.71	278.55
486.07	278.66
486.44	278.55
486.80	278.56
487.17	278.53
487.53	278.76
487.90	278.78
488.26	278.88
488.62	279.10
488.99	279.27
489.35	279.50
489.72	279.74
490.08	279.83
490.44	280.02
490.81	280.32
491.17	280.51
491.54	280.86
491.90	281.20
492.26	281.43
492.63	281.78
492.99	282.07
493.36	282.44
493.72	282.75
494.08	283.00
494.45	283.52
494.81	283.98
495.17	284.21
495.54	284.63
495.90	285.04
496.26	285.34
496.63	285.81
496.99	286.26
497.35	286.70
497.72	287.07
498.08	287.45
498.44	287.78
498.80	288.31
499.17	288.65
499.53	289.13
499.89	289.56
500.26	290.01
500.62	290.35
500.98	290.77
501.34	291.15
501.71	291.60
502.07	291.89
502.43	292.12
502.79	292.47
503.16	292.72
503.52	293.03
503.88	293.43
504.24	293.76
504.60	294.07
504.97	294.30
505.33	294.80
505.69	295.18
506.05	295.57
506.41	295.78
506.78	296.00
507.14	296.29
507.50	296.55
507.86	296.77
508.22	297.15
508.59	297.43
508.95	297.80
509.31	298.19
509.67	298.57
510.03	298.97
510.39	299.44
510.75	299.87
511.12	300.26
511.48	300.63
511.84	301.00
512.20	301.48
512.56	302.03
512.92	302.39
513.28	302.96
513.64	303.46
514.00	304.01
514.37	304.75
514.73	305.31
515.09	306.01
515.45	306.82
515.81	307.58
516.17	308.51
516.53	309.48
516.89	310.35
517.25	311.47
517.61	312.69
517.97	313.81
518.33	315.08
518.69	316.25
519.05	317.51
519.41	318.86
519.77	320.36
520.13	321.99
520.49	323.56
520.85	325.15
521.21	327.06
521.57	329.00
521.93	330.94
522.29	333.10
522.65	335.07
523.01	337.07
523.37	339.12
523.73	341.26
524.09	343.32
524.45	345.60
524.81	347.97
525.17	350.41
525.53	352.94
525.89	355.70
526.25	358.59
526.61	361.40
526.97	364.40
527.33	367.29
527.68	370.50
528.04	373.70
528.40	376.87
528.76	380.15
529.12	383.49
529.48	386.99
529.84	390.38
530.20	394.23
530.56	398.15
530.91	402.30
531.27	406.41
531.63	410.62
531.99	415.02
532.35	419.11
532.71	423.28
533.07	427.75
533.42	432.19
533.78	436.60
534.14	441.21
534.50	445.76
534.86	450.43
535.21	454.99
535.57	459.87
535.93	464.81
536.29	469.76
536.65	474.83
537.00	479.84
537.36	485.00
537.72	490.03
538.08	495.12
538.44	500.01
538.79	505.33
539.15	510.72
539.51	515.87
539.87	521.33
540.22	526.90
540.58	532.39
540.94	537.76
541.29	543.38
541.65	549.03
542.01	554.67
542.37	560.39
542.72	566.00
543.08	571.60
543.44	577.43
543.79	583.06
544.15	588.79
544.51	594.79
544.87	600.64
545.22	606.48
545.58	612.25
545.94	618.16
546.29	623.66
546.65	629.32
547.01	634.98
547.36	640.58
547.72	646.40
548.07	652.04
548.43	657.85
548.79	663.65
549.14	669.22
549.50	674.74
549.86	680.17
550.21	685.84
550.57	691.72
550.92	697.35
551.28	702.99
551.64	708.46
551.99	713.78
552.35	719.32
552.70	724.75
553.06	730.66
553.41	736.22
553.77	741.65
554.13	747.17
554.48	752.87
554.84	758.50
555.19	763.83
555.55	769.26
555.90	774.45
556.26	779.54
556.61	784.72
556.97	789.93
557.32	795.30
557.68	800.46
558.03	805.13
558.39	810.24
558.74	815.49
559.10	820.64
559.45	825.72
559.81	830.76
560.16	835.46
560.52	839.84
560.87	844.68
561.23	849.27
561.58	854.08
561.94	858.57
562.29	863.06
562.64	867.21
563.00	871.69
563.35	876.28
563.71	880.82
564.06	885.37
564.42	889.72
564.77	894.02
565.12	898.52
565.48	903.21
565.83	907.22
566.19	911.40
566.54	915.40
566.89	919.29
567.25	923.42
567.60	927.86
567.96	931.96
568.31	935.78
568.66	939.52
569.02	943.17
569.37	946.45
569.72	949.89
570.08	953.45
570.43	956.79
570.78	959.72
571.14	962.75
571.49	965.55
571.84	968.81
572.20	971.57
572.55	974.15
572.90	976.53
573.26	978.99
573.61	981.00
573.96	983.28
574.31	985.21
574.67	986.59
575.02	987.99
575.37	989.86
575.72	991.25
576.08	993.25
576.43	994.51
576.78	996.06
577.13	997.74
577.49	999.27
577.84	1000.44
578.19	1001.76
578.54	1003.06
578.90	1004.52
579.25	1005.20
579.60	1006.02
579.95	1006.75
580.30	1007.46
580.66	1008.16
581.01	1008.62
581.36	1009.02
581.71	1009.79
582.06	1010.64
582.42	1011.35
582.77	1011.72
583.12	1012.14
583.47	1012.75
583.82	1013.38
584.17	1013.77
584.53	1014.00
584.88	1014.00
585.23	1014.14
585.58	1014.19
585.93	1013.95
586.28	1013.60
586.63	1013.87
586.98	1014.04
587.34	1014.12
587.69	1013.98
588.04	1013.93
588.39	1014.02
588.74	1013.50
589.09	1012.79
589.44	1011.79
589.79	1011.32
590.14	1010.88
590.49	1010.50
590.84	1009.38
591.19	1008.65
591.54	1007.57
591.89	1006.17
592.25	1005.55
592.60	1004.21
592.95	1003.19
593.30	1002.03
593.65	1000.83
594.00	999.29
594.35	998.47
594.70	996.54
595.05	995.22
595.40	993.71
595.75	991.81
596.10	990.54
596.45	989.09
596.80	988.53
597.15	987.13
597.50	985.41
597.85	983.81
598.19	982.70
598.54	981.22
598.89	980.02
599.24	979.16
599.59	977.29
599.94	976.00
600.29	974.26
600.64	972.51
600.99	970.75
601.34	969.30
601.69	966.98
602.04	965.62
602.39	963.64
602.74	962.11
603.08	960.71
603.43	959.40
603.78	957.74
604.13	955.62
604.48	953.68
604.83	951.70
605.18	949.99
605.53	947.58
605.87	944.87
606.22	942.97
606.57	940.32
606.92	938.35
607.27	936.76
607.62	934.86
607.96	933.06
608.31	931.00
608.66	928.43
609.01	925.88
609.36	923.02
609.70	920.33
610.05	917.20
610.40	914.51
610.75	911.36
611.10	908.81
611.44	905.52
611.79	902.66
612.14	900.08
612.49	896.58
612.83	893.75
613.18	891.13
613.53	887.82
613.88	884.79
614.22	881.48
614.57	877.62
614.92	874.37
615.27	871.16
615.61	867.96
615.96	864.77
616.31	862.15
616.65	859.59
617.00	856.87
617.35	853.90
617.70	850.50
618.04	847.23
618.39	843.96
618.74	841.22
619.08	838.04
619.43	834.69
619.78	831.82
620.12	828.63
620.47	825.44
620.82	822.35
621.16	819.26
621.51	816.51
621.85	813.43
622.20	810.31
622.55	807.23
622.89	804.23
623.24	801.36
623.59	798.19
623.93	795.35
624.28	792.35
624.62	789.70
624.97	787.05
625.32	784.56
625.66	781.85
626.01	778.71
626.35	775.92
626.70	772.85
627.04	770.09
627.39	767.10
627.73	764.22
628.08	761.29
628.43	758.40
628.77	755.34
629.12	752.53
629.46	749.33
629.81	746.32
630.15	743.09
630.50	739.80
630.84	736.22
631.19	732.67
631.53	729.31
631.88	725.73
632.22	722.36
632.57	719.18
632.91	715.74
633.26	712.43
633.60	708.82
633.95	705.62
634.29	702.56
634.64	699.51
634.98	696.30
635.32	693.44
635.67	690.62
636.01	687.46
636.36	684.23
636.70	681.61
637.05	678.44
637.39	675.56
637.73	672.61
638.08	670.07
638.42	667.36
638.77	664.83
639.11	661.92
639.45	659.17
639.80	656.07
640.14	653.43
640.49	650.72
640.83	647.98
641.17	645.38
641.52	642.43
641.86	639.39
642.20	636.69
642.55	633.71
642.89	630.59
643.23	627.52
643.58	624.98
643.92	622.01
644.26	619.11
644.61	616.48
644.95	613.75
645.29	610.61
645.64	607.55
645.98	604.52
646.32	601.98
646.66	598.99
647.01	596.01
647.35	593.16
647.69	590.38
648.04	587.70
648.38	584.79
648.72	581.74
649.06	578.78
649.41	575.94
649.75	572.84
650.09	569.89
650.43	567.12
650.78	564.00
651.12	560.99
651.46	558.28
651.80	555.33
652.14	552.59
652.49	550.03
652.83	547.44
653.17	544.73
653.51	541.76
653.85	539.18
654.20	536.67
654.54	533.41
654.88	530.60
655.22	527.58
655.56	524.58
655.90	521.96
656.25	519.40
656.59	516.61
656.93	514.06
657.27	511.52
657.61	508.92
657.95	506.60
658.29	504.10
658.64	501.60
658.98	498.99
659.32	496.30
659.66	493.62
660.00	490.86
660.34	488.19
660.68	485.84
661.02	483.26
661.36	480.86
661.70	478.92
662.05	476.79
662.39	474.95
662.73	472.95
663.07	470.90
663.41	468.92
663.75	466.68
664.09	464.58
664.43	462.45
664.77	460.41
665.11	458.28
665.45	456.26
665.79	454.07
666.13	452.13
666.47	450.11
666.81	448.08
667.15	446.09
667.49	444.06
667.83	442.12
668.17	440.12
668.51	437.97
668.85	436.03
669.19	434.08
669.53	431.97
669.87	430.05
670.21	428.12
670.55	426.19
670.89	424.65
671.23	422.97
671.57	421.03
671.91	419.18
672.25	417.39
672.58	415.68
672.92	414.00
673.26	412.19
673.60	410.67
673.94	409.08
674.28	407.64
674.62	406.26
674.96	404.57
675.30	403.07
675.64	401.62
675.97	400.00
676.31	398.27
676.65	396.65
676.99	395.21
677.33	393.52
677.67	391.93
678.01	390.12
678.34	388.38
678.68	387.09
679.02	385.66
679.36	383.98
679.70	382.32
680.04	380.84
680.37	379.34
680.71	377.81
681.05	376.42
681.39	374.94
681.73	373.47
682.06	372.10
682.40	370.79
682.74	369.35
683.08	368.05
683.42	366.82
683.75	365.44
684.09	363.94
684.43	362.53
684.77	361.12
685.10	359.95
685.44	358.67
685.78	357.45
686.12	356.10
686.45	354.78
686.79	353.56
687.13	352.24
687.46	350.94
687.80	349.61
688.14	348.25
688.48	346.99
688.81	345.59
689.15	344.39
689.49	343.10
689.82	341.89
690.16	340.67
690.50	339.50
690.83	338.33
691.17	337.00
691.51	335.81
691.84	334.68
692.18	333.41
692.52	332.26
692.85	330.90
693.19	329.81
693.52	328.72
693.86	327.49
694.20	326.39
694.53	325.24
694.87	324.09
695.21	322.99
695.54	321.80
695.88	320.77
696.21	319.70
696.55	318.68
696.88	317.51
697.22	316.27
697.56	315.18
697.89	314.18
698.23	313.32
698.56	312.34
698.90	311.46
699.23	310.42
699.57	309.40
699.90	308.60
700.24	307.56
700.58	306.73
700.91	305.93
701.25	305.14
701.58	304.41
701.92	303.66
702.25	302.88
702.59	302.03
702.92	301.27
703.26	300.36
703.59	299.61
703.93	299.07
704.26	298.37
704.60	297.64
704.93	296.98
705.26	296.13
705.60	295.59
705.93	294.92
706.27	294.42
706.60	293.82
706.94	293.15
707.27	292.40
707.61	291.80
707.94	291.15
708.27	290.49
708.61	289.70
708.94	289.05
709.28	288.53
709.61	287.96
709.94	287.27
710.28	286.79
710.61	286.17
710.95	285.34
711.28	284.96
711.61	284.32
711.95	283.67
712.28	283.01
712.61	282.41
712.95	281.84
713.28	281.16
713.61	280.61
713.95	279.98
714.28	279.59
714.61	278.97
714.95	278.34
715.28	277.72
715.61	277.27
715.95	276.81
716.28	276.09
716.61	275.74
716.95	275.38
717.28	274.89
717.61	274.34
717.94	274.01
718.28	273.37
718.61	272.93
718.94	272.50
719.27	272.15
719.61	271.67
719.94	271.08
720.27	270.72
720.60	270.22
720.94	269.80
721.27	269.34
721.60	268.95
721.93	268.72
722.27	268.49
722.60	268.12
722.93	267.64
723.26	267.42
723.59	266.88
723.93	266.36
724.26	265.91
724.59	265.60
724.92	265.23
725.25	264.83
725.59	264.46
725.92	264.13
726.25	263.73
726.58	263.22
726.91	262.88
727.24	262.41
727.57	262.02
727.91	261.64
728.24	261.30
728.57	260.94
728.90	260.44
729.23	259.86
729.56	259.48
729.89	259.17
730.22	258.77
730.55	258.46
730.89	258.12
731.22	257.77
731.55	257.47
731.88	257.16
732.21	256.83
732.54	256.46
732.87	256.02
733.20	255.69
733.53	255.51
733.86	255.22
734.19	254.91
734.52	254.63
734.85	254.44
735.18	254.09
735.51	253.82
735.84	253.66
736.17	253.46
736.50	253.22
736.83	253.10
737.16	252.81
737.49	252.50
737.82	252.28
738.15	252.01
738.48	251.65
738.81	251.24
739.14	250.88
739.47	250.65
739.80	250.33
740.13	250.14
740.46	249.79
740.79	249.53
741.12	249.27
741.45	249.02
741.78	248.67
742.11	248.58
742.44	248.22
742.77	247.91
743.10	247.62
743.43	247.34
743.75	246.96
744.08	246.99
744.41	246.87
744.74	246.62
745.07	246.35
745.40	246.26
745.73	246.13
746.06	246.08
746.39	246.00
746.71	245.99
747.04	245.88
747.37	245.76
747.70	245.59
748.03	245.52
748.36	245.55
748.68	245.31
749.01	244.97
749.34	244.81
749.67	244.63
750.00	244.58
750.33	244.52
750.65	244.42
750.98	243.99
751.31	243.80
751.64	243.69
751.97	243.69
752.29	243.47
752.62	243.24
752.95	243.02
753.28	242.74
753.60	242.44
753.93	242.22
754.26	242.10
754.59	241.89
754.91	241.50
755.24	241.28
755.57	241.14
755.90	241.10
756.22	241.04
756.55	240.93
756.88	240.70
757.20	240.40
757.53	240.16
757.86	240.01
758.19	239.83
758.51	239.66
758.84	239.49
759.17	239.26
759.49	239.11
759.82	239.11
760.15	239.03
760.47	239.03
760.80	238.84
761.13	238.82
761.45	238.72
761.78	238.82
762.11	238.72
762.43	238.60
762.76	238.42
763.08	238.24
763.41	238.16
763.74	238.12
764.06	238.17
764.39	238.09
764.71	237.96
765.04	237.91
765.37	237.82
765.69	237.68
766.02	237.55
766.34	237.53
766.67	237.27
767.00	237.19
767.32	237.12
767.65	237.17
767.97	236.91
768.30	236.84
768.62	236.67
768.95	236.49
769.27	236.44
769.60	236.35
769.92	236.23
770.25	236.04
770.57	235.83
770.90	235.66
771.22	235.47
771.55	235.37
771.87	235.16
772.20	235.04
772.52	235.09
772.85	235.23
773.17	235.11
773.50	235.07
773.82	234.96
774.15	234.82
774.47	234.64
774.80	234.58
775.12	234.41
775.45	234.33
775.77	234.22
776.09	234.03
776.42	233.94
776.74	233.96
777.07	233.87
777.39	233.81
777.72	233.70
778.04	233.71
778.36	233.63
778.69	233.65
779.01	233.56
779.33	233.38
779.66	233.17
779.98	233.12
780.31	233.05
780.63	233.00
780.95	232.92
781.28	232.82
781.60	232.76
781.92	232.75
782.25	232.63
782.57	232.56
782.89	232.51
783.22	232.42
783.54	232.29
783.86	232.29
784.19	232.26
784.51	232.46
784.83	232.40
785.16	232.38
785.48	232.39
785.80	232.34
786.12	232.21
786.45	232.19
786.77	232.17
787.09	232.11
787.42	232.10
787.74	232.09
788.06	232.14
788.38	232.00
788.71	231.96
789.03	232.03
789.35	232.06
789.67	232.09
789.99	232.14
790.32	232.11
790.64	232.13
790.96	232.18
791.28	232.04
791.61	232.05
791.93	232.07
792.25	231.98
792.57	232.12
792.89	232.17
793.21	232.23
793.54	232.27
793.86	232.25
794.18	232.32
794.50	232.23
794.82	232.21
795.14	232.30
795.47	232.40
795.79	232.37
796.11	232.33
796.43	232.28
796.75	232.28
797.07	232.33
797.39	232.27
797.71	232.23
798.04	232.13
798.36	232.02
798.68	232.00
799.00	231.90
799.32	231.86
799.64	231.93
799.96	231.80
800.28	231.79
800.60	231.75
800.92	231.70
801.24	231.70
801.56	231.67
801.89	231.65
802.21	231.62
802.53	231.51
802.85	231.55
803.17	231.66
803.49	231.62
803.81	231.53
804.13	231.50
804.45	231.46
804.77	231.56
805.09	231.62
805.41	231.58
805.73	231.60
806.05	231.48
806.37	231.35
806.69	231.38
807.01	231.26
807.33	231.26
807.65	231.09
807.97	231.22
808.28	231.19
808.60	231.12
808.92	231.02
809.24	231.18
809.56	231.15
809.88	231.07
810.20	231.03
810.52	230.98
810.84	230.92
811.16	230.83
811.48	230.64
811.80	230.63
812.12	230.58
812.43	230.64
812.75	230.61
813.07	230.56
813.39	230.52
813.71	230.59
814.03	230.60
814.35	230.52
814.67	230.27
814.98	230.20
815.30	230.15
815.62	230.16
815.94	229.89
816.26	229.78
816.58	229.68
816.89	229.67
817.21	229.60
817.53	229.55
817.85	229.50
818.17	229.46
818.48	229.37
818.80	229.38
819.12	229.29
819.44	229.21
819.76	229.15
820.07	229.06
820.39	228.89
820.71	228.83
821.03	228.95
821.34	228.97
821.66	229.02
821.98	228.98
822.30	228.93
822.61	229.09
822.93	229.03
823.25	229.01
823.57	228.93
823.88	229.04
824.20	229.08
824.52	229.21
824.83	229.25
825.15	229.25
825.47	229.23
825.79	229.23
826.10	229.31
826.42	229.37
826.74	229.41
827.05	229.40
827.37	229.40
827.69	229.32
828.00	229.43
828.32	229.41
828.64	229.45
828.95	229.48
829.27	229.40
829.58	229.47
829.90	229.45
830.22	229.50
830.53	229.43
830.85	229.43
831.17	229.31
831.48	229.24
831.80	229.22
832.11	229.19
832.43	229.14
832.75	229.10
833.06	229.20
833.38	229.12
833.69	229.22
834.01	229.20
834.32	229.18
834.64	229.14
834.96	229.13
835.27	229.16
835.59	229.19
835.90	229.15
836.22	229.13
836.53	229.15
836.85	229.11
837.16	229.43
837.48	229.39
837.79	229.42
838.11	229.45
838.42	229.50
838.74	229.50
839.05	229.63
839.37	229.66
839.68	229.57
840.00	229.61
840.31	229.58
840.63	229.62
840.94	229.58
841.26	229.51
841.57	229.47
841.88	229.45
842.20	229.39
842.51	229.34
842.83	229.41
843.14	229.51
843.46	229.49
843.77	229.23
844.08	229.25
844.40	229.21
844.71	229.31
845.03	229.29
845.34	229.39
845.65	229.27
845.97	229.22
846.28	229.19
846.60	229.10
846.91	229.10
847.22	229.12
847.54	229.13
847.85	229.10
848.16	229.09
848.48	229.16
848.79	229.26
849.10	229.32
849.42	229.29
849.73	229.13
850.04	229.21
850.36	229.13
850.67	229.06
850.98	229.04
851.30	228.92
851.61	228.94
851.92	228.83
852.23	228.92
852.55	228.97
852.86	228.96
853.17	229.12
853.49	229.14
853.80	229.11
854.11	229.15
854.42	229.29
854.74	229.31
855.05	229.21
855.36	229.08
855.67	229.16
855.99	229.11
856.30	229.35
856.61	229.29
856.92	229.32
857.23	229.35
857.55	229.33
857.86	229.29
858.17	229.28
858.48	229.23
858.79	229.20
859.11	229.11
859.42	229.06
859.73	228.83
860.04	228.84
860.35	228.80
860.66	228.77
860.98	228.66
861.29	228.57
861.60	228.55
861.91	228.59
862.22	228.41
862.53	228.40
862.84	228.22
863.16	228.24
863.47	228.17
863.78	228.05
864.09	228.12
864.40	228.10
864.71	228.04
865.02	228.09
865.33	228.08
865.64	228.07
865.95	228.19
866.27	228.51
866.58	228.39
866.89	228.37
867.20	228.37
867.51	228.35
867.82	228.40
868.13	228.56
868.44	228.52
868.75	228.64
869.06	228.62
869.37	228.71
869.68	228.73
869.99	228.78
870.30	228.91
870.61	228.88
870.92	228.92
871.23	228.89
871.54	228.96
871.85	228.95
872.16	228.92
872.47	228.93
872.78	228.73
873.09	228.87
873.40	228.80
873.71	228.81
874.02	228.83
874.33	228.77
874.64	228.60
874.95	228.60
875.26	228.51
875.56	228.51
875.87	228.43
876.18	228.28
876.49	228.51
876.80	228.55
877.11	228.65
877.42	228.63
877.73	228.67
878.04	228.64
878.35	228.60
878.66	228.64
878.96	228.51
879.27	228.50
879.58	228.34
879.89	228.49
880.20	228.57
880.51	228.46
880.82	228.61
881.12	228.65
881.43	228.56
881.74	228.47
882.05	228.35
882.36	228.32
882.67	228.38
882.97	228.17
883.28	228.07
883.59	228.00
883.90	228.01
884.21	228.06
884.51	227.99
884.82	227.93
885.13	228.03
885.44	228.12
885.74	228.10
886.05	228.15
886.36	228.16
886.67	228.12
886.98	228.32
887.28	228.20
887.59	228.15
887.90	228.24
888.20	228.25
888.51	228.39
888.82	228.33
889.13	228.30
889.43	228.46
889.74	228.37
890.05	228.35
890.35	228.34
890.66	228.30
890.97	228.19
891.28	228.17
891.58	228.18
891.89	228.13
892.20	228.07
892.50	228.10
892.81	227.96
893.12	227.90
893.42	227.81
893.73	227.87
894.04	227.84
894.34	227.77
894.65	227.80
894.95	227.77
895.26	227.82
895.57	227.98
895.87	227.72
896.18	227.77
896.48	227.71
896.79	227.65
897.10	227.64
897.40	227.74
897.71	227.75
898.01	227.69
898.32	227.73
898.63	227.72
898.93	227.69
899.24	227.64
899.54	227.61
899.85	227.57
900.15	227.58
900.46	227.67
900.76	227.77
901.07	227.81
901.38	227.79
901.68	227.91
901.99	227.81
902.29	227.88
902.60	227.99
902.90	228.05
903.21	228.05
903.51	228.11
903.82	228.17
904.12	228.31
904.43	228.33
904.73	228.26
905.03	228.38
905.34	228.60
905.64	228.67
905.95	228.70
906.25	228.70
906.56	228.70
906.86	228.62
907.17	228.55
907.47	228.52
907.77	228.46
908.08	228.39
908.38	228.46
908.69	228.37
908.99	228.36
909.30	228.38
909.60	228.55
909.90	228.63
910.21	228.62
910.51	228.55
910.81	228.56
911.12	228.59
911.42	228.51
911.73	228.39
912.03	228.51
912.33	228.62
912.64	228.76
912.94	228.72
913.24	228.73
913.55	228.83
913.85	228.86
914.15	228.94
914.46	229.05
914.76	229.03
915.06	229.13
915.37	229.14
915.67	229.16
915.97	229.03
916.27	228.93
916.58	228.86
916.88	228.90
917.18	228.86
917.49	229.03
917.79	229.16
918.09	229.10
918.39	229.13
918.70	229.17
919.00	229.04
919.30	229.13
919.60	229.11
919.91	229.05
920.21	229.20
920.51	229.18
920.81	229.07
921.12	229.11
921.42	229.12
921.72	229.10
922.02	229.10
922.32	229.13
922.63	229.15
922.93	229.35
923.23	229.38
923.53	229.34
923.83	229.20
924.13	229.16
924.44	229.23
924.74	229.30
925.04	229.18
925.34	229.22
925.64	229.12
925.94	229.14
926.24	229.26
926.55	229.21
926.85	229.19
927.15	229.17
927.45	229.16
927.75	229.14
928.05	229.25
928.35	229.20
928.65	229.19
928.95	229.14
929.26	228.99
929.56	228.90
929.86	228.89
930.16	228.86
930.46	228.89
930.76	228.81
931.06	228.53
931.36	228.50
931.66	228.43
931.96	228.48
932.26	228.49
932.56	228.28
932.86	228.18
933.16	228.30
933.46	228.30
933.76	228.19
934.06	228.16
934.36	228.09
934.66	228.05
934.96	228.03
935.26	228.02
935.56	228.08
935.86	228.00
936.16	227.98
936.46	227.84
936.76	227.79
937.06	227.71
937.36	227.80
937.66	227.83
937.96	227.81
938.26	227.77
938.56	227.69
938.86	227.76
939.16	227.78
939.46	227.75
939.76	227.77
940.06	227.74
940.35	227.69
940.65	227.57
940.95	227.62
941.25	227.64
941.55	227.68
941.85	227.73
942.15	227.82
942.45	227.90
942.75	228.01
943.04	227.98
943.34	228.08
943.64	227.96
943.94	227.98
944.24	227.95
944.54	227.97
944.84	228.14
945.13	228.13
945.43	228.14
945.73	228.11
946.03	228.08
946.33	228.10
946.62	228.19
946.92	228.27
947.22	228.21
947.52	228.18
947.82	228.15
948.11	228.09
948.41	228.12
948.71	228.10
949.01	228.11
949.31	228.10
949.60	228.17
949.90	228.35
950.20	228.33
950.50	228.45
950.79	228.39
951.09	228.36
951.39	228.28
951.69	228.20
951.98	228.27
952.28	228.23
952.58	228.27
952.87	228.20
953.17	228.19
953.47	228.11
953.76	228.11
954.06	228.16
954.36	228.21
954.66	228.24
954.95	228.33
955.25	228.41
955.55	228.50
955.84	228.48
956.14	228.42
956.44	228.48
956.73	228.42
957.03	228.44
957.32	228.38
957.62	228.47
957.92	228.56
958.21	228.46
958.51	228.66
958.81	228.63
959.10	228.72
959.40	228.86
959.69	228.93
959.99	229.00
960.29	229.04
960.58	228.92
960.88	228.84
961.17	228.78
961.47	228.76
961.76	228.72
962.06	228.76
962.36	228.85
962.65	228.81
962.95	228.80
963.24	228.81
963.54	228.81
963.83	228.80
964.13	228.83
964.42	228.82
964.72	228.67
965.01	228.74
965.31	228.70
965.60	228.62
965.90	228.79
966.19	228.62
966.49	228.53
966.78	228.49
967.08	228.54
967.37	228.43
967.67	228.27
967.96	228.26
968.26	228.09
968.55	228.03
968.85	227.99
969.14	227.97
969.43	228.03
969.73	228.05
970.02	228.02
970.32	227.90
970.61	227.87
970.91	227.89
971.20	227.80
971.49	227.78
971.79	227.89
972.08	227.73
972.38	227.77
972.67	227.66
972.96	227.81
973.26	227.68
973.55	227.87
973.85	228.01
974.14	227.96
974.43	228.04
974.73	227.92
975.02	227.98
975.31	228.01
975.61	227.97
975.90	227.91
976.19	227.89
976.49	227.92
976.78	227.91
977.07	227.83
977.37	227.92
977.66	227.92
977.95	227.72
978.24	227.67
978.54	227.74
978.83	227.87
979.12	227.71
979.42	227.80
979.71	227.65
980.00	227.57
980.29	227.67
980.59	227.61
980.88	227.73
981.17	227.62
981.46	227.60
981.76	227.59
982.05	227.70
982.34	227.75
982.63	227.79
982.93	227.88
983.22	227.97
983.51	227.94
983.80	227.97
984.09	228.13
984.39	228.28
984.68	228.30
984.97	228.33
985.26	228.39
985.55	228.45
985.85	228.50
986.14	228.63
986.43	228.60
986.72	228.70
987.01	228.60
987.30	228.69
987.59	228.71
987.89	228.81
988.18	228.80
988.47	228.86
988.76	228.83
989.05	228.82
989.34	228.78
989.63	228.90
989.92	228.92
990.22	228.83
990.51	228.78
990.80	228.86
991.09	229.02
991.38	229.03
991.67	228.98
991.96	228.99
992.25	228.95
992.54	228.94
992.83	228.96
993.12	229.07
993.41	229.17
993.70	229.21
993.99	229.15
994.28	229.13
994.58	229.14
994.87	229.18
995.16	229.17
995.45	229.18
995.74	229.10
996.03	229.11
996.32	229.13
996.61	229.18
996.90	229.06
997.19	228.88
997.48	228.85
997.77	228.81
998.06	228.74
998.34	228.66
998.63	228.65
998.92	228.60
999.21	228.68
999.50	228.55
999.79	228.52
1000.08	228.47
1000.37	228.49
1000.66	228.53
1000.95	228.55
1001.24	228.55
1001.53	228.50
1001.82	228.38
1002.11	228.19
1002.40	228.21
1002.68	228.14
1002.97	228.21
1003.26	228.12
1003.55	228.09
1003.84	228.03
1004.13	228.17
1004.42	228.10
1004.71	228.11
1004.99	228.13
1005.28	228.10
1005.57	228.06
1005.86	228.00
1006.15	227.90
1006.44	227.82
1006.72	227.78
1007.01	227.64
1007.30	227.58
1007.59	227.60
1007.88	227.58
1008.17	227.68
1008.45	227.59
1008.74	227.51
1009.03	227.43
1009.32	227.46
1009.60	227.54
1009.89	227.48
1010.18	227.32
1010.47	227.35
1010.76	227.20
1011.04	227.01
1011.33	227.00
1011.62	226.99
1011.91	227.02
1012.19	227.10
1012.48	227.04
1012.77	227.07
1013.05	227.24
1013.34	227.25
1013.63	227.21
1013.92	227.26
1014.20	227.24
1014.49	227.22
1014.78	227.30
1015.06	227.26
1015.35	227.27
1015.64	227.22
1015.92	227.33
1016.21	227.31
1016.50	227.31
1016.78	227.50
1017.07	227.52
1017.36	227.49
1017.64	227.52
1017.93	227.50
1018.22	227.51
1018.50	227.57
1018.79	227.50
1019.08	227.40
1019.36	227.52
1019.65	227.59
1019.93	227.70
1020.22	227.82
1020.51	227.98
1020.79	227.98
1021.08	227.40
1021.36	227.40
1021.65	228.30
1021.94	227.80
1022.22	229.80
1022.51	228.10
1022.79	229.90
1023.08	229.40
1023.36	229.90
1023.65	228.00
>>>>>End Processed Spectral Data<<<<<
