SpectraSuite Data File
++++++++++++++++++++++++++++++++++++
Date: Fri Feb 01 14:38:55 EST 2013
User: group
Dark Spectrum Present: No
Reference Spectrum Present: No
Number of Sampled Component Spectra: 1
Spectrometers: USB2E7196
Integration Time (usec): 70000 (USB2E7196)
Spectra Averaged: 10 (USB2E7196)
Boxcar Smoothing: 10 (USB2E7196)
Correct for Electrical Dark: No (USB2E7196)
Strobe/Lamp Enabled: No (USB2E7196)
Correct for Detector Non-linearity: No (USB2E7196)
Correct for Stray Light: No (USB2E7196)
Number of Pixels in Processed Spectrum: 2048
>>>>>Begin Processed Spectral Data<<<<<
339.09	0.00
339.48	217.30
339.86	218.00
340.24	219.40
340.63	219.40
341.01	225.80
341.39	223.50
341.78	223.50
342.16	226.10
342.54	225.10
342.93	214.77
343.31	225.60
343.69	226.12
344.07	226.56
344.46	226.92
344.84	227.36
345.22	227.40
345.60	227.68
345.99	227.88
346.37	227.97
346.75	228.10
347.13	228.16
347.52	228.17
347.90	228.32
348.28	228.33
348.66	228.38
349.05	228.25
349.43	228.30
349.81	228.44
350.19	228.51
350.57	228.50
350.96	228.60
351.34	228.74
351.72	228.70
352.10	228.80
352.48	228.96
352.87	228.97
353.25	229.15
353.63	229.20
354.01	229.29
354.39	229.42
354.77	229.48
355.15	229.70
355.54	229.74
355.92	229.66
356.30	229.75
356.68	229.89
357.06	229.94
357.44	229.90
357.82	229.87
358.20	229.93
358.58	230.01
358.97	230.04
359.35	230.11
359.73	230.21
360.11	230.27
360.49	230.28
360.87	230.32
361.25	230.29
361.63	230.35
362.01	230.37
362.39	230.34
362.77	230.37
363.15	230.31
363.53	230.37
363.91	230.41
364.29	230.35
364.67	230.10
365.05	230.24
365.43	230.26
365.81	230.35
366.19	230.39
366.57	230.32
366.95	230.28
367.33	230.15
367.71	230.16
368.09	230.06
368.47	230.00
368.85	229.93
369.23	230.02
369.61	229.91
369.99	229.95
370.37	229.88
370.75	229.85
371.13	229.80
371.51	229.75
371.89	229.70
372.27	229.67
372.65	229.73
373.03	229.61
373.41	229.58
373.78	229.37
374.16	229.17
374.54	229.04
374.92	228.99
375.30	229.00
375.68	228.88
376.06	228.91
376.44	228.80
376.82	228.78
377.19	228.57
377.57	228.51
377.95	228.29
378.33	228.22
378.71	228.08
379.09	227.96
379.47	227.80
379.84	227.73
380.22	227.56
380.60	227.37
380.98	227.31
381.36	227.17
381.73	227.11
382.11	227.10
382.49	227.05
382.87	227.00
383.25	226.85
383.62	226.90
384.00	226.80
384.38	226.74
384.76	226.69
385.13	226.73
385.51	226.55
385.89	226.54
386.27	226.49
386.64	226.47
387.02	226.46
387.40	226.50
387.78	226.37
388.15	226.48
388.53	226.45
388.91	226.39
389.29	226.40
389.66	226.35
390.04	226.39
390.42	226.48
390.79	226.46
391.17	226.47
391.55	226.30
391.92	226.24
392.30	226.37
392.68	226.37
393.05	226.34
393.43	226.41
393.81	226.43
394.18	226.39
394.56	226.40
394.94	226.38
395.31	226.40
395.69	226.55
396.06	226.56
396.44	226.63
396.82	226.71
397.19	226.98
397.57	227.10
397.95	227.23
398.32	227.26
398.70	227.32
399.07	227.50
399.45	227.72
399.82	227.92
400.20	227.94
400.58	227.91
400.95	227.93
401.33	228.08
401.70	228.31
402.08	228.48
402.45	228.65
402.83	228.80
403.20	228.89
403.58	229.05
403.95	229.18
404.33	229.40
404.71	229.45
405.08	229.55
405.46	229.68
405.83	229.81
406.21	229.96
406.58	230.17
406.96	230.39
407.33	230.56
407.70	230.73
408.08	231.09
408.45	231.40
408.83	231.73
409.20	231.95
409.58	232.18
409.95	232.51
410.33	232.81
410.70	233.02
411.08	233.33
411.45	233.70
411.82	233.94
412.20	234.31
412.57	234.77
412.95	235.14
413.32	235.66
413.69	236.08
414.07	236.50
414.44	237.02
414.82	237.46
415.19	238.00
415.56	238.55
415.94	239.11
416.31	239.84
416.68	240.44
417.06	241.28
417.43	242.02
417.81	242.92
418.18	243.72
418.55	244.78
418.93	245.79
419.30	246.71
419.67	247.78
420.04	248.83
420.42	250.03
420.79	251.30
421.16	252.49
421.54	253.82
421.91	255.32
422.28	256.70
422.66	258.24
423.03	259.77
423.40	261.29
423.77	262.91
424.15	264.60
424.52	266.40
424.89	268.30
425.26	270.04
425.64	271.64
426.01	273.64
426.38	275.69
426.75	277.71
427.13	279.78
427.50	282.12
427.87	284.32
428.24	286.45
428.61	288.53
428.99	291.00
429.36	293.53
429.73	295.89
430.10	298.40
430.47	300.88
430.85	303.53
431.22	306.27
431.59	309.26
431.96	312.03
432.33	315.10
432.70	318.00
433.08	321.61
433.45	325.00
433.82	328.23
434.19	331.73
434.56	335.38
434.93	338.68
435.30	341.78
435.68	345.44
436.05	349.05
436.42	352.65
436.79	355.95
437.16	359.46
437.53	363.25
437.90	366.94
438.27	370.57
438.64	374.29
439.01	377.73
439.38	380.63
439.75	383.49
440.13	386.95
440.50	389.96
440.87	392.38
441.24	394.87
441.61	397.86
441.98	399.78
442.35	402.32
442.72	404.87
443.09	407.53
443.46	409.14
443.83	410.30
444.20	411.21
444.57	412.44
444.94	413.17
445.31	413.86
445.68	414.70
446.05	415.02
446.42	414.93
446.79	414.79
447.16	414.50
447.53	414.55
447.90	413.33
448.27	412.31
448.64	410.69
449.01	409.72
449.37	407.53
449.74	405.72
450.11	403.03
450.48	400.27
450.85	397.29
451.22	394.77
451.59	392.44
451.96	390.20
452.33	387.17
452.70	384.36
453.07	380.88
453.43	377.45
453.80	374.26
454.17	370.83
454.54	367.71
454.91	364.44
455.28	361.05
455.65	358.00
456.02	355.17
456.38	352.59
456.75	349.25
457.12	346.41
457.49	343.47
457.86	340.75
458.23	338.48
458.59	335.98
458.96	333.37
459.33	331.10
459.70	328.76
460.07	326.87
460.43	324.66
460.80	322.70
461.17	320.80
461.54	318.73
461.91	316.95
462.27	315.06
462.64	313.41
463.01	311.71
463.38	309.82
463.74	307.86
464.11	306.22
464.48	304.78
464.85	303.27
465.21	302.08
465.58	300.89
465.95	299.36
466.32	298.07
466.68	296.91
467.05	295.55
467.42	294.34
467.78	293.00
468.15	291.83
468.52	290.93
468.88	289.63
469.25	288.64
469.62	287.71
469.98	286.80
470.35	285.91
470.72	285.03
471.08	284.19
471.45	283.51
471.82	282.80
472.18	281.88
472.55	281.21
472.92	280.53
473.28	279.70
473.65	279.03
474.02	278.49
474.38	277.90
474.75	277.46
475.11	276.87
475.48	276.33
475.85	275.67
476.21	275.19
476.58	274.69
476.94	274.23
477.31	273.76
477.67	273.34
478.04	272.94
478.41	272.49
478.77	272.30
479.14	271.71
479.50	271.32
479.87	271.13
480.23	270.83
480.60	270.60
480.96	270.33
481.33	270.20
481.69	269.90
482.06	269.48
482.42	269.21
482.79	269.01
483.15	268.96
483.52	269.00
483.88	268.83
484.25	268.79
484.61	268.62
484.98	268.60
485.34	268.44
485.71	268.32
486.07	268.30
486.44	268.17
486.80	268.23
487.17	268.17
487.53	268.17
487.90	268.28
488.26	268.39
488.62	268.53
488.99	268.58
489.35	268.71
489.72	268.92
490.08	269.01
490.44	268.95
490.81	269.02
491.17	269.14
491.54	269.26
491.90	269.25
492.26	269.40
492.63	269.66
492.99	270.00
493.36	270.31
493.72	270.63
494.08	270.92
494.45	271.31
494.81	271.75
495.17	272.05
495.54	272.35
495.90	272.56
496.26	272.82
496.63	273.03
496.99	273.31
497.35	273.79
497.72	274.17
498.08	274.71
498.44	275.14
498.80	275.62
499.17	275.91
499.53	276.35
499.89	276.80
500.26	277.15
500.62	277.46
500.98	277.90
501.34	278.32
501.71	278.63
502.07	278.99
502.43	279.34
502.79	279.86
503.16	280.28
503.52	280.77
503.88	281.28
504.24	281.85
504.60	282.34
504.97	282.76
505.33	283.31
505.69	283.96
506.05	284.56
506.41	285.20
506.78	286.11
507.14	286.82
507.50	287.71
507.86	288.46
508.22	289.28
508.59	290.10
508.95	290.93
509.31	292.10
509.67	293.09
510.03	294.06
510.39	295.03
510.75	296.11
511.12	297.13
511.48	298.33
511.84	299.58
512.20	300.99
512.56	302.27
512.92	303.68
513.28	305.11
513.64	306.54
514.00	308.06
514.37	309.54
514.73	311.34
515.09	312.95
515.45	314.82
515.81	316.75
516.17	318.57
516.53	320.57
516.89	322.40
517.25	324.57
517.61	326.81
517.97	329.06
518.33	331.45
518.69	333.90
519.05	336.47
519.41	339.02
519.77	341.66
520.13	344.56
520.49	347.31
520.85	350.15
521.21	353.12
521.57	356.20
521.93	359.29
522.29	362.54
522.65	365.70
523.01	368.90
523.37	372.23
523.73	375.86
524.09	379.39
524.45	383.10
524.81	386.90
525.17	390.81
525.53	394.80
525.89	398.85
526.25	403.07
526.61	407.12
526.97	411.44
527.33	415.83
527.68	420.45
528.04	424.96
528.40	429.69
528.76	434.57
529.12	439.29
529.48	444.20
529.84	449.05
530.20	454.41
530.56	459.77
530.91	465.19
531.27	470.60
531.63	476.03
531.99	481.42
532.35	486.75
532.71	492.36
533.07	498.08
533.42	503.94
533.78	509.69
534.14	515.65
534.50	521.43
534.86	527.39
535.21	533.18
535.57	539.29
535.93	545.34
536.29	551.46
536.65	557.72
537.00	563.89
537.36	570.47
537.72	576.67
538.08	582.84
538.44	589.23
538.79	595.57
539.15	601.99
539.51	608.73
539.87	615.66
540.22	622.14
540.58	629.03
540.94	635.49
541.29	642.18
541.65	648.82
542.01	655.96
542.37	662.75
542.72	669.55
543.08	676.26
543.44	683.10
543.79	689.69
544.15	696.73
544.51	703.79
544.87	710.48
545.22	717.14
545.58	723.96
545.94	730.27
546.29	737.06
546.65	743.83
547.01	750.41
547.36	756.86
547.72	763.36
548.07	769.50
548.43	775.81
548.79	782.11
549.14	788.20
549.50	794.19
549.86	800.37
550.21	806.42
550.57	812.72
550.92	818.74
551.28	825.15
551.64	830.83
551.99	836.84
552.35	842.70
552.70	848.98
553.06	854.95
553.41	861.30
553.77	866.98
554.13	872.86
554.48	878.78
554.84	884.73
555.19	890.62
555.55	896.52
555.90	902.39
556.26	907.94
556.61	913.88
556.97	919.33
557.32	925.12
557.68	930.64
558.03	936.25
558.39	941.78
558.74	947.29
559.10	952.91
559.45	958.36
559.81	964.01
560.16	969.27
560.52	974.70
560.87	979.89
561.23	985.08
561.58	990.19
561.94	995.19
562.29	999.41
562.64	1003.93
563.00	1008.35
563.35	1013.16
563.71	1018.35
564.06	1023.33
564.42	1027.98
564.77	1032.30
565.12	1036.99
565.48	1041.66
565.83	1045.97
566.19	1049.93
566.54	1053.73
566.89	1057.61
567.25	1061.40
567.60	1065.42
567.96	1069.21
568.31	1072.86
568.66	1076.54
569.02	1079.88
569.37	1083.07
569.72	1086.72
570.08	1090.31
570.43	1093.61
570.78	1096.47
571.14	1099.05
571.49	1101.58
571.84	1104.70
572.20	1107.12
572.55	1109.41
572.90	1111.07
573.26	1113.43
573.61	1115.82
573.96	1117.99
574.31	1119.70
574.67	1121.04
575.02	1122.26
575.37	1123.67
575.72	1124.65
576.08	1126.16
576.43	1127.47
576.78	1128.58
577.13	1129.83
577.49	1130.56
577.84	1131.85
578.19	1132.82
578.54	1133.59
578.90	1134.19
579.25	1134.18
579.60	1134.45
579.95	1134.80
580.30	1135.31
580.66	1135.35
581.01	1135.33
581.36	1135.61
581.71	1135.98
582.06	1136.16
582.42	1136.04
582.77	1135.86
583.12	1135.92
583.47	1135.56
583.82	1135.78
584.17	1135.52
584.53	1135.36
584.88	1135.50
585.23	1135.13
585.58	1134.81
585.93	1134.34
586.28	1134.12
586.63	1134.21
586.98	1134.15
587.34	1133.96
587.69	1133.67
588.04	1133.29
588.39	1132.71
588.74	1131.54
589.09	1130.48
589.44	1129.46
589.79	1128.66
590.14	1128.15
590.49	1127.25
590.84	1125.80
591.19	1124.59
591.54	1123.17
591.89	1120.80
592.25	1119.19
592.60	1117.13
592.95	1115.25
593.30	1113.41
593.65	1111.41
594.00	1109.14
594.35	1107.56
594.70	1105.17
595.05	1103.36
595.40	1101.07
595.75	1098.82
596.10	1097.19
596.45	1095.37
596.80	1094.06
597.15	1092.30
597.50	1089.85
597.85	1087.95
598.19	1086.41
598.54	1084.36
598.89	1082.62
599.24	1081.67
599.59	1079.72
599.94	1077.85
600.29	1075.93
600.64	1074.10
600.99	1071.59
601.34	1069.70
601.69	1067.45
602.04	1065.58
602.39	1063.15
602.74	1061.43
603.08	1059.51
603.43	1057.82
603.78	1055.45
604.13	1052.82
604.48	1050.27
604.83	1047.96
605.18	1045.84
605.53	1043.24
605.87	1040.19
606.22	1037.56
606.57	1034.48
606.92	1031.77
607.27	1029.34
607.62	1027.15
607.96	1024.70
608.31	1022.42
608.66	1019.56
609.01	1016.28
609.36	1012.81
609.70	1009.42
610.05	1005.90
610.40	1002.81
610.75	999.31
611.10	995.80
611.44	991.99
611.79	988.61
612.14	984.90
612.49	980.93
612.83	977.12
613.18	973.68
613.53	970.04
613.88	966.28
614.22	962.70
614.57	958.88
614.92	954.98
615.27	951.16
615.61	947.04
615.96	943.29
616.31	940.02
616.65	937.12
617.00	933.81
617.35	930.50
617.70	926.69
618.04	922.60
618.39	919.14
618.74	915.95
619.08	912.58
619.43	909.35
619.78	905.98
620.12	902.94
620.47	899.57
620.82	895.77
621.16	892.54
621.51	888.97
621.85	885.21
622.20	881.40
622.55	877.78
622.89	874.50
623.24	871.12
623.59	867.57
623.93	864.00
624.28	860.47
624.62	856.94
624.97	853.42
625.32	850.27
625.66	847.09
626.01	843.79
626.35	840.03
626.70	836.40
627.04	833.01
627.39	828.99
627.73	825.49
628.08	822.31
628.43	818.73
628.77	815.25
629.12	811.79
629.46	808.40
629.81	804.56
630.15	800.93
630.50	797.38
630.84	793.29
631.19	789.58
631.53	785.91
631.88	781.91
632.22	778.19
632.57	774.39
632.91	770.50
633.26	766.40
633.60	762.68
633.95	758.96
634.29	755.38
634.64	752.21
634.98	748.49
635.32	745.25
635.67	741.91
636.01	738.49
636.36	735.24
636.70	731.96
637.05	728.90
637.39	726.03
637.73	722.75
638.08	720.10
638.42	717.01
638.77	713.80
639.11	710.55
639.45	707.26
639.80	704.03
640.14	700.94
640.49	698.01
640.83	695.04
641.17	692.11
641.52	689.04
641.86	685.81
642.20	682.92
642.55	679.42
642.89	676.21
643.23	672.70
643.58	669.58
643.92	666.08
644.26	662.76
644.61	659.59
644.95	656.20
645.29	652.59
645.64	649.07
645.98	645.75
646.32	642.83
646.66	639.65
647.01	636.32
647.35	633.25
647.69	630.07
648.04	627.04
648.38	623.54
648.72	619.87
649.06	616.40
649.41	612.98
649.75	609.64
650.09	606.24
650.43	603.09
650.78	599.66
651.12	596.44
651.46	593.31
651.80	589.85
652.14	586.90
652.49	583.71
652.83	580.79
653.17	577.67
653.51	574.20
653.85	570.99
654.20	568.00
654.54	564.62
654.88	561.19
655.22	557.70
655.56	554.75
655.90	551.81
656.25	548.90
656.59	545.91
656.93	543.16
657.27	540.40
657.61	537.43
657.95	534.72
658.29	532.12
658.64	529.25
658.98	526.50
659.32	523.28
659.66	520.48
660.00	517.52
660.34	515.00
660.68	512.33
661.02	509.79
661.36	507.07
661.70	504.51
662.05	502.16
662.39	499.76
662.73	497.40
663.07	494.99
663.41	492.56
663.75	490.04
664.09	487.65
664.43	485.29
664.77	483.09
665.11	480.71
665.45	478.27
665.79	475.90
666.13	473.21
666.47	471.09
666.81	468.77
667.15	466.40
667.49	463.84
667.83	461.72
668.17	459.36
668.51	457.00
668.85	454.70
669.19	452.63
669.53	450.39
669.87	447.90
670.21	445.69
670.55	443.46
670.89	441.53
671.23	439.39
671.57	437.27
671.91	435.16
672.25	433.05
672.58	431.03
672.92	429.10
673.26	427.39
673.60	425.61
673.94	423.91
674.28	422.18
674.62	420.62
674.96	418.86
675.30	417.19
675.64	415.58
675.97	413.90
676.31	412.00
676.65	410.29
676.99	408.88
677.33	407.10
677.67	405.41
678.01	403.59
678.34	401.86
678.68	400.24
679.02	398.52
679.36	396.83
679.70	395.24
680.04	393.53
680.37	391.88
680.71	390.07
681.05	388.40
681.39	386.86
681.73	385.28
682.06	383.81
682.40	382.50
682.74	381.02
683.08	379.57
683.42	378.08
683.75	376.49
684.09	374.78
684.43	373.44
684.77	372.12
685.10	370.65
685.44	369.28
685.78	367.82
686.12	366.59
686.45	365.32
686.79	363.82
687.13	362.58
687.46	361.16
687.80	359.76
688.14	358.28
688.48	356.78
688.81	355.36
689.15	353.83
689.49	352.31
689.82	351.11
690.16	349.72
690.50	348.50
690.83	347.26
691.17	346.10
691.51	344.80
691.84	343.52
692.18	342.27
692.52	340.95
692.85	339.65
693.19	338.41
693.52	337.19
693.86	335.95
694.20	334.67
694.53	333.51
694.87	332.40
695.21	331.26
695.54	330.08
695.88	328.70
696.21	327.60
696.55	326.37
696.88	325.04
697.22	323.91
697.56	322.71
697.89	321.65
698.23	320.41
698.56	319.23
698.90	318.15
699.23	317.07
699.57	315.90
699.90	314.98
700.24	313.80
700.58	312.80
700.91	311.92
701.25	311.10
701.58	310.26
701.92	309.35
702.25	308.44
702.59	307.57
702.92	306.82
703.26	305.95
703.59	305.10
703.93	304.45
704.26	303.52
704.60	302.65
704.93	301.82
705.26	301.10
705.60	300.42
705.93	299.67
706.27	299.09
706.60	298.55
706.94	297.79
707.27	296.96
707.61	296.00
707.94	295.12
708.27	294.14
708.61	293.42
708.94	292.76
709.28	292.05
709.61	291.22
709.94	290.53
710.28	289.92
710.61	289.28
710.95	288.37
711.28	287.94
711.61	287.40
711.95	286.76
712.28	286.08
712.61	285.47
712.95	284.87
713.28	284.24
713.61	283.50
713.95	282.79
714.28	282.33
714.61	281.95
714.95	281.46
715.28	280.93
715.61	280.30
715.95	279.62
716.28	279.15
716.61	278.79
716.95	278.23
717.28	277.67
717.61	277.17
717.94	276.58
718.28	276.07
718.61	275.51
718.94	275.00
719.27	274.53
719.61	273.89
719.94	273.39
720.27	272.73
720.60	272.34
720.94	271.91
721.27	271.44
721.60	270.94
721.93	270.53
722.27	270.24
722.60	269.80
722.93	269.39
723.26	268.94
723.59	268.55
723.93	268.13
724.26	267.71
724.59	267.32
724.92	267.03
725.25	266.65
725.59	266.28
725.92	265.93
726.25	265.55
726.58	265.30
726.91	264.78
727.24	264.49
727.57	264.07
727.91	263.74
728.24	263.42
728.57	263.03
728.90	262.64
729.23	262.21
729.56	261.84
729.89	261.52
730.22	261.28
730.55	260.83
730.89	260.43
731.22	260.05
731.55	259.64
731.88	259.36
732.21	258.90
732.54	258.58
732.87	258.30
733.20	258.01
733.53	257.67
733.86	257.49
734.19	257.06
734.52	256.82
734.85	256.59
735.18	256.20
735.51	256.00
735.84	255.71
736.17	255.50
736.50	255.19
736.83	255.08
737.16	254.60
737.49	254.28
737.82	254.01
738.15	253.80
738.48	253.43
738.81	253.11
739.14	252.77
739.47	252.48
739.80	252.28
740.13	251.95
740.46	251.64
740.79	251.30
741.12	251.19
741.45	250.86
741.78	250.44
742.11	250.21
742.44	249.85
742.77	249.58
743.10	249.31
743.43	249.05
743.75	248.62
744.08	248.60
744.41	248.34
744.74	248.17
745.07	247.73
745.40	247.65
745.73	247.46
746.06	247.22
746.39	247.03
746.71	246.64
747.04	246.41
747.37	246.25
747.70	246.07
748.03	245.82
748.36	245.65
748.68	245.52
749.01	245.37
749.34	245.07
749.67	244.90
750.00	244.63
750.33	244.48
750.65	244.32
750.98	243.86
751.31	243.75
751.64	243.59
751.97	243.62
752.29	243.39
752.62	243.19
752.95	243.03
753.28	242.79
753.60	242.61
753.93	242.60
754.26	242.42
754.59	242.20
754.91	242.04
755.24	241.86
755.57	241.68
755.90	241.46
756.22	241.37
756.55	241.33
756.88	241.19
757.20	240.99
757.53	240.70
757.86	240.62
758.19	240.51
758.51	240.37
758.84	240.18
759.17	240.10
759.49	240.08
759.82	240.05
760.15	240.00
760.47	239.92
760.80	239.63
761.13	239.57
761.45	239.56
761.78	239.42
762.11	239.33
762.43	239.27
762.76	239.11
763.08	239.10
763.41	239.02
763.74	238.94
764.06	238.85
764.39	238.81
764.71	238.71
765.04	238.57
765.37	238.46
765.69	238.33
766.02	238.12
766.34	237.78
766.67	237.64
767.00	237.53
767.32	237.56
767.65	237.70
767.97	237.68
768.30	237.47
768.62	237.40
768.95	237.33
769.27	237.21
769.60	237.14
769.92	237.00
770.25	236.79
770.57	236.63
770.90	236.54
771.22	236.49
771.55	236.52
771.87	236.46
772.20	236.39
772.52	236.39
772.85	236.60
773.17	236.60
773.50	236.51
773.82	236.26
774.15	236.10
774.47	235.82
774.80	235.58
775.12	235.52
775.45	235.32
775.77	235.27
776.09	235.10
776.42	235.12
776.74	235.16
777.07	235.08
777.39	235.04
777.72	234.99
778.04	234.91
778.36	234.69
778.69	234.62
779.01	234.57
779.33	234.38
779.66	234.07
779.98	233.93
780.31	233.84
780.63	234.04
780.95	234.01
781.28	233.84
781.60	233.78
781.92	233.72
782.25	233.72
782.57	233.58
782.89	233.59
783.22	233.41
783.54	233.21
783.86	233.09
784.19	232.87
784.51	232.89
784.83	232.84
785.16	232.75
785.48	232.69
785.80	232.64
786.12	232.61
786.45	232.62
786.77	232.70
787.09	232.70
787.42	232.45
787.74	232.30
788.06	232.38
788.38	232.30
788.71	232.21
789.03	232.25
789.35	232.26
789.67	232.20
789.99	232.15
790.32	232.19
790.64	232.23
790.96	232.42
791.28	232.26
791.61	232.14
791.93	232.17
792.25	232.00
792.57	231.99
792.89	231.95
793.21	231.83
793.54	231.67
793.86	231.62
794.18	231.60
794.50	231.57
794.82	231.52
795.14	231.54
795.47	231.54
795.79	231.45
796.11	231.36
796.43	231.30
796.75	231.29
797.07	231.18
797.39	231.03
797.71	230.83
798.04	230.77
798.36	230.82
798.68	230.80
799.00	230.90
799.32	230.74
799.64	230.67
799.96	230.65
800.28	230.72
800.60	230.61
800.92	230.64
801.24	230.65
801.56	230.61
801.89	230.61
802.21	230.65
802.53	230.51
802.85	230.56
803.17	230.53
803.49	230.49
803.81	230.53
804.13	230.56
804.45	230.49
804.77	230.59
805.09	230.44
805.41	230.38
805.73	230.30
806.05	230.26
806.37	230.28
806.69	230.27
807.01	230.23
807.33	230.30
807.65	230.20
807.97	230.17
808.28	230.11
808.60	230.02
808.92	229.98
809.24	230.20
809.56	230.13
809.88	230.16
810.20	230.20
810.52	230.22
810.84	230.20
811.16	230.22
811.48	230.16
811.80	230.28
812.12	230.26
812.43	230.28
812.75	230.39
813.07	230.39
813.39	230.38
813.71	230.31
814.03	230.27
814.35	230.29
814.67	230.26
814.98	230.20
815.30	230.30
815.62	230.21
815.94	230.06
816.26	230.14
816.58	230.06
816.89	230.05
817.21	229.87
817.53	229.79
817.85	229.85
818.17	229.86
818.48	229.81
818.80	229.86
819.12	229.82
819.44	229.74
819.76	229.78
820.07	229.75
820.39	229.75
820.71	229.71
821.03	229.70
821.34	229.65
821.66	229.72
821.98	229.60
822.30	229.60
822.61	229.70
822.93	229.57
823.25	229.55
823.57	229.49
823.88	229.62
824.20	229.76
824.52	229.77
824.83	229.72
825.15	229.70
825.47	229.65
825.79	229.68
826.10	229.62
826.42	229.53
826.74	229.66
827.05	229.60
827.37	229.56
827.69	229.54
828.00	229.55
828.32	229.45
828.64	229.45
828.95	229.53
829.27	229.50
829.58	229.43
829.90	229.38
830.22	229.33
830.53	229.19
830.85	229.12
831.17	229.00
831.48	228.88
831.80	228.85
832.11	228.86
832.43	228.70
832.75	228.71
833.06	228.82
833.38	228.70
833.69	228.81
834.01	228.81
834.32	228.73
834.64	228.70
834.96	228.84
835.27	228.91
835.59	228.82
835.90	228.75
836.22	228.90
836.53	228.86
836.85	228.83
837.16	229.02
837.48	228.99
837.79	229.08
838.11	229.17
838.42	229.10
838.74	229.13
839.05	229.26
839.37	229.22
839.68	229.09
840.00	229.05
840.31	229.01
840.63	229.05
840.94	229.12
841.26	229.12
841.57	229.04
841.88	228.96
842.20	228.98
842.51	229.02
842.83	228.93
843.14	229.20
843.46	229.34
843.77	229.23
844.08	229.27
844.40	229.21
844.71	229.20
845.03	229.31
845.34	229.29
845.65	229.25
845.97	229.23
846.28	229.23
846.60	229.34
846.91	229.27
847.22	229.24
847.54	229.27
847.85	229.36
848.16	229.43
848.48	229.42
848.79	229.48
849.10	229.44
849.42	229.47
849.73	229.32
850.04	229.30
850.36	229.33
850.67	229.35
850.98	229.38
851.30	229.35
851.61	229.30
851.92	229.26
852.23	229.30
852.55	229.39
852.86	229.41
853.17	229.41
853.49	229.44
853.80	229.53
854.11	229.61
854.42	229.54
854.74	229.37
855.05	229.40
855.36	229.29
855.67	229.20
855.99	229.18
856.30	229.29
856.61	229.22
856.92	229.17
857.23	229.23
857.55	229.12
857.86	229.14
858.17	229.25
858.48	229.20
858.79	229.19
859.11	229.15
859.42	229.10
859.73	228.95
860.04	228.90
860.35	228.74
860.66	228.62
860.98	228.64
861.29	228.74
861.60	228.62
861.91	228.72
862.22	228.70
862.53	228.58
862.84	228.45
863.16	228.42
863.47	228.39
863.78	228.23
864.09	228.31
864.40	228.24
864.71	228.11
865.02	228.21
865.33	228.14
865.64	228.11
865.95	228.06
866.27	228.26
866.58	228.20
866.89	228.32
867.20	228.28
867.51	228.22
867.82	228.28
868.13	228.38
868.44	228.40
868.75	228.40
869.06	228.43
869.37	228.36
869.68	228.37
869.99	228.37
870.30	228.40
870.61	228.51
870.92	228.63
871.23	228.57
871.54	228.53
871.85	228.69
872.16	228.69
872.47	228.70
872.78	228.60
873.09	228.66
873.40	228.61
873.71	228.69
874.02	228.59
874.33	228.45
874.64	228.40
874.95	228.32
875.26	228.36
875.56	228.42
875.87	228.41
876.18	228.40
876.49	228.52
876.80	228.61
877.11	228.59
877.42	228.50
877.73	228.49
878.04	228.40
878.35	228.40
878.66	228.36
878.96	228.38
879.27	228.39
879.58	228.37
879.89	228.29
880.20	228.28
880.51	228.47
880.82	228.45
881.12	228.50
881.43	228.39
881.74	228.45
882.05	228.38
882.36	228.40
882.67	228.43
882.97	228.30
883.28	228.28
883.59	228.14
883.90	228.13
884.21	228.17
884.51	228.25
884.82	228.11
885.13	228.15
885.44	228.23
885.74	228.12
886.05	228.14
886.36	228.17
886.67	228.09
886.98	228.16
887.28	228.22
887.59	228.29
887.90	228.31
888.20	228.23
888.51	228.35
888.82	228.33
889.13	228.40
889.43	228.59
889.74	228.47
890.05	228.56
890.35	228.58
890.66	228.58
890.97	228.60
891.28	228.69
891.58	228.69
891.89	228.47
892.20	228.51
892.50	228.55
892.81	228.54
893.12	228.59
893.42	228.53
893.73	228.51
894.04	228.42
894.34	228.41
894.65	228.39
894.95	228.24
895.26	228.27
895.57	228.32
895.87	228.12
896.18	228.16
896.48	228.09
896.79	228.08
897.10	228.10
897.40	228.06
897.71	228.05
898.01	228.06
898.32	228.33
898.63	228.35
898.93	228.35
899.24	228.34
899.54	228.29
899.85	228.18
900.15	228.25
900.46	228.31
900.76	228.30
901.07	228.30
901.38	228.48
901.68	228.43
901.99	228.29
902.29	228.31
902.60	228.29
902.90	228.23
903.21	228.21
903.51	228.19
903.82	228.31
904.12	228.26
904.43	228.25
904.73	228.10
905.03	228.10
905.34	228.27
905.64	228.32
905.95	228.34
906.25	228.34
906.56	228.25
906.86	228.18
907.17	228.24
907.47	228.29
907.77	228.21
908.08	228.20
908.38	228.22
908.69	228.25
908.99	228.43
909.30	228.55
909.60	228.56
909.90	228.57
910.21	228.35
910.51	228.39
910.81	228.34
911.12	228.42
911.42	228.36
911.73	228.18
912.03	228.11
912.33	228.22
912.64	228.20
912.94	228.31
913.24	228.29
913.55	228.22
913.85	228.27
914.15	228.36
914.46	228.39
914.76	228.39
915.06	228.38
915.37	228.21
915.67	228.23
915.97	228.22
916.27	228.23
916.58	228.36
916.88	228.30
917.18	228.43
917.49	228.49
917.79	228.50
918.09	228.54
918.39	228.60
918.70	228.48
919.00	228.52
919.30	228.51
919.60	228.57
919.91	228.57
920.21	228.50
920.51	228.37
920.81	228.34
921.12	228.41
921.42	228.35
921.72	228.43
922.02	228.39
922.32	228.52
922.63	228.56
922.93	228.60
923.23	228.62
923.53	228.47
923.83	228.39
924.13	228.55
924.44	228.53
924.74	228.63
925.04	228.64
925.34	228.66
925.64	228.52
925.94	228.47
926.24	228.57
926.55	228.57
926.85	228.60
927.15	228.69
927.45	228.70
927.75	228.73
928.05	228.67
928.35	228.66
928.65	228.66
928.95	228.69
929.26	228.71
929.56	228.76
929.86	228.83
930.16	228.86
930.46	228.74
930.76	228.70
931.06	228.59
931.36	228.75
931.66	228.76
931.96	228.87
932.26	228.97
932.56	228.96
932.86	229.00
933.16	229.02
933.46	228.90
933.76	228.76
934.06	228.85
934.36	228.93
934.66	228.88
934.96	228.85
935.26	228.89
935.56	228.87
935.86	228.75
936.16	228.66
936.46	228.60
936.76	228.53
937.06	228.60
937.36	228.63
937.66	228.57
937.96	228.58
938.26	228.55
938.56	228.45
938.86	228.35
939.16	228.30
939.46	228.30
939.76	228.40
940.06	228.51
940.35	228.43
940.65	228.32
940.95	228.26
941.25	228.08
941.55	227.99
941.85	227.93
942.15	228.01
942.45	228.05
942.75	228.01
943.04	228.06
943.34	228.06
943.64	227.92
943.94	227.89
944.24	227.81
944.54	227.78
944.84	227.78
945.13	227.84
945.43	227.91
945.73	227.88
946.03	227.84
946.33	227.84
946.62	227.81
946.92	227.85
947.22	227.93
947.52	227.88
947.82	227.99
948.11	227.93
948.41	227.95
948.71	228.05
949.01	228.06
949.31	228.10
949.60	228.03
949.90	228.10
950.20	228.10
950.50	228.20
950.79	228.26
951.09	228.39
951.39	228.34
951.69	228.33
951.98	228.48
952.28	228.52
952.58	228.50
952.87	228.51
953.17	228.56
953.47	228.52
953.76	228.70
954.06	228.59
954.36	228.58
954.66	228.56
954.95	228.51
955.25	228.54
955.55	228.54
955.84	228.53
956.14	228.51
956.44	228.50
956.73	228.46
957.03	228.45
957.32	228.44
957.62	228.41
957.92	228.37
958.21	228.22
958.51	228.34
958.81	228.34
959.10	228.38
959.40	228.36
959.69	228.37
959.99	228.34
960.29	228.29
960.58	228.31
960.88	228.41
961.17	228.40
961.47	228.44
961.76	228.37
962.06	228.49
962.36	228.56
962.65	228.55
962.95	228.56
963.24	228.54
963.54	228.49
963.83	228.61
964.13	228.61
964.42	228.53
964.72	228.43
965.01	228.42
965.31	228.41
965.60	228.35
965.90	228.55
966.19	228.56
966.49	228.64
966.78	228.62
967.08	228.57
967.37	228.60
967.67	228.62
967.96	228.73
968.26	228.64
968.55	228.60
968.85	228.49
969.14	228.48
969.43	228.40
969.73	228.45
970.02	228.34
970.32	228.30
970.61	228.29
970.91	228.24
971.20	228.12
971.49	228.01
971.79	228.01
972.08	227.79
972.38	227.75
972.67	227.72
972.96	227.75
973.26	227.63
973.55	227.63
973.85	227.56
974.14	227.44
974.43	227.52
974.73	227.56
975.02	227.66
975.31	227.59
975.61	227.58
975.90	227.48
976.19	227.47
976.49	227.54
976.78	227.51
977.07	227.51
977.37	227.60
977.66	227.66
977.95	227.70
978.24	227.70
978.54	227.76
978.83	227.66
979.12	227.68
979.42	227.72
979.71	227.66
980.00	227.63
980.29	227.65
980.59	227.53
980.88	227.60
981.17	227.62
981.46	227.64
981.76	227.58
982.05	227.68
982.34	227.70
982.63	227.67
982.93	227.62
983.22	227.60
983.51	227.47
983.80	227.48
984.09	227.49
984.39	227.50
984.68	227.41
984.97	227.54
985.26	227.45
985.55	227.58
985.85	227.64
986.14	227.68
986.43	227.75
986.72	227.86
987.01	227.75
987.30	227.75
987.59	227.64
987.89	227.78
988.18	227.71
988.47	227.74
988.76	227.81
989.05	227.86
989.34	227.90
989.63	228.05
989.92	228.16
990.22	228.11
990.51	228.10
990.80	228.14
991.09	228.16
991.38	228.21
991.67	228.12
991.96	228.03
992.25	228.03
992.54	227.93
992.83	227.90
993.12	227.90
993.41	227.91
993.70	228.00
993.99	228.01
994.28	227.99
994.58	228.02
994.87	227.90
995.16	227.97
995.45	227.96
995.74	227.97
996.03	227.91
996.32	227.89
996.61	227.93
996.90	227.99
997.19	227.86
997.48	227.86
997.77	227.80
998.06	227.78
998.34	227.79
998.63	227.90
998.92	227.91
999.21	227.84
999.50	227.80
999.79	227.81
1000.08	227.87
1000.37	227.88
1000.66	227.85
1000.95	228.01
1001.24	227.96
1001.53	228.03
1001.82	227.90
1002.11	227.89
1002.40	228.00
1002.68	228.06
1002.97	228.18
1003.26	228.16
1003.55	228.21
1003.84	228.28
1004.13	228.34
1004.42	228.21
1004.71	228.16
1004.99	228.09
1005.28	228.17
1005.57	228.07
1005.86	227.99
1006.15	227.88
1006.44	227.81
1006.72	227.76
1007.01	227.62
1007.30	227.70
1007.59	227.62
1007.88	227.64
1008.17	227.66
1008.45	227.61
1008.74	227.48
1009.03	227.26
1009.32	227.40
1009.60	227.34
1009.89	227.29
1010.18	227.24
1010.47	227.40
1010.76	227.37
1011.04	227.40
1011.33	227.60
1011.62	227.75
1011.91	227.91
1012.19	227.97
1012.48	228.01
1012.77	228.10
1013.05	228.16
1013.34	228.14
1013.63	228.19
1013.92	228.25
1014.20	228.12
1014.49	228.22
1014.78	228.34
1015.06	228.35
1015.35	228.33
1015.64	228.43
1015.92	228.52
1016.21	228.56
1016.50	228.50
1016.78	228.54
1017.07	228.54
1017.36	228.42
1017.64	228.41
1017.93	228.38
1018.22	228.32
1018.50	228.26
1018.79	228.27
1019.08	228.20
1019.36	228.24
1019.65	228.21
1019.93	228.30
1020.22	228.42
1020.51	228.38
1020.79	228.35
1021.08	227.20
1021.36	226.30
1021.65	228.90
1021.94	226.90
1022.22	228.60
1022.51	227.90
1022.79	229.50
1023.08	228.60
1023.36	229.80
1023.65	228.50
>>>>>End Processed Spectral Data<<<<<
