SpectraSuite Data File
++++++++++++++++++++++++++++++++++++
Date: Fri Feb 01 14:37:27 EST 2013
User: group
Dark Spectrum Present: No
Reference Spectrum Present: No
Number of Sampled Component Spectra: 1
Spectrometers: USB2E7196
Integration Time (usec): 70000 (USB2E7196)
Spectra Averaged: 10 (USB2E7196)
Boxcar Smoothing: 10 (USB2E7196)
Correct for Electrical Dark: No (USB2E7196)
Strobe/Lamp Enabled: No (USB2E7196)
Correct for Detector Non-linearity: No (USB2E7196)
Correct for Stray Light: No (USB2E7196)
Number of Pixels in Processed Spectrum: 2048
>>>>>Begin Processed Spectral Data<<<<<
339.09	0.00
339.48	216.10
339.86	217.00
340.24	218.80
340.63	220.50
341.01	225.30
341.39	222.70
341.78	225.00
342.16	226.60
342.54	227.60
342.93	214.72
343.31	225.56
343.69	226.15
344.07	226.69
344.46	227.10
344.84	227.50
345.22	227.71
345.60	227.97
345.99	228.12
346.37	228.27
346.75	228.27
347.13	228.32
347.52	228.45
347.90	228.57
348.28	228.55
348.66	228.63
349.05	228.64
349.43	228.57
349.81	228.65
350.19	228.71
350.57	228.75
350.96	228.85
351.34	228.98
351.72	229.03
352.10	229.12
352.48	229.11
352.87	229.14
353.25	229.03
353.63	229.03
354.01	229.06
354.39	229.04
354.77	229.16
355.15	229.36
355.54	229.24
355.92	229.20
356.30	229.27
356.68	229.49
357.06	229.47
357.44	229.50
357.82	229.53
358.20	229.61
358.58	229.61
358.97	229.54
359.35	229.56
359.73	229.61
360.11	229.60
360.49	229.75
360.87	229.71
361.25	229.82
361.63	229.94
362.01	229.96
362.39	229.99
362.77	229.98
363.15	229.89
363.53	229.90
363.91	229.90
364.29	229.86
364.67	229.63
365.05	229.66
365.43	229.78
365.81	229.69
366.19	229.70
366.57	229.67
366.95	229.65
367.33	229.50
367.71	229.43
368.09	229.47
368.47	229.36
368.85	229.34
369.23	229.33
369.61	229.26
369.99	229.30
370.37	229.21
370.75	229.23
371.13	229.09
371.51	229.05
371.89	229.01
372.27	228.92
372.65	228.86
373.03	228.79
373.41	228.63
373.78	228.58
374.16	228.40
374.54	228.37
374.92	228.34
375.30	228.25
375.68	228.08
376.06	227.96
376.44	227.97
376.82	227.89
377.19	227.80
377.57	227.65
377.95	227.53
378.33	227.52
378.71	227.32
379.09	227.29
379.47	227.30
379.84	227.19
380.22	227.02
380.60	226.93
380.98	226.78
381.36	226.76
381.73	226.79
382.11	226.77
382.49	226.69
382.87	226.50
383.25	226.51
383.62	226.72
384.00	226.64
384.38	226.48
384.76	226.50
385.13	226.52
385.51	226.51
385.89	226.32
386.27	226.25
386.64	226.23
387.02	226.20
387.40	226.13
387.78	226.14
388.15	226.21
388.53	226.29
388.91	226.30
389.29	226.22
389.66	226.21
390.04	226.23
390.42	226.30
390.79	226.39
391.17	226.48
391.55	226.29
391.92	226.34
392.30	226.40
392.68	226.43
393.05	226.43
393.43	226.56
393.81	226.74
394.18	226.76
394.56	226.77
394.94	226.91
395.31	226.86
395.69	226.96
396.06	227.10
396.44	227.02
396.82	227.12
397.19	227.27
397.57	227.24
397.95	227.33
398.32	227.31
398.70	227.37
399.07	227.41
399.45	227.43
399.82	227.43
400.20	227.48
400.58	227.49
400.95	227.50
401.33	227.55
401.70	227.81
402.08	227.90
402.45	228.10
402.83	228.18
403.20	228.40
403.58	228.63
403.95	228.68
404.33	228.97
404.71	229.18
405.08	229.51
405.46	229.71
405.83	229.85
406.21	230.07
406.58	230.26
406.96	230.45
407.33	230.85
407.70	231.23
408.08	231.67
408.45	232.09
408.83	232.44
409.20	232.72
409.58	232.88
409.95	233.33
410.33	233.71
410.70	234.05
411.08	234.50
411.45	234.93
411.82	235.32
412.20	235.88
412.57	236.50
412.95	236.95
413.32	237.63
413.69	238.36
414.07	239.12
414.44	239.85
414.82	240.68
415.19	241.61
415.56	242.43
415.94	243.31
416.31	244.35
416.68	245.32
417.06	246.53
417.43	247.68
417.81	248.89
418.18	250.15
418.55	251.61
418.93	253.04
419.30	254.44
419.67	256.07
420.04	257.55
420.42	259.32
420.79	261.24
421.16	263.16
421.54	265.17
421.91	267.09
422.28	269.31
422.66	271.44
423.03	273.65
423.40	275.91
423.77	278.29
424.15	280.70
424.52	283.32
424.89	286.10
425.26	288.71
425.64	291.40
426.01	294.25
426.38	297.07
426.75	300.02
427.13	303.10
427.50	306.34
427.87	309.84
428.24	313.16
428.61	316.20
428.99	319.66
429.36	323.42
429.73	327.27
430.10	331.01
430.47	334.92
430.85	338.83
431.22	342.85
431.59	347.39
431.96	351.52
432.33	356.16
432.70	360.62
433.08	365.97
433.45	370.81
433.82	375.66
434.19	381.10
434.56	386.48
434.93	391.60
435.30	396.61
435.68	402.05
436.05	407.56
436.42	413.08
436.79	418.07
437.16	423.30
437.53	428.94
437.90	434.51
438.27	439.94
438.64	445.35
439.01	450.84
439.38	455.36
439.75	459.95
440.13	465.30
440.50	470.10
440.87	474.18
441.24	478.46
441.61	483.24
441.98	486.87
442.35	490.86
442.72	494.97
443.09	499.11
443.46	501.77
443.83	503.48
444.20	505.18
444.57	507.58
444.94	509.05
445.31	510.18
445.68	511.64
446.05	512.52
446.42	512.61
446.79	512.42
447.16	512.28
447.53	512.31
447.90	510.79
448.27	509.39
448.64	506.98
449.01	505.53
449.37	502.27
449.74	499.00
450.11	495.34
450.48	491.06
450.85	486.83
451.22	483.23
451.59	479.70
451.96	476.47
452.33	471.77
452.70	467.61
453.07	462.72
453.43	457.42
453.80	452.62
454.17	447.86
454.54	443.32
454.91	438.30
455.28	433.46
455.65	428.76
456.02	424.34
456.38	420.41
456.75	415.50
457.12	411.39
457.49	407.42
457.86	403.36
458.23	400.11
458.59	396.26
458.96	392.29
459.33	388.97
459.70	385.54
460.07	382.75
460.43	379.35
460.80	376.34
461.17	373.64
461.54	370.72
461.91	368.07
462.27	365.24
462.64	363.03
463.01	360.42
463.38	357.93
463.74	355.23
464.11	353.00
464.48	350.90
464.85	348.70
465.21	347.05
465.58	345.25
465.95	342.97
466.32	341.25
466.68	339.43
467.05	337.53
467.42	335.69
467.78	333.95
468.15	332.30
468.52	331.01
468.88	329.33
469.25	327.85
469.62	326.51
469.98	325.10
470.35	323.79
470.72	322.57
471.08	321.27
471.45	320.19
471.82	318.91
472.18	317.62
472.55	316.73
472.92	315.46
473.28	314.31
473.65	313.33
474.02	312.27
474.38	311.46
474.75	310.76
475.11	309.80
475.48	309.10
475.85	308.43
476.21	307.67
476.58	306.97
476.94	306.36
477.31	305.71
477.67	305.18
478.04	304.59
478.41	304.13
478.77	303.76
479.14	303.14
479.50	302.71
479.87	302.33
480.23	301.88
480.60	301.64
480.96	301.43
481.33	301.41
481.69	301.11
482.06	300.86
482.42	300.57
482.79	300.56
483.15	300.29
483.52	300.27
483.88	300.23
484.25	300.14
484.61	300.15
484.98	300.25
485.34	300.35
485.71	300.54
486.07	300.70
486.44	300.73
486.80	300.91
487.17	301.19
487.53	301.55
487.90	301.94
488.26	302.30
488.62	302.71
488.99	302.99
489.35	303.53
489.72	303.90
490.08	304.55
490.44	304.89
490.81	305.60
491.17	306.10
491.54	306.56
491.90	307.17
492.26	307.75
492.63	308.30
492.99	308.93
493.36	309.46
493.72	310.18
494.08	310.84
494.45	311.60
494.81	312.40
495.17	313.22
495.54	314.01
495.90	314.75
496.26	315.48
496.63	316.24
496.99	316.93
497.35	317.82
497.72	318.62
498.08	319.45
498.44	320.14
498.80	321.02
499.17	321.91
499.53	322.75
499.89	323.55
500.26	324.35
500.62	325.07
500.98	325.96
501.34	326.58
501.71	327.31
502.07	327.97
502.43	328.63
502.79	329.07
503.16	329.56
503.52	330.15
503.88	330.59
504.24	331.04
504.60	331.59
504.97	332.10
505.33	332.48
505.69	333.03
506.05	333.40
506.41	333.68
506.78	334.01
507.14	334.30
507.50	334.54
507.86	334.98
508.22	335.30
508.59	335.49
508.95	335.77
509.31	336.04
509.67	336.37
510.03	336.57
510.39	336.82
510.75	337.10
511.12	337.13
511.48	337.20
511.84	337.43
512.20	337.55
512.56	337.69
512.92	337.69
513.28	337.80
513.64	337.91
514.00	337.85
514.37	337.84
514.73	337.90
515.09	337.95
515.45	337.80
515.81	337.84
516.17	337.85
516.53	337.93
516.89	338.00
517.25	338.13
517.61	338.22
517.97	338.32
518.33	338.45
518.69	338.80
519.05	339.17
519.41	339.55
519.77	339.98
520.13	340.17
520.49	340.64
520.85	340.97
521.21	341.36
521.57	342.08
521.93	342.75
522.29	343.37
522.65	343.95
523.01	344.78
523.37	345.52
523.73	346.39
524.09	347.29
524.45	348.20
524.81	349.21
525.17	350.38
525.53	351.62
525.89	352.85
526.25	354.19
526.61	355.55
526.97	356.76
527.33	358.25
527.68	360.03
528.04	361.70
528.40	363.50
528.76	365.59
529.12	367.41
529.48	369.39
529.84	371.48
530.20	373.77
530.56	375.91
530.91	378.43
531.27	380.81
531.63	383.23
531.99	385.75
532.35	388.35
532.71	391.03
533.07	393.90
533.42	396.88
533.78	399.64
534.14	402.74
534.50	405.90
534.86	408.97
535.21	412.14
535.57	415.62
535.93	418.83
536.29	422.18
536.65	425.70
537.00	429.22
537.36	432.78
537.72	436.46
538.08	440.30
538.44	443.90
538.79	447.80
539.15	451.59
539.51	455.57
539.87	459.55
540.22	463.63
540.58	467.78
540.94	471.86
541.29	475.89
541.65	480.28
542.01	484.67
542.37	488.96
542.72	493.27
543.08	497.57
543.44	502.13
543.79	506.41
544.15	510.80
544.51	515.53
544.87	520.47
545.22	525.10
545.58	529.54
545.94	534.10
546.29	538.74
546.65	543.45
547.01	548.17
547.36	553.05
547.72	557.73
548.07	562.36
548.43	567.06
548.79	572.10
549.14	576.72
549.50	581.36
549.86	585.98
550.21	590.77
550.57	595.33
550.92	600.01
551.28	604.75
551.64	609.86
551.99	614.62
552.35	619.31
552.70	624.19
553.06	629.35
553.41	634.43
553.77	639.31
554.13	644.01
554.48	648.87
554.84	653.68
555.19	658.40
555.55	663.58
555.90	668.16
556.26	672.85
556.61	677.69
556.97	682.21
557.32	687.10
557.68	691.91
558.03	696.89
558.39	701.58
558.74	706.33
559.10	710.90
559.45	715.40
559.81	720.23
560.16	724.41
560.52	728.40
560.87	732.80
561.23	736.91
561.58	741.69
561.94	745.88
562.29	749.73
562.64	753.81
563.00	757.64
563.35	762.19
563.71	766.31
564.06	770.26
564.42	774.55
564.77	778.52
565.12	782.30
565.48	786.39
565.83	790.33
566.19	794.37
566.54	798.19
566.89	801.94
567.25	805.27
567.60	809.51
567.96	813.39
568.31	816.98
568.66	820.60
569.02	824.04
569.37	827.31
569.72	830.86
570.08	834.23
570.43	837.34
570.78	840.33
571.14	843.25
571.49	846.17
571.84	849.44
572.20	852.36
572.55	855.08
572.90	857.53
573.26	860.49
573.61	863.02
573.96	865.23
574.31	867.31
574.67	869.23
575.02	870.77
575.37	872.80
575.72	874.38
576.08	876.44
576.43	878.10
576.78	880.00
577.13	881.79
577.49	883.66
577.84	885.38
578.19	886.90
578.54	888.25
578.90	889.73
579.25	890.36
579.60	891.30
579.95	892.53
580.30	893.24
580.66	893.76
581.01	894.40
581.36	895.27
581.71	896.07
582.06	896.92
582.42	897.56
582.77	898.04
583.12	898.58
583.47	899.11
583.82	899.60
584.17	900.09
584.53	900.44
584.88	900.56
585.23	900.74
585.58	900.90
585.93	901.37
586.28	901.76
586.63	902.27
586.98	902.50
587.34	902.67
587.69	903.00
588.04	903.41
588.39	903.57
588.74	903.17
589.09	903.14
589.44	902.80
589.79	902.74
590.14	902.89
590.49	902.68
590.84	902.35
591.19	901.97
591.54	901.38
591.89	900.44
592.25	900.19
592.60	899.24
592.95	898.40
593.30	897.14
593.65	896.08
594.00	895.15
594.35	894.81
594.70	893.50
595.05	892.75
595.40	891.16
595.75	889.86
596.10	888.99
596.45	888.12
596.80	887.42
597.15	886.48
597.50	885.25
597.85	884.42
598.19	883.44
598.54	882.48
598.89	881.34
599.24	880.61
599.59	879.30
599.94	878.48
600.29	877.03
600.64	875.91
600.99	874.25
601.34	872.71
601.69	870.76
602.04	869.74
602.39	867.98
602.74	867.14
603.08	866.22
603.43	865.24
603.78	863.72
604.13	862.33
604.48	860.86
604.83	859.21
605.18	857.68
605.53	855.69
605.87	853.47
606.22	851.91
606.57	849.99
606.92	847.98
607.27	846.19
607.62	844.97
607.96	843.68
608.31	842.18
608.66	840.38
609.01	838.27
609.36	835.85
609.70	833.48
610.05	830.93
610.40	828.37
610.75	825.68
611.10	823.18
611.44	820.26
611.79	817.88
612.14	815.34
612.49	812.40
612.83	809.76
613.18	807.37
613.53	804.56
613.88	801.79
614.22	799.46
614.57	796.49
614.92	793.73
615.27	790.78
615.61	788.00
615.96	785.40
616.31	783.10
616.65	780.97
617.00	778.77
617.35	776.10
617.70	773.37
618.04	770.73
618.39	768.15
618.74	765.89
619.08	762.92
619.43	760.45
619.78	758.06
620.12	755.76
620.47	753.14
620.82	750.54
621.16	748.27
621.51	745.62
621.85	743.05
622.20	740.08
622.55	737.60
622.89	734.96
623.24	732.48
623.59	729.78
623.93	727.22
624.28	724.47
624.62	722.00
624.97	719.60
625.32	717.11
625.66	714.80
626.01	712.07
626.35	709.73
626.70	707.12
627.04	704.75
627.39	701.92
627.73	699.45
628.08	697.02
628.43	694.38
628.77	691.82
629.12	689.26
629.46	686.71
629.81	683.67
630.15	680.90
630.50	678.01
630.84	675.21
631.19	671.93
631.53	669.19
631.88	666.11
632.22	663.14
632.57	660.56
632.91	657.37
633.26	654.75
633.60	651.87
633.95	649.25
634.29	646.39
634.64	643.80
634.98	641.21
635.32	638.70
635.67	636.20
636.01	633.39
636.36	630.87
636.70	628.57
637.05	626.36
637.39	624.10
637.73	621.60
638.08	619.40
638.42	617.26
638.77	614.93
639.11	612.58
639.45	610.15
639.80	607.59
640.14	605.53
640.49	603.13
640.83	600.71
641.17	598.21
641.52	595.81
641.86	593.29
642.20	590.90
642.55	588.15
642.89	585.60
643.23	583.22
643.58	580.93
643.92	578.25
644.26	575.74
644.61	573.27
644.95	570.89
645.29	568.05
645.64	565.15
645.98	562.63
646.32	560.34
646.66	557.90
647.01	555.28
647.35	552.61
647.69	550.01
648.04	547.74
648.38	545.00
648.72	542.34
649.06	539.87
649.41	537.18
649.75	534.56
650.09	531.95
650.43	529.17
650.78	526.34
651.12	523.90
651.46	521.57
651.80	519.23
652.14	516.86
652.49	514.54
652.83	512.58
653.17	510.16
653.51	507.62
653.85	505.22
654.20	502.91
654.54	500.53
654.88	498.20
655.22	495.50
655.56	493.11
655.90	490.84
656.25	488.44
656.59	486.10
656.93	484.14
657.27	481.95
657.61	479.65
657.95	477.56
658.29	475.22
658.64	472.87
658.98	470.36
659.32	467.96
659.66	465.72
660.00	463.30
660.34	460.74
660.68	458.65
661.02	456.43
661.36	454.33
661.70	452.19
662.05	450.20
662.39	448.42
662.73	446.67
663.07	444.74
663.41	442.90
663.75	441.01
664.09	438.93
664.43	437.04
664.77	435.18
665.11	433.20
665.45	431.41
665.79	429.44
666.13	427.72
666.47	425.93
666.81	424.16
667.15	422.35
667.49	421.00
667.83	419.47
668.17	417.68
668.51	415.86
668.85	414.20
669.19	412.48
669.53	410.72
669.87	408.89
670.21	407.22
670.55	405.65
670.89	404.24
671.23	402.78
671.57	401.09
671.91	399.80
672.25	398.40
672.58	396.92
672.92	395.57
673.26	393.95
673.60	392.51
673.94	391.20
674.28	389.89
674.62	388.55
674.96	386.96
675.30	385.74
675.64	384.27
675.97	382.90
676.31	381.51
676.65	380.20
676.99	378.96
677.33	377.61
677.67	376.18
678.01	374.60
678.34	373.30
678.68	372.11
679.02	370.75
679.36	369.40
679.70	368.06
680.04	366.65
680.37	365.45
680.71	364.27
681.05	362.94
681.39	361.69
681.73	360.30
682.06	359.19
682.40	357.91
682.74	356.85
683.08	355.63
683.42	354.46
683.75	353.27
684.09	352.06
684.43	350.91
684.77	349.68
685.10	348.50
685.44	347.22
685.78	346.00
686.12	344.72
686.45	343.55
686.79	342.30
687.13	341.26
687.46	340.10
687.80	338.94
688.14	337.72
688.48	336.53
688.81	335.40
689.15	334.25
689.49	333.31
689.82	332.36
690.16	331.23
690.50	330.12
690.83	328.99
691.17	327.81
691.51	326.64
691.84	325.68
692.18	324.67
692.52	323.56
692.85	322.53
693.19	321.61
693.52	320.63
693.86	319.76
694.20	318.69
694.53	317.78
694.87	316.85
695.21	315.93
695.54	314.95
695.88	313.87
696.21	312.79
696.55	311.73
696.88	310.67
697.22	309.93
697.56	309.10
697.89	308.16
698.23	307.37
698.56	306.51
698.90	305.70
699.23	304.81
699.57	304.04
699.90	303.15
700.24	302.27
700.58	301.45
700.91	300.53
701.25	299.77
701.58	299.07
701.92	298.20
702.25	297.29
702.59	296.77
702.92	296.30
703.26	295.67
703.59	294.99
703.93	294.40
704.26	293.55
704.60	292.74
704.93	291.96
705.26	291.22
705.60	290.64
705.93	289.80
706.27	289.24
706.60	288.56
706.94	287.98
707.27	287.25
707.61	286.49
707.94	285.96
708.27	285.26
708.61	284.46
708.94	283.81
709.28	283.37
709.61	282.61
709.94	281.84
710.28	281.17
710.61	280.61
710.95	279.87
711.28	279.43
711.61	278.84
711.95	278.47
712.28	277.91
712.61	277.26
712.95	276.88
713.28	276.40
713.61	275.88
713.95	275.32
714.28	274.96
714.61	274.53
714.95	274.01
715.28	273.61
715.61	273.08
715.95	272.65
716.28	272.02
716.61	271.56
716.95	271.17
717.28	270.80
717.61	270.27
717.94	269.92
718.28	269.41
718.61	269.10
718.94	268.50
719.27	268.22
719.61	267.84
719.94	267.39
720.27	266.90
720.60	266.52
720.94	266.03
721.27	265.53
721.60	265.23
721.93	264.90
722.27	264.71
722.60	264.47
722.93	264.11
723.26	263.90
723.59	263.59
723.93	263.17
724.26	262.86
724.59	262.50
724.92	262.11
725.25	261.83
725.59	261.40
725.92	261.22
726.25	260.83
726.58	260.54
726.91	260.29
727.24	260.01
727.57	259.64
727.91	259.44
728.24	259.19
728.57	258.78
728.90	258.53
729.23	257.97
729.56	257.68
729.89	257.42
730.22	257.11
730.55	256.69
730.89	256.49
731.22	256.20
731.55	255.98
731.88	255.66
732.21	255.29
732.54	254.97
732.87	254.66
733.20	254.29
733.53	253.93
733.86	253.62
734.19	253.30
734.52	253.12
734.85	252.97
735.18	252.74
735.51	252.50
735.84	252.17
736.17	252.07
736.50	251.84
736.83	251.67
737.16	251.36
737.49	251.16
737.82	250.88
738.15	250.58
738.48	250.27
738.81	250.03
739.14	249.78
739.47	249.61
739.80	249.38
740.13	249.11
740.46	248.95
740.79	248.77
741.12	248.50
741.45	248.26
741.78	247.84
742.11	247.60
742.44	247.35
742.77	247.12
743.10	246.79
743.43	246.39
743.75	245.97
744.08	245.96
744.41	245.70
744.74	245.42
745.07	245.17
745.40	245.06
745.73	244.91
746.06	244.74
746.39	244.58
746.71	244.23
747.04	244.17
747.37	243.95
747.70	243.62
748.03	243.35
748.36	243.13
748.68	243.03
749.01	242.84
749.34	242.57
749.67	242.32
750.00	242.24
750.33	242.18
750.65	242.08
750.98	241.77
751.31	241.58
751.64	241.38
751.97	241.40
752.29	241.10
752.62	240.87
752.95	240.62
753.28	240.41
753.60	240.35
753.93	240.13
754.26	239.98
754.59	239.74
754.91	239.58
755.24	239.42
755.57	239.25
755.90	239.02
756.22	239.02
756.55	238.91
756.88	238.73
757.20	238.64
757.53	238.53
757.86	238.41
758.19	238.42
758.51	238.39
758.84	238.11
759.17	238.08
759.49	237.99
759.82	238.04
760.15	237.96
760.47	237.91
760.80	237.79
761.13	237.80
761.45	237.82
761.78	237.89
762.11	237.86
762.43	237.80
762.76	237.87
763.08	237.73
763.41	237.66
763.74	237.56
764.06	237.43
764.39	237.32
764.71	237.20
765.04	237.20
765.37	237.13
765.69	237.06
766.02	236.93
766.34	236.84
766.67	236.70
767.00	236.71
767.32	236.78
767.65	236.85
767.97	236.61
768.30	236.59
768.62	236.51
768.95	236.44
769.27	236.37
769.60	236.23
769.92	236.17
770.25	236.18
770.57	236.16
770.90	236.08
771.22	236.06
771.55	236.04
771.87	235.98
772.20	235.94
772.52	236.07
772.85	236.31
773.17	236.17
773.50	236.04
773.82	235.93
774.15	235.71
774.47	235.61
774.80	235.69
775.12	235.64
775.45	235.52
775.77	235.45
776.09	235.37
776.42	235.30
776.74	235.23
777.07	235.10
777.39	234.98
777.72	234.90
778.04	234.71
778.36	234.60
778.69	234.40
779.01	234.28
779.33	234.02
779.66	233.79
779.98	233.80
780.31	233.66
780.63	233.63
780.95	233.60
781.28	233.43
781.60	233.20
781.92	233.08
782.25	233.06
782.57	232.99
782.89	232.95
783.22	232.83
783.54	232.75
783.86	232.73
784.19	232.59
784.51	232.49
784.83	232.38
785.16	232.32
785.48	232.32
785.80	232.26
786.12	232.20
786.45	232.08
786.77	232.03
787.09	232.01
787.42	231.95
787.74	231.90
788.06	231.89
788.38	231.84
788.71	231.69
789.03	231.60
789.35	231.51
789.67	231.34
789.99	231.31
790.32	231.22
790.64	231.14
790.96	231.30
791.28	231.19
791.61	231.20
791.93	231.11
792.25	231.07
792.57	231.16
792.89	231.01
793.21	230.99
793.54	230.90
793.86	230.84
794.18	230.81
794.50	230.63
794.82	230.68
795.14	230.61
795.47	230.69
795.79	230.64
796.11	230.59
796.43	230.55
796.75	230.51
797.07	230.61
797.39	230.62
797.71	230.43
798.04	230.46
798.36	230.50
798.68	230.48
799.00	230.42
799.32	230.32
799.64	230.40
799.96	230.34
800.28	230.36
800.60	230.36
800.92	230.30
801.24	230.41
801.56	230.34
801.89	230.37
802.21	230.38
802.53	230.31
802.85	230.26
803.17	230.38
803.49	230.46
803.81	230.41
804.13	230.44
804.45	230.50
804.77	230.52
805.09	230.52
805.41	230.61
805.73	230.62
806.05	230.60
806.37	230.63
806.69	230.79
807.01	230.87
807.33	230.97
807.65	230.89
807.97	230.97
808.28	230.89
808.60	230.92
808.92	230.97
809.24	231.22
809.56	231.29
809.88	231.26
810.20	231.25
810.52	231.37
810.84	231.30
811.16	231.24
811.48	231.30
811.80	231.33
812.12	231.35
812.43	231.35
812.75	231.36
813.07	231.29
813.39	231.21
813.71	231.07
814.03	231.07
814.35	231.06
814.67	230.95
814.98	230.95
815.30	230.97
815.62	230.83
815.94	230.58
816.26	230.66
816.58	230.66
816.89	230.60
817.21	230.44
817.53	230.34
817.85	230.39
818.17	230.33
818.48	230.29
818.80	230.13
819.12	230.10
819.44	230.03
819.76	230.11
820.07	230.00
820.39	230.07
820.71	230.04
821.03	229.97
821.34	229.91
821.66	230.02
821.98	229.96
822.30	229.95
822.61	230.12
822.93	229.91
823.25	229.80
823.57	229.75
823.88	229.67
824.20	229.71
824.52	229.65
824.83	229.60
825.15	229.48
825.47	229.50
825.79	229.48
826.10	229.35
826.42	229.20
826.74	229.19
827.05	229.03
827.37	228.85
827.69	228.92
828.00	228.94
828.32	228.75
828.64	228.75
828.95	228.87
829.27	228.76
829.58	228.78
829.90	228.84
830.22	228.77
830.53	228.73
830.85	228.63
831.17	228.51
831.48	228.54
831.80	228.46
832.11	228.35
832.43	228.17
832.75	228.18
833.06	228.23
833.38	228.13
833.69	228.13
834.01	228.26
834.32	228.14
834.64	228.16
834.96	228.19
835.27	228.17
835.59	227.91
835.90	227.86
836.22	227.90
836.53	227.77
836.85	227.71
837.16	227.90
837.48	227.94
837.79	228.00
838.11	227.94
838.42	227.97
838.74	228.10
839.05	228.20
839.37	228.24
839.68	228.10
840.00	228.20
840.31	228.25
840.63	228.20
840.94	228.31
841.26	228.24
841.57	228.26
841.88	228.30
842.20	228.54
842.51	228.60
842.83	228.58
843.14	228.83
843.46	229.02
843.77	228.93
844.08	228.97
844.40	228.98
844.71	229.04
845.03	229.12
845.34	229.15
845.65	229.20
845.97	229.20
846.28	229.32
846.60	229.34
846.91	229.35
847.22	229.42
847.54	229.39
847.85	229.40
848.16	229.45
848.48	229.49
848.79	229.42
849.10	229.28
849.42	229.30
849.73	229.09
850.04	229.05
850.36	229.07
850.67	229.19
850.98	229.26
851.30	229.22
851.61	229.24
851.92	229.20
852.23	229.21
852.55	229.28
852.86	229.23
853.17	229.25
853.49	229.33
853.80	229.36
854.11	229.49
854.42	229.52
854.74	229.53
855.05	229.49
855.36	229.40
855.67	229.42
855.99	229.36
856.30	229.57
856.61	229.52
856.92	229.48
857.23	229.40
857.55	229.31
857.86	229.31
858.17	229.30
858.48	229.30
858.79	229.28
859.11	229.20
859.42	229.20
859.73	229.11
860.04	229.06
860.35	228.91
860.66	228.75
860.98	228.69
861.29	228.65
861.60	228.48
861.91	228.59
862.22	228.65
862.53	228.60
862.84	228.36
863.16	228.47
863.47	228.39
863.78	228.30
864.09	228.28
864.40	228.29
864.71	228.27
865.02	228.29
865.33	228.27
865.64	228.25
865.95	228.13
866.27	228.33
866.58	228.27
866.89	228.33
867.20	228.28
867.51	228.29
867.82	228.20
868.13	228.27
868.44	228.17
868.75	228.11
869.06	228.10
869.37	228.12
869.68	227.95
869.99	228.04
870.30	228.07
870.61	228.12
870.92	228.11
871.23	228.09
871.54	228.01
871.85	227.97
872.16	227.94
872.47	227.96
872.78	227.77
873.09	227.87
873.40	227.77
873.71	227.85
874.02	227.90
874.33	227.88
874.64	227.88
874.95	227.95
875.26	228.01
875.56	228.11
875.87	228.07
876.18	228.03
876.49	228.27
876.80	228.16
877.11	228.10
877.42	228.02
877.73	228.14
878.04	228.03
878.35	228.06
878.66	228.10
878.96	228.10
879.27	228.10
879.58	227.96
879.89	227.97
880.20	228.01
880.51	227.99
880.82	228.00
881.12	227.98
881.43	227.92
881.74	227.83
882.05	227.76
882.36	227.81
882.67	227.94
882.97	227.70
883.28	227.79
883.59	227.81
883.90	227.88
884.21	227.90
884.51	227.99
884.82	228.00
885.13	228.08
885.44	228.19
885.74	228.19
886.05	228.15
886.36	228.22
886.67	228.10
886.98	228.12
887.28	228.18
887.59	228.33
887.90	228.39
888.20	228.33
888.51	228.37
888.82	228.31
889.13	228.26
889.43	228.43
889.74	228.39
890.05	228.37
890.35	228.29
890.66	228.13
890.97	228.07
891.28	228.05
891.58	228.06
891.89	227.92
892.20	227.87
892.50	227.92
892.81	227.86
893.12	227.90
893.42	227.91
893.73	227.98
894.04	227.88
894.34	227.88
894.65	227.97
894.95	227.96
895.26	228.05
895.57	228.07
895.87	227.93
896.18	227.98
896.48	228.02
896.79	228.00
897.10	228.09
897.40	228.15
897.71	228.30
898.01	228.24
898.32	228.45
898.63	228.54
898.93	228.57
899.24	228.56
899.54	228.50
899.85	228.52
900.15	228.40
900.46	228.31
900.76	228.32
901.07	228.36
901.38	228.30
901.68	228.30
901.99	228.27
902.29	228.20
902.60	228.15
902.90	228.12
903.21	228.18
903.51	228.12
903.82	228.19
904.12	228.06
904.43	228.03
904.73	227.90
905.03	227.93
905.34	228.12
905.64	228.12
905.95	228.22
906.25	228.09
906.56	228.16
906.86	228.25
907.17	228.27
907.47	228.32
907.77	228.34
908.08	228.30
908.38	228.25
908.69	228.34
908.99	228.38
909.30	228.34
909.60	228.37
909.90	228.37
910.21	228.31
910.51	228.27
910.81	228.31
911.12	228.39
911.42	228.34
911.73	228.11
912.03	228.15
912.33	228.17
912.64	228.33
912.94	228.22
913.24	228.16
913.55	228.07
913.85	227.89
914.15	227.90
914.46	227.80
914.76	227.89
915.06	227.88
915.37	227.81
915.67	227.92
915.97	227.76
916.27	227.77
916.58	227.75
916.88	227.66
917.18	227.63
917.49	227.75
917.79	227.70
918.09	227.72
918.39	227.79
918.70	227.71
919.00	227.65
919.30	227.87
919.60	227.83
919.91	227.84
920.21	227.88
920.51	227.92
920.81	228.05
921.12	228.00
921.42	228.00
921.72	228.06
922.02	228.03
922.32	228.21
922.63	228.22
922.93	228.32
923.23	228.45
923.53	228.44
923.83	228.30
924.13	228.36
924.44	228.40
924.74	228.44
925.04	228.46
925.34	228.47
925.64	228.34
925.94	228.45
926.24	228.60
926.55	228.70
926.85	228.76
927.15	228.71
927.45	228.77
927.75	228.80
928.05	228.88
928.35	228.88
928.65	228.96
928.95	228.93
929.26	228.88
929.56	228.93
929.86	228.91
930.16	228.81
930.46	228.84
930.76	228.89
931.06	228.77
931.36	228.83
931.66	228.90
931.96	229.02
932.26	228.95
932.56	228.90
932.86	228.91
933.16	228.90
933.46	228.96
933.76	228.93
934.06	228.97
934.36	229.03
934.66	228.98
934.96	228.82
935.26	228.90
935.56	228.98
935.86	228.95
936.16	228.96
936.46	229.00
936.76	228.97
937.06	229.01
937.36	229.00
937.66	229.07
937.96	228.99
938.26	228.96
938.56	229.00
938.86	228.99
939.16	229.09
939.46	229.06
939.76	229.08
940.06	229.06
940.35	228.90
940.65	228.73
940.95	228.78
941.25	228.81
941.55	228.74
941.85	228.72
942.15	228.73
942.45	228.73
942.75	228.73
943.04	228.70
943.34	228.68
943.64	228.72
943.94	228.51
944.24	228.49
944.54	228.40
944.84	228.47
945.13	228.38
945.43	228.24
945.73	228.22
946.03	228.23
946.33	228.30
946.62	228.33
946.92	228.37
947.22	228.34
947.52	228.30
947.82	228.30
948.11	228.22
948.41	228.24
948.71	228.28
949.01	228.28
949.31	228.30
949.60	228.19
949.90	228.19
950.20	228.31
950.50	228.30
950.79	228.28
951.09	228.26
951.39	228.27
951.69	228.26
951.98	228.30
952.28	228.28
952.58	228.19
952.87	228.24
953.17	228.26
953.47	228.20
953.76	228.22
954.06	228.28
954.36	228.36
954.66	228.30
954.95	228.33
955.25	228.40
955.55	228.53
955.84	228.60
956.14	228.68
956.44	228.63
956.73	228.60
957.03	228.63
957.32	228.62
957.62	228.60
957.92	228.63
958.21	228.66
958.51	228.77
958.81	228.82
959.10	228.84
959.40	228.83
959.69	228.90
959.99	229.02
960.29	229.04
960.58	228.88
960.88	228.94
961.17	228.84
961.47	228.80
961.76	228.69
962.06	228.70
962.36	228.62
962.65	228.65
962.95	228.72
963.24	228.69
963.54	228.73
963.83	228.80
964.13	228.83
964.42	228.66
964.72	228.61
965.01	228.65
965.31	228.64
965.60	228.69
965.90	228.78
966.19	228.67
966.49	228.67
966.78	228.75
967.08	228.81
967.37	228.92
967.67	228.95
967.96	228.97
968.26	228.98
968.55	229.00
968.85	229.07
969.14	229.10
969.43	229.24
969.73	229.20
970.02	229.15
970.32	229.19
970.61	229.28
970.91	229.22
971.20	229.20
971.49	229.17
971.79	229.10
972.08	229.01
972.38	229.07
972.67	229.02
972.96	229.05
973.26	228.90
973.55	228.95
973.85	228.85
974.14	228.88
974.43	228.86
974.73	228.89
975.02	228.83
975.31	228.86
975.61	228.67
975.90	228.60
976.19	228.69
976.49	228.76
976.78	228.72
977.07	228.77
977.37	228.65
977.66	228.67
977.95	228.68
978.24	228.65
978.54	228.69
978.83	228.68
979.12	228.72
979.42	228.75
979.71	228.74
980.00	228.80
980.29	228.77
980.59	228.79
980.88	228.86
981.17	228.81
981.46	228.75
981.76	228.89
982.05	229.02
982.34	228.88
982.63	228.81
982.93	228.89
983.22	228.85
983.51	228.91
983.80	228.94
984.09	229.04
984.39	229.04
984.68	228.90
984.97	228.87
985.26	228.75
985.55	228.79
985.85	228.68
986.14	228.70
986.43	228.76
986.72	228.75
987.01	228.62
987.30	228.68
987.59	228.74
987.89	228.69
988.18	228.62
988.47	228.63
988.76	228.49
989.05	228.48
989.34	228.46
989.63	228.49
989.92	228.39
990.22	228.31
990.51	228.36
990.80	228.29
991.09	228.39
991.38	228.49
991.67	228.55
991.96	228.51
992.25	228.53
992.54	228.36
992.83	228.28
993.12	228.24
993.41	228.26
993.70	228.29
993.99	228.40
994.28	228.40
994.58	228.41
994.87	228.37
995.16	228.29
995.45	228.37
995.74	228.33
996.03	228.44
996.32	228.45
996.61	228.47
996.90	228.60
997.19	228.45
997.48	228.42
997.77	228.31
998.06	228.30
998.34	228.31
998.63	228.40
998.92	228.44
999.21	228.50
999.50	228.47
999.79	228.39
1000.08	228.30
1000.37	228.29
1000.66	228.29
1000.95	228.40
1001.24	228.53
1001.53	228.43
1001.82	228.47
1002.11	228.34
1002.40	228.33
1002.68	228.33
1002.97	228.49
1003.26	228.61
1003.55	228.54
1003.84	228.63
1004.13	228.83
1004.42	228.74
1004.71	228.73
1004.99	228.71
1005.28	228.77
1005.57	228.74
1005.86	228.72
1006.15	228.68
1006.44	228.70
1006.72	228.74
1007.01	228.77
1007.30	228.63
1007.59	228.68
1007.88	228.62
1008.17	228.68
1008.45	228.67
1008.74	228.61
1009.03	228.42
1009.32	228.33
1009.60	228.29
1009.89	228.23
1010.18	228.07
1010.47	228.08
1010.76	228.05
1011.04	228.04
1011.33	227.92
1011.62	227.91
1011.91	227.91
1012.19	228.07
1012.48	227.99
1012.77	228.04
1013.05	228.10
1013.34	228.14
1013.63	228.06
1013.92	228.08
1014.20	228.03
1014.49	227.94
1014.78	227.87
1015.06	227.90
1015.35	227.93
1015.64	228.02
1015.92	228.00
1016.21	227.96
1016.50	227.94
1016.78	228.07
1017.07	228.04
1017.36	228.09
1017.64	228.08
1017.93	228.09
1018.22	227.90
1018.50	227.91
1018.79	227.71
1019.08	227.58
1019.36	227.52
1019.65	227.59
1019.93	227.61
1020.22	227.80
1020.51	227.99
1020.79	228.08
1021.08	226.70
1021.36	227.40
1021.65	225.20
1021.94	228.00
1022.22	226.70
1022.51	228.40
1022.79	228.70
1023.08	230.70
1023.36	231.00
1023.65	228.40
>>>>>End Processed Spectral Data<<<<<
