SpectraSuite Data File
++++++++++++++++++++++++++++++++++++
Date: Fri Feb 01 14:33:57 EST 2013
User: group
Dark Spectrum Present: No
Reference Spectrum Present: No
Number of Sampled Component Spectra: 1
Spectrometers: USB2E7196
Integration Time (usec): 70000 (USB2E7196)
Spectra Averaged: 10 (USB2E7196)
Boxcar Smoothing: 10 (USB2E7196)
Correct for Electrical Dark: No (USB2E7196)
Strobe/Lamp Enabled: No (USB2E7196)
Correct for Detector Non-linearity: No (USB2E7196)
Correct for Stray Light: No (USB2E7196)
Number of Pixels in Processed Spectrum: 2048
>>>>>Begin Processed Spectral Data<<<<<
339.09	0.00
339.48	215.30
339.86	217.50
340.24	220.90
340.63	220.30
341.01	224.50
341.39	222.90
341.78	226.20
342.16	226.50
342.54	226.20
342.93	214.61
343.31	225.47
343.69	226.06
344.07	226.55
344.46	226.97
344.84	227.46
345.22	227.59
345.60	227.83
345.99	227.98
346.37	228.11
346.75	228.18
347.13	228.23
347.52	228.27
347.90	228.42
348.28	228.51
348.66	228.58
349.05	228.61
349.43	228.75
349.81	228.71
350.19	228.74
350.57	228.86
350.96	229.00
351.34	229.09
351.72	229.34
352.10	229.45
352.48	229.48
352.87	229.47
353.25	229.65
353.63	229.77
354.01	229.77
354.39	229.90
354.77	230.04
355.15	230.21
355.54	230.31
355.92	230.37
356.30	230.47
356.68	230.69
357.06	230.78
357.44	230.83
357.82	231.03
358.20	231.09
358.58	231.21
358.97	231.20
359.35	231.31
359.73	231.28
360.11	231.22
360.49	231.25
360.87	231.21
361.25	231.24
361.63	231.35
362.01	231.42
362.39	231.36
362.77	231.43
363.15	231.47
363.53	231.43
363.91	231.37
364.29	231.30
364.67	231.19
365.05	231.18
365.43	231.23
365.81	231.21
366.19	231.34
366.57	231.31
366.95	231.29
367.33	231.21
367.71	231.23
368.09	231.33
368.47	231.23
368.85	231.22
369.23	231.16
369.61	231.03
369.99	231.10
370.37	231.07
370.75	231.10
371.13	231.03
371.51	230.90
371.89	230.93
372.27	230.85
372.65	230.74
373.03	230.71
373.41	230.65
373.78	230.53
374.16	230.36
374.54	230.17
374.92	230.07
375.30	230.01
375.68	229.81
376.06	229.73
376.44	229.67
376.82	229.64
377.19	229.59
377.57	229.45
377.95	229.25
378.33	229.14
378.71	228.92
379.09	228.76
379.47	228.81
379.84	228.78
380.22	228.70
380.60	228.63
380.98	228.47
381.36	228.31
381.73	228.19
382.11	228.15
382.49	228.19
382.87	228.11
383.25	227.92
383.62	228.06
384.00	227.98
384.38	227.94
384.76	227.87
385.13	227.90
385.51	227.89
385.89	227.82
386.27	227.75
386.64	227.73
387.02	227.70
387.40	227.57
387.78	227.42
388.15	227.47
388.53	227.35
388.91	227.34
389.29	227.24
389.66	227.36
390.04	227.39
390.42	227.39
390.79	227.44
391.17	227.48
391.55	227.31
391.92	227.34
392.30	227.47
392.68	227.49
393.05	227.41
393.43	227.52
393.81	227.61
394.18	227.76
394.56	227.81
394.94	227.97
395.31	228.09
395.69	228.24
396.06	228.37
396.44	228.55
396.82	228.70
397.19	228.99
397.57	229.06
397.95	229.19
398.32	229.34
398.70	229.41
399.07	229.75
399.45	229.92
399.82	230.06
400.20	230.14
400.58	230.36
400.95	230.51
401.33	230.59
401.70	230.90
402.08	231.15
402.45	231.38
402.83	231.64
403.20	231.85
403.58	232.11
403.95	232.40
404.33	232.75
404.71	233.03
405.08	233.49
405.46	233.84
405.83	234.19
406.21	234.52
406.58	234.95
406.96	235.27
407.33	235.66
407.70	236.18
408.08	236.90
408.45	237.49
408.83	238.20
409.20	238.85
409.58	239.43
409.95	240.14
410.33	241.02
410.70	241.74
411.08	242.69
411.45	243.62
411.82	244.52
412.20	245.49
412.57	246.74
412.95	247.81
413.32	249.08
413.69	250.30
414.07	251.69
414.44	253.35
414.82	254.95
415.19	256.79
415.56	258.65
415.94	260.47
416.31	262.66
416.68	264.74
417.06	267.23
417.43	269.59
417.81	272.22
418.18	274.90
418.55	277.88
418.93	280.92
419.30	284.03
419.67	287.38
420.04	290.90
420.42	294.61
420.79	298.84
421.16	303.10
421.54	307.52
421.91	312.06
422.28	316.64
422.66	321.69
423.03	326.55
423.40	331.58
423.77	337.02
424.15	342.34
424.52	348.12
424.89	354.29
425.26	360.25
425.64	365.90
426.01	372.14
426.38	378.59
426.75	385.12
427.13	392.05
427.50	399.31
427.87	406.84
428.24	414.15
428.61	421.06
428.99	428.68
429.36	437.13
429.73	445.28
430.10	453.55
430.47	461.84
430.85	470.49
431.22	479.68
431.59	489.26
431.96	498.61
432.33	508.94
432.70	518.84
433.08	530.68
433.45	541.42
433.82	552.21
434.19	564.28
434.56	576.21
434.93	587.48
435.30	598.65
435.68	611.14
436.05	623.39
436.42	635.80
436.79	646.97
437.16	659.05
437.53	671.80
437.90	684.30
438.27	696.55
438.64	709.47
439.01	721.38
439.38	732.10
439.75	742.10
440.13	753.78
440.50	765.00
440.87	774.20
441.24	784.06
441.61	794.71
441.98	802.70
442.35	812.27
442.72	821.82
443.09	831.18
443.46	837.23
443.83	841.55
444.20	845.33
444.57	850.99
444.94	854.20
445.31	857.43
445.68	860.74
446.05	863.30
446.42	863.63
446.79	863.69
447.16	863.50
447.53	864.30
447.90	861.39
448.27	858.11
448.64	853.01
449.01	850.05
449.37	843.37
449.74	836.78
450.11	828.00
450.48	818.78
450.85	809.51
451.22	801.48
451.59	793.84
451.96	786.80
452.33	776.59
452.70	767.47
453.07	756.34
453.43	744.97
453.80	733.60
454.17	722.83
454.54	712.74
454.91	701.69
455.28	690.90
455.65	680.82
456.02	670.56
456.38	661.81
456.75	650.74
457.12	641.58
457.49	632.48
457.86	623.79
458.23	616.28
458.59	607.68
458.96	598.91
459.33	591.57
459.70	583.95
460.07	577.87
460.43	570.57
460.80	563.87
461.17	557.81
461.54	551.67
461.91	545.64
462.27	539.63
462.64	534.48
463.01	528.61
463.38	522.78
463.74	517.47
464.11	512.63
464.48	508.23
464.85	503.49
465.21	499.94
465.58	496.25
465.95	491.59
466.32	487.77
466.68	484.06
467.05	480.12
467.42	476.12
467.78	471.85
468.15	468.10
468.52	465.35
468.88	461.78
469.25	458.56
469.62	455.80
469.98	452.80
470.35	450.05
470.72	447.46
471.08	444.79
471.45	442.36
471.82	439.86
472.18	437.14
472.55	435.10
472.92	432.84
473.28	430.72
473.65	428.79
474.02	426.75
474.38	424.97
474.75	423.48
475.11	422.04
475.48	420.97
475.85	419.93
476.21	418.89
476.58	417.84
476.94	417.07
477.31	416.33
477.67	415.65
478.04	415.08
478.41	414.78
478.77	414.38
479.14	413.76
479.50	413.44
479.87	413.58
480.23	413.58
480.60	413.41
480.96	413.40
481.33	413.58
481.69	413.88
482.06	414.03
482.42	414.25
482.79	414.57
483.15	415.21
483.52	416.11
483.88	416.64
484.25	417.41
484.61	418.16
484.98	419.10
485.34	420.17
485.71	421.65
486.07	422.82
486.44	424.20
486.80	425.77
487.17	427.49
487.53	429.23
487.90	431.17
488.26	433.23
488.62	435.57
488.99	437.83
489.35	440.17
489.72	442.74
490.08	445.43
490.44	448.10
490.81	450.68
491.17	453.33
491.54	456.51
491.90	459.70
492.26	463.04
492.63	466.28
492.99	469.61
493.36	472.78
493.72	476.51
494.08	480.29
494.45	484.37
494.81	488.33
495.17	492.16
495.54	496.25
495.90	500.63
496.26	504.86
496.63	509.47
496.99	514.26
497.35	519.08
497.72	524.05
498.08	528.99
498.44	534.27
498.80	539.60
499.17	544.55
499.53	549.65
499.89	555.06
500.26	560.50
500.62	565.91
500.98	571.82
501.34	577.31
501.71	583.01
502.07	588.83
502.43	594.61
502.79	600.50
503.16	606.37
503.52	612.07
503.88	617.77
504.24	623.47
504.60	629.16
504.97	635.00
505.33	640.88
505.69	646.94
506.05	652.88
506.41	658.46
506.78	664.39
507.14	670.36
507.50	676.30
507.86	682.02
508.22	687.89
508.59	693.64
508.95	699.67
509.31	705.56
509.67	711.30
510.03	716.85
510.39	722.80
510.75	728.41
511.12	734.00
511.48	739.65
511.84	745.28
512.20	750.46
512.56	756.00
512.92	761.23
513.28	766.24
513.64	771.22
514.00	776.27
514.37	781.12
514.73	786.07
515.09	790.62
515.45	795.56
515.81	800.16
516.17	804.56
516.53	808.65
516.89	812.92
517.25	817.18
517.61	821.57
517.97	825.45
518.33	829.33
518.69	833.12
519.05	836.90
519.41	840.48
519.77	844.85
520.13	848.40
520.49	851.71
520.85	855.31
521.21	858.71
521.57	862.68
521.93	865.90
522.29	869.50
522.65	872.72
523.01	875.51
523.37	878.28
523.73	881.39
524.09	884.52
524.45	887.11
524.81	889.82
525.17	893.00
525.53	896.21
525.89	898.99
526.25	902.30
526.61	905.07
526.97	908.14
527.33	910.61
527.68	913.38
528.04	916.33
528.40	919.14
528.76	921.96
529.12	924.35
529.48	927.34
529.84	929.51
530.20	932.55
530.56	935.95
530.91	939.66
531.27	942.57
531.63	945.23
531.99	948.24
532.35	950.82
532.71	952.81
533.07	955.39
533.42	958.20
533.78	960.61
534.14	963.30
534.50	965.52
534.86	968.01
535.21	970.30
535.57	973.14
535.93	975.45
536.29	978.09
536.65	980.57
537.00	982.92
537.36	985.79
537.72	988.18
538.08	990.41
538.44	992.39
538.79	994.59
539.15	997.04
539.51	999.68
539.87	1002.41
540.22	1005.45
540.58	1008.01
540.94	1010.34
541.29	1012.45
541.65	1014.62
542.01	1017.26
542.37	1019.70
542.72	1022.28
543.08	1024.12
543.44	1026.60
543.79	1028.24
544.15	1030.77
544.51	1033.90
544.87	1036.10
545.22	1037.94
545.58	1039.97
545.94	1041.70
546.29	1043.74
546.65	1045.90
547.01	1047.78
547.36	1049.71
547.72	1051.16
548.07	1052.97
548.43	1054.77
548.79	1056.90
549.14	1058.85
549.50	1060.58
549.86	1062.42
550.21	1064.32
550.57	1066.54
550.92	1068.44
551.28	1070.34
551.64	1071.92
551.99	1073.18
552.35	1074.89
552.70	1077.12
553.06	1079.23
553.41	1081.43
553.77	1083.44
554.13	1085.17
554.48	1086.98
554.84	1088.74
555.19	1090.73
555.55	1092.40
555.90	1094.30
556.26	1096.05
556.61	1097.42
556.97	1098.87
557.32	1100.12
557.68	1101.26
558.03	1102.72
558.39	1104.34
558.74	1106.38
559.10	1108.00
559.45	1109.38
559.81	1111.11
560.16	1112.18
560.52	1113.50
560.87	1115.00
561.23	1116.16
561.58	1117.59
561.94	1118.97
562.29	1119.95
562.64	1120.83
563.00	1121.92
563.35	1123.51
563.71	1125.00
564.06	1126.82
564.42	1128.32
564.77	1130.03
565.12	1131.91
565.48	1133.33
565.83	1134.45
566.19	1135.64
566.54	1136.60
566.89	1137.62
567.25	1138.53
567.60	1140.04
567.96	1141.04
568.31	1141.82
568.66	1142.80
569.02	1143.45
569.37	1143.84
569.72	1144.36
570.08	1145.29
570.43	1145.81
570.78	1145.96
571.14	1145.82
571.49	1145.86
571.84	1146.40
572.20	1146.29
572.55	1145.98
572.90	1145.68
573.26	1145.60
573.61	1145.01
573.96	1144.72
574.31	1143.90
574.67	1142.84
575.02	1141.65
575.37	1140.68
575.72	1139.28
576.08	1138.52
576.43	1137.50
576.78	1136.72
577.13	1136.48
577.49	1135.70
577.84	1134.74
578.19	1133.61
578.54	1132.52
578.90	1131.27
579.25	1129.39
579.60	1127.83
579.95	1126.29
580.30	1124.72
580.66	1122.71
581.01	1121.19
581.36	1119.46
581.71	1118.31
582.06	1116.75
582.42	1115.10
582.77	1113.54
583.12	1112.13
583.47	1110.39
583.82	1108.89
584.17	1106.90
584.53	1104.74
584.88	1102.75
585.23	1100.78
585.58	1098.62
585.93	1096.61
586.28	1094.87
586.63	1092.81
586.98	1091.14
587.34	1089.18
587.69	1087.26
588.04	1085.46
588.39	1083.76
588.74	1081.09
589.09	1078.38
589.44	1075.87
589.79	1073.47
590.14	1071.04
590.49	1068.90
590.84	1066.13
591.19	1063.84
591.54	1060.95
591.89	1057.55
592.25	1054.70
592.60	1051.70
592.95	1048.74
593.30	1045.29
593.65	1042.35
594.00	1039.49
594.35	1036.53
594.70	1033.27
595.05	1030.20
595.40	1027.02
595.75	1023.72
596.10	1021.25
596.45	1018.60
596.80	1016.23
597.15	1013.55
597.50	1010.52
597.85	1007.59
598.19	1005.01
598.54	1001.87
598.89	999.44
599.24	997.33
599.59	994.44
599.94	991.99
600.29	989.34
600.64	986.85
600.99	983.26
601.34	980.37
601.69	977.23
602.04	974.31
602.39	971.15
602.74	968.47
603.08	965.45
603.43	962.52
603.78	959.45
604.13	955.92
604.48	952.68
604.83	949.46
605.18	946.43
605.53	942.86
605.87	939.15
606.22	935.76
606.57	932.35
606.92	929.13
607.27	925.70
607.62	922.58
607.96	919.49
608.31	916.89
608.66	913.44
609.01	909.57
609.36	906.31
609.70	902.48
610.05	898.69
610.40	894.99
610.75	891.11
611.10	887.41
611.44	883.51
611.79	880.07
612.14	876.37
612.49	872.02
612.83	868.22
613.18	864.71
613.53	861.06
613.88	857.12
614.22	853.19
614.57	848.82
614.92	845.11
615.27	841.55
615.61	837.28
615.96	833.65
616.31	830.43
616.65	827.17
617.00	823.72
617.35	820.13
617.70	816.59
618.04	813.09
618.39	809.24
618.74	806.17
619.08	802.30
619.43	798.73
619.78	795.37
620.12	791.82
620.47	788.20
620.82	784.40
621.16	780.90
621.51	777.67
621.85	774.67
622.20	771.00
622.55	767.34
622.89	764.27
623.24	761.09
623.59	757.79
623.93	754.32
624.28	751.17
624.62	747.82
624.97	744.57
625.32	741.25
625.66	738.29
626.01	734.70
626.35	731.62
626.70	728.46
627.04	725.35
627.39	721.88
627.73	718.83
628.08	715.74
628.43	712.56
628.77	709.18
629.12	705.81
629.46	702.60
629.81	699.20
630.15	695.68
630.50	692.12
630.84	688.48
631.19	684.86
631.53	681.51
631.88	678.01
632.22	674.43
632.57	671.26
632.91	667.96
633.26	664.75
633.60	661.35
633.95	658.00
634.29	654.85
634.64	652.20
634.98	648.90
635.32	645.97
635.67	642.98
636.01	639.89
636.36	636.90
636.70	634.00
637.05	631.20
637.39	628.56
637.73	625.83
638.08	623.30
638.42	620.58
638.77	617.91
639.11	614.92
639.45	612.19
639.80	609.17
640.14	606.24
640.49	603.59
640.83	600.72
641.17	598.24
641.52	595.48
641.86	592.60
642.20	590.07
642.55	587.41
642.89	584.69
643.23	581.91
643.58	579.44
643.92	576.62
644.26	574.10
644.61	571.52
644.95	568.91
645.29	565.94
645.64	563.05
645.98	560.18
646.32	557.77
646.66	555.11
647.01	552.61
647.35	550.35
647.69	547.66
648.04	545.45
648.38	542.63
648.72	539.75
649.06	536.99
649.41	534.31
649.75	531.39
650.09	528.62
650.43	525.98
650.78	523.05
651.12	520.30
651.46	517.43
651.80	514.81
652.14	512.18
652.49	509.98
652.83	507.70
653.17	505.10
653.51	502.57
653.85	500.09
654.20	497.54
654.54	494.64
654.88	492.02
655.22	489.09
655.56	486.46
655.90	484.05
656.25	481.76
656.59	479.55
656.93	477.20
657.27	474.94
657.61	472.63
657.95	470.54
658.29	468.40
658.64	466.12
658.98	463.47
659.32	461.20
659.66	458.84
660.00	456.44
660.34	454.23
660.68	452.01
661.02	449.79
661.36	447.70
661.70	445.74
662.05	443.91
662.39	442.00
662.73	440.09
663.07	438.30
663.41	436.32
663.75	434.21
664.09	432.40
664.43	430.48
664.77	428.81
665.11	426.85
665.45	425.09
665.79	423.36
666.13	421.65
666.47	419.81
666.81	417.89
667.15	416.09
667.49	414.43
667.83	412.73
668.17	410.99
668.51	409.16
668.85	407.53
669.19	405.96
669.53	404.41
669.87	402.76
670.21	401.14
670.55	399.54
670.89	398.30
671.23	396.63
671.57	395.27
671.91	393.67
672.25	392.27
672.58	390.64
672.92	389.11
673.26	387.81
673.60	386.36
673.94	385.08
674.28	383.85
674.62	382.69
674.96	381.40
675.30	380.29
675.64	379.12
675.97	377.70
676.31	376.30
676.65	374.84
676.99	373.80
677.33	372.48
677.67	371.10
678.01	369.46
678.34	368.27
678.68	366.77
679.02	365.39
679.36	364.08
679.70	362.80
680.04	361.59
680.37	360.26
680.71	359.09
681.05	357.99
681.39	356.78
681.73	355.36
682.06	354.36
682.40	353.10
682.74	351.80
683.08	350.68
683.42	349.52
683.75	348.43
684.09	347.07
684.43	345.90
684.77	344.81
685.10	343.62
685.44	342.47
685.78	341.49
686.12	340.39
686.45	339.26
686.79	338.13
687.13	337.12
687.46	336.03
687.80	334.96
688.14	333.59
688.48	332.44
688.81	331.40
689.15	330.11
689.49	329.01
689.82	328.00
690.16	326.94
690.50	325.81
690.83	324.88
691.17	323.87
691.51	322.87
691.84	321.95
692.18	320.97
692.52	319.87
692.85	318.71
693.19	317.90
693.52	316.91
693.86	315.92
694.20	314.92
694.53	313.95
694.87	312.85
695.21	311.85
695.54	310.91
695.88	309.92
696.21	308.94
696.55	308.00
696.88	306.96
697.22	305.97
697.56	305.15
697.89	304.07
698.23	303.27
698.56	302.38
698.90	301.51
699.23	300.63
699.57	299.82
699.90	299.07
700.24	298.01
700.58	297.24
700.91	296.50
701.25	295.79
701.58	295.16
701.92	294.56
702.25	293.97
702.59	293.22
702.92	292.49
703.26	291.91
703.59	291.28
703.93	290.80
704.26	290.27
704.60	289.56
704.93	288.96
705.26	288.23
705.60	287.60
705.93	286.92
706.27	286.40
706.60	285.95
706.94	285.39
707.27	284.84
707.61	284.25
707.94	283.83
708.27	283.24
708.61	282.71
708.94	282.21
709.28	281.67
709.61	281.20
709.94	280.81
710.28	280.26
710.61	279.69
710.95	278.99
711.28	278.64
711.61	278.15
711.95	277.72
712.28	277.31
712.61	276.80
712.95	276.45
713.28	276.08
713.61	275.62
713.95	275.12
714.28	274.75
714.61	274.24
714.95	273.72
715.28	273.18
715.61	272.57
715.95	272.08
716.28	271.65
716.61	271.15
716.95	270.67
717.28	270.20
717.61	269.75
717.94	269.38
718.28	268.80
718.61	268.42
718.94	268.07
719.27	267.62
719.61	267.31
719.94	266.90
720.27	266.50
720.60	266.10
720.94	265.85
721.27	265.45
721.60	265.14
721.93	264.85
722.27	264.57
722.60	264.35
722.93	263.93
723.26	263.59
723.59	263.33
723.93	262.88
724.26	262.62
724.59	262.41
724.92	262.13
725.25	261.83
725.59	261.52
725.92	261.14
726.25	260.85
726.58	260.48
726.91	260.19
727.24	259.86
727.57	259.50
727.91	259.13
728.24	258.88
728.57	258.58
728.90	258.16
729.23	257.80
729.56	257.44
729.89	257.30
730.22	256.96
730.55	256.55
730.89	256.30
731.22	255.94
731.55	255.70
731.88	255.35
732.21	255.02
732.54	254.69
732.87	254.39
733.20	254.01
733.53	253.82
733.86	253.55
734.19	253.29
734.52	252.98
734.85	252.89
735.18	252.57
735.51	252.33
735.84	252.10
736.17	251.88
736.50	251.60
736.83	251.39
737.16	251.10
737.49	250.95
737.82	250.67
738.15	250.43
738.48	250.08
738.81	249.94
739.14	249.75
739.47	249.45
739.80	249.22
740.13	249.08
740.46	248.68
740.79	248.36
741.12	248.04
741.45	247.75
741.78	247.34
742.11	247.11
742.44	246.76
742.77	246.59
743.10	246.23
743.43	245.93
743.75	245.65
744.08	245.78
744.41	245.48
744.74	245.36
745.07	245.08
745.40	244.88
745.73	244.58
746.06	244.22
746.39	244.12
746.71	243.87
747.04	243.59
747.37	243.47
747.70	243.36
748.03	243.15
748.36	243.05
748.68	242.82
749.01	242.61
749.34	242.53
749.67	242.29
750.00	242.20
750.33	242.15
750.65	241.91
750.98	241.48
751.31	241.34
751.64	241.14
751.97	241.13
752.29	240.97
752.62	240.87
752.95	240.91
753.28	240.69
753.60	240.67
753.93	240.69
754.26	240.63
754.59	240.36
754.91	240.29
755.24	240.16
755.57	240.07
755.90	240.08
756.22	239.91
756.55	239.86
756.88	239.74
757.20	239.68
757.53	239.48
757.86	239.38
758.19	239.27
758.51	239.31
758.84	239.18
759.17	239.12
759.49	239.03
759.82	239.00
760.15	239.06
760.47	238.93
760.80	238.76
761.13	238.70
761.45	238.67
761.78	238.61
762.11	238.61
762.43	238.63
762.76	238.43
763.08	238.37
763.41	238.28
763.74	238.21
764.06	238.08
764.39	238.09
764.71	237.99
765.04	237.98
765.37	237.84
765.69	237.85
766.02	237.70
766.34	237.64
766.67	237.49
767.00	237.50
767.32	237.64
767.65	237.67
767.97	237.52
768.30	237.44
768.62	237.27
768.95	237.01
769.27	236.89
769.60	236.81
769.92	236.79
770.25	236.65
770.57	236.52
770.90	236.41
771.22	236.21
771.55	236.10
771.87	235.99
772.20	235.82
772.52	235.80
772.85	235.92
773.17	235.82
773.50	235.68
773.82	235.53
774.15	235.23
774.47	235.02
774.80	234.96
775.12	234.87
775.45	234.78
775.77	234.74
776.09	234.70
776.42	234.64
776.74	234.52
777.07	234.43
777.39	234.43
777.72	234.32
778.04	234.25
778.36	234.20
778.69	234.12
779.01	234.00
779.33	233.74
779.66	233.33
779.98	233.19
780.31	233.05
780.63	233.00
780.95	232.90
781.28	232.86
781.60	232.82
781.92	232.64
782.25	232.58
782.57	232.47
782.89	232.35
783.22	232.28
783.54	232.17
783.86	232.09
784.19	231.95
784.51	231.90
784.83	231.94
785.16	231.88
785.48	231.76
785.80	231.77
786.12	231.70
786.45	231.75
786.77	231.73
787.09	231.76
787.42	231.69
787.74	231.69
788.06	231.64
788.38	231.50
788.71	231.54
789.03	231.59
789.35	231.65
789.67	231.61
789.99	231.67
790.32	231.62
790.64	231.66
790.96	231.84
791.28	231.93
791.61	231.84
791.93	231.80
792.25	231.85
792.57	231.97
792.89	231.85
793.21	231.89
793.54	231.98
793.86	231.96
794.18	231.92
794.50	231.82
794.82	231.78
795.14	231.83
795.47	231.91
795.79	231.86
796.11	231.78
796.43	231.68
796.75	231.62
797.07	231.63
797.39	231.62
797.71	231.45
798.04	231.37
798.36	231.35
798.68	231.40
799.00	231.42
799.32	231.36
799.64	231.50
799.96	231.49
800.28	231.45
800.60	231.42
800.92	231.43
801.24	231.49
801.56	231.53
801.89	231.53
802.21	231.53
802.53	231.49
802.85	231.60
803.17	231.79
803.49	231.79
803.81	231.86
804.13	231.86
804.45	231.85
804.77	231.89
805.09	231.86
805.41	231.88
805.73	231.84
806.05	231.89
806.37	231.82
806.69	231.75
807.01	231.71
807.33	231.67
807.65	231.53
807.97	231.56
808.28	231.49
808.60	231.34
808.92	231.28
809.24	231.37
809.56	231.22
809.88	231.10
810.20	230.98
810.52	230.86
810.84	230.83
811.16	230.75
811.48	230.69
811.80	230.65
812.12	230.54
812.43	230.55
812.75	230.35
813.07	230.41
813.39	230.39
813.71	230.36
814.03	230.29
814.35	230.34
814.67	230.33
814.98	230.30
815.30	230.31
815.62	230.15
815.94	230.09
816.26	230.23
816.58	230.13
816.89	230.20
817.21	230.10
817.53	230.08
817.85	230.01
818.17	229.94
818.48	229.94
818.80	229.94
819.12	229.80
819.44	229.79
819.76	229.65
820.07	229.70
820.39	229.71
820.71	229.78
821.03	229.64
821.34	229.48
821.66	229.49
821.98	229.51
822.30	229.57
822.61	229.67
822.93	229.50
823.25	229.49
823.57	229.48
823.88	229.57
824.20	229.48
824.52	229.59
824.83	229.61
825.15	229.67
825.47	229.67
825.79	229.67
826.10	229.66
826.42	229.67
826.74	229.66
827.05	229.61
827.37	229.58
827.69	229.68
828.00	229.74
828.32	229.69
828.64	229.70
828.95	229.79
829.27	229.72
829.58	229.79
829.90	229.88
830.22	229.83
830.53	229.73
830.85	229.76
831.17	229.65
831.48	229.60
831.80	229.52
832.11	229.49
832.43	229.59
832.75	229.60
833.06	229.74
833.38	229.76
833.69	229.72
834.01	229.72
834.32	229.77
834.64	229.71
834.96	229.80
835.27	229.79
835.59	229.74
835.90	229.69
836.22	229.70
836.53	229.65
836.85	229.76
837.16	230.03
837.48	230.07
837.79	230.14
838.11	230.20
838.42	230.30
838.74	230.30
839.05	230.32
839.37	230.30
839.68	230.21
840.00	230.21
840.31	230.29
840.63	230.25
840.94	230.24
841.26	230.25
841.57	230.11
841.88	230.20
842.20	230.23
842.51	230.18
842.83	230.18
843.14	230.26
843.46	230.26
843.77	230.05
844.08	230.00
844.40	230.06
844.71	230.08
845.03	230.00
845.34	230.02
845.65	230.00
845.97	230.07
846.28	230.10
846.60	230.05
846.91	230.01
847.22	230.07
847.54	230.04
847.85	230.05
848.16	230.09
848.48	230.06
848.79	230.08
849.10	230.06
849.42	229.95
849.73	229.80
850.04	229.60
850.36	229.61
850.67	229.60
850.98	229.45
851.30	229.38
851.61	229.38
851.92	229.36
852.23	229.32
852.55	229.29
852.86	229.29
853.17	229.29
853.49	229.32
853.80	229.30
854.11	229.28
854.42	229.30
854.74	229.26
855.05	229.17
855.36	229.10
855.67	229.10
855.99	229.16
856.30	229.37
856.61	229.42
856.92	229.41
857.23	229.39
857.55	229.40
857.86	229.31
858.17	229.31
858.48	229.22
858.79	229.11
859.11	229.09
859.42	228.99
859.73	228.89
860.04	228.82
860.35	228.71
860.66	228.59
860.98	228.55
861.29	228.49
861.60	228.51
861.91	228.50
862.22	228.47
862.53	228.41
862.84	228.21
863.16	228.26
863.47	228.23
863.78	228.26
864.09	228.30
864.40	228.39
864.71	228.34
865.02	228.37
865.33	228.45
865.64	228.41
865.95	228.44
866.27	228.64
866.58	228.59
866.89	228.63
867.20	228.61
867.51	228.59
867.82	228.72
868.13	228.65
868.44	228.49
868.75	228.52
869.06	228.51
869.37	228.58
869.68	228.50
869.99	228.52
870.30	228.57
870.61	228.57
870.92	228.52
871.23	228.56
871.54	228.70
871.85	228.67
872.16	228.78
872.47	228.67
872.78	228.54
873.09	228.56
873.40	228.67
873.71	228.78
874.02	228.77
874.33	228.72
874.64	228.78
874.95	228.99
875.26	229.00
875.56	228.98
875.87	228.89
876.18	228.92
876.49	229.07
876.80	229.02
877.11	229.01
877.42	229.04
877.73	229.08
878.04	229.01
878.35	229.08
878.66	228.97
878.96	229.02
879.27	229.05
879.58	229.17
879.89	229.11
880.20	229.21
880.51	229.26
880.82	229.25
881.12	229.32
881.43	229.30
881.74	229.35
882.05	229.35
882.36	229.49
882.67	229.47
882.97	229.29
883.28	229.20
883.59	229.21
883.90	229.20
884.21	229.17
884.51	229.15
884.82	229.09
885.13	229.14
885.44	229.28
885.74	229.21
886.05	229.14
886.36	229.09
886.67	228.96
886.98	229.12
887.28	229.16
887.59	229.19
887.90	229.16
888.20	229.11
888.51	229.19
888.82	229.08
889.13	229.12
889.43	229.25
889.74	229.27
890.05	229.26
890.35	229.31
890.66	229.30
890.97	229.29
891.28	229.26
891.58	229.24
891.89	229.10
892.20	229.13
892.50	229.06
892.81	229.16
893.12	229.14
893.42	228.94
893.73	228.87
894.04	228.76
894.34	228.68
894.65	228.58
894.95	228.50
895.26	228.41
895.57	228.50
895.87	228.39
896.18	228.40
896.48	228.43
896.79	228.36
897.10	228.37
897.40	228.45
897.71	228.47
898.01	228.49
898.32	228.48
898.63	228.40
898.93	228.42
899.24	228.21
899.54	228.15
899.85	228.18
900.15	228.22
900.46	228.28
900.76	228.24
901.07	228.18
901.38	228.25
901.68	228.35
901.99	228.11
902.29	228.10
902.60	228.08
902.90	227.98
903.21	227.91
903.51	227.92
903.82	227.81
904.12	227.88
904.43	227.82
904.73	227.84
905.03	227.86
905.34	228.07
905.64	228.12
905.95	228.10
906.25	228.04
906.56	227.99
906.86	227.93
907.17	228.01
907.47	228.16
907.77	228.08
908.08	228.04
908.38	228.17
908.69	228.24
908.99	228.25
909.30	228.34
909.60	228.44
909.90	228.43
910.21	228.43
910.51	228.37
910.81	228.45
911.12	228.52
911.42	228.49
911.73	228.27
912.03	228.40
912.33	228.48
912.64	228.51
912.94	228.56
913.24	228.51
913.55	228.55
913.85	228.47
914.15	228.54
914.46	228.55
914.76	228.52
915.06	228.47
915.37	228.53
915.67	228.50
915.97	228.46
916.27	228.42
916.58	228.45
916.88	228.38
917.18	228.43
917.49	228.53
917.79	228.68
918.09	228.79
918.39	228.82
918.70	228.81
919.00	228.84
919.30	228.91
919.60	228.88
919.91	228.88
920.21	228.96
920.51	229.00
920.81	229.03
921.12	229.14
921.42	229.11
921.72	229.10
922.02	229.16
922.32	229.18
922.63	229.26
922.93	229.30
923.23	229.34
923.53	229.27
923.83	229.13
924.13	229.18
924.44	229.17
924.74	229.17
925.04	229.31
925.34	229.32
925.64	229.30
925.94	229.40
926.24	229.50
926.55	229.48
926.85	229.54
927.15	229.51
927.45	229.42
927.75	229.55
928.05	229.55
928.35	229.43
928.65	229.40
928.95	229.42
929.26	229.39
929.56	229.44
929.86	229.47
930.16	229.52
930.46	229.40
930.76	229.38
931.06	229.28
931.36	229.14
931.66	229.18
931.96	229.07
932.26	229.04
932.56	228.94
932.86	228.88
933.16	228.82
933.46	228.75
933.76	228.63
934.06	228.57
934.36	228.61
934.66	228.64
934.96	228.74
935.26	228.58
935.56	228.57
935.86	228.50
936.16	228.40
936.46	228.19
936.76	228.17
937.06	228.16
937.36	228.11
937.66	228.15
937.96	228.08
938.26	228.14
938.56	228.15
938.86	228.02
939.16	228.16
939.46	228.02
939.76	228.10
940.06	228.17
940.35	228.23
940.65	228.18
940.95	228.26
941.25	228.13
941.55	228.07
941.85	228.01
942.15	228.07
942.45	228.09
942.75	228.17
943.04	228.19
943.34	228.05
943.64	228.11
943.94	227.99
944.24	227.97
944.54	227.95
944.84	227.90
945.13	228.00
945.43	227.87
945.73	228.01
946.03	227.95
946.33	227.93
946.62	227.81
946.92	227.75
947.22	227.74
947.52	227.77
947.82	227.92
948.11	227.94
948.41	227.94
948.71	227.93
949.01	227.92
949.31	227.93
949.60	227.99
949.90	228.02
950.20	228.16
950.50	228.14
950.79	228.17
951.09	228.19
951.39	228.21
951.69	228.24
951.98	228.20
952.28	228.18
952.58	228.24
952.87	228.14
953.17	228.18
953.47	228.13
953.76	228.11
954.06	228.10
954.36	228.15
954.66	228.08
954.95	228.17
955.25	228.34
955.55	228.33
955.84	228.40
956.14	228.43
956.44	228.38
956.73	228.30
957.03	228.29
957.32	228.35
957.62	228.30
957.92	228.37
958.21	228.40
958.51	228.73
958.81	228.69
959.10	228.84
959.40	228.93
959.69	229.03
959.99	229.11
960.29	229.14
960.58	229.17
960.88	229.29
961.17	229.25
961.47	229.23
961.76	229.22
962.06	229.30
962.36	229.19
962.65	229.29
962.95	229.49
963.24	229.43
963.54	229.35
963.83	229.39
964.13	229.30
964.42	229.11
964.72	228.87
965.01	228.83
965.31	228.67
965.60	228.59
965.90	228.68
966.19	228.61
966.49	228.53
966.78	228.45
967.08	228.38
967.37	228.40
967.67	228.31
967.96	228.34
968.26	228.30
968.55	228.36
968.85	228.29
969.14	228.19
969.43	228.20
969.73	228.28
970.02	228.21
970.32	228.21
970.61	228.24
970.91	228.27
971.20	228.22
971.49	228.22
971.79	228.30
972.08	228.07
972.38	227.98
972.67	228.00
972.96	228.09
973.26	228.09
973.55	228.07
973.85	228.01
974.14	227.90
974.43	227.76
974.73	227.66
975.02	227.65
975.31	227.64
975.61	227.60
975.90	227.56
976.19	227.59
976.49	227.64
976.78	227.79
977.07	227.70
977.37	227.80
977.66	227.92
977.95	227.80
978.24	227.79
978.54	227.91
978.83	227.94
979.12	227.84
979.42	227.86
979.71	227.76
980.00	227.62
980.29	227.64
980.59	227.53
980.88	227.64
981.17	227.63
981.46	227.63
981.76	227.65
982.05	227.71
982.34	227.69
982.63	227.66
982.93	227.54
983.22	227.56
983.51	227.57
983.80	227.54
984.09	227.62
984.39	227.63
984.68	227.63
984.97	227.70
985.26	227.66
985.55	227.60
985.85	227.68
986.14	227.77
986.43	227.78
986.72	227.92
987.01	227.83
987.30	227.80
987.59	227.76
987.89	227.81
988.18	227.71
988.47	227.72
988.76	227.71
989.05	227.72
989.34	227.72
989.63	227.81
989.92	227.79
990.22	227.80
990.51	227.85
990.80	227.78
991.09	227.72
991.38	227.82
991.67	227.88
991.96	227.86
992.25	227.99
992.54	228.09
992.83	228.10
993.12	228.14
993.41	228.26
993.70	228.39
993.99	228.44
994.28	228.56
994.58	228.70
994.87	228.76
995.16	228.86
995.45	228.85
995.74	228.75
996.03	228.87
996.32	228.80
996.61	228.81
996.90	228.83
997.19	228.80
997.48	228.73
997.77	228.60
998.06	228.58
998.34	228.58
998.63	228.54
998.92	228.59
999.21	228.62
999.50	228.61
999.79	228.60
1000.08	228.57
1000.37	228.53
1000.66	228.40
1000.95	228.45
1001.24	228.55
1001.53	228.68
1001.82	228.64
1002.11	228.52
1002.40	228.66
1002.68	228.70
1002.97	228.93
1003.26	229.08
1003.55	229.15
1003.84	229.23
1004.13	229.40
1004.42	229.38
1004.71	229.35
1004.99	229.27
1005.28	229.30
1005.57	229.26
1005.86	229.11
1006.15	229.04
1006.44	229.00
1006.72	229.07
1007.01	229.03
1007.30	228.93
1007.59	228.80
1007.88	228.86
1008.17	228.91
1008.45	228.74
1008.74	228.66
1009.03	228.52
1009.32	228.41
1009.60	228.38
1009.89	228.35
1010.18	228.21
1010.47	228.26
1010.76	228.26
1011.04	228.30
1011.33	228.38
1011.62	228.39
1011.91	228.44
1012.19	228.49
1012.48	228.42
1012.77	228.36
1013.05	228.40
1013.34	228.29
1013.63	228.31
1013.92	228.27
1014.20	228.25
1014.49	228.19
1014.78	228.22
1015.06	228.02
1015.35	227.97
1015.64	227.95
1015.92	228.10
1016.21	228.08
1016.50	228.00
1016.78	228.03
1017.07	227.95
1017.36	227.83
1017.64	227.81
1017.93	227.81
1018.22	227.81
1018.50	227.85
1018.79	227.82
1019.08	227.73
1019.36	227.72
1019.65	227.65
1019.93	227.66
1020.22	227.73
1020.51	227.96
1020.79	227.93
1021.08	228.30
1021.36	227.50
1021.65	227.40
1021.94	228.30
1022.22	226.60
1022.51	226.70
1022.79	228.00
1023.08	229.30
1023.36	230.70
1023.65	227.60
>>>>>End Processed Spectral Data<<<<<
