SpectraSuite Data File
++++++++++++++++++++++++++++++++++++
Date: Fri Feb 01 14:40:21 EST 2013
User: group
Dark Spectrum Present: No
Reference Spectrum Present: No
Number of Sampled Component Spectra: 1
Spectrometers: USB2E7196
Integration Time (usec): 70000 (USB2E7196)
Spectra Averaged: 10 (USB2E7196)
Boxcar Smoothing: 10 (USB2E7196)
Correct for Electrical Dark: No (USB2E7196)
Strobe/Lamp Enabled: No (USB2E7196)
Correct for Detector Non-linearity: No (USB2E7196)
Correct for Stray Light: No (USB2E7196)
Number of Pixels in Processed Spectrum: 2048
>>>>>Begin Processed Spectral Data<<<<<
339.09	0.00
339.48	216.90
339.86	219.70
340.24	218.60
340.63	220.20
341.01	224.60
341.39	222.40
341.78	224.60
342.16	227.00
342.54	225.80
342.93	214.63
343.31	225.48
343.69	226.10
344.07	226.38
344.46	226.82
344.84	227.19
345.22	227.33
345.60	227.49
345.99	227.64
346.37	227.79
346.75	227.91
347.13	228.03
347.52	228.06
347.90	228.06
348.28	228.02
348.66	227.96
349.05	227.91
349.43	227.94
349.81	228.00
350.19	228.08
350.57	228.18
350.96	228.15
351.34	228.17
351.72	228.15
352.10	228.31
352.48	228.30
352.87	228.28
353.25	228.39
353.63	228.57
354.01	228.68
354.39	228.69
354.77	228.74
355.15	228.84
355.54	228.93
355.92	228.98
356.30	229.11
356.68	229.40
357.06	229.54
357.44	229.60
357.82	229.58
358.20	229.56
358.58	229.70
358.97	229.84
359.35	230.05
359.73	230.10
360.11	230.18
360.49	230.22
360.87	230.30
361.25	230.30
361.63	230.40
362.01	230.44
362.39	230.48
362.77	230.51
363.15	230.47
363.53	230.51
363.91	230.50
364.29	230.46
364.67	230.30
365.05	230.28
365.43	230.35
365.81	230.43
366.19	230.62
366.57	230.59
366.95	230.54
367.33	230.42
367.71	230.35
368.09	230.35
368.47	230.40
368.85	230.36
369.23	230.43
369.61	230.24
369.99	230.19
370.37	230.09
370.75	230.20
371.13	230.18
371.51	230.06
371.89	230.09
372.27	230.09
372.65	230.08
373.03	230.10
373.41	230.00
373.78	229.94
374.16	229.73
374.54	229.64
374.92	229.52
375.30	229.43
375.68	229.39
376.06	229.20
376.44	229.10
376.82	229.13
377.19	229.06
377.57	229.10
377.95	228.99
378.33	228.94
378.71	228.63
379.09	228.54
379.47	228.49
379.84	228.34
380.22	228.19
380.60	227.97
380.98	227.84
381.36	227.79
381.73	227.61
382.11	227.61
382.49	227.53
382.87	227.52
383.25	227.53
383.62	227.70
384.00	227.69
384.38	227.66
384.76	227.58
385.13	227.56
385.51	227.42
385.89	227.36
386.27	227.20
386.64	227.25
387.02	227.19
387.40	227.15
387.78	227.08
388.15	227.12
388.53	227.12
388.91	227.08
389.29	227.01
389.66	227.12
390.04	227.05
390.42	226.99
390.79	226.86
391.17	226.73
391.55	226.50
391.92	226.48
392.30	226.51
392.68	226.44
393.05	226.46
393.43	226.53
393.81	226.57
394.18	226.71
394.56	226.72
394.94	226.65
395.31	226.65
395.69	226.84
396.06	226.91
396.44	226.86
396.82	226.84
397.19	227.04
397.57	227.07
397.95	227.11
398.32	227.19
398.70	227.39
399.07	227.52
399.45	227.62
399.82	227.80
400.20	227.82
400.58	227.96
400.95	227.91
401.33	228.05
401.70	228.33
402.08	228.35
402.45	228.48
402.83	228.77
403.20	228.95
403.58	228.97
403.95	229.14
404.33	229.38
404.71	229.72
405.08	229.83
405.46	229.96
405.83	230.16
406.21	230.32
406.58	230.52
406.96	230.70
407.33	230.83
407.70	230.98
408.08	231.37
408.45	231.70
408.83	231.93
409.20	232.09
409.58	232.17
409.95	232.48
410.33	232.75
410.70	232.94
411.08	233.25
411.45	233.60
411.82	233.84
412.20	234.18
412.57	234.45
412.95	234.73
413.32	235.14
413.69	235.59
414.07	236.06
414.44	236.46
414.82	236.86
415.19	237.44
415.56	237.82
415.94	238.37
416.31	238.86
416.68	239.60
417.06	240.35
417.43	241.00
417.81	241.77
418.18	242.49
418.55	243.32
418.93	244.02
419.30	244.81
419.67	245.71
420.04	246.64
420.42	247.63
420.79	248.93
421.16	249.98
421.54	251.05
421.91	252.22
422.28	253.42
422.66	254.76
423.03	256.06
423.40	257.42
423.77	258.74
424.15	260.16
424.52	261.54
424.89	263.04
425.26	264.55
425.64	265.97
426.01	267.53
426.38	269.07
426.75	270.86
427.13	272.60
427.50	274.29
427.87	276.20
428.24	278.00
428.61	279.45
428.99	281.46
429.36	283.56
429.73	285.56
430.10	287.55
430.47	289.51
430.85	291.49
431.22	293.76
431.59	296.11
431.96	298.33
432.33	300.70
432.70	303.02
433.08	305.81
433.45	308.29
433.82	310.97
434.19	313.91
434.56	316.75
434.93	319.27
435.30	322.02
435.68	324.85
436.05	327.68
436.42	330.56
436.79	333.14
437.16	336.02
437.53	338.89
437.90	341.86
438.27	344.74
438.64	347.72
439.01	350.42
439.38	352.74
439.75	355.01
440.13	357.54
440.50	360.07
440.87	362.06
441.24	364.21
441.61	366.45
441.98	367.93
442.35	369.74
442.72	371.75
443.09	373.59
443.46	374.60
443.83	375.35
444.20	376.11
444.57	376.95
444.94	377.18
445.31	377.50
445.68	377.93
446.05	378.01
446.42	377.66
446.79	377.13
447.16	376.65
447.53	376.33
447.90	375.32
448.27	374.22
448.64	372.60
449.01	371.49
449.37	369.54
449.74	367.80
450.11	365.68
450.48	363.37
450.85	360.90
451.22	358.90
451.59	356.80
451.96	354.75
452.33	352.18
452.70	349.77
453.07	347.00
453.43	344.05
453.80	341.37
454.17	338.68
454.54	336.24
454.91	333.49
455.28	330.73
455.65	328.05
456.02	325.63
456.38	323.39
456.75	320.69
457.12	318.35
457.49	316.00
457.86	313.69
458.23	311.71
458.59	309.55
458.96	307.40
459.33	305.54
459.70	303.56
460.07	301.97
460.43	300.18
460.80	298.49
461.17	297.02
461.54	295.49
461.91	294.00
462.27	292.59
462.64	291.24
463.01	289.81
463.38	288.64
463.74	287.14
464.11	285.88
464.48	284.82
464.85	283.64
465.21	282.83
465.58	281.79
465.95	280.60
466.32	279.68
466.68	278.68
467.05	277.65
467.42	276.67
467.78	275.62
468.15	274.58
468.52	273.87
468.88	272.81
469.25	271.94
469.62	271.21
469.98	270.28
470.35	269.51
470.72	268.80
471.08	268.01
471.45	267.29
471.82	266.77
472.18	266.01
472.55	265.33
472.92	264.50
473.28	263.84
473.65	263.24
474.02	262.73
474.38	262.20
474.75	261.70
475.11	261.28
475.48	260.82
475.85	260.40
476.21	259.96
476.58	259.52
476.94	259.13
477.31	258.71
477.67	258.33
478.04	258.04
478.41	257.87
478.77	257.80
479.14	257.50
479.50	257.20
479.87	256.94
480.23	256.79
480.60	256.70
480.96	256.54
481.33	256.50
481.69	256.23
482.06	256.12
482.42	256.03
482.79	255.98
483.15	256.02
483.52	256.04
483.88	256.05
484.25	256.09
484.61	256.05
484.98	256.17
485.34	256.32
485.71	256.46
486.07	256.53
486.44	256.33
486.80	256.41
487.17	256.50
487.53	256.80
487.90	257.05
488.26	257.32
488.62	257.73
488.99	257.83
489.35	258.22
489.72	258.40
490.08	258.63
490.44	258.82
490.81	259.17
491.17	259.69
491.54	260.18
491.90	260.62
492.26	261.10
492.63	261.55
492.99	262.20
493.36	262.79
493.72	263.40
494.08	264.23
494.45	265.14
494.81	266.03
495.17	266.77
495.54	267.67
495.90	268.61
496.26	269.50
496.63	270.73
496.99	271.75
497.35	272.96
497.72	274.32
498.08	275.79
498.44	277.05
498.80	278.39
499.17	279.86
499.53	281.38
499.89	282.95
500.26	284.59
500.62	286.14
500.98	287.89
501.34	289.77
501.71	291.61
502.07	293.52
502.43	295.51
502.79	297.67
503.16	299.96
503.52	302.30
503.88	304.65
504.24	307.09
504.60	309.76
504.97	312.68
505.33	315.69
505.69	318.73
506.05	321.99
506.41	325.19
506.78	328.56
507.14	332.04
507.50	335.69
507.86	339.55
508.22	343.52
508.59	347.47
508.95	351.71
509.31	356.17
509.67	360.73
510.03	365.35
510.39	370.15
510.75	375.12
511.12	380.10
511.48	385.34
511.84	390.66
512.20	396.19
512.56	401.81
512.92	407.41
513.28	413.20
513.64	419.30
514.00	425.44
514.37	431.65
514.73	438.05
515.09	444.67
515.45	451.39
515.81	458.26
516.17	465.63
516.53	472.94
516.89	480.20
517.25	487.43
517.61	495.00
517.97	502.70
518.33	510.14
518.69	517.94
519.05	526.21
519.41	534.47
519.77	543.10
520.13	551.75
520.49	560.48
520.85	569.45
521.21	578.47
521.57	587.87
521.93	597.01
522.29	606.51
522.65	615.96
523.01	625.41
523.37	634.96
523.73	644.48
524.09	654.23
524.45	664.18
524.81	674.29
525.17	684.60
525.53	695.09
525.89	705.89
526.25	716.96
526.61	727.53
526.97	738.35
527.33	748.81
527.68	759.67
528.04	770.42
528.40	781.28
528.76	792.57
529.12	803.72
529.48	814.89
529.84	826.00
530.20	837.74
530.56	849.57
530.91	861.68
531.27	873.67
531.63	885.55
531.99	897.47
532.35	909.20
532.71	920.89
533.07	932.97
533.42	944.89
533.78	956.41
534.14	968.23
534.50	979.81
534.86	991.81
535.21	1003.35
535.57	1015.60
535.93	1027.41
536.29	1039.28
536.65	1050.92
537.00	1063.07
537.36	1075.18
537.72	1086.67
538.08	1098.25
538.44	1109.52
538.79	1121.31
539.15	1132.42
539.51	1143.94
539.87	1156.01
540.22	1167.62
540.58	1178.83
540.94	1190.14
541.29	1201.40
541.65	1212.70
542.01	1224.19
542.37	1235.55
542.72	1246.97
543.08	1257.85
543.44	1269.08
543.79	1279.20
544.15	1290.12
544.51	1300.79
544.87	1311.63
545.22	1322.15
545.58	1332.52
545.94	1342.61
546.29	1352.27
546.65	1362.34
547.01	1372.04
547.36	1381.37
547.72	1390.64
548.07	1399.94
548.43	1409.05
548.79	1418.31
549.14	1427.25
549.50	1435.88
549.86	1444.11
550.21	1452.20
550.57	1460.76
550.92	1469.02
551.28	1477.10
551.64	1484.98
551.99	1493.11
552.35	1500.55
552.70	1508.30
553.06	1515.88
553.41	1523.61
553.77	1531.22
554.13	1538.37
554.48	1545.78
554.84	1552.81
555.19	1560.14
555.55	1567.29
555.90	1574.05
556.26	1580.56
556.61	1587.35
556.97	1593.96
557.32	1600.71
557.68	1607.23
558.03	1613.46
558.39	1619.29
558.74	1626.15
559.10	1632.22
559.45	1638.13
559.81	1644.40
560.16	1649.71
560.52	1655.14
560.87	1661.00
561.23	1665.94
561.58	1671.30
561.94	1676.20
562.29	1680.79
562.64	1685.17
563.00	1689.42
563.35	1694.42
563.71	1699.74
564.06	1704.42
564.42	1709.10
564.77	1713.46
565.12	1718.00
565.48	1722.62
565.83	1726.19
566.19	1730.05
566.54	1733.83
566.89	1737.00
567.25	1740.54
567.60	1744.62
567.96	1748.22
568.31	1750.84
568.66	1754.10
569.02	1757.40
569.37	1760.26
569.72	1763.53
570.08	1765.96
570.43	1768.59
570.78	1770.93
571.14	1772.16
571.49	1773.60
571.84	1776.13
572.20	1777.55
572.55	1778.43
572.90	1778.74
573.26	1780.36
573.61	1780.94
573.96	1781.26
574.31	1781.82
574.67	1781.52
575.02	1780.89
575.37	1780.72
575.72	1780.10
576.08	1779.80
576.43	1779.08
576.78	1778.81
577.13	1777.91
577.49	1777.77
577.84	1777.35
578.19	1775.92
578.54	1774.96
578.90	1773.45
579.25	1770.73
579.60	1769.29
579.95	1767.46
580.30	1765.27
580.66	1762.94
581.01	1761.02
581.36	1759.33
581.71	1757.76
582.06	1755.77
582.42	1753.54
582.77	1751.23
583.12	1749.11
583.47	1746.82
583.82	1744.67
584.17	1741.93
584.53	1739.45
584.88	1736.87
585.23	1733.88
585.58	1731.55
585.93	1729.00
586.28	1726.95
586.63	1724.81
586.98	1721.81
587.34	1719.56
587.69	1717.54
588.04	1715.03
588.39	1712.26
588.74	1708.30
589.09	1704.37
589.44	1700.65
589.79	1697.87
590.14	1694.89
590.49	1691.77
590.84	1688.05
591.19	1684.21
591.54	1679.75
591.89	1675.69
592.25	1671.49
592.60	1666.68
592.95	1662.10
593.30	1657.55
593.65	1652.47
594.00	1647.82
594.35	1644.12
594.70	1638.99
595.05	1634.62
595.40	1629.99
595.75	1624.81
596.10	1621.20
596.45	1617.42
596.80	1613.55
597.15	1609.45
597.50	1604.53
597.85	1600.00
598.19	1595.86
598.54	1591.75
598.89	1587.80
599.24	1583.79
599.59	1579.43
599.94	1576.03
600.29	1571.54
600.64	1567.30
600.99	1562.53
601.34	1557.99
601.69	1552.45
602.04	1548.12
602.39	1543.29
602.74	1539.07
603.08	1534.84
603.43	1530.20
603.78	1525.11
604.13	1519.97
604.48	1514.62
604.83	1509.74
605.18	1505.07
605.53	1499.55
605.87	1493.88
606.22	1488.97
606.57	1483.21
606.92	1477.90
607.27	1472.54
607.62	1467.78
607.96	1462.71
608.31	1458.28
608.66	1452.41
609.01	1446.75
609.36	1441.21
609.70	1434.97
610.05	1428.49
610.40	1422.70
610.75	1416.89
611.10	1410.40
611.44	1403.80
611.79	1398.18
612.14	1392.09
612.49	1385.62
612.83	1379.21
613.18	1372.94
613.53	1366.44
613.88	1360.06
614.22	1353.81
614.57	1346.89
614.92	1340.45
615.27	1333.99
615.61	1327.41
615.96	1321.35
616.31	1315.60
616.65	1310.03
617.00	1304.32
617.35	1298.74
617.70	1292.50
618.04	1285.72
618.39	1280.02
618.74	1274.75
619.08	1268.06
619.43	1261.88
619.78	1255.97
620.12	1250.39
620.47	1244.50
620.82	1238.57
621.16	1233.08
621.51	1227.25
621.85	1221.49
622.20	1215.29
622.55	1209.11
622.89	1203.07
623.24	1197.66
623.59	1191.98
623.93	1186.08
624.28	1180.15
624.62	1173.88
624.97	1168.34
625.32	1162.98
625.66	1157.48
626.01	1151.39
626.35	1145.87
626.70	1140.18
627.04	1134.24
627.39	1128.27
627.73	1122.41
628.08	1116.50
628.43	1110.47
628.77	1104.90
629.12	1098.94
629.46	1092.93
629.81	1086.82
630.15	1080.90
630.50	1074.45
630.84	1068.11
631.19	1061.48
631.53	1055.51
631.88	1049.58
632.22	1043.02
632.57	1037.33
632.91	1031.20
633.26	1025.38
633.60	1018.85
633.95	1013.38
634.29	1007.71
634.64	1002.21
634.98	996.62
635.32	991.34
635.67	986.13
636.01	980.42
636.36	974.82
636.70	969.72
637.05	964.94
637.39	959.76
637.73	954.67
638.08	949.81
638.42	945.42
638.77	940.44
639.11	935.22
639.45	930.31
639.80	925.14
640.14	920.13
640.49	915.05
640.83	910.21
641.17	904.80
641.52	899.52
641.86	894.32
642.20	889.34
642.55	884.27
642.89	878.86
643.23	873.59
643.58	869.05
643.92	863.71
644.26	858.25
644.61	853.22
644.95	848.30
645.29	842.73
645.64	837.02
645.98	831.74
646.32	827.10
646.66	822.07
647.01	816.81
647.35	811.90
647.69	806.88
648.04	802.47
648.38	797.36
648.72	792.38
649.06	787.23
649.41	782.45
649.75	777.04
650.09	771.99
650.43	767.20
650.78	761.86
651.12	757.09
651.46	752.56
651.80	747.80
652.14	742.82
652.49	738.49
652.83	733.70
653.17	728.80
653.51	723.87
653.85	718.99
654.20	714.19
654.54	709.04
654.88	704.01
655.22	698.75
655.56	693.92
655.90	689.29
656.25	684.88
656.59	679.95
656.93	675.78
657.27	671.59
657.61	666.73
657.95	662.66
658.29	658.14
658.64	653.33
658.98	648.74
659.32	644.41
659.66	640.02
660.00	635.97
660.34	631.72
660.68	627.56
661.02	623.14
661.36	619.30
661.70	615.56
662.05	612.03
662.39	608.45
662.73	604.89
663.07	601.43
663.41	597.70
663.75	593.97
664.09	590.13
664.43	586.41
664.77	583.24
665.11	579.51
665.45	576.10
665.79	572.84
666.13	569.35
666.47	565.82
666.81	562.27
667.15	558.68
667.49	555.40
667.83	552.27
668.17	549.24
668.51	545.62
668.85	542.30
669.19	538.87
669.53	535.38
669.87	532.10
670.21	528.97
670.55	525.90
670.89	523.30
671.23	520.42
671.57	517.40
671.91	514.29
672.25	511.32
672.58	508.32
672.92	505.44
673.26	502.87
673.60	500.21
673.94	497.55
674.28	495.09
674.62	492.65
674.96	489.80
675.30	487.40
675.64	485.06
675.97	482.61
676.31	480.30
676.65	478.04
676.99	475.67
677.33	472.84
677.67	470.26
678.01	467.45
678.34	464.92
678.68	462.62
679.02	460.19
679.36	457.98
679.70	455.72
680.04	453.35
680.37	450.97
680.71	448.77
681.05	446.56
681.39	444.28
681.73	442.06
682.06	440.02
682.40	437.90
682.74	435.72
683.08	433.43
683.42	431.10
683.75	428.97
684.09	426.78
684.43	424.81
684.77	422.74
685.10	420.71
685.44	418.64
685.78	416.64
686.12	414.81
686.45	412.63
686.79	410.77
687.13	408.95
687.46	406.95
687.80	404.91
688.14	402.89
688.48	401.00
688.81	398.88
689.15	397.01
689.49	395.02
689.82	393.21
690.16	391.46
690.50	389.90
690.83	388.13
691.17	386.31
691.51	384.51
691.84	382.86
692.18	381.14
692.52	379.35
692.85	377.49
693.19	375.63
693.52	373.93
693.86	372.17
694.20	370.40
694.53	368.77
694.87	367.04
695.21	365.41
695.54	363.74
695.88	362.14
696.21	360.36
696.55	358.81
696.88	357.14
697.22	355.63
697.56	354.05
697.89	352.44
698.23	350.99
698.56	349.58
698.90	348.19
699.23	346.46
699.57	345.07
699.90	343.58
700.24	342.19
700.58	340.80
700.91	339.32
701.25	338.12
701.58	336.90
701.92	335.59
702.25	334.40
702.59	333.05
702.92	331.86
703.26	330.68
703.59	329.40
703.93	328.32
704.26	327.03
704.60	325.82
704.93	324.75
705.26	323.55
705.60	322.40
705.93	321.13
706.27	320.32
706.60	319.41
706.94	318.49
707.27	317.28
707.61	316.30
707.94	315.36
708.27	314.16
708.61	313.07
708.94	312.01
709.28	310.93
709.61	309.98
709.94	309.05
710.28	308.05
710.61	307.26
710.95	306.15
711.28	305.38
711.61	304.35
711.95	303.34
712.28	302.51
712.61	301.59
712.95	300.83
713.28	300.00
713.61	299.03
713.95	298.12
714.28	297.51
714.61	296.66
714.95	295.98
715.28	295.20
715.61	294.33
715.95	293.73
716.28	293.09
716.61	292.41
716.95	291.74
717.28	291.13
717.61	290.34
717.94	289.71
718.28	288.89
718.61	288.32
718.94	287.69
719.27	287.07
719.61	286.32
719.94	285.67
720.27	284.99
720.60	284.29
720.94	283.69
721.27	282.94
721.60	282.38
721.93	281.69
722.27	281.31
722.60	280.90
722.93	280.29
723.26	279.60
723.59	279.01
723.93	278.47
724.26	277.90
724.59	277.32
724.92	276.76
725.25	276.29
725.59	275.74
725.92	275.23
726.25	274.69
726.58	274.30
726.91	273.84
727.24	273.34
727.57	273.00
727.91	272.57
728.24	272.19
728.57	271.71
728.90	271.28
729.23	270.62
729.56	270.17
729.89	269.87
730.22	269.37
730.55	269.00
730.89	268.47
731.22	268.02
731.55	267.72
731.88	267.22
732.21	266.75
732.54	266.34
732.87	265.89
733.20	265.42
733.53	265.01
733.86	264.64
734.19	264.25
734.52	263.82
734.85	263.56
735.18	263.16
735.51	262.80
735.84	262.50
736.17	262.21
736.50	261.65
736.83	261.30
737.16	261.01
737.49	260.54
737.82	260.10
738.15	259.79
738.48	259.33
738.81	259.13
739.14	258.73
739.47	258.34
739.80	258.01
740.13	257.65
740.46	257.27
740.79	256.80
741.12	256.44
741.45	256.00
741.78	255.54
742.11	255.27
742.44	254.89
742.77	254.42
743.10	254.07
743.43	253.80
743.75	253.48
744.08	253.34
744.41	253.08
744.74	252.84
745.07	252.50
745.40	252.23
745.73	251.92
746.06	251.83
746.39	251.55
746.71	251.32
747.04	251.07
747.37	250.76
747.70	250.49
748.03	250.22
748.36	250.08
748.68	249.79
749.01	249.50
749.34	249.26
749.67	249.12
750.00	248.77
750.33	248.69
750.65	248.28
750.98	247.95
751.31	247.78
751.64	247.64
751.97	247.53
752.29	247.21
752.62	246.98
752.95	246.59
753.28	246.37
753.60	246.04
753.93	245.90
754.26	245.74
754.59	245.61
754.91	245.40
755.24	245.18
755.57	245.03
755.90	244.79
756.22	244.58
756.55	244.40
756.88	244.30
757.20	243.93
757.53	243.72
757.86	243.51
758.19	243.34
758.51	243.16
758.84	242.98
759.17	242.94
759.49	242.72
759.82	242.64
760.15	242.62
760.47	242.54
760.80	242.30
761.13	242.14
761.45	241.90
761.78	241.80
762.11	241.66
762.43	241.52
762.76	241.39
763.08	241.24
763.41	240.99
763.74	240.83
764.06	240.77
764.39	240.75
764.71	240.62
765.04	240.49
765.37	240.41
765.69	240.18
766.02	239.89
766.34	239.75
766.67	239.65
767.00	239.32
767.32	239.40
767.65	239.48
767.97	239.36
768.30	239.35
768.62	239.27
768.95	239.12
769.27	238.98
769.60	239.00
769.92	238.98
770.25	238.80
770.57	238.63
770.90	238.49
771.22	238.26
771.55	238.02
771.87	237.94
772.20	237.69
772.52	237.81
772.85	238.04
773.17	237.88
773.50	237.73
773.82	237.75
774.15	237.48
774.47	237.20
774.80	237.15
775.12	237.03
775.45	236.94
775.77	236.82
776.09	236.73
776.42	236.51
776.74	236.40
777.07	236.40
777.39	236.40
777.72	236.31
778.04	236.34
778.36	236.48
778.69	236.32
779.01	236.29
779.33	236.06
779.66	235.79
779.98	235.70
780.31	235.73
780.63	235.75
780.95	235.68
781.28	235.59
781.60	235.50
781.92	235.41
782.25	235.23
782.57	235.20
782.89	235.10
783.22	235.02
783.54	235.00
783.86	234.93
784.19	234.81
784.51	234.89
784.83	234.78
785.16	234.62
785.48	234.60
785.80	234.47
786.12	234.37
786.45	234.34
786.77	234.45
787.09	234.40
787.42	234.33
787.74	234.34
788.06	234.37
788.38	234.35
788.71	234.32
789.03	234.31
789.35	234.24
789.67	234.17
789.99	234.14
790.32	233.96
790.64	234.01
790.96	234.07
791.28	233.82
791.61	233.70
791.93	233.58
792.25	233.55
792.57	233.67
792.89	233.64
793.21	233.55
793.54	233.45
793.86	233.21
794.18	233.10
794.50	233.00
794.82	232.90
795.14	232.90
795.47	232.81
795.79	232.75
796.11	232.73
796.43	232.66
796.75	232.65
797.07	232.73
797.39	232.72
797.71	232.55
798.04	232.58
798.36	232.62
798.68	232.55
799.00	232.45
799.32	232.30
799.64	232.33
799.96	232.34
800.28	232.40
800.60	232.42
800.92	232.39
801.24	232.29
801.56	232.30
801.89	232.14
802.21	232.19
802.53	232.14
802.85	232.17
803.17	232.30
803.49	232.17
803.81	231.97
804.13	231.82
804.45	231.82
804.77	231.81
805.09	231.69
805.41	231.73
805.73	231.71
806.05	231.69
806.37	231.60
806.69	231.46
807.01	231.34
807.33	231.27
807.65	231.24
807.97	231.31
808.28	231.25
808.60	231.30
808.92	231.20
809.24	231.31
809.56	231.18
809.88	231.10
810.20	231.05
810.52	231.18
810.84	231.12
811.16	231.06
811.48	230.98
811.80	231.03
812.12	230.95
812.43	230.94
812.75	230.88
813.07	230.81
813.39	230.85
813.71	230.74
814.03	230.69
814.35	230.59
814.67	230.48
814.98	230.44
815.30	230.29
815.62	230.24
815.94	230.06
816.26	230.08
816.58	229.97
816.89	229.98
817.21	229.81
817.53	229.84
817.85	229.81
818.17	229.75
818.48	229.64
818.80	229.66
819.12	229.66
819.44	229.68
819.76	229.60
820.07	229.58
820.39	229.60
820.71	229.60
821.03	229.53
821.34	229.50
821.66	229.49
821.98	229.54
822.30	229.58
822.61	229.65
822.93	229.60
823.25	229.69
823.57	229.76
823.88	229.77
824.20	229.69
824.52	229.68
824.83	229.69
825.15	229.56
825.47	229.55
825.79	229.53
826.10	229.43
826.42	229.43
826.74	229.36
827.05	229.33
827.37	229.31
827.69	229.40
828.00	229.40
828.32	229.39
828.64	229.30
828.95	229.21
829.27	229.20
829.58	229.20
829.90	229.12
830.22	229.02
830.53	229.07
830.85	229.05
831.17	229.01
831.48	229.01
831.80	229.17
832.11	229.11
832.43	228.99
832.75	229.02
833.06	229.13
833.38	229.15
833.69	229.18
834.01	229.19
834.32	229.06
834.64	229.08
834.96	229.02
835.27	229.13
835.59	229.19
835.90	229.17
836.22	229.17
836.53	229.19
836.85	229.15
837.16	229.28
837.48	229.30
837.79	229.36
838.11	229.46
838.42	229.44
838.74	229.60
839.05	229.68
839.37	229.74
839.68	229.67
840.00	229.66
840.31	229.72
840.63	229.76
840.94	229.87
841.26	229.88
841.57	229.95
841.88	229.89
842.20	229.95
842.51	229.87
842.83	229.86
843.14	230.03
843.46	230.10
843.77	230.09
844.08	230.11
844.40	230.07
844.71	230.08
845.03	230.08
845.34	229.99
845.65	229.97
845.97	230.00
846.28	230.08
846.60	230.10
846.91	230.05
847.22	229.97
847.54	229.98
847.85	230.01
848.16	230.04
848.48	230.08
848.79	230.14
849.10	230.20
849.42	230.17
849.73	229.95
850.04	229.84
850.36	229.83
850.67	229.74
850.98	229.82
851.30	229.76
851.61	229.77
851.92	229.73
852.23	229.80
852.55	229.68
852.86	229.59
853.17	229.60
853.49	229.65
853.80	229.75
854.11	229.70
854.42	229.60
854.74	229.48
855.05	229.45
855.36	229.27
855.67	229.22
855.99	229.21
856.30	229.45
856.61	229.56
856.92	229.49
857.23	229.44
857.55	229.32
857.86	229.21
858.17	229.25
858.48	229.17
858.79	229.09
859.11	229.12
859.42	229.08
859.73	229.06
860.04	228.89
860.35	228.73
860.66	228.69
860.98	228.72
861.29	228.80
861.60	228.83
861.91	228.84
862.22	228.83
862.53	228.85
862.84	228.67
863.16	228.63
863.47	228.43
863.78	228.48
864.09	228.51
864.40	228.53
864.71	228.50
865.02	228.60
865.33	228.55
865.64	228.41
865.95	228.43
866.27	228.43
866.58	228.52
866.89	228.55
867.20	228.59
867.51	228.49
867.82	228.41
868.13	228.40
868.44	228.39
868.75	228.42
869.06	228.33
869.37	228.26
869.68	228.26
869.99	228.40
870.30	228.40
870.61	228.37
870.92	228.37
871.23	228.35
871.54	228.34
871.85	228.37
872.16	228.49
872.47	228.45
872.78	228.48
873.09	228.46
873.40	228.50
873.71	228.56
874.02	228.61
874.33	228.69
874.64	228.68
874.95	228.77
875.26	228.71
875.56	228.73
875.87	228.66
876.18	228.60
876.49	228.72
876.80	228.81
877.11	228.82
877.42	228.92
877.73	228.94
878.04	228.99
878.35	229.11
878.66	229.12
878.96	229.20
879.27	229.11
879.58	229.24
879.89	229.22
880.20	229.20
880.51	229.24
880.82	229.19
881.12	229.17
881.43	229.09
881.74	229.14
882.05	229.27
882.36	229.34
882.67	229.37
882.97	229.26
883.28	229.21
883.59	229.23
883.90	229.28
884.21	229.28
884.51	229.24
884.82	229.10
885.13	229.12
885.44	229.02
885.74	229.10
886.05	229.00
886.36	229.03
886.67	229.04
886.98	229.04
887.28	229.05
887.59	229.16
887.90	229.12
888.20	229.16
888.51	229.09
888.82	229.06
889.13	229.08
889.43	229.24
889.74	229.15
890.05	229.14
890.35	229.11
890.66	229.04
890.97	228.92
891.28	228.88
891.58	228.81
891.89	228.91
892.20	228.86
892.50	228.81
892.81	228.73
893.12	228.65
893.42	228.56
893.73	228.64
894.04	228.55
894.34	228.53
894.65	228.46
894.95	228.41
895.26	228.50
895.57	228.60
895.87	228.36
896.18	228.43
896.48	228.44
896.79	228.34
897.10	228.37
897.40	228.46
897.71	228.48
898.01	228.45
898.32	228.43
898.63	228.43
898.93	228.52
899.24	228.64
899.54	228.49
899.85	228.59
900.15	228.55
900.46	228.49
900.76	228.52
901.07	228.40
901.38	228.49
901.68	228.42
901.99	228.32
902.29	228.30
902.60	228.18
902.90	228.11
903.21	228.10
903.51	228.10
903.82	228.13
904.12	228.12
904.43	228.18
904.73	228.09
905.03	228.15
905.34	228.32
905.64	228.20
905.95	228.32
906.25	228.25
906.56	228.19
906.86	228.14
907.17	228.10
907.47	228.20
907.77	228.08
908.08	228.02
908.38	228.03
908.69	228.08
908.99	228.10
909.30	228.13
909.60	228.15
909.90	228.12
910.21	228.03
910.51	228.06
910.81	228.02
911.12	228.11
911.42	228.02
911.73	227.72
912.03	227.77
912.33	227.86
912.64	227.84
912.94	227.88
913.24	227.98
913.55	227.89
913.85	227.94
914.15	228.08
914.46	228.09
914.76	228.13
915.06	228.11
915.37	228.16
915.67	228.19
915.97	228.19
916.27	228.18
916.58	228.12
916.88	227.99
917.18	228.03
917.49	228.01
917.79	228.01
918.09	228.02
918.39	228.13
918.70	228.09
919.00	228.14
919.30	228.26
919.60	228.24
919.91	228.37
920.21	228.32
920.51	228.16
920.81	228.23
921.12	228.21
921.42	228.26
921.72	228.31
922.02	228.34
922.32	228.43
922.63	228.47
922.93	228.64
923.23	228.75
923.53	228.71
923.83	228.73
924.13	228.76
924.44	228.79
924.74	228.74
925.04	228.78
925.34	228.73
925.64	228.72
925.94	228.66
926.24	228.76
926.55	228.77
926.85	228.84
927.15	228.79
927.45	228.77
927.75	228.73
928.05	228.74
928.35	228.75
928.65	228.77
928.95	228.74
929.26	228.63
929.56	228.68
929.86	228.79
930.16	228.77
930.46	228.73
930.76	228.81
931.06	228.72
931.36	228.79
931.66	228.78
931.96	228.56
932.26	228.59
932.56	228.52
932.86	228.50
933.16	228.55
933.46	228.62
933.76	228.69
934.06	228.78
934.36	228.78
934.66	228.64
934.96	228.46
935.26	228.46
935.56	228.48
935.86	228.48
936.16	228.38
936.46	228.32
936.76	228.35
937.06	228.32
937.36	228.36
937.66	228.28
937.96	228.30
938.26	228.31
938.56	228.32
938.86	228.34
939.16	228.36
939.46	228.30
939.76	228.19
940.06	228.07
940.35	227.99
940.65	227.81
940.95	227.82
941.25	227.83
941.55	227.76
941.85	227.85
942.15	227.96
942.45	227.94
942.75	227.91
943.04	227.96
943.34	227.87
943.64	227.87
943.94	227.77
944.24	227.74
944.54	227.78
944.84	227.70
945.13	227.48
945.43	227.44
945.73	227.44
946.03	227.39
946.33	227.33
946.62	227.28
946.92	227.32
947.22	227.36
947.52	227.35
947.82	227.41
948.11	227.36
948.41	227.16
948.71	227.17
949.01	227.22
949.31	227.04
949.60	227.08
949.90	227.18
950.20	227.22
950.50	227.26
950.79	227.28
951.09	227.30
951.39	227.49
951.69	227.47
951.98	227.46
952.28	227.53
952.58	227.61
952.87	227.60
953.17	227.70
953.47	227.74
953.76	227.82
954.06	227.82
954.36	227.78
954.66	227.83
954.95	227.82
955.25	227.80
955.55	227.89
955.84	227.83
956.14	227.70
956.44	227.71
956.73	227.70
957.03	227.82
957.32	227.90
957.62	227.80
957.92	227.86
958.21	227.94
958.51	228.16
958.81	228.22
959.10	228.22
959.40	228.30
959.69	228.35
959.99	228.26
960.29	228.31
960.58	228.36
960.88	228.48
961.17	228.53
961.47	228.52
961.76	228.51
962.06	228.56
962.36	228.57
962.65	228.54
962.95	228.49
963.24	228.25
963.54	228.22
963.83	228.23
964.13	228.21
964.42	228.19
964.72	227.98
965.01	227.92
965.31	227.99
965.60	227.85
965.90	227.84
966.19	227.93
966.49	227.89
966.78	227.76
967.08	227.67
967.37	227.59
967.67	227.54
967.96	227.52
968.26	227.47
968.55	227.55
968.85	227.60
969.14	227.72
969.43	227.82
969.73	227.85
970.02	227.88
970.32	227.93
970.61	227.87
970.91	227.81
971.20	227.69
971.49	227.61
971.79	227.70
972.08	227.60
972.38	227.56
972.67	227.60
972.96	227.70
973.26	227.65
973.55	227.69
973.85	227.82
974.14	227.77
974.43	227.80
974.73	227.62
975.02	227.55
975.31	227.51
975.61	227.60
975.90	227.55
976.19	227.61
976.49	227.70
976.78	227.70
977.07	227.83
977.37	227.97
977.66	228.05
977.95	227.97
978.24	228.01
978.54	228.03
978.83	228.06
979.12	228.09
979.42	228.12
979.71	228.18
980.00	228.16
980.29	228.30
980.59	228.26
980.88	228.50
981.17	228.50
981.46	228.45
981.76	228.36
982.05	228.42
982.34	228.33
982.63	228.20
982.93	228.21
983.22	228.25
983.51	228.25
983.80	228.24
984.09	228.26
984.39	228.27
984.68	228.26
984.97	228.21
985.26	228.17
985.55	228.23
985.85	228.16
986.14	228.15
986.43	228.17
986.72	228.21
987.01	228.10
987.30	228.13
987.59	228.15
987.89	228.19
988.18	228.06
988.47	228.13
988.76	228.09
989.05	228.05
989.34	228.02
989.63	228.04
989.92	228.02
990.22	228.05
990.51	228.13
990.80	228.08
991.09	228.14
991.38	228.12
991.67	228.05
991.96	228.03
992.25	228.06
992.54	228.04
992.83	228.02
993.12	228.03
993.41	228.03
993.70	228.07
993.99	228.17
994.28	228.34
994.58	228.31
994.87	228.45
995.16	228.53
995.45	228.50
995.74	228.41
996.03	228.40
996.32	228.43
996.61	228.35
996.90	228.43
997.19	228.41
997.48	228.39
997.77	228.38
998.06	228.49
998.34	228.52
998.63	228.48
998.92	228.44
999.21	228.40
999.50	228.51
999.79	228.51
1000.08	228.44
1000.37	228.35
1000.66	228.39
1000.95	228.30
1001.24	228.34
1001.53	228.35
1001.82	228.39
1002.11	228.41
1002.40	228.44
1002.68	228.48
1002.97	228.58
1003.26	228.46
1003.55	228.43
1003.84	228.42
1004.13	228.40
1004.42	228.18
1004.71	228.16
1004.99	228.28
1005.28	228.36
1005.57	228.31
1005.86	228.24
1006.15	228.14
1006.44	228.23
1006.72	228.24
1007.01	228.28
1007.30	228.11
1007.59	228.09
1007.88	228.08
1008.17	228.01
1008.45	227.89
1008.74	227.84
1009.03	227.78
1009.32	227.93
1009.60	227.97
1009.89	228.12
1010.18	228.02
1010.47	228.11
1010.76	228.08
1011.04	228.04
1011.33	228.04
1011.62	228.00
1011.91	228.07
1012.19	228.10
1012.48	227.98
1012.77	227.98
1013.05	227.97
1013.34	228.05
1013.63	228.10
1013.92	228.10
1014.20	228.15
1014.49	228.18
1014.78	228.20
1015.06	228.10
1015.35	228.03
1015.64	228.09
1015.92	227.93
1016.21	227.96
1016.50	227.95
1016.78	228.01
1017.07	227.95
1017.36	227.92
1017.64	227.90
1017.93	227.87
1018.22	227.86
1018.50	227.88
1018.79	227.86
1019.08	227.88
1019.36	227.89
1019.65	227.80
1019.93	227.83
1020.22	227.85
1020.51	227.96
1020.79	227.93
1021.08	227.20
1021.36	227.40
1021.65	228.40
1021.94	228.70
1022.22	228.20
1022.51	227.90
1022.79	228.20
1023.08	228.40
1023.36	229.70
1023.65	228.00
>>>>>End Processed Spectral Data<<<<<
