SpectraSuite Data File
++++++++++++++++++++++++++++++++++++
Date: Fri Feb 01 14:34:40 EST 2013
User: group
Dark Spectrum Present: No
Reference Spectrum Present: No
Number of Sampled Component Spectra: 1
Spectrometers: USB2E7196
Integration Time (usec): 70000 (USB2E7196)
Spectra Averaged: 10 (USB2E7196)
Boxcar Smoothing: 10 (USB2E7196)
Correct for Electrical Dark: No (USB2E7196)
Strobe/Lamp Enabled: No (USB2E7196)
Correct for Detector Non-linearity: No (USB2E7196)
Correct for Stray Light: No (USB2E7196)
Number of Pixels in Processed Spectrum: 2048
>>>>>Begin Processed Spectral Data<<<<<
339.09	0.00
339.48	217.40
339.86	217.30
340.24	217.90
340.63	220.70
341.01	224.20
341.39	224.40
341.78	225.60
342.16	227.20
342.54	226.10
342.93	214.98
343.31	225.85
343.69	226.36
344.07	226.82
344.46	227.36
344.84	227.66
345.22	227.83
345.60	227.98
345.99	228.17
346.37	228.25
346.75	228.30
347.13	228.46
347.52	228.59
347.90	228.76
348.28	228.79
348.66	228.75
349.05	228.63
349.43	228.66
349.81	228.73
350.19	228.81
350.57	228.83
350.96	228.95
351.34	228.99
351.72	229.19
352.10	229.30
352.48	229.29
352.87	229.36
353.25	229.39
353.63	229.45
354.01	229.40
354.39	229.39
354.77	229.49
355.15	229.54
355.54	229.54
355.92	229.52
356.30	229.56
356.68	229.72
357.06	229.84
357.44	229.90
357.82	229.95
358.20	229.93
358.58	229.97
358.97	229.95
359.35	230.07
359.73	230.03
360.11	230.11
360.49	230.22
360.87	230.25
361.25	230.48
361.63	230.62
362.01	230.81
362.39	230.95
362.77	231.07
363.15	230.99
363.53	230.94
363.91	231.06
364.29	231.00
364.67	230.90
365.05	230.96
365.43	230.99
365.81	230.97
366.19	231.06
366.57	231.18
366.95	231.25
367.33	231.26
367.71	231.16
368.09	231.11
368.47	231.09
368.85	231.15
369.23	231.00
369.61	230.88
369.99	230.78
370.37	230.71
370.75	230.71
371.13	230.68
371.51	230.64
371.89	230.59
372.27	230.57
372.65	230.53
373.03	230.38
373.41	230.26
373.78	230.18
374.16	229.97
374.54	229.83
374.92	229.69
375.30	229.55
375.68	229.48
376.06	229.46
376.44	229.49
376.82	229.37
377.19	229.34
377.57	229.30
377.95	229.17
378.33	229.15
378.71	228.91
379.09	228.84
379.47	228.79
379.84	228.69
380.22	228.59
380.60	228.42
380.98	228.35
381.36	228.37
381.73	228.25
382.11	228.36
382.49	228.25
382.87	228.13
383.25	228.12
383.62	228.32
384.00	228.15
384.38	227.92
384.76	227.95
385.13	227.92
385.51	227.83
385.89	227.85
386.27	227.77
386.64	227.77
387.02	227.68
387.40	227.62
387.78	227.57
388.15	227.52
388.53	227.59
388.91	227.60
389.29	227.49
389.66	227.57
390.04	227.48
390.42	227.46
390.79	227.43
391.17	227.36
391.55	227.02
391.92	227.08
392.30	227.12
392.68	227.01
393.05	227.01
393.43	227.00
393.81	226.95
394.18	226.96
394.56	226.86
394.94	226.98
395.31	227.01
395.69	227.06
396.06	227.14
396.44	227.15
396.82	227.15
397.19	227.30
397.57	227.35
397.95	227.47
398.32	227.55
398.70	227.64
399.07	227.70
399.45	228.01
399.82	228.11
400.20	228.29
400.58	228.48
400.95	228.47
401.33	228.67
401.70	228.99
402.08	229.11
402.45	229.46
402.83	229.69
403.20	229.95
403.58	230.13
403.95	230.42
404.33	230.68
404.71	231.07
405.08	231.52
405.46	231.82
405.83	232.08
406.21	232.48
406.58	232.88
406.96	233.41
407.33	233.70
407.70	234.23
408.08	234.75
408.45	235.29
408.83	235.91
409.20	236.43
409.58	236.93
409.95	237.70
410.33	238.47
410.70	239.13
411.08	239.94
411.45	240.86
411.82	241.79
412.20	242.80
412.57	243.87
412.95	244.77
413.32	245.84
413.69	247.07
414.07	248.32
414.44	249.78
414.82	251.11
415.19	252.68
415.56	254.35
415.94	256.01
416.31	257.90
416.68	259.86
417.06	262.17
417.43	264.27
417.81	266.52
418.18	268.90
418.55	271.60
418.93	274.27
419.30	277.10
419.67	279.87
420.04	282.90
420.42	286.05
420.79	289.65
421.16	293.34
421.54	297.03
421.91	301.00
422.28	305.02
422.66	309.40
423.03	313.77
423.40	318.12
423.77	322.75
424.15	327.51
424.52	332.19
424.89	337.50
425.26	342.68
425.64	347.67
426.01	352.97
426.38	358.62
426.75	364.20
427.13	370.13
427.50	376.49
427.87	382.80
428.24	389.36
428.61	395.43
428.99	402.21
429.36	409.67
429.73	416.89
430.10	424.04
430.47	431.42
430.85	438.95
431.22	446.80
431.59	455.12
431.96	463.04
432.33	472.19
432.70	480.79
433.08	490.87
433.45	500.45
433.82	509.89
434.19	520.32
434.56	530.81
434.93	540.69
435.30	550.52
435.68	561.69
436.05	572.35
436.42	583.14
436.79	592.85
437.16	603.30
437.53	614.22
437.90	625.20
438.27	635.82
438.64	646.90
439.01	657.40
439.38	666.82
439.75	675.82
440.13	686.17
440.50	695.74
440.87	704.01
441.24	712.48
441.61	721.68
441.98	728.99
442.35	737.23
442.72	745.53
443.09	753.49
443.46	758.56
443.83	762.10
444.20	765.57
444.57	770.21
444.94	772.89
445.31	775.90
445.68	778.48
446.05	780.41
446.42	780.55
446.79	780.46
447.16	780.38
447.53	780.94
447.90	778.00
448.27	775.41
448.64	770.87
449.01	768.09
449.37	762.23
449.74	755.96
450.11	748.49
450.48	740.49
450.85	732.40
451.22	725.52
451.59	719.05
451.96	712.89
452.33	704.01
452.70	696.18
453.07	686.29
453.43	676.47
453.80	666.73
454.17	657.48
454.54	648.72
454.91	639.24
455.28	629.63
455.65	621.25
456.02	612.20
456.38	604.64
456.75	595.08
457.12	587.33
457.49	579.61
457.86	572.20
458.23	565.64
458.59	558.30
458.96	550.83
459.33	544.30
459.70	537.59
460.07	532.46
460.43	526.22
460.80	520.46
461.17	515.50
461.54	510.19
461.91	505.07
462.27	499.69
462.64	495.17
463.01	490.30
463.38	485.12
463.74	480.47
464.11	476.20
464.48	472.46
464.85	468.22
465.21	464.95
465.58	461.43
465.95	457.31
466.32	454.02
466.68	450.59
467.05	447.35
467.42	443.90
467.78	440.34
468.15	436.94
468.52	434.46
468.88	431.28
469.25	428.44
469.62	426.15
469.98	423.84
470.35	421.37
470.72	419.18
471.08	416.89
471.45	414.82
471.82	412.77
472.18	410.37
472.55	408.61
472.92	406.67
473.28	405.05
473.65	403.27
474.02	401.51
474.38	400.07
474.75	398.69
475.11	397.40
475.48	396.16
475.85	395.16
476.21	394.29
476.58	393.40
476.94	392.62
477.31	391.81
477.67	391.00
478.04	390.28
478.41	389.69
478.77	389.33
479.14	388.70
479.50	388.26
479.87	388.20
480.23	388.10
480.60	387.94
480.96	387.51
481.33	387.82
481.69	387.84
482.06	387.90
482.42	387.77
482.79	387.77
483.15	388.19
483.52	389.01
483.88	389.24
484.25	389.74
484.61	390.44
484.98	391.14
485.34	392.14
485.71	393.38
486.07	394.52
486.44	395.58
486.80	396.88
487.17	398.14
487.53	399.61
487.90	401.13
488.26	402.74
488.62	404.52
488.99	406.10
489.35	407.90
489.72	409.96
490.08	412.08
490.44	414.28
490.81	416.67
491.17	418.62
491.54	421.17
491.90	423.44
492.26	426.02
492.63	428.63
492.99	431.11
493.36	433.74
493.72	436.49
494.08	439.36
494.45	442.27
494.81	445.58
495.17	448.55
495.54	451.85
495.90	455.19
496.26	458.52
496.63	462.15
496.99	465.75
497.35	469.24
497.72	473.17
498.08	476.77
498.44	480.56
498.80	484.77
499.17	488.70
499.53	492.61
499.89	496.65
500.26	500.60
500.62	504.65
500.98	508.96
501.34	513.35
501.71	517.80
502.07	522.08
502.43	526.09
502.79	530.47
503.16	534.50
503.52	538.95
503.88	543.27
504.24	547.26
504.60	551.55
504.97	556.06
505.33	560.11
505.69	564.91
506.05	569.28
506.41	573.24
506.78	577.23
507.14	581.59
507.50	585.74
507.86	590.00
508.22	594.34
508.59	598.19
508.95	602.05
509.31	605.90
509.67	609.96
510.03	614.02
510.39	617.89
510.75	621.90
511.12	625.17
511.48	628.68
511.84	632.22
512.20	635.78
512.56	639.12
512.92	642.80
513.28	646.06
513.64	649.18
514.00	652.29
514.37	655.40
514.73	658.29
515.09	661.03
515.45	663.76
515.81	666.43
516.17	669.23
516.53	672.23
516.89	674.60
517.25	677.09
517.61	679.47
517.97	681.89
518.33	683.84
518.69	686.48
519.05	689.16
519.41	691.62
519.77	694.17
520.13	696.47
520.49	698.26
520.85	700.26
521.21	702.11
521.57	704.47
521.93	706.42
522.29	708.60
522.65	710.60
523.01	712.41
523.37	714.05
523.73	715.93
524.09	717.19
524.45	719.22
524.81	721.00
525.17	722.93
525.53	724.88
525.89	726.92
526.25	728.60
526.61	730.10
526.97	731.70
527.33	733.15
527.68	734.80
528.04	736.66
528.40	738.19
528.76	740.33
529.12	742.31
529.48	744.32
529.84	746.00
530.20	748.13
530.56	750.42
530.91	752.74
531.27	754.69
531.63	757.15
531.99	759.26
532.35	761.21
532.71	762.94
533.07	765.18
533.42	767.37
533.78	769.60
534.14	771.80
534.50	774.04
534.86	776.34
535.21	778.26
535.57	780.80
535.93	783.30
536.29	785.60
536.65	787.78
537.00	790.10
537.36	792.63
537.72	794.87
538.08	796.83
538.44	798.84
538.79	801.33
539.15	803.39
539.51	805.80
539.87	808.55
540.22	811.05
540.58	813.69
540.94	816.21
541.29	818.60
541.65	821.08
542.01	824.03
542.37	826.60
542.72	829.53
543.08	831.80
543.44	834.60
543.79	836.63
544.15	839.36
544.51	842.41
544.87	845.23
545.22	847.89
545.58	850.70
545.94	853.62
546.29	856.13
546.65	858.96
547.01	861.50
547.36	864.09
547.72	867.06
548.07	869.28
548.43	871.79
548.79	874.46
549.14	877.15
549.50	879.54
549.86	882.01
550.21	884.73
550.57	887.48
550.92	889.90
551.28	892.82
551.64	895.20
551.99	897.41
552.35	899.75
552.70	902.30
553.06	905.05
553.41	907.53
553.77	910.12
554.13	912.99
554.48	915.59
554.84	918.40
555.19	921.18
555.55	923.95
555.90	926.56
556.26	929.14
556.61	931.83
556.97	934.40
557.32	937.09
557.68	939.25
558.03	941.62
558.39	944.06
558.74	946.79
559.10	949.09
559.45	951.71
559.81	954.79
560.16	957.13
560.52	959.70
560.87	962.22
561.23	964.48
561.58	967.00
561.94	969.41
562.29	971.52
562.64	973.18
563.00	975.34
563.35	977.90
563.71	980.50
564.06	982.83
564.42	985.11
564.77	987.16
565.12	989.53
565.48	992.17
565.83	994.06
566.19	996.02
566.54	998.05
566.89	999.90
567.25	1001.29
567.60	1003.63
567.96	1005.26
568.31	1007.35
568.66	1009.20
569.02	1010.22
569.37	1011.55
569.72	1013.24
570.08	1014.91
570.43	1016.37
570.78	1017.39
571.14	1018.34
571.49	1019.25
571.84	1020.37
572.20	1021.40
572.55	1022.27
572.90	1022.85
573.26	1023.91
573.61	1024.61
573.96	1025.35
574.31	1025.59
574.67	1025.57
575.02	1025.39
575.37	1025.54
575.72	1025.01
576.08	1025.30
576.43	1025.68
576.78	1025.88
577.13	1025.65
577.49	1026.15
577.84	1025.69
578.19	1025.86
578.54	1025.42
578.90	1025.20
579.25	1024.53
579.60	1024.00
579.95	1023.64
580.30	1022.99
580.66	1022.22
581.01	1021.44
581.36	1020.41
581.71	1019.94
582.06	1019.49
582.42	1018.70
582.77	1017.88
583.12	1017.32
583.47	1016.10
583.82	1015.00
584.17	1014.00
584.53	1012.95
584.88	1011.28
585.23	1010.20
585.58	1008.62
585.93	1007.40
586.28	1006.60
586.63	1005.56
586.98	1004.61
587.34	1003.40
587.69	1002.16
588.04	1000.95
588.39	999.71
588.74	998.38
589.09	996.66
589.44	994.88
589.79	993.53
590.14	992.33
590.49	990.75
590.84	989.25
591.19	987.92
591.54	985.98
591.89	983.58
592.25	982.01
592.60	980.01
592.95	977.79
593.30	975.78
593.65	972.83
594.00	970.61
594.35	968.74
594.70	966.08
595.05	964.04
595.40	961.59
595.75	959.18
596.10	956.94
596.45	955.15
596.80	953.31
597.15	951.05
597.50	948.42
597.85	946.24
598.19	944.42
598.54	941.95
598.89	939.78
599.24	938.06
599.59	935.57
599.94	933.60
600.29	931.57
600.64	929.44
600.99	927.00
601.34	924.65
601.69	921.57
602.04	919.06
602.39	916.48
602.74	914.20
603.08	911.65
603.43	909.72
603.78	907.01
604.13	904.31
604.48	901.76
604.83	899.37
605.18	896.90
605.53	893.51
605.87	890.65
606.22	887.79
606.57	884.88
606.92	882.15
607.27	879.45
607.62	876.70
607.96	873.80
608.31	871.70
608.66	868.55
609.01	865.70
609.36	862.92
609.70	859.28
610.05	855.98
610.40	852.88
610.75	849.46
611.10	846.12
611.44	842.56
611.79	839.19
612.14	835.67
612.49	831.83
612.83	828.72
613.18	825.25
613.53	822.05
613.88	818.54
614.22	815.03
614.57	811.38
614.92	808.06
615.27	804.84
615.61	800.80
615.96	797.40
616.31	794.20
616.65	791.23
617.00	788.64
617.35	785.43
617.70	782.16
618.04	778.70
618.39	775.58
618.74	772.62
619.08	769.21
619.43	766.06
619.78	763.20
620.12	759.99
620.47	756.95
620.82	753.78
621.16	750.81
621.51	747.94
621.85	744.83
622.20	741.53
622.55	738.51
622.89	735.75
623.24	732.92
623.59	730.10
623.93	727.12
624.28	723.97
624.62	721.17
624.97	718.40
625.32	715.58
625.66	712.45
626.01	709.70
626.35	707.02
626.70	704.22
627.04	701.26
627.39	698.34
627.73	695.35
628.08	692.47
628.43	689.39
628.77	686.50
629.12	683.41
629.46	680.57
629.81	677.24
630.15	674.23
630.50	671.23
630.84	667.84
631.19	664.50
631.53	661.48
631.88	658.31
632.22	655.03
632.57	651.97
632.91	648.97
633.26	645.75
633.60	642.64
633.95	639.70
634.29	636.86
634.64	634.05
634.98	631.36
635.32	628.63
635.67	626.12
636.01	623.14
636.36	620.36
636.70	617.85
637.05	615.50
637.39	613.09
637.73	610.38
638.08	608.06
638.42	605.68
638.77	603.35
639.11	600.70
639.45	598.40
639.80	595.84
640.14	593.46
640.49	591.10
640.83	588.40
641.17	585.85
641.52	583.15
641.86	580.54
642.20	577.91
642.55	575.19
642.89	572.64
643.23	570.17
643.58	568.13
643.92	565.36
644.26	562.75
644.61	560.40
644.95	558.21
645.29	555.46
645.64	552.62
645.98	549.80
646.32	547.31
646.66	544.68
647.01	542.19
647.35	539.75
647.69	537.13
648.04	535.07
648.38	532.46
648.72	529.93
649.06	527.21
649.41	524.85
649.75	522.27
650.09	519.73
650.43	517.12
650.78	514.27
651.12	511.75
651.46	509.30
651.80	506.59
652.14	504.14
652.49	501.79
652.83	499.63
653.17	497.18
653.51	494.72
653.85	492.54
654.20	489.97
654.54	487.50
654.88	485.07
655.22	482.40
655.56	479.92
655.90	477.62
656.25	475.44
656.59	472.86
656.93	470.81
657.27	468.62
657.61	466.20
657.95	464.11
658.29	462.14
658.64	459.84
658.98	457.62
659.32	455.13
659.66	452.94
660.00	450.80
660.34	448.51
660.68	446.48
661.02	443.97
661.36	441.98
661.70	439.97
662.05	438.23
662.39	436.54
662.73	434.70
663.07	432.98
663.41	431.18
663.75	429.40
664.09	427.47
664.43	425.49
664.77	423.83
665.11	421.94
665.45	420.10
665.79	418.37
666.13	416.44
666.47	414.65
666.81	412.82
667.15	410.89
667.49	409.31
667.83	407.72
668.17	406.20
668.51	404.57
668.85	402.90
669.19	401.21
669.53	399.46
669.87	397.97
670.21	396.21
670.55	394.65
670.89	393.19
671.23	391.74
671.57	390.20
671.91	388.71
672.25	387.20
672.58	385.80
672.92	384.19
673.26	382.93
673.60	381.67
673.94	380.42
674.28	379.29
674.62	378.14
674.96	376.79
675.30	375.55
675.64	374.35
675.97	373.05
676.31	371.81
676.65	370.58
676.99	369.33
677.33	368.11
677.67	366.77
678.01	365.47
678.34	364.10
678.68	363.03
679.02	361.83
679.36	360.72
679.70	359.31
680.04	358.29
680.37	356.96
680.71	355.70
681.05	354.63
681.39	353.48
681.73	352.25
682.06	351.14
682.40	350.05
682.74	348.88
683.08	347.77
683.42	346.52
683.75	345.41
684.09	344.16
684.43	343.01
684.77	342.04
685.10	340.90
685.44	339.89
685.78	338.81
686.12	337.71
686.45	336.58
686.79	335.62
687.13	334.54
687.46	333.70
687.80	332.75
688.14	331.60
688.48	330.52
688.81	329.34
689.15	328.24
689.49	327.14
689.82	326.24
690.16	325.15
690.50	324.10
690.83	323.03
691.17	322.07
691.51	321.17
691.84	320.31
692.18	319.38
692.52	318.34
692.85	317.32
693.19	316.40
693.52	315.37
693.86	314.40
694.20	313.49
694.53	312.36
694.87	311.32
695.21	310.40
695.54	309.51
695.88	308.70
696.21	307.65
696.55	306.84
696.88	305.79
697.22	304.92
697.56	304.20
697.89	303.47
698.23	302.60
698.56	301.70
698.90	300.69
699.23	299.86
699.57	299.09
699.90	298.23
700.24	297.40
700.58	296.67
700.91	295.83
701.25	295.16
701.58	294.67
701.92	294.01
702.25	293.29
702.59	292.56
702.92	291.92
703.26	291.45
703.59	290.69
703.93	290.20
704.26	289.58
704.60	288.95
704.93	288.21
705.26	287.63
705.60	287.13
705.93	286.59
706.27	285.93
706.60	285.36
706.94	284.98
707.27	284.30
707.61	283.68
707.94	283.18
708.27	282.50
708.61	281.71
708.94	281.17
709.28	280.62
709.61	280.10
709.94	279.67
710.28	279.02
710.61	278.59
710.95	277.93
711.28	277.45
711.61	276.77
711.95	276.16
712.28	275.60
712.61	275.05
712.95	274.58
713.28	274.26
713.61	273.79
713.95	273.21
714.28	272.79
714.61	272.46
714.95	272.05
715.28	271.54
715.61	271.06
715.95	270.60
716.28	270.11
716.61	269.75
716.95	269.29
717.28	268.94
717.61	268.56
717.94	268.20
718.28	267.83
718.61	267.46
718.94	267.15
719.27	266.90
719.61	266.55
719.94	266.15
720.27	265.68
720.60	265.30
720.94	264.90
721.27	264.73
721.60	264.38
721.93	264.09
722.27	263.87
722.60	263.62
722.93	263.39
723.26	263.05
723.59	262.55
723.93	262.13
724.26	261.84
724.59	261.46
724.92	261.12
725.25	260.78
725.59	260.60
725.92	260.27
726.25	259.80
726.58	259.41
726.91	259.05
727.24	258.83
727.57	258.59
727.91	258.28
728.24	257.92
728.57	257.61
728.90	257.35
729.23	256.98
729.56	256.81
729.89	256.53
730.22	256.34
730.55	256.07
730.89	255.85
731.22	255.58
731.55	255.25
731.88	255.03
732.21	254.81
732.54	254.46
732.87	254.36
733.20	254.20
733.53	254.02
733.86	253.84
734.19	253.57
734.52	253.20
734.85	253.00
735.18	252.62
735.51	252.35
735.84	251.96
736.17	251.80
736.50	251.41
736.83	251.35
737.16	251.02
737.49	250.79
737.82	250.47
738.15	250.27
738.48	250.00
738.81	249.73
739.14	249.50
739.47	249.17
739.80	248.77
740.13	248.50
740.46	248.26
740.79	248.06
741.12	247.78
741.45	247.63
741.78	247.43
742.11	247.38
742.44	247.09
742.77	246.99
743.10	246.70
743.43	246.48
743.75	246.00
744.08	246.03
744.41	245.86
744.74	245.64
745.07	245.29
745.40	245.10
745.73	244.85
746.06	244.57
746.39	244.50
746.71	244.40
747.04	244.14
747.37	244.00
747.70	243.79
748.03	243.59
748.36	243.33
748.68	243.12
749.01	242.82
749.34	242.72
749.67	242.54
750.00	242.41
750.33	242.38
750.65	242.30
750.98	241.97
751.31	241.80
751.64	241.71
751.97	241.68
752.29	241.61
752.62	241.55
752.95	241.45
753.28	241.28
753.60	241.05
753.93	241.02
754.26	240.86
754.59	240.72
754.91	240.59
755.24	240.55
755.57	240.40
755.90	240.34
756.22	240.27
756.55	240.08
756.88	239.83
757.20	239.65
757.53	239.52
757.86	239.49
758.19	239.49
758.51	239.38
758.84	239.24
759.17	239.08
759.49	239.00
759.82	239.01
760.15	238.91
760.47	238.94
760.80	238.79
761.13	238.79
761.45	238.73
761.78	238.65
762.11	238.57
762.43	238.57
762.76	238.48
763.08	238.43
763.41	238.40
763.74	238.49
764.06	238.42
764.39	238.34
764.71	238.24
765.04	238.16
765.37	238.10
765.69	238.05
766.02	238.07
766.34	237.90
766.67	237.74
767.00	237.83
767.32	237.81
767.65	237.82
767.97	237.60
768.30	237.44
768.62	237.58
768.95	237.41
769.27	237.28
769.60	237.21
769.92	237.07
770.25	236.93
770.57	236.79
770.90	236.64
771.22	236.47
771.55	236.31
771.87	236.18
772.20	236.07
772.52	236.07
772.85	236.08
773.17	235.88
773.50	235.70
773.82	235.45
774.15	235.26
774.47	235.05
774.80	235.01
775.12	234.91
775.45	234.62
775.77	234.58
776.09	234.40
776.42	234.28
776.74	234.24
777.07	234.09
777.39	234.04
777.72	233.93
778.04	233.93
778.36	233.82
778.69	233.75
779.01	233.63
779.33	233.37
779.66	233.04
779.98	233.13
780.31	233.05
780.63	233.03
780.95	232.93
781.28	232.77
781.60	232.56
781.92	232.50
782.25	232.35
782.57	232.30
782.89	232.27
783.22	232.18
783.54	232.01
783.86	231.96
784.19	231.80
784.51	231.88
784.83	231.62
785.16	231.51
785.48	231.31
785.80	231.21
786.12	231.19
786.45	231.22
786.77	231.15
787.09	231.11
787.42	231.03
787.74	230.87
788.06	230.85
788.38	230.92
788.71	230.90
789.03	230.87
789.35	230.83
789.67	230.86
789.99	230.93
790.32	230.91
790.64	230.87
790.96	230.99
791.28	230.86
791.61	230.96
791.93	231.06
792.25	231.16
792.57	231.33
792.89	231.23
793.21	231.18
793.54	231.14
793.86	231.24
794.18	231.16
794.50	231.25
794.82	231.37
795.14	231.29
795.47	231.26
795.79	231.30
796.11	231.21
796.43	231.13
796.75	231.03
797.07	231.00
797.39	231.05
797.71	230.99
798.04	231.01
798.36	231.00
798.68	231.03
799.00	231.00
799.32	230.99
799.64	231.14
799.96	231.14
800.28	231.20
800.60	231.12
800.92	231.21
801.24	231.18
801.56	231.19
801.89	231.21
802.21	231.25
802.53	231.30
802.85	231.41
803.17	231.46
803.49	231.46
803.81	231.46
804.13	231.53
804.45	231.59
804.77	231.55
805.09	231.59
805.41	231.57
805.73	231.60
806.05	231.45
806.37	231.45
806.69	231.51
807.01	231.55
807.33	231.50
807.65	231.48
807.97	231.59
808.28	231.57
808.60	231.52
808.92	231.49
809.24	231.46
809.56	231.41
809.88	231.31
810.20	231.27
810.52	231.39
810.84	231.25
811.16	231.18
811.48	231.22
811.80	231.28
812.12	231.15
812.43	231.15
812.75	231.15
813.07	230.99
813.39	230.91
813.71	230.72
814.03	230.77
814.35	230.71
814.67	230.63
814.98	230.53
815.30	230.52
815.62	230.49
815.94	230.42
816.26	230.53
816.58	230.53
816.89	230.56
817.21	230.39
817.53	230.37
817.85	230.33
818.17	230.23
818.48	230.07
818.80	230.13
819.12	230.03
819.44	230.03
819.76	230.04
820.07	230.07
820.39	230.08
820.71	230.00
821.03	229.91
821.34	229.84
821.66	229.88
821.98	229.79
822.30	229.71
822.61	229.76
822.93	229.51
823.25	229.47
823.57	229.40
823.88	229.48
824.20	229.44
824.52	229.47
824.83	229.48
825.15	229.37
825.47	229.26
825.79	229.28
826.10	229.22
826.42	229.22
826.74	229.10
827.05	229.06
827.37	228.99
827.69	228.98
828.00	228.96
828.32	228.93
828.64	229.03
828.95	229.19
829.27	229.12
829.58	229.25
829.90	229.22
830.22	229.17
830.53	229.05
830.85	228.99
831.17	228.87
831.48	228.89
831.80	229.07
832.11	229.19
832.43	229.05
832.75	229.02
833.06	229.09
833.38	229.09
833.69	229.07
834.01	229.22
834.32	229.20
834.64	229.17
834.96	229.08
835.27	229.00
835.59	228.95
835.90	228.99
836.22	228.86
836.53	228.89
836.85	228.99
837.16	229.24
837.48	229.34
837.79	229.44
838.11	229.34
838.42	229.21
838.74	229.19
839.05	229.24
839.37	229.30
839.68	229.27
840.00	229.28
840.31	229.29
840.63	229.16
840.94	229.16
841.26	229.16
841.57	229.19
841.88	229.25
842.20	229.18
842.51	229.18
842.83	229.20
843.14	229.39
843.46	229.31
843.77	229.17
844.08	229.23
844.40	229.07
844.71	229.13
845.03	229.18
845.34	229.14
845.65	229.14
845.97	229.10
846.28	229.10
846.60	229.05
846.91	229.10
847.22	229.18
847.54	229.25
847.85	229.33
848.16	229.36
848.48	229.34
848.79	229.42
849.10	229.40
849.42	229.59
849.73	229.37
850.04	229.40
850.36	229.35
850.67	229.24
850.98	229.36
851.30	229.42
851.61	229.40
851.92	229.44
852.23	229.45
852.55	229.59
852.86	229.56
853.17	229.58
853.49	229.53
853.80	229.61
854.11	229.63
854.42	229.50
854.74	229.51
855.05	229.45
855.36	229.33
855.67	229.32
855.99	229.13
856.30	229.46
856.61	229.41
856.92	229.40
857.23	229.50
857.55	229.50
857.86	229.42
858.17	229.39
858.48	229.24
858.79	229.33
859.11	229.30
859.42	229.24
859.73	229.23
860.04	229.31
860.35	229.17
860.66	229.00
860.98	229.09
861.29	229.04
861.60	228.99
861.91	229.04
862.22	229.03
862.53	228.99
862.84	228.68
863.16	228.62
863.47	228.50
863.78	228.43
864.09	228.27
864.40	228.29
864.71	228.33
865.02	228.39
865.33	228.35
865.64	228.21
865.95	228.22
866.27	228.30
866.58	228.28
866.89	228.28
867.20	228.37
867.51	228.21
867.82	228.18
868.13	228.25
868.44	228.14
868.75	228.15
869.06	228.26
869.37	228.22
869.68	228.30
869.99	228.26
870.30	228.27
870.61	228.36
870.92	228.29
871.23	228.17
871.54	228.13
871.85	228.05
872.16	228.02
872.47	228.04
872.78	228.00
873.09	227.92
873.40	227.88
873.71	227.83
874.02	227.99
874.33	227.95
874.64	228.00
874.95	228.05
875.26	227.93
875.56	227.84
875.87	227.80
876.18	227.82
876.49	228.14
876.80	228.13
877.11	228.10
877.42	228.11
877.73	228.17
878.04	228.23
878.35	228.27
878.66	228.30
878.96	228.28
879.27	228.13
879.58	228.19
879.89	228.17
880.20	228.24
880.51	228.23
880.82	228.30
881.12	228.29
881.43	228.27
881.74	228.31
882.05	228.26
882.36	228.31
882.67	228.29
882.97	228.14
883.28	228.12
883.59	228.14
883.90	228.24
884.21	228.28
884.51	228.25
884.82	228.29
885.13	228.36
885.44	228.33
885.74	228.47
886.05	228.46
886.36	228.54
886.67	228.47
886.98	228.60
887.28	228.60
887.59	228.59
887.90	228.76
888.20	228.81
888.51	228.88
888.82	228.80
889.13	228.85
889.43	228.96
889.74	228.99
890.05	229.00
890.35	228.91
890.66	228.87
890.97	228.90
891.28	228.89
891.58	228.93
891.89	228.97
892.20	228.98
892.50	228.89
892.81	228.94
893.12	228.89
893.42	228.73
893.73	228.71
894.04	228.74
894.34	228.66
894.65	228.58
894.95	228.60
895.26	228.64
895.57	228.65
895.87	228.49
896.18	228.49
896.48	228.38
896.79	228.36
897.10	228.44
897.40	228.35
897.71	228.39
898.01	228.22
898.32	228.18
898.63	228.18
898.93	228.24
899.24	228.15
899.54	228.30
899.85	228.31
900.15	228.25
900.46	228.12
900.76	228.10
901.07	228.12
901.38	228.01
901.68	228.08
901.99	228.02
902.29	227.92
902.60	227.89
902.90	228.03
903.21	228.05
903.51	227.92
903.82	228.01
904.12	227.85
904.43	227.93
904.73	227.91
905.03	227.79
905.34	228.00
905.64	227.98
905.95	227.84
906.25	227.83
906.56	227.93
906.86	227.90
907.17	227.87
907.47	227.82
907.77	227.82
908.08	227.70
908.38	227.64
908.69	227.70
908.99	227.70
909.30	227.58
909.60	227.52
909.90	227.56
910.21	227.46
910.51	227.48
910.81	227.45
911.12	227.45
911.42	227.53
911.73	227.36
912.03	227.33
912.33	227.45
912.64	227.37
912.94	227.27
913.24	227.24
913.55	227.18
913.85	227.28
914.15	227.22
914.46	227.31
914.76	227.36
915.06	227.33
915.37	227.37
915.67	227.47
915.97	227.54
916.27	227.59
916.58	227.58
916.88	227.56
917.18	227.61
917.49	227.80
917.79	227.84
918.09	227.83
918.39	227.93
918.70	227.89
919.00	227.87
919.30	228.04
919.60	228.19
919.91	228.25
920.21	228.16
920.51	228.25
920.81	228.21
921.12	228.19
921.42	228.32
921.72	228.38
922.02	228.27
922.32	228.34
922.63	228.30
922.93	228.43
923.23	228.54
923.53	228.49
923.83	228.39
924.13	228.32
924.44	228.30
924.74	228.36
925.04	228.42
925.34	228.51
925.64	228.46
925.94	228.46
926.24	228.70
926.55	228.72
926.85	228.82
927.15	228.79
927.45	228.79
927.75	228.64
928.05	228.56
928.35	228.65
928.65	228.61
928.95	228.68
929.26	228.69
929.56	228.71
929.86	228.79
930.16	228.78
930.46	228.77
930.76	228.79
931.06	228.70
931.36	228.70
931.66	228.78
931.96	228.73
932.26	228.72
932.56	228.59
932.86	228.63
933.16	228.60
933.46	228.68
933.76	228.69
934.06	228.85
934.36	228.95
934.66	228.96
934.96	228.95
935.26	228.90
935.56	228.93
935.86	228.85
936.16	228.79
936.46	228.75
936.76	228.80
937.06	228.82
937.36	228.90
937.66	228.84
937.96	228.81
938.26	228.84
938.56	228.84
938.86	228.87
939.16	228.86
939.46	228.85
939.76	228.91
940.06	228.93
940.35	228.84
940.65	228.70
940.95	228.63
941.25	228.67
941.55	228.73
941.85	228.68
942.15	228.70
942.45	228.73
942.75	228.70
943.04	228.75
943.34	228.85
943.64	228.66
943.94	228.62
944.24	228.56
944.54	228.61
944.84	228.61
945.13	228.45
945.43	228.49
945.73	228.53
946.03	228.46
946.33	228.47
946.62	228.46
946.92	228.47
947.22	228.49
947.52	228.50
947.82	228.41
948.11	228.37
948.41	228.39
948.71	228.37
949.01	228.39
949.31	228.32
949.60	228.13
949.90	228.24
950.20	228.18
950.50	228.22
950.79	228.15
951.09	228.07
951.39	228.05
951.69	228.02
951.98	228.03
952.28	227.98
952.58	227.88
952.87	227.85
953.17	227.93
953.47	227.78
953.76	227.78
954.06	227.77
954.36	227.80
954.66	227.79
954.95	227.91
955.25	227.83
955.55	227.86
955.84	227.93
956.14	227.93
956.44	228.05
956.73	227.97
957.03	228.05
957.32	228.05
957.62	228.13
957.92	228.13
958.21	228.10
958.51	228.38
958.81	228.48
959.10	228.51
959.40	228.53
959.69	228.68
959.99	228.56
960.29	228.59
960.58	228.53
960.88	228.62
961.17	228.54
961.47	228.66
961.76	228.61
962.06	228.60
962.36	228.57
962.65	228.47
962.95	228.55
963.24	228.44
963.54	228.44
963.83	228.47
964.13	228.45
964.42	228.44
964.72	228.26
965.01	228.28
965.31	228.35
965.60	228.30
965.90	228.49
966.19	228.54
966.49	228.58
966.78	228.57
967.08	228.50
967.37	228.56
967.67	228.53
967.96	228.62
968.26	228.65
968.55	228.74
968.85	228.80
969.14	228.76
969.43	228.79
969.73	228.84
970.02	228.83
970.32	228.72
970.61	228.61
970.91	228.57
971.20	228.61
971.49	228.50
971.79	228.49
972.08	228.29
972.38	228.27
972.67	228.25
972.96	228.30
973.26	228.33
973.55	228.41
973.85	228.56
974.14	228.60
974.43	228.55
974.73	228.53
975.02	228.59
975.31	228.56
975.61	228.55
975.90	228.45
976.19	228.50
976.49	228.65
976.78	228.69
977.07	228.77
977.37	228.66
977.66	228.70
977.95	228.71
978.24	228.74
978.54	228.81
978.83	228.82
979.12	228.87
979.42	228.88
979.71	228.79
980.00	228.66
980.29	228.55
980.59	228.50
980.88	228.46
981.17	228.35
981.46	228.30
981.76	228.40
982.05	228.50
982.34	228.45
982.63	228.38
982.93	228.41
983.22	228.41
983.51	228.45
983.80	228.48
984.09	228.48
984.39	228.46
984.68	228.41
984.97	228.33
985.26	228.24
985.55	228.11
985.85	228.05
986.14	228.09
986.43	228.16
986.72	228.17
987.01	228.16
987.30	228.16
987.59	228.31
987.89	228.21
988.18	228.13
988.47	228.07
988.76	228.15
989.05	228.08
989.34	228.07
989.63	228.11
989.92	228.05
990.22	228.03
990.51	228.12
990.80	228.10
991.09	228.15
991.38	228.16
991.67	228.24
991.96	228.15
992.25	228.02
992.54	227.99
992.83	227.99
993.12	228.04
993.41	228.06
993.70	228.01
993.99	228.08
994.28	228.18
994.58	228.27
994.87	228.23
995.16	228.32
995.45	228.30
995.74	228.17
996.03	228.28
996.32	228.31
996.61	228.21
996.90	228.22
997.19	228.21
997.48	228.29
997.77	228.24
998.06	228.37
998.34	228.41
998.63	228.39
998.92	228.42
999.21	228.41
999.50	228.44
999.79	228.36
1000.08	228.32
1000.37	228.34
1000.66	228.28
1000.95	228.33
1001.24	228.42
1001.53	228.46
1001.82	228.54
1002.11	228.40
1002.40	228.48
1002.68	228.64
1002.97	228.81
1003.26	228.81
1003.55	228.73
1003.84	228.74
1004.13	228.77
1004.42	228.86
1004.71	228.98
1004.99	229.00
1005.28	229.02
1005.57	229.00
1005.86	229.06
1006.15	229.15
1006.44	229.11
1006.72	229.08
1007.01	229.07
1007.30	229.03
1007.59	229.00
1007.88	228.93
1008.17	228.94
1008.45	228.81
1008.74	228.68
1009.03	228.51
1009.32	228.53
1009.60	228.60
1009.89	228.62
1010.18	228.57
1010.47	228.53
1010.76	228.39
1011.04	228.35
1011.33	228.32
1011.62	228.28
1011.91	228.34
1012.19	228.28
1012.48	228.37
1012.77	228.40
1013.05	228.43
1013.34	228.37
1013.63	228.33
1013.92	228.35
1014.20	228.45
1014.49	228.44
1014.78	228.49
1015.06	228.45
1015.35	228.46
1015.64	228.47
1015.92	228.61
1016.21	228.43
1016.50	228.41
1016.78	228.45
1017.07	228.42
1017.36	228.33
1017.64	228.44
1017.93	228.41
1018.22	228.33
1018.50	228.25
1018.79	228.28
1019.08	228.20
1019.36	228.11
1019.65	228.10
1019.93	228.16
1020.22	228.07
1020.51	228.20
1020.79	228.22
1021.08	227.40
1021.36	228.10
1021.65	228.70
1021.94	228.20
1022.22	226.90
1022.51	227.20
1022.79	229.10
1023.08	226.90
1023.36	230.40
1023.65	229.90
>>>>>End Processed Spectral Data<<<<<
