SpectraSuite Data File
++++++++++++++++++++++++++++++++++++
Date: Fri Feb 01 14:40:14 EST 2013
User: group
Dark Spectrum Present: No
Reference Spectrum Present: No
Number of Sampled Component Spectra: 1
Spectrometers: USB2E7196
Integration Time (usec): 70000 (USB2E7196)
Spectra Averaged: 10 (USB2E7196)
Boxcar Smoothing: 10 (USB2E7196)
Correct for Electrical Dark: No (USB2E7196)
Strobe/Lamp Enabled: No (USB2E7196)
Correct for Detector Non-linearity: No (USB2E7196)
Correct for Stray Light: No (USB2E7196)
Number of Pixels in Processed Spectrum: 2048
>>>>>Begin Processed Spectral Data<<<<<
339.09	0.00
339.48	217.70
339.86	218.60
340.24	219.50
340.63	220.80
341.01	223.80
341.39	223.00
341.78	225.10
342.16	227.80
342.54	226.50
342.93	214.95
343.31	225.76
343.69	226.18
344.07	226.63
344.46	227.03
344.84	227.35
345.22	227.57
345.60	227.78
345.99	227.92
346.37	228.00
346.75	228.09
347.13	228.09
347.52	228.10
347.90	228.25
348.28	228.28
348.66	228.36
349.05	228.37
349.43	228.47
349.81	228.55
350.19	228.51
350.57	228.52
350.96	228.66
351.34	228.73
351.72	228.88
352.10	228.93
352.48	228.98
352.87	229.01
353.25	228.95
353.63	229.01
354.01	229.05
354.39	229.05
354.77	229.10
355.15	229.19
355.54	229.19
355.92	229.22
356.30	229.13
356.68	229.17
357.06	229.20
357.44	229.16
357.82	229.14
358.20	229.31
358.58	229.37
358.97	229.41
359.35	229.54
359.73	229.54
360.11	229.56
360.49	229.62
360.87	229.68
361.25	229.81
361.63	230.01
362.01	230.05
362.39	230.05
362.77	230.09
363.15	230.14
363.53	230.08
363.91	230.11
364.29	230.26
364.67	230.10
365.05	230.18
365.43	230.22
365.81	230.34
366.19	230.46
366.57	230.51
366.95	230.43
367.33	230.41
367.71	230.51
368.09	230.66
368.47	230.62
368.85	230.70
369.23	230.74
369.61	230.57
369.99	230.60
370.37	230.61
370.75	230.64
371.13	230.51
371.51	230.47
371.89	230.41
372.27	230.40
372.65	230.38
373.03	230.24
373.41	230.20
373.78	230.10
374.16	229.93
374.54	229.78
374.92	229.80
375.30	229.76
375.68	229.63
376.06	229.48
376.44	229.37
376.82	229.29
377.19	229.20
377.57	229.16
377.95	229.00
378.33	229.00
378.71	228.90
379.09	228.81
379.47	228.81
379.84	228.67
380.22	228.49
380.60	228.36
380.98	228.34
381.36	228.18
381.73	228.07
382.11	228.00
382.49	227.97
382.87	227.79
383.25	227.74
383.62	227.84
384.00	227.71
384.38	227.71
384.76	227.57
385.13	227.50
385.51	227.34
385.89	227.30
386.27	227.25
386.64	227.20
387.02	227.11
387.40	227.05
387.78	227.11
388.15	227.16
388.53	227.20
388.91	227.07
389.29	227.07
389.66	227.01
390.04	227.00
390.42	227.01
390.79	227.02
391.17	226.87
391.55	226.60
391.92	226.53
392.30	226.47
392.68	226.47
393.05	226.49
393.43	226.52
393.81	226.60
394.18	226.46
394.56	226.51
394.94	226.58
395.31	226.54
395.69	226.65
396.06	226.68
396.44	226.70
396.82	226.78
397.19	226.87
397.57	226.95
397.95	227.01
398.32	226.94
398.70	226.98
399.07	226.98
399.45	227.10
399.82	227.16
400.20	227.25
400.58	227.39
400.95	227.40
401.33	227.55
401.70	227.72
402.08	227.81
402.45	227.80
402.83	227.98
403.20	228.07
403.58	228.06
403.95	228.22
404.33	228.34
404.71	228.45
405.08	228.69
405.46	228.73
405.83	228.89
406.21	229.12
406.58	229.34
406.96	229.61
407.33	229.84
407.70	230.05
408.08	230.41
408.45	230.52
408.83	230.79
409.20	230.97
409.58	231.11
409.95	231.44
410.33	231.75
410.70	231.84
411.08	232.20
411.45	232.42
411.82	232.63
412.20	232.96
412.57	233.49
412.95	233.70
413.32	234.15
413.69	234.50
414.07	234.91
414.44	235.37
414.82	235.81
415.19	236.24
415.56	236.73
415.94	237.10
416.31	237.80
416.68	238.41
417.06	239.15
417.43	239.83
417.81	240.54
418.18	241.20
418.55	242.02
418.93	242.97
419.30	243.88
419.67	244.77
420.04	245.71
420.42	246.60
420.79	247.87
421.16	249.00
421.54	250.13
421.91	251.26
422.28	252.35
422.66	253.71
423.03	255.09
423.40	256.50
423.77	257.95
424.15	259.30
424.52	260.68
424.89	262.25
425.26	263.76
425.64	265.28
426.01	266.99
426.38	268.77
426.75	270.40
427.13	272.07
427.50	273.97
427.87	275.90
428.24	277.69
428.61	279.27
428.99	281.20
429.36	283.23
429.73	285.29
430.10	287.34
430.47	289.37
430.85	291.30
431.22	293.47
431.59	295.92
431.96	298.19
432.33	300.75
432.70	303.02
433.08	305.78
433.45	308.30
433.82	310.89
434.19	313.89
434.56	316.73
434.93	319.40
435.30	322.03
435.68	324.96
436.05	327.82
436.42	330.60
436.79	333.11
437.16	335.90
437.53	338.88
437.90	341.70
438.27	344.40
438.64	347.38
439.01	350.15
439.38	352.17
439.75	354.31
440.13	356.64
440.50	359.07
440.87	360.97
441.24	362.90
441.61	365.17
441.98	366.53
442.35	368.45
442.72	370.39
443.09	372.15
443.46	373.09
443.83	373.64
444.20	374.30
444.57	375.26
444.94	375.67
445.31	375.93
445.68	376.54
446.05	376.78
446.42	376.38
446.79	375.93
447.16	375.72
447.53	375.52
447.90	374.66
448.27	373.61
448.64	372.17
449.01	371.17
449.37	369.09
449.74	367.19
450.11	365.11
450.48	362.70
450.85	360.30
451.22	358.29
451.59	356.40
451.96	354.44
452.33	351.87
452.70	349.50
453.07	346.77
453.43	343.71
453.80	340.76
454.17	338.11
454.54	335.54
454.91	332.70
455.28	329.98
455.65	327.44
456.02	324.97
456.38	322.66
456.75	319.91
457.12	317.78
457.49	315.56
457.86	313.04
458.23	311.18
458.59	309.08
458.96	306.93
459.33	304.95
459.70	302.95
460.07	301.30
460.43	299.44
460.80	297.67
461.17	296.24
461.54	294.79
461.91	293.23
462.27	291.78
462.64	290.45
463.01	289.06
463.38	287.74
463.74	286.27
464.11	285.08
464.48	283.96
464.85	282.67
465.21	281.80
465.58	280.98
465.95	279.79
466.32	278.80
466.68	277.78
467.05	276.90
467.42	276.14
467.78	275.11
468.15	274.25
468.52	273.61
468.88	272.70
469.25	271.95
469.62	271.43
469.98	270.68
470.35	270.10
470.72	269.48
471.08	268.64
471.45	268.00
471.82	267.34
472.18	266.68
472.55	266.14
472.92	265.46
473.28	264.85
473.65	264.27
474.02	263.70
474.38	263.32
474.75	262.91
475.11	262.35
475.48	261.90
475.85	261.52
476.21	261.09
476.58	260.67
476.94	260.28
477.31	259.77
477.67	259.30
478.04	258.93
478.41	258.61
478.77	258.51
479.14	258.23
479.50	258.04
479.87	257.87
480.23	257.73
480.60	257.55
480.96	257.24
481.33	257.22
481.69	257.11
482.06	256.85
482.42	256.64
482.79	256.56
483.15	256.59
483.52	256.45
483.88	256.40
484.25	256.41
484.61	256.44
484.98	256.52
485.34	256.62
485.71	256.70
486.07	256.78
486.44	256.70
486.80	256.73
487.17	256.88
487.53	257.10
487.90	257.12
488.26	257.29
488.62	257.42
488.99	257.54
489.35	257.73
489.72	257.99
490.08	258.32
490.44	258.50
490.81	258.89
491.17	259.23
491.54	259.51
491.90	259.79
492.26	260.12
492.63	260.50
492.99	261.02
493.36	261.47
493.72	261.98
494.08	262.52
494.45	263.17
494.81	263.78
495.17	264.41
495.54	265.27
495.90	266.02
496.26	266.93
496.63	267.89
496.99	268.69
497.35	269.70
497.72	270.66
498.08	271.70
498.44	272.77
498.80	274.09
499.17	275.50
499.53	276.81
499.89	278.30
500.26	279.68
500.62	281.18
500.98	282.88
501.34	284.46
501.71	286.27
502.07	288.13
502.43	289.86
502.79	291.88
503.16	293.99
503.52	296.17
503.88	298.35
504.24	300.61
504.60	303.10
504.97	305.62
505.33	308.17
505.69	311.03
506.05	313.91
506.41	316.82
506.78	319.67
507.14	322.80
507.50	326.02
507.86	329.53
508.22	333.11
508.59	336.62
508.95	340.50
509.31	344.57
509.67	348.71
510.03	353.10
510.39	357.34
510.75	361.64
511.12	366.13
511.48	370.96
511.84	375.77
512.20	380.83
512.56	385.95
512.92	391.29
513.28	396.80
513.64	402.35
514.00	407.95
514.37	413.91
514.73	420.11
515.09	426.24
515.45	432.52
515.81	438.84
516.17	445.43
516.53	452.03
516.89	458.59
517.25	465.39
517.61	472.47
517.97	479.58
518.33	486.84
518.69	494.14
519.05	501.72
519.41	509.49
519.77	517.39
520.13	525.41
520.49	533.49
520.85	541.47
521.21	549.60
521.57	558.07
521.93	566.26
522.29	575.00
522.65	583.61
523.01	592.34
523.37	601.11
523.73	610.11
524.09	619.28
524.45	628.62
524.81	637.86
525.17	647.37
525.53	657.10
525.89	667.00
526.25	677.09
526.61	686.66
526.97	696.61
527.33	706.68
527.68	716.69
528.04	726.70
528.40	737.05
528.76	747.61
529.12	758.07
529.48	768.80
529.84	779.03
530.20	789.87
530.56	800.71
530.91	811.90
531.27	823.09
531.63	834.04
531.99	844.81
532.35	855.73
532.71	866.39
533.07	877.43
533.42	888.58
533.78	899.81
534.14	911.07
534.50	922.05
534.86	933.20
535.21	944.15
535.57	955.70
535.93	966.95
536.29	977.91
536.65	989.11
537.00	1000.05
537.36	1011.35
537.72	1022.44
538.08	1033.52
538.44	1044.21
538.79	1055.06
539.15	1066.13
539.51	1077.41
539.87	1088.64
540.22	1099.74
540.58	1111.02
540.94	1121.74
541.29	1132.26
541.65	1143.29
542.01	1154.48
542.37	1165.15
542.72	1176.03
543.08	1186.52
543.44	1197.03
543.79	1207.08
544.15	1217.46
544.51	1228.24
544.87	1238.52
545.22	1248.29
545.58	1258.09
545.94	1267.76
546.29	1277.24
546.65	1286.55
547.01	1295.75
547.36	1304.78
547.72	1314.03
548.07	1322.82
548.43	1331.52
548.79	1340.38
549.14	1348.57
549.50	1356.19
549.86	1364.36
550.21	1372.26
550.57	1380.60
550.92	1388.76
551.28	1397.09
551.64	1404.74
551.99	1412.25
552.35	1419.86
552.70	1427.71
553.06	1435.43
553.41	1442.82
553.77	1450.40
554.13	1457.89
554.48	1465.21
554.84	1472.71
555.19	1479.74
555.55	1486.86
555.90	1493.71
556.26	1500.29
556.61	1507.20
556.97	1513.95
557.32	1520.34
557.68	1526.79
558.03	1532.85
558.39	1538.80
558.74	1545.08
559.10	1551.43
559.45	1557.60
559.81	1564.16
560.16	1569.63
560.52	1575.10
560.87	1580.77
561.23	1585.97
561.58	1591.46
561.94	1596.60
562.29	1601.47
562.64	1605.83
563.00	1610.42
563.35	1615.75
563.71	1621.15
564.06	1625.80
564.42	1630.61
564.77	1635.36
565.12	1640.34
565.48	1645.16
565.83	1648.99
566.19	1653.29
566.54	1656.71
566.89	1660.22
567.25	1663.33
567.60	1667.27
567.96	1670.87
568.31	1674.05
568.66	1677.34
569.02	1680.28
569.37	1682.76
569.72	1685.34
570.08	1688.31
570.43	1690.58
570.78	1692.42
571.14	1693.80
571.49	1695.66
571.84	1698.01
572.20	1699.63
572.55	1700.59
572.90	1701.00
573.26	1702.64
573.61	1703.31
573.96	1704.47
574.31	1704.46
574.67	1704.13
575.02	1704.04
575.37	1704.11
575.72	1703.99
576.08	1703.56
576.43	1703.29
576.78	1703.31
577.13	1703.35
577.49	1703.20
577.84	1702.97
578.19	1702.24
578.54	1701.42
578.90	1700.34
579.25	1698.08
579.60	1696.73
579.95	1695.24
580.30	1693.71
580.66	1691.82
581.01	1689.96
581.36	1687.79
581.71	1686.81
582.06	1685.29
582.42	1683.11
582.77	1680.98
583.12	1678.83
583.47	1676.96
583.82	1674.85
584.17	1672.37
584.53	1670.13
584.88	1667.64
585.23	1665.04
585.58	1662.64
585.93	1660.16
586.28	1658.02
586.63	1656.51
586.98	1654.16
587.34	1651.97
587.69	1649.40
588.04	1647.07
588.39	1644.60
588.74	1641.19
589.09	1637.94
589.44	1634.53
589.79	1631.79
590.14	1628.92
590.49	1625.67
590.84	1622.23
591.19	1619.09
591.54	1615.21
591.89	1610.80
592.25	1607.07
592.60	1602.57
592.95	1598.17
593.30	1594.00
593.65	1589.35
594.00	1584.97
594.35	1580.60
594.70	1575.74
595.05	1571.68
595.40	1566.96
595.75	1562.20
596.10	1558.69
596.45	1554.60
596.80	1551.17
597.15	1547.13
597.50	1542.81
597.85	1539.10
598.19	1535.43
598.54	1531.00
598.89	1527.34
599.24	1523.64
599.59	1519.55
599.94	1515.80
600.29	1511.95
600.64	1507.80
600.99	1503.31
601.34	1498.88
601.69	1494.08
602.04	1490.31
602.39	1486.17
602.74	1482.29
603.08	1478.37
603.43	1474.10
603.78	1469.56
604.13	1465.12
604.48	1460.51
604.83	1456.04
605.18	1451.49
605.53	1446.06
605.87	1440.88
606.22	1436.11
606.57	1431.15
606.92	1425.97
607.27	1421.43
607.62	1416.91
607.96	1412.30
608.31	1407.81
608.66	1402.40
609.01	1397.45
609.36	1391.46
609.70	1385.26
610.05	1379.25
610.40	1373.86
610.75	1368.21
611.10	1362.79
611.44	1356.10
611.79	1350.59
612.14	1344.70
612.49	1338.43
612.83	1332.64
613.18	1326.69
613.53	1321.03
613.88	1314.50
614.22	1308.45
614.57	1301.89
614.92	1295.60
615.27	1289.64
615.61	1283.47
615.96	1277.93
616.31	1272.72
616.65	1268.11
617.00	1262.87
617.35	1257.54
617.70	1251.39
618.04	1245.27
618.39	1239.19
618.74	1234.20
619.08	1227.89
619.43	1222.42
619.78	1217.22
620.12	1211.74
620.47	1206.31
620.82	1200.13
621.16	1195.10
621.51	1190.37
621.85	1185.18
622.20	1179.31
622.55	1173.49
622.89	1168.29
623.24	1162.84
623.59	1157.05
623.93	1151.10
624.28	1145.45
624.62	1139.77
624.97	1134.54
625.32	1129.31
625.66	1124.33
626.01	1118.76
626.35	1113.53
626.70	1107.99
627.04	1102.42
627.39	1096.45
627.73	1090.49
628.08	1085.23
628.43	1079.59
628.77	1073.40
629.12	1067.48
629.46	1062.08
629.81	1056.20
630.15	1050.04
630.50	1044.16
630.84	1037.90
631.19	1031.89
631.53	1026.03
631.88	1019.91
632.22	1013.53
632.57	1008.13
632.91	1001.80
633.26	996.10
633.60	990.35
633.95	984.70
634.29	979.10
634.64	974.02
634.98	968.70
635.32	963.28
635.67	957.90
636.01	952.60
636.36	947.34
636.70	942.06
637.05	936.86
637.39	932.04
637.73	927.26
638.08	922.77
638.42	918.07
638.77	913.38
639.11	908.44
639.45	903.96
639.80	898.58
640.14	893.85
640.49	889.00
640.83	883.84
641.17	878.65
641.52	873.57
641.86	868.28
642.20	863.68
642.55	858.85
642.89	853.97
643.23	848.78
643.58	844.10
643.92	838.91
644.26	834.30
644.61	829.72
644.95	824.71
645.29	819.42
645.64	813.93
645.98	809.03
646.32	804.48
646.66	799.39
647.01	794.79
647.35	790.23
647.69	785.49
648.04	781.04
648.38	776.23
648.72	771.33
649.06	766.59
649.41	761.58
649.75	756.39
650.09	751.56
650.43	746.95
650.78	741.91
651.12	737.22
651.46	732.39
651.80	727.50
652.14	722.88
652.49	718.42
652.83	714.01
653.17	709.46
653.51	704.88
653.85	700.30
654.20	695.65
654.54	690.85
654.88	686.04
655.22	681.18
655.56	676.61
655.90	672.21
656.25	667.94
656.59	663.77
656.93	659.59
657.27	655.39
657.61	651.04
657.95	647.11
658.29	643.20
658.64	639.21
658.98	634.98
659.32	630.52
659.66	626.37
660.00	622.42
660.34	618.07
660.68	613.96
661.02	609.98
661.36	606.13
661.70	602.29
662.05	598.74
662.39	595.57
662.73	591.96
663.07	588.49
663.41	584.94
663.75	581.39
664.09	578.02
664.43	574.60
664.77	571.30
665.11	567.82
665.45	564.54
665.79	561.19
666.13	557.78
666.47	554.48
666.81	551.12
667.15	547.77
667.49	544.77
667.83	541.70
668.17	538.45
668.51	535.17
668.85	531.98
669.19	528.96
669.53	525.62
669.87	522.48
670.21	519.62
670.55	516.85
670.89	514.15
671.23	511.34
671.57	508.42
671.91	505.52
672.25	502.68
672.58	499.80
672.92	497.01
673.26	494.54
673.60	492.06
673.94	489.56
674.28	487.07
674.62	484.69
674.96	482.13
675.30	480.02
675.64	477.65
675.97	475.40
676.31	472.77
676.65	470.49
676.99	468.31
677.33	465.67
677.67	463.24
678.01	460.64
678.34	458.19
678.68	455.88
679.02	453.66
679.36	451.37
679.70	449.05
680.04	446.62
680.37	444.33
680.71	442.00
681.05	439.81
681.39	437.57
681.73	435.49
682.06	433.46
682.40	431.27
682.74	429.31
683.08	427.31
683.42	425.26
683.75	423.03
684.09	420.76
684.43	418.76
684.77	416.84
685.10	414.74
685.44	412.70
685.78	410.68
686.12	408.65
686.45	406.68
686.79	404.70
687.13	403.01
687.46	401.04
687.80	399.09
688.14	397.13
688.48	395.37
688.81	393.18
689.15	391.41
689.49	389.51
689.82	387.53
690.16	385.50
690.50	383.72
690.83	382.09
691.17	380.35
691.51	378.68
691.84	376.91
692.18	375.24
692.52	373.57
692.85	371.92
693.19	370.35
693.52	368.62
693.86	367.09
694.20	365.40
694.53	363.81
694.87	362.28
695.21	360.67
695.54	359.00
695.88	357.50
696.21	355.85
696.55	354.40
696.88	352.95
697.22	351.55
697.56	350.22
697.89	348.70
698.23	347.41
698.56	345.98
698.90	344.60
699.23	343.18
699.57	341.74
699.90	340.41
700.24	338.92
700.58	337.79
700.91	336.52
701.25	335.26
701.58	334.01
701.92	332.67
702.25	331.48
702.59	330.33
702.92	329.32
703.26	328.17
703.59	326.95
703.93	325.84
704.26	324.58
704.60	323.33
704.93	322.23
705.26	321.05
705.60	320.01
705.93	318.97
706.27	318.21
706.60	317.43
706.94	316.40
707.27	315.50
707.61	314.43
707.94	313.40
708.27	312.49
708.61	311.48
708.94	310.55
709.28	309.61
709.61	308.79
709.94	307.85
710.28	306.95
710.61	306.11
710.95	305.11
711.28	304.46
711.61	303.61
711.95	302.67
712.28	301.80
712.61	300.78
712.95	299.90
713.28	298.97
713.61	298.02
713.95	297.10
714.28	296.28
714.61	295.50
714.95	294.74
715.28	293.94
715.61	293.12
715.95	292.39
716.28	291.60
716.61	290.77
716.95	289.98
717.28	289.22
717.61	288.45
717.94	287.90
718.28	287.09
718.61	286.31
718.94	285.68
719.27	285.08
719.61	284.57
719.94	284.01
720.27	283.21
720.60	282.63
720.94	282.15
721.27	281.61
721.60	280.96
721.93	280.41
722.27	279.77
722.60	279.38
722.93	278.96
723.26	278.52
723.59	277.97
723.93	277.40
724.26	276.88
724.59	276.35
724.92	275.76
725.25	275.25
725.59	274.85
725.92	274.39
726.25	273.82
726.58	273.27
726.91	272.67
727.24	272.31
727.57	271.71
727.91	271.20
728.24	270.76
728.57	270.37
728.90	269.85
729.23	269.47
729.56	268.98
729.89	268.49
730.22	267.97
730.55	267.59
730.89	267.16
731.22	266.82
731.55	266.47
731.88	266.06
732.21	265.65
732.54	265.15
732.87	264.72
733.20	264.33
733.53	264.05
733.86	263.84
734.19	263.41
734.52	263.11
734.85	262.93
735.18	262.42
735.51	262.09
735.84	261.79
736.17	261.43
736.50	261.01
736.83	260.86
737.16	260.52
737.49	260.10
737.82	259.79
738.15	259.37
738.48	258.96
738.81	258.67
739.14	258.32
739.47	257.98
739.80	257.69
740.13	257.44
740.46	256.97
740.79	256.52
741.12	256.20
741.45	255.89
741.78	255.42
742.11	255.11
742.44	254.77
742.77	254.36
743.10	254.00
743.43	253.65
743.75	253.11
744.08	253.01
744.41	252.70
744.74	252.43
745.07	252.16
745.40	251.94
745.73	251.77
746.06	251.53
746.39	251.41
746.71	251.20
747.04	250.84
747.37	250.63
747.70	250.33
748.03	250.00
748.36	249.67
748.68	249.45
749.01	249.27
749.34	249.03
749.67	248.85
750.00	248.65
750.33	248.49
750.65	248.26
750.98	247.85
751.31	247.69
751.64	247.40
751.97	247.31
752.29	247.01
752.62	246.60
752.95	246.35
753.28	246.12
753.60	245.83
753.93	245.73
754.26	245.51
754.59	245.20
754.91	245.12
755.24	244.95
755.57	244.66
755.90	244.39
756.22	244.09
756.55	243.89
756.88	243.62
757.20	243.39
757.53	243.25
757.86	243.07
758.19	242.98
758.51	242.85
758.84	242.60
759.17	242.57
759.49	242.48
759.82	242.44
760.15	242.23
760.47	242.15
760.80	241.89
761.13	241.89
761.45	241.83
761.78	241.70
762.11	241.54
762.43	241.57
762.76	241.49
763.08	241.47
763.41	241.37
763.74	241.35
764.06	241.25
764.39	241.14
764.71	241.13
765.04	241.00
765.37	240.90
765.69	240.78
766.02	240.54
766.34	240.45
766.67	240.27
767.00	240.20
767.32	240.16
767.65	240.25
767.97	240.10
768.30	240.06
768.62	239.84
768.95	239.78
769.27	239.58
769.60	239.50
769.92	239.37
770.25	239.19
770.57	238.96
770.90	238.84
771.22	238.67
771.55	238.43
771.87	238.23
772.20	238.22
772.52	238.21
772.85	238.41
773.17	238.19
773.50	238.09
773.82	237.98
774.15	237.81
774.47	237.50
774.80	237.41
775.12	237.24
775.45	237.31
775.77	237.19
776.09	237.09
776.42	236.99
776.74	236.98
777.07	236.90
777.39	236.76
777.72	236.70
778.04	236.68
778.36	236.52
778.69	236.59
779.01	236.35
779.33	236.16
779.66	235.75
779.98	235.68
780.31	235.57
780.63	235.50
780.95	235.48
781.28	235.42
781.60	235.19
781.92	235.08
782.25	234.85
782.57	234.66
782.89	234.57
783.22	234.47
783.54	234.29
783.86	234.31
784.19	234.23
784.51	234.17
784.83	233.90
785.16	233.86
785.48	233.61
785.80	233.53
786.12	233.34
786.45	233.27
786.77	233.20
787.09	233.12
787.42	232.91
787.74	232.79
788.06	232.64
788.38	232.60
788.71	232.62
789.03	232.61
789.35	232.64
789.67	232.49
789.99	232.38
790.32	232.31
790.64	232.25
790.96	232.46
791.28	232.29
791.61	232.35
791.93	232.35
792.25	232.29
792.57	232.39
792.89	232.37
793.21	232.36
793.54	232.24
793.86	232.13
794.18	232.11
794.50	232.01
794.82	232.11
795.14	232.07
795.47	231.97
795.79	231.92
796.11	231.80
796.43	231.84
796.75	231.80
797.07	231.72
797.39	231.63
797.71	231.40
798.04	231.39
798.36	231.35
798.68	231.32
799.00	231.32
799.32	231.23
799.64	231.32
799.96	231.38
800.28	231.48
800.60	231.43
800.92	231.51
801.24	231.53
801.56	231.49
801.89	231.45
802.21	231.47
802.53	231.51
802.85	231.71
803.17	231.82
803.49	231.86
803.81	231.91
804.13	231.98
804.45	231.91
804.77	232.00
805.09	232.08
805.41	232.00
805.73	231.98
806.05	231.97
806.37	231.80
806.69	231.70
807.01	231.61
807.33	231.70
807.65	231.59
807.97	231.57
808.28	231.60
808.60	231.66
808.92	231.57
809.24	231.67
809.56	231.55
809.88	231.41
810.20	231.46
810.52	231.48
810.84	231.38
811.16	231.34
811.48	231.25
811.80	231.24
812.12	231.36
812.43	231.41
812.75	231.29
813.07	231.32
813.39	231.39
813.71	231.43
814.03	231.31
814.35	231.34
814.67	231.29
814.98	231.24
815.30	231.18
815.62	231.19
815.94	230.98
816.26	231.06
816.58	230.99
816.89	230.93
817.21	230.89
817.53	230.87
817.85	230.96
818.17	230.87
818.48	230.78
818.80	230.75
819.12	230.67
819.44	230.63
819.76	230.54
820.07	230.50
820.39	230.47
820.71	230.55
821.03	230.40
821.34	230.36
821.66	230.25
821.98	230.33
822.30	230.21
822.61	230.23
822.93	230.17
823.25	230.18
823.57	230.17
823.88	230.10
824.20	230.02
824.52	230.02
824.83	230.00
825.15	229.94
825.47	229.82
825.79	229.76
826.10	229.81
826.42	229.81
826.74	229.77
827.05	229.64
827.37	229.54
827.69	229.64
828.00	229.60
828.32	229.59
828.64	229.52
828.95	229.56
829.27	229.53
829.58	229.44
829.90	229.35
830.22	229.31
830.53	229.19
830.85	229.16
831.17	229.06
831.48	229.02
831.80	228.91
832.11	228.79
832.43	228.80
832.75	228.67
833.06	228.73
833.38	228.64
833.69	228.70
834.01	228.73
834.32	228.65
834.64	228.59
834.96	228.66
835.27	228.51
835.59	228.53
835.90	228.45
836.22	228.32
836.53	228.24
836.85	228.14
837.16	228.36
837.48	228.29
837.79	228.33
838.11	228.39
838.42	228.49
838.74	228.56
839.05	228.60
839.37	228.61
839.68	228.53
840.00	228.51
840.31	228.43
840.63	228.33
840.94	228.28
841.26	228.28
841.57	228.10
841.88	228.10
842.20	227.99
842.51	228.00
842.83	228.11
843.14	228.42
843.46	228.50
843.77	228.30
844.08	228.38
844.40	228.32
844.71	228.24
845.03	228.20
845.34	228.14
845.65	228.07
845.97	228.01
846.28	228.07
846.60	228.00
846.91	228.04
847.22	228.15
847.54	228.18
847.85	228.22
848.16	228.38
848.48	228.43
848.79	228.61
849.10	228.66
849.42	228.64
849.73	228.42
850.04	228.37
850.36	228.45
850.67	228.54
850.98	228.55
851.30	228.58
851.61	228.55
851.92	228.63
852.23	228.75
852.55	228.83
852.86	228.81
853.17	228.94
853.49	229.02
853.80	229.12
854.11	229.23
854.42	229.22
854.74	229.22
855.05	229.26
855.36	229.31
855.67	229.28
855.99	229.35
856.30	229.59
856.61	229.71
856.92	229.64
857.23	229.69
857.55	229.73
857.86	229.78
858.17	229.98
858.48	229.94
858.79	229.94
859.11	230.02
859.42	229.98
859.73	229.97
860.04	230.11
860.35	229.94
860.66	229.94
860.98	230.01
861.29	230.02
861.60	229.97
861.91	229.87
862.22	229.90
862.53	229.83
862.84	229.66
863.16	229.65
863.47	229.62
863.78	229.49
864.09	229.49
864.40	229.58
864.71	229.50
865.02	229.47
865.33	229.40
865.64	229.29
865.95	229.39
866.27	229.54
866.58	229.38
866.89	229.47
867.20	229.40
867.51	229.34
867.82	229.37
868.13	229.49
868.44	229.44
868.75	229.44
869.06	229.45
869.37	229.39
869.68	229.21
869.99	229.26
870.30	229.20
870.61	229.08
870.92	228.90
871.23	228.81
871.54	228.84
871.85	228.92
872.16	228.95
872.47	228.82
872.78	228.67
873.09	228.60
873.40	228.53
873.71	228.59
874.02	228.55
874.33	228.46
874.64	228.27
874.95	228.31
875.26	228.20
875.56	228.08
875.87	228.18
876.18	228.08
876.49	228.20
876.80	228.25
877.11	228.26
877.42	228.23
877.73	228.24
878.04	228.19
878.35	228.02
878.66	227.96
878.96	228.00
879.27	227.85
879.58	227.84
879.89	227.90
880.20	227.90
880.51	227.87
880.82	227.77
881.12	227.74
881.43	227.68
881.74	227.72
882.05	227.75
882.36	227.56
882.67	227.75
882.97	227.61
883.28	227.50
883.59	227.44
883.90	227.48
884.21	227.46
884.51	227.50
884.82	227.60
885.13	227.64
885.44	227.68
885.74	227.78
886.05	227.79
886.36	227.74
886.67	227.62
886.98	227.72
887.28	227.77
887.59	227.80
887.90	227.82
888.20	227.83
888.51	227.95
888.82	228.01
889.13	227.96
889.43	228.13
889.74	228.24
890.05	228.40
890.35	228.35
890.66	228.42
890.97	228.40
891.28	228.31
891.58	228.38
891.89	228.30
892.20	228.30
892.50	228.24
892.81	228.27
893.12	228.30
893.42	228.27
893.73	228.33
894.04	228.44
894.34	228.47
894.65	228.44
894.95	228.38
895.26	228.50
895.57	228.63
895.87	228.45
896.18	228.47
896.48	228.39
896.79	228.51
897.10	228.50
897.40	228.60
897.71	228.75
898.01	228.71
898.32	228.77
898.63	228.86
898.93	228.98
899.24	228.99
899.54	229.02
899.85	229.08
900.15	229.12
900.46	229.14
900.76	229.18
901.07	229.25
901.38	229.37
901.68	229.28
901.99	229.20
902.29	229.38
902.60	229.34
902.90	229.42
903.21	229.44
903.51	229.51
903.82	229.43
904.12	229.37
904.43	229.45
904.73	229.49
905.03	229.36
905.34	229.51
905.64	229.50
905.95	229.46
906.25	229.34
906.56	229.28
906.86	229.19
907.17	229.15
907.47	229.12
907.77	228.99
908.08	228.93
908.38	228.82
908.69	228.70
908.99	228.76
909.30	228.71
909.60	228.68
909.90	228.62
910.21	228.64
910.51	228.69
910.81	228.59
911.12	228.50
911.42	228.50
911.73	228.29
912.03	228.28
912.33	228.27
912.64	228.29
912.94	228.30
913.24	228.19
913.55	228.09
913.85	227.97
914.15	228.03
914.46	228.04
914.76	228.06
915.06	228.02
915.37	227.99
915.67	227.92
915.97	227.85
916.27	227.80
916.58	227.73
916.88	227.50
917.18	227.55
917.49	227.62
917.79	227.66
918.09	227.66
918.39	227.65
918.70	227.62
919.00	227.55
919.30	227.61
919.60	227.67
919.91	227.63
920.21	227.61
920.51	227.60
920.81	227.56
921.12	227.63
921.42	227.58
921.72	227.55
922.02	227.59
922.32	227.66
922.63	227.68
922.93	227.83
923.23	227.95
923.53	227.89
923.83	227.76
924.13	227.76
924.44	227.76
924.74	227.77
925.04	227.91
925.34	227.90
925.64	227.90
925.94	227.99
926.24	228.22
926.55	228.32
926.85	228.30
927.15	228.33
927.45	228.31
927.75	228.37
928.05	228.42
928.35	228.45
928.65	228.39
928.95	228.40
929.26	228.31
929.56	228.39
929.86	228.41
930.16	228.56
930.46	228.64
930.76	228.70
931.06	228.60
931.36	228.62
931.66	228.81
931.96	228.82
932.26	228.72
932.56	228.67
932.86	228.64
933.16	228.68
933.46	228.75
933.76	228.73
934.06	228.79
934.36	228.90
934.66	228.98
934.96	229.07
935.26	229.10
935.56	229.29
935.86	229.34
936.16	229.39
936.46	229.32
936.76	229.34
937.06	229.22
937.36	229.37
937.66	229.38
937.96	229.40
938.26	229.41
938.56	229.52
938.86	229.46
939.16	229.59
939.46	229.54
939.76	229.61
940.06	229.72
940.35	229.69
940.65	229.59
940.95	229.60
941.25	229.56
941.55	229.56
941.85	229.45
942.15	229.49
942.45	229.60
942.75	229.58
943.04	229.51
943.34	229.68
943.64	229.64
943.94	229.52
944.24	229.42
944.54	229.41
944.84	229.41
945.13	229.39
945.43	229.36
945.73	229.43
946.03	229.30
946.33	229.14
946.62	229.10
946.92	228.98
947.22	228.89
947.52	228.92
947.82	228.79
948.11	228.68
948.41	228.52
948.71	228.33
949.01	228.43
949.31	228.35
949.60	228.20
949.90	228.19
950.20	228.18
950.50	228.16
950.79	228.03
951.09	227.99
951.39	228.00
951.69	227.81
951.98	227.72
952.28	227.71
952.58	227.72
952.87	227.64
953.17	227.74
953.47	227.63
953.76	227.45
954.06	227.48
954.36	227.50
954.66	227.48
954.95	227.46
955.25	227.43
955.55	227.41
955.84	227.37
956.14	227.31
956.44	227.28
956.73	227.12
957.03	227.16
957.32	227.08
957.62	227.05
957.92	227.08
958.21	227.15
958.51	227.33
958.81	227.38
959.10	227.45
959.40	227.50
959.69	227.45
959.99	227.56
960.29	227.53
960.58	227.51
960.88	227.59
961.17	227.53
961.47	227.43
961.76	227.46
962.06	227.57
962.36	227.55
962.65	227.53
962.95	227.66
963.24	227.62
963.54	227.65
963.83	227.60
964.13	227.71
964.42	227.59
964.72	227.54
965.01	227.53
965.31	227.52
965.60	227.40
965.90	227.68
966.19	227.70
966.49	227.84
966.78	227.84
967.08	227.82
967.37	227.89
967.67	227.88
967.96	228.00
968.26	227.99
968.55	228.03
968.85	228.18
969.14	228.20
969.43	228.24
969.73	228.40
970.02	228.49
970.32	228.54
970.61	228.60
970.91	228.57
971.20	228.57
971.49	228.57
971.79	228.71
972.08	228.60
972.38	228.55
972.67	228.55
972.96	228.62
973.26	228.57
973.55	228.65
973.85	228.74
974.14	228.68
974.43	228.78
974.73	228.81
975.02	228.79
975.31	228.82
975.61	228.83
975.90	228.70
976.19	228.74
976.49	228.68
976.78	228.68
977.07	228.69
977.37	228.75
977.66	228.75
977.95	228.68
978.24	228.60
978.54	228.69
978.83	228.65
979.12	228.58
979.42	228.63
979.71	228.59
980.00	228.45
980.29	228.48
980.59	228.30
980.88	228.31
981.17	228.31
981.46	228.17
981.76	228.13
982.05	228.32
982.34	228.28
982.63	228.20
982.93	228.25
983.22	228.27
983.51	228.22
983.80	228.34
984.09	228.36
984.39	228.47
984.68	228.40
984.97	228.43
985.26	228.46
985.55	228.50
985.85	228.42
986.14	228.44
986.43	228.41
986.72	228.43
987.01	228.38
987.30	228.18
987.59	228.14
987.89	228.18
988.18	227.90
988.47	227.78
988.76	227.84
989.05	227.68
989.34	227.57
989.63	227.53
989.92	227.41
990.22	227.26
990.51	227.17
990.80	227.17
991.09	227.11
991.38	227.16
991.67	227.03
991.96	227.11
992.25	227.15
992.54	227.14
992.83	227.11
993.12	227.01
993.41	227.07
993.70	227.20
993.99	227.14
994.28	227.24
994.58	227.26
994.87	227.22
995.16	227.26
995.45	227.23
995.74	227.19
996.03	227.14
996.32	227.26
996.61	227.31
996.90	227.22
997.19	227.19
997.48	227.15
997.77	227.22
998.06	227.08
998.34	227.14
998.63	227.11
998.92	227.12
999.21	227.20
999.50	227.18
999.79	227.10
1000.08	227.12
1000.37	227.15
1000.66	227.29
1000.95	227.37
1001.24	227.39
1001.53	227.47
1001.82	227.49
1002.11	227.54
1002.40	227.67
1002.68	227.64
1002.97	227.88
1003.26	227.88
1003.55	227.88
1003.84	227.82
1004.13	228.00
1004.42	227.89
1004.71	227.96
1004.99	228.01
1005.28	228.10
1005.57	228.22
1005.86	228.27
1006.15	228.30
1006.44	228.29
1006.72	228.35
1007.01	228.32
1007.30	228.43
1007.59	228.42
1007.88	228.52
1008.17	228.53
1008.45	228.52
1008.74	228.50
1009.03	228.42
1009.32	228.50
1009.60	228.50
1009.89	228.57
1010.18	228.47
1010.47	228.58
1010.76	228.48
1011.04	228.57
1011.33	228.57
1011.62	228.66
1011.91	228.74
1012.19	228.77
1012.48	228.78
1012.77	228.80
1013.05	228.86
1013.34	228.90
1013.63	228.87
1013.92	228.84
1014.20	228.80
1014.49	228.79
1014.78	228.90
1015.06	228.86
1015.35	228.89
1015.64	228.88
1015.92	228.84
1016.21	228.80
1016.50	228.83
1016.78	228.90
1017.07	228.89
1017.36	228.86
1017.64	228.85
1017.93	228.81
1018.22	228.83
1018.50	228.77
1018.79	228.63
1019.08	228.50
1019.36	228.44
1019.65	228.48
1019.93	228.47
1020.22	228.50
1020.51	228.50
1020.79	228.37
1021.08	228.50
1021.36	227.50
1021.65	227.50
1021.94	227.60
1022.22	228.30
1022.51	228.70
1022.79	228.50
1023.08	227.60
1023.36	230.30
1023.65	227.20
>>>>>End Processed Spectral Data<<<<<
