SpectraSuite Data File
++++++++++++++++++++++++++++++++++++
Date: Fri Feb 01 14:33:34 EST 2013
User: group
Dark Spectrum Present: No
Reference Spectrum Present: No
Number of Sampled Component Spectra: 1
Spectrometers: USB2E7196
Integration Time (usec): 70000 (USB2E7196)
Spectra Averaged: 10 (USB2E7196)
Boxcar Smoothing: 10 (USB2E7196)
Correct for Electrical Dark: No (USB2E7196)
Strobe/Lamp Enabled: No (USB2E7196)
Correct for Detector Non-linearity: No (USB2E7196)
Correct for Stray Light: No (USB2E7196)
Number of Pixels in Processed Spectrum: 2048
>>>>>Begin Processed Spectral Data<<<<<
339.09	0.00
339.48	216.40
339.86	219.40
340.24	219.10
340.63	222.00
341.01	225.00
341.39	223.00
341.78	225.80
342.16	226.40
342.54	226.50
342.93	215.32
343.31	226.16
343.69	226.68
344.07	227.18
344.46	227.68
344.84	228.04
345.22	228.22
345.60	228.55
345.99	228.72
346.37	228.81
346.75	228.87
347.13	229.12
347.52	229.23
347.90	229.36
348.28	229.45
348.66	229.48
349.05	229.46
349.43	229.46
349.81	229.39
350.19	229.33
350.57	229.35
350.96	229.47
351.34	229.59
351.72	229.74
352.10	229.80
352.48	229.87
352.87	229.90
353.25	229.90
353.63	229.94
354.01	229.95
354.39	230.13
354.77	230.20
355.15	230.16
355.54	230.18
355.92	230.09
356.30	230.10
356.68	230.35
357.06	230.43
357.44	230.44
357.82	230.67
358.20	230.80
358.58	230.76
358.97	230.83
359.35	230.92
359.73	230.90
360.11	230.96
360.49	230.89
360.87	230.93
361.25	231.12
361.63	231.18
362.01	231.34
362.39	231.33
362.77	231.46
363.15	231.51
363.53	231.53
363.91	231.60
364.29	231.62
364.67	231.38
365.05	231.26
365.43	231.30
365.81	231.27
366.19	231.27
366.57	231.43
366.95	231.29
367.33	231.18
367.71	231.13
368.09	231.09
368.47	231.18
368.85	231.15
369.23	231.11
369.61	230.97
369.99	230.90
370.37	230.80
370.75	230.91
371.13	230.80
371.51	230.81
371.89	230.75
372.27	230.78
372.65	230.80
373.03	230.86
373.41	230.85
373.78	230.73
374.16	230.69
374.54	230.48
374.92	230.40
375.30	230.40
375.68	230.41
376.06	230.38
376.44	230.20
376.82	230.08
377.19	229.96
377.57	229.91
377.95	229.76
378.33	229.80
378.71	229.54
379.09	229.46
379.47	229.29
379.84	229.35
380.22	229.34
380.60	229.20
380.98	229.16
381.36	229.02
381.73	228.97
382.11	228.84
382.49	228.85
382.87	228.82
383.25	228.84
383.62	228.93
384.00	228.79
384.38	228.79
384.76	228.85
385.13	228.89
385.51	228.92
385.89	228.86
386.27	228.72
386.64	228.69
387.02	228.65
387.40	228.66
387.78	228.56
388.15	228.44
388.53	228.44
388.91	228.40
389.29	228.37
389.66	228.42
390.04	228.42
390.42	228.50
390.79	228.57
391.17	228.54
391.55	228.36
391.92	228.33
392.30	228.39
392.68	228.37
393.05	228.44
393.43	228.37
393.81	228.42
394.18	228.49
394.56	228.56
394.94	228.71
395.31	228.66
395.69	228.65
396.06	228.78
396.44	228.95
396.82	228.96
397.19	229.08
397.57	229.09
397.95	229.22
398.32	229.10
398.70	229.18
399.07	229.20
399.45	229.33
399.82	229.49
400.20	229.54
400.58	229.62
400.95	229.60
401.33	229.90
401.70	230.23
402.08	230.44
402.45	230.60
402.83	230.77
403.20	231.11
403.58	231.34
403.95	231.50
404.33	231.73
404.71	232.07
405.08	232.59
405.46	232.95
405.83	233.26
406.21	233.78
406.58	234.23
406.96	234.75
407.33	235.29
407.70	235.93
408.08	236.61
408.45	237.32
408.83	238.02
409.20	238.65
409.58	239.20
409.95	239.97
410.33	240.87
410.70	241.68
411.08	242.65
411.45	243.80
411.82	245.00
412.20	246.29
412.57	247.65
412.95	248.78
413.32	250.23
413.69	251.82
414.07	253.45
414.44	255.28
414.82	257.00
415.19	259.13
415.56	261.18
415.94	263.44
416.31	265.84
416.68	268.35
417.06	271.03
417.43	273.72
417.81	276.81
418.18	279.88
418.55	283.27
418.93	286.68
419.30	290.14
419.67	293.74
420.04	297.53
420.42	301.63
420.79	306.23
421.16	310.92
421.54	315.57
421.91	320.48
422.28	325.66
422.66	331.06
423.03	336.42
423.40	342.03
423.77	347.94
424.15	353.97
424.52	360.26
424.89	367.16
425.26	373.81
425.64	379.97
426.01	386.80
426.38	393.98
426.75	401.36
427.13	408.94
427.50	416.86
427.87	425.20
428.24	433.41
428.61	441.20
428.99	449.70
429.36	459.31
429.73	468.54
430.10	477.55
430.47	486.98
430.85	496.48
431.22	506.42
431.59	517.02
431.96	527.29
432.33	538.71
432.70	549.80
433.08	562.93
433.45	575.09
433.82	587.21
434.19	600.75
434.56	613.87
434.93	626.68
435.30	639.38
435.68	653.12
436.05	666.58
436.42	680.51
436.79	693.09
437.16	706.51
437.53	720.74
437.90	734.71
438.27	748.41
438.64	762.43
439.01	775.89
439.38	787.66
439.75	799.50
440.13	812.44
440.50	824.89
440.87	835.20
441.24	845.96
441.61	858.19
441.98	866.94
442.35	877.45
442.72	887.93
443.09	898.15
443.46	904.62
443.83	909.59
444.20	913.85
444.57	920.13
444.94	923.33
445.31	926.79
445.68	930.22
446.05	932.68
446.42	933.33
446.79	933.18
447.16	933.29
447.53	933.30
447.90	929.84
448.27	926.20
448.64	920.28
449.01	916.80
449.37	908.80
449.74	901.40
450.11	892.01
450.48	881.59
450.85	871.01
451.22	862.54
451.59	854.08
451.96	846.13
452.33	834.74
452.70	824.72
453.07	812.41
453.43	800.09
453.80	787.72
454.17	775.55
454.54	764.33
454.91	752.08
455.28	740.12
455.65	729.00
456.02	717.22
456.38	707.51
456.75	695.21
457.12	684.95
457.49	674.82
457.86	665.11
458.23	656.88
458.59	647.58
458.96	637.80
459.33	629.47
459.70	620.72
460.07	613.79
460.43	605.99
460.80	598.40
461.17	591.66
461.54	584.92
461.91	578.32
462.27	571.69
462.64	566.06
463.01	559.68
463.38	553.43
463.74	547.72
464.11	542.38
464.48	537.73
464.85	532.67
465.21	528.70
465.58	524.44
465.95	519.23
466.32	515.20
466.68	511.11
467.05	506.86
467.42	502.85
467.78	498.49
468.15	494.13
468.52	490.82
468.88	486.98
469.25	483.28
469.62	480.50
469.98	477.53
470.35	474.51
470.72	471.90
471.08	469.10
471.45	466.60
471.82	464.04
472.18	461.07
472.55	458.96
472.92	456.47
473.28	454.34
473.65	452.31
474.02	450.10
474.38	448.30
474.75	446.86
475.11	445.14
475.48	443.65
475.85	442.68
476.21	441.77
476.58	440.73
476.94	440.22
477.31	439.34
477.67	438.45
478.04	437.73
478.41	437.25
478.77	436.85
479.14	436.42
479.50	436.29
479.87	436.55
480.23	436.54
480.60	436.46
480.96	436.44
481.33	436.83
481.69	437.18
482.06	437.54
482.42	437.77
482.79	438.27
483.15	439.14
483.52	439.99
483.88	440.69
484.25	441.46
484.61	442.41
484.98	443.70
485.34	445.11
485.71	446.76
486.07	448.40
486.44	449.95
486.80	451.82
487.17	453.81
487.53	455.85
487.90	458.20
488.26	460.59
488.62	462.96
488.99	465.43
489.35	468.06
489.72	471.13
490.08	474.35
490.44	477.40
490.81	480.48
491.17	483.67
491.54	487.50
491.90	491.13
492.26	495.01
492.63	498.88
492.99	502.93
493.36	507.00
493.72	511.29
494.08	515.83
494.45	520.50
494.81	525.13
495.17	530.10
495.54	535.19
495.90	540.58
496.26	545.98
496.63	551.60
496.99	557.43
497.35	562.90
497.72	568.61
498.08	574.58
498.44	580.80
498.80	587.47
499.17	593.85
499.53	600.45
499.89	606.96
500.26	613.66
500.62	620.17
500.98	627.10
501.34	634.03
501.71	641.12
502.07	647.88
502.43	655.04
502.79	662.16
503.16	669.23
503.52	676.35
503.88	683.47
504.24	690.65
504.60	698.05
504.97	705.37
505.33	713.04
505.69	721.15
506.05	729.01
506.41	736.31
506.78	743.48
507.14	750.77
507.50	758.24
507.86	765.67
508.22	773.43
508.59	780.81
508.95	788.41
509.31	795.96
509.67	803.80
510.03	811.41
510.39	818.61
510.75	826.13
511.12	833.50
511.48	840.84
511.84	848.23
512.20	855.33
512.56	863.04
512.92	870.07
513.28	876.57
513.64	883.08
514.00	889.76
514.37	896.83
514.73	903.74
515.09	910.29
515.45	916.71
515.81	923.10
516.17	929.69
516.53	935.68
516.89	941.79
517.25	947.25
517.61	952.72
517.97	958.71
518.33	964.25
518.69	969.65
519.05	975.31
519.41	980.51
519.77	986.13
520.13	991.25
520.49	996.38
520.85	1001.37
521.21	1006.57
521.57	1011.85
521.93	1016.46
522.29	1021.44
522.65	1026.20
523.01	1030.75
523.37	1034.80
523.73	1038.93
524.09	1043.24
524.45	1047.43
524.81	1051.75
525.17	1056.40
525.53	1060.54
525.89	1064.44
526.25	1068.86
526.61	1072.70
526.97	1076.79
527.33	1080.49
527.68	1084.09
528.04	1087.80
528.40	1091.68
528.76	1095.58
529.12	1099.39
529.48	1103.38
529.84	1106.69
530.20	1110.17
530.56	1114.18
530.91	1118.30
531.27	1122.14
531.63	1125.77
531.99	1129.08
532.35	1132.90
532.71	1135.80
533.07	1139.40
533.42	1143.10
533.78	1146.14
534.14	1149.34
534.50	1152.23
534.86	1155.16
535.21	1157.71
535.57	1160.82
535.93	1163.45
536.29	1166.11
536.65	1168.41
537.00	1170.40
537.36	1172.93
537.72	1175.64
538.08	1177.92
538.44	1179.96
538.79	1182.17
539.15	1184.29
539.51	1186.38
539.87	1188.89
540.22	1191.24
540.58	1193.82
540.94	1195.64
541.29	1197.38
541.65	1199.09
542.01	1201.49
542.37	1203.52
542.72	1205.86
543.08	1207.54
543.44	1209.72
543.79	1210.82
544.15	1212.70
544.51	1215.58
544.87	1217.76
545.22	1219.61
545.58	1221.11
545.94	1222.68
546.29	1224.17
546.65	1225.61
547.01	1227.45
547.36	1228.68
547.72	1230.21
548.07	1230.98
548.43	1232.20
548.79	1234.10
549.14	1235.55
549.50	1236.21
549.86	1237.21
550.21	1238.24
550.57	1239.34
550.92	1240.48
551.28	1241.55
551.64	1242.45
551.99	1242.89
552.35	1243.52
552.70	1244.48
553.06	1245.36
553.41	1246.45
553.77	1247.21
554.13	1247.97
554.48	1248.84
554.84	1249.72
555.19	1250.66
555.55	1251.41
555.90	1251.86
556.26	1252.50
556.61	1253.13
556.97	1253.80
557.32	1254.58
557.68	1255.23
558.03	1256.04
558.39	1256.20
558.74	1257.29
559.10	1258.11
559.45	1258.75
559.81	1259.64
560.16	1259.57
560.52	1260.14
560.87	1260.87
561.23	1261.17
561.58	1262.03
561.94	1262.58
562.29	1262.63
562.64	1262.65
563.00	1262.57
563.35	1263.50
563.71	1263.97
564.06	1264.67
564.42	1265.08
564.77	1265.40
565.12	1265.84
565.48	1266.22
565.83	1266.46
566.19	1266.78
566.54	1266.71
566.89	1266.46
567.25	1266.29
567.60	1266.85
567.96	1266.94
568.31	1266.66
568.66	1266.58
569.02	1266.02
569.37	1265.23
569.72	1264.88
570.08	1264.42
570.43	1264.10
570.78	1263.29
571.14	1262.38
571.49	1261.40
571.84	1261.36
572.20	1260.36
572.55	1258.98
572.90	1257.32
573.26	1256.58
573.61	1255.55
573.96	1254.01
574.31	1252.53
574.67	1250.52
575.02	1248.64
575.37	1246.66
575.72	1244.42
576.08	1242.75
576.43	1241.09
576.78	1239.55
577.13	1238.04
577.49	1236.31
577.84	1234.66
578.19	1232.66
578.54	1230.34
578.90	1227.99
579.25	1224.94
579.60	1222.31
579.95	1220.02
580.30	1217.70
580.66	1214.98
581.01	1212.05
581.36	1209.86
581.71	1207.71
582.06	1205.18
582.42	1202.53
582.77	1200.21
583.12	1197.91
583.47	1195.28
583.82	1192.56
584.17	1189.58
584.53	1186.60
584.88	1183.85
585.23	1180.88
585.58	1178.25
585.93	1175.51
586.28	1173.19
586.63	1170.68
586.98	1168.30
587.34	1165.70
587.69	1163.06
588.04	1160.27
588.39	1157.74
588.74	1154.40
589.09	1151.23
589.44	1148.54
589.79	1145.55
590.14	1142.48
590.49	1138.97
590.84	1135.75
591.19	1132.75
591.54	1129.38
591.89	1125.58
592.25	1122.10
592.60	1118.60
592.95	1114.49
593.30	1110.68
593.65	1106.67
594.00	1102.70
594.35	1099.48
594.70	1095.56
595.05	1092.10
595.40	1088.25
595.75	1084.10
596.10	1080.72
596.45	1077.18
596.80	1073.88
597.15	1070.40
597.50	1066.54
597.85	1063.64
598.19	1060.53
598.54	1057.21
598.89	1053.83
599.24	1051.08
599.59	1047.64
599.94	1044.07
600.29	1041.03
600.64	1037.60
600.99	1033.84
601.34	1030.60
601.69	1026.33
602.04	1022.86
602.39	1019.01
602.74	1015.81
603.08	1012.70
603.43	1009.34
603.78	1005.68
604.13	1001.99
604.48	998.32
604.83	994.94
605.18	991.48
605.53	987.27
605.87	982.93
606.22	979.32
606.57	975.04
606.92	971.45
607.27	967.97
607.62	964.76
607.96	961.56
608.31	958.36
608.66	954.57
609.01	950.84
609.36	946.90
609.70	942.87
610.05	938.37
610.40	934.18
610.75	929.93
611.10	925.72
611.44	920.91
611.79	916.79
612.14	912.43
612.49	907.73
612.83	903.60
613.18	899.50
613.53	895.36
613.88	891.30
614.22	886.75
614.57	882.17
614.92	877.46
615.27	873.05
615.61	868.66
615.96	864.34
616.31	860.27
616.65	856.83
617.00	853.05
617.35	849.40
617.70	845.36
618.04	841.28
618.39	837.44
618.74	833.84
619.08	829.75
619.43	826.04
619.78	822.34
620.12	818.47
620.47	814.69
620.82	810.72
621.16	806.86
621.51	803.43
621.85	799.95
622.20	796.00
622.55	792.39
622.89	788.70
623.24	785.31
623.59	782.04
623.93	778.19
624.28	774.60
624.62	771.20
624.97	767.67
625.32	764.49
625.66	760.99
626.01	757.60
626.35	754.19
626.70	750.45
627.04	746.96
627.39	743.57
627.73	739.98
628.08	736.52
628.43	733.00
628.77	729.48
629.12	725.83
629.46	722.53
629.81	718.37
630.15	714.98
630.50	711.21
630.84	707.38
631.19	703.55
631.53	699.96
631.88	695.92
632.22	691.96
632.57	688.38
632.91	684.60
633.26	681.02
633.60	677.51
633.95	674.22
634.29	670.65
634.64	667.29
634.98	664.00
635.32	660.70
635.67	657.54
636.01	654.20
636.36	651.11
636.70	648.04
637.05	645.18
637.39	642.08
637.73	639.11
638.08	636.22
638.42	633.38
638.77	630.25
639.11	627.31
639.45	624.74
639.80	621.54
640.14	618.80
640.49	615.70
640.83	612.70
641.17	609.73
641.52	606.88
641.86	603.93
642.20	601.43
642.55	598.50
642.89	595.72
643.23	592.71
643.58	589.75
643.92	586.70
644.26	584.00
644.61	581.11
644.95	578.28
645.29	575.17
645.64	572.08
645.98	569.11
646.32	566.57
646.66	563.72
647.01	560.88
647.35	558.20
647.69	555.75
648.04	553.20
648.38	550.46
648.72	547.58
649.06	544.60
649.41	541.70
649.75	538.73
650.09	535.71
650.43	533.07
650.78	530.08
651.12	527.33
651.46	524.62
651.80	522.02
652.14	519.34
652.49	516.88
652.83	514.52
653.17	512.00
653.51	509.22
653.85	506.57
654.20	504.03
654.54	501.07
654.88	498.30
655.22	495.54
655.56	493.02
655.90	490.71
656.25	488.41
656.59	485.72
656.93	483.41
657.27	481.04
657.61	478.52
657.95	476.40
658.29	474.25
658.64	471.93
658.98	469.33
659.32	466.79
659.66	464.48
660.00	462.02
660.34	459.79
660.68	457.53
661.02	455.22
661.36	452.99
661.70	451.15
662.05	449.18
662.39	447.21
662.73	445.26
663.07	443.27
663.41	441.33
663.75	439.49
664.09	437.52
664.43	435.67
664.77	433.95
665.11	432.03
665.45	430.06
665.79	428.28
666.13	426.50
666.47	424.82
666.81	422.69
667.15	420.83
667.49	418.93
667.83	417.34
668.17	415.63
668.51	413.93
668.85	412.05
669.19	410.35
669.53	408.56
669.87	406.67
670.21	405.02
670.55	403.38
670.89	401.81
671.23	400.37
671.57	398.83
671.91	397.06
672.25	395.45
672.58	393.90
672.92	392.20
673.26	390.94
673.60	389.63
673.94	388.37
674.28	387.11
674.62	385.94
674.96	384.51
675.30	383.07
675.64	381.72
675.97	380.28
676.31	378.78
676.65	377.53
676.99	376.31
677.33	374.75
677.67	373.27
678.01	371.79
678.34	370.41
678.68	369.06
679.02	367.83
679.36	366.67
679.70	365.32
680.04	364.05
680.37	362.53
680.71	361.06
681.05	359.85
681.39	358.50
681.73	357.19
682.06	355.87
682.40	354.75
682.74	353.51
683.08	352.58
683.42	351.34
683.75	350.14
684.09	348.83
684.43	347.85
684.77	346.74
685.10	345.70
685.44	344.38
685.78	343.21
686.12	342.01
686.45	340.69
686.79	339.52
687.13	338.36
687.46	337.21
687.80	336.12
688.14	334.95
688.48	333.83
688.81	332.61
689.15	331.51
689.49	330.40
689.82	329.29
690.16	328.08
690.50	327.05
690.83	325.96
691.17	324.87
691.51	323.56
691.84	322.53
692.18	321.49
692.52	320.47
692.85	319.35
693.19	318.36
693.52	317.44
693.86	316.48
694.20	315.62
694.53	314.67
694.87	313.68
695.21	312.74
695.54	311.81
695.88	310.93
696.21	310.00
696.55	309.16
696.88	308.35
697.22	307.45
697.56	306.70
697.89	305.88
698.23	305.02
698.56	304.38
698.90	303.50
699.23	302.51
699.57	301.74
699.90	300.93
700.24	300.10
700.58	299.32
700.91	298.57
701.25	297.77
701.58	297.06
701.92	296.33
702.25	295.58
702.59	294.81
702.92	294.15
703.26	293.52
703.59	292.74
703.93	292.27
704.26	291.64
704.60	290.90
704.93	290.14
705.26	289.54
705.60	288.92
705.93	288.31
706.27	287.86
706.60	287.40
706.94	286.89
707.27	286.21
707.61	285.64
707.94	285.04
708.27	284.42
708.61	283.77
708.94	283.34
709.28	282.79
709.61	282.35
709.94	281.80
710.28	281.22
710.61	280.70
710.95	279.85
711.28	279.38
711.61	278.81
711.95	278.34
712.28	277.80
712.61	277.16
712.95	276.64
713.28	276.24
713.61	275.56
713.95	274.97
714.28	274.59
714.61	274.01
714.95	273.56
715.28	272.98
715.61	272.49
715.95	271.94
716.28	271.54
716.61	270.83
716.95	270.35
717.28	269.89
717.61	269.50
717.94	269.13
718.28	268.56
718.61	268.16
718.94	267.71
719.27	267.24
719.61	266.80
719.94	266.45
720.27	265.88
720.60	265.60
720.94	265.23
721.27	264.83
721.60	264.48
721.93	264.07
722.27	263.80
722.60	263.45
722.93	263.04
723.26	262.66
723.59	262.51
723.93	262.25
724.26	261.88
724.59	261.42
724.92	261.08
725.25	260.73
725.59	260.29
725.92	259.98
726.25	259.75
726.58	259.56
726.91	259.11
727.24	258.76
727.57	258.34
727.91	257.99
728.24	257.77
728.57	257.47
728.90	257.09
729.23	256.75
729.56	256.57
729.89	256.25
730.22	255.94
730.55	255.57
730.89	255.19
731.22	254.90
731.55	254.69
731.88	254.38
732.21	254.10
732.54	253.83
732.87	253.54
733.20	253.15
733.53	252.86
733.86	252.71
734.19	252.58
734.52	252.37
734.85	252.32
735.18	251.98
735.51	251.83
735.84	251.67
736.17	251.45
736.50	251.08
736.83	251.07
737.16	250.87
737.49	250.62
737.82	250.43
738.15	250.32
738.48	250.00
738.81	249.85
739.14	249.62
739.47	249.53
739.80	249.46
740.13	249.32
740.46	249.13
740.79	248.77
741.12	248.51
741.45	248.25
741.78	247.92
742.11	247.79
742.44	247.43
742.77	247.32
743.10	247.15
743.43	247.03
743.75	246.72
744.08	246.85
744.41	246.69
744.74	246.50
745.07	246.20
745.40	246.17
745.73	246.08
746.06	246.10
746.39	245.93
746.71	245.61
747.04	245.52
747.37	245.29
747.70	245.24
748.03	245.09
748.36	245.08
748.68	244.96
749.01	244.71
749.34	244.61
749.67	244.50
750.00	244.37
750.33	244.28
750.65	244.11
750.98	243.75
751.31	243.60
751.64	243.51
751.97	243.49
752.29	243.28
752.62	243.00
752.95	242.81
753.28	242.53
753.60	242.49
753.93	242.37
754.26	242.22
754.59	242.13
754.91	241.94
755.24	241.72
755.57	241.54
755.90	241.39
756.22	241.28
756.55	241.10
756.88	240.89
757.20	240.68
757.53	240.42
757.86	240.15
758.19	239.99
758.51	239.76
758.84	239.43
759.17	239.30
759.49	239.16
759.82	239.09
760.15	239.13
760.47	238.97
760.80	238.75
761.13	238.59
761.45	238.34
761.78	238.21
762.11	238.02
762.43	237.89
762.76	237.73
763.08	237.57
763.41	237.42
763.74	237.27
764.06	237.18
764.39	237.13
764.71	237.02
765.04	236.92
765.37	236.80
765.69	236.78
766.02	236.67
766.34	236.55
766.67	236.28
767.00	236.03
767.32	235.90
767.65	236.01
767.97	235.97
768.30	235.87
768.62	235.77
768.95	235.75
769.27	235.60
769.60	235.63
769.92	235.60
770.25	235.47
770.57	235.43
770.90	235.31
771.22	235.21
771.55	235.22
771.87	235.20
772.20	235.19
772.52	235.19
772.85	235.34
773.17	235.38
773.50	235.31
773.82	235.20
774.15	235.07
774.47	234.76
774.80	234.69
775.12	234.58
775.45	234.56
775.77	234.48
776.09	234.60
776.42	234.45
776.74	234.43
777.07	234.40
777.39	234.27
777.72	234.10
778.04	234.05
778.36	233.95
778.69	233.84
779.01	233.72
779.33	233.49
779.66	233.19
779.98	233.12
780.31	233.19
780.63	233.32
780.95	233.36
781.28	233.34
781.60	233.15
781.92	233.20
782.25	233.12
782.57	233.06
782.89	232.88
783.22	232.91
783.54	232.75
783.86	232.65
784.19	232.72
784.51	232.90
784.83	232.90
785.16	232.81
785.48	232.80
785.80	232.95
786.12	233.10
786.45	233.17
786.77	233.09
787.09	233.07
787.42	233.00
787.74	232.96
788.06	232.92
788.38	233.03
788.71	233.05
789.03	232.97
789.35	233.02
789.67	233.02
789.99	232.96
790.32	233.05
790.64	233.09
790.96	233.24
791.28	233.10
791.61	233.10
791.93	233.13
792.25	233.13
792.57	233.18
792.89	233.10
793.21	233.12
793.54	233.00
793.86	232.90
794.18	232.85
794.50	232.83
794.82	232.80
795.14	232.81
795.47	232.82
795.79	232.90
796.11	232.80
796.43	232.79
796.75	232.82
797.07	232.72
797.39	232.80
797.71	232.54
798.04	232.57
798.36	232.50
798.68	232.53
799.00	232.52
799.32	232.36
799.64	232.35
799.96	232.24
800.28	232.34
800.60	232.34
800.92	232.40
801.24	232.37
801.56	232.46
801.89	232.33
802.21	232.30
802.53	232.10
802.85	232.14
803.17	232.09
803.49	232.00
803.81	231.95
804.13	231.90
804.45	231.89
804.77	231.83
805.09	231.80
805.41	231.67
805.73	231.58
806.05	231.44
806.37	231.26
806.69	231.30
807.01	231.12
807.33	231.00
807.65	230.81
807.97	230.77
808.28	230.70
808.60	230.71
808.92	230.60
809.24	230.75
809.56	230.60
809.88	230.52
810.20	230.41
810.52	230.45
810.84	230.20
811.16	230.13
811.48	230.02
811.80	229.99
812.12	229.89
812.43	229.84
812.75	229.79
813.07	229.82
813.39	229.70
813.71	229.71
814.03	229.74
814.35	229.75
814.67	229.71
814.98	229.64
815.30	229.59
815.62	229.55
815.94	229.43
816.26	229.50
816.58	229.48
816.89	229.43
817.21	229.31
817.53	229.43
817.85	229.41
818.17	229.35
818.48	229.34
818.80	229.43
819.12	229.36
819.44	229.37
819.76	229.24
820.07	229.24
820.39	229.24
820.71	229.24
821.03	229.25
821.34	229.16
821.66	229.19
821.98	229.22
822.30	229.19
822.61	229.21
822.93	229.15
823.25	229.22
823.57	229.32
823.88	229.32
824.20	229.26
824.52	229.31
824.83	229.47
825.15	229.40
825.47	229.40
825.79	229.41
826.10	229.41
826.42	229.46
826.74	229.41
827.05	229.31
827.37	229.33
827.69	229.31
828.00	229.42
828.32	229.47
828.64	229.57
828.95	229.57
829.27	229.52
829.58	229.61
829.90	229.62
830.22	229.63
830.53	229.73
830.85	229.67
831.17	229.63
831.48	229.57
831.80	229.70
832.11	229.74
832.43	229.89
832.75	229.93
833.06	230.04
833.38	230.00
833.69	230.12
834.01	230.17
834.32	230.19
834.64	230.17
834.96	230.03
835.27	229.90
835.59	229.97
835.90	230.06
836.22	230.01
836.53	230.02
836.85	230.10
837.16	230.29
837.48	230.36
837.79	230.39
838.11	230.42
838.42	230.40
838.74	230.31
839.05	230.08
839.37	230.12
839.68	230.12
840.00	230.15
840.31	230.12
840.63	230.03
840.94	229.99
841.26	229.95
841.57	229.99
841.88	230.05
842.20	230.00
842.51	229.83
842.83	229.78
843.14	229.86
843.46	229.71
843.77	229.51
844.08	229.48
844.40	229.43
844.71	229.36
845.03	229.31
845.34	229.31
845.65	229.43
845.97	229.41
846.28	229.29
846.60	229.37
846.91	229.27
847.22	229.29
847.54	229.35
847.85	229.34
848.16	229.30
848.48	229.21
848.79	229.39
849.10	229.50
849.42	229.48
849.73	229.27
850.04	229.22
850.36	229.08
850.67	229.14
850.98	229.12
851.30	229.08
851.61	228.99
851.92	229.00
852.23	229.01
852.55	229.11
852.86	229.18
853.17	229.07
853.49	229.16
853.80	229.05
854.11	228.95
854.42	229.03
854.74	228.96
855.05	228.88
855.36	228.64
855.67	228.54
855.99	228.58
856.30	228.82
856.61	228.94
856.92	228.93
857.23	228.96
857.55	228.98
857.86	228.92
858.17	228.93
858.48	228.94
858.79	228.86
859.11	228.70
859.42	228.61
859.73	228.62
860.04	228.59
860.35	228.63
860.66	228.61
860.98	228.54
861.29	228.62
861.60	228.72
861.91	228.83
862.22	228.88
862.53	228.90
862.84	228.80
863.16	228.84
863.47	228.87
863.78	228.86
864.09	228.81
864.40	228.96
864.71	228.98
865.02	228.90
865.33	228.86
865.64	228.78
865.95	228.85
866.27	229.10
866.58	229.20
866.89	229.20
867.20	229.24
867.51	229.20
867.82	229.15
868.13	229.19
868.44	229.22
868.75	229.25
869.06	229.17
869.37	229.19
869.68	229.10
869.99	229.18
870.30	229.10
870.61	229.20
870.92	229.15
871.23	229.17
871.54	229.21
871.85	229.35
872.16	229.51
872.47	229.50
872.78	229.31
873.09	229.20
873.40	229.16
873.71	229.15
874.02	229.26
874.33	229.22
874.64	229.19
874.95	229.11
875.26	229.12
875.56	229.17
875.87	229.18
876.18	229.21
876.49	229.38
876.80	229.43
877.11	229.30
877.42	229.37
877.73	229.43
878.04	229.40
878.35	229.32
878.66	229.31
878.96	229.29
879.27	229.26
879.58	229.27
879.89	229.34
880.20	229.38
880.51	229.26
880.82	229.29
881.12	229.25
881.43	229.24
881.74	229.14
882.05	229.10
882.36	229.01
882.67	229.03
882.97	228.79
883.28	228.73
883.59	228.85
883.90	228.86
884.21	228.89
884.51	228.93
884.82	228.94
885.13	228.85
885.44	228.87
885.74	228.92
886.05	228.96
886.36	228.98
886.67	228.76
886.98	228.78
887.28	228.81
887.59	228.78
887.90	228.81
888.20	228.86
888.51	228.90
888.82	228.78
889.13	228.70
889.43	228.80
889.74	228.87
890.05	228.78
890.35	228.67
890.66	228.59
890.97	228.53
891.28	228.53
891.58	228.50
891.89	228.57
892.20	228.42
892.50	228.31
892.81	228.21
893.12	228.33
893.42	228.38
893.73	228.37
894.04	228.40
894.34	228.30
894.65	228.24
894.95	228.18
895.26	228.23
895.57	228.24
895.87	228.13
896.18	228.15
896.48	228.06
896.79	228.08
897.10	228.15
897.40	228.15
897.71	228.07
898.01	228.16
898.32	228.16
898.63	228.24
898.93	228.32
899.24	228.39
899.54	228.45
899.85	228.48
900.15	228.46
900.46	228.51
900.76	228.66
901.07	228.71
901.38	228.80
901.68	228.92
901.99	228.85
902.29	228.91
902.60	228.75
902.90	228.82
903.21	228.74
903.51	228.70
903.82	228.76
904.12	228.85
904.43	228.77
904.73	228.68
905.03	228.60
905.34	228.78
905.64	228.74
905.95	228.66
906.25	228.59
906.56	228.66
906.86	228.63
907.17	228.59
907.47	228.56
907.77	228.59
908.08	228.40
908.38	228.44
908.69	228.39
908.99	228.45
909.30	228.50
909.60	228.56
909.90	228.48
910.21	228.40
910.51	228.38
910.81	228.41
911.12	228.44
911.42	228.49
911.73	228.32
912.03	228.34
912.33	228.40
912.64	228.38
912.94	228.30
913.24	228.26
913.55	228.20
913.85	228.20
914.15	228.12
914.46	228.14
914.76	228.19
915.06	228.24
915.37	228.25
915.67	228.13
915.97	228.10
916.27	228.15
916.58	228.20
916.88	228.13
917.18	228.11
917.49	228.21
917.79	228.22
918.09	228.15
918.39	228.15
918.70	228.13
919.00	228.18
919.30	228.26
919.60	228.27
919.91	228.23
920.21	228.22
920.51	228.15
920.81	228.21
921.12	228.16
921.42	228.13
921.72	228.10
922.02	228.22
922.32	228.24
922.63	228.15
922.93	228.23
923.23	228.20
923.53	228.16
923.83	228.06
924.13	228.01
924.44	228.03
924.74	228.03
925.04	228.00
925.34	227.87
925.64	227.77
925.94	227.79
926.24	227.92
926.55	227.93
926.85	228.01
927.15	228.01
927.45	228.08
927.75	228.00
928.05	228.06
928.35	227.94
928.65	228.02
928.95	228.04
929.26	227.94
929.56	228.03
929.86	228.08
930.16	228.10
930.46	228.14
930.76	228.08
931.06	228.08
931.36	228.02
931.66	228.00
931.96	228.08
932.26	228.08
932.56	227.96
932.86	227.96
933.16	227.97
933.46	227.99
933.76	227.90
934.06	227.98
934.36	227.99
934.66	228.04
934.96	228.02
935.26	228.09
935.56	228.13
935.86	228.19
936.16	228.15
936.46	228.08
936.76	228.04
937.06	228.20
937.36	228.23
937.66	228.35
937.96	228.45
938.26	228.42
938.56	228.43
938.86	228.40
939.16	228.50
939.46	228.63
939.76	228.59
940.06	228.64
940.35	228.64
940.65	228.58
940.95	228.62
941.25	228.63
941.55	228.66
941.85	228.66
942.15	228.66
942.45	228.75
942.75	228.75
943.04	228.86
943.34	228.89
943.64	228.90
943.94	228.92
944.24	228.91
944.54	228.89
944.84	228.90
945.13	228.87
945.43	228.83
945.73	228.72
946.03	228.73
946.33	228.73
946.62	228.64
946.92	228.71
947.22	228.74
947.52	228.67
947.82	228.68
948.11	228.64
948.41	228.57
948.71	228.56
949.01	228.58
949.31	228.53
949.60	228.56
949.90	228.57
950.20	228.54
950.50	228.61
950.79	228.56
951.09	228.54
951.39	228.51
951.69	228.40
951.98	228.44
952.28	228.49
952.58	228.47
952.87	228.53
953.17	228.47
953.47	228.43
953.76	228.55
954.06	228.49
954.36	228.47
954.66	228.44
954.95	228.39
955.25	228.45
955.55	228.30
955.84	228.16
956.14	228.10
956.44	228.06
956.73	227.85
957.03	227.93
957.32	227.89
957.62	227.91
957.92	228.02
958.21	227.91
958.51	228.02
958.81	228.10
959.10	228.09
959.40	228.17
959.69	228.07
959.99	228.01
960.29	227.95
960.58	227.96
960.88	228.00
961.17	228.02
961.47	228.00
961.76	227.99
962.06	227.97
962.36	227.94
962.65	227.97
962.95	228.13
963.24	228.10
963.54	228.17
963.83	228.20
964.13	228.18
964.42	228.14
964.72	228.02
965.01	227.93
965.31	227.95
965.60	227.79
965.90	227.91
966.19	227.93
966.49	227.94
966.78	227.95
967.08	228.03
967.37	228.08
967.67	227.98
967.96	228.16
968.26	228.20
968.55	228.35
968.85	228.36
969.14	228.25
969.43	228.24
969.73	228.20
970.02	228.25
970.32	228.21
970.61	228.30
970.91	228.24
971.20	228.29
971.49	228.23
971.79	228.30
972.08	228.26
972.38	228.19
972.67	228.26
972.96	228.19
973.26	228.09
973.55	228.15
973.85	228.22
974.14	228.17
974.43	228.17
974.73	228.00
975.02	228.05
975.31	228.03
975.61	228.02
975.90	227.93
976.19	227.85
976.49	227.86
976.78	227.84
977.07	227.76
977.37	227.71
977.66	227.69
977.95	227.67
978.24	227.62
978.54	227.68
978.83	227.70
979.12	227.70
979.42	227.67
979.71	227.61
980.00	227.60
980.29	227.56
980.59	227.61
980.88	227.66
981.17	227.60
981.46	227.73
981.76	227.79
982.05	227.91
982.34	228.03
982.63	228.09
982.93	228.07
983.22	228.21
983.51	228.29
983.80	228.42
984.09	228.50
984.39	228.57
984.68	228.60
984.97	228.60
985.26	228.70
985.55	228.71
985.85	228.65
986.14	228.69
986.43	228.80
986.72	228.71
987.01	228.68
987.30	228.71
987.59	228.66
987.89	228.66
988.18	228.60
988.47	228.54
988.76	228.46
989.05	228.44
989.34	228.39
989.63	228.44
989.92	228.32
990.22	228.24
990.51	228.20
990.80	228.14
991.09	228.10
991.38	228.03
991.67	228.08
991.96	228.05
992.25	228.00
992.54	227.94
992.83	228.05
993.12	228.15
993.41	228.27
993.70	228.34
993.99	228.42
994.28	228.53
994.58	228.51
994.87	228.46
995.16	228.48
995.45	228.61
995.74	228.51
996.03	228.59
996.32	228.60
996.61	228.61
996.90	228.66
997.19	228.64
997.48	228.70
997.77	228.74
998.06	228.76
998.34	228.80
998.63	228.73
998.92	228.68
999.21	228.62
999.50	228.54
999.79	228.45
1000.08	228.35
1000.37	228.35
1000.66	228.43
1000.95	228.52
1001.24	228.57
1001.53	228.48
1001.82	228.52
1002.11	228.40
1002.40	228.46
1002.68	228.60
1002.97	228.68
1003.26	228.72
1003.55	228.70
1003.84	228.66
1004.13	228.77
1004.42	228.81
1004.71	228.86
1004.99	228.85
1005.28	228.96
1005.57	228.94
1005.86	229.02
1006.15	229.04
1006.44	228.92
1006.72	228.80
1007.01	228.73
1007.30	228.72
1007.59	228.67
1007.88	228.66
1008.17	228.78
1008.45	228.79
1008.74	228.59
1009.03	228.51
1009.32	228.44
1009.60	228.46
1009.89	228.43
1010.18	228.37
1010.47	228.30
1010.76	228.23
1011.04	228.17
1011.33	228.12
1011.62	228.14
1011.91	228.08
1012.19	228.04
1012.48	228.08
1012.77	228.20
1013.05	228.33
1013.34	228.30
1013.63	228.37
1013.92	228.40
1014.20	228.31
1014.49	228.27
1014.78	228.37
1015.06	228.42
1015.35	228.40
1015.64	228.38
1015.92	228.38
1016.21	228.38
1016.50	228.45
1016.78	228.54
1017.07	228.56
1017.36	228.55
1017.64	228.43
1017.93	228.44
1018.22	228.49
1018.50	228.44
1018.79	228.39
1019.08	228.27
1019.36	228.33
1019.65	228.27
1019.93	228.25
1020.22	228.32
1020.51	228.46
1020.79	228.39
1021.08	228.60
1021.36	227.20
1021.65	228.80
1021.94	227.60
1022.22	228.70
1022.51	228.00
1022.79	228.70
1023.08	228.70
1023.36	231.10
1023.65	227.20
>>>>>End Processed Spectral Data<<<<<
