SpectraSuite Data File
++++++++++++++++++++++++++++++++++++
Date: Fri Feb 01 14:36:54 EST 2013
User: group
Dark Spectrum Present: No
Reference Spectrum Present: No
Number of Sampled Component Spectra: 1
Spectrometers: USB2E7196
Integration Time (usec): 70000 (USB2E7196)
Spectra Averaged: 10 (USB2E7196)
Boxcar Smoothing: 10 (USB2E7196)
Correct for Electrical Dark: No (USB2E7196)
Strobe/Lamp Enabled: No (USB2E7196)
Correct for Detector Non-linearity: No (USB2E7196)
Correct for Stray Light: No (USB2E7196)
Number of Pixels in Processed Spectrum: 2048
>>>>>Begin Processed Spectral Data<<<<<
339.09	0.00
339.48	216.80
339.86	217.10
340.24	221.60
340.63	220.60
341.01	224.00
341.39	222.00
341.78	223.50
342.16	226.80
342.54	226.90
342.93	215.00
343.31	225.89
343.69	226.37
344.07	226.90
344.46	227.22
344.84	227.66
345.22	227.82
345.60	228.05
345.99	228.31
346.37	228.43
346.75	228.49
347.13	228.51
347.52	228.62
347.90	228.67
348.28	228.55
348.66	228.50
349.05	228.45
349.43	228.44
349.81	228.54
350.19	228.51
350.57	228.59
350.96	228.65
351.34	228.70
351.72	228.77
352.10	228.86
352.48	229.00
352.87	228.97
353.25	229.11
353.63	229.24
354.01	229.32
354.39	229.31
354.77	229.35
355.15	229.64
355.54	229.55
355.92	229.53
356.30	229.56
356.68	229.78
357.06	229.90
357.44	229.89
357.82	229.88
358.20	229.88
358.58	229.92
358.97	229.90
359.35	229.91
359.73	229.95
360.11	229.87
360.49	229.87
360.87	229.91
361.25	229.89
361.63	229.94
362.01	229.83
362.39	229.89
362.77	229.87
363.15	229.74
363.53	229.87
363.91	229.90
364.29	229.97
364.67	229.88
365.05	229.80
365.43	229.85
365.81	229.86
366.19	230.08
366.57	230.15
366.95	230.16
367.33	230.05
367.71	230.10
368.09	230.14
368.47	230.02
368.85	229.89
369.23	229.96
369.61	229.81
369.99	229.93
370.37	229.83
370.75	229.96
371.13	229.85
371.51	229.75
371.89	229.82
372.27	229.81
372.65	229.72
373.03	229.75
373.41	229.68
373.78	229.60
374.16	229.33
374.54	229.15
374.92	229.07
375.30	229.12
375.68	228.94
376.06	228.81
376.44	228.79
376.82	228.82
377.19	228.74
377.57	228.75
377.95	228.66
378.33	228.50
378.71	228.23
379.09	228.28
379.47	228.14
379.84	228.04
380.22	227.93
380.60	227.83
380.98	227.72
381.36	227.66
381.73	227.53
382.11	227.45
382.49	227.38
382.87	227.29
383.25	227.20
383.62	227.38
384.00	227.35
384.38	227.27
384.76	227.25
385.13	227.18
385.51	227.16
385.89	226.97
386.27	227.08
386.64	227.18
387.02	227.15
387.40	227.10
387.78	226.94
388.15	226.91
388.53	226.89
388.91	226.81
389.29	226.70
389.66	226.81
390.04	226.80
390.42	226.84
390.79	226.77
391.17	226.77
391.55	226.59
391.92	226.56
392.30	226.59
392.68	226.50
393.05	226.57
393.43	226.47
393.81	226.52
394.18	226.51
394.56	226.54
394.94	226.52
395.31	226.58
395.69	226.69
396.06	226.73
396.44	226.74
396.82	226.77
397.19	226.93
397.57	226.90
397.95	227.01
398.32	226.96
398.70	227.11
399.07	227.23
399.45	227.35
399.82	227.40
400.20	227.40
400.58	227.60
400.95	227.58
401.33	227.85
401.70	228.05
402.08	228.20
402.45	228.30
402.83	228.44
403.20	228.61
403.58	228.72
403.95	228.89
404.33	229.14
404.71	229.39
405.08	229.74
405.46	229.93
405.83	230.10
406.21	230.38
406.58	230.62
406.96	230.91
407.33	231.07
407.70	231.55
408.08	232.11
408.45	232.39
408.83	232.81
409.20	233.10
409.58	233.40
409.95	233.80
410.33	234.33
410.70	234.80
411.08	235.29
411.45	235.85
411.82	236.30
412.20	236.82
412.57	237.55
412.95	237.97
413.32	238.66
413.69	239.52
414.07	240.30
414.44	241.12
414.82	241.90
415.19	242.92
415.56	243.88
415.94	244.82
416.31	246.03
416.68	247.22
417.06	248.46
417.43	249.80
417.81	251.30
418.18	252.62
418.55	254.10
418.93	255.62
419.30	257.13
419.67	258.88
420.04	260.76
420.42	262.57
420.79	264.89
421.16	267.09
421.54	269.32
421.91	271.70
422.28	274.15
422.66	276.82
423.03	279.35
423.40	281.97
423.77	284.69
424.15	287.51
424.52	290.34
424.89	293.57
425.26	296.70
425.64	299.57
426.01	302.87
426.38	306.30
426.75	309.84
427.13	313.63
427.50	317.39
427.87	321.26
428.24	325.10
428.61	328.72
428.99	332.88
429.36	337.22
429.73	341.54
430.10	345.84
430.47	350.11
430.85	354.69
431.22	359.31
431.59	364.45
431.96	369.36
432.33	374.70
432.70	379.93
433.08	385.81
433.45	391.40
433.82	397.05
434.19	403.51
434.56	409.79
434.93	415.65
435.30	421.49
435.68	427.83
436.05	434.25
436.42	440.43
436.79	446.22
437.16	452.31
437.53	458.81
437.90	465.26
438.27	471.62
438.64	478.29
439.01	484.33
439.38	489.70
439.75	494.69
440.13	500.73
440.50	506.39
440.87	511.27
441.24	516.33
441.61	521.70
441.98	525.64
442.35	530.21
442.72	534.98
443.09	539.77
443.46	542.81
443.83	544.91
444.20	546.93
444.57	549.71
444.94	551.32
445.31	552.94
445.68	554.54
446.05	555.54
446.42	555.62
446.79	555.71
447.16	555.38
447.53	555.79
447.90	554.13
448.27	552.42
448.64	549.70
449.01	547.83
449.37	544.37
449.74	540.83
450.11	536.63
450.48	531.81
450.85	526.90
451.22	522.89
451.59	518.99
451.96	515.40
452.33	509.91
452.70	505.13
453.07	499.35
453.43	493.52
453.80	487.93
454.17	482.17
454.54	477.05
454.91	471.66
455.28	465.99
455.65	460.77
456.02	455.48
456.38	450.76
456.75	445.14
457.12	440.30
457.49	435.53
457.86	430.97
458.23	427.04
458.59	422.60
458.96	418.11
459.33	414.18
459.70	410.05
460.07	406.85
460.43	403.09
460.80	399.52
461.17	396.33
461.54	392.97
461.91	389.92
462.27	386.59
462.64	383.75
463.01	380.66
463.38	377.72
463.74	374.87
464.11	372.40
464.48	370.20
464.85	367.66
465.21	365.71
465.58	363.44
465.95	360.91
466.32	358.82
466.68	356.62
467.05	354.56
467.42	352.50
467.78	350.37
468.15	348.44
468.52	346.99
468.88	344.97
469.25	343.18
469.62	341.62
469.98	340.08
470.35	338.50
470.72	337.19
471.08	335.63
471.45	334.25
471.82	332.94
472.18	331.40
472.55	330.26
472.92	328.98
473.28	327.87
473.65	326.67
474.02	325.55
474.38	324.62
474.75	323.73
475.11	322.74
475.48	321.94
475.85	321.17
476.21	320.41
476.58	319.76
476.94	319.29
477.31	318.70
477.67	318.04
478.04	317.51
478.41	316.97
478.77	316.71
479.14	316.09
479.50	315.76
479.87	315.68
480.23	315.55
480.60	315.24
480.96	315.13
481.33	315.12
481.69	315.15
482.06	315.04
482.42	314.93
482.79	314.83
483.15	315.01
483.52	315.23
483.88	315.21
484.25	315.40
484.61	315.39
484.98	315.53
485.34	315.85
485.71	316.35
486.07	316.67
486.44	316.91
486.80	317.47
487.17	317.90
487.53	318.34
487.90	318.86
488.26	319.44
488.62	319.96
488.99	320.49
489.35	321.13
489.72	321.79
490.08	322.50
490.44	323.18
490.81	323.91
491.17	324.70
491.54	325.55
491.90	326.21
492.26	327.24
492.63	328.19
492.99	329.09
493.36	329.85
493.72	330.80
494.08	331.67
494.45	332.74
494.81	333.70
495.17	334.60
495.54	335.60
495.90	336.79
496.26	337.81
496.63	338.86
496.99	339.84
497.35	340.90
497.72	342.07
498.08	343.18
498.44	344.20
498.80	345.34
499.17	346.48
499.53	347.71
499.89	348.69
500.26	349.71
500.62	350.87
500.98	352.17
501.34	353.25
501.71	354.31
502.07	355.23
502.43	356.19
502.79	357.19
503.16	358.06
503.52	358.68
503.88	359.40
504.24	360.32
504.60	361.20
504.97	362.14
505.33	362.88
505.69	363.74
506.05	364.51
506.41	364.99
506.78	365.59
507.14	366.09
507.50	366.66
507.86	367.40
508.22	367.83
508.59	368.24
508.95	368.66
509.31	369.37
509.67	369.88
510.03	370.39
510.39	370.73
510.75	371.03
511.12	371.45
511.48	371.76
511.84	372.10
512.20	372.33
512.56	372.39
512.92	372.60
513.28	372.93
513.64	373.12
514.00	373.29
514.37	373.38
514.73	373.65
515.09	373.81
515.45	373.82
515.81	373.83
516.17	373.79
516.53	373.93
516.89	373.68
517.25	373.65
517.61	373.78
517.97	373.84
518.33	373.92
518.69	374.15
519.05	374.33
519.41	374.42
519.77	374.67
520.13	375.05
520.49	375.17
520.85	375.29
521.21	375.60
521.57	376.00
521.93	376.51
522.29	376.80
522.65	377.07
523.01	377.40
523.37	378.01
523.73	378.69
524.09	379.23
524.45	380.01
524.81	380.73
525.17	381.45
525.53	382.36
525.89	383.28
526.25	384.20
526.61	385.27
526.97	386.48
527.33	387.52
527.68	388.70
528.04	390.02
528.40	391.28
528.76	392.65
529.12	394.09
529.48	395.48
529.84	397.06
530.20	398.90
530.56	400.86
530.91	402.86
531.27	404.73
531.63	406.71
531.99	408.70
532.35	410.71
532.71	412.60
533.07	414.82
533.42	417.39
533.78	419.72
534.14	422.24
534.50	424.60
534.86	427.23
535.21	429.76
535.57	432.63
535.93	435.52
536.29	438.34
536.65	441.24
537.00	444.20
537.36	447.50
537.72	450.59
538.08	453.54
538.44	456.62
538.79	459.92
539.15	463.22
539.51	466.73
539.87	470.50
540.22	474.34
540.58	478.18
540.94	481.61
541.29	485.35
541.65	488.95
542.01	492.71
542.37	496.61
542.72	500.56
543.08	504.39
543.44	508.31
543.79	512.10
544.15	516.20
544.51	520.48
544.87	524.48
545.22	528.61
545.58	532.88
545.94	536.85
546.29	540.89
546.65	545.14
547.01	549.39
547.36	553.42
547.72	557.48
548.07	561.73
548.43	565.75
548.79	569.91
549.14	574.24
549.50	578.50
549.86	582.45
550.21	586.56
550.57	590.80
550.92	595.08
551.28	599.67
551.64	604.08
551.99	608.29
552.35	612.52
552.70	616.85
553.06	621.29
553.41	625.63
553.77	630.21
554.13	634.57
554.48	638.96
554.84	643.26
555.19	647.65
555.55	651.86
555.90	656.47
556.26	660.70
556.61	664.87
556.97	669.02
557.32	673.60
557.68	678.06
558.03	682.47
558.39	686.79
558.74	691.01
559.10	695.28
559.45	699.29
559.81	703.47
560.16	707.71
560.52	711.86
560.87	716.24
561.23	720.20
561.58	724.43
561.94	728.40
562.29	732.40
562.64	736.52
563.00	740.47
563.35	744.43
563.71	748.76
564.06	753.04
564.42	757.21
564.77	761.13
565.12	765.10
565.48	769.08
565.83	773.05
566.19	776.90
566.54	780.70
566.89	784.56
567.25	788.33
567.60	792.25
567.96	795.87
568.31	799.46
568.66	803.03
569.02	806.25
569.37	809.71
569.72	813.04
570.08	816.05
570.43	819.18
570.78	822.28
571.14	824.83
571.49	827.59
571.84	830.62
572.20	833.31
572.55	835.74
572.90	838.16
573.26	840.69
573.61	842.78
573.96	845.05
574.31	847.06
574.67	848.98
575.02	850.59
575.37	852.45
575.72	854.05
576.08	855.70
576.43	857.42
576.78	858.90
577.13	860.76
577.49	862.34
577.84	863.76
578.19	864.98
578.54	866.09
578.90	867.44
579.25	868.32
579.60	869.31
579.95	870.42
580.30	871.32
580.66	871.91
581.01	872.73
581.36	873.46
581.71	874.44
582.06	875.58
582.42	876.28
582.77	876.64
583.12	877.41
583.47	878.06
583.82	878.50
584.17	878.74
584.53	879.04
584.88	879.33
585.23	879.64
585.58	880.13
585.93	880.80
586.28	880.89
586.63	881.10
586.98	881.47
587.34	881.62
587.69	881.62
588.04	881.68
588.39	882.03
588.74	881.33
589.09	881.07
589.44	880.53
589.79	880.42
590.14	880.48
590.49	879.84
590.84	879.43
591.19	879.25
591.54	878.65
591.89	877.43
592.25	876.76
592.60	875.87
592.95	874.73
593.30	873.58
593.65	872.52
594.00	871.35
594.35	870.71
594.70	869.44
595.05	868.41
595.40	867.20
595.75	865.83
596.10	865.11
596.45	864.28
596.80	863.43
597.15	862.32
597.50	861.15
597.85	860.13
598.19	859.05
598.54	857.81
598.89	857.03
599.24	856.27
599.59	855.10
599.94	854.00
600.29	853.00
600.64	852.11
600.99	850.61
601.34	849.65
601.69	847.91
602.04	846.60
602.39	845.37
602.74	844.25
603.08	843.21
603.43	842.14
603.78	840.59
604.13	838.92
604.48	837.37
604.83	836.00
605.18	834.58
605.53	832.66
605.87	830.64
606.22	828.88
606.57	827.07
606.92	825.58
607.27	824.00
607.62	822.39
607.96	820.74
608.31	819.31
608.66	817.60
609.01	815.41
609.36	813.39
609.70	810.96
610.05	808.71
610.40	806.31
610.75	803.97
611.10	801.86
611.44	799.40
611.79	797.23
612.14	794.60
612.49	791.84
612.83	789.52
613.18	787.24
613.53	784.88
613.88	782.35
614.22	779.65
614.57	776.84
614.92	774.23
615.27	771.56
615.61	768.91
615.96	766.13
616.31	763.70
616.65	761.83
617.00	759.66
617.35	757.43
617.70	754.94
618.04	752.26
618.39	749.45
618.74	747.15
619.08	744.20
619.43	741.75
619.78	739.39
620.12	736.94
620.47	734.69
620.82	732.11
621.16	729.96
621.51	727.79
621.85	725.42
622.20	722.80
622.55	720.18
622.89	717.59
623.24	715.08
623.59	712.75
623.93	710.00
624.28	707.56
624.62	704.89
624.97	702.46
625.32	700.00
625.66	697.72
626.01	695.22
626.35	692.95
626.70	690.60
627.04	688.34
627.39	685.66
627.73	682.81
628.08	680.33
628.43	677.48
628.77	674.79
629.12	672.22
629.46	669.54
629.81	666.79
630.15	664.12
630.50	661.61
630.84	658.73
631.19	655.80
631.53	652.89
631.88	649.93
632.22	646.88
632.57	644.24
632.91	641.37
633.26	638.50
633.60	635.61
633.95	632.64
634.29	629.87
634.64	627.52
634.98	625.11
635.32	622.58
635.67	620.12
636.01	617.61
636.36	615.10
636.70	612.86
637.05	610.60
637.39	608.28
637.73	605.86
638.08	603.80
638.42	601.57
638.77	599.35
639.11	597.00
639.45	594.80
639.80	592.37
640.14	590.02
640.49	587.56
640.83	585.23
641.17	582.82
641.52	580.59
641.86	577.97
642.20	575.60
642.55	572.95
642.89	570.61
643.23	567.70
643.58	565.44
643.92	562.79
644.26	560.24
644.61	558.17
644.95	555.73
645.29	552.78
645.64	550.34
645.98	547.72
646.32	545.50
646.66	543.06
647.01	540.64
647.35	538.28
647.69	536.10
648.04	533.83
648.38	531.67
648.72	528.94
649.06	526.63
649.41	524.12
649.75	521.62
650.09	519.19
650.43	517.24
650.78	514.60
651.12	512.29
651.46	510.20
651.80	507.68
652.14	505.44
652.49	503.60
652.83	501.43
653.17	499.34
653.51	497.06
653.85	494.84
654.20	492.69
654.54	490.39
654.88	487.98
655.22	485.61
655.56	483.12
655.90	481.00
656.25	478.91
656.59	476.73
656.93	474.80
657.27	472.70
657.61	470.48
657.95	468.54
658.29	466.58
658.64	464.33
658.98	462.03
659.32	459.72
659.66	457.28
660.00	455.20
660.34	452.90
660.68	450.80
661.02	448.80
661.36	446.77
661.70	444.79
662.05	442.94
662.39	441.21
662.73	439.36
663.07	437.63
663.41	435.73
663.75	433.85
664.09	431.94
664.43	430.00
664.77	428.24
665.11	426.43
665.45	424.54
665.79	422.75
666.13	420.91
666.47	419.12
666.81	417.57
667.15	415.67
667.49	414.10
667.83	412.57
668.17	410.82
668.51	409.03
668.85	407.44
669.19	405.81
669.53	404.10
669.87	402.47
670.21	400.81
670.55	399.11
670.89	397.71
671.23	396.21
671.57	394.76
671.91	393.19
672.25	391.56
672.58	390.16
672.92	388.73
673.26	387.48
673.60	386.14
673.94	384.63
674.28	383.32
674.62	381.91
674.96	380.41
675.30	379.11
675.64	377.84
675.97	376.41
676.31	375.12
676.65	373.90
676.99	372.70
677.33	371.26
677.67	369.93
678.01	368.40
678.34	367.04
678.68	365.77
679.02	364.42
679.36	363.29
679.70	361.92
680.04	360.51
680.37	359.25
680.71	357.90
681.05	356.77
681.39	355.56
681.73	354.51
682.06	353.49
682.40	352.33
682.74	351.28
683.08	350.29
683.42	349.03
683.75	347.82
684.09	346.60
684.43	345.65
684.77	344.50
685.10	343.58
685.44	342.38
685.78	341.26
686.12	340.17
686.45	339.00
686.79	337.99
687.13	337.19
687.46	336.06
687.80	335.08
688.14	333.97
688.48	332.86
688.81	331.66
689.15	330.52
689.49	329.39
689.82	328.28
690.16	327.16
690.50	326.25
690.83	325.27
691.17	324.24
691.51	323.18
691.84	322.23
692.18	321.16
692.52	320.32
692.85	319.41
693.19	318.66
693.52	317.81
693.86	316.75
694.20	315.67
694.53	314.79
694.87	313.77
695.21	312.84
695.54	312.04
695.88	311.09
696.21	310.07
696.55	309.28
696.88	308.37
697.22	307.56
697.56	306.73
697.89	305.80
698.23	304.96
698.56	304.19
698.90	303.42
699.23	302.52
699.57	301.69
699.90	300.83
700.24	299.97
700.58	299.17
700.91	298.38
701.25	297.73
701.58	297.10
701.92	296.48
702.25	295.80
702.59	295.00
702.92	294.30
703.26	293.62
703.59	293.10
703.93	292.55
704.26	292.00
704.60	291.27
704.93	290.60
705.26	290.03
705.60	289.30
705.93	288.68
706.27	288.22
706.60	287.66
706.94	287.05
707.27	286.30
707.61	285.59
707.94	285.08
708.27	284.37
708.61	283.55
708.94	282.90
709.28	282.34
709.61	281.78
709.94	281.27
710.28	280.73
710.61	279.92
710.95	279.15
711.28	278.61
711.61	278.12
711.95	277.68
712.28	277.11
712.61	276.57
712.95	276.09
713.28	275.57
713.61	275.00
713.95	274.45
714.28	274.05
714.61	273.56
714.95	273.08
715.28	272.53
715.61	272.12
715.95	271.66
716.28	271.03
716.61	270.59
716.95	270.06
717.28	269.76
717.61	269.32
717.94	268.98
718.28	268.32
718.61	267.83
718.94	267.34
719.27	266.87
719.61	266.53
719.94	266.15
720.27	265.57
720.60	265.22
720.94	264.98
721.27	264.56
721.60	264.26
721.93	263.83
722.27	263.58
722.60	263.26
722.93	262.98
723.26	262.85
723.59	262.50
723.93	262.20
724.26	261.87
724.59	261.59
724.92	261.27
725.25	261.02
725.59	260.62
725.92	260.23
726.25	259.93
726.58	259.59
726.91	259.16
727.24	258.97
727.57	258.71
727.91	258.36
728.24	258.15
728.57	257.90
728.90	257.67
729.23	257.35
729.56	257.23
729.89	257.00
730.22	256.60
730.55	256.29
730.89	256.09
731.22	255.77
731.55	255.50
731.88	255.20
732.21	254.85
732.54	254.58
732.87	254.45
733.20	254.21
733.53	254.02
733.86	253.83
734.19	253.61
734.52	253.31
734.85	253.13
735.18	252.82
735.51	252.54
735.84	252.36
736.17	252.10
736.50	251.67
736.83	251.61
737.16	251.35
737.49	251.16
737.82	250.97
738.15	250.72
738.48	250.60
738.81	250.36
739.14	250.23
739.47	250.02
739.80	249.80
740.13	249.63
740.46	249.28
740.79	249.07
741.12	248.80
741.45	248.60
741.78	248.27
742.11	248.04
742.44	247.70
742.77	247.49
743.10	247.34
743.43	247.14
743.75	246.56
744.08	246.79
744.41	246.50
744.74	246.19
745.07	245.96
745.40	245.71
745.73	245.58
746.06	245.30
746.39	245.14
746.71	244.84
747.04	244.57
747.37	244.36
747.70	244.10
748.03	243.94
748.36	243.78
748.68	243.56
749.01	243.46
749.34	243.33
749.67	243.15
750.00	242.92
750.33	242.93
750.65	242.79
750.98	242.29
751.31	242.18
751.64	242.06
751.97	241.96
752.29	241.70
752.62	241.53
752.95	241.39
753.28	241.22
753.60	241.09
753.93	240.99
754.26	240.89
754.59	240.71
754.91	240.44
755.24	240.19
755.57	240.09
755.90	239.89
756.22	239.83
756.55	239.64
756.88	239.46
757.20	239.07
757.53	239.00
757.86	238.81
758.19	238.67
758.51	238.52
758.84	238.30
759.17	238.17
759.49	238.06
759.82	237.90
760.15	237.87
760.47	237.78
760.80	237.71
761.13	237.68
761.45	237.65
761.78	237.67
762.11	237.68
762.43	237.62
762.76	237.51
763.08	237.44
763.41	237.38
763.74	237.32
764.06	237.27
764.39	237.20
764.71	237.16
765.04	237.00
765.37	236.87
765.69	236.89
766.02	236.87
766.34	236.77
766.67	236.70
767.00	236.65
767.32	236.63
767.65	236.65
767.97	236.60
768.30	236.46
768.62	236.42
768.95	236.29
769.27	236.11
769.60	236.10
769.92	235.95
770.25	235.87
770.57	235.86
770.90	235.84
771.22	235.73
771.55	235.63
771.87	235.61
772.20	235.49
772.52	235.54
772.85	235.69
773.17	235.59
773.50	235.50
773.82	235.36
774.15	235.31
774.47	235.10
774.80	234.96
775.12	234.97
775.45	234.87
775.77	234.80
776.09	234.80
776.42	234.72
776.74	234.72
777.07	234.65
777.39	234.46
777.72	234.40
778.04	234.31
778.36	234.31
778.69	234.24
779.01	234.39
779.33	234.17
779.66	233.86
779.98	233.78
780.31	233.76
780.63	233.85
780.95	233.81
781.28	233.77
781.60	233.72
781.92	233.63
782.25	233.48
782.57	233.50
782.89	233.47
783.22	233.42
783.54	233.40
783.86	233.33
784.19	233.30
784.51	233.23
784.83	233.30
785.16	233.17
785.48	233.12
785.80	233.03
786.12	233.00
786.45	232.96
786.77	232.99
787.09	232.98
787.42	232.88
787.74	232.76
788.06	232.66
788.38	232.53
788.71	232.46
789.03	232.45
789.35	232.36
789.67	232.24
789.99	232.10
790.32	231.95
790.64	231.93
790.96	232.01
791.28	232.00
791.61	231.92
791.93	231.91
792.25	231.82
792.57	231.92
792.89	231.77
793.21	231.77
793.54	231.64
793.86	231.56
794.18	231.55
794.50	231.56
794.82	231.58
795.14	231.62
795.47	231.61
795.79	231.52
796.11	231.47
796.43	231.44
796.75	231.45
797.07	231.41
797.39	231.32
797.71	231.14
798.04	231.06
798.36	231.07
798.68	231.05
799.00	231.17
799.32	231.04
799.64	231.11
799.96	231.01
800.28	231.16
800.60	231.24
800.92	231.11
801.24	230.99
801.56	230.97
801.89	230.91
802.21	230.90
802.53	230.92
802.85	230.91
803.17	230.91
803.49	230.89
803.81	230.86
804.13	230.92
804.45	230.89
804.77	230.89
805.09	230.67
805.41	230.64
805.73	230.50
806.05	230.34
806.37	230.29
806.69	230.28
807.01	230.09
807.33	229.91
807.65	229.90
807.97	229.93
808.28	229.85
808.60	229.85
808.92	229.77
809.24	230.01
809.56	230.03
809.88	230.01
810.20	229.94
810.52	229.98
810.84	229.91
811.16	229.96
811.48	229.94
811.80	230.01
812.12	229.93
812.43	229.95
812.75	230.05
813.07	230.00
813.39	230.02
813.71	230.12
814.03	230.25
814.35	230.23
814.67	230.17
814.98	230.29
815.30	230.27
815.62	230.31
815.94	230.04
816.26	230.14
816.58	230.13
816.89	230.21
817.21	230.18
817.53	230.23
817.85	230.25
818.17	230.24
818.48	230.34
818.80	230.36
819.12	230.34
819.44	230.19
819.76	230.24
820.07	230.22
820.39	230.10
820.71	230.10
821.03	230.06
821.34	230.05
821.66	230.08
821.98	230.05
822.30	230.05
822.61	230.19
822.93	230.03
823.25	230.00
823.57	229.86
823.88	229.86
824.20	229.86
824.52	229.80
824.83	229.73
825.15	229.55
825.47	229.60
825.79	229.71
826.10	229.74
826.42	229.73
826.74	229.69
827.05	229.73
827.37	229.68
827.69	229.74
828.00	229.71
828.32	229.65
828.64	229.63
828.95	229.71
829.27	229.55
829.58	229.54
829.90	229.60
830.22	229.64
830.53	229.66
830.85	229.54
831.17	229.43
831.48	229.50
831.80	229.65
832.11	229.71
832.43	229.56
832.75	229.60
833.06	229.69
833.38	229.71
833.69	229.62
834.01	229.64
834.32	229.55
834.64	229.69
834.96	229.69
835.27	229.70
835.59	229.71
835.90	229.80
836.22	229.76
836.53	229.67
836.85	229.68
837.16	229.80
837.48	229.90
837.79	230.01
838.11	230.03
838.42	230.07
838.74	229.97
839.05	229.98
839.37	229.94
839.68	229.72
840.00	229.64
840.31	229.77
840.63	229.78
840.94	229.78
841.26	229.62
841.57	229.54
841.88	229.61
842.20	229.56
842.51	229.48
842.83	229.50
843.14	229.73
843.46	229.78
843.77	229.72
844.08	229.64
844.40	229.57
844.71	229.56
845.03	229.40
845.34	229.41
845.65	229.40
845.97	229.40
846.28	229.43
846.60	229.52
846.91	229.46
847.22	229.40
847.54	229.50
847.85	229.37
848.16	229.39
848.48	229.32
848.79	229.28
849.10	229.23
849.42	229.27
849.73	229.09
850.04	228.99
850.36	228.82
850.67	228.78
850.98	228.89
851.30	228.83
851.61	228.86
851.92	228.86
852.23	228.96
852.55	228.98
852.86	228.96
853.17	229.00
853.49	229.01
853.80	229.02
854.11	229.03
854.42	229.23
854.74	229.12
855.05	229.14
855.36	229.06
855.67	229.10
855.99	229.09
856.30	229.30
856.61	229.40
856.92	229.48
857.23	229.50
857.55	229.57
857.86	229.59
858.17	229.68
858.48	229.57
858.79	229.50
859.11	229.34
859.42	229.33
859.73	229.20
860.04	229.10
860.35	229.04
860.66	228.89
860.98	228.93
861.29	229.04
861.60	228.92
861.91	228.97
862.22	228.90
862.53	228.86
862.84	228.60
863.16	228.58
863.47	228.42
863.78	228.38
864.09	228.25
864.40	228.20
864.71	228.17
865.02	228.15
865.33	228.10
865.64	228.14
865.95	228.18
866.27	228.39
866.58	228.46
866.89	228.45
867.20	228.42
867.51	228.33
867.82	228.26
868.13	228.37
868.44	228.39
868.75	228.47
869.06	228.46
869.37	228.45
869.68	228.38
869.99	228.57
870.30	228.59
870.61	228.60
870.92	228.57
871.23	228.47
871.54	228.52
871.85	228.53
872.16	228.64
872.47	228.64
872.78	228.39
873.09	228.37
873.40	228.33
873.71	228.35
874.02	228.28
874.33	228.32
874.64	228.26
874.95	228.25
875.26	228.16
875.56	228.13
875.87	228.11
876.18	228.12
876.49	228.16
876.80	228.09
877.11	228.03
877.42	228.10
877.73	228.07
878.04	227.97
878.35	228.04
878.66	227.93
878.96	227.89
879.27	227.89
879.58	227.92
879.89	227.82
880.20	227.99
880.51	227.96
880.82	227.95
881.12	228.02
881.43	227.82
881.74	227.89
882.05	227.90
882.36	227.93
882.67	227.91
882.97	227.80
883.28	227.86
883.59	227.94
883.90	227.90
884.21	227.99
884.51	227.96
884.82	227.92
885.13	228.03
885.44	228.04
885.74	228.18
886.05	228.13
886.36	228.32
886.67	228.20
886.98	228.39
887.28	228.40
887.59	228.40
887.90	228.61
888.20	228.60
888.51	228.65
888.82	228.60
889.13	228.55
889.43	228.78
889.74	228.83
890.05	228.75
890.35	228.78
890.66	228.80
890.97	228.91
891.28	228.88
891.58	228.80
891.89	228.82
892.20	228.81
892.50	228.76
892.81	228.60
893.12	228.60
893.42	228.52
893.73	228.56
894.04	228.51
894.34	228.44
894.65	228.38
894.95	228.46
895.26	228.51
895.57	228.75
895.87	228.51
896.18	228.53
896.48	228.51
896.79	228.50
897.10	228.54
897.40	228.57
897.71	228.57
898.01	228.68
898.32	228.72
898.63	228.70
898.93	228.82
899.24	228.92
899.54	228.92
899.85	228.86
900.15	228.76
900.46	228.78
900.76	228.80
901.07	228.86
901.38	228.84
901.68	228.77
901.99	228.68
902.29	228.73
902.60	228.70
902.90	228.79
903.21	228.80
903.51	228.76
903.82	228.68
904.12	228.70
904.43	228.71
904.73	228.78
905.03	228.67
905.34	228.76
905.64	228.80
905.95	228.80
906.25	228.84
906.56	228.90
906.86	228.85
907.17	228.86
907.47	228.80
907.77	228.72
908.08	228.66
908.38	228.60
908.69	228.54
908.99	228.53
909.30	228.48
909.60	228.41
909.90	228.39
910.21	228.26
910.51	228.15
910.81	228.03
911.12	227.94
911.42	228.00
911.73	227.84
912.03	227.80
912.33	227.83
912.64	227.80
912.94	227.72
913.24	227.80
913.55	227.74
913.85	227.78
914.15	227.80
914.46	227.87
914.76	227.88
915.06	227.84
915.37	227.81
915.67	227.73
915.97	227.82
916.27	227.81
916.58	227.90
916.88	227.96
917.18	227.92
917.49	228.03
917.79	228.01
918.09	228.05
918.39	228.14
918.70	228.18
919.00	228.24
919.30	228.36
919.60	228.22
919.91	228.15
920.21	228.16
920.51	228.08
920.81	228.12
921.12	228.11
921.42	228.18
921.72	228.23
922.02	228.25
922.32	228.20
922.63	228.21
922.93	228.32
923.23	228.38
923.53	228.37
923.83	228.22
924.13	228.23
924.44	228.21
924.74	228.21
925.04	228.24
925.34	228.19
925.64	228.10
925.94	228.12
926.24	228.30
926.55	228.38
926.85	228.41
927.15	228.32
927.45	228.34
927.75	228.35
928.05	228.30
928.35	228.31
928.65	228.37
928.95	228.37
929.26	228.38
929.56	228.40
929.86	228.47
930.16	228.43
930.46	228.43
930.76	228.46
931.06	228.40
931.36	228.33
931.66	228.33
931.96	228.32
932.26	228.32
932.56	228.33
932.86	228.25
933.16	228.30
933.46	228.34
933.76	228.38
934.06	228.35
934.36	228.45
934.66	228.45
934.96	228.47
935.26	228.48
935.56	228.43
935.86	228.45
936.16	228.39
936.46	228.46
936.76	228.40
937.06	228.32
937.36	228.30
937.66	228.28
937.96	228.21
938.26	228.19
938.56	228.27
938.86	228.17
939.16	228.22
939.46	228.15
939.76	228.29
940.06	228.28
940.35	228.18
940.65	228.05
940.95	228.15
941.25	228.05
941.55	228.05
941.85	228.06
942.15	227.98
942.45	228.06
942.75	228.01
943.04	228.16
943.34	228.21
943.64	228.17
943.94	228.15
944.24	228.22
944.54	228.26
944.84	228.19
945.13	228.29
945.43	228.20
945.73	228.25
946.03	228.18
946.33	228.10
946.62	228.16
946.92	228.12
947.22	228.07
947.52	228.13
947.82	228.11
948.11	228.14
948.41	228.14
948.71	228.18
949.01	228.27
949.31	228.08
949.60	228.04
949.90	228.08
950.20	228.08
950.50	228.14
950.79	228.12
951.09	228.14
951.39	227.98
951.69	227.97
951.98	228.01
952.28	227.97
952.58	227.97
952.87	227.99
953.17	228.05
953.47	228.00
953.76	228.00
954.06	228.01
954.36	227.90
954.66	227.97
954.95	227.88
955.25	227.82
955.55	227.94
955.84	227.98
956.14	228.10
956.44	228.10
956.73	227.98
957.03	228.04
957.32	228.00
957.62	227.99
957.92	228.08
958.21	228.03
958.51	228.27
958.81	228.25
959.10	228.29
959.40	228.32
959.69	228.30
959.99	228.35
960.29	228.34
960.58	228.44
960.88	228.45
961.17	228.53
961.47	228.50
961.76	228.44
962.06	228.45
962.36	228.32
962.65	228.30
962.95	228.37
963.24	228.37
963.54	228.46
963.83	228.49
964.13	228.47
964.42	228.40
964.72	228.30
965.01	228.28
965.31	228.32
965.60	228.30
965.90	228.47
966.19	228.41
966.49	228.46
966.78	228.41
967.08	228.40
967.37	228.30
967.67	228.30
967.96	228.37
968.26	228.46
968.55	228.50
968.85	228.59
969.14	228.65
969.43	228.52
969.73	228.43
970.02	228.51
970.32	228.53
970.61	228.53
970.91	228.41
971.20	228.37
971.49	228.30
971.79	228.30
972.08	228.23
972.38	228.23
972.67	228.20
972.96	228.20
973.26	228.22
973.55	228.35
973.85	228.29
974.14	228.26
974.43	228.12
974.73	228.08
975.02	228.04
975.31	228.05
975.61	228.08
975.90	228.06
976.19	228.04
976.49	228.00
976.78	228.01
977.07	228.04
977.37	228.13
977.66	228.20
977.95	228.19
978.24	228.14
978.54	228.21
978.83	228.11
979.12	228.15
979.42	228.17
979.71	228.06
980.00	228.14
980.29	228.19
980.59	228.27
980.88	228.31
981.17	228.30
981.46	228.23
981.76	228.24
982.05	228.35
982.34	228.43
982.63	228.48
982.93	228.60
983.22	228.59
983.51	228.56
983.80	228.52
984.09	228.51
984.39	228.51
984.68	228.54
984.97	228.63
985.26	228.61
985.55	228.54
985.85	228.57
986.14	228.65
986.43	228.73
986.72	228.68
987.01	228.55
987.30	228.54
987.59	228.43
987.89	228.47
988.18	228.51
988.47	228.33
988.76	228.21
989.05	228.16
989.34	228.12
989.63	228.22
989.92	228.21
990.22	228.29
990.51	228.34
990.80	228.19
991.09	228.24
991.38	228.27
991.67	228.27
991.96	228.28
992.25	228.20
992.54	228.11
992.83	228.20
993.12	228.29
993.41	228.37
993.70	228.59
993.99	228.80
994.28	228.83
994.58	228.90
994.87	228.95
995.16	228.94
995.45	228.97
995.74	228.90
996.03	228.88
996.32	228.87
996.61	228.85
996.90	228.96
997.19	228.93
997.48	228.99
997.77	228.99
998.06	228.96
998.34	229.07
998.63	229.06
998.92	229.06
999.21	229.14
999.50	229.13
999.79	229.04
1000.08	228.91
1000.37	228.79
1000.66	228.77
1000.95	228.76
1001.24	228.75
1001.53	228.86
1001.82	228.89
1002.11	228.90
1002.40	228.84
1002.68	229.00
1002.97	229.10
1003.26	229.15
1003.55	229.12
1003.84	229.16
1004.13	229.29
1004.42	229.15
1004.71	229.14
1004.99	229.08
1005.28	229.04
1005.57	229.03
1005.86	229.00
1006.15	229.08
1006.44	229.16
1006.72	229.24
1007.01	229.39
1007.30	229.29
1007.59	229.20
1007.88	229.20
1008.17	229.20
1008.45	229.27
1008.74	229.15
1009.03	229.04
1009.32	228.89
1009.60	228.82
1009.89	228.81
1010.18	228.73
1010.47	228.75
1010.76	228.75
1011.04	228.79
1011.33	228.94
1011.62	228.90
1011.91	228.89
1012.19	228.76
1012.48	228.63
1012.77	228.56
1013.05	228.48
1013.34	228.54
1013.63	228.54
1013.92	228.59
1014.20	228.58
1014.49	228.52
1014.78	228.43
1015.06	228.41
1015.35	228.51
1015.64	228.52
1015.92	228.51
1016.21	228.46
1016.50	228.38
1016.78	228.37
1017.07	228.39
1017.36	228.30
1017.64	228.36
1017.93	228.42
1018.22	228.37
1018.50	228.42
1018.79	228.41
1019.08	228.38
1019.36	228.34
1019.65	228.39
1019.93	228.35
1020.22	228.39
1020.51	228.44
1020.79	228.43
1021.08	227.50
1021.36	227.60
1021.65	227.30
1021.94	228.30
1022.22	226.70
1022.51	229.30
1022.79	229.10
1023.08	228.70
1023.36	229.70
1023.65	227.40
>>>>>End Processed Spectral Data<<<<<
