SpectraSuite Data File
++++++++++++++++++++++++++++++++++++
Date: Fri Feb 01 14:38:41 EST 2013
User: group
Dark Spectrum Present: No
Reference Spectrum Present: No
Number of Sampled Component Spectra: 1
Spectrometers: USB2E7196
Integration Time (usec): 70000 (USB2E7196)
Spectra Averaged: 10 (USB2E7196)
Boxcar Smoothing: 10 (USB2E7196)
Correct for Electrical Dark: No (USB2E7196)
Strobe/Lamp Enabled: No (USB2E7196)
Correct for Detector Non-linearity: No (USB2E7196)
Correct for Stray Light: No (USB2E7196)
Number of Pixels in Processed Spectrum: 2048
>>>>>Begin Processed Spectral Data<<<<<
339.09	0.00
339.48	215.80
339.86	216.50
340.24	216.80
340.63	218.80
341.01	226.00
341.39	222.20
341.78	224.60
342.16	224.60
342.54	225.80
342.93	213.97
343.31	224.82
343.69	225.46
344.07	225.90
344.46	226.54
344.84	226.87
345.22	227.00
345.60	227.36
345.99	227.55
346.37	227.71
346.75	227.88
347.13	227.97
347.52	227.96
347.90	228.04
348.28	227.99
348.66	228.06
349.05	228.12
349.43	228.15
349.81	228.18
350.19	228.20
350.57	228.22
350.96	228.25
351.34	228.19
351.72	228.17
352.10	228.32
352.48	228.28
352.87	228.44
353.25	228.48
353.63	228.44
354.01	228.42
354.39	228.47
354.77	228.47
355.15	228.64
355.54	228.79
355.92	228.83
356.30	228.97
356.68	229.21
357.06	229.33
357.44	229.25
357.82	229.35
358.20	229.53
358.58	229.60
358.97	229.69
359.35	229.94
359.73	230.03
360.11	230.11
360.49	230.10
360.87	230.24
361.25	230.29
361.63	230.39
362.01	230.50
362.39	230.45
362.77	230.57
363.15	230.48
363.53	230.43
363.91	230.44
364.29	230.50
364.67	230.32
365.05	230.24
365.43	230.46
365.81	230.53
366.19	230.52
366.57	230.60
366.95	230.63
367.33	230.57
367.71	230.51
368.09	230.51
368.47	230.52
368.85	230.45
369.23	230.52
369.61	230.42
369.99	230.48
370.37	230.58
370.75	230.53
371.13	230.46
371.51	230.40
371.89	230.30
372.27	230.22
372.65	230.15
373.03	230.14
373.41	229.95
373.78	229.82
374.16	229.59
374.54	229.50
374.92	229.35
375.30	229.30
375.68	229.17
376.06	229.02
376.44	228.92
376.82	228.76
377.19	228.65
377.57	228.69
377.95	228.46
378.33	228.41
378.71	228.25
379.09	228.22
379.47	228.19
379.84	228.18
380.22	228.14
380.60	228.00
380.98	227.90
381.36	227.80
381.73	227.68
382.11	227.81
382.49	227.71
382.87	227.54
383.25	227.35
383.62	227.50
384.00	227.44
384.38	227.34
384.76	227.40
385.13	227.30
385.51	227.15
385.89	227.04
386.27	226.86
386.64	226.83
387.02	226.70
387.40	226.61
387.78	226.48
388.15	226.32
388.53	226.27
388.91	226.25
389.29	226.30
389.66	226.25
390.04	226.02
390.42	226.01
390.79	226.05
391.17	226.01
391.55	225.92
391.92	225.95
392.30	225.97
392.68	225.94
393.05	225.98
393.43	225.91
393.81	226.03
394.18	226.12
394.56	226.16
394.94	226.29
395.31	226.30
395.69	226.40
396.06	226.54
396.44	226.63
396.82	226.54
397.19	226.66
397.57	226.80
397.95	226.90
398.32	226.94
398.70	227.00
399.07	227.21
399.45	227.17
399.82	227.20
400.20	227.35
400.58	227.33
400.95	227.34
401.33	227.50
401.70	227.63
402.08	227.74
402.45	227.73
402.83	227.89
403.20	228.11
403.58	228.19
403.95	228.35
404.33	228.51
404.71	228.77
405.08	229.08
405.46	229.15
405.83	229.39
406.21	229.56
406.58	229.83
406.96	230.00
407.33	230.29
407.70	230.58
408.08	230.86
408.45	231.16
408.83	231.54
409.20	231.73
409.58	232.02
409.95	232.34
410.33	232.80
410.70	232.97
411.08	233.23
411.45	233.53
411.82	233.90
412.20	234.35
412.57	234.84
412.95	235.03
413.32	235.55
413.69	235.96
414.07	236.51
414.44	236.91
414.82	237.39
415.19	237.94
415.56	238.52
415.94	239.16
416.31	239.93
416.68	240.58
417.06	241.40
417.43	242.11
417.81	242.96
418.18	243.76
418.55	244.78
418.93	245.81
419.30	246.97
419.67	247.96
420.04	249.04
420.42	250.25
420.79	251.75
421.16	253.13
421.54	254.60
421.91	255.93
422.28	257.56
422.66	259.28
423.03	261.04
423.40	262.54
423.77	264.22
424.15	266.04
424.52	267.85
424.89	269.93
425.26	271.93
425.64	273.76
426.01	275.74
426.38	277.89
426.75	280.14
427.13	282.33
427.50	284.66
427.87	287.09
428.24	289.46
428.61	291.65
428.99	294.10
429.36	296.80
429.73	299.52
430.10	302.24
430.47	304.91
430.85	307.46
431.22	310.47
431.59	313.61
431.96	316.48
432.33	319.69
432.70	322.84
433.08	326.53
433.45	330.04
433.82	333.63
434.19	337.42
434.56	341.10
434.93	344.63
435.30	348.20
435.68	352.20
436.05	356.01
436.42	359.85
436.79	363.40
437.16	367.20
437.53	371.04
437.90	374.91
438.27	378.80
438.64	382.89
439.01	386.60
439.38	389.87
439.75	393.03
440.13	396.67
440.50	400.12
440.87	402.87
441.24	405.70
441.61	408.90
441.98	411.20
442.35	413.90
442.72	416.73
443.09	419.43
443.46	420.87
443.83	422.07
444.20	423.20
444.57	424.58
444.94	425.35
445.31	426.20
445.68	427.10
446.05	427.44
446.42	427.23
446.79	427.08
447.16	426.82
447.53	426.73
447.90	425.57
448.27	424.31
448.64	422.51
449.01	421.33
449.37	419.00
449.74	416.80
450.11	414.19
450.48	411.08
450.85	407.95
451.22	405.32
451.59	402.79
451.96	400.21
452.33	397.08
452.70	394.02
453.07	390.45
453.43	386.67
453.80	383.18
454.17	379.67
454.54	376.34
454.91	372.70
455.28	369.19
455.65	365.84
456.02	362.64
456.38	359.80
456.75	356.40
457.12	353.31
457.49	350.30
457.86	347.40
458.23	345.02
458.59	342.42
458.96	339.77
459.33	337.35
459.70	334.88
460.07	332.89
460.43	330.62
460.80	328.47
461.17	326.54
461.54	324.48
461.91	322.70
462.27	320.76
462.64	319.07
463.01	317.12
463.38	315.32
463.74	313.47
464.11	311.92
464.48	310.36
464.85	308.84
465.21	307.65
465.58	306.32
465.95	304.78
466.32	303.54
466.68	302.23
467.05	300.89
467.42	299.62
467.78	298.21
468.15	296.91
468.52	295.92
468.88	294.69
469.25	293.66
469.62	292.60
469.98	291.58
470.35	290.65
470.72	289.76
471.08	288.77
471.45	287.81
471.82	286.92
472.18	286.00
472.55	285.38
472.92	284.57
473.28	283.79
473.65	282.96
474.02	282.20
474.38	281.59
474.75	280.89
475.11	280.27
475.48	279.72
475.85	279.23
476.21	278.67
476.58	278.08
476.94	277.47
477.31	277.03
477.67	276.60
478.04	276.22
478.41	276.02
478.77	275.99
479.14	275.56
479.50	275.21
479.87	274.99
480.23	274.62
480.60	274.30
480.96	274.00
481.33	273.84
481.69	273.63
482.06	273.38
482.42	273.26
482.79	273.05
483.15	272.99
483.52	272.94
483.88	272.95
484.25	272.89
484.61	272.88
484.98	272.90
485.34	272.92
485.71	272.87
486.07	272.82
486.44	272.59
486.80	272.74
487.17	272.72
487.53	272.80
487.90	273.02
488.26	273.22
488.62	273.34
488.99	273.41
489.35	273.45
489.72	273.66
490.08	273.79
490.44	273.90
490.81	274.00
491.17	274.05
491.54	274.10
491.90	274.33
492.26	274.56
492.63	274.72
492.99	274.87
493.36	275.14
493.72	275.38
494.08	275.70
494.45	276.04
494.81	276.40
495.17	276.70
495.54	277.00
495.90	277.27
496.26	277.65
496.63	277.98
496.99	278.35
497.35	278.65
497.72	279.06
498.08	279.46
498.44	279.85
498.80	280.33
499.17	280.80
499.53	281.13
499.89	281.53
500.26	281.82
500.62	282.29
500.98	282.73
501.34	283.03
501.71	283.50
502.07	283.74
502.43	284.11
502.79	284.42
503.16	284.70
503.52	285.18
503.88	285.45
504.24	285.93
504.60	286.34
504.97	286.77
505.33	287.18
505.69	287.72
506.05	288.22
506.41	288.59
506.78	289.16
507.14	289.60
507.50	290.02
507.86	290.66
508.22	291.16
508.59	291.68
508.95	292.27
509.31	292.87
509.67	293.52
510.03	294.28
510.39	295.09
510.75	295.94
511.12	296.55
511.48	297.39
511.84	298.23
512.20	299.11
512.56	299.88
512.92	300.88
513.28	301.70
513.64	302.63
514.00	303.73
514.37	304.72
514.73	305.96
515.09	307.29
515.45	308.44
515.81	309.73
516.17	311.15
516.53	312.63
516.89	314.11
517.25	315.75
517.61	317.39
517.97	319.04
518.33	320.85
518.69	322.80
519.05	324.77
519.41	326.76
519.77	328.93
520.13	331.24
520.49	333.25
520.85	335.70
521.21	338.26
521.57	340.72
521.93	343.28
522.29	345.87
522.65	348.57
523.01	351.36
523.37	354.10
523.73	356.95
524.09	359.92
524.45	362.80
524.81	365.89
525.17	369.06
525.53	372.40
525.89	375.74
526.25	379.11
526.61	382.55
526.97	386.24
527.33	390.00
527.68	394.00
528.04	397.94
528.40	401.87
528.76	405.71
529.12	409.91
529.48	414.17
529.84	418.40
530.20	422.91
530.56	427.64
530.91	432.60
531.27	437.20
531.63	442.16
531.99	447.08
532.35	451.86
532.71	456.80
533.07	461.99
533.42	467.15
533.78	472.44
534.14	477.75
534.50	483.01
534.86	488.27
535.21	493.63
535.57	499.59
535.93	505.26
536.29	511.19
536.65	516.84
537.00	522.55
537.36	528.42
537.72	534.17
538.08	539.84
538.44	545.45
538.79	551.56
539.15	557.43
539.51	563.54
539.87	569.62
540.22	575.71
540.58	581.96
540.94	588.03
541.29	594.12
541.65	600.30
542.01	606.49
542.37	612.86
542.72	618.90
543.08	624.70
543.44	630.99
543.79	636.93
544.15	643.10
544.51	649.45
544.87	655.83
545.22	662.05
545.58	668.38
545.94	674.55
546.29	680.52
546.65	686.85
547.01	692.81
547.36	699.06
547.72	705.34
548.07	711.43
548.43	717.61
548.79	723.59
549.14	729.57
549.50	735.64
549.86	741.43
550.21	747.38
550.57	753.52
550.92	759.44
551.28	765.57
551.64	771.55
551.99	777.44
552.35	783.34
552.70	789.02
553.06	795.01
553.41	800.90
553.77	807.02
554.13	812.61
554.48	818.71
554.84	824.54
555.19	829.97
555.55	835.19
555.90	840.37
556.26	846.05
556.61	851.84
556.97	857.30
557.32	862.84
557.68	868.29
558.03	873.66
558.39	879.08
558.74	884.59
559.10	889.93
559.45	895.06
559.81	900.30
560.16	905.40
560.52	910.28
560.87	915.47
561.23	920.14
561.58	924.93
561.94	929.69
562.29	934.08
562.64	938.78
563.00	943.56
563.35	948.47
563.71	953.17
564.06	957.58
564.42	962.02
564.77	966.77
565.12	971.57
565.48	975.96
565.83	979.88
566.19	983.91
566.54	987.76
566.89	991.80
567.25	995.90
567.60	1000.09
567.96	1004.15
568.31	1007.61
568.66	1011.43
569.02	1014.92
569.37	1018.10
569.72	1021.83
570.08	1025.24
570.43	1028.66
570.78	1031.83
571.14	1034.44
571.49	1037.41
571.84	1040.48
572.20	1042.69
572.55	1044.85
572.90	1047.20
573.26	1049.57
573.61	1051.50
573.96	1053.68
574.31	1055.41
574.67	1056.58
575.02	1058.15
575.37	1059.84
575.72	1061.25
576.08	1062.51
576.43	1064.25
576.78	1066.10
577.13	1067.43
577.49	1068.90
577.84	1069.80
578.19	1070.70
578.54	1071.79
578.90	1072.67
579.25	1073.00
579.60	1074.07
579.95	1074.50
580.30	1075.00
580.66	1075.62
581.01	1076.10
581.36	1076.55
581.71	1077.26
582.06	1077.80
582.42	1077.84
582.77	1077.78
583.12	1077.96
583.47	1078.40
583.82	1078.54
584.17	1078.05
584.53	1077.96
584.88	1077.77
585.23	1077.79
585.58	1077.72
585.93	1077.68
586.28	1077.49
586.63	1077.80
586.98	1077.46
587.34	1077.25
587.69	1076.88
588.04	1076.43
588.39	1076.20
588.74	1075.58
589.09	1074.55
589.44	1073.83
589.79	1073.26
590.14	1072.86
590.49	1071.91
590.84	1070.89
591.19	1069.83
591.54	1068.63
591.89	1067.02
592.25	1065.99
592.60	1064.20
592.95	1062.36
593.30	1061.04
593.65	1059.30
594.00	1057.33
594.35	1055.98
594.70	1054.19
595.05	1052.54
595.40	1050.70
595.75	1048.48
596.10	1046.77
596.45	1045.70
596.80	1044.07
597.15	1042.37
597.50	1040.16
597.85	1038.67
598.19	1036.98
598.54	1035.16
598.89	1033.58
599.24	1032.42
599.59	1030.20
599.94	1029.02
600.29	1027.26
600.64	1025.02
600.99	1022.89
601.34	1021.07
601.69	1018.81
602.04	1017.21
602.39	1015.07
602.74	1013.36
603.08	1011.80
603.43	1010.09
603.78	1007.40
604.13	1005.39
604.48	1003.29
604.83	1001.14
605.18	999.01
605.53	996.30
605.87	993.47
606.22	991.19
606.57	988.59
606.92	986.19
607.27	983.58
607.62	981.92
607.96	979.80
608.31	977.78
608.66	975.07
609.01	971.97
609.36	968.80
609.70	965.81
610.05	962.49
610.40	959.45
610.75	956.08
611.10	953.21
611.44	949.65
611.79	946.43
612.14	943.32
612.49	939.62
612.83	936.39
613.18	933.43
613.53	930.12
613.88	926.56
614.22	923.19
614.57	919.60
614.92	915.63
615.27	912.16
615.61	908.48
615.96	905.13
616.31	902.13
616.65	899.63
617.00	896.27
617.35	893.38
617.70	890.21
618.04	887.01
618.39	883.55
618.74	880.56
619.08	877.19
619.43	874.09
619.78	871.15
620.12	868.16
620.47	865.14
620.82	861.64
621.16	858.44
621.51	855.46
621.85	852.29
622.20	848.98
622.55	845.74
622.89	842.51
623.24	839.28
623.59	836.24
623.93	832.49
624.28	829.60
624.62	826.40
624.97	823.15
625.32	819.97
625.66	817.04
626.01	813.85
626.35	810.70
626.70	807.23
627.04	803.93
627.39	800.40
627.73	796.98
628.08	793.84
628.43	790.68
628.77	787.37
629.12	783.90
629.46	780.62
629.81	776.96
630.15	773.41
630.50	770.11
630.84	766.02
631.19	762.45
631.53	759.06
631.88	755.10
632.22	751.27
632.57	747.92
632.91	744.37
633.26	740.74
633.60	736.92
633.95	733.70
634.29	730.56
634.64	727.25
634.98	723.72
635.32	720.65
635.67	717.41
636.01	713.90
636.36	710.64
636.70	707.30
637.05	704.25
637.39	701.25
637.73	698.06
638.08	695.52
638.42	692.69
638.77	689.55
639.11	686.71
639.45	683.73
639.80	680.62
640.14	677.65
640.49	674.68
640.83	671.98
641.17	668.64
641.52	665.46
641.86	662.66
642.20	659.68
642.55	656.55
642.89	653.60
643.23	650.68
643.58	647.87
643.92	645.10
644.26	642.16
644.61	639.39
644.95	636.25
645.29	632.73
645.64	629.36
645.98	626.30
646.32	623.42
646.66	620.53
647.01	617.37
647.35	614.54
647.69	611.57
648.04	608.83
648.38	605.77
648.72	602.43
649.06	599.13
649.41	595.99
649.75	592.68
650.09	589.39
650.43	586.31
650.78	583.04
651.12	579.84
651.46	576.75
651.80	573.71
652.14	570.85
652.49	568.09
652.83	565.33
653.17	562.24
653.51	559.28
653.85	556.26
654.20	553.31
654.54	549.92
654.88	546.95
655.22	543.50
655.56	540.42
655.90	537.59
656.25	534.97
656.59	532.18
656.93	529.59
657.27	527.01
657.61	524.04
657.95	521.44
658.29	518.77
658.64	516.19
658.98	513.23
659.32	510.32
659.66	507.75
660.00	505.07
660.34	502.50
660.68	499.64
661.02	496.79
661.36	494.24
661.70	491.82
662.05	489.46
662.39	487.31
662.73	485.24
663.07	483.14
663.41	480.70
663.75	478.53
664.09	476.02
664.43	473.56
664.77	471.49
665.11	469.22
665.45	466.95
665.79	464.72
666.13	462.52
666.47	460.39
666.81	458.09
667.15	455.66
667.49	453.51
667.83	451.59
668.17	449.60
668.51	447.47
668.85	445.39
669.19	443.40
669.53	441.36
669.87	438.98
670.21	436.81
670.55	434.79
670.89	432.86
671.23	431.14
671.57	429.05
671.91	427.02
672.25	425.18
672.58	423.26
672.92	421.26
673.26	419.44
673.60	417.71
673.94	416.09
674.28	414.60
674.62	412.87
674.96	411.08
675.30	409.41
675.64	407.88
675.97	406.26
676.31	404.55
676.65	402.77
676.99	401.39
677.33	399.68
677.67	398.13
678.01	396.29
678.34	394.44
678.68	393.00
679.02	391.41
679.36	389.80
679.70	388.32
680.04	386.68
680.37	385.09
680.71	383.51
681.05	381.98
681.39	380.55
681.73	379.06
682.06	377.71
682.40	376.45
682.74	374.98
683.08	373.57
683.42	372.01
683.75	370.64
684.09	369.14
684.43	367.78
684.77	366.26
685.10	364.99
685.44	363.76
685.78	362.37
686.12	360.91
686.45	359.63
686.79	358.24
687.13	357.12
687.46	355.79
687.80	354.54
688.14	353.07
688.48	351.75
688.81	350.44
689.15	349.09
689.49	347.66
689.82	346.40
690.16	344.99
690.50	343.76
690.83	342.67
691.17	341.56
691.51	340.46
691.84	339.46
692.18	338.35
692.52	337.16
692.85	336.01
693.19	334.96
693.52	333.67
693.86	332.48
694.20	331.14
694.53	330.09
694.87	328.86
695.21	327.75
695.54	326.60
695.88	325.44
696.21	324.22
696.55	323.18
696.88	322.13
697.22	321.07
697.56	320.10
697.89	318.92
698.23	317.80
698.56	316.75
698.90	315.70
699.23	314.54
699.57	313.53
699.90	312.48
700.24	311.52
700.58	310.62
700.91	309.74
701.25	309.05
701.58	308.14
701.92	307.32
702.25	306.59
702.59	305.59
702.92	304.70
703.26	304.00
703.59	303.05
703.93	302.28
704.26	301.50
704.60	300.71
704.93	299.94
705.26	299.16
705.60	298.52
705.93	297.79
706.27	297.04
706.60	296.29
706.94	295.57
707.27	294.78
707.61	294.14
707.94	293.37
708.27	292.46
708.61	291.67
708.94	290.92
709.28	290.23
709.61	289.63
709.94	289.03
710.28	288.41
710.61	287.90
710.95	287.08
711.28	286.55
711.61	285.86
711.95	285.16
712.28	284.41
712.61	283.65
712.95	282.90
713.28	282.28
713.61	281.69
713.95	281.17
714.28	280.63
714.61	279.96
714.95	279.42
715.28	278.93
715.61	278.40
715.95	277.80
716.28	277.20
716.61	276.68
716.95	276.09
717.28	275.48
717.61	274.93
717.94	274.49
718.28	273.85
718.61	273.30
718.94	272.83
719.27	272.40
719.61	271.94
719.94	271.54
720.27	271.10
720.60	270.60
720.94	270.18
721.27	269.75
721.60	269.34
721.93	268.89
722.27	268.38
722.60	267.98
722.93	267.64
723.26	267.20
723.59	266.77
723.93	266.38
724.26	265.96
724.59	265.54
724.92	265.10
725.25	264.71
725.59	264.41
725.92	264.04
726.25	263.72
726.58	263.29
726.91	262.87
727.24	262.52
727.57	262.20
727.91	261.74
728.24	261.32
728.57	260.95
728.90	260.59
729.23	260.17
729.56	259.87
729.89	259.41
730.22	259.02
730.55	258.68
730.89	258.38
731.22	258.06
731.55	257.72
731.88	257.36
732.21	257.01
732.54	256.64
732.87	256.29
733.20	255.92
733.53	255.67
733.86	255.32
734.19	255.02
734.52	254.68
734.85	254.49
735.18	254.20
735.51	253.89
735.84	253.69
736.17	253.52
736.50	253.21
736.83	253.23
737.16	252.98
737.49	252.71
737.82	252.41
738.15	252.16
738.48	251.95
738.81	251.71
739.14	251.43
739.47	251.15
739.80	251.01
740.13	250.87
740.46	250.63
740.79	250.40
741.12	250.18
741.45	249.86
741.78	249.55
742.11	249.31
742.44	249.13
742.77	248.91
743.10	248.68
743.43	248.42
743.75	248.05
744.08	248.07
744.41	247.81
744.74	247.64
745.07	247.40
745.40	247.17
745.73	247.10
746.06	247.03
746.39	246.86
746.71	246.65
747.04	246.41
747.37	246.22
747.70	246.07
748.03	245.90
748.36	245.83
748.68	245.66
749.01	245.44
749.34	245.30
749.67	245.07
750.00	244.97
750.33	244.91
750.65	244.68
750.98	244.27
751.31	244.06
751.64	244.00
751.97	243.90
752.29	243.73
752.62	243.41
752.95	243.19
753.28	242.98
753.60	242.87
753.93	242.73
754.26	242.52
754.59	242.34
754.91	242.06
755.24	241.90
755.57	241.64
755.90	241.59
756.22	241.31
756.55	241.18
756.88	240.93
757.20	240.71
757.53	240.64
757.86	240.56
758.19	240.49
758.51	240.23
758.84	239.90
759.17	239.69
759.49	239.59
759.82	239.49
760.15	239.39
760.47	239.14
760.80	239.01
761.13	239.00
761.45	238.81
761.78	238.72
762.11	238.65
762.43	238.59
762.76	238.37
763.08	238.34
763.41	238.15
763.74	238.02
764.06	237.87
764.39	237.75
764.71	237.70
765.04	237.54
765.37	237.51
765.69	237.46
766.02	237.36
766.34	237.29
766.67	237.21
767.00	237.09
767.32	237.13
767.65	237.17
767.97	236.95
768.30	236.89
768.62	236.81
768.95	236.52
769.27	236.45
769.60	236.47
769.92	236.30
770.25	236.33
770.57	236.21
770.90	236.05
771.22	235.89
771.55	235.73
771.87	235.64
772.20	235.48
772.52	235.52
772.85	235.71
773.17	235.55
773.50	235.32
773.82	235.18
774.15	234.91
774.47	234.56
774.80	234.55
775.12	234.49
775.45	234.38
775.77	234.41
776.09	234.30
776.42	234.26
776.74	234.32
777.07	234.19
777.39	234.09
777.72	234.03
778.04	233.89
778.36	233.81
778.69	233.82
779.01	233.80
779.33	233.63
779.66	233.31
779.98	233.33
780.31	233.45
780.63	233.54
780.95	233.57
781.28	233.53
781.60	233.31
781.92	233.35
782.25	233.35
782.57	233.30
782.89	233.29
783.22	233.13
783.54	232.98
783.86	232.84
784.19	232.91
784.51	232.98
784.83	233.00
785.16	232.94
785.48	232.91
785.80	232.89
786.12	232.90
786.45	232.89
786.77	232.81
787.09	232.74
787.42	232.63
787.74	232.66
788.06	232.67
788.38	232.76
788.71	232.63
789.03	232.52
789.35	232.50
789.67	232.39
789.99	232.45
790.32	232.41
790.64	232.39
790.96	232.38
791.28	232.28
791.61	232.16
791.93	232.20
792.25	232.09
792.57	232.12
792.89	232.11
793.21	232.10
793.54	231.98
793.86	231.97
794.18	231.95
794.50	231.80
794.82	231.76
795.14	231.67
795.47	231.65
795.79	231.67
796.11	231.63
796.43	231.67
796.75	231.66
797.07	231.59
797.39	231.62
797.71	231.62
798.04	231.62
798.36	231.64
798.68	231.55
799.00	231.53
799.32	231.39
799.64	231.40
799.96	231.35
800.28	231.37
800.60	231.27
800.92	231.14
801.24	231.17
801.56	231.24
801.89	231.30
802.21	231.32
802.53	231.20
802.85	231.19
803.17	231.17
803.49	231.07
803.81	231.07
804.13	231.11
804.45	231.01
804.77	231.03
805.09	231.23
805.41	231.17
805.73	231.07
806.05	231.03
806.37	230.95
806.69	230.90
807.01	230.95
807.33	230.94
807.65	230.89
807.97	230.94
808.28	230.96
808.60	230.88
808.92	230.76
809.24	230.82
809.56	230.84
809.88	230.89
810.20	230.90
810.52	230.95
810.84	230.71
811.16	230.71
811.48	230.60
811.80	230.54
812.12	230.53
812.43	230.70
812.75	230.73
813.07	230.61
813.39	230.61
813.71	230.50
814.03	230.58
814.35	230.61
814.67	230.54
814.98	230.37
815.30	230.36
815.62	230.33
815.94	230.22
816.26	230.31
816.58	230.18
816.89	230.18
817.21	230.02
817.53	230.11
817.85	230.12
818.17	230.09
818.48	229.92
818.80	229.96
819.12	229.87
819.44	229.81
819.76	229.79
820.07	229.86
820.39	229.87
820.71	229.79
821.03	229.79
821.34	229.72
821.66	229.72
821.98	229.73
822.30	229.78
822.61	229.90
822.93	229.75
823.25	229.82
823.57	229.71
823.88	229.80
824.20	229.89
824.52	229.85
824.83	229.88
825.15	229.95
825.47	230.07
825.79	230.12
826.10	230.20
826.42	230.13
826.74	230.07
827.05	230.15
827.37	230.08
827.69	230.09
828.00	230.12
828.32	230.12
828.64	230.21
828.95	230.21
829.27	230.26
829.58	230.16
829.90	230.09
830.22	230.15
830.53	230.10
830.85	230.07
831.17	229.99
831.48	229.99
831.80	229.96
832.11	229.84
832.43	229.77
832.75	229.65
833.06	229.89
833.38	229.76
833.69	229.64
834.01	229.70
834.32	229.68
834.64	229.60
834.96	229.51
835.27	229.40
835.59	229.42
835.90	229.29
836.22	229.32
836.53	229.28
836.85	229.23
837.16	229.44
837.48	229.49
837.79	229.66
838.11	229.61
838.42	229.54
838.74	229.57
839.05	229.63
839.37	229.67
839.68	229.56
840.00	229.64
840.31	229.70
840.63	229.57
840.94	229.60
841.26	229.61
841.57	229.74
841.88	229.76
842.20	229.78
842.51	229.84
842.83	229.86
843.14	230.07
843.46	230.11
843.77	230.01
844.08	230.01
844.40	229.80
844.71	229.80
845.03	229.87
845.34	229.79
845.65	229.71
845.97	229.70
846.28	229.73
846.60	229.77
846.91	229.77
847.22	229.86
847.54	229.91
847.85	229.93
848.16	229.82
848.48	229.82
848.79	229.77
849.10	229.76
849.42	229.82
849.73	229.53
850.04	229.46
850.36	229.42
850.67	229.41
850.98	229.52
851.30	229.60
851.61	229.55
851.92	229.54
852.23	229.56
852.55	229.56
852.86	229.50
853.17	229.43
853.49	229.40
853.80	229.36
854.11	229.37
854.42	229.42
854.74	229.44
855.05	229.35
855.36	229.32
855.67	229.25
855.99	229.22
856.30	229.59
856.61	229.66
856.92	229.70
857.23	229.60
857.55	229.57
857.86	229.51
858.17	229.60
858.48	229.63
858.79	229.55
859.11	229.53
859.42	229.50
859.73	229.53
860.04	229.47
860.35	229.45
860.66	229.30
860.98	229.30
861.29	229.40
861.60	229.48
861.91	229.46
862.22	229.47
862.53	229.45
862.84	229.17
863.16	229.12
863.47	228.95
863.78	228.96
864.09	228.89
864.40	228.86
864.71	228.81
865.02	228.66
865.33	228.67
865.64	228.70
865.95	228.67
866.27	228.73
866.58	228.71
866.89	228.76
867.20	228.74
867.51	228.69
867.82	228.60
868.13	228.61
868.44	228.62
868.75	228.65
869.06	228.63
869.37	228.60
869.68	228.61
869.99	228.56
870.30	228.60
870.61	228.64
870.92	228.67
871.23	228.65
871.54	228.79
871.85	228.74
872.16	228.75
872.47	228.69
872.78	228.59
873.09	228.65
873.40	228.58
873.71	228.62
874.02	228.53
874.33	228.49
874.64	228.40
874.95	228.39
875.26	228.35
875.56	228.31
875.87	228.38
876.18	228.30
876.49	228.55
876.80	228.45
877.11	228.36
877.42	228.33
877.73	228.27
878.04	228.10
878.35	228.24
878.66	228.17
878.96	228.17
879.27	228.21
879.58	228.20
879.89	228.19
880.20	228.21
880.51	228.18
880.82	228.14
881.12	228.25
881.43	228.13
881.74	228.02
882.05	227.94
882.36	227.91
882.67	227.92
882.97	227.70
883.28	227.70
883.59	227.75
883.90	227.78
884.21	227.84
884.51	227.92
884.82	227.82
885.13	227.82
885.44	227.87
885.74	227.80
886.05	227.75
886.36	227.76
886.67	227.77
886.98	227.90
887.28	228.00
887.59	227.94
887.90	228.03
888.20	228.13
888.51	228.20
888.82	228.15
889.13	228.15
889.43	228.37
889.74	228.36
890.05	228.30
890.35	228.18
890.66	228.10
890.97	228.01
891.28	228.06
891.58	228.09
891.89	228.08
892.20	228.09
892.50	228.12
892.81	228.16
893.12	228.09
893.42	227.98
893.73	227.93
894.04	227.88
894.34	227.87
894.65	227.83
894.95	227.76
895.26	227.71
895.57	227.84
895.87	227.64
896.18	227.66
896.48	227.70
896.79	227.76
897.10	227.87
897.40	227.91
897.71	227.94
898.01	227.96
898.32	227.94
898.63	227.88
898.93	227.87
899.24	227.89
899.54	227.87
899.85	227.94
900.15	227.93
900.46	227.97
900.76	228.00
901.07	228.10
901.38	228.15
901.68	228.22
901.99	228.11
902.29	228.12
902.60	228.14
902.90	228.12
903.21	228.27
903.51	228.15
903.82	228.28
904.12	228.24
904.43	228.19
904.73	228.13
905.03	228.20
905.34	228.42
905.64	228.45
905.95	228.44
906.25	228.55
906.56	228.62
906.86	228.65
907.17	228.71
907.47	228.69
907.77	228.61
908.08	228.60
908.38	228.51
908.69	228.60
908.99	228.67
909.30	228.69
909.60	228.60
909.90	228.70
910.21	228.59
910.51	228.50
910.81	228.55
911.12	228.73
911.42	228.72
911.73	228.46
912.03	228.43
912.33	228.44
912.64	228.26
912.94	228.11
913.24	228.16
913.55	228.08
913.85	228.15
914.15	228.30
914.46	228.30
914.76	228.39
915.06	228.38
915.37	228.26
915.67	228.22
915.97	228.21
916.27	228.08
916.58	228.11
916.88	228.12
917.18	228.01
917.49	227.99
917.79	227.94
918.09	228.00
918.39	227.95
918.70	227.99
919.00	228.05
919.30	228.14
919.60	227.90
919.91	227.89
920.21	227.70
920.51	227.54
920.81	227.44
921.12	227.41
921.42	227.28
921.72	227.34
922.02	227.33
922.32	227.32
922.63	227.30
922.93	227.32
923.23	227.37
923.53	227.42
923.83	227.33
924.13	227.39
924.44	227.35
924.74	227.43
925.04	227.40
925.34	227.35
925.64	227.32
925.94	227.36
926.24	227.45
926.55	227.52
926.85	227.59
927.15	227.63
927.45	227.54
927.75	227.63
928.05	227.61
928.35	227.69
928.65	227.69
928.95	227.69
929.26	227.62
929.56	227.58
929.86	227.58
930.16	227.57
930.46	227.54
930.76	227.58
931.06	227.48
931.36	227.48
931.66	227.55
931.96	227.52
932.26	227.63
932.56	227.57
932.86	227.56
933.16	227.61
933.46	227.63
933.76	227.81
934.06	227.76
934.36	227.80
934.66	227.80
934.96	227.81
935.26	227.84
935.56	227.93
935.86	227.90
936.16	227.93
936.46	227.99
936.76	228.14
937.06	228.13
937.36	228.22
937.66	228.22
937.96	228.22
938.26	228.36
938.56	228.30
938.86	228.33
939.16	228.48
939.46	228.51
939.76	228.58
940.06	228.51
940.35	228.59
940.65	228.56
940.95	228.57
941.25	228.49
941.55	228.53
941.85	228.53
942.15	228.63
942.45	228.66
942.75	228.68
943.04	228.60
943.34	228.60
943.64	228.51
943.94	228.56
944.24	228.56
944.54	228.53
944.84	228.57
945.13	228.53
945.43	228.42
945.73	228.45
946.03	228.36
946.33	228.41
946.62	228.40
946.92	228.38
947.22	228.40
947.52	228.53
947.82	228.51
948.11	228.46
948.41	228.42
948.71	228.46
949.01	228.45
949.31	228.39
949.60	228.39
949.90	228.41
950.20	228.41
950.50	228.35
950.79	228.28
951.09	228.31
951.39	228.19
951.69	228.14
951.98	228.10
952.28	228.17
952.58	228.15
952.87	228.08
953.17	228.12
953.47	228.03
953.76	228.02
954.06	227.98
954.36	227.99
954.66	228.00
954.95	227.95
955.25	227.89
955.55	227.88
955.84	227.85
956.14	227.83
956.44	227.82
956.73	227.89
957.03	227.83
957.32	227.79
957.62	227.90
957.92	227.91
958.21	227.85
958.51	228.03
958.81	227.96
959.10	227.99
959.40	227.94
959.69	227.93
959.99	227.89
960.29	227.97
960.58	227.95
960.88	227.89
961.17	227.86
961.47	227.82
961.76	227.78
962.06	227.82
962.36	227.83
962.65	227.87
962.95	227.85
963.24	227.93
963.54	228.00
963.83	227.96
964.13	227.98
964.42	227.87
964.72	227.70
965.01	227.73
965.31	227.79
965.60	227.82
965.90	227.98
966.19	228.00
966.49	227.97
966.78	227.97
967.08	228.03
967.37	228.00
967.67	228.09
967.96	228.14
968.26	228.12
968.55	228.17
968.85	228.00
969.14	228.00
969.43	227.99
969.73	227.92
970.02	227.93
970.32	227.90
970.61	228.03
970.91	228.03
971.20	227.93
971.49	227.87
971.79	228.00
972.08	227.90
972.38	227.90
972.67	227.99
972.96	227.94
973.26	228.01
973.55	228.11
973.85	228.15
974.14	228.11
974.43	228.26
974.73	228.28
975.02	228.48
975.31	228.46
975.61	228.53
975.90	228.52
976.19	228.47
976.49	228.59
976.78	228.65
977.07	228.60
977.37	228.78
977.66	228.83
977.95	228.76
978.24	228.84
978.54	228.94
978.83	228.89
979.12	229.00
979.42	228.95
979.71	228.93
980.00	228.88
980.29	228.98
980.59	228.87
980.88	228.83
981.17	228.78
981.46	228.79
981.76	228.77
982.05	228.94
982.34	229.00
982.63	228.87
982.93	228.82
983.22	228.94
983.51	228.88
983.80	228.85
984.09	228.85
984.39	228.79
984.68	228.68
984.97	228.67
985.26	228.72
985.55	228.69
985.85	228.65
986.14	228.68
986.43	228.65
986.72	228.53
987.01	228.51
987.30	228.47
987.59	228.55
987.89	228.40
988.18	228.21
988.47	228.14
988.76	228.12
989.05	228.11
989.34	228.11
989.63	228.11
989.92	228.18
990.22	228.07
990.51	228.03
990.80	227.98
991.09	227.90
991.38	227.70
991.67	227.61
991.96	227.54
992.25	227.45
992.54	227.40
992.83	227.53
993.12	227.52
993.41	227.58
993.70	227.45
993.99	227.56
994.28	227.69
994.58	227.70
994.87	227.75
995.16	227.69
995.45	227.60
995.74	227.51
996.03	227.44
996.32	227.46
996.61	227.44
996.90	227.40
997.19	227.48
997.48	227.55
997.77	227.57
998.06	227.62
998.34	227.67
998.63	227.61
998.92	227.56
999.21	227.55
999.50	227.43
999.79	227.49
1000.08	227.42
1000.37	227.31
1000.66	227.28
1000.95	227.21
1001.24	227.20
1001.53	227.22
1001.82	227.26
1002.11	227.22
1002.40	227.22
1002.68	227.32
1002.97	227.43
1003.26	227.36
1003.55	227.36
1003.84	227.47
1004.13	227.60
1004.42	227.60
1004.71	227.68
1004.99	227.76
1005.28	227.80
1005.57	227.88
1005.86	227.88
1006.15	227.98
1006.44	228.06
1006.72	228.17
1007.01	228.30
1007.30	228.46
1007.59	228.46
1007.88	228.48
1008.17	228.58
1008.45	228.64
1008.74	228.67
1009.03	228.78
1009.32	228.89
1009.60	228.97
1009.89	228.97
1010.18	228.83
1010.47	228.90
1010.76	228.88
1011.04	228.86
1011.33	228.98
1011.62	229.10
1011.91	229.10
1012.19	229.06
1012.48	229.17
1012.77	229.20
1013.05	229.28
1013.34	229.22
1013.63	229.29
1013.92	229.34
1014.20	229.30
1014.49	229.40
1014.78	229.37
1015.06	229.22
1015.35	229.30
1015.64	229.37
1015.92	229.42
1016.21	229.51
1016.50	229.44
1016.78	229.54
1017.07	229.58
1017.36	229.49
1017.64	229.43
1017.93	229.49
1018.22	229.48
1018.50	229.33
1018.79	229.30
1019.08	229.21
1019.36	229.24
1019.65	229.21
1019.93	229.24
1020.22	229.27
1020.51	229.23
1020.79	229.13
1021.08	227.50
1021.36	228.00
1021.65	228.20
1021.94	229.60
1022.22	228.80
1022.51	229.40
1022.79	229.70
1023.08	229.00
1023.36	230.70
1023.65	227.60
>>>>>End Processed Spectral Data<<<<<
