SpectraSuite Data File
++++++++++++++++++++++++++++++++++++
Date: Fri Feb 01 14:37:50 EST 2013
User: group
Dark Spectrum Present: No
Reference Spectrum Present: No
Number of Sampled Component Spectra: 1
Spectrometers: USB2E7196
Integration Time (usec): 70000 (USB2E7196)
Spectra Averaged: 10 (USB2E7196)
Boxcar Smoothing: 10 (USB2E7196)
Correct for Electrical Dark: No (USB2E7196)
Strobe/Lamp Enabled: No (USB2E7196)
Correct for Detector Non-linearity: No (USB2E7196)
Correct for Stray Light: No (USB2E7196)
Number of Pixels in Processed Spectrum: 2048
>>>>>Begin Processed Spectral Data<<<<<
339.09	0.00
339.48	213.90
339.86	215.70
340.24	219.80
340.63	219.30
341.01	223.20
341.39	223.10
341.78	222.80
342.16	226.30
342.54	227.20
342.93	214.03
343.31	224.84
343.69	225.47
344.07	225.96
344.46	226.30
344.84	226.62
345.22	226.84
345.60	227.02
345.99	227.26
346.37	227.30
346.75	227.29
347.13	227.34
347.52	227.30
347.90	227.52
348.28	227.61
348.66	227.69
349.05	227.59
349.43	227.69
349.81	227.72
350.19	227.93
350.57	227.98
350.96	227.98
351.34	228.14
351.72	228.20
352.10	228.35
352.48	228.43
352.87	228.60
353.25	228.70
353.63	228.88
354.01	228.94
354.39	229.02
354.77	229.13
355.15	229.23
355.54	229.36
355.92	229.23
356.30	229.14
356.68	229.33
357.06	229.45
357.44	229.49
357.82	229.46
358.20	229.55
358.58	229.64
358.97	229.70
359.35	229.71
359.73	229.80
360.11	229.77
360.49	229.88
360.87	229.89
361.25	229.97
361.63	230.00
362.01	230.08
362.39	230.12
362.77	230.19
363.15	230.18
363.53	230.17
363.91	230.22
364.29	230.29
364.67	230.11
365.05	230.09
365.43	230.09
365.81	230.09
366.19	230.10
366.57	230.06
366.95	230.05
367.33	229.95
367.71	229.95
368.09	230.03
368.47	230.01
368.85	229.99
369.23	229.97
369.61	229.78
369.99	229.77
370.37	229.70
370.75	229.69
371.13	229.61
371.51	229.49
371.89	229.45
372.27	229.43
372.65	229.35
373.03	229.27
373.41	229.10
373.78	229.05
374.16	228.87
374.54	228.84
374.92	228.73
375.30	228.78
375.68	228.62
376.06	228.56
376.44	228.45
376.82	228.38
377.19	228.24
377.57	228.10
377.95	227.97
378.33	227.95
378.71	227.72
379.09	227.69
379.47	227.67
379.84	227.61
380.22	227.42
380.60	227.26
380.98	227.21
381.36	227.26
381.73	227.15
382.11	227.08
382.49	227.03
382.87	226.98
383.25	226.75
383.62	226.93
384.00	226.79
384.38	226.64
384.76	226.60
385.13	226.57
385.51	226.62
385.89	226.40
386.27	226.34
386.64	226.39
387.02	226.33
387.40	226.26
387.78	226.12
388.15	226.20
388.53	226.26
388.91	226.20
389.29	226.06
389.66	226.08
390.04	226.11
390.42	226.11
390.79	226.04
391.17	226.10
391.55	225.86
391.92	225.85
392.30	225.93
392.68	225.91
393.05	226.01
393.43	226.12
393.81	226.24
394.18	226.18
394.56	226.17
394.94	226.32
395.31	226.39
395.69	226.53
396.06	226.64
396.44	226.67
396.82	226.79
397.19	227.02
397.57	226.99
397.95	227.02
398.32	227.09
398.70	227.22
399.07	227.43
399.45	227.54
399.82	227.60
400.20	227.59
400.58	227.67
400.95	227.56
401.33	227.63
401.70	227.91
402.08	228.10
402.45	228.26
402.83	228.29
403.20	228.47
403.58	228.62
403.95	228.77
404.33	229.01
404.71	229.11
405.08	229.33
405.46	229.58
405.83	229.82
406.21	230.00
406.58	230.24
406.96	230.31
407.33	230.66
407.70	230.91
408.08	231.45
408.45	231.79
408.83	232.23
409.20	232.53
409.58	232.81
409.95	233.26
410.33	233.60
410.70	233.97
411.08	234.39
411.45	234.78
411.82	235.13
412.20	235.59
412.57	236.17
412.95	236.60
413.32	237.21
413.69	237.71
414.07	238.23
414.44	238.94
414.82	239.67
415.19	240.30
415.56	241.06
415.94	241.63
416.31	242.62
416.68	243.48
417.06	244.56
417.43	245.52
417.81	246.52
418.18	247.66
418.55	248.79
418.93	250.07
419.30	251.35
419.67	252.74
420.04	254.08
420.42	255.55
420.79	257.31
421.16	259.04
421.54	261.01
421.91	262.92
422.28	264.74
422.66	266.75
423.03	268.74
423.40	270.93
423.77	273.19
424.15	275.38
424.52	277.62
424.89	279.99
425.26	282.41
425.64	284.80
426.01	287.32
426.38	290.09
426.75	292.70
427.13	295.45
427.50	298.37
427.87	301.51
428.24	304.51
428.61	307.30
428.99	310.45
429.36	313.69
429.73	317.12
430.10	320.56
430.47	324.10
430.85	327.52
431.22	331.18
431.59	335.09
431.96	338.80
432.33	343.04
432.70	347.09
433.08	351.70
433.45	355.96
433.82	360.44
434.19	365.28
434.56	370.00
434.93	374.61
435.30	379.17
435.68	384.08
436.05	388.92
436.42	393.74
436.79	398.19
437.16	403.06
437.53	408.05
437.90	413.01
438.27	417.84
438.64	423.04
439.01	427.81
439.38	432.00
439.75	435.92
440.13	440.45
440.50	444.99
440.87	448.70
441.24	452.58
441.61	456.57
441.98	459.57
442.35	463.05
442.72	466.71
443.09	470.37
443.46	472.53
443.83	474.14
444.20	475.47
444.57	477.37
444.94	478.16
445.31	479.32
445.68	480.57
446.05	481.32
446.42	481.24
446.79	481.04
447.16	480.97
447.53	481.26
447.90	479.95
448.27	478.46
448.64	476.25
449.01	474.94
449.37	472.06
449.74	469.41
450.11	466.40
450.48	462.61
450.85	458.63
451.22	455.54
451.59	452.49
451.96	449.78
452.33	445.83
452.70	442.37
453.07	437.84
453.43	433.00
453.80	428.36
454.17	424.09
454.54	420.08
454.91	415.49
455.28	410.97
455.65	406.90
456.02	402.85
456.38	399.30
456.75	394.68
457.12	391.02
457.49	387.21
457.86	383.40
458.23	380.45
458.59	377.00
458.96	373.48
459.33	370.50
459.70	367.27
460.07	364.76
460.43	361.90
460.80	359.16
461.17	356.85
461.54	354.30
461.91	351.82
462.27	349.30
462.64	347.12
463.01	344.72
463.38	342.61
463.74	340.22
464.11	338.18
464.48	336.38
464.85	334.36
465.21	332.76
465.58	331.10
465.95	329.05
466.32	327.42
466.68	325.81
467.05	324.02
467.42	322.36
467.78	320.39
468.15	318.80
468.52	317.55
468.88	315.79
469.25	314.45
469.62	313.28
469.98	311.98
470.35	310.75
470.72	309.53
471.08	308.02
471.45	306.88
471.82	305.77
472.18	304.73
472.55	303.90
472.92	302.94
473.28	302.10
473.65	301.20
474.02	300.30
474.38	299.52
474.75	298.87
475.11	298.20
475.48	297.71
475.85	297.06
476.21	296.36
476.58	295.91
476.94	295.27
477.31	294.72
477.67	294.08
478.04	293.67
478.41	293.31
478.77	293.21
479.14	292.86
479.50	292.46
479.87	292.08
480.23	291.85
480.60	291.51
480.96	291.19
481.33	291.00
481.69	290.87
482.06	290.60
482.42	290.35
482.79	290.11
483.15	290.04
483.52	290.00
483.88	289.95
484.25	289.99
484.61	290.05
484.98	290.00
485.34	290.12
485.71	290.22
486.07	290.35
486.44	290.20
486.80	290.32
487.17	290.54
487.53	290.80
487.90	291.11
488.26	291.52
488.62	291.88
488.99	292.26
489.35	292.50
489.72	292.83
490.08	293.10
490.44	293.48
490.81	293.83
491.17	294.26
491.54	294.68
491.90	295.03
492.26	295.52
492.63	295.90
492.99	296.40
493.36	296.85
493.72	297.26
494.08	297.83
494.45	298.36
494.81	298.83
495.17	299.33
495.54	299.83
495.90	300.40
496.26	300.83
496.63	301.24
496.99	301.79
497.35	302.41
497.72	303.06
498.08	303.62
498.44	304.20
498.80	304.75
499.17	305.24
499.53	305.75
499.89	306.30
500.26	306.86
500.62	307.27
500.98	307.83
501.34	308.28
501.71	308.72
502.07	309.10
502.43	309.60
502.79	309.97
503.16	310.40
503.52	310.70
503.88	311.10
504.24	311.39
504.60	311.66
504.97	311.98
505.33	312.27
505.69	312.64
506.05	312.81
506.41	313.01
506.78	313.30
507.14	313.53
507.50	313.78
507.86	314.12
508.22	314.40
508.59	314.52
508.95	314.73
509.31	315.03
509.67	315.22
510.03	315.34
510.39	315.54
510.75	315.47
511.12	315.54
511.48	315.69
511.84	315.92
512.20	316.09
512.56	316.21
512.92	316.41
513.28	316.51
513.64	316.75
514.00	316.97
514.37	317.03
514.73	317.23
515.09	317.39
515.45	317.54
515.81	317.81
516.17	318.11
516.53	318.47
516.89	318.64
517.25	319.10
517.61	319.60
517.97	320.06
518.33	320.75
518.69	321.41
519.05	321.92
519.41	322.57
519.77	323.40
520.13	324.12
520.49	324.90
520.85	325.80
521.21	326.79
521.57	327.75
521.93	328.95
522.29	330.01
522.65	331.30
523.01	332.55
523.37	333.83
523.73	335.19
524.09	336.62
524.45	338.13
524.81	339.72
525.17	341.40
525.53	343.12
525.89	344.80
526.25	346.52
526.61	348.50
526.97	350.44
527.33	352.40
527.68	354.70
528.04	356.89
528.40	359.10
528.76	361.49
529.12	363.96
529.48	366.52
529.84	369.29
530.20	372.01
530.56	374.90
530.91	377.84
531.27	380.79
531.63	383.89
531.99	386.99
532.35	390.18
532.71	393.30
533.07	396.65
533.42	400.29
533.78	403.85
534.14	407.40
534.50	411.09
534.86	414.92
535.21	418.55
535.57	422.47
535.93	426.58
536.29	430.67
536.65	434.78
537.00	438.80
537.36	442.97
537.72	447.09
538.08	451.35
538.44	455.70
538.79	460.25
539.15	464.60
539.51	469.15
539.87	473.87
540.22	478.55
540.58	483.48
540.94	488.15
541.29	492.94
541.65	497.60
542.01	502.53
542.37	507.36
542.72	512.47
543.08	517.41
543.44	522.26
543.79	526.88
544.15	531.89
544.51	536.96
544.87	541.94
545.22	547.07
545.58	552.18
545.94	557.05
546.29	562.13
546.65	567.41
547.01	572.52
547.36	577.36
547.72	582.73
548.07	587.56
548.43	592.45
548.79	597.65
549.14	602.68
549.50	607.89
549.86	612.82
550.21	617.70
550.57	622.98
550.92	627.95
551.28	633.25
551.64	638.44
551.99	643.69
552.35	648.85
552.70	654.08
553.06	659.20
553.41	664.60
553.77	669.71
554.13	674.78
554.48	679.90
554.84	685.00
555.19	689.80
555.55	694.95
555.90	699.89
556.26	704.65
556.61	709.65
556.97	714.43
557.32	719.58
557.68	724.52
558.03	729.19
558.39	734.13
558.74	739.14
559.10	743.88
559.45	748.49
559.81	753.10
560.16	757.46
560.52	762.11
560.87	766.54
561.23	771.00
561.58	775.32
561.94	779.66
562.29	783.76
562.64	788.14
563.00	792.39
563.35	797.09
563.71	801.69
564.06	806.29
564.42	810.39
564.77	814.49
565.12	818.62
565.48	822.91
565.83	826.89
566.19	830.94
566.54	834.87
566.89	838.84
567.25	842.75
567.60	847.01
567.96	850.79
568.31	854.67
568.66	858.33
569.02	862.09
569.37	865.83
569.72	869.47
570.08	872.85
570.43	876.27
570.78	879.16
571.14	881.78
571.49	884.50
571.84	887.88
572.20	890.68
572.55	893.60
572.90	896.06
573.26	898.90
573.61	901.27
573.96	903.68
574.31	905.79
574.67	907.78
575.02	909.30
575.37	911.12
575.72	912.67
576.08	914.52
576.43	916.11
576.78	917.71
577.13	919.49
577.49	921.26
577.84	922.87
578.19	924.28
578.54	925.62
578.90	926.90
579.25	927.57
579.60	928.56
579.95	929.20
580.30	930.20
580.66	930.65
581.01	931.21
581.36	931.94
581.71	932.90
582.06	934.29
582.42	935.10
582.77	935.74
583.12	936.06
583.47	936.50
583.82	937.10
584.17	937.17
584.53	937.55
584.88	937.73
585.23	937.82
585.58	938.08
585.93	938.30
586.28	938.74
586.63	939.23
586.98	939.51
587.34	939.94
587.69	939.98
588.04	940.33
588.39	940.57
588.74	939.98
589.09	939.43
589.44	938.43
589.79	938.17
590.14	938.16
590.49	938.01
590.84	937.49
591.19	936.96
591.54	936.40
591.89	935.32
592.25	934.62
592.60	933.41
592.95	932.41
593.30	931.82
593.65	930.56
594.00	929.49
594.35	929.21
594.70	927.81
595.05	926.52
595.40	925.20
595.75	923.56
596.10	922.95
596.45	922.21
596.80	921.35
597.15	920.33
597.50	918.93
597.85	917.96
598.19	916.80
598.54	915.75
598.89	914.60
599.24	914.11
599.59	912.68
599.94	911.52
600.29	910.18
600.64	908.60
600.99	907.16
601.34	905.68
601.69	903.26
602.04	901.91
602.39	900.60
602.74	899.44
603.08	898.22
603.43	896.76
603.78	894.84
604.13	893.21
604.48	891.80
604.83	889.99
605.18	888.24
605.53	886.32
605.87	884.20
606.22	882.47
606.57	879.98
606.92	878.13
607.27	876.66
607.62	875.10
607.96	873.35
608.31	871.63
608.66	869.54
609.01	867.36
609.36	864.97
609.70	862.23
610.05	859.50
610.40	857.29
610.75	854.87
611.10	852.61
611.44	849.69
611.79	846.85
612.14	844.34
612.49	841.52
612.83	839.03
613.18	836.46
613.53	833.86
613.88	831.30
614.22	828.44
614.57	825.41
614.92	822.58
615.27	819.93
615.61	817.04
615.96	814.20
616.31	811.74
616.65	809.56
617.00	807.36
617.35	804.74
617.70	801.78
618.04	798.67
618.39	795.75
618.74	793.45
619.08	790.46
619.43	787.88
619.78	785.30
620.12	782.51
620.47	779.82
620.82	776.83
621.16	774.23
621.51	771.80
621.85	769.16
622.20	766.26
622.55	763.26
622.89	760.40
623.24	757.92
623.59	755.31
623.93	752.34
624.28	749.70
624.62	747.26
624.97	744.80
625.32	742.28
625.66	739.97
626.01	737.41
626.35	734.69
626.70	731.60
627.04	728.99
627.39	726.30
627.73	723.27
628.08	720.60
628.43	717.49
628.77	714.62
629.12	711.86
629.46	709.02
629.81	706.02
630.15	703.25
630.50	700.08
630.84	696.91
631.19	694.13
631.53	690.99
631.88	687.74
632.22	684.50
632.57	681.59
632.91	678.37
633.26	675.19
633.60	672.29
633.95	669.66
634.29	666.58
634.64	664.08
634.98	661.24
635.32	658.60
635.67	656.05
636.01	653.30
636.36	650.44
636.70	647.89
637.05	645.43
637.39	642.87
637.73	640.50
638.08	638.20
638.42	635.65
638.77	633.08
639.11	630.51
639.45	628.08
639.80	625.33
640.14	622.71
640.49	620.06
640.83	617.53
641.17	614.78
641.52	612.41
641.86	609.38
642.20	606.86
642.55	604.26
642.89	601.81
643.23	599.16
643.58	596.80
643.92	594.10
644.26	591.45
644.61	589.08
644.95	586.49
645.29	583.43
645.64	580.51
645.98	577.90
646.32	575.27
646.66	572.53
647.01	569.90
647.35	567.43
647.69	564.91
648.04	562.55
648.38	560.01
648.72	557.09
649.06	554.41
649.41	551.84
649.75	549.00
650.09	546.28
650.43	543.51
650.78	540.41
651.12	537.80
651.46	535.50
651.80	532.63
652.14	529.98
652.49	527.71
652.83	525.27
653.17	522.67
653.51	520.17
653.85	517.76
654.20	515.28
654.54	512.65
654.88	509.96
655.22	507.19
655.56	504.60
655.90	502.20
656.25	499.94
656.59	497.57
656.93	495.10
657.27	492.89
657.61	490.42
657.95	488.36
658.29	486.10
658.64	483.54
658.98	481.10
659.32	478.51
659.66	476.09
660.00	473.88
660.34	471.66
660.68	469.25
661.02	466.85
661.36	464.65
661.70	462.47
662.05	460.32
662.39	458.50
662.73	456.53
663.07	454.60
663.41	452.55
663.75	450.40
664.09	448.45
664.43	446.14
664.77	444.24
665.11	442.31
665.45	440.30
665.79	438.35
666.13	436.45
666.47	434.67
666.81	432.66
667.15	430.40
667.49	428.54
667.83	426.78
668.17	425.12
668.51	423.26
668.85	421.45
669.19	419.99
669.53	417.95
669.87	415.92
670.21	414.06
670.55	412.26
670.89	410.71
671.23	409.01
671.57	407.35
671.91	405.77
672.25	404.09
672.58	402.47
672.92	400.82
673.26	399.40
673.60	397.79
673.94	396.44
674.28	395.34
674.62	393.93
674.96	392.40
675.30	390.90
675.64	389.52
675.97	388.17
676.31	386.60
676.65	385.27
676.99	384.16
677.33	382.79
677.67	381.35
678.01	379.78
678.34	378.42
678.68	377.06
679.02	375.61
679.36	374.20
679.70	372.82
680.04	371.50
680.37	370.14
680.71	368.91
681.05	367.62
681.39	366.27
681.73	365.06
682.06	364.03
682.40	362.84
682.74	361.60
683.08	360.36
683.42	359.01
683.75	357.72
684.09	356.33
684.43	355.02
684.77	353.83
685.10	352.73
685.44	351.62
685.78	350.52
686.12	349.32
686.45	348.12
686.79	346.86
687.13	345.65
687.46	344.48
687.80	343.36
688.14	342.07
688.48	340.91
688.81	339.54
689.15	338.21
689.49	337.10
689.82	335.95
690.16	334.77
690.50	333.86
690.83	332.86
691.17	331.69
691.51	330.60
691.84	329.61
692.18	328.64
692.52	327.55
692.85	326.43
693.19	325.47
693.52	324.46
693.86	323.57
694.20	322.54
694.53	321.49
694.87	320.43
695.21	319.41
695.54	318.31
695.88	317.38
696.21	316.29
696.55	315.14
696.88	314.20
697.22	313.24
697.56	312.25
697.89	311.17
698.23	310.29
698.56	309.40
698.90	308.32
699.23	307.20
699.57	306.28
699.90	305.36
700.24	304.38
700.58	303.42
700.91	302.50
701.25	301.75
701.58	301.00
701.92	300.09
702.25	299.30
702.59	298.51
702.92	297.78
703.26	297.02
703.59	296.29
703.93	295.58
704.26	294.85
704.60	294.02
704.93	293.32
705.26	292.62
705.60	291.92
705.93	291.28
706.27	290.64
706.60	290.01
706.94	289.48
707.27	288.81
707.61	288.30
707.94	287.67
708.27	286.83
708.61	286.13
708.94	285.56
709.28	284.93
709.61	284.38
709.94	283.80
710.28	283.35
710.61	282.75
710.95	282.03
711.28	281.52
711.61	280.94
711.95	280.35
712.28	279.66
712.61	279.11
712.95	278.63
713.28	278.23
713.61	277.62
713.95	276.99
714.28	276.48
714.61	275.76
714.95	275.25
715.28	274.85
715.61	274.20
715.95	273.62
716.28	273.11
716.61	272.49
716.95	271.94
717.28	271.40
717.61	271.00
717.94	270.52
718.28	270.02
718.61	269.49
718.94	269.03
719.27	268.74
719.61	268.25
719.94	267.72
720.27	267.21
720.60	266.79
720.94	266.48
721.27	266.14
721.60	265.97
721.93	265.60
722.27	265.31
722.60	265.08
722.93	264.70
723.26	264.35
723.59	264.09
723.93	263.79
724.26	263.58
724.59	263.25
724.92	262.92
725.25	262.54
725.59	262.26
725.92	261.87
726.25	261.51
726.58	261.23
726.91	260.90
727.24	260.58
727.57	260.32
727.91	259.95
728.24	259.62
728.57	259.27
728.90	259.06
729.23	258.73
729.56	258.46
729.89	258.26
730.22	257.99
730.55	257.62
730.89	257.25
731.22	257.00
731.55	256.78
731.88	256.50
732.21	256.19
732.54	256.03
732.87	255.88
733.20	255.58
733.53	255.42
733.86	255.33
734.19	255.13
734.52	255.00
734.85	254.86
735.18	254.60
735.51	254.36
735.84	254.00
736.17	253.80
736.50	253.43
736.83	253.39
737.16	253.13
737.49	252.95
737.82	252.74
738.15	252.44
738.48	252.02
738.81	251.73
739.14	251.52
739.47	251.09
739.80	250.83
740.13	250.67
740.46	250.27
740.79	249.88
741.12	249.70
741.45	249.38
741.78	249.09
742.11	248.76
742.44	248.42
742.77	248.22
743.10	247.81
743.43	247.58
743.75	247.22
744.08	247.18
744.41	246.88
744.74	246.60
745.07	246.25
745.40	246.17
745.73	246.05
746.06	245.78
746.39	245.59
746.71	245.31
747.04	245.16
747.37	245.00
747.70	244.80
748.03	244.54
748.36	244.40
748.68	244.14
749.01	243.96
749.34	243.79
749.67	243.63
750.00	243.51
750.33	243.36
750.65	243.02
750.98	242.60
751.31	242.52
751.64	242.44
751.97	242.44
752.29	242.17
752.62	241.93
752.95	241.87
753.28	241.80
753.60	241.70
753.93	241.41
754.26	241.30
754.59	241.16
754.91	240.86
755.24	240.60
755.57	240.39
755.90	240.31
756.22	240.03
756.55	239.75
756.88	239.56
757.20	239.37
757.53	239.22
757.86	239.19
758.19	239.04
758.51	238.76
758.84	238.54
759.17	238.49
759.49	238.38
759.82	238.30
760.15	238.17
760.47	238.09
760.80	238.03
761.13	237.91
761.45	237.80
761.78	237.83
762.11	237.75
762.43	237.70
762.76	237.62
763.08	237.62
763.41	237.70
763.74	237.68
764.06	237.57
764.39	237.59
764.71	237.42
765.04	237.25
765.37	237.33
765.69	237.16
766.02	237.15
766.34	237.11
766.67	236.97
767.00	236.92
767.32	236.92
767.65	236.97
767.97	236.93
768.30	236.90
768.62	236.75
768.95	236.60
769.27	236.61
769.60	236.50
769.92	236.52
770.25	236.39
770.57	236.33
770.90	236.35
771.22	236.13
771.55	236.09
771.87	236.04
772.20	235.93
772.52	236.16
772.85	236.25
773.17	236.19
773.50	236.06
773.82	236.00
774.15	235.84
774.47	235.68
774.80	235.56
775.12	235.43
775.45	235.41
775.77	235.46
776.09	235.37
776.42	235.31
776.74	235.28
777.07	235.13
777.39	234.98
777.72	234.89
778.04	234.99
778.36	234.98
778.69	234.97
779.01	234.85
779.33	234.57
779.66	234.37
779.98	234.25
780.31	234.30
780.63	234.21
780.95	234.13
781.28	234.06
781.60	234.01
781.92	233.90
782.25	233.80
782.57	233.70
782.89	233.56
783.22	233.49
783.54	233.35
783.86	233.41
784.19	233.35
784.51	233.33
784.83	233.16
785.16	233.14
785.48	233.04
785.80	232.98
786.12	232.99
786.45	232.85
786.77	232.81
787.09	232.57
787.42	232.51
787.74	232.49
788.06	232.49
788.38	232.46
788.71	232.37
789.03	232.33
789.35	232.24
789.67	232.20
789.99	232.18
790.32	232.01
790.64	231.99
790.96	232.10
791.28	231.93
791.61	231.93
791.93	231.79
792.25	231.78
792.57	231.81
792.89	231.61
793.21	231.57
793.54	231.50
793.86	231.57
794.18	231.52
794.50	231.46
794.82	231.38
795.14	231.34
795.47	231.46
795.79	231.39
796.11	231.45
796.43	231.40
796.75	231.36
797.07	231.36
797.39	231.21
797.71	231.13
798.04	231.15
798.36	231.10
798.68	231.17
799.00	231.13
799.32	231.21
799.64	231.39
799.96	231.28
800.28	231.29
800.60	231.17
800.92	231.16
801.24	231.12
801.56	231.07
801.89	230.97
802.21	231.00
802.53	231.02
802.85	230.94
803.17	231.00
803.49	230.94
803.81	231.02
804.13	231.10
804.45	231.06
804.77	231.11
805.09	231.15
805.41	231.12
805.73	231.12
806.05	230.93
806.37	230.76
806.69	230.82
807.01	230.94
807.33	231.06
807.65	231.01
807.97	231.07
808.28	231.06
808.60	231.07
808.92	230.97
809.24	231.02
809.56	230.97
809.88	230.90
810.20	230.92
810.52	230.86
810.84	230.73
811.16	230.64
811.48	230.57
811.80	230.63
812.12	230.60
812.43	230.62
812.75	230.59
813.07	230.59
813.39	230.57
813.71	230.32
814.03	230.30
814.35	230.30
814.67	230.15
814.98	230.09
815.30	230.09
815.62	230.06
815.94	229.92
816.26	230.06
816.58	230.07
816.89	230.10
817.21	230.04
817.53	230.04
817.85	230.11
818.17	230.05
818.48	229.91
818.80	229.80
819.12	229.64
819.44	229.59
819.76	229.55
820.07	229.49
820.39	229.56
820.71	229.43
821.03	229.40
821.34	229.42
821.66	229.37
821.98	229.37
822.30	229.35
822.61	229.40
822.93	229.15
823.25	229.06
823.57	228.93
823.88	228.93
824.20	228.95
824.52	228.86
824.83	228.85
825.15	228.82
825.47	228.86
825.79	228.81
826.10	228.71
826.42	228.67
826.74	228.61
827.05	228.61
827.37	228.61
827.69	228.57
828.00	228.52
828.32	228.59
828.64	228.50
828.95	228.55
829.27	228.52
829.58	228.52
829.90	228.51
830.22	228.55
830.53	228.46
830.85	228.43
831.17	228.37
831.48	228.41
831.80	228.36
832.11	228.45
832.43	228.44
832.75	228.50
833.06	228.55
833.38	228.57
833.69	228.53
834.01	228.51
834.32	228.52
834.64	228.52
834.96	228.49
835.27	228.52
835.59	228.53
835.90	228.60
836.22	228.60
836.53	228.58
836.85	228.60
837.16	228.82
837.48	228.78
837.79	228.94
838.11	228.93
838.42	229.00
838.74	228.92
839.05	229.10
839.37	229.22
839.68	229.26
840.00	229.25
840.31	229.29
840.63	229.29
840.94	229.32
841.26	229.36
841.57	229.37
841.88	229.44
842.20	229.27
842.51	229.12
842.83	229.20
843.14	229.37
843.46	229.31
843.77	229.33
844.08	229.35
844.40	229.21
844.71	229.22
845.03	229.23
845.34	229.23
845.65	229.24
845.97	229.22
846.28	229.17
846.60	229.24
846.91	229.23
847.22	229.30
847.54	229.39
847.85	229.39
848.16	229.39
848.48	229.37
848.79	229.50
849.10	229.66
849.42	229.72
849.73	229.64
850.04	229.71
850.36	229.63
850.67	229.63
850.98	229.69
851.30	229.72
851.61	229.65
851.92	229.61
852.23	229.60
852.55	229.61
852.86	229.70
853.17	229.63
853.49	229.74
853.80	229.74
854.11	229.71
854.42	229.66
854.74	229.56
855.05	229.53
855.36	229.41
855.67	229.36
855.99	229.41
856.30	229.63
856.61	229.55
856.92	229.45
857.23	229.49
857.55	229.48
857.86	229.40
858.17	229.43
858.48	229.40
858.79	229.34
859.11	229.28
859.42	229.15
859.73	229.15
860.04	229.06
860.35	228.95
860.66	228.87
860.98	228.89
861.29	228.98
861.60	228.92
861.91	228.95
862.22	228.87
862.53	228.66
862.84	228.32
863.16	228.30
863.47	228.24
863.78	228.17
864.09	228.12
864.40	228.18
864.71	228.20
865.02	228.28
865.33	228.23
865.64	228.16
865.95	228.17
866.27	228.27
866.58	228.22
866.89	228.30
867.20	228.28
867.51	228.14
867.82	228.09
868.13	228.13
868.44	228.25
868.75	228.28
869.06	228.29
869.37	228.37
869.68	228.39
869.99	228.45
870.30	228.42
870.61	228.43
870.92	228.33
871.23	228.35
871.54	228.31
871.85	228.40
872.16	228.42
872.47	228.40
872.78	228.20
873.09	228.22
873.40	228.14
873.71	228.20
874.02	228.32
874.33	228.33
874.64	228.34
874.95	228.37
875.26	228.35
875.56	228.39
875.87	228.34
876.18	228.34
876.49	228.58
876.80	228.66
877.11	228.67
877.42	228.64
877.73	228.61
878.04	228.66
878.35	228.61
878.66	228.76
878.96	228.80
879.27	229.02
879.58	229.15
879.89	229.26
880.20	229.22
880.51	229.32
880.82	229.33
881.12	229.35
881.43	229.25
881.74	229.33
882.05	229.41
882.36	229.49
882.67	229.62
882.97	229.44
883.28	229.44
883.59	229.48
883.90	229.66
884.21	229.80
884.51	229.82
884.82	229.80
885.13	229.76
885.44	229.82
885.74	229.69
886.05	229.66
886.36	229.63
886.67	229.68
886.98	229.75
887.28	229.80
887.59	229.84
887.90	229.92
888.20	229.89
888.51	229.90
888.82	229.85
889.13	229.83
889.43	229.97
889.74	229.91
890.05	229.90
890.35	229.80
890.66	229.74
890.97	229.75
891.28	229.72
891.58	229.64
891.89	229.61
892.20	229.65
892.50	229.58
892.81	229.45
893.12	229.30
893.42	229.12
893.73	229.13
894.04	229.10
894.34	229.07
894.65	228.99
894.95	228.90
895.26	228.96
895.57	228.89
895.87	228.60
896.18	228.67
896.48	228.59
896.79	228.56
897.10	228.47
897.40	228.43
897.71	228.44
898.01	228.55
898.32	228.49
898.63	228.47
898.93	228.36
899.24	228.38
899.54	228.46
899.85	228.50
900.15	228.49
900.46	228.39
900.76	228.37
901.07	228.35
901.38	228.35
901.68	228.28
901.99	228.20
902.29	228.18
902.60	228.07
902.90	228.10
903.21	228.05
903.51	228.05
903.82	227.99
904.12	227.97
904.43	227.86
904.73	227.84
905.03	227.84
905.34	228.16
905.64	228.20
905.95	228.11
906.25	228.05
906.56	227.97
906.86	228.05
907.17	227.92
907.47	227.87
907.77	227.84
908.08	227.80
908.38	227.80
908.69	227.92
908.99	227.95
909.30	227.96
909.60	227.97
909.90	227.90
910.21	227.87
910.51	227.83
910.81	227.80
911.12	227.90
911.42	227.81
911.73	227.43
912.03	227.40
912.33	227.50
912.64	227.50
912.94	227.58
913.24	227.51
913.55	227.54
913.85	227.55
914.15	227.60
914.46	227.64
914.76	227.71
915.06	227.62
915.37	227.56
915.67	227.59
915.97	227.68
916.27	227.70
916.58	227.78
916.88	227.78
917.18	227.93
917.49	228.04
917.79	228.12
918.09	228.31
918.39	228.47
918.70	228.42
919.00	228.41
919.30	228.64
919.60	228.72
919.91	228.79
920.21	228.90
920.51	228.92
920.81	228.91
921.12	229.01
921.42	229.17
921.72	229.31
922.02	229.34
922.32	229.36
922.63	229.38
922.93	229.56
923.23	229.55
923.53	229.43
923.83	229.23
924.13	229.24
924.44	229.21
924.74	229.13
925.04	229.23
925.34	229.32
925.64	229.13
925.94	229.11
926.24	229.20
926.55	229.17
926.85	229.16
927.15	229.14
927.45	229.00
927.75	228.99
928.05	228.96
928.35	228.90
928.65	228.86
928.95	228.88
929.26	228.55
929.56	228.67
929.86	228.71
930.16	228.80
930.46	228.73
930.76	228.71
931.06	228.64
931.36	228.55
931.66	228.50
931.96	228.48
932.26	228.47
932.56	228.40
932.86	228.33
933.16	228.29
933.46	228.35
933.76	228.36
934.06	228.35
934.36	228.39
934.66	228.32
934.96	228.30
935.26	228.15
935.56	228.31
935.86	228.23
936.16	228.24
936.46	228.12
936.76	228.10
937.06	228.10
937.36	228.11
937.66	228.12
937.96	228.20
938.26	228.13
938.56	228.06
938.86	228.02
939.16	228.09
939.46	228.22
939.76	228.18
940.06	228.04
940.35	227.97
940.65	227.87
940.95	227.78
941.25	227.72
941.55	227.81
941.85	227.79
942.15	227.81
942.45	227.67
942.75	227.78
943.04	227.80
943.34	227.82
943.64	227.79
943.94	227.65
944.24	227.46
944.54	227.38
944.84	227.32
945.13	227.24
945.43	227.20
945.73	227.08
946.03	227.01
946.33	227.10
946.62	227.10
946.92	227.15
947.22	227.24
947.52	227.25
947.82	227.36
948.11	227.28
948.41	227.20
948.71	227.28
949.01	227.22
949.31	227.20
949.60	227.12
949.90	227.24
950.20	227.23
950.50	227.42
950.79	227.54
951.09	227.64
951.39	227.61
951.69	227.64
951.98	227.70
952.28	227.76
952.58	227.78
952.87	227.81
953.17	227.90
953.47	227.89
953.76	227.99
954.06	227.91
954.36	228.02
954.66	228.00
954.95	228.15
955.25	228.17
955.55	228.21
955.84	228.28
956.14	228.34
956.44	228.50
956.73	228.50
957.03	228.48
957.32	228.48
957.62	228.52
957.92	228.56
958.21	228.62
958.51	228.85
958.81	228.89
959.10	228.90
959.40	228.97
959.69	229.10
959.99	229.14
960.29	229.25
960.58	229.28
960.88	229.45
961.17	229.33
961.47	229.42
961.76	229.49
962.06	229.53
962.36	229.44
962.65	229.42
962.95	229.46
963.24	229.50
963.54	229.49
963.83	229.62
964.13	229.64
964.42	229.61
964.72	229.45
965.01	229.52
965.31	229.60
965.60	229.39
965.90	229.40
966.19	229.39
966.49	229.31
966.78	229.26
967.08	229.29
967.37	229.43
967.67	229.36
967.96	229.37
968.26	229.36
968.55	229.41
968.85	229.41
969.14	229.40
969.43	229.39
969.73	229.45
970.02	229.38
970.32	229.38
970.61	229.25
970.91	229.24
971.20	229.17
971.49	229.06
971.79	229.20
972.08	229.07
972.38	228.97
972.67	228.94
972.96	228.91
973.26	228.84
973.55	228.77
973.85	228.63
974.14	228.57
974.43	228.58
974.73	228.48
975.02	228.45
975.31	228.35
975.61	228.28
975.90	228.28
976.19	228.26
976.49	228.14
976.78	228.14
977.07	228.11
977.37	227.99
977.66	228.00
977.95	227.83
978.24	227.78
978.54	227.79
978.83	227.70
979.12	227.60
979.42	227.53
979.71	227.46
980.00	227.40
980.29	227.33
980.59	227.24
980.88	227.14
981.17	227.01
981.46	227.10
981.76	227.06
982.05	227.00
982.34	226.93
982.63	226.94
982.93	226.96
983.22	226.97
983.51	227.02
983.80	227.00
984.09	227.11
984.39	227.13
984.68	227.15
984.97	227.29
985.26	227.31
985.55	227.38
985.85	227.33
986.14	227.41
986.43	227.41
986.72	227.43
987.01	227.49
987.30	227.56
987.59	227.48
987.89	227.49
988.18	227.42
988.47	227.41
988.76	227.42
989.05	227.42
989.34	227.38
989.63	227.46
989.92	227.44
990.22	227.40
990.51	227.48
990.80	227.42
991.09	227.45
991.38	227.54
991.67	227.56
991.96	227.63
992.25	227.77
992.54	227.80
992.83	227.81
993.12	227.95
993.41	228.03
993.70	228.14
993.99	228.21
994.28	228.31
994.58	228.49
994.87	228.57
995.16	228.67
995.45	228.71
995.74	228.67
996.03	228.76
996.32	228.84
996.61	228.85
996.90	228.85
997.19	228.89
997.48	228.92
997.77	228.90
998.06	228.88
998.34	229.00
998.63	229.06
998.92	229.15
999.21	229.16
999.50	229.17
999.79	229.10
1000.08	229.22
1000.37	229.30
1000.66	229.26
1000.95	229.26
1001.24	229.21
1001.53	229.31
1001.82	229.30
1002.11	229.21
1002.40	229.29
1002.68	229.36
1002.97	229.62
1003.26	229.48
1003.55	229.47
1003.84	229.45
1004.13	229.46
1004.42	229.43
1004.71	229.40
1004.99	229.38
1005.28	229.37
1005.57	229.36
1005.86	229.35
1006.15	229.31
1006.44	229.22
1006.72	229.22
1007.01	229.27
1007.30	229.32
1007.59	229.25
1007.88	229.25
1008.17	229.36
1008.45	229.25
1008.74	229.16
1009.03	229.06
1009.32	229.12
1009.60	229.10
1009.89	229.13
1010.18	229.11
1010.47	229.02
1010.76	228.96
1011.04	228.90
1011.33	228.85
1011.62	228.81
1011.91	228.81
1012.19	228.69
1012.48	228.69
1012.77	228.61
1013.05	228.48
1013.34	228.37
1013.63	228.32
1013.92	228.33
1014.20	228.28
1014.49	228.18
1014.78	228.12
1015.06	227.96
1015.35	227.84
1015.64	227.85
1015.92	227.74
1016.21	227.69
1016.50	227.60
1016.78	227.60
1017.07	227.61
1017.36	227.52
1017.64	227.52
1017.93	227.45
1018.22	227.38
1018.50	227.31
1018.79	227.28
1019.08	227.25
1019.36	227.24
1019.65	227.17
1019.93	227.15
1020.22	227.03
1020.51	227.15
1020.79	227.06
1021.08	225.70
1021.36	227.10
1021.65	226.80
1021.94	226.70
1022.22	226.90
1022.51	226.50
1022.79	227.50
1023.08	226.20
1023.36	229.10
1023.65	225.90
>>>>>End Processed Spectral Data<<<<<
