SpectraSuite Data File
++++++++++++++++++++++++++++++++++++
Date: Fri Feb 01 14:40:26 EST 2013
User: group
Dark Spectrum Present: No
Reference Spectrum Present: No
Number of Sampled Component Spectra: 1
Spectrometers: USB2E7196
Integration Time (usec): 70000 (USB2E7196)
Spectra Averaged: 10 (USB2E7196)
Boxcar Smoothing: 10 (USB2E7196)
Correct for Electrical Dark: No (USB2E7196)
Strobe/Lamp Enabled: No (USB2E7196)
Correct for Detector Non-linearity: No (USB2E7196)
Correct for Stray Light: No (USB2E7196)
Number of Pixels in Processed Spectrum: 2048
>>>>>Begin Processed Spectral Data<<<<<
339.09	0.00
339.48	219.10
339.86	217.10
340.24	220.90
340.63	219.90
341.01	224.30
341.39	222.00
341.78	225.00
342.16	224.70
342.54	225.20
342.93	214.81
343.31	225.68
343.69	226.10
344.07	226.64
344.46	226.93
344.84	227.23
345.22	227.35
345.60	227.57
345.99	227.67
346.37	227.85
346.75	227.95
347.13	228.02
347.52	228.10
347.90	228.23
348.28	228.23
348.66	228.15
349.05	228.15
349.43	228.27
349.81	228.30
350.19	228.29
350.57	228.37
350.96	228.39
351.34	228.44
351.72	228.40
352.10	228.41
352.48	228.58
352.87	228.74
353.25	228.94
353.63	229.04
354.01	229.10
354.39	229.20
354.77	229.29
355.15	229.40
355.54	229.48
355.92	229.47
356.30	229.66
356.68	229.84
357.06	229.88
357.44	229.84
357.82	229.79
358.20	229.84
358.58	229.89
358.97	229.92
359.35	230.04
359.73	230.25
360.11	230.32
360.49	230.34
360.87	230.36
361.25	230.34
361.63	230.45
362.01	230.63
362.39	230.59
362.77	230.63
363.15	230.57
363.53	230.71
363.91	230.70
364.29	230.58
364.67	230.48
365.05	230.56
365.43	230.59
365.81	230.71
366.19	230.91
366.57	230.97
366.95	230.97
367.33	230.88
367.71	230.87
368.09	230.82
368.47	230.77
368.85	230.79
369.23	230.79
369.61	230.79
369.99	230.81
370.37	230.73
370.75	230.76
371.13	230.71
371.51	230.62
371.89	230.62
372.27	230.61
372.65	230.49
373.03	230.39
373.41	230.30
373.78	230.06
374.16	229.88
374.54	229.77
374.92	229.60
375.30	229.56
375.68	229.40
376.06	229.41
376.44	229.24
376.82	229.13
377.19	229.11
377.57	229.01
377.95	228.80
378.33	228.71
378.71	228.52
379.09	228.41
379.47	228.26
379.84	228.20
380.22	228.09
380.60	227.96
380.98	227.84
381.36	227.76
381.73	227.71
382.11	227.61
382.49	227.51
382.87	227.41
383.25	227.32
383.62	227.52
384.00	227.41
384.38	227.38
384.76	227.27
385.13	227.28
385.51	227.21
385.89	227.12
386.27	227.17
386.64	227.22
387.02	227.18
387.40	227.14
387.78	227.01
388.15	227.02
388.53	227.11
388.91	227.12
389.29	227.11
389.66	227.18
390.04	227.10
390.42	227.13
390.79	227.11
391.17	227.14
391.55	226.81
391.92	226.77
392.30	226.88
392.68	226.92
393.05	226.76
393.43	226.67
393.81	226.68
394.18	226.64
394.56	226.54
394.94	226.66
395.31	226.60
395.69	226.66
396.06	226.68
396.44	226.58
396.82	226.56
397.19	226.65
397.57	226.74
397.95	226.80
398.32	226.74
398.70	226.90
399.07	226.93
399.45	227.08
399.82	227.18
400.20	227.15
400.58	227.14
400.95	227.22
401.33	227.39
401.70	227.60
402.08	227.66
402.45	227.83
402.83	227.92
403.20	228.12
403.58	228.14
403.95	228.13
404.33	228.45
404.71	228.74
405.08	229.02
405.46	229.06
405.83	229.35
406.21	229.53
406.58	229.71
406.96	229.86
407.33	230.05
407.70	230.24
408.08	230.57
408.45	230.96
408.83	231.15
409.20	231.29
409.58	231.41
409.95	231.75
410.33	232.13
410.70	232.42
411.08	232.80
411.45	233.14
411.82	233.58
412.20	233.93
412.57	234.30
412.95	234.58
413.32	235.03
413.69	235.34
414.07	235.78
414.44	236.17
414.82	236.76
415.19	237.31
415.56	237.83
415.94	238.44
416.31	239.02
416.68	239.75
417.06	240.50
417.43	241.10
417.81	241.88
418.18	242.53
418.55	243.24
418.93	244.00
419.30	244.80
419.67	245.75
420.04	246.66
420.42	247.53
420.79	248.67
421.16	249.86
421.54	251.07
421.91	252.30
422.28	253.52
422.66	254.80
423.03	256.15
423.40	257.50
423.77	258.85
424.15	260.20
424.52	261.77
424.89	263.30
425.26	264.88
425.64	266.24
426.01	267.92
426.38	269.57
426.75	271.25
427.13	273.09
427.50	274.80
427.87	276.62
428.24	278.53
428.61	280.28
428.99	282.20
429.36	284.26
429.73	286.33
430.10	288.33
430.47	290.30
430.85	292.23
431.22	294.30
431.59	296.76
431.96	299.02
432.33	301.41
432.70	303.92
433.08	306.78
433.45	309.44
433.82	311.92
434.19	314.97
434.56	317.82
434.93	320.50
435.30	323.28
435.68	326.04
436.05	328.87
436.42	331.51
436.79	333.97
437.16	336.65
437.53	339.49
437.90	342.49
438.27	345.22
438.64	348.15
439.01	350.79
439.38	352.89
439.75	355.06
440.13	357.63
440.50	359.90
440.87	361.70
441.24	363.78
441.61	365.92
441.98	367.29
442.35	369.05
442.72	370.81
443.09	372.62
443.46	373.71
443.83	374.34
444.20	375.03
444.57	375.81
444.94	376.14
445.31	376.55
445.68	377.13
446.05	377.29
446.42	376.91
446.79	376.72
447.16	376.25
447.53	376.06
447.90	374.84
448.27	373.78
448.64	372.28
449.01	371.01
449.37	369.22
449.74	367.40
450.11	365.37
450.48	362.87
450.85	360.36
451.22	358.23
451.59	356.20
451.96	354.27
452.33	351.78
452.70	349.44
453.07	346.58
453.43	343.43
453.80	340.69
454.17	338.19
454.54	335.51
454.91	332.82
455.28	329.94
455.65	327.40
456.02	325.10
456.38	322.96
456.75	320.33
457.12	318.06
457.49	315.94
457.86	313.65
458.23	311.94
458.59	309.76
458.96	307.74
459.33	305.91
459.70	303.96
460.07	302.42
460.43	300.65
460.80	298.98
461.17	297.50
461.54	296.00
461.91	294.44
462.27	293.01
462.64	291.74
463.01	290.47
463.38	289.14
463.74	287.47
464.11	286.23
464.48	285.28
464.85	284.05
465.21	283.08
465.58	282.07
465.95	280.89
466.32	279.91
466.68	278.90
467.05	277.89
467.42	276.84
467.78	275.86
468.15	274.90
468.52	274.12
468.88	273.13
469.25	272.20
469.62	271.41
469.98	270.61
470.35	269.88
470.72	269.13
471.08	268.29
471.45	267.70
471.82	267.01
472.18	266.18
472.55	265.57
472.92	264.84
473.28	264.19
473.65	263.64
474.02	263.06
474.38	262.47
474.75	261.92
475.11	261.56
475.48	261.23
475.85	260.84
476.21	260.48
476.58	260.16
476.94	259.88
477.31	259.52
477.67	259.23
478.04	259.00
478.41	258.75
478.77	258.75
479.14	258.42
479.50	258.22
479.87	258.04
480.23	257.85
480.60	257.66
480.96	257.48
481.33	257.34
481.69	257.26
482.06	257.10
482.42	257.03
482.79	256.99
483.15	256.80
483.52	256.78
483.88	256.74
484.25	256.62
484.61	256.60
484.98	256.59
485.34	256.70
485.71	256.70
486.07	256.80
486.44	256.85
486.80	257.07
487.17	257.21
487.53	257.31
487.90	257.60
488.26	257.91
488.62	258.16
488.99	258.38
489.35	258.71
489.72	259.18
490.08	259.55
490.44	259.83
490.81	260.27
491.17	260.80
491.54	261.27
491.90	261.86
492.26	262.37
492.63	262.97
492.99	263.50
493.36	264.21
493.72	264.92
494.08	265.61
494.45	266.28
494.81	267.19
495.17	268.08
495.54	269.00
495.90	269.84
496.26	270.92
496.63	272.08
496.99	273.18
497.35	274.40
497.72	275.69
498.08	277.01
498.44	278.51
498.80	279.98
499.17	281.50
499.53	283.07
499.89	284.70
500.26	286.46
500.62	288.31
500.98	290.28
501.34	292.24
501.71	294.37
502.07	296.61
502.43	298.89
502.79	301.30
503.16	303.83
503.52	306.49
503.88	309.11
504.24	311.86
504.60	314.75
504.97	317.93
505.33	321.16
505.69	324.61
506.05	327.94
506.41	331.47
506.78	335.06
507.14	338.99
507.50	343.18
507.86	347.32
508.22	351.47
508.59	355.62
508.95	360.27
509.31	364.92
509.67	369.84
510.03	374.73
510.39	379.89
510.75	385.24
511.12	390.71
511.48	396.27
511.84	402.01
512.20	407.90
512.56	413.71
512.92	419.89
513.28	426.21
513.64	432.73
514.00	439.29
514.37	446.19
514.73	453.04
515.09	459.83
515.45	467.05
515.81	474.38
516.17	482.06
516.53	489.72
516.89	497.46
517.25	505.31
517.61	513.36
517.97	521.54
518.33	529.61
518.69	538.07
519.05	546.78
519.41	555.63
519.77	564.76
520.13	574.02
520.49	583.20
520.85	592.60
521.21	602.03
521.57	612.19
521.93	621.80
522.29	631.85
522.65	641.73
523.01	651.77
523.37	661.69
523.73	671.90
524.09	682.13
524.45	692.67
524.81	703.30
525.17	714.21
525.53	725.24
525.89	736.46
526.25	747.64
526.61	758.73
526.97	769.90
527.33	781.27
527.68	792.90
528.04	804.33
528.40	815.73
528.76	827.78
529.12	839.07
529.48	851.05
529.84	862.45
530.20	874.56
530.56	886.83
530.91	899.68
531.27	912.04
531.63	924.18
531.99	936.26
532.35	948.37
532.71	960.37
533.07	972.78
533.42	985.22
533.78	997.58
534.14	1009.95
534.50	1022.22
534.86	1034.57
535.21	1046.64
535.57	1059.17
535.93	1071.54
536.29	1083.60
536.65	1095.94
537.00	1108.02
537.36	1120.51
537.72	1132.94
538.08	1145.05
538.44	1156.79
538.79	1168.67
539.15	1180.71
539.51	1192.79
539.87	1205.41
540.22	1217.64
540.58	1229.76
540.94	1240.88
541.29	1252.34
541.65	1263.78
542.01	1275.57
542.37	1287.15
542.72	1298.68
543.08	1309.96
543.44	1321.50
543.79	1332.15
544.15	1343.01
544.51	1354.75
544.87	1365.90
545.22	1376.60
545.58	1387.02
545.94	1397.17
546.29	1407.36
546.65	1417.70
547.01	1427.81
547.36	1436.79
547.72	1446.16
548.07	1455.09
548.43	1465.13
548.79	1474.39
549.14	1483.62
549.50	1492.22
549.86	1500.20
550.21	1508.55
550.57	1516.80
550.92	1524.98
551.28	1533.23
551.64	1541.57
551.99	1549.30
552.35	1557.17
552.70	1564.66
553.06	1572.37
553.41	1580.29
553.77	1587.64
554.13	1595.11
554.48	1602.36
554.84	1610.19
555.19	1617.61
555.55	1624.80
555.90	1631.07
556.26	1637.78
556.61	1644.82
556.97	1651.14
557.32	1658.33
557.68	1664.87
558.03	1671.52
558.39	1677.38
558.74	1684.20
559.10	1690.13
559.45	1696.11
559.81	1702.43
560.16	1708.61
560.52	1714.22
560.87	1719.68
561.23	1724.80
561.58	1730.10
561.94	1735.36
562.29	1739.71
562.64	1743.91
563.00	1748.53
563.35	1754.07
563.71	1759.29
564.06	1763.73
564.42	1768.95
564.77	1773.26
565.12	1777.54
565.48	1781.98
565.83	1786.15
566.19	1789.55
566.54	1793.18
566.89	1796.25
567.25	1799.13
567.60	1802.69
567.96	1805.98
568.31	1809.29
568.66	1812.59
569.02	1815.30
569.37	1817.66
569.72	1820.27
570.08	1822.98
570.43	1825.47
570.78	1827.18
571.14	1828.09
571.49	1829.67
571.84	1831.90
572.20	1833.07
572.55	1834.42
572.90	1834.76
573.26	1835.90
573.61	1837.18
573.96	1838.00
574.31	1838.10
574.67	1837.73
575.02	1836.71
575.37	1836.84
575.72	1835.60
576.08	1835.46
576.43	1834.98
576.78	1834.22
577.13	1834.42
577.49	1834.16
577.84	1832.82
578.19	1831.50
578.54	1830.68
578.90	1829.22
579.25	1826.23
579.60	1824.80
579.95	1822.52
580.30	1820.79
580.66	1818.03
581.01	1815.28
581.36	1813.03
581.71	1811.01
582.06	1808.97
582.42	1806.89
582.77	1803.88
583.12	1801.65
583.47	1799.15
583.82	1796.71
584.17	1794.03
584.53	1791.08
584.88	1788.06
585.23	1785.53
585.58	1782.91
585.93	1780.07
586.28	1777.63
586.63	1775.45
586.98	1772.54
587.34	1769.89
587.69	1766.78
588.04	1764.46
588.39	1761.60
588.74	1757.64
589.09	1753.80
589.44	1750.11
589.79	1746.67
590.14	1743.59
590.49	1739.89
590.84	1736.11
591.19	1732.34
591.54	1728.28
591.89	1722.96
592.25	1718.35
592.60	1713.35
592.95	1708.29
593.30	1703.67
593.65	1698.70
594.00	1693.64
594.35	1689.21
594.70	1683.89
595.05	1678.81
595.40	1673.51
595.75	1668.36
596.10	1663.69
596.45	1659.17
596.80	1655.02
597.15	1650.55
597.50	1645.23
597.85	1640.92
598.19	1636.41
598.54	1631.79
598.89	1627.31
599.24	1623.78
599.59	1619.62
599.94	1615.54
600.29	1611.39
600.64	1606.50
600.99	1601.06
601.34	1596.86
601.69	1591.49
602.04	1587.49
602.39	1583.04
602.74	1578.82
603.08	1574.46
603.43	1570.22
603.78	1565.79
604.13	1560.56
604.48	1555.35
604.83	1550.56
605.18	1545.45
605.53	1539.68
605.87	1533.57
606.22	1528.24
606.57	1522.65
606.92	1517.00
607.27	1511.88
607.62	1507.02
607.96	1501.69
608.31	1496.98
608.66	1491.11
609.01	1485.19
609.36	1478.21
609.70	1471.90
610.05	1464.91
610.40	1458.67
610.75	1452.26
611.10	1445.87
611.44	1438.90
611.79	1432.64
612.14	1426.27
612.49	1419.30
612.83	1412.80
613.18	1406.35
613.53	1399.99
613.88	1392.69
614.22	1385.83
614.57	1378.60
614.92	1371.52
615.27	1365.48
615.61	1358.64
615.96	1351.63
616.31	1345.67
616.65	1340.57
617.00	1334.98
617.35	1329.32
617.70	1322.78
618.04	1316.21
618.39	1309.91
618.74	1304.44
619.08	1297.93
619.43	1291.76
619.78	1286.06
620.12	1280.04
620.47	1274.29
620.82	1267.87
621.16	1262.16
621.51	1256.49
621.85	1250.52
622.20	1244.00
622.55	1237.84
622.89	1232.08
623.24	1226.38
623.59	1220.45
623.93	1214.30
624.28	1207.98
624.62	1201.84
624.97	1196.09
625.32	1190.52
625.66	1184.76
626.01	1178.57
626.35	1172.79
626.70	1167.02
627.04	1161.47
627.39	1155.31
627.73	1148.93
628.08	1143.17
628.43	1137.34
628.77	1131.05
629.12	1124.64
629.46	1119.08
629.81	1112.30
630.15	1105.87
630.50	1099.81
630.84	1093.14
631.19	1086.51
631.53	1080.30
631.88	1073.72
632.22	1067.21
632.57	1061.18
632.91	1055.14
633.26	1049.05
633.60	1042.76
633.95	1036.40
634.29	1030.20
634.64	1024.61
634.98	1018.82
635.32	1012.98
635.67	1007.39
636.01	1001.71
636.36	996.18
636.70	990.57
637.05	985.52
637.39	980.34
637.73	974.91
638.08	969.91
638.42	964.75
638.77	959.47
639.11	954.37
639.45	949.09
639.80	943.47
640.14	937.97
640.49	932.72
640.83	927.24
641.17	922.06
641.52	916.68
641.86	910.96
642.20	905.88
642.55	900.62
642.89	895.24
643.23	890.05
643.58	885.30
643.92	879.83
644.26	874.19
644.61	868.96
644.95	863.52
645.29	857.81
645.64	852.16
645.98	846.88
646.32	841.95
646.66	836.72
647.01	831.28
647.35	826.14
647.69	820.91
648.04	816.26
648.38	810.93
648.72	805.46
649.06	800.30
649.41	795.23
649.75	789.92
650.09	784.46
650.43	779.19
650.78	773.78
651.12	768.54
651.46	763.80
651.80	758.68
652.14	753.86
652.49	749.22
652.83	744.59
653.17	739.37
653.51	734.13
653.85	729.39
654.20	724.59
654.54	719.38
654.88	714.43
655.22	709.43
655.56	704.64
655.90	700.09
656.25	695.49
656.59	690.67
656.93	686.29
657.27	682.00
657.61	677.58
657.95	673.21
658.29	669.00
658.64	664.40
658.98	659.71
659.32	655.05
659.66	650.73
660.00	646.30
660.34	642.09
660.68	638.03
661.02	633.66
661.36	629.71
661.70	626.00
662.05	622.22
662.39	618.54
662.73	614.79
663.07	611.04
663.41	607.52
663.75	603.74
664.09	599.80
664.43	596.21
664.77	592.64
665.11	589.08
665.45	585.39
665.79	581.90
666.13	578.42
666.47	574.93
666.81	571.15
667.15	567.54
667.49	564.20
667.83	560.79
668.17	557.64
668.51	554.26
668.85	550.60
669.19	547.25
669.53	543.70
669.87	540.17
670.21	536.98
670.55	533.52
670.89	530.62
671.23	527.74
671.57	524.60
671.91	521.38
672.25	518.16
672.58	515.27
672.92	512.34
673.26	509.68
673.60	506.92
673.94	504.36
674.28	501.83
674.62	499.12
674.96	496.39
675.30	493.82
675.64	491.19
675.97	488.64
676.31	485.90
676.65	483.46
676.99	481.38
677.33	478.76
677.67	476.39
678.01	473.69
678.34	471.03
678.68	468.50
679.02	466.07
679.36	463.80
679.70	461.29
680.04	458.70
680.37	456.19
680.71	453.83
681.05	451.61
681.39	449.46
681.73	447.16
682.06	444.94
682.40	442.53
682.74	440.22
683.08	438.05
683.42	435.85
683.75	433.48
684.09	431.08
684.43	428.82
684.77	426.65
685.10	424.46
685.44	422.35
685.78	420.26
686.12	418.27
686.45	416.15
686.79	413.94
687.13	412.12
687.46	410.11
687.80	407.98
688.14	405.79
688.48	403.51
688.81	401.48
689.15	399.40
689.49	397.49
689.82	395.56
690.16	393.69
690.50	391.78
690.83	390.04
691.17	388.00
691.51	386.26
691.84	384.52
692.18	382.81
692.52	381.00
692.85	379.23
693.19	377.54
693.52	375.74
693.86	374.16
694.20	372.45
694.53	370.63
694.87	368.98
695.21	367.21
695.54	365.60
695.88	363.95
696.21	362.31
696.55	360.74
696.88	359.25
697.22	357.70
697.56	356.33
697.89	354.80
698.23	353.42
698.56	351.94
698.90	350.39
699.23	348.90
699.57	347.49
699.90	346.02
700.24	344.49
700.58	343.16
700.91	341.67
701.25	340.27
701.58	339.20
701.92	337.93
702.25	336.71
702.59	335.52
702.92	334.30
703.26	333.07
703.59	331.71
703.93	330.69
704.26	329.44
704.60	328.21
704.93	327.09
705.26	325.93
705.60	324.82
705.93	323.75
706.27	322.70
706.60	321.72
706.94	320.65
707.27	319.51
707.61	318.57
707.94	317.70
708.27	316.66
708.61	315.49
708.94	314.54
709.28	313.56
709.61	312.65
709.94	311.73
710.28	310.95
710.61	310.05
710.95	308.81
711.28	308.02
711.61	307.06
711.95	306.15
712.28	305.19
712.61	304.19
712.95	303.30
713.28	302.47
713.61	301.54
713.95	300.68
714.28	299.87
714.61	299.02
714.95	298.14
715.28	297.39
715.61	296.47
715.95	295.72
716.28	294.97
716.61	294.19
716.95	293.31
717.28	292.51
717.61	291.79
717.94	291.17
718.28	290.36
718.61	289.71
718.94	288.98
719.27	288.41
719.61	287.87
719.94	287.28
720.27	286.57
720.60	285.94
720.94	285.35
721.27	284.86
721.60	284.18
721.93	283.65
722.27	283.04
722.60	282.59
722.93	281.94
723.26	281.21
723.59	280.58
723.93	280.06
724.26	279.41
724.59	278.89
724.92	278.37
725.25	277.85
725.59	277.28
725.92	276.67
726.25	276.11
726.58	275.54
726.91	275.03
727.24	274.58
727.57	274.04
727.91	273.41
728.24	272.80
728.57	272.28
728.90	271.72
729.23	271.15
729.56	270.69
729.89	270.19
730.22	269.83
730.55	269.33
730.89	268.89
731.22	268.43
731.55	267.98
731.88	267.34
732.21	266.94
732.54	266.46
732.87	266.05
733.20	265.63
733.53	265.11
733.86	264.60
734.19	264.09
734.52	263.59
734.85	263.29
735.18	262.70
735.51	262.33
735.84	261.84
736.17	261.52
736.50	261.00
736.83	260.72
737.16	260.22
737.49	259.88
737.82	259.49
738.15	259.07
738.48	258.76
738.81	258.50
739.14	258.07
739.47	257.61
739.80	257.23
740.13	256.90
740.46	256.63
740.79	256.25
741.12	255.90
741.45	255.70
741.78	255.36
742.11	255.24
742.44	254.97
742.77	254.88
743.10	254.54
743.43	254.30
743.75	253.89
744.08	253.89
744.41	253.55
744.74	253.28
745.07	253.07
745.40	252.74
745.73	252.52
746.06	252.18
746.39	251.97
746.71	251.64
747.04	251.32
747.37	251.13
747.70	251.01
748.03	250.78
748.36	250.50
748.68	250.32
749.01	250.05
749.34	249.80
749.67	249.43
750.00	249.25
750.33	249.00
750.65	248.81
750.98	248.42
751.31	248.34
751.64	248.15
751.97	248.13
752.29	248.00
752.62	247.73
752.95	247.52
753.28	247.32
753.60	247.26
753.93	247.08
754.26	246.73
754.59	246.50
754.91	246.31
755.24	246.14
755.57	245.87
755.90	245.68
756.22	245.43
756.55	245.25
756.88	245.06
757.20	244.90
757.53	244.69
757.86	244.47
758.19	244.30
758.51	244.21
758.84	243.83
759.17	243.64
759.49	243.54
759.82	243.49
760.15	243.51
760.47	243.38
760.80	243.17
761.13	243.19
761.45	243.02
761.78	242.82
762.11	242.70
762.43	242.46
762.76	242.30
763.08	242.11
763.41	242.00
763.74	241.90
764.06	241.70
764.39	241.64
764.71	241.56
765.04	241.33
765.37	241.10
765.69	241.07
766.02	240.88
766.34	240.67
766.67	240.46
767.00	240.34
767.32	240.22
767.65	240.33
767.97	240.10
768.30	239.94
768.62	239.76
768.95	239.47
769.27	239.49
769.60	239.45
769.92	239.36
770.25	239.13
770.57	239.00
770.90	238.92
771.22	238.75
771.55	238.54
771.87	238.45
772.20	238.28
772.52	238.20
772.85	238.33
773.17	238.23
773.50	238.04
773.82	237.83
774.15	237.66
774.47	237.39
774.80	237.34
775.12	237.18
775.45	237.21
775.77	237.20
776.09	237.03
776.42	236.89
776.74	236.81
777.07	236.70
777.39	236.50
777.72	236.32
778.04	236.16
778.36	236.11
778.69	235.98
779.01	235.91
779.33	235.69
779.66	235.39
779.98	235.23
780.31	235.27
780.63	235.18
780.95	235.11
781.28	234.98
781.60	234.84
781.92	234.78
782.25	234.61
782.57	234.47
782.89	234.43
783.22	234.37
783.54	234.27
783.86	234.30
784.19	234.25
784.51	234.28
784.83	234.19
785.16	234.11
785.48	234.04
785.80	233.99
786.12	233.97
786.45	233.87
786.77	233.85
787.09	233.80
787.42	233.74
787.74	233.68
788.06	233.72
788.38	233.63
788.71	233.49
789.03	233.53
789.35	233.56
789.67	233.46
789.99	233.39
790.32	233.30
790.64	233.24
790.96	233.36
791.28	233.20
791.61	233.19
791.93	233.18
792.25	233.16
792.57	233.20
792.89	233.04
793.21	233.07
793.54	233.12
793.86	233.01
794.18	232.96
794.50	232.92
794.82	232.79
795.14	232.76
795.47	232.84
795.79	232.80
796.11	232.78
796.43	232.76
796.75	232.80
797.07	232.94
797.39	232.84
797.71	232.66
798.04	232.74
798.36	232.75
798.68	232.73
799.00	232.73
799.32	232.63
799.64	232.71
799.96	232.68
800.28	232.63
800.60	232.68
800.92	232.71
801.24	232.66
801.56	232.66
801.89	232.64
802.21	232.65
802.53	232.60
802.85	232.54
803.17	232.60
803.49	232.54
803.81	232.32
804.13	232.25
804.45	232.30
804.77	232.27
805.09	232.26
805.41	232.18
805.73	232.11
806.05	232.04
806.37	232.00
806.69	231.98
807.01	231.91
807.33	231.88
807.65	231.70
807.97	231.78
808.28	231.65
808.60	231.66
808.92	231.50
809.24	231.43
809.56	231.29
809.88	231.05
810.20	230.97
810.52	231.06
810.84	231.17
811.16	231.11
811.48	231.11
811.80	231.05
812.12	231.01
812.43	230.95
812.75	231.00
813.07	231.03
813.39	231.04
813.71	231.00
814.03	230.88
814.35	230.85
814.67	230.69
814.98	230.73
815.30	230.63
815.62	230.54
815.94	230.41
816.26	230.50
816.58	230.48
816.89	230.43
817.21	230.32
817.53	230.10
817.85	230.06
818.17	229.86
818.48	229.76
818.80	229.77
819.12	229.75
819.44	229.66
819.76	229.55
820.07	229.39
820.39	229.30
820.71	229.30
821.03	229.37
821.34	229.34
821.66	229.25
821.98	229.25
822.30	229.22
822.61	229.39
822.93	229.35
823.25	229.40
823.57	229.40
823.88	229.40
824.20	229.40
824.52	229.36
824.83	229.35
825.15	229.41
825.47	229.35
825.79	229.27
826.10	229.27
826.42	229.31
826.74	229.29
827.05	229.31
827.37	229.25
827.69	229.24
828.00	229.21
828.32	229.21
828.64	229.22
828.95	229.40
829.27	229.34
829.58	229.26
829.90	229.30
830.22	229.36
830.53	229.29
830.85	229.32
831.17	229.25
831.48	229.28
831.80	229.21
832.11	229.20
832.43	229.27
832.75	229.25
833.06	229.24
833.38	229.26
833.69	229.28
834.01	229.36
834.32	229.36
834.64	229.40
834.96	229.50
835.27	229.55
835.59	229.50
835.90	229.55
836.22	229.70
836.53	229.60
836.85	229.48
837.16	229.76
837.48	229.79
837.79	230.00
838.11	230.03
838.42	230.08
838.74	230.13
839.05	230.11
839.37	230.11
839.68	230.21
840.00	230.23
840.31	230.21
840.63	230.15
840.94	230.09
841.26	230.15
841.57	230.07
841.88	230.10
842.20	230.11
842.51	230.00
842.83	229.90
843.14	230.10
843.46	230.17
843.77	230.09
844.08	230.07
844.40	229.97
844.71	230.01
845.03	230.01
845.34	229.99
845.65	230.00
845.97	230.00
846.28	229.86
846.60	229.90
846.91	229.92
847.22	229.91
847.54	230.04
847.85	229.94
848.16	229.97
848.48	229.78
848.79	229.72
849.10	229.65
849.42	229.66
849.73	229.49
850.04	229.45
850.36	229.28
850.67	229.31
850.98	229.21
851.30	229.15
851.61	229.10
851.92	229.13
852.23	229.14
852.55	229.15
852.86	229.15
853.17	229.05
853.49	228.93
853.80	228.88
854.11	228.77
854.42	228.78
854.74	228.68
855.05	228.70
855.36	228.67
855.67	228.78
855.99	228.61
856.30	228.75
856.61	228.65
856.92	228.61
857.23	228.60
857.55	228.65
857.86	228.64
858.17	228.57
858.48	228.44
858.79	228.33
859.11	228.24
859.42	228.16
859.73	228.21
860.04	228.21
860.35	228.24
860.66	228.19
860.98	228.04
861.29	228.07
861.60	228.11
861.91	228.22
862.22	228.15
862.53	228.21
862.84	228.06
863.16	228.15
863.47	228.24
863.78	228.19
864.09	228.13
864.40	228.16
864.71	228.22
865.02	228.23
865.33	228.27
865.64	228.30
865.95	228.47
866.27	228.45
866.58	228.45
866.89	228.46
867.20	228.48
867.51	228.57
867.82	228.54
868.13	228.52
868.44	228.43
868.75	228.49
869.06	228.48
869.37	228.42
869.68	228.36
869.99	228.35
870.30	228.42
870.61	228.41
870.92	228.33
871.23	228.33
871.54	228.47
871.85	228.47
872.16	228.51
872.47	228.41
872.78	228.49
873.09	228.52
873.40	228.58
873.71	228.50
874.02	228.56
874.33	228.53
874.64	228.59
874.95	228.61
875.26	228.55
875.56	228.66
875.87	228.79
876.18	228.86
876.49	228.97
876.80	228.85
877.11	228.87
877.42	228.87
877.73	228.88
878.04	228.79
878.35	228.92
878.66	228.92
878.96	229.00
879.27	228.95
879.58	228.98
879.89	228.90
880.20	229.02
880.51	228.95
880.82	229.00
881.12	228.98
881.43	228.99
881.74	229.02
882.05	229.06
882.36	229.06
882.67	229.05
882.97	228.94
883.28	229.04
883.59	229.08
883.90	229.11
884.21	229.18
884.51	229.12
884.82	229.02
885.13	228.99
885.44	228.81
885.74	228.78
886.05	228.71
886.36	228.81
886.67	228.76
886.98	228.97
887.28	229.11
887.59	229.13
887.90	229.06
888.20	228.98
888.51	228.92
888.82	228.83
889.13	228.84
889.43	228.95
889.74	228.78
890.05	228.70
890.35	228.63
890.66	228.59
890.97	228.58
891.28	228.46
891.58	228.40
891.89	228.48
892.20	228.43
892.50	228.44
892.81	228.34
893.12	228.30
893.42	228.09
893.73	228.01
894.04	227.94
894.34	227.98
894.65	227.99
894.95	227.98
895.26	228.01
895.57	228.04
895.87	227.88
896.18	228.08
896.48	228.12
896.79	228.13
897.10	228.14
897.40	228.10
897.71	228.18
898.01	228.15
898.32	228.11
898.63	228.15
898.93	228.18
899.24	228.18
899.54	228.16
899.85	228.14
900.15	228.11
900.46	228.24
900.76	228.27
901.07	228.30
901.38	228.20
901.68	228.17
901.99	228.17
902.29	228.21
902.60	228.17
902.90	228.15
903.21	228.20
903.51	228.19
903.82	228.30
904.12	228.35
904.43	228.43
904.73	228.41
905.03	228.31
905.34	228.42
905.64	228.41
905.95	228.54
906.25	228.65
906.56	228.66
906.86	228.48
907.17	228.48
907.47	228.49
907.77	228.54
908.08	228.60
908.38	228.55
908.69	228.54
908.99	228.60
909.30	228.64
909.60	228.71
909.90	228.76
910.21	228.72
910.51	228.73
910.81	228.72
911.12	228.85
911.42	228.98
911.73	228.89
912.03	228.90
912.33	228.85
912.64	228.85
912.94	228.82
913.24	228.90
913.55	228.90
913.85	228.95
914.15	229.03
914.46	229.04
914.76	229.13
915.06	229.19
915.37	229.16
915.67	229.15
915.97	229.14
916.27	229.01
916.58	229.09
916.88	229.18
917.18	229.17
917.49	229.24
917.79	229.25
918.09	229.27
918.39	229.43
918.70	229.45
919.00	229.39
919.30	229.46
919.60	229.44
919.91	229.45
920.21	229.49
920.51	229.46
920.81	229.58
921.12	229.56
921.42	229.46
921.72	229.44
922.02	229.48
922.32	229.49
922.63	229.53
922.93	229.51
923.23	229.43
923.53	229.44
923.83	229.37
924.13	229.33
924.44	229.42
924.74	229.38
925.04	229.36
925.34	229.48
925.64	229.45
925.94	229.51
926.24	229.66
926.55	229.61
926.85	229.61
927.15	229.51
927.45	229.43
927.75	229.43
928.05	229.45
928.35	229.45
928.65	229.49
928.95	229.56
929.26	229.52
929.56	229.62
929.86	229.80
930.16	229.81
930.46	229.78
930.76	229.70
931.06	229.67
931.36	229.73
931.66	229.59
931.96	229.61
932.26	229.59
932.56	229.41
932.86	229.34
933.16	229.37
933.46	229.37
933.76	229.29
934.06	229.33
934.36	229.41
934.66	229.37
934.96	229.35
935.26	229.36
935.56	229.47
935.86	229.31
936.16	229.05
936.46	228.92
936.76	228.90
937.06	228.87
937.36	228.89
937.66	228.69
937.96	228.60
938.26	228.46
938.56	228.46
938.86	228.38
939.16	228.47
939.46	228.42
939.76	228.39
940.06	228.51
940.35	228.40
940.65	228.15
940.95	228.19
941.25	228.04
941.55	227.96
941.85	227.84
942.15	227.94
942.45	228.00
942.75	227.96
943.04	227.98
943.34	227.95
943.64	227.82
943.94	227.93
944.24	227.95
944.54	228.00
944.84	227.91
945.13	227.90
945.43	227.86
945.73	227.84
946.03	227.77
946.33	227.68
946.62	227.69
946.92	227.79
947.22	227.74
947.52	227.83
947.82	227.80
948.11	227.82
948.41	227.67
948.71	227.72
949.01	227.72
949.31	227.66
949.60	227.66
949.90	227.70
950.20	227.61
950.50	227.64
950.79	227.70
951.09	227.69
951.39	227.69
951.69	227.62
951.98	227.60
952.28	227.62
952.58	227.61
952.87	227.59
953.17	227.59
953.47	227.53
953.76	227.45
954.06	227.46
954.36	227.41
954.66	227.42
954.95	227.36
955.25	227.38
955.55	227.40
955.84	227.33
956.14	227.35
956.44	227.45
956.73	227.37
957.03	227.28
957.32	227.33
957.62	227.28
957.92	227.27
958.21	227.30
958.51	227.46
958.81	227.51
959.10	227.63
959.40	227.71
959.69	227.78
959.99	227.83
960.29	227.84
960.58	227.84
960.88	227.97
961.17	228.00
961.47	228.08
961.76	228.14
962.06	228.26
962.36	228.31
962.65	228.24
962.95	228.37
963.24	228.43
963.54	228.46
963.83	228.57
964.13	228.65
964.42	228.61
964.72	228.50
965.01	228.44
965.31	228.33
965.60	228.16
965.90	228.28
966.19	228.22
966.49	228.29
966.78	228.31
967.08	228.35
967.37	228.44
967.67	228.35
967.96	228.38
968.26	228.40
968.55	228.47
968.85	228.56
969.14	228.54
969.43	228.53
969.73	228.58
970.02	228.51
970.32	228.49
970.61	228.55
970.91	228.57
971.20	228.58
971.49	228.59
971.79	228.75
972.08	228.53
972.38	228.63
972.67	228.52
972.96	228.51
973.26	228.37
973.55	228.46
973.85	228.54
974.14	228.48
974.43	228.48
974.73	228.38
975.02	228.42
975.31	228.37
975.61	228.25
975.90	228.21
976.19	228.24
976.49	228.30
976.78	228.21
977.07	228.17
977.37	228.25
977.66	228.36
977.95	228.24
978.24	228.26
978.54	228.21
978.83	228.27
979.12	228.23
979.42	228.34
979.71	228.20
980.00	228.13
980.29	228.12
980.59	228.05
980.88	228.08
981.17	227.96
981.46	228.03
981.76	228.04
982.05	228.09
982.34	228.08
982.63	228.03
982.93	228.09
983.22	228.14
983.51	228.07
983.80	228.02
984.09	228.10
984.39	228.12
984.68	228.06
984.97	228.01
985.26	228.02
985.55	227.89
985.85	227.79
986.14	227.88
986.43	227.87
986.72	227.86
987.01	227.85
987.30	227.79
987.59	227.74
987.89	227.80
988.18	227.70
988.47	227.79
988.76	227.77
989.05	227.79
989.34	227.68
989.63	227.71
989.92	227.73
990.22	227.66
990.51	227.76
990.80	227.77
991.09	227.84
991.38	227.88
991.67	227.96
991.96	228.02
992.25	227.95
992.54	228.03
992.83	228.07
993.12	228.03
993.41	228.14
993.70	228.20
993.99	228.30
994.28	228.34
994.58	228.33
994.87	228.38
995.16	228.36
995.45	228.43
995.74	228.44
996.03	228.51
996.32	228.60
996.61	228.58
996.90	228.63
997.19	228.62
997.48	228.57
997.77	228.52
998.06	228.50
998.34	228.51
998.63	228.41
998.92	228.41
999.21	228.42
999.50	228.40
999.79	228.38
1000.08	228.39
1000.37	228.39
1000.66	228.39
1000.95	228.37
1001.24	228.30
1001.53	228.37
1001.82	228.35
1002.11	228.31
1002.40	228.27
1002.68	228.41
1002.97	228.55
1003.26	228.61
1003.55	228.69
1003.84	228.77
1004.13	228.90
1004.42	228.99
1004.71	229.05
1004.99	229.14
1005.28	229.22
1005.57	229.24
1005.86	229.22
1006.15	229.18
1006.44	229.20
1006.72	229.08
1007.01	229.13
1007.30	229.10
1007.59	229.00
1007.88	228.93
1008.17	228.85
1008.45	228.89
1008.74	228.72
1009.03	228.66
1009.32	228.60
1009.60	228.59
1009.89	228.55
1010.18	228.47
1010.47	228.46
1010.76	228.46
1011.04	228.42
1011.33	228.43
1011.62	228.47
1011.91	228.49
1012.19	228.49
1012.48	228.44
1012.77	228.55
1013.05	228.62
1013.34	228.74
1013.63	228.76
1013.92	228.82
1014.20	228.94
1014.49	228.90
1014.78	228.92
1015.06	228.87
1015.35	228.91
1015.64	228.93
1015.92	228.89
1016.21	228.83
1016.50	228.84
1016.78	228.80
1017.07	228.69
1017.36	228.60
1017.64	228.63
1017.93	228.63
1018.22	228.60
1018.50	228.58
1018.79	228.58
1019.08	228.38
1019.36	228.31
1019.65	228.40
1019.93	228.47
1020.22	228.37
1020.51	228.48
1020.79	228.37
1021.08	227.90
1021.36	227.30
1021.65	228.80
1021.94	226.80
1022.22	227.70
1022.51	229.80
1022.79	229.50
1023.08	227.90
1023.36	230.70
1023.65	226.70
>>>>>End Processed Spectral Data<<<<<
