SpectraSuite Data File
++++++++++++++++++++++++++++++++++++
Date: Fri Feb 01 14:38:05 EST 2013
User: group
Dark Spectrum Present: No
Reference Spectrum Present: No
Number of Sampled Component Spectra: 1
Spectrometers: USB2E7196
Integration Time (usec): 70000 (USB2E7196)
Spectra Averaged: 10 (USB2E7196)
Boxcar Smoothing: 10 (USB2E7196)
Correct for Electrical Dark: No (USB2E7196)
Strobe/Lamp Enabled: No (USB2E7196)
Correct for Detector Non-linearity: No (USB2E7196)
Correct for Stray Light: No (USB2E7196)
Number of Pixels in Processed Spectrum: 2048
>>>>>Begin Processed Spectral Data<<<<<
339.09	0.00
339.48	214.50
339.86	216.80
340.24	218.80
340.63	220.30
341.01	224.60
341.39	223.90
341.78	224.40
342.16	225.90
342.54	225.30
342.93	214.37
343.31	225.26
343.69	225.96
344.07	226.50
344.46	226.93
344.84	227.30
345.22	227.42
345.60	227.62
345.99	227.76
346.37	227.79
346.75	227.95
347.13	228.05
347.52	228.03
347.90	228.16
348.28	228.14
348.66	228.18
349.05	228.14
349.43	228.21
349.81	228.29
350.19	228.40
350.57	228.45
350.96	228.60
351.34	228.62
351.72	228.66
352.10	228.61
352.48	228.74
352.87	228.90
353.25	228.95
353.63	228.98
354.01	229.06
354.39	229.17
354.77	229.17
355.15	229.27
355.54	229.41
355.92	229.36
356.30	229.55
356.68	229.61
357.06	229.59
357.44	229.50
357.82	229.58
358.20	229.50
358.58	229.52
358.97	229.51
359.35	229.54
359.73	229.60
360.11	229.60
360.49	229.52
360.87	229.41
361.25	229.49
361.63	229.60
362.01	229.66
362.39	229.69
362.77	229.74
363.15	229.71
363.53	229.68
363.91	229.74
364.29	229.59
364.67	229.47
365.05	229.46
365.43	229.55
365.81	229.49
366.19	229.62
366.57	229.60
366.95	229.69
367.33	229.61
367.71	229.57
368.09	229.59
368.47	229.49
368.85	229.49
369.23	229.50
369.61	229.30
369.99	229.32
370.37	229.33
370.75	229.31
371.13	229.10
371.51	229.04
371.89	228.88
372.27	228.87
372.65	228.90
373.03	228.90
373.41	228.77
373.78	228.70
374.16	228.56
374.54	228.40
374.92	228.20
375.30	228.16
375.68	227.98
376.06	227.93
376.44	228.00
376.82	227.98
377.19	227.85
377.57	227.80
377.95	227.62
378.33	227.46
378.71	227.33
379.09	227.36
379.47	227.23
379.84	227.23
380.22	227.13
380.60	227.07
380.98	226.94
381.36	226.93
381.73	226.84
382.11	226.81
382.49	226.93
382.87	226.83
383.25	226.73
383.62	226.97
384.00	226.90
384.38	226.78
384.76	226.78
385.13	226.80
385.51	226.80
385.89	226.73
386.27	226.70
386.64	226.70
387.02	226.64
387.40	226.69
387.78	226.67
388.15	226.70
388.53	226.70
388.91	226.71
389.29	226.73
389.66	226.75
390.04	226.71
390.42	226.63
390.79	226.59
391.17	226.56
391.55	226.33
391.92	226.29
392.30	226.34
392.68	226.19
393.05	226.17
393.43	226.24
393.81	226.30
394.18	226.30
394.56	226.34
394.94	226.41
395.31	226.46
395.69	226.57
396.06	226.63
396.44	226.60
396.82	226.68
397.19	226.79
397.57	226.81
397.95	226.79
398.32	226.77
398.70	226.89
399.07	227.00
399.45	227.09
399.82	227.31
400.20	227.35
400.58	227.41
400.95	227.48
401.33	227.52
401.70	227.73
402.08	227.96
402.45	228.05
402.83	228.20
403.20	228.37
403.58	228.49
403.95	228.61
404.33	228.80
404.71	228.96
405.08	229.19
405.46	229.37
405.83	229.69
406.21	230.01
406.58	230.20
406.96	230.48
407.33	230.64
407.70	230.88
408.08	231.41
408.45	231.85
408.83	232.16
409.20	232.43
409.58	232.62
409.95	232.94
410.33	233.32
410.70	233.61
411.08	233.98
411.45	234.35
411.82	234.80
412.20	235.30
412.57	235.84
412.95	236.20
413.32	236.75
413.69	237.09
414.07	237.68
414.44	238.26
414.82	238.82
415.19	239.60
415.56	240.32
415.94	240.87
416.31	241.67
416.68	242.53
417.06	243.44
417.43	244.39
417.81	245.35
418.18	246.31
418.55	247.53
418.93	248.67
419.30	249.85
419.67	250.99
420.04	252.25
420.42	253.62
420.79	255.22
421.16	256.81
421.54	258.69
421.91	260.28
422.28	262.17
422.66	264.19
423.03	266.03
423.40	267.89
423.77	269.96
424.15	272.02
424.52	274.14
424.89	276.57
425.26	278.84
425.64	281.02
426.01	283.41
426.38	285.83
426.75	288.42
427.13	291.01
427.50	293.67
427.87	296.47
428.24	299.17
428.61	301.80
428.99	304.74
429.36	307.92
429.73	311.08
430.10	314.22
430.47	317.34
430.85	320.55
431.22	324.02
431.59	327.67
431.96	330.99
432.33	334.79
432.70	338.51
433.08	342.90
433.45	346.97
433.82	351.23
434.19	355.73
434.56	360.31
434.93	364.58
435.30	368.95
435.68	373.55
436.05	378.25
436.42	382.78
436.79	386.80
437.16	391.30
437.53	396.06
437.90	400.70
438.27	405.38
438.64	410.15
439.01	414.47
439.38	418.39
439.75	422.25
440.13	426.57
440.50	430.80
440.87	434.16
441.24	437.69
441.61	441.42
441.98	444.30
442.35	447.40
442.72	450.90
443.09	454.39
443.46	456.52
443.83	457.94
444.20	459.31
444.57	461.33
444.94	462.12
445.31	463.22
445.68	464.55
446.05	465.02
446.42	464.95
446.79	465.09
447.16	464.93
447.53	465.05
447.90	463.70
448.27	462.35
448.64	460.34
449.01	458.95
449.37	456.35
449.74	453.83
450.11	450.63
450.48	446.97
450.85	443.11
451.22	440.11
451.59	437.34
451.96	434.57
452.33	430.70
452.70	427.36
453.07	423.16
453.43	418.51
453.80	414.39
454.17	410.40
454.54	406.37
454.91	402.25
455.28	397.91
455.65	394.18
456.02	390.40
456.38	387.05
456.75	383.09
457.12	379.49
457.49	376.00
457.86	372.65
458.23	369.87
458.59	366.76
458.96	363.57
459.33	360.52
459.70	357.52
460.07	355.19
460.43	352.37
460.80	349.68
461.17	347.33
461.54	344.98
461.91	342.68
462.27	340.40
462.64	338.34
463.01	336.23
463.38	334.13
463.74	331.71
464.11	329.84
464.48	328.00
464.85	326.14
465.21	324.68
465.58	323.17
465.95	321.20
466.32	319.62
466.68	318.01
467.05	316.44
467.42	314.91
467.78	313.25
468.15	311.75
468.52	310.65
468.88	309.18
469.25	307.80
469.62	306.67
469.98	305.38
470.35	304.21
470.72	303.15
471.08	301.94
471.45	301.00
471.82	299.95
472.18	298.86
472.55	297.99
472.92	296.96
473.28	296.06
473.65	295.21
474.02	294.35
474.38	293.53
474.75	292.91
475.11	292.23
475.48	291.67
475.85	291.13
476.21	290.45
476.58	289.95
476.94	289.42
477.31	288.92
477.67	288.39
478.04	287.86
478.41	287.50
478.77	287.24
479.14	286.80
479.50	286.50
479.87	286.28
480.23	286.06
480.60	285.85
480.96	285.60
481.33	285.48
481.69	285.26
482.06	285.18
482.42	284.98
482.79	284.80
483.15	284.70
483.52	284.78
483.88	284.79
484.25	284.76
484.61	284.80
484.98	284.68
485.34	284.90
485.71	285.01
486.07	285.14
486.44	285.14
486.80	285.30
487.17	285.54
487.53	285.84
487.90	286.05
488.26	286.31
488.62	286.54
488.99	286.73
489.35	287.11
489.72	287.26
490.08	287.50
490.44	287.75
490.81	288.04
491.17	288.33
491.54	288.62
491.90	288.95
492.26	289.26
492.63	289.70
492.99	289.94
493.36	290.48
493.72	290.93
494.08	291.36
494.45	291.86
494.81	292.23
495.17	292.56
495.54	292.97
495.90	293.33
496.26	293.77
496.63	294.27
496.99	294.67
497.35	295.18
497.72	295.68
498.08	296.20
498.44	296.69
498.80	297.10
499.17	297.53
499.53	297.92
499.89	298.50
500.26	299.09
500.62	299.47
500.98	299.83
501.34	300.14
501.71	300.66
502.07	301.00
502.43	301.35
502.79	301.68
503.16	302.12
503.52	302.46
503.88	302.73
504.24	303.07
504.60	303.48
504.97	303.83
505.33	304.14
505.69	304.51
506.05	304.80
506.41	305.07
506.78	305.35
507.14	305.62
507.50	305.81
507.86	305.94
508.22	306.21
508.59	306.33
508.95	306.60
509.31	306.79
509.67	307.05
510.03	307.20
510.39	307.35
510.75	307.52
511.12	307.81
511.48	308.00
511.84	308.19
512.20	308.32
512.56	308.56
512.92	308.79
513.28	309.07
513.64	309.27
514.00	309.53
514.37	309.95
514.73	310.29
515.09	310.70
515.45	311.02
515.81	311.53
516.17	312.08
516.53	312.49
516.89	312.92
517.25	313.68
517.61	314.45
517.97	315.20
518.33	315.90
518.69	316.59
519.05	317.67
519.41	318.63
519.77	319.76
520.13	320.75
520.49	321.83
520.85	322.99
521.21	324.33
521.57	325.56
521.93	326.87
522.29	328.43
522.65	329.80
523.01	331.45
523.37	332.97
523.73	334.65
524.09	336.47
524.45	338.42
524.81	340.15
525.17	342.09
525.53	344.25
525.89	346.47
526.25	348.68
526.61	350.76
526.97	353.04
527.33	355.48
527.68	358.26
528.04	360.87
528.40	363.56
528.76	366.36
529.12	369.37
529.48	372.41
529.84	375.41
530.20	378.50
530.56	381.72
530.91	385.11
531.27	388.56
531.63	392.02
531.99	395.60
532.35	399.18
532.71	402.81
533.07	406.60
533.42	410.58
533.78	414.41
534.14	418.56
534.50	422.68
534.86	426.85
535.21	430.71
535.57	435.23
535.93	439.56
536.29	444.09
536.65	448.45
537.00	452.74
537.36	457.40
537.72	462.21
538.08	466.82
538.44	471.46
538.79	476.30
539.15	481.15
539.51	486.06
539.87	491.04
540.22	496.11
540.58	501.32
540.94	506.16
541.29	511.30
541.65	516.30
542.01	521.52
542.37	526.66
542.72	532.10
543.08	537.11
543.44	542.50
543.79	547.43
544.15	553.07
544.51	558.73
544.87	564.00
545.22	569.23
545.58	574.78
545.94	580.10
546.29	585.32
546.65	590.76
547.01	595.98
547.36	601.25
547.72	606.43
548.07	611.51
548.43	616.95
548.79	622.53
549.14	627.98
549.50	633.29
549.86	638.45
550.21	643.40
550.57	648.72
550.92	653.80
551.28	659.21
551.64	664.29
551.99	669.46
552.35	674.60
552.70	680.07
553.06	685.12
553.41	690.54
553.77	695.92
554.13	701.20
554.48	706.53
554.84	711.87
555.19	717.17
555.55	722.53
555.90	727.72
556.26	732.65
556.61	737.43
556.97	742.30
557.32	747.56
557.68	752.77
558.03	757.79
558.39	762.82
558.74	767.70
559.10	772.63
559.45	777.49
559.81	782.49
560.16	786.99
560.52	791.95
560.87	796.66
561.23	800.88
561.58	805.50
561.94	809.94
562.29	814.26
562.64	818.60
563.00	823.01
563.35	827.33
563.71	832.14
564.06	836.77
564.42	841.33
564.77	845.56
565.12	850.05
565.48	854.54
565.83	858.58
566.19	862.72
566.54	866.40
566.89	869.87
567.25	873.81
567.60	878.07
567.96	881.67
568.31	885.42
568.66	889.16
569.02	892.49
569.37	895.97
569.72	899.30
570.08	902.74
570.43	905.76
570.78	909.03
571.14	911.83
571.49	914.92
571.84	918.07
572.20	920.60
572.55	923.32
572.90	925.94
573.26	928.74
573.61	931.26
573.96	933.79
574.31	936.29
574.67	938.38
575.02	939.90
575.37	941.73
575.72	943.42
576.08	945.68
576.43	947.47
576.78	949.10
577.13	951.10
577.49	952.67
577.84	954.21
578.19	955.68
578.54	957.19
578.90	958.38
579.25	959.05
579.60	960.04
579.95	960.75
580.30	961.16
580.66	961.77
581.01	962.73
581.36	963.70
581.71	964.68
582.06	965.41
582.42	966.25
582.77	967.00
583.12	967.47
583.47	967.85
583.82	968.47
584.17	968.92
584.53	969.14
584.88	969.37
585.23	969.60
585.58	969.34
585.93	969.23
586.28	969.44
586.63	969.92
586.98	970.19
587.34	970.40
587.69	970.94
588.04	971.01
588.39	970.72
588.74	970.09
589.09	969.48
589.44	968.67
589.79	968.27
590.14	967.84
590.49	967.57
590.84	966.95
591.19	966.43
591.54	965.48
591.89	964.06
592.25	963.45
592.60	962.28
592.95	961.53
593.30	960.56
593.65	959.23
594.00	958.01
594.35	957.41
594.70	955.70
595.05	954.25
595.40	952.78
595.75	951.37
596.10	950.28
596.45	949.32
596.80	948.45
597.15	947.33
597.50	945.80
597.85	944.45
598.19	943.20
598.54	941.80
598.89	940.50
599.24	939.87
599.59	938.26
599.94	937.23
600.29	935.96
600.64	934.34
600.99	932.50
601.34	930.82
601.69	928.95
602.04	927.71
602.39	926.08
602.74	924.81
603.08	923.33
603.43	922.02
603.78	920.21
604.13	918.17
604.48	916.31
604.83	914.68
605.18	913.02
605.53	910.82
605.87	908.45
606.22	906.73
606.57	904.47
606.92	902.57
607.27	900.37
607.62	898.51
607.96	896.58
608.31	894.95
608.66	892.62
609.01	890.20
609.36	887.83
609.70	884.92
610.05	882.06
610.40	879.63
610.75	876.90
611.10	874.41
611.44	871.83
611.79	869.30
612.14	866.53
612.49	863.33
612.83	860.60
613.18	858.00
613.53	855.19
613.88	852.24
614.22	849.33
614.57	846.38
614.92	842.97
615.27	840.11
615.61	837.16
615.96	834.20
616.31	831.35
616.65	828.85
617.00	826.51
617.35	823.95
617.70	820.96
618.04	817.90
618.39	815.01
618.74	812.24
619.08	808.90
619.43	806.38
619.78	803.75
620.12	800.90
620.47	798.28
620.82	795.26
621.16	792.67
621.51	790.20
621.85	787.38
622.20	784.60
622.55	781.72
622.89	778.93
623.24	776.43
623.59	773.74
623.93	770.82
624.28	767.96
624.62	765.03
624.97	762.52
625.32	759.91
625.66	757.28
626.01	754.49
626.35	751.83
626.70	748.74
627.04	745.92
627.39	743.14
627.73	740.09
628.08	737.39
628.43	734.35
628.77	731.16
629.12	728.26
629.46	725.43
629.81	722.52
630.15	719.39
630.50	716.12
630.84	712.76
631.19	709.41
631.53	706.31
631.88	703.14
632.22	699.66
632.57	696.64
632.91	693.30
633.26	690.25
633.60	687.12
633.95	684.21
634.29	681.28
634.64	678.38
634.98	675.14
635.32	672.29
635.67	669.53
636.01	666.47
636.36	663.39
636.70	660.71
637.05	658.02
637.39	655.28
637.73	652.82
638.08	650.41
638.42	648.12
638.77	645.60
639.11	643.00
639.45	640.51
639.80	637.60
640.14	634.99
640.49	632.33
640.83	629.67
641.17	626.95
641.52	624.07
641.86	621.34
642.20	618.98
642.55	616.14
642.89	613.32
643.23	610.72
643.58	608.45
643.92	605.59
644.26	602.76
644.61	600.19
644.95	597.44
645.29	594.57
645.64	591.61
645.98	588.82
646.32	586.14
646.66	583.24
647.01	580.52
647.35	577.89
647.69	575.25
648.04	572.78
648.38	569.90
648.72	567.07
649.06	564.21
649.41	561.39
649.75	558.56
650.09	555.89
650.43	553.16
650.78	550.20
651.12	547.66
651.46	544.94
651.80	542.21
652.14	539.59
652.49	537.10
652.83	534.60
653.17	531.78
653.51	529.17
653.85	526.67
654.20	524.08
654.54	521.22
654.88	518.42
655.22	515.81
655.56	513.32
655.90	510.83
656.25	508.40
656.59	506.13
656.93	503.75
657.27	501.22
657.61	498.70
657.95	496.38
658.29	493.81
658.64	491.24
658.98	488.78
659.32	486.28
659.66	483.77
660.00	481.26
660.34	479.00
660.68	476.58
661.02	474.20
661.36	472.03
661.70	469.94
662.05	468.04
662.39	465.84
662.73	463.60
663.07	461.77
663.41	459.63
663.75	457.41
664.09	455.21
664.43	453.27
664.77	451.36
665.11	449.33
665.45	447.35
665.79	445.47
666.13	443.32
666.47	441.27
666.81	439.19
667.15	437.00
667.49	434.98
667.83	433.28
668.17	431.28
668.51	429.43
668.85	427.61
669.19	425.70
669.53	423.77
669.87	422.04
670.21	420.19
670.55	418.49
670.89	416.85
671.23	415.19
671.57	413.42
671.91	411.59
672.25	409.82
672.58	408.34
672.92	406.68
673.26	405.33
673.60	403.76
673.94	402.27
674.28	400.93
674.62	399.51
674.96	397.92
675.30	396.54
675.64	394.90
675.97	393.24
676.31	391.70
676.65	390.26
676.99	388.83
677.33	387.26
677.67	385.74
678.01	384.15
678.34	382.74
678.68	381.29
679.02	380.05
679.36	378.64
679.70	377.02
680.04	375.44
680.37	373.99
680.71	372.62
681.05	371.33
681.39	369.92
681.73	368.60
682.06	367.18
682.40	365.89
682.74	364.45
683.08	363.22
683.42	361.88
683.75	360.54
684.09	359.08
684.43	357.63
684.77	356.26
685.10	354.98
685.44	353.70
685.78	352.44
686.12	351.09
686.45	349.83
686.79	348.61
687.13	347.58
687.46	346.32
687.80	345.00
688.14	343.61
688.48	342.49
688.81	341.14
689.15	339.95
689.49	338.78
689.82	337.74
690.16	336.40
690.50	335.33
690.83	334.15
691.17	332.99
691.51	331.96
691.84	330.97
692.18	329.70
692.52	328.62
692.85	327.61
693.19	326.47
693.52	325.40
693.86	324.20
694.20	323.07
694.53	321.99
694.87	321.02
695.21	320.02
695.54	318.89
695.88	317.89
696.21	316.89
696.55	315.87
696.88	314.83
697.22	314.11
697.56	313.09
697.89	312.15
698.23	311.47
698.56	310.50
698.90	309.50
699.23	308.56
699.57	307.57
699.90	306.55
700.24	305.64
700.58	304.73
700.91	303.95
701.25	303.17
701.58	302.40
701.92	301.61
702.25	300.80
702.59	300.07
702.92	299.43
703.26	298.70
703.59	297.95
703.93	297.54
704.26	296.70
704.60	295.90
704.93	295.26
705.26	294.45
705.60	293.98
705.93	293.32
706.27	292.85
706.60	292.32
706.94	291.77
707.27	291.20
707.61	290.55
707.94	290.00
708.27	289.31
708.61	288.64
708.94	287.98
709.28	287.49
709.61	286.99
709.94	286.26
710.28	285.63
710.61	284.99
710.95	284.12
711.28	283.68
711.61	283.26
711.95	282.64
712.28	282.03
712.61	281.40
712.95	280.96
713.28	280.39
713.61	279.81
713.95	279.15
714.28	278.51
714.61	278.04
714.95	277.47
715.28	276.86
715.61	276.24
715.95	275.85
716.28	275.22
716.61	274.75
716.95	274.32
717.28	273.83
717.61	273.34
717.94	272.83
718.28	272.19
718.61	271.61
718.94	271.13
719.27	270.73
719.61	270.24
719.94	269.78
720.27	269.31
720.60	268.81
720.94	268.45
721.27	268.15
721.60	267.73
721.93	267.36
722.27	266.99
722.60	266.71
722.93	266.17
723.26	265.81
723.59	265.27
723.93	264.81
724.26	264.39
724.59	264.02
724.92	263.64
725.25	263.23
725.59	262.81
725.92	262.50
726.25	262.03
726.58	261.72
726.91	261.27
727.24	260.97
727.57	260.70
727.91	260.23
728.24	259.88
728.57	259.57
728.90	259.26
729.23	259.03
729.56	258.81
729.89	258.49
730.22	258.13
730.55	257.74
730.89	257.40
731.22	257.08
731.55	256.86
731.88	256.56
732.21	256.18
732.54	255.81
732.87	255.49
733.20	255.18
733.53	254.73
733.86	254.47
734.19	254.03
734.52	253.68
734.85	253.58
735.18	253.16
735.51	252.90
735.84	252.51
736.17	252.27
736.50	251.82
736.83	251.77
737.16	251.57
737.49	251.26
737.82	251.05
738.15	250.86
738.48	250.45
738.81	250.28
739.14	250.12
739.47	250.04
739.80	249.78
740.13	249.56
740.46	249.38
740.79	249.07
741.12	249.02
741.45	248.85
741.78	248.50
742.11	248.37
742.44	248.05
742.77	247.95
743.10	247.63
743.43	247.46
743.75	247.06
744.08	247.10
744.41	247.06
744.74	246.80
745.07	246.70
745.40	246.56
745.73	246.51
746.06	246.38
746.39	246.19
746.71	246.00
747.04	245.85
747.37	245.65
747.70	245.63
748.03	245.38
748.36	245.17
748.68	245.00
749.01	244.82
749.34	244.69
749.67	244.57
750.00	244.51
750.33	244.43
750.65	244.29
750.98	243.79
751.31	243.63
751.64	243.55
751.97	243.38
752.29	243.27
752.62	243.01
752.95	242.85
753.28	242.67
753.60	242.51
753.93	242.47
754.26	242.39
754.59	242.21
754.91	242.05
755.24	241.88
755.57	241.78
755.90	241.65
756.22	241.54
756.55	241.28
756.88	241.01
757.20	240.74
757.53	240.58
757.86	240.45
758.19	240.42
758.51	240.25
758.84	240.10
759.17	239.88
759.49	239.73
759.82	239.75
760.15	239.60
760.47	239.52
760.80	239.33
761.13	239.20
761.45	239.01
761.78	238.96
762.11	238.84
762.43	238.73
762.76	238.51
763.08	238.42
763.41	238.33
763.74	238.22
764.06	238.17
764.39	237.99
764.71	237.96
765.04	237.76
765.37	237.53
765.69	237.41
766.02	237.36
766.34	237.29
766.67	236.99
767.00	236.84
767.32	236.88
767.65	236.97
767.97	236.83
768.30	236.72
768.62	236.55
768.95	236.43
769.27	236.26
769.60	236.24
769.92	236.00
770.25	235.85
770.57	235.77
770.90	235.60
771.22	235.51
771.55	235.40
771.87	235.30
772.20	235.33
772.52	235.30
772.85	235.44
773.17	235.27
773.50	235.17
773.82	235.13
774.15	234.88
774.47	234.53
774.80	234.54
775.12	234.34
775.45	234.27
775.77	234.27
776.09	234.26
776.42	234.17
776.74	234.27
777.07	234.19
777.39	234.13
777.72	234.09
778.04	234.10
778.36	234.01
778.69	233.88
779.01	233.85
779.33	233.67
779.66	233.30
779.98	233.24
780.31	233.18
780.63	233.23
780.95	233.22
781.28	233.22
781.60	233.03
781.92	233.24
782.25	233.15
782.57	233.10
782.89	233.00
783.22	232.98
783.54	232.81
783.86	232.91
784.19	232.87
784.51	232.79
784.83	232.70
785.16	232.67
785.48	232.64
785.80	232.57
786.12	232.49
786.45	232.56
786.77	232.45
787.09	232.42
787.42	232.39
787.74	232.34
788.06	232.27
788.38	232.23
788.71	232.03
789.03	232.04
789.35	231.93
789.67	231.90
789.99	231.86
790.32	231.86
790.64	231.82
790.96	231.93
791.28	232.01
791.61	232.01
791.93	232.04
792.25	232.10
792.57	232.23
792.89	232.23
793.21	232.19
793.54	232.24
793.86	232.26
794.18	232.16
794.50	232.15
794.82	232.18
795.14	232.28
795.47	232.33
795.79	232.26
796.11	232.27
796.43	232.29
796.75	232.34
797.07	232.39
797.39	232.32
797.71	232.19
798.04	232.13
798.36	232.09
798.68	232.04
799.00	232.02
799.32	231.91
799.64	231.96
799.96	231.95
800.28	232.00
800.60	231.96
800.92	231.93
801.24	231.90
801.56	231.89
801.89	231.73
802.21	231.77
802.53	231.70
802.85	231.70
803.17	231.73
803.49	231.62
803.81	231.50
804.13	231.41
804.45	231.38
804.77	231.35
805.09	231.31
805.41	231.25
805.73	231.09
806.05	231.07
806.37	231.01
806.69	230.91
807.01	230.84
807.33	230.77
807.65	230.57
807.97	230.65
808.28	230.55
808.60	230.60
808.92	230.42
809.24	230.57
809.56	230.43
809.88	230.41
810.20	230.45
810.52	230.51
810.84	230.47
811.16	230.40
811.48	230.38
811.80	230.54
812.12	230.46
812.43	230.52
812.75	230.35
813.07	230.22
813.39	230.21
813.71	230.20
814.03	230.14
814.35	230.27
814.67	230.17
814.98	230.13
815.30	230.08
815.62	230.00
815.94	229.83
816.26	229.97
816.58	229.81
816.89	229.70
817.21	229.60
817.53	229.55
817.85	229.48
818.17	229.46
818.48	229.21
818.80	229.20
819.12	229.10
819.44	229.13
819.76	229.15
820.07	229.18
820.39	229.13
820.71	229.16
821.03	229.16
821.34	229.08
821.66	229.12
821.98	229.10
822.30	229.10
822.61	229.25
822.93	229.20
823.25	229.22
823.57	229.23
823.88	229.24
824.20	229.25
824.52	229.28
824.83	229.18
825.15	229.22
825.47	229.15
825.79	229.24
826.10	229.26
826.42	229.25
826.74	229.29
827.05	229.29
827.37	229.31
827.69	229.28
828.00	229.33
828.32	229.36
828.64	229.35
828.95	229.59
829.27	229.55
829.58	229.52
829.90	229.52
830.22	229.55
830.53	229.43
830.85	229.40
831.17	229.39
831.48	229.40
831.80	229.47
832.11	229.52
832.43	229.42
832.75	229.50
833.06	229.65
833.38	229.62
833.69	229.58
834.01	229.65
834.32	229.61
834.64	229.58
834.96	229.60
835.27	229.74
835.59	229.70
835.90	229.61
836.22	229.67
836.53	229.74
836.85	229.75
837.16	230.10
837.48	230.15
837.79	230.30
838.11	230.36
838.42	230.34
838.74	230.47
839.05	230.49
839.37	230.39
839.68	230.19
840.00	230.18
840.31	230.21
840.63	230.07
840.94	230.11
841.26	230.03
841.57	230.09
841.88	229.97
842.20	229.93
842.51	229.90
842.83	229.75
843.14	229.85
843.46	229.82
843.77	229.66
844.08	229.61
844.40	229.40
844.71	229.45
845.03	229.40
845.34	229.32
845.65	229.34
845.97	229.36
846.28	229.50
846.60	229.38
846.91	229.32
847.22	229.38
847.54	229.35
847.85	229.39
848.16	229.27
848.48	229.24
848.79	229.18
849.10	229.21
849.42	229.29
849.73	229.02
850.04	228.95
850.36	228.90
850.67	228.91
850.98	228.95
851.30	228.81
851.61	228.78
851.92	228.74
852.23	228.79
852.55	228.70
852.86	228.66
853.17	228.83
853.49	228.88
853.80	228.84
854.11	228.79
854.42	228.80
854.74	228.76
855.05	228.76
855.36	228.63
855.67	228.57
855.99	228.55
856.30	228.76
856.61	228.80
856.92	228.69
857.23	228.69
857.55	228.60
857.86	228.56
858.17	228.63
858.48	228.63
858.79	228.54
859.11	228.58
859.42	228.42
859.73	228.30
860.04	228.20
860.35	228.18
860.66	228.17
860.98	228.19
861.29	228.14
861.60	228.11
861.91	228.20
862.22	228.07
862.53	228.03
862.84	227.87
863.16	227.82
863.47	227.75
863.78	227.72
864.09	227.74
864.40	227.70
864.71	227.57
865.02	227.50
865.33	227.42
865.64	227.40
865.95	227.54
866.27	227.64
866.58	227.70
866.89	227.75
867.20	227.75
867.51	227.66
867.82	227.63
868.13	227.71
868.44	227.66
868.75	227.84
869.06	227.80
869.37	227.82
869.68	227.80
869.99	227.89
870.30	227.87
870.61	227.95
870.92	228.00
871.23	228.12
871.54	228.30
871.85	228.43
872.16	228.39
872.47	228.41
872.78	228.19
873.09	228.29
873.40	228.21
873.71	228.22
874.02	228.27
874.33	228.36
874.64	228.28
874.95	228.29
875.26	228.28
875.56	228.30
875.87	228.31
876.18	228.40
876.49	228.68
876.80	228.72
877.11	228.76
877.42	228.82
877.73	228.77
878.04	228.68
878.35	228.57
878.66	228.64
878.96	228.50
879.27	228.68
879.58	228.61
879.89	228.70
880.20	228.79
880.51	228.85
880.82	228.78
881.12	228.78
881.43	228.69
881.74	228.67
882.05	228.64
882.36	228.65
882.67	228.61
882.97	228.30
883.28	228.24
883.59	228.16
883.90	228.18
884.21	228.21
884.51	228.20
884.82	228.25
885.13	228.22
885.44	228.31
885.74	228.28
886.05	228.21
886.36	228.14
886.67	228.03
886.98	228.10
887.28	228.14
887.59	228.15
887.90	228.22
888.20	228.26
888.51	228.31
888.82	228.31
889.13	228.38
889.43	228.57
889.74	228.63
890.05	228.64
890.35	228.61
890.66	228.49
890.97	228.44
891.28	228.40
891.58	228.41
891.89	228.48
892.20	228.54
892.50	228.56
892.81	228.54
893.12	228.50
893.42	228.33
893.73	228.31
894.04	228.26
894.34	228.29
894.65	228.13
894.95	228.05
895.26	227.92
895.57	227.93
895.87	227.87
896.18	227.88
896.48	227.82
896.79	227.75
897.10	227.83
897.40	227.85
897.71	227.96
898.01	227.95
898.32	227.90
898.63	227.83
898.93	227.87
899.24	227.85
899.54	227.87
899.85	227.91
900.15	228.04
900.46	228.08
900.76	228.11
901.07	228.20
901.38	228.33
901.68	228.47
901.99	228.31
902.29	228.22
902.60	228.18
902.90	228.26
903.21	228.28
903.51	228.29
903.82	228.28
904.12	228.21
904.43	228.23
904.73	228.22
905.03	228.18
905.34	228.33
905.64	228.41
905.95	228.45
906.25	228.43
906.56	228.38
906.86	228.42
907.17	228.41
907.47	228.47
907.77	228.40
908.08	228.31
908.38	228.33
908.69	228.37
908.99	228.42
909.30	228.30
909.60	228.37
909.90	228.42
910.21	228.44
910.51	228.49
910.81	228.41
911.12	228.37
911.42	228.39
911.73	228.17
912.03	228.18
912.33	228.18
912.64	228.18
912.94	228.12
913.24	228.16
913.55	228.19
913.85	228.20
914.15	228.22
914.46	228.28
914.76	228.31
915.06	228.27
915.37	228.17
915.67	228.29
915.97	228.18
916.27	228.08
916.58	228.01
916.88	227.98
917.18	228.07
917.49	228.28
917.79	228.32
918.09	228.36
918.39	228.28
918.70	228.21
919.00	228.21
919.30	228.39
919.60	228.26
919.91	228.17
920.21	228.10
920.51	228.01
920.81	227.91
921.12	227.91
921.42	227.99
921.72	228.00
922.02	228.03
922.32	228.08
922.63	228.15
922.93	228.28
923.23	228.24
923.53	228.24
923.83	228.03
924.13	228.00
924.44	228.00
924.74	228.09
925.04	228.18
925.34	228.21
925.64	228.00
925.94	227.98
926.24	228.09
926.55	228.10
926.85	228.24
927.15	228.31
927.45	228.31
927.75	228.18
928.05	228.31
928.35	228.32
928.65	228.41
928.95	228.40
929.26	228.33
929.56	228.36
929.86	228.39
930.16	228.38
930.46	228.40
930.76	228.34
931.06	228.28
931.36	228.30
931.66	228.32
931.96	228.34
932.26	228.38
932.56	228.27
932.86	228.32
933.16	228.31
933.46	228.30
933.76	228.19
934.06	228.34
934.36	228.33
934.66	228.16
934.96	228.12
935.26	228.19
935.56	228.26
935.86	228.14
936.16	227.98
936.46	227.97
936.76	227.86
937.06	227.87
937.36	227.85
937.66	227.75
937.96	227.75
938.26	227.79
938.56	227.71
938.86	227.74
939.16	227.92
939.46	227.95
939.76	227.99
940.06	228.11
940.35	228.07
940.65	228.01
940.95	228.10
941.25	228.07
941.55	228.09
941.85	228.05
942.15	228.16
942.45	228.29
942.75	228.30
943.04	228.48
943.34	228.54
943.64	228.55
943.94	228.59
944.24	228.65
944.54	228.64
944.84	228.64
945.13	228.68
945.43	228.44
945.73	228.43
946.03	228.42
946.33	228.40
946.62	228.40
946.92	228.42
947.22	228.45
947.52	228.46
947.82	228.38
948.11	228.30
948.41	228.39
948.71	228.31
949.01	228.42
949.31	228.33
949.60	228.38
949.90	228.40
950.20	228.44
950.50	228.39
950.79	228.34
951.09	228.40
951.39	228.35
951.69	228.35
951.98	228.32
952.28	228.32
952.58	228.30
952.87	228.31
953.17	228.27
953.47	228.22
953.76	228.22
954.06	228.19
954.36	228.20
954.66	227.98
954.95	228.15
955.25	228.06
955.55	228.12
955.84	228.04
956.14	228.15
956.44	228.10
956.73	228.10
957.03	228.21
957.32	228.24
957.62	228.22
957.92	228.21
958.21	228.21
958.51	228.44
958.81	228.44
959.10	228.41
959.40	228.46
959.69	228.48
959.99	228.53
960.29	228.54
960.58	228.65
960.88	228.80
961.17	228.68
961.47	228.71
961.76	228.70
962.06	228.67
962.36	228.52
962.65	228.60
962.95	228.60
963.24	228.50
963.54	228.54
963.83	228.44
964.13	228.50
964.42	228.48
964.72	228.28
965.01	228.30
965.31	228.31
965.60	228.32
965.90	228.45
966.19	228.38
966.49	228.40
966.78	228.34
967.08	228.37
967.37	228.42
967.67	228.30
967.96	228.35
968.26	228.54
968.55	228.58
968.85	228.57
969.14	228.51
969.43	228.45
969.73	228.44
970.02	228.59
970.32	228.59
970.61	228.53
970.91	228.58
971.20	228.47
971.49	228.43
971.79	228.54
972.08	228.43
972.38	228.49
972.67	228.42
972.96	228.49
973.26	228.47
973.55	228.50
973.85	228.62
974.14	228.50
974.43	228.46
974.73	228.47
975.02	228.41
975.31	228.45
975.61	228.48
975.90	228.32
976.19	228.27
976.49	228.27
976.78	228.33
977.07	228.20
977.37	228.28
977.66	228.28
977.95	228.21
978.24	228.20
978.54	228.28
978.83	228.41
979.12	228.39
979.42	228.30
979.71	228.25
980.00	228.27
980.29	228.32
980.59	228.18
980.88	228.21
981.17	228.19
981.46	228.16
981.76	228.16
982.05	228.30
982.34	228.30
982.63	228.21
982.93	228.23
983.22	228.44
983.51	228.55
983.80	228.62
984.09	228.57
984.39	228.63
984.68	228.60
984.97	228.51
985.26	228.43
985.55	228.50
985.85	228.48
986.14	228.28
986.43	228.20
986.72	228.23
987.01	228.15
987.30	228.24
987.59	228.21
987.89	228.30
988.18	228.26
988.47	228.20
988.76	228.27
989.05	228.20
989.34	228.05
989.63	228.00
989.92	227.99
990.22	227.95
990.51	227.83
990.80	227.68
991.09	227.63
991.38	227.63
991.67	227.64
991.96	227.55
992.25	227.67
992.54	227.69
992.83	227.70
993.12	227.64
993.41	227.66
993.70	227.74
993.99	227.76
994.28	227.77
994.58	227.82
994.87	227.85
995.16	227.85
995.45	227.80
995.74	227.68
996.03	227.65
996.32	227.80
996.61	227.91
996.90	227.92
997.19	227.97
997.48	227.99
997.77	227.97
998.06	228.04
998.34	228.04
998.63	228.05
998.92	227.95
999.21	228.05
999.50	227.95
999.79	227.84
1000.08	227.83
1000.37	227.87
1000.66	227.96
1000.95	227.96
1001.24	227.89
1001.53	227.95
1001.82	228.05
1002.11	228.02
1002.40	227.93
1002.68	227.97
1002.97	228.17
1003.26	228.14
1003.55	228.10
1003.84	228.09
1004.13	228.11
1004.42	228.03
1004.71	228.09
1004.99	228.15
1005.28	228.20
1005.57	228.19
1005.86	228.25
1006.15	228.22
1006.44	228.19
1006.72	228.18
1007.01	228.15
1007.30	228.18
1007.59	228.14
1007.88	228.06
1008.17	228.02
1008.45	227.98
1008.74	227.79
1009.03	227.67
1009.32	227.76
1009.60	227.76
1009.89	227.76
1010.18	227.75
1010.47	227.75
1010.76	227.73
1011.04	227.71
1011.33	227.91
1011.62	227.98
1011.91	227.97
1012.19	227.96
1012.48	227.90
1012.77	227.82
1013.05	227.88
1013.34	227.94
1013.63	228.00
1013.92	228.09
1014.20	228.16
1014.49	228.17
1014.78	228.25
1015.06	228.20
1015.35	228.12
1015.64	228.13
1015.92	228.13
1016.21	228.18
1016.50	228.11
1016.78	228.25
1017.07	228.36
1017.36	228.09
1017.64	228.09
1017.93	228.15
1018.22	228.19
1018.50	228.30
1018.79	228.37
1019.08	228.20
1019.36	228.26
1019.65	228.18
1019.93	228.24
1020.22	228.15
1020.51	228.19
1020.79	228.11
1021.08	228.80
1021.36	228.70
1021.65	229.00
1021.94	225.70
1022.22	229.80
1022.51	226.80
1022.79	229.80
1023.08	226.50
1023.36	228.80
1023.65	226.20
>>>>>End Processed Spectral Data<<<<<
