SpectraSuite Data File
++++++++++++++++++++++++++++++++++++
Date: Fri Feb 01 14:39:15 EST 2013
User: group
Dark Spectrum Present: No
Reference Spectrum Present: No
Number of Sampled Component Spectra: 1
Spectrometers: USB2E7196
Integration Time (usec): 70000 (USB2E7196)
Spectra Averaged: 10 (USB2E7196)
Boxcar Smoothing: 10 (USB2E7196)
Correct for Electrical Dark: No (USB2E7196)
Strobe/Lamp Enabled: No (USB2E7196)
Correct for Detector Non-linearity: No (USB2E7196)
Correct for Stray Light: No (USB2E7196)
Number of Pixels in Processed Spectrum: 2048
>>>>>Begin Processed Spectral Data<<<<<
339.09	0.00
339.48	216.70
339.86	218.20
340.24	218.70
340.63	219.60
341.01	223.20
341.39	222.30
341.78	223.90
342.16	225.80
342.54	225.10
342.93	214.51
343.31	225.30
343.69	225.78
344.07	226.28
344.46	226.71
344.84	227.11
345.22	227.32
345.60	227.62
345.99	227.90
346.37	227.98
346.75	228.14
347.13	228.11
347.52	228.23
347.90	228.36
348.28	228.34
348.66	228.44
349.05	228.46
349.43	228.52
349.81	228.50
350.19	228.58
350.57	228.59
350.96	228.67
351.34	228.83
351.72	228.87
352.10	228.92
352.48	228.89
352.87	228.95
353.25	228.99
353.63	229.07
354.01	228.98
354.39	229.13
354.77	229.17
355.15	229.35
355.54	229.39
355.92	229.42
356.30	229.49
356.68	229.68
357.06	229.71
357.44	229.72
357.82	229.72
358.20	229.79
358.58	229.82
358.97	229.81
359.35	229.83
359.73	229.90
360.11	229.89
360.49	230.02
360.87	230.14
361.25	230.25
361.63	230.29
362.01	230.45
362.39	230.30
362.77	230.38
363.15	230.27
363.53	230.38
363.91	230.32
364.29	230.33
364.67	230.07
365.05	230.11
365.43	230.14
365.81	230.16
366.19	230.12
366.57	230.14
366.95	230.17
367.33	230.06
367.71	230.13
368.09	230.10
368.47	230.20
368.85	230.04
369.23	229.98
369.61	229.90
369.99	229.75
370.37	229.85
370.75	229.76
371.13	229.71
371.51	229.54
371.89	229.50
372.27	229.48
372.65	229.51
373.03	229.36
373.41	229.25
373.78	229.06
374.16	228.92
374.54	228.81
374.92	228.66
375.30	228.59
375.68	228.43
376.06	228.38
376.44	228.17
376.82	228.10
377.19	228.00
377.57	227.91
377.95	227.86
378.33	227.76
378.71	227.65
379.09	227.54
379.47	227.40
379.84	227.28
380.22	227.10
380.60	226.84
380.98	226.71
381.36	226.63
381.73	226.58
382.11	226.65
382.49	226.65
382.87	226.66
383.25	226.64
383.62	226.78
384.00	226.72
384.38	226.68
384.76	226.73
385.13	226.76
385.51	226.64
385.89	226.60
386.27	226.63
386.64	226.52
387.02	226.45
387.40	226.54
387.78	226.51
388.15	226.54
388.53	226.63
388.91	226.75
389.29	226.70
389.66	226.75
390.04	226.57
390.42	226.51
390.79	226.52
391.17	226.51
391.55	226.40
391.92	226.40
392.30	226.42
392.68	226.35
393.05	226.41
393.43	226.56
393.81	226.61
394.18	226.61
394.56	226.76
394.94	227.01
395.31	226.99
395.69	227.10
396.06	227.17
396.44	227.24
396.82	227.30
397.19	227.51
397.57	227.67
397.95	227.89
398.32	227.89
398.70	227.86
399.07	227.97
399.45	228.01
399.82	228.15
400.20	228.10
400.58	228.18
400.95	228.25
401.33	228.33
401.70	228.45
402.08	228.57
402.45	228.54
402.83	228.70
403.20	228.86
403.58	229.02
403.95	229.24
404.33	229.39
404.71	229.43
405.08	229.70
405.46	229.80
405.83	229.97
406.21	230.16
406.58	230.44
406.96	230.57
407.33	230.72
407.70	230.95
408.08	231.47
408.45	231.67
408.83	231.84
409.20	231.99
409.58	232.23
409.95	232.43
410.33	232.91
410.70	233.05
411.08	233.43
411.45	233.65
411.82	233.91
412.20	234.31
412.57	234.75
412.95	234.89
413.32	235.30
413.69	235.70
414.07	235.99
414.44	236.44
414.82	236.94
415.19	237.61
415.56	238.09
415.94	238.53
416.31	239.17
416.68	239.83
417.06	240.64
417.43	241.25
417.81	241.98
418.18	242.67
418.55	243.49
418.93	244.32
419.30	245.24
419.67	246.32
420.04	247.27
420.42	248.31
420.79	249.53
421.16	250.71
421.54	251.93
421.91	253.37
422.28	254.75
422.66	256.27
423.03	257.54
423.40	259.02
423.77	260.59
424.15	262.20
424.52	263.68
424.89	265.45
425.26	267.16
425.64	268.81
426.01	270.59
426.38	272.49
426.75	274.39
427.13	276.37
427.50	278.33
427.87	280.46
428.24	282.54
428.61	284.60
428.99	286.84
429.36	289.25
429.73	291.64
430.10	293.94
430.47	296.28
430.85	298.75
431.22	301.22
431.59	303.90
431.96	306.64
432.33	309.70
432.70	312.55
433.08	315.83
433.45	318.88
433.82	322.09
434.19	325.39
434.56	328.62
434.93	331.74
435.30	334.83
435.68	338.18
436.05	341.55
436.42	344.86
436.79	347.96
437.16	351.00
437.53	354.32
437.90	357.78
438.27	361.16
438.64	364.59
439.01	367.81
439.38	370.64
439.75	373.15
440.13	376.25
440.50	379.13
440.87	381.42
441.24	384.00
441.61	386.70
441.98	388.75
442.35	391.04
442.72	393.44
443.09	395.76
443.46	397.25
443.83	398.20
444.20	399.05
444.57	400.00
444.94	400.75
445.31	401.49
445.68	402.14
446.05	402.40
446.42	402.16
446.79	401.99
447.16	401.79
447.53	401.66
447.90	400.57
448.27	399.30
448.64	397.71
449.01	396.56
449.37	394.46
449.74	392.51
450.11	390.16
450.48	387.40
450.85	384.55
451.22	382.27
451.59	380.03
451.96	377.79
452.33	375.08
452.70	372.39
453.07	369.12
453.43	365.69
453.80	362.47
454.17	359.53
454.54	356.50
454.91	353.30
455.28	350.30
455.65	347.24
456.02	344.57
456.38	342.25
456.75	339.22
457.12	336.55
457.49	333.77
457.86	331.17
458.23	329.03
458.59	326.72
458.96	324.07
459.33	321.85
459.70	319.80
460.07	317.94
460.43	315.98
460.80	314.09
461.17	312.43
461.54	310.61
461.91	308.81
462.27	307.20
462.64	305.55
463.01	303.82
463.38	302.22
463.74	300.44
464.11	298.87
464.48	297.50
464.85	296.04
465.21	295.05
465.58	293.90
465.95	292.50
466.32	291.31
466.68	290.29
467.05	289.22
467.42	287.97
467.78	286.80
468.15	285.64
468.52	284.78
468.88	283.60
469.25	282.75
469.62	281.91
469.98	280.97
470.35	280.17
470.72	279.29
471.08	278.46
471.45	277.74
471.82	276.99
472.18	276.25
472.55	275.55
472.92	274.67
473.28	274.03
473.65	273.45
474.02	272.71
474.38	272.09
474.75	271.47
475.11	271.02
475.48	270.57
475.85	270.12
476.21	269.50
476.58	269.16
476.94	268.62
477.31	268.21
477.67	267.75
478.04	267.39
478.41	267.16
478.77	267.03
479.14	266.63
479.50	266.34
479.87	266.00
480.23	265.80
480.60	265.50
480.96	265.18
481.33	264.96
481.69	264.83
482.06	264.68
482.42	264.57
482.79	264.38
483.15	264.30
483.52	264.34
483.88	264.32
484.25	264.10
484.61	264.16
484.98	263.96
485.34	263.98
485.71	264.03
486.07	264.05
486.44	263.99
486.80	264.12
487.17	264.20
487.53	264.37
487.90	264.54
488.26	264.81
488.62	264.96
488.99	265.04
489.35	265.23
489.72	265.38
490.08	265.43
490.44	265.49
490.81	265.60
491.17	265.64
491.54	265.88
491.90	266.21
492.26	266.26
492.63	266.62
492.99	266.87
493.36	267.16
493.72	267.38
494.08	267.65
494.45	267.85
494.81	268.11
495.17	268.28
495.54	268.44
495.90	268.66
496.26	268.93
496.63	269.19
496.99	269.48
497.35	269.84
497.72	270.30
498.08	270.78
498.44	271.28
498.80	271.79
499.17	272.24
499.53	272.65
499.89	273.16
500.26	273.68
500.62	274.23
500.98	274.74
501.34	275.30
501.71	275.99
502.07	276.65
502.43	277.21
502.79	277.93
503.16	278.64
503.52	279.37
503.88	280.12
504.24	280.91
504.60	281.68
504.97	282.53
505.33	283.40
505.69	284.22
506.05	285.00
506.41	285.83
506.78	286.71
507.14	287.78
507.50	288.96
507.86	290.06
508.22	291.14
508.59	292.37
508.95	293.57
509.31	294.68
509.67	295.93
510.03	297.40
510.39	298.86
510.75	300.50
511.12	302.16
511.48	303.73
511.84	305.50
512.20	307.28
512.56	309.08
512.92	310.98
513.28	313.07
513.64	315.14
514.00	317.40
514.37	319.71
514.73	322.09
515.09	324.42
515.45	326.85
515.81	329.40
516.17	331.91
516.53	334.62
516.89	337.48
517.25	340.38
517.61	343.40
517.97	346.48
518.33	349.61
518.69	352.90
519.05	356.52
519.41	359.97
519.77	363.49
520.13	367.17
520.49	370.93
520.85	374.77
521.21	378.67
521.57	382.63
521.93	386.67
522.29	390.76
522.65	394.94
523.01	399.20
523.37	403.66
523.73	408.24
524.09	412.87
524.45	417.38
524.81	422.25
525.17	427.22
525.53	432.18
525.89	437.23
526.25	442.34
526.61	447.29
526.97	452.68
527.33	458.28
527.68	463.86
528.04	469.36
528.40	475.04
528.76	480.84
529.12	486.75
529.48	492.81
529.84	498.68
530.20	504.85
530.56	511.17
530.91	517.63
531.27	524.00
531.63	530.42
531.99	537.10
532.35	543.57
532.71	550.10
533.07	556.94
533.42	563.71
533.78	570.39
534.14	577.36
534.50	584.19
534.86	590.93
535.21	597.76
535.57	605.03
535.93	611.90
536.29	619.04
536.65	626.31
537.00	633.29
537.36	640.74
537.72	647.94
538.08	655.25
538.44	662.15
538.79	669.41
539.15	676.59
539.51	684.01
539.87	691.68
540.22	699.12
540.58	706.61
540.94	713.88
541.29	721.41
541.65	728.75
542.01	736.28
542.37	743.72
542.72	751.10
543.08	758.23
543.44	765.91
543.79	773.14
544.15	780.22
544.51	787.70
544.87	795.14
545.22	802.42
545.58	809.71
545.94	816.87
546.29	824.15
546.65	831.47
547.01	838.27
547.36	844.97
547.72	851.94
548.07	858.90
548.43	865.68
548.79	872.28
549.14	879.06
549.50	885.53
549.86	891.95
550.21	898.47
550.57	905.36
550.92	911.69
551.28	918.18
551.64	924.58
551.99	931.00
552.35	937.31
552.70	943.84
553.06	950.39
553.41	956.96
553.77	963.19
554.13	969.55
554.48	975.88
554.84	981.97
555.19	987.96
555.55	993.91
555.90	999.81
556.26	1006.03
556.61	1011.85
556.97	1017.47
557.32	1023.52
557.68	1029.37
558.03	1034.81
558.39	1040.50
558.74	1046.61
559.10	1052.18
559.45	1057.89
559.81	1063.60
560.16	1068.64
560.52	1073.52
560.87	1078.80
561.23	1083.74
561.58	1088.70
561.94	1093.80
562.29	1098.68
562.64	1103.29
563.00	1107.53
563.35	1112.47
563.71	1117.44
564.06	1122.49
564.42	1127.27
564.77	1131.77
565.12	1136.26
565.48	1140.61
565.83	1144.85
566.19	1148.78
566.54	1152.56
566.89	1156.38
567.25	1159.91
567.60	1164.27
567.96	1168.25
568.31	1171.74
568.66	1175.36
569.02	1179.01
569.37	1182.06
569.72	1185.53
570.08	1188.74
570.43	1191.87
570.78	1194.96
571.14	1197.31
571.49	1199.74
571.84	1202.89
572.20	1205.22
572.55	1207.46
572.90	1209.79
573.26	1212.24
573.61	1214.07
573.96	1216.44
574.31	1217.99
574.67	1219.13
575.02	1220.15
575.37	1221.37
575.72	1222.24
576.08	1223.20
576.43	1224.05
576.78	1225.16
577.13	1226.08
577.49	1227.22
577.84	1228.25
578.19	1228.95
578.54	1229.51
578.90	1230.02
579.25	1229.59
579.60	1229.95
579.95	1230.14
580.30	1230.05
580.66	1229.46
581.01	1229.56
581.36	1229.31
581.71	1229.17
582.06	1229.18
582.42	1228.79
582.77	1228.18
583.12	1228.06
583.47	1227.80
583.82	1227.65
584.17	1227.07
584.53	1226.41
584.88	1225.70
585.23	1225.20
585.58	1224.57
585.93	1223.78
586.28	1223.30
586.63	1223.27
586.98	1222.83
587.34	1222.15
587.69	1221.37
588.04	1220.83
588.39	1219.93
588.74	1218.44
589.09	1217.21
589.44	1215.73
589.79	1214.49
590.14	1213.67
590.49	1212.14
590.84	1210.75
591.19	1208.97
591.54	1207.08
591.89	1204.85
592.25	1202.95
592.60	1200.44
592.95	1197.83
593.30	1195.70
593.65	1193.04
594.00	1190.49
594.35	1188.23
594.70	1185.59
595.05	1183.24
595.40	1180.61
595.75	1177.43
596.10	1175.40
596.45	1173.38
596.80	1171.79
597.15	1169.52
597.50	1167.03
597.85	1165.03
598.19	1163.03
598.54	1160.93
598.89	1158.86
599.24	1157.21
599.59	1154.94
599.94	1152.86
600.29	1150.84
600.64	1148.64
600.99	1145.84
601.34	1143.24
601.69	1140.30
602.04	1137.94
602.39	1135.26
602.74	1132.88
603.08	1131.12
603.43	1128.84
603.78	1126.05
604.13	1123.09
604.48	1120.38
604.83	1117.63
605.18	1114.86
605.53	1111.24
605.87	1107.57
606.22	1104.76
606.57	1101.29
606.92	1098.08
607.27	1095.49
607.62	1092.58
607.96	1089.71
608.31	1087.29
608.66	1083.95
609.01	1080.41
609.36	1076.64
609.70	1072.95
610.05	1069.26
610.40	1065.62
610.75	1062.00
611.10	1058.08
611.44	1054.05
611.79	1050.66
612.14	1046.71
612.49	1042.11
612.83	1038.26
613.18	1034.26
613.53	1030.01
613.88	1025.87
614.22	1021.90
614.57	1017.41
614.92	1013.07
615.27	1009.13
615.61	1004.67
615.96	1000.77
616.31	997.44
616.65	994.42
617.00	990.77
617.35	986.84
617.70	982.80
618.04	978.47
618.39	974.76
618.74	971.10
619.08	966.87
619.43	963.12
619.78	959.77
620.12	956.10
620.47	952.67
620.82	948.58
621.16	945.08
621.51	941.44
621.85	937.57
622.20	933.40
622.55	929.10
622.89	925.30
623.24	921.69
623.59	917.43
623.93	913.30
624.28	909.48
624.62	905.62
624.97	901.89
625.32	898.33
625.66	894.80
626.01	890.95
626.35	887.10
626.70	883.18
627.04	879.62
627.39	875.80
627.73	871.75
628.08	868.25
628.43	864.35
628.77	860.43
629.12	856.60
629.46	852.96
629.81	848.75
630.15	844.59
630.50	840.30
630.84	836.40
631.19	832.16
631.53	828.01
631.88	823.81
632.22	819.37
632.57	815.37
632.91	810.89
633.26	806.71
633.60	802.65
633.95	798.56
634.29	794.40
634.64	790.54
634.98	786.59
635.32	782.80
635.67	779.19
636.01	775.21
636.36	771.39
636.70	767.71
637.05	764.25
637.39	760.79
637.73	757.42
638.08	754.05
638.42	750.50
638.77	747.25
639.11	743.87
639.45	740.35
639.80	736.69
640.14	733.20
640.49	729.59
640.83	726.11
641.17	722.73
641.52	719.03
641.86	715.62
642.20	712.33
642.55	708.67
642.89	705.10
643.23	701.73
643.58	698.39
643.92	694.85
644.26	691.37
644.61	688.23
644.95	684.47
645.29	680.39
645.64	676.76
645.98	673.15
646.32	669.80
646.66	666.41
647.01	662.86
647.35	659.46
647.69	656.30
648.04	652.92
648.38	649.23
648.72	645.77
649.06	641.90
649.41	638.50
649.75	634.70
650.09	631.05
650.43	627.32
650.78	623.67
651.12	620.13
651.46	616.82
651.80	613.15
652.14	610.08
652.49	607.10
652.83	603.93
653.17	600.42
653.51	596.99
653.85	593.63
654.20	590.19
654.54	586.69
654.88	583.05
655.22	579.31
655.56	576.01
655.90	573.00
656.25	570.00
656.59	566.70
656.93	564.01
657.27	560.86
657.61	557.65
657.95	554.77
658.29	551.80
658.64	548.79
658.98	545.58
659.32	542.28
659.66	538.99
660.00	535.90
660.34	532.91
660.68	529.80
661.02	526.88
661.36	524.12
661.70	521.45
662.05	518.89
662.39	516.61
662.73	514.07
663.07	511.19
663.41	508.50
663.75	505.95
664.09	503.21
664.43	500.41
664.77	498.06
665.11	495.56
665.45	493.15
665.79	490.43
666.13	488.04
666.47	485.60
666.81	483.20
667.15	480.70
667.49	478.31
667.83	475.98
668.17	473.58
668.51	471.26
668.85	468.85
669.19	466.56
669.53	464.09
669.87	461.67
670.21	459.45
670.55	457.08
670.89	455.02
671.23	452.86
671.57	450.89
671.91	448.78
672.25	446.31
672.58	444.26
672.92	442.26
673.26	440.34
673.60	438.23
673.94	436.31
674.28	434.31
674.62	432.48
674.96	430.50
675.30	428.73
675.64	426.83
675.97	425.05
676.31	423.02
676.65	421.13
676.99	419.34
677.33	417.47
677.67	415.82
678.01	413.73
678.34	411.80
678.68	410.11
679.02	408.23
679.36	406.66
679.70	404.85
680.04	403.00
680.37	401.22
680.71	399.61
681.05	397.94
681.39	396.32
681.73	394.77
682.06	393.22
682.40	391.48
682.74	389.93
683.08	388.25
683.42	386.68
683.75	385.06
684.09	383.35
684.43	381.70
684.77	380.05
685.10	378.68
685.44	377.09
685.78	375.55
686.12	374.00
686.45	372.34
686.79	370.60
687.13	369.15
687.46	367.54
687.80	366.07
688.14	364.53
688.48	363.07
688.81	361.35
689.15	359.97
689.49	358.51
689.82	356.94
690.16	355.45
690.50	354.11
690.83	352.83
691.17	351.37
691.51	350.11
691.84	348.80
692.18	347.25
692.52	345.98
692.85	344.62
693.19	343.39
693.52	342.06
693.86	340.94
694.20	339.80
694.53	338.54
694.87	337.17
695.21	335.89
695.54	334.64
695.88	333.41
696.21	332.12
696.55	330.86
696.88	329.67
697.22	328.51
697.56	327.39
697.89	326.13
698.23	325.17
698.56	323.92
698.90	322.87
699.23	321.76
699.57	320.61
699.90	319.41
700.24	318.16
700.58	317.16
700.91	316.00
701.25	315.00
701.58	314.03
701.92	313.11
702.25	312.26
702.59	311.32
702.92	310.41
703.26	309.47
703.59	308.74
703.93	308.00
704.26	307.09
704.60	306.20
704.93	305.38
705.26	304.50
705.60	303.82
705.93	302.95
706.27	302.24
706.60	301.64
706.94	300.89
707.27	300.18
707.61	299.39
707.94	298.71
708.27	297.84
708.61	297.07
708.94	296.36
709.28	295.69
709.61	294.99
709.94	294.37
710.28	293.60
710.61	292.82
710.95	291.90
711.28	291.38
711.61	290.70
711.95	290.07
712.28	289.31
712.61	288.52
712.95	287.95
713.28	287.27
713.61	286.48
713.95	285.77
714.28	285.22
714.61	284.65
714.95	283.98
715.28	283.30
715.61	282.65
715.95	282.08
716.28	281.27
716.61	280.64
716.95	280.05
717.28	279.70
717.61	279.17
717.94	278.71
718.28	278.09
718.61	277.51
718.94	276.95
719.27	276.55
719.61	276.05
719.94	275.32
720.27	274.69
720.60	274.33
720.94	274.06
721.27	273.61
721.60	273.14
721.93	272.79
722.27	272.52
722.60	272.07
722.93	271.54
723.26	271.22
723.59	270.74
723.93	270.21
724.26	269.67
724.59	269.12
724.92	268.67
725.25	268.18
725.59	267.68
725.92	267.28
726.25	266.84
726.58	266.43
726.91	266.07
727.24	265.76
727.57	265.28
727.91	264.75
728.24	264.35
728.57	263.93
728.90	263.46
729.23	262.92
729.56	262.61
729.89	262.21
730.22	261.82
730.55	261.45
730.89	261.16
731.22	260.68
731.55	260.36
731.88	259.96
732.21	259.53
732.54	259.22
732.87	258.82
733.20	258.43
733.53	258.16
733.86	257.87
734.19	257.54
734.52	257.16
734.85	256.96
735.18	256.55
735.51	256.27
735.84	255.92
736.17	255.77
736.50	255.31
736.83	255.13
737.16	254.87
737.49	254.56
737.82	254.23
738.15	254.09
738.48	253.84
738.81	253.59
739.14	253.44
739.47	253.20
739.80	252.91
740.13	252.68
740.46	252.36
740.79	252.01
741.12	251.74
741.45	251.52
741.78	251.20
742.11	251.04
742.44	250.74
742.77	250.59
743.10	250.19
743.43	249.97
743.75	249.63
744.08	249.54
744.41	249.33
744.74	249.01
745.07	248.71
745.40	248.49
745.73	248.32
746.06	248.10
746.39	247.81
746.71	247.60
747.04	247.38
747.37	247.20
747.70	247.14
748.03	246.94
748.36	246.72
748.68	246.47
749.01	246.25
749.34	246.02
749.67	245.78
750.00	245.70
750.33	245.71
750.65	245.54
750.98	245.22
751.31	245.03
751.64	244.98
751.97	244.98
752.29	244.79
752.62	244.55
752.95	244.38
753.28	244.20
753.60	244.09
753.93	243.88
754.26	243.76
754.59	243.62
754.91	243.47
755.24	243.34
755.57	243.20
755.90	243.07
756.22	242.80
756.55	242.61
756.88	242.30
757.20	242.02
757.53	241.85
757.86	241.66
758.19	241.69
758.51	241.46
758.84	241.18
759.17	241.10
759.49	240.98
759.82	240.89
760.15	240.82
760.47	240.69
760.80	240.53
761.13	240.29
761.45	240.06
761.78	239.90
762.11	239.86
762.43	239.69
762.76	239.55
763.08	239.69
763.41	239.59
763.74	239.58
764.06	239.45
764.39	239.41
764.71	239.26
765.04	239.03
765.37	238.89
765.69	238.78
766.02	238.59
766.34	238.47
766.67	238.30
767.00	238.19
767.32	238.12
767.65	238.13
767.97	238.10
768.30	238.06
768.62	237.92
768.95	237.65
769.27	237.57
769.60	237.42
769.92	237.20
770.25	237.04
770.57	236.85
770.90	236.68
771.22	236.46
771.55	236.36
771.87	236.30
772.20	236.23
772.52	236.26
772.85	236.42
773.17	236.32
773.50	236.22
773.82	236.12
774.15	235.98
774.47	235.80
774.80	235.60
775.12	235.38
775.45	235.31
775.77	235.31
776.09	235.18
776.42	235.05
776.74	234.95
777.07	234.87
777.39	234.88
777.72	234.91
778.04	234.83
778.36	234.74
778.69	234.63
779.01	234.60
779.33	234.35
779.66	234.00
779.98	233.86
780.31	233.85
780.63	233.89
780.95	233.77
781.28	233.70
781.60	233.71
781.92	233.70
782.25	233.67
782.57	233.51
782.89	233.50
783.22	233.49
783.54	233.45
783.86	233.45
784.19	233.32
784.51	233.27
784.83	233.23
785.16	233.16
785.48	233.09
785.80	232.99
786.12	232.98
786.45	233.12
786.77	233.10
787.09	232.98
787.42	232.89
787.74	232.93
788.06	232.90
788.38	232.84
788.71	232.82
789.03	232.88
789.35	232.93
789.67	232.85
789.99	232.86
790.32	232.86
790.64	232.86
790.96	233.04
791.28	233.03
791.61	232.96
791.93	233.03
792.25	233.00
792.57	233.17
792.89	233.08
793.21	232.89
793.54	232.98
793.86	232.94
794.18	232.88
794.50	232.86
794.82	232.90
795.14	232.92
795.47	232.93
795.79	232.79
796.11	232.76
796.43	232.81
796.75	232.74
797.07	232.79
797.39	232.77
797.71	232.57
798.04	232.44
798.36	232.57
798.68	232.48
799.00	232.42
799.32	232.47
799.64	232.54
799.96	232.56
800.28	232.51
800.60	232.51
800.92	232.50
801.24	232.49
801.56	232.41
801.89	232.35
802.21	232.35
802.53	232.33
802.85	232.33
803.17	232.41
803.49	232.29
803.81	232.14
804.13	232.13
804.45	232.19
804.77	232.26
805.09	232.21
805.41	232.21
805.73	232.25
806.05	232.01
806.37	231.97
806.69	231.96
807.01	232.00
807.33	231.95
807.65	231.85
807.97	231.85
808.28	231.81
808.60	231.77
808.92	231.65
809.24	231.73
809.56	231.55
809.88	231.38
810.20	231.46
810.52	231.51
810.84	231.45
811.16	231.30
811.48	231.24
811.80	231.18
812.12	231.12
812.43	231.07
812.75	231.12
813.07	231.05
813.39	230.96
813.71	230.82
814.03	230.79
814.35	230.76
814.67	230.54
814.98	230.40
815.30	230.35
815.62	230.23
815.94	230.07
816.26	230.23
816.58	230.13
816.89	229.99
817.21	229.85
817.53	229.77
817.85	229.70
818.17	229.60
818.48	229.50
818.80	229.52
819.12	229.43
819.44	229.29
819.76	229.23
820.07	229.25
820.39	229.08
820.71	229.03
821.03	228.98
821.34	229.02
821.66	229.07
821.98	229.03
822.30	229.12
822.61	229.21
822.93	229.02
823.25	228.97
823.57	228.94
823.88	228.91
824.20	228.87
824.52	228.89
824.83	228.93
825.15	228.84
825.47	228.80
825.79	228.84
826.10	228.88
826.42	228.84
826.74	228.82
827.05	228.89
827.37	228.92
827.69	228.82
828.00	228.77
828.32	228.79
828.64	228.81
828.95	228.84
829.27	228.75
829.58	228.88
829.90	228.95
830.22	228.93
830.53	228.98
830.85	228.95
831.17	228.99
831.48	229.03
831.80	229.16
832.11	229.13
832.43	229.07
832.75	229.01
833.06	229.14
833.38	229.10
833.69	229.15
834.01	229.12
834.32	229.27
834.64	229.30
834.96	229.31
835.27	229.35
835.59	229.36
835.90	229.37
836.22	229.37
836.53	229.41
836.85	229.59
837.16	229.80
837.48	229.84
837.79	229.96
838.11	229.91
838.42	229.81
838.74	229.83
839.05	229.88
839.37	229.94
839.68	229.84
840.00	229.82
840.31	229.87
840.63	229.97
840.94	229.90
841.26	229.90
841.57	229.98
841.88	229.95
842.20	229.96
842.51	229.91
842.83	229.92
843.14	230.02
843.46	229.93
843.77	229.80
844.08	229.77
844.40	229.58
844.71	229.52
845.03	229.48
845.34	229.52
845.65	229.56
845.97	229.58
846.28	229.59
846.60	229.57
846.91	229.41
847.22	229.33
847.54	229.47
847.85	229.48
848.16	229.40
848.48	229.34
848.79	229.42
849.10	229.43
849.42	229.38
849.73	229.22
850.04	229.16
850.36	229.14
850.67	229.17
850.98	229.20
851.30	229.28
851.61	229.34
851.92	229.27
852.23	229.28
852.55	229.15
852.86	229.15
853.17	229.31
853.49	229.46
853.80	229.51
854.11	229.46
854.42	229.47
854.74	229.45
855.05	229.49
855.36	229.37
855.67	229.31
855.99	229.33
856.30	229.50
856.61	229.59
856.92	229.51
857.23	229.46
857.55	229.45
857.86	229.51
858.17	229.54
858.48	229.47
858.79	229.44
859.11	229.48
859.42	229.43
859.73	229.25
860.04	229.22
860.35	229.05
860.66	228.96
860.98	228.97
861.29	228.91
861.60	228.90
861.91	228.79
862.22	228.78
862.53	228.72
862.84	228.51
863.16	228.45
863.47	228.38
863.78	228.38
864.09	228.38
864.40	228.28
864.71	228.27
865.02	228.30
865.33	228.13
865.64	228.12
865.95	228.10
866.27	228.23
866.58	228.14
866.89	228.15
867.20	228.08
867.51	228.00
867.82	228.02
868.13	228.04
868.44	228.08
868.75	228.14
869.06	228.14
869.37	228.16
869.68	228.02
869.99	228.11
870.30	228.20
870.61	228.22
870.92	228.17
871.23	228.14
871.54	228.22
871.85	228.31
872.16	228.31
872.47	228.28
872.78	228.19
873.09	228.23
873.40	228.27
873.71	228.42
874.02	228.51
874.33	228.49
874.64	228.42
874.95	228.47
875.26	228.45
875.56	228.50
875.87	228.52
876.18	228.56
876.49	228.68
876.80	228.72
877.11	228.61
877.42	228.72
877.73	228.73
878.04	228.77
878.35	228.83
878.66	228.88
878.96	228.91
879.27	228.94
879.58	228.95
879.89	228.93
880.20	228.90
880.51	228.96
880.82	229.04
881.12	229.08
881.43	229.05
881.74	229.15
882.05	229.20
882.36	229.20
882.67	229.39
882.97	229.24
883.28	229.19
883.59	229.33
883.90	229.28
884.21	229.37
884.51	229.26
884.82	229.24
885.13	229.24
885.44	229.27
885.74	229.28
886.05	229.27
886.36	229.35
886.67	229.30
886.98	229.32
887.28	229.33
887.59	229.40
887.90	229.46
888.20	229.41
888.51	229.35
888.82	229.29
889.13	229.23
889.43	229.30
889.74	229.31
890.05	229.30
890.35	229.27
890.66	229.14
890.97	229.17
891.28	229.15
891.58	229.17
891.89	229.23
892.20	229.18
892.50	229.21
892.81	229.14
893.12	229.12
893.42	229.04
893.73	229.07
894.04	229.02
894.34	229.01
894.65	228.93
894.95	228.91
895.26	228.94
895.57	228.99
895.87	229.00
896.18	228.93
896.48	228.89
896.79	228.82
897.10	228.92
897.40	228.84
897.71	228.78
898.01	228.65
898.32	228.58
898.63	228.63
898.93	228.59
899.24	228.52
899.54	228.51
899.85	228.45
900.15	228.35
900.46	228.35
900.76	228.28
901.07	228.20
901.38	228.24
901.68	228.33
901.99	228.21
902.29	228.17
902.60	228.16
902.90	228.14
903.21	228.18
903.51	228.10
903.82	228.07
904.12	228.09
904.43	228.11
904.73	228.09
905.03	227.90
905.34	228.10
905.64	228.12
905.95	228.16
906.25	228.13
906.56	228.16
906.86	228.18
907.17	228.14
907.47	228.14
907.77	227.96
908.08	227.85
908.38	227.90
908.69	227.75
908.99	227.77
909.30	227.69
909.60	227.77
909.90	227.64
910.21	227.75
910.51	227.74
910.81	227.80
911.12	227.77
911.42	227.96
911.73	227.78
912.03	227.85
912.33	227.82
912.64	227.84
912.94	227.71
913.24	227.57
913.55	227.60
913.85	227.72
914.15	227.79
914.46	227.81
914.76	227.75
915.06	227.81
915.37	227.76
915.67	227.73
915.97	227.61
916.27	227.70
916.58	227.62
916.88	227.60
917.18	227.63
917.49	227.83
917.79	227.75
918.09	227.71
918.39	227.70
918.70	227.74
919.00	227.78
919.30	227.98
919.60	228.11
919.91	228.17
920.21	228.10
920.51	228.05
920.81	228.08
921.12	228.12
921.42	228.27
921.72	228.28
922.02	228.38
922.32	228.53
922.63	228.64
922.93	228.87
923.23	229.05
923.53	229.00
923.83	228.83
924.13	228.82
924.44	228.85
924.74	228.93
925.04	228.96
925.34	228.97
925.64	228.74
925.94	228.74
926.24	228.76
926.55	228.79
926.85	228.86
927.15	228.89
927.45	228.89
927.75	228.77
928.05	228.88
928.35	228.83
928.65	228.80
928.95	228.78
929.26	228.67
929.56	228.71
929.86	228.67
930.16	228.71
930.46	228.70
930.76	228.70
931.06	228.58
931.36	228.47
931.66	228.57
931.96	228.66
932.26	228.60
932.56	228.54
932.86	228.52
933.16	228.60
933.46	228.51
933.76	228.54
934.06	228.59
934.36	228.60
934.66	228.51
934.96	228.50
935.26	228.41
935.56	228.38
935.86	228.22
936.16	228.29
936.46	228.27
936.76	228.44
937.06	228.46
937.36	228.48
937.66	228.55
937.96	228.43
938.26	228.36
938.56	228.39
938.86	228.40
939.16	228.45
939.46	228.39
939.76	228.41
940.06	228.38
940.35	228.34
940.65	228.25
940.95	228.32
941.25	228.23
941.55	228.34
941.85	228.30
942.15	228.30
942.45	228.33
942.75	228.24
943.04	228.09
943.34	228.07
943.64	228.05
943.94	228.02
944.24	227.95
944.54	227.99
944.84	228.02
945.13	228.00
945.43	227.90
945.73	227.89
946.03	227.83
946.33	227.73
946.62	227.76
946.92	227.72
947.22	227.85
947.52	227.82
947.82	227.73
948.11	227.72
948.41	227.80
948.71	227.77
949.01	227.80
949.31	227.73
949.60	227.74
949.90	227.80
950.20	227.73
950.50	227.76
950.79	227.81
951.09	227.71
951.39	227.74
951.69	227.72
951.98	227.75
952.28	227.83
952.58	227.93
952.87	227.88
953.17	227.98
953.47	227.83
953.76	227.91
954.06	227.94
954.36	227.97
954.66	227.99
954.95	228.04
955.25	227.98
955.55	228.10
955.84	228.16
956.14	228.21
956.44	228.34
956.73	228.31
957.03	228.29
957.32	228.37
957.62	228.45
957.92	228.57
958.21	228.63
958.51	228.86
958.81	228.95
959.10	228.99
959.40	228.97
959.69	229.09
959.99	229.16
960.29	229.13
960.58	229.11
960.88	229.05
961.17	229.02
961.47	229.28
961.76	229.30
962.06	229.32
962.36	229.24
962.65	229.16
962.95	229.22
963.24	229.23
963.54	229.30
963.83	229.30
964.13	229.27
964.42	229.09
964.72	228.92
965.01	228.88
965.31	228.92
965.60	228.90
965.90	229.02
966.19	228.94
966.49	229.05
966.78	229.08
967.08	229.07
967.37	229.02
967.67	228.90
967.96	228.81
968.26	228.71
968.55	228.85
968.85	228.81
969.14	228.79
969.43	228.80
969.73	228.77
970.02	228.72
970.32	228.74
970.61	228.82
970.91	228.76
971.20	228.70
971.49	228.62
971.79	228.70
972.08	228.55
972.38	228.46
972.67	228.40
972.96	228.36
973.26	228.36
973.55	228.43
973.85	228.30
974.14	228.32
974.43	228.32
974.73	228.18
975.02	228.25
975.31	228.28
975.61	228.24
975.90	228.15
976.19	228.10
976.49	228.08
976.78	228.13
977.07	228.12
977.37	228.06
977.66	228.11
977.95	228.02
978.24	228.02
978.54	228.10
978.83	228.02
979.12	228.05
979.42	227.91
979.71	227.83
980.00	227.91
980.29	227.95
980.59	227.85
980.88	227.84
981.17	227.80
981.46	227.78
981.76	227.82
982.05	228.01
982.34	227.94
982.63	227.99
982.93	227.96
983.22	228.05
983.51	228.11
983.80	228.19
984.09	228.24
984.39	228.20
984.68	228.11
984.97	228.15
985.26	228.06
985.55	228.20
985.85	228.15
986.14	228.31
986.43	228.32
986.72	228.39
987.01	228.42
987.30	228.49
987.59	228.49
987.89	228.51
988.18	228.30
988.47	228.39
988.76	228.37
989.05	228.25
989.34	228.21
989.63	228.26
989.92	228.12
990.22	228.06
990.51	228.09
990.80	228.22
991.09	228.29
991.38	228.41
991.67	228.37
991.96	228.37
992.25	228.25
992.54	228.28
992.83	228.20
993.12	228.32
993.41	228.30
993.70	228.38
993.99	228.40
994.28	228.58
994.58	228.56
994.87	228.45
995.16	228.63
995.45	228.65
995.74	228.57
996.03	228.65
996.32	228.73
996.61	228.79
996.90	228.78
997.19	228.74
997.48	228.78
997.77	228.89
998.06	229.00
998.34	229.00
998.63	228.92
998.92	229.01
999.21	228.86
999.50	228.86
999.79	228.80
1000.08	228.80
1000.37	228.80
1000.66	228.73
1000.95	228.84
1001.24	228.83
1001.53	228.82
1001.82	228.88
1002.11	228.81
1002.40	228.75
1002.68	228.77
1002.97	228.88
1003.26	228.93
1003.55	228.87
1003.84	228.82
1004.13	228.87
1004.42	228.87
1004.71	228.81
1004.99	228.82
1005.28	228.89
1005.57	228.86
1005.86	228.74
1006.15	228.74
1006.44	228.64
1006.72	228.77
1007.01	228.66
1007.30	228.50
1007.59	228.56
1007.88	228.48
1008.17	228.52
1008.45	228.50
1008.74	228.31
1009.03	228.23
1009.32	228.15
1009.60	228.06
1009.89	228.06
1010.18	228.02
1010.47	227.93
1010.76	228.10
1011.04	228.08
1011.33	228.05
1011.62	228.10
1011.91	228.18
1012.19	228.14
1012.48	228.08
1012.77	228.05
1013.05	228.14
1013.34	228.25
1013.63	228.12
1013.92	228.13
1014.20	228.10
1014.49	228.09
1014.78	228.20
1015.06	228.13
1015.35	228.12
1015.64	228.15
1015.92	228.09
1016.21	228.05
1016.50	228.12
1016.78	228.14
1017.07	228.14
1017.36	228.15
1017.64	228.11
1017.93	228.18
1018.22	228.20
1018.50	228.31
1018.79	228.30
1019.08	228.32
1019.36	228.30
1019.65	228.22
1019.93	228.33
1020.22	228.33
1020.51	228.43
1020.79	228.37
1021.08	228.60
1021.36	229.30
1021.65	228.70
1021.94	229.00
1022.22	228.10
1022.51	226.00
1022.79	229.40
1023.08	227.50
1023.36	230.20
1023.65	227.20
>>>>>End Processed Spectral Data<<<<<
