SpectraSuite Data File
++++++++++++++++++++++++++++++++++++
Date: Fri Feb 01 14:40:39 EST 2013
User: group
Dark Spectrum Present: No
Reference Spectrum Present: No
Number of Sampled Component Spectra: 1
Spectrometers: USB2E7196
Integration Time (usec): 70000 (USB2E7196)
Spectra Averaged: 10 (USB2E7196)
Boxcar Smoothing: 10 (USB2E7196)
Correct for Electrical Dark: No (USB2E7196)
Strobe/Lamp Enabled: No (USB2E7196)
Correct for Detector Non-linearity: No (USB2E7196)
Correct for Stray Light: No (USB2E7196)
Number of Pixels in Processed Spectrum: 2048
>>>>>Begin Processed Spectral Data<<<<<
339.09	0.00
339.48	216.10
339.86	218.00
340.24	218.20
340.63	221.70
341.01	225.80
341.39	223.60
341.78	225.20
342.16	227.80
342.54	225.70
342.93	215.13
343.31	225.92
343.69	226.53
344.07	227.07
344.46	227.53
344.84	227.86
345.22	227.99
345.60	228.27
345.99	228.39
346.37	228.35
346.75	228.47
347.13	228.60
347.52	228.60
347.90	228.65
348.28	228.79
348.66	228.92
349.05	228.76
349.43	228.76
349.81	228.74
350.19	228.80
350.57	228.71
350.96	228.70
351.34	228.90
351.72	228.91
352.10	228.99
352.48	229.08
352.87	229.07
353.25	229.25
353.63	229.26
354.01	229.31
354.39	229.49
354.77	229.60
355.15	229.54
355.54	229.52
355.92	229.50
356.30	229.57
356.68	229.70
357.06	229.82
357.44	229.74
357.82	229.81
358.20	229.88
358.58	230.08
358.97	230.14
359.35	230.18
359.73	230.27
360.11	230.28
360.49	230.35
360.87	230.43
361.25	230.30
361.63	230.41
362.01	230.47
362.39	230.43
362.77	230.46
363.15	230.57
363.53	230.65
363.91	230.66
364.29	230.53
364.67	230.32
365.05	230.24
365.43	230.35
365.81	230.41
366.19	230.48
366.57	230.55
366.95	230.52
367.33	230.40
367.71	230.31
368.09	230.37
368.47	230.26
368.85	230.20
369.23	230.32
369.61	230.13
369.99	230.16
370.37	230.09
370.75	230.05
371.13	229.99
371.51	229.88
371.89	229.94
372.27	229.91
372.65	229.95
373.03	229.95
373.41	229.86
373.78	229.74
374.16	229.54
374.54	229.41
374.92	229.38
375.30	229.34
375.68	229.23
376.06	229.03
376.44	228.94
376.82	228.91
377.19	228.75
377.57	228.72
377.95	228.59
378.33	228.53
378.71	228.45
379.09	228.37
379.47	228.35
379.84	228.26
380.22	228.27
380.60	228.19
380.98	228.10
381.36	227.97
381.73	227.83
382.11	227.87
382.49	227.76
382.87	227.64
383.25	227.43
383.62	227.64
384.00	227.52
384.38	227.57
384.76	227.55
385.13	227.58
385.51	227.51
385.89	227.41
386.27	227.41
386.64	227.37
387.02	227.36
387.40	227.33
387.78	227.15
388.15	227.06
388.53	226.97
388.91	226.94
389.29	226.96
389.66	226.99
390.04	227.02
390.42	227.07
390.79	227.17
391.17	227.27
391.55	226.96
391.92	227.06
392.30	227.04
392.68	227.00
393.05	226.99
393.43	226.95
393.81	227.03
394.18	226.97
394.56	226.98
394.94	227.00
395.31	227.07
395.69	227.20
396.06	227.26
396.44	227.38
396.82	227.35
397.19	227.43
397.57	227.41
397.95	227.52
398.32	227.47
398.70	227.36
399.07	227.44
399.45	227.54
399.82	227.55
400.20	227.58
400.58	227.71
400.95	227.67
401.33	227.97
401.70	228.14
402.08	228.22
402.45	228.28
402.83	228.44
403.20	228.62
403.58	228.70
403.95	228.96
404.33	229.11
404.71	229.31
405.08	229.54
405.46	229.78
405.83	229.79
406.21	230.11
406.58	230.38
406.96	230.67
407.33	230.88
407.70	231.10
408.08	231.41
408.45	231.66
408.83	231.94
409.20	232.03
409.58	232.14
409.95	232.52
410.33	232.76
410.70	233.02
411.08	233.27
411.45	233.65
411.82	233.88
412.20	234.23
412.57	234.70
412.95	234.97
413.32	235.40
413.69	235.84
414.07	236.18
414.44	236.66
414.82	237.04
415.19	237.60
415.56	238.07
415.94	238.64
416.31	239.17
416.68	239.79
417.06	240.48
417.43	241.19
417.81	241.97
418.18	242.92
418.55	243.71
418.93	244.57
419.30	245.37
419.67	246.36
420.04	247.32
420.42	248.23
420.79	249.50
421.16	250.51
421.54	251.81
421.91	253.02
422.28	254.20
422.66	255.55
423.03	256.87
423.40	258.34
423.77	259.71
424.15	261.12
424.52	262.60
424.89	264.37
425.26	265.91
425.64	267.33
426.01	268.80
426.38	270.50
426.75	272.23
427.13	274.02
427.50	275.69
427.87	277.69
428.24	279.60
428.61	281.31
428.99	283.57
429.36	285.67
429.73	287.69
430.10	289.75
430.47	291.88
430.85	294.04
431.22	296.34
431.59	298.79
431.96	301.13
432.33	303.78
432.70	306.10
433.08	309.10
433.45	311.70
433.82	314.46
434.19	317.24
434.56	320.08
434.93	322.76
435.30	325.60
435.68	328.39
436.05	331.35
436.42	334.23
436.79	336.70
437.16	339.34
437.53	342.29
437.90	345.26
438.27	348.17
438.64	351.11
439.01	353.80
439.38	356.12
439.75	358.39
440.13	360.81
440.50	363.15
440.87	364.93
441.24	367.06
441.61	369.17
441.98	370.85
442.35	372.55
442.72	374.51
443.09	376.39
443.46	377.49
443.83	377.98
444.20	378.47
444.57	379.23
444.94	379.66
445.31	380.05
445.68	380.36
446.05	380.55
446.42	380.23
446.79	379.62
447.16	379.11
447.53	378.67
447.90	377.41
448.27	376.19
448.64	374.70
449.01	373.45
449.37	371.54
449.74	369.63
450.11	367.59
450.48	365.10
450.85	362.49
451.22	360.25
451.59	358.32
451.96	356.39
452.33	353.78
452.70	351.39
453.07	348.51
453.43	345.65
453.80	342.57
454.17	339.75
454.54	337.32
454.91	334.57
455.28	331.94
455.65	329.43
456.02	327.17
456.38	324.85
456.75	322.19
457.12	319.90
457.49	317.62
457.86	315.34
458.23	313.31
458.59	311.23
458.96	309.20
459.33	307.18
459.70	305.20
460.07	303.63
460.43	301.81
460.80	300.19
461.17	298.66
461.54	297.15
461.91	295.69
462.27	294.10
462.64	292.79
463.01	291.40
463.38	290.20
463.74	288.63
464.11	287.42
464.48	286.31
464.85	285.12
465.21	284.17
465.58	283.07
465.95	281.94
466.32	280.90
466.68	279.79
467.05	278.86
467.42	277.93
467.78	276.87
468.15	275.81
468.52	275.00
468.88	273.95
469.25	272.99
469.62	272.23
469.98	271.49
470.35	270.61
470.72	269.86
471.08	269.05
471.45	268.42
471.82	267.73
472.18	267.08
472.55	266.48
472.92	265.77
473.28	265.10
473.65	264.46
474.02	263.84
474.38	263.43
474.75	262.94
475.11	262.33
475.48	261.91
475.85	261.59
476.21	261.10
476.58	260.82
476.94	260.54
477.31	260.18
477.67	259.76
478.04	259.51
478.41	259.25
478.77	259.15
479.14	258.83
479.50	258.65
479.87	258.40
480.23	258.17
480.60	258.00
480.96	257.87
481.33	258.00
481.69	257.92
482.06	257.72
482.42	257.71
482.79	257.69
483.15	257.73
483.52	257.69
483.88	257.69
484.25	257.65
484.61	257.75
484.98	257.83
485.34	258.03
485.71	258.31
486.07	258.40
486.44	258.40
486.80	258.60
487.17	258.79
487.53	258.99
487.90	259.37
488.26	259.77
488.62	260.11
488.99	260.27
489.35	260.60
489.72	261.03
490.08	261.44
490.44	261.89
490.81	262.38
491.17	262.97
491.54	263.50
491.90	264.21
492.26	264.91
492.63	265.62
492.99	266.25
493.36	266.96
493.72	267.92
494.08	268.80
494.45	269.87
494.81	270.97
495.17	272.12
495.54	273.23
495.90	274.38
496.26	275.79
496.63	277.18
496.99	278.68
497.35	280.29
497.72	281.84
498.08	283.53
498.44	285.24
498.80	287.27
499.17	289.26
499.53	291.12
499.89	293.24
500.26	295.50
500.62	297.97
500.98	300.40
501.34	302.87
501.71	305.54
502.07	308.23
502.43	311.01
502.79	313.90
503.16	316.98
503.52	320.27
503.88	323.49
504.24	326.99
504.60	330.62
504.97	334.43
505.33	338.33
505.69	342.62
506.05	346.86
506.41	350.94
506.78	355.54
507.14	360.25
507.50	365.01
507.86	369.85
508.22	375.05
508.59	380.34
508.95	385.88
509.31	391.67
509.67	397.57
510.03	403.60
510.39	409.91
510.75	416.37
511.12	422.99
511.48	429.72
511.84	436.54
512.20	443.63
512.56	450.83
512.92	458.28
513.28	465.90
513.64	473.70
514.00	481.71
514.37	489.91
514.73	498.21
515.09	506.61
515.45	515.24
515.81	523.81
516.17	532.85
516.53	541.90
516.89	551.01
517.25	560.23
517.61	569.82
517.97	579.42
518.33	589.09
518.69	599.13
519.05	609.32
519.41	619.95
519.77	630.36
520.13	641.18
520.49	651.84
520.85	662.66
521.21	673.70
521.57	685.19
521.93	696.26
522.29	707.90
522.65	719.26
523.01	730.85
523.37	742.53
523.73	754.37
524.09	766.13
524.45	778.45
524.81	790.76
525.17	803.30
525.53	815.91
525.89	828.59
526.25	841.37
526.61	854.00
526.97	866.63
527.33	879.69
527.68	892.78
528.04	906.15
528.40	919.18
528.76	932.78
529.12	946.00
529.48	959.52
529.84	972.80
530.20	986.63
530.56	1000.86
530.91	1015.18
531.27	1029.33
531.63	1043.35
531.99	1057.02
532.35	1070.91
532.71	1084.55
533.07	1098.60
533.42	1112.60
533.78	1126.23
534.14	1140.42
534.50	1153.86
534.86	1167.62
535.21	1181.06
535.57	1194.74
535.93	1208.58
536.29	1221.94
536.65	1235.47
537.00	1248.73
537.36	1262.53
537.72	1275.95
538.08	1288.90
538.44	1301.60
538.79	1314.46
539.15	1327.42
539.51	1341.02
539.87	1354.32
540.22	1367.60
540.58	1380.61
540.94	1393.56
541.29	1406.53
541.65	1419.10
542.01	1432.36
542.37	1445.00
542.72	1457.55
543.08	1469.66
543.44	1482.09
543.79	1493.70
544.15	1505.60
544.51	1518.11
544.87	1529.69
545.22	1541.27
545.58	1552.63
545.94	1563.39
546.29	1574.30
546.65	1585.06
547.01	1595.12
547.36	1604.95
547.72	1614.58
548.07	1624.61
548.43	1634.55
548.79	1644.08
549.14	1653.08
549.50	1661.67
549.86	1670.19
550.21	1679.13
550.57	1688.49
550.92	1696.97
551.28	1705.51
551.64	1714.15
551.99	1722.45
552.35	1730.47
552.70	1738.85
553.06	1747.04
553.41	1755.79
553.77	1763.57
554.13	1771.71
554.48	1779.59
554.84	1787.26
555.19	1795.13
555.55	1802.27
555.90	1808.80
556.26	1816.05
556.61	1823.48
556.97	1830.07
557.32	1837.40
557.68	1843.84
558.03	1849.97
558.39	1856.81
558.74	1864.08
559.10	1870.40
559.45	1876.42
559.81	1883.32
560.16	1889.13
560.52	1894.84
560.87	1901.05
561.23	1906.70
561.58	1912.00
561.94	1916.93
562.29	1921.80
562.64	1926.64
563.00	1931.10
563.35	1936.79
563.71	1941.66
564.06	1946.60
564.42	1951.58
564.77	1955.90
565.12	1960.61
565.48	1965.08
565.83	1968.10
566.19	1971.73
566.54	1975.00
566.89	1978.54
567.25	1981.44
567.60	1985.20
567.96	1988.22
568.31	1990.45
568.66	1993.13
569.02	1996.16
569.37	1998.79
569.72	2001.87
570.08	2003.77
570.43	2006.40
570.78	2007.60
571.14	2008.33
571.49	2009.76
571.84	2011.83
572.20	2012.53
572.55	2013.20
572.90	2013.31
573.26	2014.16
573.61	2014.19
573.96	2014.27
574.31	2013.14
574.67	2011.77
575.02	2010.14
575.37	2009.78
575.72	2008.48
576.08	2007.75
576.43	2005.97
576.78	2005.11
577.13	2004.01
577.49	2003.11
577.84	2001.18
578.19	1999.58
578.54	1997.84
578.90	1995.10
579.25	1992.22
579.60	1989.93
579.95	1987.06
580.30	1984.36
580.66	1981.80
581.01	1978.87
581.36	1976.31
581.71	1974.64
582.06	1972.54
582.42	1969.40
582.77	1965.43
583.12	1961.88
583.47	1959.08
583.82	1956.32
584.17	1952.73
584.53	1949.05
584.88	1945.19
585.23	1941.49
585.58	1937.95
585.93	1934.61
586.28	1931.88
586.63	1928.59
586.98	1925.42
587.34	1922.42
587.69	1919.20
588.04	1915.88
588.39	1912.54
588.74	1907.27
589.09	1902.30
589.44	1897.12
589.79	1893.40
590.14	1890.40
590.49	1886.94
590.84	1881.68
591.19	1877.55
591.54	1872.16
591.89	1866.52
592.25	1861.70
592.60	1856.26
592.95	1850.88
593.30	1845.30
593.65	1839.50
594.00	1833.88
594.35	1828.91
594.70	1822.79
595.05	1817.15
595.40	1811.04
595.75	1805.04
596.10	1801.00
596.45	1796.50
596.80	1791.86
597.15	1786.54
597.50	1780.36
597.85	1774.82
598.19	1770.03
598.54	1764.68
598.89	1760.14
599.24	1755.60
599.59	1750.27
599.94	1745.67
600.29	1740.40
600.64	1735.46
600.99	1729.60
601.34	1724.37
601.69	1718.50
602.04	1713.01
602.39	1707.84
602.74	1703.25
603.08	1698.20
603.43	1692.99
603.78	1687.28
604.13	1682.18
604.48	1676.40
604.83	1670.74
605.18	1665.03
605.53	1658.70
605.87	1651.86
606.22	1645.59
606.57	1639.03
606.92	1633.34
607.27	1627.40
607.62	1621.79
607.96	1615.70
608.31	1610.30
608.66	1603.94
609.01	1597.39
609.36	1590.81
609.70	1583.28
610.05	1575.71
610.40	1568.95
610.75	1561.61
611.10	1554.31
611.44	1546.46
611.79	1540.05
612.14	1533.27
612.49	1525.73
612.83	1518.52
613.18	1511.60
613.53	1504.57
613.88	1497.38
614.22	1490.15
614.57	1482.40
614.92	1475.06
615.27	1468.33
615.61	1460.75
615.96	1453.50
616.31	1446.95
616.65	1440.81
617.00	1434.49
617.35	1427.92
617.70	1420.66
618.04	1413.53
618.39	1406.71
618.74	1400.14
619.08	1392.46
619.43	1385.56
619.78	1379.18
620.12	1372.41
620.47	1365.54
620.82	1358.38
621.16	1351.69
621.51	1345.10
621.85	1338.30
622.20	1330.90
622.55	1324.03
622.89	1317.36
623.24	1310.90
623.59	1303.69
623.93	1297.05
624.28	1290.53
624.62	1283.71
624.97	1277.27
625.32	1270.85
625.66	1264.47
626.01	1258.40
626.35	1251.98
626.70	1245.34
627.04	1239.22
627.39	1232.66
627.73	1226.39
628.08	1220.00
628.43	1213.52
628.77	1206.82
629.12	1200.15
629.46	1193.60
629.81	1186.37
630.15	1179.48
630.50	1172.40
630.84	1165.42
631.19	1157.86
631.53	1151.00
631.88	1144.05
632.22	1137.03
632.57	1130.47
632.91	1123.79
633.26	1116.52
633.60	1109.53
633.95	1102.89
634.29	1095.98
634.64	1090.04
634.98	1083.15
635.32	1077.13
635.67	1070.87
636.01	1064.46
636.36	1058.54
636.70	1052.85
637.05	1046.88
637.39	1041.46
637.73	1035.78
638.08	1030.68
638.42	1025.59
638.77	1019.99
639.11	1014.07
639.45	1008.48
639.80	1002.67
640.14	996.69
640.49	991.09
640.83	985.54
641.17	979.90
641.52	974.11
641.86	967.65
642.20	961.98
642.55	955.70
642.89	950.10
643.23	944.10
643.58	938.57
643.92	932.55
644.26	926.70
644.61	920.84
644.95	915.07
645.29	908.69
645.64	902.32
645.98	896.43
646.32	891.01
646.66	884.99
647.01	879.29
647.35	873.71
647.69	868.14
648.04	863.01
648.38	856.97
648.72	850.88
649.06	845.32
649.41	839.80
649.75	834.07
650.09	828.21
650.43	822.88
650.78	817.15
651.12	811.69
651.46	806.39
651.80	801.01
652.14	795.87
652.49	790.54
652.83	785.48
653.17	779.93
653.51	774.56
653.85	769.45
654.20	763.96
654.54	758.27
654.88	752.78
655.22	747.02
655.56	741.85
655.90	737.05
656.25	732.04
656.59	726.93
656.93	722.32
657.27	717.42
657.61	712.00
657.95	707.28
658.29	702.49
658.64	697.76
658.98	692.62
659.32	687.21
659.66	682.52
660.00	677.41
660.34	672.56
660.68	667.77
661.02	663.10
661.36	658.79
661.70	654.63
662.05	650.50
662.39	646.47
662.73	642.35
663.07	638.02
663.41	633.95
663.75	630.00
664.09	625.77
664.43	621.56
664.77	617.95
665.11	613.95
665.45	609.87
665.79	605.83
666.13	601.95
666.47	598.22
666.81	594.14
667.15	590.33
667.49	586.80
667.83	583.16
668.17	579.44
668.51	575.35
668.85	571.65
669.19	568.16
669.53	564.41
669.87	560.75
670.21	557.46
670.55	553.94
670.89	550.49
671.23	547.24
671.57	544.33
671.91	540.99
672.25	537.57
672.58	534.48
672.92	531.36
673.26	528.32
673.60	525.45
673.94	522.61
674.28	519.80
674.62	516.92
674.96	514.15
675.30	511.45
675.64	508.73
675.97	505.93
676.31	502.99
676.65	500.23
676.99	497.72
677.33	494.80
677.67	491.94
678.01	489.16
678.34	486.50
678.68	483.54
679.02	480.75
679.36	478.24
679.70	475.70
680.04	473.02
680.37	470.37
680.71	467.84
681.05	465.42
681.39	463.06
681.73	460.84
682.06	458.40
682.40	456.02
682.74	453.73
683.08	451.58
683.42	449.10
683.75	446.81
684.09	444.26
684.43	442.08
684.77	439.91
685.10	437.60
685.44	435.23
685.78	433.17
686.12	431.11
686.45	428.71
686.79	426.41
687.13	424.38
687.46	422.17
687.80	420.01
688.14	417.59
688.48	415.47
688.81	412.89
689.15	410.79
689.49	408.60
689.82	406.58
690.16	404.27
690.50	402.38
690.83	400.42
691.17	398.51
691.51	396.42
691.84	394.45
692.18	392.60
692.52	390.69
692.85	388.72
693.19	386.78
693.52	385.14
693.86	383.21
694.20	381.33
694.53	379.57
694.87	377.56
695.21	375.87
695.54	374.05
695.88	372.34
696.21	370.50
696.55	368.80
696.88	367.04
697.22	365.40
697.56	363.77
697.89	362.17
698.23	360.59
698.56	359.16
698.90	357.70
699.23	355.99
699.57	354.45
699.90	352.93
700.24	351.28
700.58	349.67
700.91	348.32
701.25	347.00
701.58	345.74
701.92	344.50
702.25	343.21
702.59	341.87
702.92	340.74
703.26	339.60
703.59	338.35
703.93	337.30
704.26	336.15
704.60	334.89
704.93	333.61
705.26	332.21
705.60	330.88
705.93	329.67
706.27	328.68
706.60	327.55
706.94	326.47
707.27	325.46
707.61	324.36
707.94	323.33
708.27	322.11
708.61	320.92
708.94	319.91
709.28	318.90
709.61	317.84
709.94	316.76
710.28	315.73
710.61	314.69
710.95	313.50
711.28	312.52
711.61	311.51
711.95	310.58
712.28	309.66
712.61	308.67
712.95	307.81
713.28	306.88
713.61	305.96
713.95	305.03
714.28	304.13
714.61	303.21
714.95	302.35
715.28	301.55
715.61	300.65
715.95	299.63
716.28	298.76
716.61	298.03
716.95	297.23
717.28	296.30
717.61	295.52
717.94	294.76
718.28	293.85
718.61	293.15
718.94	292.38
719.27	291.76
719.61	291.16
719.94	290.31
720.27	289.49
720.60	288.86
720.94	288.19
721.27	287.50
721.60	286.94
721.93	286.35
722.27	285.72
722.60	285.21
722.93	284.66
723.26	284.02
723.59	283.24
723.93	282.73
724.26	282.10
724.59	281.57
724.92	280.88
725.25	280.34
725.59	279.74
725.92	279.25
726.25	278.62
726.58	278.09
726.91	277.58
727.24	277.06
727.57	276.40
727.91	275.81
728.24	275.37
728.57	274.78
728.90	274.29
729.23	273.74
729.56	273.28
729.89	272.82
730.22	272.25
730.55	271.83
730.89	271.21
731.22	270.74
731.55	270.26
731.88	269.82
732.21	269.45
732.54	268.90
732.87	268.31
733.20	267.97
733.53	267.58
733.86	267.21
734.19	266.83
734.52	266.40
734.85	266.03
735.18	265.46
735.51	265.08
735.84	264.50
736.17	264.17
736.50	263.52
736.83	263.30
737.16	263.02
737.49	262.70
737.82	262.33
738.15	262.02
738.48	261.56
738.81	261.25
739.14	260.80
739.47	260.52
739.80	260.19
740.13	259.80
740.46	259.34
740.79	258.98
741.12	258.55
741.45	258.23
741.78	257.89
742.11	257.68
742.44	257.29
742.77	257.04
743.10	256.63
743.43	256.35
743.75	255.86
744.08	255.69
744.41	255.25
744.74	254.86
745.07	254.52
745.40	254.13
745.73	253.84
746.06	253.53
746.39	253.26
746.71	253.00
747.04	252.67
747.37	252.36
747.70	252.03
748.03	251.91
748.36	251.80
748.68	251.51
749.01	251.24
749.34	251.00
749.67	250.77
750.00	250.52
750.33	250.42
750.65	250.27
750.98	249.92
751.31	249.66
751.64	249.55
751.97	249.35
752.29	249.20
752.62	248.85
752.95	248.61
753.28	248.28
753.60	248.05
753.93	247.84
754.26	247.62
754.59	247.45
754.91	247.11
755.24	246.78
755.57	246.56
755.90	246.24
756.22	245.99
756.55	245.66
756.88	245.47
757.20	245.11
757.53	244.87
757.86	244.68
758.19	244.67
758.51	244.43
758.84	244.21
759.17	244.13
759.49	244.04
759.82	243.99
760.15	243.85
760.47	243.54
760.80	243.42
761.13	243.25
761.45	243.08
761.78	242.90
762.11	242.74
762.43	242.59
762.76	242.48
763.08	242.41
763.41	242.33
763.74	242.12
764.06	242.01
764.39	241.70
764.71	241.46
765.04	241.26
765.37	241.13
765.69	240.95
766.02	240.74
766.34	240.63
766.67	240.40
767.00	240.29
767.32	240.39
767.65	240.32
767.97	240.19
768.30	239.97
768.62	239.85
768.95	239.76
769.27	239.64
769.60	239.57
769.92	239.38
770.25	239.25
770.57	239.20
770.90	239.11
771.22	239.10
771.55	239.00
771.87	238.90
772.20	238.80
772.52	238.91
772.85	239.04
773.17	238.88
773.50	238.81
773.82	238.68
774.15	238.48
774.47	238.31
774.80	238.17
775.12	238.05
775.45	237.94
775.77	237.81
776.09	237.73
776.42	237.57
776.74	237.56
777.07	237.39
777.39	237.19
777.72	237.12
778.04	237.01
778.36	236.88
778.69	236.70
779.01	236.64
779.33	236.39
779.66	235.98
779.98	235.91
780.31	235.86
780.63	235.85
780.95	235.71
781.28	235.50
781.60	235.38
781.92	235.31
782.25	235.21
782.57	235.09
782.89	234.91
783.22	234.86
783.54	234.76
783.86	234.77
784.19	234.75
784.51	234.61
784.83	234.53
785.16	234.47
785.48	234.39
785.80	234.37
786.12	234.30
786.45	234.34
786.77	234.30
787.09	234.14
787.42	234.08
787.74	234.13
788.06	234.11
788.38	234.15
788.71	234.14
789.03	234.12
789.35	234.16
789.67	234.08
789.99	234.00
790.32	233.81
790.64	233.81
790.96	233.90
791.28	233.86
791.61	233.77
791.93	233.77
792.25	233.85
792.57	233.79
792.89	233.64
793.21	233.50
793.54	233.36
793.86	233.36
794.18	233.28
794.50	233.16
794.82	233.13
795.14	233.17
795.47	233.17
795.79	233.13
796.11	233.02
796.43	233.03
796.75	233.06
797.07	233.06
797.39	233.00
797.71	232.88
798.04	232.87
798.36	232.82
798.68	232.73
799.00	232.68
799.32	232.59
799.64	232.73
799.96	232.67
800.28	232.65
800.60	232.63
800.92	232.64
801.24	232.70
801.56	232.66
801.89	232.49
802.21	232.47
802.53	232.40
802.85	232.49
803.17	232.53
803.49	232.42
803.81	232.51
804.13	232.44
804.45	232.36
804.77	232.30
805.09	232.34
805.41	232.34
805.73	232.24
806.05	232.20
806.37	232.00
806.69	232.04
807.01	232.07
807.33	232.05
807.65	231.91
807.97	231.88
808.28	231.83
808.60	231.81
808.92	231.70
809.24	231.82
809.56	231.71
809.88	231.68
810.20	231.69
810.52	231.59
810.84	231.57
811.16	231.43
811.48	231.43
811.80	231.43
812.12	231.39
812.43	231.46
812.75	231.34
813.07	231.31
813.39	231.28
813.71	231.16
814.03	231.00
814.35	230.96
814.67	230.88
814.98	230.85
815.30	230.74
815.62	230.72
815.94	230.48
816.26	230.51
816.58	230.46
816.89	230.42
817.21	230.29
817.53	230.30
817.85	230.28
818.17	230.17
818.48	229.98
818.80	230.02
819.12	229.95
819.44	229.99
819.76	230.08
820.07	230.04
820.39	230.00
820.71	230.02
821.03	230.00
821.34	229.86
821.66	229.85
821.98	229.86
822.30	229.79
822.61	229.89
822.93	229.79
823.25	229.66
823.57	229.57
823.88	229.68
824.20	229.53
824.52	229.67
824.83	229.59
825.15	229.64
825.47	229.56
825.79	229.51
826.10	229.44
826.42	229.24
826.74	229.30
827.05	229.27
827.37	229.30
827.69	229.40
828.00	229.31
828.32	229.29
828.64	229.32
828.95	229.43
829.27	229.40
829.58	229.37
829.90	229.40
830.22	229.43
830.53	229.29
830.85	229.29
831.17	229.21
831.48	229.17
831.80	229.17
832.11	229.21
832.43	229.21
832.75	229.25
833.06	229.51
833.38	229.41
833.69	229.53
834.01	229.54
834.32	229.42
834.64	229.48
834.96	229.52
835.27	229.56
835.59	229.50
835.90	229.55
836.22	229.56
836.53	229.46
836.85	229.53
837.16	229.85
837.48	229.83
837.79	229.91
838.11	230.05
838.42	230.05
838.74	230.04
839.05	230.01
839.37	229.90
839.68	229.71
840.00	229.79
840.31	229.75
840.63	229.71
840.94	229.75
841.26	229.80
841.57	229.86
841.88	229.75
842.20	229.77
842.51	229.71
842.83	229.81
843.14	230.08
843.46	230.02
843.77	229.87
844.08	229.94
844.40	229.91
844.71	229.89
845.03	229.81
845.34	229.82
845.65	229.75
845.97	229.84
846.28	229.84
846.60	229.72
846.91	229.70
847.22	229.80
847.54	229.74
847.85	229.77
848.16	229.63
848.48	229.65
848.79	229.69
849.10	229.70
849.42	229.68
849.73	229.53
850.04	229.42
850.36	229.27
850.67	229.23
850.98	229.14
851.30	229.17
851.61	229.26
851.92	229.21
852.23	229.34
852.55	229.33
852.86	229.31
853.17	229.35
853.49	229.35
853.80	229.28
854.11	229.22
854.42	229.16
854.74	229.19
855.05	229.21
855.36	229.04
855.67	229.00
855.99	228.89
856.30	228.95
856.61	229.02
856.92	229.03
857.23	228.92
857.55	228.91
857.86	228.83
858.17	228.74
858.48	228.70
858.79	228.54
859.11	228.56
859.42	228.44
859.73	228.40
860.04	228.40
860.35	228.28
860.66	228.33
860.98	228.27
861.29	228.20
861.60	228.10
861.91	228.13
862.22	228.00
862.53	227.98
862.84	227.79
863.16	227.80
863.47	227.80
863.78	227.81
864.09	227.78
864.40	227.78
864.71	227.79
865.02	227.76
865.33	227.80
865.64	227.79
865.95	227.87
866.27	227.97
866.58	228.00
866.89	228.05
867.20	227.97
867.51	227.97
867.82	227.94
868.13	228.09
868.44	228.10
868.75	228.28
869.06	228.25
869.37	228.29
869.68	228.22
869.99	228.30
870.30	228.30
870.61	228.36
870.92	228.35
871.23	228.40
871.54	228.49
871.85	228.59
872.16	228.55
872.47	228.60
872.78	228.56
873.09	228.53
873.40	228.49
873.71	228.58
874.02	228.69
874.33	228.71
874.64	228.68
874.95	228.70
875.26	228.57
875.56	228.60
875.87	228.60
876.18	228.63
876.49	228.78
876.80	228.73
877.11	228.69
877.42	228.64
877.73	228.65
878.04	228.60
878.35	228.65
878.66	228.70
878.96	228.73
879.27	228.81
879.58	228.86
879.89	228.91
880.20	228.99
880.51	228.92
880.82	228.92
881.12	228.92
881.43	228.95
881.74	229.06
882.05	229.10
882.36	229.10
882.67	229.23
882.97	229.06
883.28	229.17
883.59	229.14
883.90	229.22
884.21	229.29
884.51	229.29
884.82	229.19
885.13	229.23
885.44	229.22
885.74	229.10
886.05	229.09
886.36	229.14
886.67	229.06
886.98	229.27
887.28	229.32
887.59	229.26
887.90	229.20
888.20	229.26
888.51	229.29
888.82	229.32
889.13	229.30
889.43	229.51
889.74	229.51
890.05	229.50
890.35	229.59
890.66	229.52
890.97	229.53
891.28	229.51
891.58	229.52
891.89	229.58
892.20	229.58
892.50	229.54
892.81	229.44
893.12	229.54
893.42	229.40
893.73	229.40
894.04	229.42
894.34	229.45
894.65	229.32
894.95	229.22
895.26	229.26
895.57	229.26
895.87	229.02
896.18	228.99
896.48	229.02
896.79	228.90
897.10	228.90
897.40	228.86
897.71	228.82
898.01	228.71
898.32	228.57
898.63	228.50
898.93	228.47
899.24	228.44
899.54	228.28
899.85	228.23
900.15	228.20
900.46	228.18
900.76	228.17
901.07	228.15
901.38	228.14
901.68	228.17
901.99	228.05
902.29	228.00
902.60	228.01
902.90	228.05
903.21	227.98
903.51	227.95
903.82	228.03
904.12	228.00
904.43	227.97
904.73	227.95
905.03	228.05
905.34	228.29
905.64	228.29
905.95	228.25
906.25	228.18
906.56	228.09
906.86	228.03
907.17	228.09
907.47	228.11
907.77	228.14
908.08	228.04
908.38	228.03
908.69	227.95
908.99	227.97
909.30	227.89
909.60	228.02
909.90	228.10
910.21	228.01
910.51	228.14
910.81	228.14
911.12	228.24
911.42	228.18
911.73	227.99
912.03	228.13
912.33	228.25
912.64	228.36
912.94	228.50
913.24	228.50
913.55	228.39
913.85	228.40
914.15	228.46
914.46	228.59
914.76	228.63
915.06	228.75
915.37	228.70
915.67	228.69
915.97	228.62
916.27	228.46
916.58	228.53
916.88	228.47
917.18	228.55
917.49	228.71
917.79	228.73
918.09	228.66
918.39	228.68
918.70	228.70
919.00	228.62
919.30	228.68
919.60	228.72
919.91	228.74
920.21	228.74
920.51	228.63
920.81	228.54
921.12	228.56
921.42	228.62
921.72	228.65
922.02	228.67
922.32	228.80
922.63	228.88
922.93	228.98
923.23	229.13
923.53	229.18
923.83	229.06
924.13	229.02
924.44	229.15
924.74	229.09
925.04	229.11
925.34	229.17
925.64	229.06
925.94	229.08
926.24	229.24
926.55	229.20
926.85	229.30
927.15	229.28
927.45	229.20
927.75	229.18
928.05	229.15
928.35	229.21
928.65	229.20
928.95	229.26
929.26	229.10
929.56	228.95
929.86	228.95
930.16	228.90
930.46	229.06
930.76	228.98
931.06	228.95
931.36	228.93
931.66	228.93
931.96	228.97
932.26	228.94
932.56	228.86
932.86	228.90
933.16	228.84
933.46	228.80
933.76	228.77
934.06	228.66
934.36	228.74
934.66	228.70
934.96	228.59
935.26	228.58
935.56	228.54
935.86	228.47
936.16	228.42
936.46	228.30
936.76	228.20
937.06	228.14
937.36	228.10
937.66	228.04
937.96	227.96
938.26	227.90
938.56	227.95
938.86	227.89
939.16	227.95
939.46	227.99
939.76	227.98
940.06	228.04
940.35	228.06
940.65	227.88
940.95	227.94
941.25	227.88
941.55	227.79
941.85	227.89
942.15	228.01
942.45	228.04
942.75	228.11
943.04	228.03
943.34	228.11
943.64	228.08
943.94	228.02
944.24	228.11
944.54	228.07
944.84	228.06
945.13	228.01
945.43	227.98
945.73	227.98
946.03	228.06
946.33	228.10
946.62	228.12
946.92	228.24
947.22	228.19
947.52	228.23
947.82	228.32
948.11	228.24
948.41	228.17
948.71	228.18
949.01	228.22
949.31	228.26
949.60	228.30
949.90	228.42
950.20	228.52
950.50	228.58
950.79	228.68
951.09	228.66
951.39	228.76
951.69	228.78
951.98	228.87
952.28	228.89
952.58	228.91
952.87	228.96
953.17	228.90
953.47	228.81
953.76	228.81
954.06	228.77
954.36	228.80
954.66	228.75
954.95	228.82
955.25	228.81
955.55	228.93
955.84	228.97
956.14	228.94
956.44	228.95
956.73	228.85
957.03	228.93
957.32	229.01
957.62	228.91
957.92	228.99
958.21	228.91
958.51	229.11
958.81	229.17
959.10	229.20
959.40	229.36
959.69	229.50
959.99	229.59
960.29	229.57
960.58	229.48
960.88	229.64
961.17	229.58
961.47	229.59
961.76	229.60
962.06	229.48
962.36	229.50
962.65	229.47
962.95	229.50
963.24	229.32
963.54	229.27
963.83	229.30
964.13	229.16
964.42	229.14
964.72	228.96
965.01	228.85
965.31	228.72
965.60	228.60
965.90	228.64
966.19	228.52
966.49	228.54
966.78	228.61
967.08	228.46
967.37	228.41
967.67	228.27
967.96	228.19
968.26	228.18
968.55	228.18
968.85	228.15
969.14	228.10
969.43	228.14
969.73	228.02
970.02	227.94
970.32	227.97
970.61	227.90
970.91	227.79
971.20	227.76
971.49	227.81
971.79	227.85
972.08	227.75
972.38	227.75
972.67	227.71
972.96	227.68
973.26	227.77
973.55	227.87
973.85	227.93
974.14	227.96
974.43	228.02
974.73	227.87
975.02	227.87
975.31	227.87
975.61	227.75
975.90	227.80
976.19	227.88
976.49	227.81
976.78	227.83
977.07	227.79
977.37	227.72
977.66	227.73
977.95	227.71
978.24	227.70
978.54	227.76
978.83	227.76
979.12	227.77
979.42	227.67
979.71	227.59
980.00	227.59
980.29	227.56
980.59	227.48
980.88	227.63
981.17	227.63
981.46	227.64
981.76	227.79
982.05	227.90
982.34	227.91
982.63	227.95
982.93	227.89
983.22	228.00
983.51	228.05
983.80	228.09
984.09	228.11
984.39	228.09
984.68	228.06
984.97	228.12
985.26	228.12
985.55	228.26
985.85	228.26
986.14	228.33
986.43	228.40
986.72	228.47
987.01	228.45
987.30	228.55
987.59	228.63
987.89	228.63
988.18	228.59
988.47	228.55
988.76	228.64
989.05	228.71
989.34	228.69
989.63	228.81
989.92	228.82
990.22	228.84
990.51	228.85
990.80	228.90
991.09	228.95
991.38	229.00
991.67	228.89
991.96	228.88
992.25	228.88
992.54	228.79
992.83	228.81
993.12	228.80
993.41	228.75
993.70	228.79
993.99	228.83
994.28	228.87
994.58	228.93
994.87	228.98
995.16	228.96
995.45	228.99
995.74	228.92
996.03	229.01
996.32	229.04
996.61	229.12
996.90	229.09
997.19	229.00
997.48	229.04
997.77	228.98
998.06	228.94
998.34	228.88
998.63	228.91
998.92	228.92
999.21	228.96
999.50	228.95
999.79	228.83
1000.08	228.80
1000.37	228.77
1000.66	228.73
1000.95	228.64
1001.24	228.61
1001.53	228.67
1001.82	228.70
1002.11	228.55
1002.40	228.55
1002.68	228.55
1002.97	228.64
1003.26	228.71
1003.55	228.67
1003.84	228.73
1004.13	228.82
1004.42	228.78
1004.71	228.70
1004.99	228.69
1005.28	228.70
1005.57	228.68
1005.86	228.65
1006.15	228.58
1006.44	228.45
1006.72	228.48
1007.01	228.46
1007.30	228.48
1007.59	228.34
1007.88	228.23
1008.17	228.18
1008.45	228.15
1008.74	228.00
1009.03	227.90
1009.32	227.90
1009.60	227.82
1009.89	227.78
1010.18	227.75
1010.47	227.72
1010.76	227.70
1011.04	227.65
1011.33	227.51
1011.62	227.48
1011.91	227.55
1012.19	227.61
1012.48	227.59
1012.77	227.51
1013.05	227.58
1013.34	227.56
1013.63	227.64
1013.92	227.67
1014.20	227.69
1014.49	227.63
1014.78	227.58
1015.06	227.42
1015.35	227.45
1015.64	227.49
1015.92	227.51
1016.21	227.49
1016.50	227.65
1016.78	227.75
1017.07	227.72
1017.36	227.78
1017.64	227.77
1017.93	227.67
1018.22	227.65
1018.50	227.63
1018.79	227.69
1019.08	227.65
1019.36	227.73
1019.65	227.65
1019.93	227.73
1020.22	227.66
1020.51	227.73
1020.79	227.83
1021.08	227.70
1021.36	225.30
1021.65	228.60
1021.94	228.80
1022.22	229.10
1022.51	227.20
1022.79	229.10
1023.08	225.70
1023.36	229.50
1023.65	227.00
>>>>>End Processed Spectral Data<<<<<
