SpectraSuite Data File
++++++++++++++++++++++++++++++++++++
Date: Fri Feb 01 14:38:47 EST 2013
User: group
Dark Spectrum Present: No
Reference Spectrum Present: No
Number of Sampled Component Spectra: 1
Spectrometers: USB2E7196
Integration Time (usec): 70000 (USB2E7196)
Spectra Averaged: 10 (USB2E7196)
Boxcar Smoothing: 10 (USB2E7196)
Correct for Electrical Dark: No (USB2E7196)
Strobe/Lamp Enabled: No (USB2E7196)
Correct for Detector Non-linearity: No (USB2E7196)
Correct for Stray Light: No (USB2E7196)
Number of Pixels in Processed Spectrum: 2048
>>>>>Begin Processed Spectral Data<<<<<
339.09	0.00
339.48	214.30
339.86	217.20
340.24	217.70
340.63	221.00
341.01	224.50
341.39	222.40
341.78	225.40
342.16	227.30
342.54	224.80
342.93	214.73
343.31	225.58
343.69	226.28
344.07	226.85
344.46	227.40
344.84	227.70
345.22	227.82
345.60	228.18
345.99	228.28
346.37	228.30
346.75	228.42
347.13	228.40
347.52	228.53
347.90	228.57
348.28	228.57
348.66	228.59
349.05	228.34
349.43	228.29
349.81	228.29
350.19	228.36
350.57	228.38
350.96	228.41
351.34	228.50
351.72	228.50
352.10	228.52
352.48	228.53
352.87	228.58
353.25	228.65
353.63	228.64
354.01	228.78
354.39	228.85
354.77	228.95
355.15	229.11
355.54	229.14
355.92	229.18
356.30	229.32
356.68	229.51
357.06	229.66
357.44	229.67
357.82	229.67
358.20	229.59
358.58	229.70
358.97	229.67
359.35	229.71
359.73	229.74
360.11	229.70
360.49	229.68
360.87	229.77
361.25	229.93
361.63	229.99
362.01	230.01
362.39	230.00
362.77	230.00
363.15	229.95
363.53	229.92
363.91	229.86
364.29	229.80
364.67	229.58
365.05	229.70
365.43	229.68
365.81	229.69
366.19	229.85
366.57	229.77
366.95	229.80
367.33	229.72
367.71	229.81
368.09	229.88
368.47	229.88
368.85	229.84
369.23	229.80
369.61	229.70
369.99	229.70
370.37	229.71
370.75	229.75
371.13	229.66
371.51	229.57
371.89	229.62
372.27	229.59
372.65	229.60
373.03	229.54
373.41	229.55
373.78	229.55
374.16	229.47
374.54	229.43
374.92	229.30
375.30	229.29
375.68	229.22
376.06	229.15
376.44	229.08
376.82	229.05
377.19	228.96
377.57	228.93
377.95	228.74
378.33	228.64
378.71	228.47
379.09	228.41
379.47	228.41
379.84	228.35
380.22	228.19
380.60	228.07
380.98	227.98
381.36	227.92
381.73	227.68
382.11	227.64
382.49	227.58
382.87	227.49
383.25	227.35
383.62	227.49
384.00	227.32
384.38	227.36
384.76	227.28
385.13	227.28
385.51	227.22
385.89	227.15
386.27	227.10
386.64	227.13
387.02	227.03
387.40	226.95
387.78	226.86
388.15	226.92
388.53	226.86
388.91	226.70
389.29	226.68
389.66	226.70
390.04	226.64
390.42	226.71
390.79	226.74
391.17	226.83
391.55	226.51
391.92	226.56
392.30	226.44
392.68	226.40
393.05	226.44
393.43	226.40
393.81	226.40
394.18	226.38
394.56	226.43
394.94	226.55
395.31	226.60
395.69	226.74
396.06	226.77
396.44	226.84
396.82	227.03
397.19	227.18
397.57	227.24
397.95	227.30
398.32	227.19
398.70	227.30
399.07	227.39
399.45	227.58
399.82	227.69
400.20	227.72
400.58	227.95
400.95	227.84
401.33	227.97
401.70	228.36
402.08	228.44
402.45	228.54
402.83	228.70
403.20	228.80
403.58	228.92
403.95	229.17
404.33	229.41
404.71	229.43
405.08	229.71
405.46	229.92
405.83	230.11
406.21	230.28
406.58	230.52
406.96	230.66
407.33	230.79
407.70	231.09
408.08	231.56
408.45	231.70
408.83	232.02
409.20	232.19
409.58	232.11
409.95	232.44
410.33	232.68
410.70	232.88
411.08	233.25
411.45	233.45
411.82	233.61
412.20	233.94
412.57	234.54
412.95	234.60
413.32	235.06
413.69	235.48
414.07	236.06
414.44	236.60
414.82	237.00
415.19	237.55
415.56	238.06
415.94	238.51
416.31	239.24
416.68	239.97
417.06	240.87
417.43	241.72
417.81	242.64
418.18	243.60
418.55	244.65
418.93	245.61
419.30	246.75
419.67	247.97
420.04	249.13
420.42	250.21
420.79	251.81
421.16	253.05
421.54	254.57
421.91	256.03
422.28	257.47
422.66	259.10
423.03	260.73
423.40	262.31
423.77	264.15
424.15	265.86
424.52	267.79
424.89	269.63
425.26	271.59
425.64	273.31
426.01	275.23
426.38	277.22
426.75	279.32
427.13	281.44
427.50	283.57
427.87	285.87
428.24	288.33
428.61	290.44
428.99	292.95
429.36	295.48
429.73	298.09
430.10	300.70
430.47	303.37
430.85	306.02
431.22	308.95
431.59	312.03
431.96	314.79
432.33	317.84
432.70	321.07
433.08	324.50
433.45	327.91
433.82	331.33
434.19	335.12
434.56	338.67
434.93	342.08
435.30	345.66
435.68	349.60
436.05	353.16
436.42	356.81
436.79	360.34
437.16	364.06
437.53	367.75
437.90	371.55
438.27	375.30
438.64	379.13
439.01	382.64
439.38	385.68
439.75	388.84
440.13	392.28
440.50	395.40
440.87	398.17
441.24	401.01
441.61	404.10
441.98	406.37
442.35	409.00
442.72	411.85
443.09	414.40
443.46	415.74
443.83	416.93
444.20	417.84
444.57	419.16
444.94	419.73
445.31	420.57
445.68	421.41
446.05	421.91
446.42	421.82
446.79	421.70
447.16	421.48
447.53	421.41
447.90	420.22
448.27	419.20
448.64	417.42
449.01	416.31
449.37	414.06
449.74	411.73
450.11	409.15
450.48	406.02
450.85	402.79
451.22	400.29
451.59	397.85
451.96	395.74
452.33	392.45
452.70	389.63
453.07	385.95
453.43	382.12
453.80	378.56
454.17	375.09
454.54	371.80
454.91	368.30
455.28	364.83
455.65	361.74
456.02	358.51
456.38	355.84
456.75	352.36
457.12	349.39
457.49	346.57
457.86	343.85
458.23	341.62
458.59	339.26
458.96	336.61
459.33	334.02
459.70	331.50
460.07	329.55
460.43	327.20
460.80	325.25
461.17	323.39
461.54	321.47
461.91	319.65
462.27	317.73
462.64	316.07
463.01	314.27
463.38	312.53
463.74	310.63
464.11	309.13
464.48	307.72
464.85	306.11
465.21	304.96
465.58	303.64
465.95	301.95
466.32	300.70
466.68	299.52
467.05	298.47
467.42	297.25
467.78	295.89
468.15	294.70
468.52	293.68
468.88	292.36
469.25	291.27
469.62	290.40
469.98	289.32
470.35	288.44
470.72	287.46
471.08	286.41
471.45	285.78
471.82	284.96
472.18	284.12
472.55	283.48
472.92	282.64
473.28	281.92
473.65	281.30
474.02	280.46
474.38	279.79
474.75	279.09
475.11	278.45
475.48	278.01
475.85	277.50
476.21	276.94
476.58	276.66
476.94	276.19
477.31	275.63
477.67	275.21
478.04	274.76
478.41	274.51
478.77	274.36
479.14	273.86
479.50	273.47
479.87	273.14
480.23	272.82
480.60	272.60
480.96	272.29
481.33	272.15
481.69	271.96
482.06	271.80
482.42	271.61
482.79	271.44
483.15	271.27
483.52	271.25
483.88	271.21
484.25	271.01
484.61	270.95
484.98	270.90
485.34	270.90
485.71	270.85
486.07	270.85
486.44	270.75
486.80	270.79
487.17	270.74
487.53	270.75
487.90	271.02
488.26	271.08
488.62	271.23
488.99	271.29
489.35	271.46
489.72	271.60
490.08	271.77
490.44	271.95
490.81	272.16
491.17	272.32
491.54	272.42
491.90	272.72
492.26	272.95
492.63	273.08
492.99	273.32
493.36	273.62
493.72	273.90
494.08	274.09
494.45	274.33
494.81	274.77
495.17	274.98
495.54	275.13
495.90	275.50
496.26	275.84
496.63	276.11
496.99	276.44
497.35	276.75
497.72	277.06
498.08	277.42
498.44	277.77
498.80	278.17
499.17	278.57
499.53	278.86
499.89	279.24
500.26	279.77
500.62	280.15
500.98	280.44
501.34	280.69
501.71	281.09
502.07	281.60
502.43	282.02
502.79	282.46
503.16	282.92
503.52	283.24
503.88	283.66
504.24	284.12
504.60	284.63
504.97	285.10
505.33	285.59
505.69	286.07
506.05	286.51
506.41	286.94
506.78	287.54
507.14	288.04
507.50	288.71
507.86	289.33
508.22	290.03
508.59	290.70
508.95	291.52
509.31	292.37
509.67	293.09
510.03	293.85
510.39	294.80
510.75	295.68
511.12	296.67
511.48	297.47
511.84	298.50
512.20	299.51
512.56	300.52
512.92	301.74
513.28	302.90
513.64	304.13
514.00	305.42
514.37	306.74
514.73	308.20
515.09	309.49
515.45	310.90
515.81	312.33
516.17	314.02
516.53	315.64
516.89	317.20
517.25	319.01
517.61	320.91
517.97	322.75
518.33	324.73
518.69	326.61
519.05	328.86
519.41	331.03
519.77	333.40
520.13	335.86
520.49	338.14
520.85	340.73
521.21	343.50
521.57	346.16
521.93	348.87
522.29	351.70
522.65	354.62
523.01	357.77
523.37	360.78
523.73	364.05
524.09	367.30
524.45	370.60
524.81	373.98
525.17	377.40
525.53	381.02
525.89	384.69
526.25	388.73
526.61	392.54
526.97	396.55
527.33	400.52
527.68	404.79
528.04	409.02
528.40	413.28
528.76	417.68
529.12	422.16
529.48	426.74
529.84	431.27
530.20	435.96
530.56	440.68
530.91	445.74
531.27	450.50
531.63	455.61
531.99	460.84
532.35	465.97
532.71	471.18
533.07	476.70
533.42	482.22
533.78	487.64
534.14	493.16
534.50	498.62
534.86	504.21
535.21	509.62
535.57	515.60
535.93	521.37
536.29	527.25
536.65	533.32
537.00	539.21
537.36	545.17
537.72	551.32
538.08	557.56
538.44	563.74
538.79	569.94
539.15	576.06
539.51	582.45
539.87	588.79
540.22	595.17
540.58	601.64
540.94	608.01
541.29	614.24
541.65	620.76
542.01	627.51
542.37	634.16
542.72	640.82
543.08	647.12
543.44	653.62
543.79	659.95
544.15	666.40
544.51	673.21
544.87	680.13
545.22	686.67
545.58	692.98
545.94	699.16
546.29	705.59
546.65	712.00
547.01	718.33
547.36	724.65
547.72	730.95
548.07	737.18
548.43	743.30
548.79	749.63
549.14	755.56
549.50	761.27
549.86	766.89
550.21	772.86
550.57	778.93
550.92	785.02
551.28	791.01
551.64	797.23
551.99	803.17
552.35	809.02
552.70	814.95
553.06	820.70
553.41	826.76
553.77	832.94
554.13	838.79
554.48	844.75
554.84	850.66
555.19	856.35
555.55	862.14
555.90	867.58
556.26	873.30
556.61	878.95
556.97	884.64
557.32	890.41
557.68	895.58
558.03	901.03
558.39	906.16
558.74	911.53
559.10	916.27
559.45	921.25
559.81	926.48
560.16	931.54
560.52	936.77
560.87	941.91
561.23	946.28
561.58	951.13
561.94	955.79
562.29	960.20
562.64	964.85
563.00	969.17
563.35	974.12
563.71	978.91
564.06	984.01
564.42	988.41
564.77	993.12
565.12	998.00
565.48	1002.42
565.83	1006.84
566.19	1011.10
566.54	1015.33
566.89	1019.52
567.25	1023.25
567.60	1027.52
567.96	1031.35
568.31	1035.29
568.66	1038.96
569.02	1042.63
569.37	1045.81
569.72	1049.44
570.08	1052.74
570.43	1055.84
570.78	1058.61
571.14	1061.13
571.49	1063.65
571.84	1066.82
572.20	1069.10
572.55	1071.38
572.90	1073.80
573.26	1076.08
573.61	1078.39
573.96	1080.57
574.31	1082.17
574.67	1083.54
575.02	1084.76
575.37	1086.38
575.72	1087.42
576.08	1089.34
576.43	1090.28
576.78	1091.99
577.13	1093.32
577.49	1094.67
577.84	1095.91
578.19	1097.12
578.54	1098.10
578.90	1098.68
579.25	1098.95
579.60	1099.90
579.95	1100.35
580.30	1100.84
580.66	1101.10
581.01	1101.27
581.36	1101.54
581.71	1102.07
582.06	1102.77
582.42	1102.85
582.77	1102.84
583.12	1102.83
583.47	1102.42
583.82	1102.96
584.17	1102.41
584.53	1102.29
584.88	1102.22
585.23	1101.86
585.58	1101.61
585.93	1101.39
586.28	1101.58
586.63	1101.66
586.98	1101.24
587.34	1101.09
587.69	1100.56
588.04	1099.98
588.39	1099.70
588.74	1098.59
589.09	1097.55
589.44	1096.31
589.79	1095.88
590.14	1095.00
590.49	1094.12
590.84	1093.51
591.19	1092.37
591.54	1091.50
591.89	1089.54
592.25	1088.43
592.60	1087.17
592.95	1085.32
593.30	1083.66
593.65	1081.53
594.00	1079.73
594.35	1078.30
594.70	1076.25
595.05	1074.58
595.40	1072.77
595.75	1070.38
596.10	1069.07
596.45	1067.51
596.80	1066.36
597.15	1064.53
597.50	1062.68
597.85	1061.05
598.19	1059.36
598.54	1057.74
598.89	1055.78
599.24	1054.48
599.59	1052.04
599.94	1050.07
600.29	1048.40
600.64	1046.68
600.99	1044.60
601.34	1042.52
601.69	1039.92
602.04	1037.98
602.39	1035.84
602.74	1034.30
603.08	1032.68
603.43	1030.69
603.78	1028.68
604.13	1026.37
604.48	1023.94
604.83	1021.83
605.18	1019.60
605.53	1016.67
605.87	1013.81
606.22	1011.50
606.57	1008.96
606.92	1006.49
607.27	1004.16
607.62	1001.72
607.96	999.06
608.31	996.87
608.66	993.90
609.01	990.94
609.36	987.62
609.70	984.26
610.05	980.94
610.40	977.42
610.75	973.98
611.10	970.65
611.44	967.02
611.79	964.04
612.14	960.67
612.49	956.80
612.83	953.43
613.18	950.15
613.53	946.78
613.88	943.17
614.22	939.68
614.57	935.95
614.92	932.66
615.27	929.12
615.61	925.45
615.96	921.99
616.31	919.21
616.65	916.62
617.00	913.53
617.35	910.25
617.70	906.96
618.04	903.53
618.39	900.12
618.74	896.97
619.08	893.16
619.43	889.97
619.78	887.08
620.12	883.58
620.47	880.02
620.82	876.22
621.16	873.13
621.51	869.79
621.85	866.48
622.20	862.64
622.55	859.25
622.89	855.99
623.24	853.11
623.59	849.71
623.93	846.34
624.28	843.11
624.62	839.59
624.97	836.35
625.32	833.20
625.66	829.97
626.01	826.68
626.35	823.34
626.70	819.73
627.04	816.48
627.39	813.12
627.73	809.74
628.08	806.48
628.43	803.13
628.77	799.95
629.12	796.36
629.46	793.10
629.81	789.37
630.15	785.51
630.50	781.60
630.84	777.45
631.19	773.55
631.53	769.93
631.88	766.39
632.22	762.50
632.57	759.22
632.91	755.58
633.26	751.99
633.60	748.45
633.95	744.94
634.29	741.07
634.64	738.00
634.98	734.51
635.32	731.37
635.67	728.18
636.01	724.72
636.36	721.45
636.70	718.30
637.05	715.22
637.39	712.20
637.73	709.21
638.08	706.59
638.42	703.79
638.77	700.66
639.11	697.45
639.45	694.60
639.80	691.26
640.14	688.24
640.49	685.13
640.83	681.90
641.17	678.88
641.52	675.68
641.86	672.40
642.20	669.50
642.55	666.10
642.89	662.74
643.23	659.55
643.58	656.73
643.92	653.29
644.26	650.39
644.61	647.47
644.95	644.44
645.29	640.84
645.64	637.32
645.98	634.10
646.32	631.33
646.66	628.10
647.01	624.87
647.35	621.84
647.69	618.73
648.04	616.07
648.38	612.90
648.72	609.70
649.06	606.42
649.41	603.22
649.75	600.07
650.09	596.84
650.43	593.70
650.78	590.43
651.12	587.28
651.46	583.94
651.80	580.82
652.14	577.73
652.49	575.02
652.83	572.15
653.17	569.09
653.51	565.67
653.85	562.75
654.20	559.80
654.54	556.51
654.88	553.47
655.22	550.02
655.56	546.84
655.90	544.03
656.25	541.30
656.59	538.28
656.93	535.67
657.27	532.90
657.61	529.90
657.95	527.08
658.29	524.54
658.64	521.89
658.98	518.80
659.32	515.80
659.66	512.81
660.00	510.01
660.34	507.12
660.68	504.49
661.02	501.77
661.36	499.09
661.70	496.74
662.05	494.27
662.39	492.17
662.73	489.83
663.07	487.67
663.41	485.23
663.75	482.79
664.09	480.34
664.43	477.87
664.77	475.63
665.11	473.24
665.45	471.05
665.79	468.64
666.13	466.34
666.47	464.07
666.81	462.00
667.15	459.57
667.49	457.60
667.83	455.50
668.17	453.34
668.51	451.20
668.85	448.88
669.19	446.74
669.53	444.42
669.87	442.27
670.21	440.16
670.55	438.01
670.89	436.24
671.23	434.29
671.57	432.34
671.91	430.57
672.25	428.57
672.58	426.49
672.92	424.48
673.26	422.78
673.60	421.09
673.94	419.25
674.28	417.70
674.62	416.10
674.96	414.37
675.30	412.73
675.64	411.16
675.97	409.51
676.31	407.88
676.65	406.12
676.99	404.71
677.33	402.81
677.67	401.39
678.01	399.58
678.34	397.81
678.68	396.30
679.02	394.53
679.36	393.02
679.70	391.44
680.04	390.06
680.37	388.36
680.71	386.71
681.05	385.15
681.39	383.69
681.73	382.13
682.06	380.73
682.40	379.20
682.74	377.60
683.08	376.14
683.42	374.58
683.75	373.21
684.09	371.63
684.43	370.29
684.77	368.83
685.10	367.46
685.44	366.14
685.78	364.72
686.12	363.39
686.45	362.00
686.79	360.60
687.13	359.33
687.46	358.16
687.80	356.90
688.14	355.59
688.48	354.27
688.81	352.90
689.15	351.55
689.49	350.37
689.82	349.10
690.16	347.90
690.50	346.69
690.83	345.53
691.17	344.24
691.51	343.02
691.84	341.76
692.18	340.58
692.52	339.16
692.85	337.83
693.19	336.60
693.52	335.47
693.86	334.36
694.20	333.15
694.53	332.00
694.87	330.81
695.21	329.63
695.54	328.32
695.88	327.08
696.21	325.95
696.55	324.71
696.88	323.57
697.22	322.46
697.56	321.39
697.89	320.22
698.23	319.25
698.56	318.20
698.90	317.08
699.23	315.99
699.57	315.05
699.90	314.12
700.24	313.13
700.58	312.01
700.91	310.97
701.25	310.00
701.58	309.06
701.92	308.07
702.25	307.09
702.59	306.28
702.92	305.45
703.26	304.55
703.59	303.79
703.93	303.09
704.26	302.17
704.60	301.26
704.93	300.40
705.26	299.50
705.60	298.73
705.93	298.12
706.27	297.43
706.60	296.83
706.94	296.13
707.27	295.45
707.61	294.69
707.94	293.94
708.27	293.09
708.61	292.22
708.94	291.56
709.28	290.88
709.61	290.15
709.94	289.33
710.28	288.64
710.61	287.95
710.95	287.09
711.28	286.58
711.61	286.01
711.95	285.42
712.28	284.77
712.61	284.08
712.95	283.40
713.28	282.72
713.61	282.00
713.95	281.36
714.28	280.70
714.61	280.16
714.95	279.61
715.28	279.12
715.61	278.57
715.95	278.01
716.28	277.49
716.61	276.98
716.95	276.48
717.28	275.95
717.61	275.44
717.94	274.97
718.28	274.22
718.61	273.68
718.94	273.18
719.27	272.60
719.61	272.19
719.94	271.70
720.27	271.27
720.60	270.84
720.94	270.29
721.27	269.83
721.60	269.48
721.93	269.07
722.27	268.63
722.60	268.22
722.93	267.84
723.26	267.47
723.59	267.07
723.93	266.82
724.26	266.50
724.59	266.12
724.92	265.75
725.25	265.53
725.59	265.16
725.92	264.77
726.25	264.57
726.58	264.13
726.91	263.80
727.24	263.61
727.57	263.26
727.91	262.98
728.24	262.76
728.57	262.38
728.90	262.06
729.23	261.75
729.56	261.65
729.89	261.34
730.22	260.98
730.55	260.71
730.89	260.23
731.22	259.86
731.55	259.50
731.88	259.24
732.21	258.86
732.54	258.55
732.87	258.27
733.20	257.92
733.53	257.79
733.86	257.50
734.19	257.12
734.52	256.86
734.85	256.69
735.18	256.31
735.51	256.06
735.84	255.74
736.17	255.46
736.50	255.03
736.83	254.97
737.16	254.71
737.49	254.33
737.82	254.12
738.15	253.83
738.48	253.60
738.81	253.32
739.14	253.06
739.47	252.81
739.80	252.53
740.13	252.36
740.46	251.95
740.79	251.57
741.12	251.22
741.45	250.96
741.78	250.63
742.11	250.41
742.44	250.08
742.77	249.88
743.10	249.59
743.43	249.25
743.75	248.75
744.08	248.69
744.41	248.48
744.74	248.22
745.07	248.00
745.40	247.72
745.73	247.62
746.06	247.49
746.39	247.10
746.71	246.88
747.04	246.49
747.37	246.30
747.70	246.15
748.03	245.96
748.36	245.72
748.68	245.41
749.01	245.16
749.34	244.97
749.67	244.75
750.00	244.62
750.33	244.55
750.65	244.38
750.98	243.92
751.31	243.72
751.64	243.43
751.97	243.38
752.29	243.19
752.62	242.77
752.95	242.55
753.28	242.50
753.60	242.33
753.93	242.38
754.26	242.25
754.59	242.06
754.91	241.81
755.24	241.51
755.57	241.34
755.90	241.09
756.22	240.90
756.55	240.72
756.88	240.42
757.20	240.15
757.53	240.00
757.86	239.97
758.19	239.85
758.51	239.83
758.84	239.55
759.17	239.38
759.49	239.42
759.82	239.30
760.15	239.23
760.47	239.07
760.80	238.78
761.13	238.61
761.45	238.42
761.78	238.39
762.11	238.43
762.43	238.38
762.76	238.42
763.08	238.40
763.41	238.31
763.74	238.28
764.06	238.24
764.39	238.13
764.71	238.01
765.04	237.90
765.37	237.86
765.69	237.78
766.02	237.70
766.34	237.53
766.67	237.45
767.00	237.26
767.32	237.29
767.65	237.36
767.97	237.34
768.30	237.35
768.62	237.26
768.95	237.13
769.27	237.14
769.60	237.07
769.92	236.91
770.25	236.85
770.57	236.73
770.90	236.62
771.22	236.53
771.55	236.52
771.87	236.46
772.20	236.35
772.52	236.42
772.85	236.60
773.17	236.50
773.50	236.43
773.82	236.42
774.15	236.29
774.47	236.03
774.80	235.91
775.12	235.90
775.45	235.82
775.77	235.81
776.09	235.62
776.42	235.56
776.74	235.71
777.07	235.66
777.39	235.65
777.72	235.50
778.04	235.56
778.36	235.47
778.69	235.40
779.01	235.34
779.33	235.06
779.66	234.82
779.98	234.76
780.31	234.60
780.63	234.60
780.95	234.50
781.28	234.45
781.60	234.37
781.92	234.26
782.25	234.14
782.57	234.05
782.89	233.97
783.22	233.79
783.54	233.64
783.86	233.50
784.19	233.42
784.51	233.59
784.83	233.48
785.16	233.33
785.48	233.36
785.80	233.26
786.12	233.23
786.45	233.15
786.77	233.14
787.09	233.18
787.42	233.04
787.74	233.06
788.06	233.06
788.38	233.08
788.71	232.98
789.03	233.00
789.35	232.94
789.67	232.95
789.99	232.89
790.32	232.78
790.64	232.78
790.96	232.85
791.28	232.63
791.61	232.47
791.93	232.50
792.25	232.41
792.57	232.56
792.89	232.49
793.21	232.49
793.54	232.40
793.86	232.40
794.18	232.40
794.50	232.30
794.82	232.33
795.14	232.23
795.47	232.16
795.79	232.07
796.11	231.87
796.43	231.73
796.75	231.69
797.07	231.60
797.39	231.46
797.71	231.33
798.04	231.32
798.36	231.30
798.68	231.20
799.00	231.09
799.32	230.91
799.64	230.92
799.96	230.78
800.28	230.87
800.60	230.65
800.92	230.59
801.24	230.53
801.56	230.48
801.89	230.37
802.21	230.37
802.53	230.35
802.85	230.49
803.17	230.62
803.49	230.62
803.81	230.58
804.13	230.64
804.45	230.53
804.77	230.54
805.09	230.58
805.41	230.68
805.73	230.72
806.05	230.67
806.37	230.69
806.69	230.68
807.01	230.51
807.33	230.50
807.65	230.47
807.97	230.55
808.28	230.43
808.60	230.44
808.92	230.42
809.24	230.50
809.56	230.51
809.88	230.45
810.20	230.49
810.52	230.56
810.84	230.43
811.16	230.49
811.48	230.44
811.80	230.47
812.12	230.43
812.43	230.34
812.75	230.35
813.07	230.31
813.39	230.36
813.71	230.32
814.03	230.42
814.35	230.39
814.67	230.33
814.98	230.35
815.30	230.40
815.62	230.43
815.94	230.26
816.26	230.30
816.58	230.29
816.89	230.24
817.21	230.11
817.53	230.25
817.85	230.23
818.17	230.23
818.48	230.06
818.80	229.99
819.12	230.06
819.44	230.05
819.76	230.05
820.07	230.01
820.39	230.09
820.71	230.02
821.03	230.07
821.34	230.14
821.66	230.19
821.98	230.19
822.30	230.22
822.61	230.33
822.93	230.20
823.25	230.19
823.57	230.10
823.88	230.23
824.20	230.14
824.52	230.14
824.83	230.20
825.15	230.21
825.47	230.26
825.79	230.23
826.10	230.19
826.42	230.10
826.74	230.01
827.05	229.94
827.37	229.97
827.69	229.94
828.00	229.88
828.32	229.80
828.64	229.65
828.95	229.73
829.27	229.69
829.58	229.69
829.90	229.66
830.22	229.78
830.53	229.76
830.85	229.78
831.17	229.70
831.48	229.59
831.80	229.70
832.11	229.64
832.43	229.61
832.75	229.60
833.06	229.75
833.38	229.80
833.69	229.80
834.01	229.90
834.32	229.83
834.64	229.71
834.96	229.75
835.27	229.82
835.59	229.67
835.90	229.62
836.22	229.60
836.53	229.54
836.85	229.46
837.16	229.59
837.48	229.52
837.79	229.59
838.11	229.54
838.42	229.42
838.74	229.50
839.05	229.46
839.37	229.39
839.68	229.20
840.00	229.12
840.31	229.12
840.63	229.00
840.94	229.04
841.26	229.03
841.57	229.07
841.88	229.06
842.20	229.09
842.51	229.02
842.83	229.01
843.14	229.14
843.46	229.16
843.77	228.99
844.08	229.00
844.40	228.88
844.71	228.86
845.03	228.89
845.34	228.76
845.65	228.78
845.97	228.83
846.28	228.93
846.60	228.85
846.91	228.88
847.22	228.92
847.54	228.86
847.85	229.05
848.16	228.91
848.48	228.87
848.79	228.84
849.10	229.00
849.42	229.00
849.73	228.79
850.04	228.78
850.36	228.71
850.67	228.71
850.98	228.75
851.30	228.82
851.61	228.83
851.92	228.93
852.23	228.94
852.55	229.00
852.86	229.03
853.17	229.13
853.49	229.09
853.80	229.02
854.11	229.14
854.42	228.97
854.74	229.02
855.05	229.11
855.36	229.04
855.67	228.96
855.99	229.02
856.30	229.30
856.61	229.28
856.92	229.26
857.23	229.29
857.55	229.30
857.86	229.28
858.17	229.26
858.48	229.24
858.79	229.21
859.11	229.17
859.42	229.10
859.73	229.14
860.04	229.14
860.35	229.09
860.66	228.95
860.98	228.97
861.29	228.95
861.60	228.82
861.91	228.93
862.22	228.97
862.53	228.86
862.84	228.64
863.16	228.66
863.47	228.60
863.78	228.58
864.09	228.56
864.40	228.58
864.71	228.51
865.02	228.51
865.33	228.32
865.64	228.32
865.95	228.30
866.27	228.41
866.58	228.41
866.89	228.55
867.20	228.58
867.51	228.58
867.82	228.58
868.13	228.68
868.44	228.55
868.75	228.60
869.06	228.74
869.37	228.70
869.68	228.61
869.99	228.63
870.30	228.64
870.61	228.67
870.92	228.66
871.23	228.70
871.54	228.73
871.85	228.88
872.16	228.88
872.47	228.86
872.78	228.66
873.09	228.70
873.40	228.52
873.71	228.51
874.02	228.48
874.33	228.55
874.64	228.48
874.95	228.47
875.26	228.30
875.56	228.20
875.87	228.18
876.18	228.31
876.49	228.60
876.80	228.54
877.11	228.48
877.42	228.45
877.73	228.38
878.04	228.32
878.35	228.40
878.66	228.40
878.96	228.33
879.27	228.39
879.58	228.37
879.89	228.38
880.20	228.40
880.51	228.38
880.82	228.34
881.12	228.42
881.43	228.49
881.74	228.54
882.05	228.46
882.36	228.47
882.67	228.41
882.97	228.18
883.28	228.21
883.59	228.24
883.90	228.29
884.21	228.34
884.51	228.30
884.82	228.26
885.13	228.31
885.44	228.45
885.74	228.50
886.05	228.50
886.36	228.52
886.67	228.53
886.98	228.68
887.28	228.55
887.59	228.44
887.90	228.41
888.20	228.42
888.51	228.49
888.82	228.52
889.13	228.58
889.43	228.70
889.74	228.59
890.05	228.64
890.35	228.67
890.66	228.72
890.97	228.68
891.28	228.68
891.58	228.59
891.89	228.57
892.20	228.46
892.50	228.37
892.81	228.37
893.12	228.31
893.42	228.24
893.73	228.35
894.04	228.38
894.34	228.35
894.65	228.34
894.95	228.39
895.26	228.40
895.57	228.36
895.87	228.23
896.18	228.30
896.48	228.28
896.79	228.27
897.10	228.26
897.40	228.30
897.71	228.25
898.01	228.30
898.32	228.29
898.63	228.26
898.93	228.30
899.24	228.37
899.54	228.39
899.85	228.20
900.15	228.20
900.46	228.26
900.76	228.30
901.07	228.22
901.38	228.14
901.68	228.12
901.99	228.09
902.29	228.04
902.60	228.16
902.90	228.03
903.21	227.90
903.51	227.80
903.82	227.86
904.12	227.78
904.43	227.66
904.73	227.54
905.03	227.53
905.34	227.70
905.64	227.57
905.95	227.58
906.25	227.70
906.56	227.67
906.86	227.66
907.17	227.61
907.47	227.68
907.77	227.64
908.08	227.59
908.38	227.61
908.69	227.66
908.99	227.61
909.30	227.66
909.60	227.72
909.90	227.83
910.21	227.73
910.51	227.89
910.81	227.96
911.12	228.09
911.42	228.08
911.73	227.90
912.03	228.06
912.33	228.03
912.64	228.08
912.94	228.13
913.24	228.04
913.55	227.99
913.85	227.99
914.15	228.06
914.46	228.06
914.76	228.02
915.06	227.97
915.37	227.90
915.67	227.96
915.97	227.98
916.27	227.97
916.58	227.96
916.88	227.83
917.18	227.87
917.49	228.06
917.79	228.17
918.09	228.24
918.39	228.22
918.70	228.22
919.00	228.17
919.30	228.22
919.60	228.22
919.91	228.43
920.21	228.52
920.51	228.53
920.81	228.55
921.12	228.63
921.42	228.75
921.72	228.91
922.02	229.00
922.32	229.06
922.63	229.10
922.93	229.19
923.23	229.31
923.53	229.29
923.83	229.11
924.13	229.06
924.44	229.09
924.74	229.20
925.04	229.25
925.34	229.35
925.64	229.30
925.94	229.38
926.24	229.28
926.55	229.24
926.85	229.36
927.15	229.42
927.45	229.46
927.75	229.42
928.05	229.44
928.35	229.40
928.65	229.38
928.95	229.35
929.26	229.38
929.56	229.41
929.86	229.53
930.16	229.56
930.46	229.63
930.76	229.55
931.06	229.36
931.36	229.32
931.66	229.21
931.96	229.25
932.26	229.20
932.56	229.18
932.86	229.15
933.16	229.06
933.46	229.03
933.76	228.93
934.06	228.90
934.36	228.92
934.66	228.84
934.96	228.87
935.26	228.85
935.56	228.80
935.86	228.70
936.16	228.52
936.46	228.45
936.76	228.29
937.06	228.36
937.36	228.40
937.66	228.40
937.96	228.38
938.26	228.27
938.56	228.30
938.86	228.32
939.16	228.37
939.46	228.38
939.76	228.21
940.06	228.20
940.35	228.10
940.65	227.89
940.95	228.02
941.25	227.97
941.55	227.86
941.85	227.90
942.15	227.92
942.45	227.96
942.75	227.86
943.04	227.94
943.34	227.88
943.64	227.84
943.94	227.78
944.24	227.87
944.54	227.89
944.84	227.86
945.13	227.83
945.43	227.73
945.73	227.74
946.03	227.85
946.33	227.87
946.62	227.94
946.92	227.95
947.22	227.90
947.52	227.89
947.82	227.94
948.11	227.82
948.41	227.82
948.71	227.87
949.01	227.98
949.31	227.91
949.60	227.86
949.90	227.92
950.20	227.92
950.50	227.90
950.79	227.93
951.09	227.94
951.39	227.85
951.69	227.84
951.98	227.90
952.28	227.91
952.58	227.90
952.87	227.88
953.17	227.93
953.47	227.89
953.76	227.88
954.06	227.73
954.36	227.77
954.66	227.74
954.95	227.69
955.25	227.72
955.55	227.82
955.84	227.74
956.14	227.73
956.44	227.83
956.73	227.76
957.03	227.76
957.32	227.77
957.62	227.85
957.92	227.98
958.21	227.92
958.51	228.12
958.81	228.11
959.10	228.24
959.40	228.32
959.69	228.24
959.99	228.27
960.29	228.49
960.58	228.55
960.88	228.69
961.17	228.78
961.47	228.72
961.76	228.72
962.06	228.94
962.36	228.91
962.65	228.92
962.95	228.94
963.24	228.95
963.54	228.93
963.83	228.91
964.13	228.92
964.42	228.86
964.72	228.77
965.01	228.91
965.31	228.81
965.60	228.79
965.90	229.04
966.19	229.04
966.49	229.11
966.78	229.13
967.08	229.09
967.37	229.17
967.67	229.14
967.96	229.26
968.26	229.23
968.55	229.27
968.85	229.25
969.14	229.28
969.43	229.27
969.73	229.27
970.02	229.32
970.32	229.19
970.61	229.19
970.91	229.13
971.20	229.02
971.49	229.13
971.79	229.08
972.08	228.94
972.38	228.90
972.67	228.86
972.96	228.90
973.26	228.89
973.55	228.93
973.85	228.95
974.14	228.86
974.43	228.80
974.73	228.78
975.02	228.66
975.31	228.70
975.61	228.80
975.90	228.79
976.19	228.81
976.49	228.95
976.78	228.96
977.07	229.03
977.37	228.98
977.66	228.94
977.95	228.97
978.24	228.97
978.54	228.99
978.83	228.86
979.12	228.78
979.42	228.77
979.71	228.46
980.00	228.44
980.29	228.44
980.59	228.42
980.88	228.50
981.17	228.57
981.46	228.49
981.76	228.38
982.05	228.49
982.34	228.40
982.63	228.32
982.93	228.33
983.22	228.24
983.51	228.30
983.80	228.26
984.09	228.20
984.39	228.17
984.68	228.24
984.97	228.24
985.26	228.16
985.55	228.15
985.85	228.20
986.14	228.27
986.43	228.27
986.72	228.23
987.01	228.16
987.30	228.11
987.59	228.05
987.89	227.91
988.18	227.83
988.47	227.75
988.76	227.74
989.05	227.66
989.34	227.67
989.63	227.69
989.92	227.75
990.22	227.79
990.51	227.82
990.80	227.69
991.09	227.73
991.38	227.73
991.67	227.68
991.96	227.68
992.25	227.58
992.54	227.62
992.83	227.68
993.12	227.67
993.41	227.57
993.70	227.73
993.99	227.90
994.28	227.94
994.58	228.00
994.87	228.02
995.16	228.02
995.45	228.03
995.74	227.93
996.03	227.83
996.32	227.76
996.61	227.74
996.90	227.83
997.19	227.87
997.48	227.90
997.77	227.90
998.06	228.07
998.34	228.09
998.63	228.00
998.92	228.03
999.21	228.09
999.50	228.29
999.79	228.26
1000.08	228.35
1000.37	228.34
1000.66	228.42
1000.95	228.44
1001.24	228.50
1001.53	228.50
1001.82	228.57
1002.11	228.63
1002.40	228.74
1002.68	228.83
1002.97	228.92
1003.26	228.90
1003.55	228.91
1003.84	228.93
1004.13	228.88
1004.42	228.96
1004.71	228.96
1004.99	228.88
1005.28	228.87
1005.57	228.88
1005.86	228.84
1006.15	228.70
1006.44	228.63
1006.72	228.56
1007.01	228.61
1007.30	228.60
1007.59	228.68
1007.88	228.62
1008.17	228.63
1008.45	228.68
1008.74	228.52
1009.03	228.39
1009.32	228.35
1009.60	228.27
1009.89	228.35
1010.18	228.23
1010.47	228.16
1010.76	228.23
1011.04	228.26
1011.33	228.21
1011.62	228.17
1011.91	228.16
1012.19	228.20
1012.48	228.23
1012.77	228.20
1013.05	228.26
1013.34	228.26
1013.63	228.13
1013.92	228.17
1014.20	228.09
1014.49	227.95
1014.78	228.03
1015.06	228.06
1015.35	228.05
1015.64	228.12
1015.92	228.08
1016.21	228.13
1016.50	228.16
1016.78	228.07
1017.07	228.04
1017.36	228.07
1017.64	228.01
1017.93	227.97
1018.22	228.00
1018.50	227.92
1018.79	227.97
1019.08	227.83
1019.36	227.78
1019.65	227.78
1019.93	227.79
1020.22	227.73
1020.51	227.83
1020.79	227.71
1021.08	228.70
1021.36	226.70
1021.65	227.90
1021.94	227.90
1022.22	227.10
1022.51	227.40
1022.79	228.20
1023.08	226.00
1023.36	229.70
1023.65	226.20
>>>>>End Processed Spectral Data<<<<<
