SpectraSuite Data File
++++++++++++++++++++++++++++++++++++
Date: Fri Feb 01 14:39:25 EST 2013
User: group
Dark Spectrum Present: No
Reference Spectrum Present: No
Number of Sampled Component Spectra: 1
Spectrometers: USB2E7196
Integration Time (usec): 70000 (USB2E7196)
Spectra Averaged: 10 (USB2E7196)
Boxcar Smoothing: 10 (USB2E7196)
Correct for Electrical Dark: No (USB2E7196)
Strobe/Lamp Enabled: No (USB2E7196)
Correct for Detector Non-linearity: No (USB2E7196)
Correct for Stray Light: No (USB2E7196)
Number of Pixels in Processed Spectrum: 2048
>>>>>Begin Processed Spectral Data<<<<<
339.09	0.00
339.48	215.10
339.86	217.20
340.24	219.00
340.63	221.60
341.01	223.80
341.39	223.80
341.78	224.40
342.16	224.90
342.54	226.70
342.93	214.42
343.31	225.30
343.69	225.75
344.07	226.19
344.46	226.70
344.84	226.92
345.22	227.11
345.60	227.29
345.99	227.34
346.37	227.45
346.75	227.48
347.13	227.62
347.52	227.69
347.90	227.74
348.28	227.83
348.66	227.78
349.05	227.68
349.43	227.68
349.81	227.67
350.19	227.75
350.57	227.82
350.96	227.86
351.34	227.90
351.72	228.13
352.10	228.20
352.48	228.22
352.87	228.32
353.25	228.40
353.63	228.53
354.01	228.69
354.39	228.75
354.77	228.77
355.15	228.79
355.54	228.84
355.92	228.81
356.30	228.81
356.68	229.01
357.06	229.20
357.44	229.24
357.82	229.27
358.20	229.33
358.58	229.36
358.97	229.45
359.35	229.59
359.73	229.63
360.11	229.66
360.49	229.77
360.87	229.83
361.25	229.88
361.63	229.92
362.01	230.05
362.39	230.13
362.77	230.23
363.15	230.29
363.53	230.30
363.91	230.41
364.29	230.42
364.67	230.36
365.05	230.27
365.43	230.32
365.81	230.39
366.19	230.55
366.57	230.63
366.95	230.72
367.33	230.63
367.71	230.65
368.09	230.70
368.47	230.57
368.85	230.53
369.23	230.47
369.61	230.34
369.99	230.36
370.37	230.41
370.75	230.42
371.13	230.35
371.51	230.26
371.89	230.20
372.27	230.25
372.65	230.19
373.03	230.07
373.41	230.03
373.78	230.03
374.16	229.73
374.54	229.62
374.92	229.53
375.30	229.48
375.68	229.33
376.06	229.34
376.44	229.24
376.82	229.24
377.19	229.22
377.57	229.20
377.95	229.06
378.33	228.93
378.71	228.79
379.09	228.78
379.47	228.70
379.84	228.68
380.22	228.47
380.60	228.33
380.98	228.30
381.36	228.17
381.73	228.06
382.11	228.13
382.49	228.02
382.87	227.84
383.25	227.74
383.62	227.94
384.00	227.86
384.38	227.77
384.76	227.75
385.13	227.85
385.51	227.72
385.89	227.71
386.27	227.58
386.64	227.64
387.02	227.45
387.40	227.47
387.78	227.35
388.15	227.34
388.53	227.25
388.91	227.20
389.29	227.16
389.66	227.19
390.04	227.12
390.42	227.20
390.79	227.21
391.17	227.12
391.55	226.83
391.92	226.81
392.30	226.86
392.68	226.82
393.05	226.72
393.43	226.81
393.81	226.68
394.18	226.63
394.56	226.44
394.94	226.60
395.31	226.59
395.69	226.67
396.06	226.71
396.44	226.86
396.82	226.94
397.19	227.07
397.57	227.08
397.95	227.10
398.32	227.00
398.70	227.04
399.07	227.29
399.45	227.45
399.82	227.51
400.20	227.65
400.58	227.61
400.95	227.64
401.33	227.70
401.70	228.04
402.08	228.28
402.45	228.53
402.83	228.71
403.20	228.87
403.58	228.90
403.95	229.17
404.33	229.27
404.71	229.41
405.08	229.76
405.46	229.87
405.83	229.99
406.21	230.19
406.58	230.49
406.96	230.49
407.33	230.65
407.70	230.80
408.08	231.16
408.45	231.50
408.83	231.70
409.20	231.91
409.58	232.08
409.95	232.29
410.33	232.56
410.70	232.68
411.08	232.93
411.45	233.33
411.82	233.46
412.20	233.85
412.57	234.36
412.95	234.46
413.32	234.87
413.69	235.30
414.07	235.73
414.44	236.16
414.82	236.81
415.19	237.32
415.56	237.83
415.94	238.20
416.31	238.84
416.68	239.50
417.06	240.14
417.43	240.74
417.81	241.55
418.18	242.40
418.55	243.25
418.93	244.14
419.30	245.06
419.67	246.05
420.04	247.02
420.42	247.98
420.79	249.26
421.16	250.49
421.54	251.76
421.91	253.05
422.28	254.27
422.66	255.52
423.03	256.98
423.40	258.49
423.77	260.02
424.15	261.51
424.52	263.12
424.89	264.87
425.26	266.50
425.64	267.92
426.01	269.55
426.38	271.37
426.75	273.09
427.13	274.82
427.50	276.76
427.87	278.79
428.24	280.77
428.61	282.61
428.99	284.78
429.36	287.10
429.73	289.28
430.10	291.40
430.47	293.60
430.85	295.73
431.22	298.08
431.59	300.78
431.96	303.21
432.33	305.86
432.70	308.54
433.08	311.68
433.45	314.66
433.82	317.60
434.19	320.73
434.56	324.03
434.93	327.20
435.30	330.11
435.68	333.38
436.05	336.68
436.42	339.90
436.79	342.68
437.16	345.71
437.53	348.92
437.90	352.33
438.27	355.70
438.64	359.09
439.01	362.19
439.38	364.78
439.75	367.44
440.13	370.48
440.50	373.44
440.87	375.74
441.24	378.23
441.61	380.85
441.98	382.81
442.35	384.98
442.72	387.08
443.09	389.55
443.46	390.77
443.83	391.73
444.20	392.61
444.57	393.73
444.94	394.39
445.31	395.12
445.68	395.88
446.05	396.30
446.42	396.16
446.79	395.90
447.16	395.58
447.53	395.34
447.90	394.20
448.27	392.96
448.64	391.35
449.01	390.20
449.37	388.13
449.74	386.22
450.11	384.02
450.48	381.56
450.85	378.66
451.22	376.69
451.59	374.52
451.96	372.36
452.33	369.66
452.70	367.11
453.07	364.03
453.43	360.69
453.80	357.51
454.17	354.57
454.54	351.84
454.91	348.83
455.28	345.84
455.65	343.04
456.02	340.39
456.38	338.00
456.75	335.10
457.12	332.59
457.49	330.12
457.86	327.53
458.23	325.41
458.59	323.15
458.96	320.61
459.33	318.42
459.70	316.30
460.07	314.57
460.43	312.57
460.80	310.77
461.17	309.13
461.54	307.39
461.91	305.72
462.27	303.92
462.64	302.49
463.01	300.89
463.38	299.52
463.74	297.73
464.11	296.29
464.48	295.02
464.85	293.70
465.21	292.68
465.58	291.56
465.95	290.20
466.32	289.10
466.68	288.03
467.05	286.95
467.42	285.76
467.78	284.60
468.15	283.49
468.52	282.57
468.88	281.44
469.25	280.35
469.62	279.49
469.98	278.62
470.35	277.77
470.72	277.02
471.08	276.01
471.45	275.40
471.82	274.75
472.18	273.84
472.55	273.13
472.92	272.36
473.28	271.69
473.65	271.11
474.02	270.48
474.38	269.79
474.75	269.26
475.11	268.75
475.48	268.19
475.85	267.74
476.21	267.22
476.58	266.80
476.94	266.45
477.31	265.85
477.67	265.50
478.04	265.12
478.41	264.80
478.77	264.74
479.14	264.36
479.50	263.97
479.87	263.72
480.23	263.54
480.60	263.19
480.96	262.84
481.33	262.63
481.69	262.46
482.06	262.38
482.42	262.16
482.79	262.02
483.15	261.91
483.52	261.96
483.88	261.92
484.25	261.82
484.61	261.74
484.98	261.76
485.34	261.71
485.71	261.66
486.07	261.60
486.44	261.45
486.80	261.37
487.17	261.36
487.53	261.54
487.90	261.57
488.26	261.78
488.62	261.94
488.99	261.95
489.35	262.04
489.72	262.14
490.08	262.26
490.44	262.39
490.81	262.56
491.17	262.62
491.54	262.73
491.90	262.92
492.26	263.17
492.63	263.45
492.99	263.70
493.36	264.04
493.72	264.39
494.08	264.70
494.45	265.17
494.81	265.55
495.17	265.77
495.54	266.21
495.90	266.59
496.26	267.00
496.63	267.50
496.99	267.87
497.35	268.33
497.72	268.86
498.08	269.38
498.44	270.01
498.80	270.56
499.17	271.11
499.53	271.76
499.89	272.46
500.26	273.20
500.62	273.80
500.98	274.53
501.34	275.29
501.71	276.04
502.07	276.73
502.43	277.54
502.79	278.38
503.16	279.03
503.52	279.82
503.88	280.70
504.24	281.52
504.60	282.57
504.97	283.65
505.33	284.73
505.69	285.95
506.05	286.97
506.41	288.08
506.78	289.28
507.14	290.45
507.50	291.67
507.86	292.98
508.22	294.48
508.59	295.93
508.95	297.38
509.31	298.96
509.67	300.50
510.03	302.26
510.39	304.14
510.75	306.15
511.12	308.00
511.48	309.99
511.84	312.10
512.20	314.10
512.56	316.21
512.92	318.43
513.28	320.84
513.64	323.28
514.00	325.93
514.37	328.69
514.73	331.44
515.09	334.46
515.45	337.34
515.81	340.29
516.17	343.30
516.53	346.60
516.89	349.87
517.25	353.49
517.61	356.96
517.97	360.32
518.33	363.91
518.69	367.80
519.05	371.76
519.41	375.73
519.77	380.00
520.13	384.20
520.49	388.34
520.85	392.60
521.21	397.01
521.57	401.55
521.93	405.96
522.29	410.82
522.65	415.50
523.01	420.38
523.37	425.27
523.73	430.12
524.09	435.20
524.45	440.39
524.81	445.69
525.17	451.07
525.53	456.81
525.89	462.47
526.25	468.14
526.61	473.68
526.97	479.53
527.33	485.49
527.68	491.77
528.04	497.88
528.40	503.95
528.76	510.43
529.12	516.87
529.48	523.53
529.84	529.83
530.20	536.39
530.56	543.28
530.91	550.40
531.27	557.63
531.63	564.43
531.99	571.45
532.35	578.42
532.71	585.46
533.07	592.82
533.42	600.24
533.78	607.60
534.14	615.20
534.50	622.45
534.86	630.14
535.21	637.50
535.57	645.32
535.93	652.81
536.29	660.49
536.65	668.12
537.00	675.68
537.36	683.70
537.72	691.43
538.08	698.90
538.44	706.48
538.79	714.12
539.15	721.92
539.51	729.91
539.87	737.92
540.22	745.81
540.58	753.66
540.94	761.44
541.29	769.11
541.65	776.90
542.01	785.00
542.37	792.71
542.72	800.32
543.08	807.95
543.44	816.08
543.79	823.47
544.15	831.13
544.51	838.96
544.87	846.62
545.22	854.42
545.58	862.13
545.94	869.70
546.29	877.17
546.65	884.55
547.01	891.77
547.36	899.15
547.72	906.67
548.07	913.77
548.43	921.05
548.79	928.30
549.14	935.30
549.50	942.17
549.86	949.02
550.21	956.00
550.57	963.15
550.92	970.04
551.28	976.74
551.64	983.52
551.99	990.62
552.35	997.08
552.70	1003.74
553.06	1010.50
553.41	1016.77
553.77	1023.36
554.13	1030.00
554.48	1036.48
554.84	1042.62
555.19	1048.37
555.55	1054.74
555.90	1060.49
556.26	1066.79
556.61	1073.03
556.97	1078.83
557.32	1084.80
557.68	1090.30
558.03	1095.89
558.39	1101.49
558.74	1107.61
559.10	1113.18
559.45	1118.31
559.81	1124.29
560.16	1129.24
560.52	1134.42
560.87	1140.00
561.23	1145.08
561.58	1150.42
561.94	1155.38
562.29	1159.96
562.64	1164.80
563.00	1169.20
563.35	1174.47
563.71	1179.02
564.06	1183.84
564.42	1188.68
564.77	1192.96
565.12	1198.13
565.48	1202.67
565.83	1206.67
566.19	1210.72
566.54	1214.58
566.89	1218.52
567.25	1222.35
567.60	1226.45
567.96	1230.14
568.31	1234.06
568.66	1237.56
569.02	1240.72
569.37	1243.64
569.72	1246.91
570.08	1250.10
570.43	1253.35
570.78	1256.10
571.14	1258.70
571.49	1261.11
571.84	1263.68
572.20	1265.85
572.55	1267.89
572.90	1269.58
573.26	1271.65
573.61	1273.30
573.96	1275.20
574.31	1276.45
574.67	1276.84
575.02	1277.84
575.37	1279.16
575.72	1279.66
576.08	1280.89
576.43	1281.86
576.78	1283.22
577.13	1284.26
577.49	1285.26
577.84	1285.56
578.19	1285.80
578.54	1286.12
578.90	1286.26
579.25	1286.19
579.60	1286.40
579.95	1285.78
580.30	1285.89
580.66	1285.60
581.01	1285.23
581.36	1285.08
581.71	1285.11
582.06	1285.20
582.42	1284.93
582.77	1284.17
583.12	1283.66
583.47	1282.81
583.82	1282.22
584.17	1280.88
584.53	1280.21
584.88	1279.23
585.23	1278.65
585.58	1277.65
585.93	1276.69
586.28	1275.70
586.63	1275.19
586.98	1274.13
587.34	1273.37
587.69	1272.04
588.04	1271.13
588.39	1270.12
588.74	1268.29
589.09	1266.51
589.44	1264.83
589.79	1263.23
590.14	1262.20
590.49	1260.54
590.84	1258.95
591.19	1257.32
591.54	1255.65
591.89	1253.22
592.25	1251.20
592.60	1248.35
592.95	1246.09
593.30	1243.59
593.65	1241.14
594.00	1238.09
594.35	1236.21
594.70	1233.30
595.05	1230.84
595.40	1228.04
595.75	1225.23
596.10	1223.06
596.45	1220.86
596.80	1218.88
597.15	1216.79
597.50	1213.73
597.85	1211.53
598.19	1209.12
598.54	1206.49
598.89	1203.83
599.24	1201.67
599.59	1199.24
599.94	1196.79
600.29	1193.94
600.64	1191.21
600.99	1188.09
601.34	1185.41
601.69	1182.10
602.04	1179.63
602.39	1176.73
602.74	1174.42
603.08	1172.30
603.43	1169.66
603.78	1166.72
604.13	1163.67
604.48	1160.22
604.83	1157.53
605.18	1154.30
605.53	1150.53
605.87	1146.81
606.22	1143.89
606.57	1140.37
606.92	1137.10
607.27	1134.42
607.62	1131.72
607.96	1128.75
608.31	1125.96
608.66	1122.42
609.01	1118.66
609.36	1114.66
609.70	1110.62
610.05	1106.17
610.40	1102.02
610.75	1097.83
611.10	1093.67
611.44	1089.17
611.79	1085.35
612.14	1080.87
612.49	1076.27
612.83	1072.21
613.18	1068.17
613.53	1063.74
613.88	1059.29
614.22	1055.15
614.57	1050.52
614.92	1045.98
615.27	1041.80
615.61	1037.30
615.96	1033.26
616.31	1029.50
616.65	1026.22
617.00	1022.56
617.35	1018.79
617.70	1014.23
618.04	1009.88
618.39	1006.12
618.74	1002.16
619.08	997.84
619.43	993.75
619.78	989.94
620.12	986.07
620.47	981.91
620.82	977.57
621.16	973.51
621.51	969.14
621.85	964.93
622.20	960.52
622.55	956.34
622.89	952.30
623.24	948.55
623.59	944.69
623.93	940.61
624.28	936.84
624.62	932.81
624.97	929.52
625.32	925.90
625.66	921.67
626.01	917.73
626.35	913.58
626.70	909.75
627.04	905.92
627.39	901.71
627.73	897.60
628.08	893.98
628.43	890.18
628.77	886.26
629.12	882.20
629.46	878.42
629.81	874.21
630.15	870.09
630.50	865.59
630.84	860.76
631.19	855.96
631.53	851.25
631.88	846.74
632.22	841.88
632.57	837.40
632.91	833.06
633.26	828.90
633.60	824.71
633.95	820.45
634.29	816.58
634.64	812.70
634.98	808.75
635.32	804.98
635.67	801.10
636.01	797.11
636.36	793.23
636.70	789.35
637.05	785.64
637.39	781.87
637.73	778.05
638.08	774.84
638.42	771.49
638.77	767.98
639.11	764.09
639.45	760.47
639.80	756.52
640.14	752.86
640.49	749.06
640.83	745.38
641.17	741.71
641.52	737.76
641.86	733.99
642.20	730.51
642.55	726.57
642.89	722.84
643.23	719.10
643.58	715.85
643.92	711.93
644.26	708.00
644.61	704.53
644.95	701.04
645.29	697.00
645.64	693.20
645.98	689.66
646.32	686.18
646.66	682.44
647.01	679.16
647.35	675.79
647.69	672.39
648.04	668.98
648.38	665.38
648.72	661.53
649.06	657.83
649.41	654.14
649.75	650.28
650.09	646.60
650.43	643.11
650.78	638.98
651.12	635.38
651.46	632.16
651.80	628.39
652.14	624.84
652.49	621.49
652.83	618.12
653.17	614.35
653.51	611.00
653.85	607.75
654.20	604.04
654.54	600.35
654.88	596.76
655.22	593.16
655.56	589.50
655.90	586.07
656.25	582.59
656.59	579.08
656.93	575.96
657.27	572.76
657.61	569.11
657.95	566.18
658.29	563.04
658.64	559.73
658.98	556.48
659.32	553.13
659.66	549.88
660.00	546.50
660.34	543.43
660.68	540.21
661.02	536.96
661.36	534.04
661.70	531.18
662.05	528.32
662.39	525.61
662.73	523.00
663.07	520.34
663.41	517.67
663.75	514.97
664.09	512.26
664.43	509.38
664.77	506.85
665.11	504.13
665.45	501.64
665.79	498.80
666.13	496.12
666.47	493.70
666.81	491.14
667.15	488.45
667.49	485.88
667.83	483.55
668.17	480.95
668.51	478.50
668.85	475.94
669.19	473.48
669.53	470.94
669.87	468.30
670.21	465.99
670.55	463.64
670.89	461.39
671.23	459.18
671.57	457.08
671.91	454.80
672.25	452.60
672.58	450.30
672.92	448.17
673.26	446.19
673.60	443.97
673.94	441.82
674.28	440.01
674.62	438.19
674.96	436.02
675.30	434.39
675.64	432.32
675.97	430.44
676.31	428.54
676.65	426.63
676.99	424.89
677.33	422.87
677.67	421.09
678.01	419.17
678.34	417.07
678.68	415.22
679.02	413.40
679.36	411.64
679.70	410.06
680.04	408.46
680.37	406.60
680.71	404.92
681.05	403.27
681.39	401.53
681.73	399.88
682.06	398.29
682.40	396.55
682.74	395.08
683.08	393.37
683.42	391.61
683.75	390.14
684.09	388.42
684.43	386.87
684.77	385.11
685.10	383.48
685.44	382.12
685.78	380.64
686.12	379.04
686.45	377.28
686.79	375.58
687.13	373.91
687.46	372.37
687.80	370.78
688.14	369.19
688.48	367.71
688.81	366.01
689.15	364.66
689.49	363.15
689.82	361.72
690.16	360.34
690.50	358.98
690.83	357.56
691.17	356.11
691.51	354.62
691.84	353.40
692.18	352.25
692.52	350.78
692.85	349.41
693.19	348.30
693.52	347.07
693.86	345.72
694.20	344.47
694.53	343.35
694.87	341.94
695.21	340.56
695.54	339.15
695.88	337.91
696.21	336.48
696.55	335.24
696.88	333.97
697.22	332.66
697.56	331.60
697.89	330.38
698.23	329.29
698.56	328.10
698.90	326.76
699.23	325.41
699.57	324.26
699.90	322.93
700.24	321.55
700.58	320.41
700.91	319.30
701.25	318.30
701.58	317.22
701.92	316.28
702.25	315.36
702.59	314.42
702.92	313.47
703.26	312.57
703.59	311.51
703.93	310.70
704.26	309.75
704.60	308.69
704.93	307.64
705.26	306.65
705.60	305.83
705.93	305.13
706.27	304.45
706.60	303.58
706.94	302.88
707.27	301.96
707.61	301.11
707.94	300.32
708.27	299.43
708.61	298.52
708.94	297.65
709.28	296.80
709.61	296.04
709.94	295.24
710.28	294.36
710.61	293.73
710.95	292.71
711.28	292.13
711.61	291.43
711.95	290.80
712.28	290.30
712.61	289.53
712.95	288.78
713.28	288.01
713.61	287.35
713.95	286.57
714.28	285.99
714.61	285.38
714.95	284.69
715.28	283.96
715.61	283.45
715.95	283.00
716.28	282.41
716.61	281.87
716.95	281.30
717.28	280.86
717.61	280.18
717.94	279.72
718.28	279.02
718.61	278.45
718.94	277.93
719.27	277.30
719.61	276.88
719.94	276.39
720.27	275.78
720.60	275.17
720.94	274.77
721.27	274.50
721.60	274.08
721.93	273.61
722.27	273.19
722.60	272.60
722.93	272.07
723.26	271.74
723.59	271.30
723.93	270.92
724.26	270.50
724.59	270.15
724.92	269.81
725.25	269.52
725.59	269.12
725.92	268.70
726.25	268.30
726.58	267.87
726.91	267.55
727.24	267.21
727.57	266.75
727.91	266.18
728.24	265.68
728.57	265.23
728.90	264.91
729.23	264.54
729.56	264.32
729.89	263.90
730.22	263.44
730.55	263.05
730.89	262.68
731.22	262.22
731.55	261.73
731.88	261.34
732.21	260.96
732.54	260.61
732.87	260.23
733.20	259.96
733.53	259.58
733.86	259.17
734.19	258.76
734.52	258.52
734.85	258.50
735.18	258.24
735.51	257.96
735.84	257.60
736.17	257.36
736.50	256.91
736.83	256.76
737.16	256.39
737.49	256.08
737.82	255.74
738.15	255.52
738.48	255.29
738.81	254.87
739.14	254.59
739.47	254.19
739.80	253.82
740.13	253.47
740.46	253.14
740.79	252.73
741.12	252.50
741.45	252.17
741.78	251.67
742.11	251.24
742.44	250.91
742.77	250.67
743.10	250.39
743.43	250.09
743.75	249.63
744.08	249.72
744.41	249.38
744.74	249.01
745.07	248.66
745.40	248.42
745.73	248.33
746.06	247.99
746.39	247.88
746.71	247.70
747.04	247.40
747.37	247.15
747.70	247.00
748.03	246.77
748.36	246.67
748.68	246.43
749.01	246.16
749.34	245.94
749.67	245.65
750.00	245.33
750.33	245.27
750.65	245.16
750.98	244.66
751.31	244.55
751.64	244.38
751.97	244.30
752.29	244.12
752.62	243.86
752.95	243.61
753.28	243.39
753.60	243.22
753.93	243.07
754.26	242.99
754.59	242.78
754.91	242.62
755.24	242.44
755.57	242.39
755.90	242.34
756.22	242.14
756.55	242.03
756.88	242.00
757.20	241.76
757.53	241.54
757.86	241.41
758.19	241.30
758.51	241.32
758.84	241.18
759.17	241.10
759.49	240.94
759.82	241.08
760.15	240.99
760.47	240.85
760.80	240.71
761.13	240.61
761.45	240.60
761.78	240.50
762.11	240.47
762.43	240.36
762.76	240.29
763.08	240.20
763.41	240.08
763.74	240.04
764.06	239.93
764.39	239.90
764.71	239.90
765.04	239.82
765.37	239.71
765.69	239.60
766.02	239.53
766.34	239.55
766.67	239.43
767.00	239.35
767.32	239.42
767.65	239.48
767.97	239.40
768.30	239.29
768.62	239.15
768.95	238.98
769.27	238.93
769.60	238.83
769.92	238.78
770.25	238.69
770.57	238.45
770.90	238.42
771.22	238.37
771.55	238.17
771.87	238.02
772.20	237.96
772.52	238.00
772.85	238.14
773.17	237.96
773.50	237.74
773.82	237.63
774.15	237.41
774.47	237.13
774.80	237.05
775.12	236.90
775.45	236.86
775.77	236.82
776.09	236.67
776.42	236.60
776.74	236.56
777.07	236.49
777.39	236.40
777.72	236.30
778.04	236.20
778.36	236.19
778.69	236.15
779.01	236.00
779.33	235.72
779.66	235.23
779.98	235.22
780.31	235.17
780.63	235.05
780.95	235.00
781.28	234.95
781.60	234.71
781.92	234.65
782.25	234.48
782.57	234.35
782.89	234.22
783.22	234.09
783.54	233.92
783.86	233.83
784.19	233.66
784.51	233.52
784.83	233.40
785.16	233.37
785.48	233.23
785.80	233.13
786.12	233.08
786.45	233.17
786.77	233.02
787.09	232.87
787.42	232.80
787.74	232.58
788.06	232.54
788.38	232.49
788.71	232.36
789.03	232.42
789.35	232.38
789.67	232.28
789.99	232.22
790.32	232.11
790.64	232.07
790.96	232.16
791.28	232.06
791.61	231.95
791.93	231.75
792.25	231.56
792.57	231.60
792.89	231.53
793.21	231.43
793.54	231.29
793.86	231.23
794.18	231.23
794.50	231.23
794.82	231.11
795.14	231.17
795.47	231.19
795.79	231.00
796.11	230.96
796.43	230.93
796.75	230.90
797.07	230.92
797.39	230.97
797.71	230.86
798.04	230.91
798.36	230.91
798.68	230.95
799.00	231.07
799.32	231.00
799.64	230.93
799.96	230.93
800.28	230.99
800.60	231.00
800.92	231.13
801.24	231.12
801.56	231.18
801.89	231.10
802.21	231.15
802.53	231.15
802.85	231.11
803.17	231.23
803.49	231.08
803.81	231.16
804.13	231.10
804.45	231.15
804.77	231.14
805.09	231.26
805.41	231.36
805.73	231.31
806.05	231.30
806.37	231.39
806.69	231.36
807.01	231.42
807.33	231.49
807.65	231.28
807.97	231.46
808.28	231.43
808.60	231.48
808.92	231.46
809.24	231.73
809.56	231.70
809.88	231.60
810.20	231.75
810.52	231.71
810.84	231.72
811.16	231.68
811.48	231.75
811.80	231.73
812.12	231.67
812.43	231.70
812.75	231.64
813.07	231.67
813.39	231.69
813.71	231.60
814.03	231.46
814.35	231.43
814.67	231.30
814.98	231.30
815.30	231.30
815.62	231.24
815.94	230.98
816.26	231.12
816.58	231.13
816.89	231.06
817.21	231.00
817.53	230.87
817.85	230.89
818.17	230.79
818.48	230.61
818.80	230.51
819.12	230.45
819.44	230.38
819.76	230.20
820.07	230.09
820.39	229.98
820.71	230.01
821.03	229.98
821.34	229.83
821.66	229.79
821.98	229.69
822.30	229.60
822.61	229.65
822.93	229.43
823.25	229.37
823.57	229.25
823.88	229.22
824.20	229.18
824.52	229.02
824.83	228.91
825.15	228.85
825.47	228.83
825.79	228.84
826.10	228.84
826.42	228.93
826.74	228.93
827.05	228.83
827.37	228.84
827.69	228.73
828.00	228.75
828.32	228.80
828.64	228.74
828.95	228.81
829.27	228.75
829.58	228.73
829.90	228.65
830.22	228.62
830.53	228.43
830.85	228.45
831.17	228.48
831.48	228.53
831.80	228.47
832.11	228.40
832.43	228.33
832.75	228.27
833.06	228.23
833.38	228.14
833.69	228.22
834.01	228.25
834.32	228.26
834.64	228.30
834.96	228.20
835.27	228.25
835.59	228.13
835.90	228.12
836.22	228.20
836.53	228.21
836.85	228.30
837.16	228.60
837.48	228.61
837.79	228.67
838.11	228.67
838.42	228.77
838.74	228.86
839.05	228.89
839.37	228.97
839.68	228.80
840.00	228.83
840.31	228.92
840.63	228.84
840.94	228.93
841.26	228.92
841.57	228.96
841.88	228.96
842.20	229.01
842.51	229.15
842.83	229.17
843.14	229.41
843.46	229.47
843.77	229.36
844.08	229.48
844.40	229.53
844.71	229.50
845.03	229.43
845.34	229.40
845.65	229.51
845.97	229.48
846.28	229.69
846.60	229.74
846.91	229.64
847.22	229.71
847.54	229.83
847.85	229.80
848.16	229.85
848.48	229.90
848.79	229.96
849.10	229.85
849.42	229.85
849.73	229.69
850.04	229.67
850.36	229.53
850.67	229.49
850.98	229.43
851.30	229.42
851.61	229.43
851.92	229.42
852.23	229.41
852.55	229.42
852.86	229.42
853.17	229.40
853.49	229.52
853.80	229.53
854.11	229.48
854.42	229.54
854.74	229.53
855.05	229.50
855.36	229.46
855.67	229.44
855.99	229.40
856.30	229.61
856.61	229.60
856.92	229.71
857.23	229.73
857.55	229.65
857.86	229.71
858.17	229.86
858.48	229.87
858.79	229.71
859.11	229.67
859.42	229.59
859.73	229.62
860.04	229.54
860.35	229.42
860.66	229.28
860.98	229.17
861.29	229.07
861.60	229.08
861.91	229.12
862.22	229.09
862.53	229.03
862.84	228.68
863.16	228.67
863.47	228.59
863.78	228.52
864.09	228.51
864.40	228.41
864.71	228.38
865.02	228.36
865.33	228.34
865.64	228.37
865.95	228.33
866.27	228.44
866.58	228.41
866.89	228.48
867.20	228.53
867.51	228.57
867.82	228.62
868.13	228.57
868.44	228.43
868.75	228.40
869.06	228.37
869.37	228.49
869.68	228.48
869.99	228.46
870.30	228.39
870.61	228.42
870.92	228.33
871.23	228.27
871.54	228.25
871.85	228.37
872.16	228.31
872.47	228.29
872.78	228.17
873.09	228.17
873.40	228.12
873.71	228.12
874.02	228.13
874.33	228.00
874.64	227.96
874.95	227.92
875.26	227.90
875.56	227.99
875.87	227.94
876.18	227.89
876.49	228.17
876.80	228.14
877.11	228.03
877.42	228.09
877.73	228.09
878.04	228.08
878.35	228.05
878.66	228.04
878.96	228.08
879.27	228.09
879.58	228.08
879.89	228.06
880.20	228.12
880.51	228.11
880.82	228.20
881.12	228.19
881.43	228.27
881.74	228.30
882.05	228.29
882.36	228.28
882.67	228.30
882.97	228.07
883.28	228.13
883.59	228.17
883.90	228.12
884.21	228.13
884.51	228.16
884.82	228.16
885.13	228.31
885.44	228.30
885.74	228.17
886.05	228.25
886.36	228.28
886.67	228.22
886.98	228.38
887.28	228.40
887.59	228.49
887.90	228.42
888.20	228.47
888.51	228.52
888.82	228.40
889.13	228.44
889.43	228.62
889.74	228.65
890.05	228.70
890.35	228.72
890.66	228.75
890.97	228.75
891.28	228.69
891.58	228.66
891.89	228.73
892.20	228.84
892.50	228.83
892.81	228.81
893.12	228.80
893.42	228.71
893.73	228.71
894.04	228.63
894.34	228.65
894.65	228.62
894.95	228.56
895.26	228.67
895.57	228.78
895.87	228.66
896.18	228.67
896.48	228.66
896.79	228.69
897.10	228.74
897.40	228.71
897.71	228.75
898.01	228.68
898.32	228.69
898.63	228.71
898.93	228.75
899.24	228.66
899.54	228.59
899.85	228.60
900.15	228.58
900.46	228.60
900.76	228.71
901.07	228.60
901.38	228.62
901.68	228.61
901.99	228.48
902.29	228.51
902.60	228.53
902.90	228.52
903.21	228.55
903.51	228.46
903.82	228.48
904.12	228.48
904.43	228.49
904.73	228.42
905.03	228.38
905.34	228.47
905.64	228.53
905.95	228.61
906.25	228.53
906.56	228.51
906.86	228.63
907.17	228.47
907.47	228.56
907.77	228.49
908.08	228.43
908.38	228.49
908.69	228.41
908.99	228.31
909.30	228.29
909.60	228.33
909.90	228.31
910.21	228.20
910.51	228.17
910.81	228.20
911.12	228.19
911.42	228.12
911.73	227.90
912.03	227.95
912.33	228.00
912.64	227.97
912.94	227.98
913.24	227.84
913.55	227.90
913.85	227.87
914.15	227.96
914.46	227.99
914.76	227.90
915.06	227.87
915.37	228.00
915.67	227.98
915.97	227.97
916.27	227.99
916.58	228.06
916.88	228.05
917.18	228.08
917.49	228.14
917.79	228.18
918.09	228.26
918.39	228.34
918.70	228.28
919.00	228.33
919.30	228.46
919.60	228.50
919.91	228.50
920.21	228.57
920.51	228.50
920.81	228.51
921.12	228.59
921.42	228.70
921.72	228.63
922.02	228.66
922.32	228.73
922.63	228.78
922.93	228.96
923.23	229.05
923.53	228.96
923.83	228.92
924.13	229.10
924.44	229.13
924.74	229.05
925.04	229.04
925.34	229.12
925.64	228.99
925.94	228.95
926.24	229.12
926.55	229.13
926.85	229.16
927.15	229.17
927.45	229.19
927.75	229.14
928.05	229.10
928.35	229.10
928.65	229.04
928.95	229.01
929.26	228.94
929.56	228.96
929.86	228.91
930.16	228.83
930.46	228.71
930.76	228.67
931.06	228.65
931.36	228.66
931.66	228.65
931.96	228.71
932.26	228.83
932.56	228.74
932.86	228.66
933.16	228.70
933.46	228.78
933.76	228.73
934.06	228.70
934.36	228.71
934.66	228.84
934.96	228.86
935.26	228.86
935.56	228.79
935.86	228.66
936.16	228.68
936.46	228.75
936.76	228.76
937.06	228.73
937.36	228.73
937.66	228.70
937.96	228.70
938.26	228.60
938.56	228.48
938.86	228.54
939.16	228.66
939.46	228.73
939.76	228.69
940.06	228.68
940.35	228.63
940.65	228.62
940.95	228.50
941.25	228.45
941.55	228.43
941.85	228.48
942.15	228.56
942.45	228.55
942.75	228.62
943.04	228.51
943.34	228.53
943.64	228.55
943.94	228.62
944.24	228.53
944.54	228.56
944.84	228.55
945.13	228.47
945.43	228.38
945.73	228.32
946.03	228.31
946.33	228.33
946.62	228.32
946.92	228.30
947.22	228.32
947.52	228.29
947.82	228.31
948.11	228.34
948.41	228.26
948.71	228.23
949.01	228.10
949.31	227.98
949.60	228.02
949.90	228.07
950.20	227.87
950.50	227.93
950.79	228.00
951.09	228.03
951.39	227.98
951.69	227.94
951.98	227.92
952.28	227.84
952.58	227.68
952.87	227.74
953.17	227.78
953.47	227.68
953.76	227.76
954.06	227.72
954.36	227.63
954.66	227.56
954.95	227.66
955.25	227.62
955.55	227.79
955.84	227.58
956.14	227.61
956.44	227.79
956.73	227.71
957.03	227.67
957.32	227.67
957.62	227.71
957.92	227.79
958.21	227.79
958.51	228.00
958.81	228.14
959.10	228.09
959.40	228.10
959.69	228.29
959.99	228.27
960.29	228.34
960.58	228.33
960.88	228.40
961.17	228.45
961.47	228.58
961.76	228.60
962.06	228.70
962.36	228.61
962.65	228.63
962.95	228.65
963.24	228.64
963.54	228.78
963.83	228.75
964.13	228.70
964.42	228.57
964.72	228.45
965.01	228.43
965.31	228.43
965.60	228.34
965.90	228.38
966.19	228.33
966.49	228.27
966.78	228.23
967.08	228.39
967.37	228.28
967.67	228.26
967.96	228.27
968.26	228.34
968.55	228.35
968.85	228.25
969.14	228.24
969.43	228.22
969.73	228.09
970.02	228.03
970.32	228.05
970.61	228.10
970.91	228.17
971.20	228.10
971.49	228.11
971.79	228.20
972.08	228.04
972.38	228.18
972.67	228.18
972.96	228.21
973.26	228.15
973.55	228.20
973.85	228.18
974.14	228.18
974.43	228.25
974.73	228.13
975.02	228.17
975.31	228.21
975.61	228.19
975.90	228.17
976.19	228.11
976.49	228.08
976.78	228.17
977.07	228.07
977.37	228.17
977.66	228.21
977.95	228.04
978.24	228.15
978.54	228.12
978.83	228.19
979.12	228.18
979.42	228.20
979.71	228.22
980.00	228.16
980.29	228.12
980.59	228.06
980.88	228.19
981.17	228.18
981.46	228.20
981.76	228.19
982.05	228.28
982.34	228.40
982.63	228.36
982.93	228.34
983.22	228.45
983.51	228.45
983.80	228.40
984.09	228.66
984.39	228.44
984.68	228.40
984.97	228.37
985.26	228.40
985.55	228.35
985.85	228.25
986.14	228.42
986.43	228.50
986.72	228.42
987.01	228.37
987.30	228.36
987.59	228.37
987.89	228.39
988.18	228.33
988.47	228.27
988.76	228.35
989.05	228.27
989.34	228.20
989.63	228.28
989.92	228.30
990.22	228.26
990.51	228.44
990.80	228.38
991.09	228.37
991.38	228.40
991.67	228.36
991.96	228.32
992.25	228.20
992.54	228.08
992.83	228.10
993.12	228.10
993.41	228.16
993.70	228.16
993.99	228.26
994.28	228.30
994.58	228.48
994.87	228.41
995.16	228.48
995.45	228.46
995.74	228.35
996.03	228.30
996.32	228.25
996.61	228.25
996.90	228.22
997.19	228.16
997.48	228.04
997.77	227.95
998.06	228.09
998.34	228.15
998.63	228.25
998.92	228.31
999.21	228.42
999.50	228.46
999.79	228.47
1000.08	228.40
1000.37	228.34
1000.66	228.17
1000.95	228.16
1001.24	228.10
1001.53	228.13
1001.82	228.24
1002.11	228.25
1002.40	228.32
1002.68	228.30
1002.97	228.48
1003.26	228.52
1003.55	228.56
1003.84	228.70
1004.13	228.81
1004.42	228.79
1004.71	228.81
1004.99	228.81
1005.28	228.89
1005.57	228.92
1005.86	228.93
1006.15	228.95
1006.44	228.94
1006.72	229.05
1007.01	229.08
1007.30	229.23
1007.59	229.17
1007.88	229.12
1008.17	229.20
1008.45	229.16
1008.74	229.15
1009.03	229.11
1009.32	229.12
1009.60	229.07
1009.89	229.07
1010.18	228.97
1010.47	228.95
1010.76	228.93
1011.04	228.88
1011.33	228.87
1011.62	228.79
1011.91	228.76
1012.19	228.78
1012.48	228.85
1012.77	228.97
1013.05	229.10
1013.34	228.96
1013.63	229.05
1013.92	229.06
1014.20	229.09
1014.49	229.06
1014.78	229.08
1015.06	229.00
1015.35	229.05
1015.64	229.20
1015.92	229.30
1016.21	229.21
1016.50	229.25
1016.78	229.29
1017.07	229.21
1017.36	229.15
1017.64	229.20
1017.93	229.30
1018.22	229.31
1018.50	229.26
1018.79	229.07
1019.08	228.93
1019.36	228.93
1019.65	228.90
1019.93	228.98
1020.22	228.98
1020.51	229.08
1020.79	228.97
1021.08	229.30
1021.36	228.00
1021.65	227.50
1021.94	227.70
1022.22	227.20
1022.51	229.30
1022.79	230.50
1023.08	229.80
1023.36	230.80
1023.65	226.20
>>>>>End Processed Spectral Data<<<<<
