SpectraSuite Data File
++++++++++++++++++++++++++++++++++++
Date: Fri Feb 01 14:37:18 EST 2013
User: group
Dark Spectrum Present: No
Reference Spectrum Present: No
Number of Sampled Component Spectra: 1
Spectrometers: USB2E7196
Integration Time (usec): 70000 (USB2E7196)
Spectra Averaged: 10 (USB2E7196)
Boxcar Smoothing: 10 (USB2E7196)
Correct for Electrical Dark: No (USB2E7196)
Strobe/Lamp Enabled: No (USB2E7196)
Correct for Detector Non-linearity: No (USB2E7196)
Correct for Stray Light: No (USB2E7196)
Number of Pixels in Processed Spectrum: 2048
>>>>>Begin Processed Spectral Data<<<<<
339.09	0.00
339.48	216.50
339.86	217.40
340.24	218.60
340.63	221.90
341.01	224.20
341.39	225.00
341.78	224.70
342.16	225.90
342.54	228.70
342.93	215.12
343.31	226.03
343.69	226.53
344.07	227.04
344.46	227.42
344.84	227.74
345.22	227.89
345.60	228.03
345.99	228.20
346.37	228.32
346.75	228.26
347.13	228.31
347.52	228.38
347.90	228.40
348.28	228.35
348.66	228.20
349.05	228.19
349.43	228.13
349.81	228.12
350.19	228.19
350.57	228.22
350.96	228.28
351.34	228.29
351.72	228.43
352.10	228.50
352.48	228.63
352.87	228.70
353.25	228.78
353.63	228.84
354.01	228.83
354.39	228.92
354.77	228.95
355.15	229.06
355.54	228.99
355.92	228.96
356.30	229.10
356.68	229.33
357.06	229.37
357.44	229.38
357.82	229.47
358.20	229.43
358.58	229.48
358.97	229.50
359.35	229.64
359.73	229.76
360.11	229.82
360.49	229.82
360.87	229.88
361.25	229.89
361.63	229.98
362.01	230.06
362.39	230.10
362.77	230.15
363.15	230.10
363.53	230.16
363.91	230.21
364.29	230.21
364.67	230.04
365.05	230.05
365.43	230.16
365.81	230.13
366.19	230.27
366.57	230.38
366.95	230.32
367.33	230.20
367.71	230.13
368.09	230.09
368.47	230.11
368.85	230.00
369.23	230.04
369.61	229.99
369.99	230.00
370.37	229.90
370.75	230.02
371.13	230.00
371.51	229.94
371.89	229.89
372.27	229.83
372.65	229.75
373.03	229.74
373.41	229.65
373.78	229.59
374.16	229.52
374.54	229.46
374.92	229.44
375.30	229.37
375.68	229.21
376.06	229.12
376.44	229.06
376.82	229.04
377.19	228.96
377.57	228.74
377.95	228.62
378.33	228.51
378.71	228.24
379.09	228.18
379.47	228.20
379.84	228.16
380.22	228.02
380.60	227.87
380.98	227.74
381.36	227.69
381.73	227.68
382.11	227.50
382.49	227.36
382.87	227.26
383.25	227.17
383.62	227.34
384.00	227.34
384.38	227.20
384.76	227.18
385.13	227.13
385.51	227.20
385.89	227.07
386.27	227.06
386.64	227.09
387.02	226.92
387.40	226.81
387.78	226.80
388.15	226.78
388.53	226.86
388.91	226.81
389.29	226.73
389.66	226.61
390.04	226.62
390.42	226.57
390.79	226.53
391.17	226.51
391.55	226.31
391.92	226.15
392.30	226.22
392.68	226.11
393.05	226.15
393.43	226.15
393.81	226.22
394.18	226.20
394.56	226.12
394.94	226.29
395.31	226.32
395.69	226.41
396.06	226.47
396.44	226.59
396.82	226.62
397.19	226.73
397.57	226.82
397.95	226.90
398.32	226.93
398.70	227.05
399.07	227.18
399.45	227.26
399.82	227.51
400.20	227.52
400.58	227.71
400.95	227.75
401.33	227.89
401.70	228.16
402.08	228.38
402.45	228.61
402.83	228.80
403.20	228.96
403.58	229.11
403.95	229.35
404.33	229.48
404.71	229.75
405.08	230.11
405.46	230.37
405.83	230.68
406.21	230.86
406.58	231.11
406.96	231.29
407.33	231.60
407.70	231.81
408.08	232.31
408.45	232.58
408.83	233.06
409.20	233.39
409.58	233.59
409.95	233.92
410.33	234.34
410.70	234.61
411.08	235.10
411.45	235.53
411.82	235.98
412.20	236.58
412.57	237.24
412.95	237.73
413.32	238.40
413.69	238.90
414.07	239.69
414.44	240.47
414.82	241.24
415.19	242.09
415.56	242.93
415.94	243.88
416.31	244.92
416.68	245.86
417.06	246.91
417.43	247.99
417.81	249.26
418.18	250.66
418.55	252.12
418.93	253.56
419.30	255.20
419.67	256.79
420.04	258.40
420.42	259.90
420.79	261.88
421.16	263.88
421.54	265.95
421.91	268.07
422.28	270.23
422.66	272.70
423.03	275.06
423.40	277.50
423.77	279.93
424.15	282.52
424.52	285.16
424.89	288.14
425.26	291.05
425.64	293.74
426.01	296.64
426.38	299.80
426.75	302.89
427.13	305.98
427.50	309.39
427.87	312.82
428.24	316.43
428.61	319.70
428.99	323.38
429.36	327.41
429.73	331.41
430.10	335.28
430.47	339.22
430.85	343.22
431.22	347.49
431.59	352.09
431.96	356.37
432.33	361.25
432.70	366.01
433.08	371.53
433.45	376.79
433.82	381.86
434.19	387.56
434.56	393.32
434.93	398.69
435.30	404.06
435.68	409.98
436.05	415.69
436.42	421.33
436.79	426.51
437.16	432.06
437.53	437.71
437.90	443.40
438.27	449.16
438.64	455.15
439.01	460.56
439.38	465.50
439.75	470.31
440.13	475.60
440.50	480.67
440.87	485.01
441.24	489.40
441.61	494.41
441.98	498.07
442.35	502.18
442.72	506.42
443.09	510.63
443.46	513.30
443.83	515.13
444.20	516.88
444.57	519.38
444.94	520.89
445.31	522.42
445.68	524.02
446.05	525.04
446.42	524.90
446.79	524.96
447.16	524.79
447.53	525.05
447.90	523.60
448.27	522.16
448.64	519.63
449.01	518.12
449.37	514.71
449.74	511.46
450.11	507.52
450.48	503.32
450.85	498.86
451.22	495.16
451.59	491.80
451.96	488.38
452.33	483.46
452.70	479.11
453.07	474.06
453.43	468.66
453.80	463.35
454.17	458.48
454.54	453.76
454.91	448.69
455.28	443.40
455.65	438.72
456.02	433.97
456.38	429.89
456.75	424.59
457.12	420.33
457.49	416.03
457.86	411.85
458.23	408.10
458.59	404.12
458.96	399.98
459.33	396.37
459.70	392.84
460.07	390.00
460.43	386.62
460.80	383.19
461.17	380.44
461.54	377.49
461.91	374.65
462.27	371.77
462.64	369.20
463.01	366.46
463.38	363.72
463.74	360.95
464.11	358.53
464.48	356.60
464.85	354.31
465.21	352.56
465.58	350.77
465.95	348.55
466.32	346.60
466.68	344.60
467.05	342.50
467.42	340.60
467.78	338.68
468.15	336.73
468.52	335.33
468.88	333.50
469.25	331.88
469.62	330.46
469.98	329.00
470.35	327.60
470.72	326.45
471.08	325.20
471.45	323.90
471.82	322.71
472.18	321.25
472.55	320.19
472.92	318.95
473.28	317.80
473.65	316.80
474.02	315.67
474.38	314.77
474.75	314.05
475.11	313.11
475.48	312.26
475.85	311.60
476.21	311.03
476.58	310.43
476.94	309.77
477.31	309.19
477.67	308.51
478.04	308.11
478.41	307.59
478.77	307.12
479.14	306.69
479.50	306.18
479.87	305.80
480.23	305.58
480.60	305.20
480.96	304.88
481.33	304.66
481.69	304.66
482.06	304.55
482.42	304.31
482.79	304.16
483.15	304.04
483.52	304.14
483.88	304.07
484.25	303.90
484.61	304.06
484.98	304.07
485.34	304.35
485.71	304.34
486.07	304.47
486.44	304.64
486.80	304.91
487.17	305.30
487.53	305.73
487.90	306.18
488.26	306.80
488.62	307.28
488.99	307.70
489.35	308.02
489.72	308.53
490.08	309.29
490.44	310.00
490.81	310.71
491.17	311.28
491.54	311.87
491.90	312.69
492.26	313.44
492.63	314.31
492.99	315.01
493.36	315.80
493.72	316.71
494.08	317.59
494.45	318.44
494.81	319.47
495.17	320.29
495.54	321.06
495.90	321.81
496.26	322.69
496.63	323.68
496.99	324.76
497.35	325.71
497.72	326.56
498.08	327.41
498.44	328.36
498.80	329.31
499.17	330.28
499.53	331.14
499.89	331.95
500.26	332.77
500.62	333.52
500.98	334.45
501.34	335.18
501.71	335.89
502.07	336.65
502.43	337.24
502.79	337.99
503.16	338.62
503.52	339.23
503.88	339.77
504.24	340.26
504.60	340.73
504.97	341.36
505.33	341.87
505.69	342.42
506.05	342.84
506.41	343.20
506.78	343.56
507.14	343.85
507.50	344.29
507.86	344.56
508.22	344.94
508.59	345.14
508.95	345.49
509.31	345.92
509.67	346.28
510.03	346.48
510.39	346.65
510.75	346.84
511.12	347.10
511.48	347.35
511.84	347.59
512.20	347.69
512.56	347.74
512.92	347.77
513.28	347.80
513.64	347.90
514.00	348.01
514.37	348.00
514.73	348.10
515.09	347.96
515.45	347.97
515.81	347.88
516.17	347.85
516.53	347.82
516.89	347.70
517.25	347.65
517.61	347.75
517.97	347.83
518.33	347.89
518.69	347.95
519.05	348.04
519.41	348.19
519.77	348.47
520.13	348.72
520.49	348.93
520.85	349.33
521.21	349.70
521.57	350.03
521.93	350.45
522.29	350.93
522.65	351.45
523.01	352.07
523.37	352.70
523.73	353.48
524.09	354.12
524.45	354.90
524.81	355.72
525.17	356.58
525.53	357.55
525.89	358.70
526.25	359.90
526.61	361.05
526.97	362.32
527.33	363.77
527.68	365.30
528.04	366.98
528.40	368.49
528.76	370.18
529.12	372.03
529.48	373.92
529.84	375.70
530.20	377.80
530.56	380.03
530.91	382.55
531.27	384.79
531.63	387.17
531.99	389.58
532.35	391.93
532.71	394.44
533.07	397.29
533.42	400.07
533.78	402.84
534.14	405.73
534.50	408.60
534.86	411.59
535.21	414.52
535.57	417.76
535.93	420.91
536.29	424.03
536.65	427.30
537.00	430.65
537.36	434.20
537.72	437.66
538.08	441.09
538.44	444.53
538.79	448.24
539.15	451.78
539.51	455.58
539.87	459.60
540.22	463.44
540.58	467.35
540.94	471.36
541.29	475.40
541.65	479.48
542.01	483.71
542.37	487.80
542.72	492.05
543.08	496.44
543.44	500.73
543.79	504.91
544.15	509.44
544.51	514.13
544.87	518.95
545.22	523.51
545.58	528.08
545.94	532.50
546.29	536.99
546.65	541.58
547.01	546.05
547.36	550.45
547.72	555.27
548.07	559.83
548.43	564.34
548.79	568.97
549.14	573.47
549.50	578.05
549.86	582.65
550.21	587.29
550.57	591.73
550.92	596.33
551.28	600.99
551.64	605.29
551.99	609.83
552.35	614.19
552.70	618.91
553.06	623.67
553.41	628.22
553.77	633.14
554.13	637.93
554.48	642.65
554.84	647.40
555.19	651.94
555.55	656.54
555.90	661.00
556.26	665.47
556.61	670.20
556.97	674.67
557.32	679.41
557.68	683.91
558.03	688.46
558.39	693.02
558.74	698.01
559.10	702.68
559.45	707.16
559.81	711.75
560.16	715.85
560.52	720.00
560.87	724.39
561.23	728.33
561.58	732.67
561.94	736.87
562.29	741.26
562.64	745.26
563.00	749.49
563.35	754.16
563.71	758.45
564.06	762.59
564.42	766.71
564.77	770.61
565.12	774.64
565.48	778.60
565.83	782.38
566.19	786.04
566.54	789.80
566.89	793.42
567.25	797.22
567.60	801.18
567.96	805.05
568.31	808.89
568.66	812.34
569.02	815.95
569.37	819.39
569.72	822.47
570.08	825.97
570.43	828.90
570.78	831.42
571.14	834.43
571.49	837.43
571.84	840.71
572.20	843.39
572.55	845.90
572.90	848.35
573.26	851.21
573.61	853.60
573.96	856.02
574.31	858.13
574.67	859.77
575.02	861.55
575.37	863.25
575.72	864.68
576.08	866.80
576.43	868.48
576.78	870.17
577.13	871.90
577.49	873.32
577.84	874.80
578.19	876.34
578.54	877.87
578.90	879.03
579.25	879.79
579.60	880.74
579.95	881.80
580.30	882.76
580.66	883.28
581.01	884.08
581.36	884.79
581.71	885.73
582.06	886.87
582.42	887.52
582.77	888.19
583.12	889.03
583.47	889.65
583.82	890.27
584.17	890.89
584.53	891.61
584.88	892.02
585.23	892.48
585.58	892.80
585.93	892.70
586.28	892.98
586.63	893.48
586.98	894.02
587.34	894.35
587.69	894.49
588.04	894.78
588.39	894.98
588.74	894.75
589.09	894.46
589.44	893.96
589.79	894.07
590.14	894.14
590.49	893.72
590.84	893.04
591.19	892.63
591.54	891.97
591.89	890.78
592.25	890.69
592.60	889.91
592.95	889.01
593.30	888.48
593.65	887.71
594.00	886.90
594.35	886.34
594.70	885.15
595.05	884.31
595.40	883.30
595.75	882.00
596.10	881.31
596.45	880.73
596.80	880.30
597.15	879.38
597.50	878.06
597.85	877.16
598.19	876.44
598.54	875.29
598.89	874.25
599.24	873.75
599.59	872.07
599.94	871.05
600.29	870.18
600.64	868.86
600.99	867.32
601.34	865.84
601.69	864.07
602.04	862.85
602.39	861.36
602.74	860.05
603.08	858.74
603.43	857.47
603.78	855.78
604.13	854.06
604.48	852.44
604.83	851.09
605.18	849.42
605.53	847.39
605.87	845.28
606.22	843.46
606.57	841.47
606.92	839.86
607.27	838.28
607.62	836.54
607.96	834.76
608.31	833.24
608.66	831.22
609.01	829.04
609.36	826.84
609.70	824.50
610.05	822.15
610.40	819.92
610.75	817.56
611.10	815.26
611.44	812.56
611.79	810.20
612.14	807.70
612.49	805.09
612.83	802.74
613.18	800.70
613.53	798.27
613.88	795.59
614.22	792.84
614.57	789.81
614.92	787.25
615.27	784.89
615.61	781.96
615.96	779.17
616.31	776.94
616.65	774.77
617.00	772.64
617.35	770.45
617.70	767.88
618.04	764.85
618.39	762.17
618.74	759.79
619.08	757.01
619.43	754.27
619.78	751.99
620.12	749.20
620.47	746.41
620.82	743.59
621.16	741.01
621.51	738.52
621.85	736.36
622.20	733.38
622.55	730.53
622.89	728.33
623.24	726.30
623.59	723.73
623.93	721.20
624.28	718.53
624.62	715.66
624.97	713.13
625.32	711.15
625.66	708.71
626.01	705.97
626.35	703.50
626.70	700.94
627.04	698.35
627.39	695.74
627.73	693.13
628.08	690.93
628.43	688.15
628.77	685.52
629.12	682.49
629.46	680.06
629.81	677.26
630.15	674.12
630.50	671.14
630.84	668.14
631.19	665.11
631.53	662.24
631.88	659.48
632.22	656.63
632.57	653.75
632.91	650.91
633.26	648.25
633.60	645.33
633.95	642.89
634.29	640.23
634.64	637.85
634.98	635.11
635.32	632.49
635.67	630.49
636.01	628.02
636.36	625.52
636.70	623.02
637.05	620.49
637.39	618.34
637.73	615.86
638.08	613.67
638.42	611.61
638.77	609.55
639.11	607.20
639.45	604.95
639.80	602.47
640.14	600.19
640.49	597.85
640.83	595.70
641.17	593.16
641.52	590.71
641.86	588.27
642.20	586.10
642.55	583.44
642.89	580.68
643.23	578.21
643.58	576.19
643.92	573.70
644.26	571.43
644.61	569.16
644.95	566.86
645.29	564.02
645.64	561.22
645.98	558.50
646.32	556.17
646.66	553.64
647.01	551.12
647.35	548.66
647.69	546.40
648.04	543.95
648.38	541.39
648.72	539.00
649.06	536.60
649.41	534.07
649.75	531.64
650.09	529.27
650.43	526.64
650.78	523.96
651.12	521.58
651.46	519.22
651.80	516.63
652.14	514.31
652.49	512.31
652.83	509.92
653.17	507.46
653.51	504.99
653.85	502.63
654.20	500.22
654.54	497.71
654.88	495.10
655.22	492.66
655.56	490.35
655.90	487.90
656.25	485.41
656.59	483.10
656.93	480.78
657.27	478.53
657.61	476.35
657.95	474.19
658.29	471.96
658.64	469.64
658.98	467.25
659.32	464.65
659.66	462.30
660.00	460.29
660.34	458.09
660.68	455.85
661.02	453.70
661.36	451.58
661.70	449.62
662.05	447.73
662.39	445.77
662.73	443.87
663.07	442.15
663.41	440.24
663.75	438.33
664.09	436.52
664.43	434.66
664.77	432.80
665.11	430.92
665.45	429.04
665.79	427.25
666.13	425.52
666.47	423.75
666.81	421.91
667.15	419.85
667.49	418.17
667.83	416.75
668.17	414.97
668.51	413.30
668.85	411.58
669.19	409.96
669.53	408.14
669.87	406.31
670.21	404.61
670.55	403.16
670.89	401.60
671.23	399.98
671.57	398.49
671.91	396.91
672.25	395.26
672.58	393.70
672.92	392.10
673.26	390.71
673.60	389.37
673.94	387.88
674.28	386.67
674.62	385.34
674.96	383.69
675.30	382.25
675.64	380.95
675.97	379.43
676.31	378.05
676.65	376.83
676.99	375.59
677.33	374.08
677.67	372.75
678.01	371.30
678.34	370.10
678.68	368.57
679.02	367.32
679.36	366.01
679.70	364.76
680.04	363.60
680.37	362.31
680.71	361.20
681.05	360.29
681.39	359.10
681.73	357.98
682.06	356.85
682.40	355.85
682.74	354.73
683.08	353.75
683.42	352.49
683.75	351.38
684.09	350.28
684.43	349.15
684.77	347.97
685.10	347.07
685.44	345.90
685.78	344.93
686.12	343.81
686.45	342.76
686.79	341.61
687.13	340.41
687.46	339.21
687.80	338.00
688.14	336.80
688.48	335.69
688.81	334.50
689.15	333.39
689.49	332.37
689.82	331.31
690.16	330.25
690.50	329.34
690.83	328.30
691.17	327.12
691.51	326.17
691.84	325.23
692.18	324.10
692.52	323.07
692.85	321.92
693.19	320.89
693.52	319.89
693.86	318.98
694.20	318.10
694.53	317.08
694.87	316.03
695.21	315.05
695.54	314.05
695.88	313.06
696.21	312.02
696.55	311.05
696.88	310.19
697.22	309.19
697.56	308.23
697.89	307.28
698.23	306.50
698.56	305.59
698.90	304.64
699.23	303.67
699.57	302.74
699.90	301.90
700.24	301.13
700.58	300.31
700.91	299.45
701.25	298.76
701.58	298.18
701.92	297.60
702.25	296.84
702.59	296.07
702.92	295.40
703.26	294.80
703.59	293.94
703.93	293.31
704.26	292.69
704.60	291.98
704.93	291.34
705.26	290.63
705.60	289.88
705.93	289.14
706.27	288.55
706.60	288.19
706.94	287.69
707.27	286.89
707.61	286.38
707.94	285.77
708.27	285.07
708.61	284.34
708.94	283.66
709.28	283.03
709.61	282.61
709.94	282.10
710.28	281.45
710.61	280.98
710.95	280.18
711.28	279.80
711.61	279.14
711.95	278.53
712.28	277.86
712.61	277.46
712.95	277.00
713.28	276.64
713.61	275.96
713.95	275.33
714.28	274.92
714.61	274.35
714.95	273.97
715.28	273.47
715.61	272.93
715.95	272.33
716.28	271.80
716.61	271.41
716.95	270.78
717.28	270.40
717.61	269.98
717.94	269.62
718.28	269.00
718.61	268.60
718.94	268.20
719.27	267.94
719.61	267.53
719.94	267.07
720.27	266.53
720.60	266.08
720.94	265.74
721.27	265.37
721.60	264.99
721.93	264.59
722.27	264.20
722.60	263.87
722.93	263.65
723.26	263.40
723.59	262.86
723.93	262.57
724.26	262.26
724.59	261.89
724.92	261.60
725.25	261.33
725.59	261.00
725.92	260.72
726.25	260.31
726.58	260.03
726.91	259.75
727.24	259.50
727.57	259.28
727.91	259.02
728.24	258.89
728.57	258.59
728.90	258.24
729.23	257.86
729.56	257.77
729.89	257.42
730.22	257.03
730.55	256.71
730.89	256.45
731.22	256.09
731.55	255.75
731.88	255.36
732.21	254.91
732.54	254.62
732.87	254.23
733.20	254.05
733.53	253.69
733.86	253.40
734.19	253.07
734.52	252.73
734.85	252.46
735.18	252.08
735.51	251.90
735.84	251.64
736.17	251.48
736.50	250.98
736.83	251.04
737.16	250.79
737.49	250.65
737.82	250.26
738.15	250.09
738.48	249.90
738.81	249.68
739.14	249.50
739.47	249.25
739.80	249.07
740.13	248.83
740.46	248.51
740.79	248.28
741.12	248.10
741.45	247.90
741.78	247.69
742.11	247.40
742.44	247.05
742.77	246.88
743.10	246.66
743.43	246.56
743.75	246.11
744.08	246.25
744.41	246.03
744.74	246.00
745.07	245.79
745.40	245.57
745.73	245.43
746.06	245.28
746.39	245.19
746.71	244.93
747.04	244.67
747.37	244.50
747.70	244.41
748.03	244.20
748.36	244.05
748.68	243.80
749.01	243.57
749.34	243.49
749.67	243.30
750.00	243.07
750.33	243.02
750.65	242.76
750.98	242.27
751.31	242.03
751.64	241.90
751.97	241.78
752.29	241.77
752.62	241.60
752.95	241.48
753.28	241.27
753.60	241.23
753.93	241.13
754.26	241.10
754.59	240.73
754.91	240.56
755.24	240.45
755.57	240.34
755.90	240.36
756.22	240.19
756.55	240.03
756.88	240.07
757.20	239.76
757.53	239.63
757.86	239.40
758.19	239.32
758.51	239.19
758.84	239.02
759.17	238.89
759.49	238.70
759.82	238.58
760.15	238.56
760.47	238.40
760.80	238.30
761.13	238.19
761.45	238.21
761.78	238.14
762.11	238.02
762.43	237.87
762.76	237.70
763.08	237.59
763.41	237.51
763.74	237.30
764.06	237.19
764.39	237.09
764.71	237.08
765.04	236.92
765.37	236.77
765.69	236.60
766.02	236.48
766.34	236.43
766.67	236.32
767.00	236.21
767.32	236.24
767.65	236.18
767.97	236.07
768.30	236.08
768.62	235.89
768.95	235.76
769.27	235.73
769.60	235.70
769.92	235.62
770.25	235.50
770.57	235.42
770.90	235.37
771.22	235.28
771.55	235.25
771.87	235.24
772.20	235.13
772.52	235.26
772.85	235.43
773.17	235.33
773.50	235.23
773.82	235.14
774.15	234.98
774.47	234.83
774.80	234.69
775.12	234.53
775.45	234.53
775.77	234.44
776.09	234.29
776.42	234.20
776.74	234.07
777.07	233.96
777.39	233.85
777.72	233.76
778.04	233.78
778.36	233.67
778.69	233.61
779.01	233.57
779.33	233.36
779.66	232.87
779.98	232.83
780.31	232.85
780.63	232.81
780.95	232.82
781.28	232.75
781.60	232.69
781.92	232.63
782.25	232.56
782.57	232.45
782.89	232.44
783.22	232.37
783.54	232.35
783.86	232.38
784.19	232.36
784.51	232.43
784.83	232.31
785.16	232.22
785.48	232.22
785.80	232.05
786.12	232.13
786.45	232.14
786.77	232.13
787.09	232.04
787.42	231.98
787.74	231.95
788.06	231.92
788.38	231.86
788.71	231.78
789.03	231.82
789.35	231.85
789.67	231.77
789.99	231.78
790.32	231.78
790.64	231.76
790.96	231.86
791.28	231.73
791.61	231.72
791.93	231.84
792.25	231.78
792.57	232.08
792.89	232.00
793.21	232.10
793.54	232.04
793.86	231.90
794.18	231.90
794.50	231.80
794.82	231.83
795.14	231.88
795.47	231.94
795.79	231.82
796.11	231.76
796.43	231.81
796.75	231.74
797.07	231.70
797.39	231.63
797.71	231.52
798.04	231.56
798.36	231.59
798.68	231.55
799.00	231.50
799.32	231.31
799.64	231.28
799.96	231.13
800.28	231.18
800.60	231.25
800.92	231.24
801.24	231.29
801.56	231.22
801.89	231.10
802.21	231.10
802.53	231.02
802.85	231.09
803.17	231.09
803.49	231.04
803.81	231.03
804.13	231.06
804.45	231.00
804.77	230.91
805.09	230.79
805.41	230.72
805.73	230.73
806.05	230.70
806.37	230.60
806.69	230.61
807.01	230.55
807.33	230.58
807.65	230.43
807.97	230.45
808.28	230.47
808.60	230.46
808.92	230.41
809.24	230.54
809.56	230.44
809.88	230.39
810.20	230.45
810.52	230.38
810.84	230.26
811.16	230.16
811.48	230.18
811.80	230.34
812.12	230.27
812.43	230.28
812.75	230.29
813.07	230.32
813.39	230.32
813.71	230.25
814.03	230.14
814.35	230.21
814.67	230.13
814.98	230.04
815.30	230.14
815.62	230.09
815.94	230.07
816.26	230.11
816.58	230.12
816.89	230.10
817.21	230.21
817.53	230.20
817.85	230.27
818.17	230.20
818.48	230.13
818.80	230.26
819.12	230.19
819.44	230.11
819.76	230.11
820.07	230.10
820.39	230.06
820.71	230.03
821.03	229.88
821.34	229.83
821.66	229.90
821.98	229.87
822.30	229.83
822.61	229.77
822.93	229.65
823.25	229.53
823.57	229.48
823.88	229.46
824.20	229.44
824.52	229.45
824.83	229.44
825.15	229.41
825.47	229.35
825.79	229.41
826.10	229.40
826.42	229.37
826.74	229.36
827.05	229.43
827.37	229.50
827.69	229.50
828.00	229.43
828.32	229.39
828.64	229.31
828.95	229.43
829.27	229.49
829.58	229.58
829.90	229.71
830.22	229.75
830.53	229.65
830.85	229.70
831.17	229.62
831.48	229.67
831.80	229.62
832.11	229.66
832.43	229.61
832.75	229.56
833.06	229.69
833.38	229.70
833.69	229.67
834.01	229.66
834.32	229.77
834.64	229.84
834.96	229.85
835.27	229.92
835.59	229.85
835.90	229.79
836.22	229.77
836.53	229.75
836.85	229.73
837.16	230.01
837.48	229.96
837.79	230.04
838.11	229.98
838.42	229.96
838.74	229.89
839.05	229.91
839.37	230.00
839.68	229.80
840.00	229.79
840.31	229.85
840.63	229.87
840.94	229.74
841.26	229.69
841.57	229.63
841.88	229.63
842.20	229.50
842.51	229.49
842.83	229.46
843.14	229.54
843.46	229.52
843.77	229.29
844.08	229.29
844.40	229.28
844.71	229.41
845.03	229.39
845.34	229.29
845.65	229.27
845.97	229.14
846.28	229.21
846.60	229.23
846.91	229.17
847.22	229.11
847.54	229.19
847.85	229.13
848.16	229.03
848.48	228.95
848.79	229.11
849.10	229.16
849.42	229.11
849.73	228.94
850.04	228.84
850.36	228.87
850.67	228.89
850.98	228.84
851.30	228.69
851.61	228.71
851.92	228.76
852.23	228.77
852.55	228.85
852.86	228.82
853.17	228.78
853.49	228.72
853.80	228.75
854.11	228.75
854.42	228.73
854.74	228.82
855.05	228.89
855.36	228.78
855.67	228.77
855.99	228.74
856.30	229.05
856.61	229.05
856.92	229.07
857.23	229.00
857.55	228.99
857.86	228.94
858.17	228.94
858.48	228.89
858.79	228.82
859.11	228.73
859.42	228.66
859.73	228.66
860.04	228.63
860.35	228.60
860.66	228.55
860.98	228.64
861.29	228.58
861.60	228.50
861.91	228.50
862.22	228.41
862.53	228.46
862.84	228.12
863.16	228.21
863.47	228.04
863.78	228.04
864.09	228.06
864.40	228.06
864.71	227.99
865.02	228.02
865.33	228.00
865.64	228.02
865.95	228.12
866.27	228.16
866.58	228.29
866.89	228.26
867.20	228.20
867.51	228.13
867.82	228.16
868.13	228.29
868.44	228.19
868.75	228.24
869.06	228.21
869.37	228.26
869.68	228.17
869.99	228.28
870.30	228.29
870.61	228.33
870.92	228.43
871.23	228.38
871.54	228.47
871.85	228.52
872.16	228.54
872.47	228.49
872.78	228.35
873.09	228.26
873.40	228.27
873.71	228.39
874.02	228.46
874.33	228.35
874.64	228.29
874.95	228.34
875.26	228.22
875.56	228.24
875.87	228.17
876.18	228.23
876.49	228.36
876.80	228.39
877.11	228.36
877.42	228.24
877.73	228.30
878.04	228.15
878.35	228.16
878.66	228.18
878.96	228.19
879.27	228.21
879.58	228.26
879.89	228.25
880.20	228.30
880.51	228.39
880.82	228.49
881.12	228.41
881.43	228.46
881.74	228.57
882.05	228.52
882.36	228.57
882.67	228.56
882.97	228.39
883.28	228.30
883.59	228.25
883.90	228.35
884.21	228.37
884.51	228.42
884.82	228.36
885.13	228.37
885.44	228.28
885.74	228.22
886.05	228.17
886.36	228.16
886.67	227.98
886.98	227.94
887.28	228.03
887.59	228.12
887.90	228.06
888.20	227.96
888.51	228.00
888.82	227.97
889.13	228.03
889.43	228.16
889.74	228.17
890.05	228.10
890.35	228.08
890.66	228.06
890.97	228.05
891.28	228.00
891.58	227.99
891.89	228.09
892.20	228.11
892.50	228.15
892.81	228.18
893.12	228.29
893.42	228.15
893.73	228.05
894.04	228.02
894.34	228.06
894.65	228.13
894.95	228.10
895.26	228.03
895.57	228.01
895.87	227.91
896.18	228.00
896.48	228.12
896.79	228.09
897.10	228.08
897.40	228.08
897.71	228.16
898.01	228.21
898.32	228.19
898.63	228.23
898.93	228.19
899.24	228.20
899.54	228.18
899.85	228.22
900.15	228.26
900.46	228.22
900.76	228.20
901.07	228.19
901.38	228.09
901.68	228.11
901.99	228.00
902.29	228.01
902.60	227.89
902.90	227.86
903.21	227.80
903.51	227.82
903.82	227.78
904.12	227.80
904.43	227.79
904.73	227.80
905.03	227.81
905.34	227.98
905.64	227.95
905.95	227.90
906.25	227.80
906.56	227.74
906.86	227.74
907.17	227.76
907.47	227.80
907.77	227.87
908.08	227.79
908.38	227.82
908.69	227.76
908.99	227.78
909.30	227.73
909.60	227.77
909.90	227.89
910.21	227.92
910.51	227.88
910.81	227.70
911.12	227.77
911.42	227.69
911.73	227.55
912.03	227.46
912.33	227.51
912.64	227.54
912.94	227.54
913.24	227.37
913.55	227.34
913.85	227.31
914.15	227.42
914.46	227.55
914.76	227.53
915.06	227.60
915.37	227.62
915.67	227.65
915.97	227.68
916.27	227.51
916.58	227.55
916.88	227.57
917.18	227.72
917.49	227.67
917.79	227.74
918.09	227.65
918.39	227.70
918.70	227.79
919.00	227.93
919.30	228.02
919.60	228.17
919.91	228.16
920.21	228.08
920.51	227.98
920.81	228.00
921.12	228.00
921.42	227.92
921.72	228.02
922.02	227.96
922.32	227.97
922.63	228.00
922.93	228.10
923.23	228.03
923.53	228.06
923.83	228.08
924.13	228.16
924.44	228.24
924.74	228.30
925.04	228.30
925.34	228.19
925.64	228.19
925.94	228.25
926.24	228.36
926.55	228.49
926.85	228.49
927.15	228.52
927.45	228.67
927.75	228.72
928.05	228.72
928.35	228.82
928.65	228.91
928.95	229.00
929.26	228.97
929.56	229.10
929.86	229.00
930.16	228.90
930.46	228.83
930.76	228.89
931.06	228.75
931.36	228.69
931.66	228.76
931.96	228.76
932.26	228.74
932.56	228.70
932.86	228.70
933.16	228.72
933.46	228.63
933.76	228.52
934.06	228.59
934.36	228.56
934.66	228.56
934.96	228.54
935.26	228.48
935.56	228.44
935.86	228.33
936.16	228.39
936.46	228.46
936.76	228.48
937.06	228.41
937.36	228.56
937.66	228.51
937.96	228.53
938.26	228.46
938.56	228.49
938.86	228.49
939.16	228.46
939.46	228.62
939.76	228.59
940.06	228.63
940.35	228.54
940.65	228.47
940.95	228.41
941.25	228.33
941.55	228.41
941.85	228.41
942.15	228.49
942.45	228.43
942.75	228.38
943.04	228.45
943.34	228.50
943.64	228.39
943.94	228.36
944.24	228.33
944.54	228.32
944.84	228.23
945.13	228.15
945.43	228.08
945.73	227.95
946.03	228.00
946.33	227.98
946.62	227.99
946.92	227.94
947.22	228.00
947.52	228.00
947.82	227.92
948.11	227.90
948.41	227.96
948.71	227.91
949.01	227.87
949.31	227.89
949.60	227.85
949.90	227.92
950.20	227.94
950.50	227.93
950.79	227.90
951.09	227.92
951.39	227.92
951.69	227.99
951.98	227.93
952.28	227.96
952.58	227.91
952.87	227.87
953.17	227.97
953.47	227.89
953.76	227.80
954.06	227.81
954.36	227.73
954.66	227.72
954.95	227.95
955.25	228.06
955.55	228.01
955.84	227.95
956.14	228.02
956.44	228.03
956.73	228.03
957.03	228.00
957.32	228.08
957.62	228.14
957.92	228.10
958.21	228.19
958.51	228.35
958.81	228.41
959.10	228.46
959.40	228.42
959.69	228.53
959.99	228.63
960.29	228.55
960.58	228.67
960.88	228.61
961.17	228.39
961.47	228.40
961.76	228.33
962.06	228.39
962.36	228.20
962.65	228.24
962.95	228.25
963.24	228.36
963.54	228.20
963.83	228.15
964.13	228.24
964.42	228.12
964.72	227.98
965.01	228.01
965.31	228.07
965.60	228.07
965.90	228.04
966.19	228.02
966.49	228.06
966.78	227.97
967.08	228.01
967.37	228.15
967.67	227.96
967.96	228.05
968.26	228.01
968.55	228.06
968.85	228.02
969.14	227.85
969.43	227.79
969.73	227.86
970.02	227.92
970.32	227.79
970.61	227.80
970.91	227.66
971.20	227.59
971.49	227.50
971.79	227.43
972.08	227.41
972.38	227.41
972.67	227.46
972.96	227.45
973.26	227.39
973.55	227.42
973.85	227.50
974.14	227.40
974.43	227.46
974.73	227.50
975.02	227.58
975.31	227.75
975.61	227.76
975.90	227.71
976.19	227.60
976.49	227.64
976.78	227.67
977.07	227.76
977.37	227.73
977.66	227.75
977.95	227.80
978.24	227.82
978.54	227.87
978.83	227.72
979.12	227.76
979.42	227.71
979.71	227.67
980.00	227.77
980.29	227.84
980.59	227.82
980.88	227.82
981.17	227.79
981.46	227.63
981.76	227.70
982.05	227.86
982.34	227.97
982.63	227.96
982.93	228.03
983.22	228.04
983.51	228.10
983.80	228.17
984.09	228.25
984.39	228.16
984.68	228.09
984.97	228.21
985.26	228.25
985.55	228.25
985.85	228.28
986.14	228.26
986.43	228.29
986.72	228.28
987.01	228.30
987.30	228.28
987.59	228.37
987.89	228.31
988.18	228.19
988.47	228.14
988.76	228.23
989.05	228.21
989.34	228.23
989.63	228.30
989.92	228.24
990.22	228.18
990.51	228.23
990.80	228.36
991.09	228.40
991.38	228.40
991.67	228.42
991.96	228.35
992.25	228.36
992.54	228.31
992.83	228.34
993.12	228.26
993.41	228.31
993.70	228.43
993.99	228.52
994.28	228.58
994.58	228.67
994.87	228.63
995.16	228.61
995.45	228.58
995.74	228.57
996.03	228.64
996.32	228.80
996.61	228.90
996.90	228.80
997.19	228.87
997.48	228.94
997.77	228.96
998.06	229.00
998.34	229.00
998.63	228.90
998.92	228.90
999.21	229.00
999.50	228.97
999.79	228.84
1000.08	228.75
1000.37	228.76
1000.66	228.61
1000.95	228.67
1001.24	228.70
1001.53	228.77
1001.82	228.81
1002.11	228.73
1002.40	228.57
1002.68	228.50
1002.97	228.74
1003.26	228.64
1003.55	228.54
1003.84	228.56
1004.13	228.55
1004.42	228.50
1004.71	228.58
1004.99	228.61
1005.28	228.62
1005.57	228.61
1005.86	228.58
1006.15	228.62
1006.44	228.62
1006.72	228.76
1007.01	228.75
1007.30	228.76
1007.59	228.70
1007.88	228.66
1008.17	228.69
1008.45	228.75
1008.74	228.77
1009.03	228.57
1009.32	228.59
1009.60	228.60
1009.89	228.59
1010.18	228.61
1010.47	228.63
1010.76	228.62
1011.04	228.62
1011.33	228.70
1011.62	228.76
1011.91	228.82
1012.19	228.85
1012.48	228.76
1012.77	228.72
1013.05	228.80
1013.34	228.78
1013.63	228.79
1013.92	228.83
1014.20	228.80
1014.49	228.84
1014.78	228.85
1015.06	228.75
1015.35	228.79
1015.64	228.83
1015.92	228.80
1016.21	228.81
1016.50	228.83
1016.78	228.87
1017.07	228.90
1017.36	228.81
1017.64	228.79
1017.93	228.77
1018.22	228.76
1018.50	228.87
1018.79	228.83
1019.08	228.60
1019.36	228.71
1019.65	228.74
1019.93	228.74
1020.22	228.69
1020.51	228.76
1020.79	228.72
1021.08	228.70
1021.36	229.20
1021.65	227.90
1021.94	226.00
1022.22	230.70
1022.51	228.70
1022.79	229.80
1023.08	227.00
1023.36	231.40
1023.65	228.50
>>>>>End Processed Spectral Data<<<<<
