SpectraSuite Data File
++++++++++++++++++++++++++++++++++++
Date: Fri Feb 01 14:41:28 EST 2013
User: group
Dark Spectrum Present: No
Reference Spectrum Present: No
Number of Sampled Component Spectra: 1
Spectrometers: USB2E7196
Integration Time (usec): 70000 (USB2E7196)
Spectra Averaged: 10 (USB2E7196)
Boxcar Smoothing: 10 (USB2E7196)
Correct for Electrical Dark: No (USB2E7196)
Strobe/Lamp Enabled: No (USB2E7196)
Correct for Detector Non-linearity: No (USB2E7196)
Correct for Stray Light: No (USB2E7196)
Number of Pixels in Processed Spectrum: 2048
>>>>>Begin Processed Spectral Data<<<<<
339.09	0.00
339.48	217.70
339.86	218.40
340.24	220.20
340.63	221.80
341.01	225.00
341.39	223.00
341.78	224.10
342.16	226.50
342.54	228.30
342.93	215.18
343.31	225.98
343.69	226.49
344.07	226.99
344.46	227.38
344.84	227.81
345.22	227.97
345.60	228.27
345.99	228.49
346.37	228.59
346.75	228.62
347.13	228.69
347.52	228.76
347.90	228.91
348.28	228.90
348.66	228.99
349.05	229.00
349.43	229.17
349.81	229.26
350.19	229.29
350.57	229.23
350.96	229.30
351.34	229.51
351.72	229.55
352.10	229.61
352.48	229.58
352.87	229.62
353.25	229.70
353.63	229.80
354.01	229.89
354.39	230.07
354.77	230.12
355.15	230.29
355.54	230.34
355.92	230.47
356.30	230.68
356.68	230.95
357.06	231.03
357.44	230.89
357.82	230.90
358.20	230.99
358.58	231.15
358.97	231.13
359.35	231.15
359.73	231.22
360.11	231.31
360.49	231.50
360.87	231.45
361.25	231.56
361.63	231.64
362.01	231.66
362.39	231.61
362.77	231.64
363.15	231.59
363.53	231.57
363.91	231.50
364.29	231.37
364.67	231.21
365.05	231.20
365.43	231.21
365.81	231.21
366.19	231.30
366.57	231.28
366.95	231.36
367.33	231.31
367.71	231.30
368.09	231.20
368.47	231.11
368.85	231.11
369.23	231.03
369.61	230.92
369.99	230.92
370.37	230.86
370.75	230.90
371.13	230.81
371.51	230.71
371.89	230.66
372.27	230.65
372.65	230.49
373.03	230.45
373.41	230.37
373.78	230.32
374.16	230.07
374.54	229.93
374.92	229.75
375.30	229.70
375.68	229.58
376.06	229.51
376.44	229.31
376.82	229.13
377.19	229.13
377.57	229.05
377.95	228.92
378.33	228.74
378.71	228.55
379.09	228.47
379.47	228.44
379.84	228.34
380.22	228.23
380.60	228.16
380.98	228.00
381.36	227.95
381.73	227.85
382.11	227.90
382.49	227.87
382.87	227.87
383.25	227.83
383.62	227.99
384.00	227.92
384.38	228.01
384.76	228.02
385.13	227.97
385.51	227.84
385.89	227.70
386.27	227.72
386.64	227.73
387.02	227.66
387.40	227.58
387.78	227.60
388.15	227.55
388.53	227.49
388.91	227.44
389.29	227.43
389.66	227.47
390.04	227.39
390.42	227.43
390.79	227.48
391.17	227.46
391.55	227.29
391.92	227.26
392.30	227.26
392.68	227.25
393.05	227.32
393.43	227.35
393.81	227.48
394.18	227.40
394.56	227.44
394.94	227.52
395.31	227.54
395.69	227.56
396.06	227.62
396.44	227.71
396.82	227.80
397.19	228.02
397.57	228.00
397.95	228.20
398.32	228.21
398.70	228.20
399.07	228.34
399.45	228.56
399.82	228.64
400.20	228.73
400.58	228.91
400.95	228.84
401.33	228.95
401.70	229.20
402.08	229.38
402.45	229.46
402.83	229.67
403.20	229.75
403.58	229.90
403.95	230.14
404.33	230.30
404.71	230.48
405.08	230.73
405.46	231.01
405.83	231.17
406.21	231.30
406.58	231.66
406.96	231.83
407.33	231.98
407.70	232.25
408.08	232.65
408.45	232.93
408.83	233.24
409.20	233.63
409.58	233.84
409.95	234.30
410.33	234.60
410.70	234.91
411.08	235.33
411.45	235.76
411.82	236.10
412.20	236.59
412.57	237.18
412.95	237.46
413.32	237.82
413.69	238.30
414.07	238.88
414.44	239.36
414.82	239.90
415.19	240.59
415.56	241.30
415.94	241.91
416.31	242.72
416.68	243.57
417.06	244.37
417.43	245.23
417.81	246.20
418.18	247.36
418.55	248.45
418.93	249.60
419.30	250.70
419.67	251.81
420.04	252.98
420.42	254.13
420.79	255.71
421.16	257.31
421.54	258.87
421.91	260.48
422.28	262.04
422.66	263.87
423.03	265.54
423.40	267.24
423.77	268.95
424.15	270.71
424.52	272.56
424.89	274.67
425.26	276.67
425.64	278.40
426.01	280.30
426.38	282.40
426.75	284.58
427.13	286.69
427.50	289.10
427.87	291.60
428.24	294.00
428.61	296.12
428.99	298.57
429.36	301.17
429.73	303.75
430.10	306.31
430.47	308.88
430.85	311.53
431.22	314.30
431.59	317.30
431.96	320.14
432.33	323.38
432.70	326.39
433.08	329.78
433.45	333.19
433.82	336.46
434.19	340.09
434.56	343.60
434.93	346.95
435.30	350.15
435.68	353.71
436.05	357.14
436.42	360.69
436.79	364.10
437.16	367.49
437.53	371.15
437.90	374.83
438.27	378.32
438.64	381.90
439.01	385.18
439.38	388.00
439.75	390.66
440.13	393.67
440.50	396.67
440.87	399.14
441.24	401.55
441.61	404.45
441.98	406.22
442.35	408.41
442.72	410.85
443.09	413.20
443.46	414.45
443.83	415.34
444.20	415.88
444.57	416.69
444.94	417.08
445.31	417.19
445.68	417.56
446.05	417.52
446.42	416.88
446.79	416.36
447.16	415.85
447.53	415.39
447.90	413.88
448.27	412.31
448.64	410.15
449.01	408.66
449.37	406.07
449.74	403.68
450.11	400.88
450.48	397.54
450.85	394.31
451.22	391.60
451.59	389.03
451.96	386.54
452.33	383.19
452.70	380.05
453.07	376.62
453.43	372.82
453.80	369.15
454.17	365.82
454.54	362.53
454.91	359.11
455.28	355.71
455.65	352.56
456.02	349.45
456.38	346.67
456.75	343.35
457.12	340.36
457.49	337.51
457.86	334.69
458.23	332.48
458.59	329.64
458.96	326.86
459.33	324.38
459.70	322.04
460.07	320.10
460.43	317.94
460.80	315.80
461.17	313.95
461.54	312.09
461.91	310.13
462.27	308.26
462.64	306.53
463.01	304.83
463.38	303.27
463.74	301.43
464.11	299.95
464.48	298.61
464.85	297.14
465.21	296.07
465.58	294.93
465.95	293.41
466.32	292.36
466.68	291.19
467.05	290.05
467.42	288.78
467.78	287.60
468.15	286.53
468.52	285.72
468.88	284.56
469.25	283.59
469.62	282.87
469.98	281.94
470.35	281.11
470.72	280.26
471.08	279.21
471.45	278.47
471.82	277.73
472.18	276.87
472.55	276.28
472.92	275.54
473.28	274.77
473.65	274.10
474.02	273.51
474.38	273.02
474.75	272.53
475.11	272.05
475.48	271.70
475.85	271.23
476.21	270.87
476.58	270.50
476.94	270.11
477.31	269.82
477.67	269.62
478.04	269.39
478.41	269.20
478.77	269.25
479.14	268.90
479.50	268.81
479.87	268.74
480.23	268.72
480.60	268.56
480.96	268.50
481.33	268.61
481.69	268.70
482.06	268.67
482.42	268.74
482.79	268.81
483.15	268.89
483.52	269.13
483.88	269.20
484.25	269.53
484.61	269.88
484.98	270.15
485.34	270.49
485.71	270.92
486.07	271.43
486.44	271.72
486.80	272.39
487.17	273.01
487.53	273.66
487.90	274.30
488.26	275.14
488.62	276.00
488.99	276.81
489.35	277.70
489.72	278.76
490.08	279.81
490.44	280.97
490.81	282.17
491.17	283.34
491.54	284.84
491.90	286.31
492.26	287.73
492.63	289.36
492.99	291.08
493.36	292.77
493.72	294.49
494.08	296.55
494.45	298.90
494.81	301.12
495.17	303.44
495.54	305.93
495.90	308.52
496.26	311.20
496.63	314.10
496.99	317.15
497.35	320.25
497.72	323.60
498.08	327.06
498.44	330.64
498.80	334.50
499.17	338.37
499.53	342.43
499.89	346.78
500.26	351.22
500.62	355.86
500.98	360.88
501.34	366.16
501.71	371.54
502.07	376.80
502.43	382.64
502.79	388.40
503.16	394.57
503.52	401.02
503.88	407.69
504.24	414.45
504.60	421.55
504.97	429.01
505.33	436.53
505.69	444.51
506.05	452.77
506.41	461.19
506.78	469.70
507.14	478.56
507.50	487.94
507.86	497.44
508.22	507.26
508.59	517.29
508.95	527.67
509.31	538.20
509.67	549.00
510.03	560.06
510.39	571.42
510.75	583.22
511.12	595.01
511.48	607.34
511.84	620.19
512.20	632.78
512.56	646.20
512.92	659.88
513.28	673.61
513.64	687.53
514.00	701.96
514.37	716.62
514.73	731.48
515.09	746.27
515.45	761.45
515.81	776.89
516.17	792.50
516.53	808.74
516.89	824.67
517.25	841.46
517.61	858.08
517.97	874.88
518.33	891.39
518.69	908.61
519.05	926.09
519.41	943.58
519.77	962.04
520.13	979.98
520.49	998.13
520.85	1016.50
521.21	1035.10
521.57	1054.10
521.93	1072.62
522.29	1091.72
522.65	1110.69
523.01	1129.94
523.37	1148.95
523.73	1168.32
524.09	1187.56
524.45	1207.75
524.81	1227.11
525.17	1247.52
525.53	1268.34
525.89	1289.11
526.25	1309.93
526.61	1329.74
526.97	1350.55
527.33	1370.79
527.68	1391.53
528.04	1411.90
528.40	1432.29
528.76	1453.10
529.12	1473.60
529.48	1494.63
529.84	1514.68
530.20	1536.13
530.56	1557.49
530.91	1579.43
531.27	1600.83
531.63	1621.65
531.99	1642.46
532.35	1663.10
532.71	1682.69
533.07	1702.92
533.42	1723.16
533.78	1742.97
534.14	1763.76
534.50	1782.80
534.86	1802.66
535.21	1821.75
535.57	1842.19
535.93	1861.88
536.29	1881.08
536.65	1900.41
537.00	1919.34
537.36	1939.21
537.72	1957.35
538.08	1975.67
538.44	1993.19
538.79	2011.32
539.15	2028.99
539.51	2046.85
539.87	2065.56
540.22	2083.90
540.58	2102.27
540.94	2119.65
541.29	2136.86
541.65	2153.82
542.01	2172.16
542.37	2188.73
542.72	2205.31
543.08	2221.00
543.44	2237.54
543.79	2253.20
544.15	2268.50
544.51	2284.91
544.87	2299.91
545.22	2315.18
545.58	2329.89
545.94	2343.89
546.29	2357.50
546.65	2371.70
547.01	2385.42
547.36	2397.97
547.72	2410.73
548.07	2422.92
548.43	2434.98
548.79	2446.83
549.14	2458.01
549.50	2468.39
549.86	2479.06
550.21	2489.93
550.57	2500.67
550.92	2511.14
551.28	2521.07
551.64	2531.09
551.99	2540.46
552.35	2550.26
552.70	2559.95
553.06	2569.46
553.41	2579.71
553.77	2589.28
554.13	2598.57
554.48	2607.07
554.84	2615.77
555.19	2623.93
555.55	2631.92
555.90	2639.45
556.26	2647.12
556.61	2655.32
556.97	2662.54
557.32	2670.52
557.68	2678.34
558.03	2685.32
558.39	2691.60
558.74	2699.53
559.10	2706.24
559.45	2712.64
559.81	2719.41
560.16	2724.84
560.52	2730.08
560.87	2735.63
561.23	2740.54
561.58	2745.50
561.94	2750.32
562.29	2754.62
562.64	2758.98
563.00	2763.22
563.35	2768.77
563.71	2774.45
564.06	2779.15
564.42	2783.81
564.77	2788.12
565.12	2792.18
565.48	2796.30
565.83	2799.52
566.19	2802.24
566.54	2804.94
566.89	2807.46
567.25	2809.54
567.60	2813.10
567.96	2815.53
568.31	2817.22
568.66	2819.02
569.02	2821.10
569.37	2822.10
569.72	2823.54
570.08	2824.59
570.43	2825.14
570.78	2825.46
571.14	2824.38
571.49	2823.78
571.84	2824.46
572.20	2822.95
572.55	2821.40
572.90	2819.60
573.26	2818.83
573.61	2817.48
573.96	2815.32
574.31	2812.42
574.67	2809.29
575.02	2805.21
575.37	2802.54
575.72	2798.43
576.08	2795.65
576.43	2791.79
576.78	2788.61
577.13	2785.38
577.49	2782.38
577.84	2778.39
578.19	2773.97
578.54	2769.49
578.90	2764.36
579.25	2757.93
579.60	2753.22
579.95	2747.58
580.30	2742.28
580.66	2735.97
581.01	2729.42
581.36	2724.30
581.71	2719.84
582.06	2714.36
582.42	2708.64
582.77	2702.07
583.12	2696.23
583.47	2690.20
583.82	2684.42
584.17	2678.09
584.53	2671.48
584.88	2664.62
585.23	2658.04
585.58	2651.53
585.93	2645.46
586.28	2640.08
586.63	2634.47
586.98	2628.50
587.34	2622.40
587.69	2616.00
588.04	2610.26
588.39	2604.58
588.74	2596.39
589.09	2588.02
589.44	2580.29
589.79	2574.05
590.14	2567.95
590.49	2560.94
590.84	2552.79
591.19	2545.23
591.54	2536.82
591.89	2527.56
592.25	2519.70
592.60	2510.95
592.95	2502.27
593.30	2493.56
593.65	2484.02
594.00	2475.04
594.35	2466.65
594.70	2457.69
595.05	2449.38
595.40	2440.03
595.75	2430.18
596.10	2422.69
596.45	2415.30
596.80	2408.10
597.15	2399.22
597.50	2390.08
597.85	2382.05
598.19	2374.58
598.54	2366.12
598.89	2358.40
599.24	2351.78
599.59	2344.02
599.94	2336.84
600.29	2328.86
600.64	2320.91
600.99	2312.10
601.34	2304.02
601.69	2294.97
602.04	2286.56
602.39	2277.99
602.74	2270.67
603.08	2263.20
603.43	2255.38
603.78	2246.68
604.13	2237.65
604.48	2228.85
604.83	2220.49
605.18	2212.14
605.53	2202.10
605.87	2191.74
606.22	2182.81
606.57	2172.98
606.92	2163.31
607.27	2154.42
607.62	2145.50
607.96	2136.86
608.31	2128.90
608.66	2119.33
609.01	2109.69
609.36	2099.67
609.70	2088.98
610.05	2078.15
610.40	2068.35
610.75	2058.03
611.10	2047.84
611.44	2036.96
611.79	2027.23
612.14	2017.28
612.49	2005.97
612.83	1995.58
613.18	1986.00
613.53	1975.95
613.88	1965.69
614.22	1955.38
614.57	1944.31
614.92	1934.16
615.27	1923.92
615.61	1913.31
615.96	1903.25
616.31	1893.91
616.65	1885.25
617.00	1876.40
617.35	1867.01
617.70	1856.57
618.04	1846.10
618.39	1836.50
618.74	1827.25
619.08	1817.32
619.43	1807.31
619.78	1798.62
620.12	1789.37
620.47	1779.84
620.82	1769.54
621.16	1760.04
621.51	1750.33
621.85	1740.85
622.20	1731.00
622.55	1721.04
622.89	1711.83
623.24	1702.84
623.59	1693.22
623.93	1683.79
624.28	1673.83
624.62	1664.50
624.97	1655.71
625.32	1646.83
625.66	1637.90
626.01	1628.84
626.35	1619.34
626.70	1609.78
627.04	1600.36
627.39	1591.21
627.73	1582.21
628.08	1573.61
628.43	1564.69
628.77	1555.81
629.12	1546.46
629.46	1536.99
629.81	1527.39
630.15	1517.63
630.50	1507.50
630.84	1497.65
631.19	1487.16
631.53	1477.98
631.88	1467.83
632.22	1457.71
632.57	1448.58
632.91	1438.70
633.26	1429.11
633.60	1419.46
633.95	1410.15
634.29	1400.90
634.64	1392.18
634.98	1382.72
635.32	1373.59
635.67	1365.07
636.01	1356.44
636.36	1347.76
636.70	1339.57
637.05	1331.44
637.39	1323.56
637.73	1315.88
638.08	1308.15
638.42	1300.62
638.77	1292.68
639.11	1284.59
639.45	1276.51
639.80	1268.01
640.14	1259.93
640.49	1251.74
640.83	1243.78
641.17	1235.79
641.52	1227.79
641.86	1219.49
642.20	1211.49
642.55	1203.80
642.89	1195.73
643.23	1187.30
643.58	1179.96
643.92	1171.59
644.26	1163.42
644.61	1155.66
644.95	1147.57
645.29	1138.77
645.64	1130.56
645.98	1122.48
646.32	1114.96
646.66	1107.12
647.01	1099.38
647.35	1091.73
647.69	1083.92
648.04	1076.65
648.38	1068.91
648.72	1060.64
649.06	1052.87
649.41	1045.40
649.75	1037.06
650.09	1029.20
650.43	1021.70
650.78	1013.35
651.12	1005.87
651.46	998.41
651.80	990.90
652.14	983.40
652.49	976.49
652.83	969.27
653.17	961.74
653.51	954.24
653.85	947.08
654.20	939.76
654.54	932.21
654.88	925.09
655.22	917.74
655.56	910.47
655.90	903.97
656.25	897.07
656.59	890.26
656.93	883.76
657.27	877.04
657.61	869.95
657.95	863.60
658.29	857.08
658.64	850.40
658.98	843.40
659.32	836.64
659.66	830.18
660.00	823.72
660.34	817.21
660.68	811.03
661.02	804.71
661.36	798.80
661.70	792.80
662.05	787.18
662.39	781.53
662.73	775.76
663.07	769.80
663.41	764.34
663.75	758.81
664.09	753.33
664.43	747.55
664.77	742.36
665.11	736.93
665.45	731.43
665.79	726.19
666.13	720.70
666.47	715.39
666.81	710.00
667.15	704.69
667.49	699.73
667.83	694.68
668.17	689.58
668.51	684.38
668.85	679.48
669.19	674.53
669.53	669.52
669.87	664.67
670.21	660.05
670.55	655.26
670.89	650.70
671.23	646.25
671.57	641.90
671.91	637.43
672.25	632.92
672.58	628.67
672.92	624.41
673.26	620.51
673.60	616.61
673.94	612.51
674.28	608.63
674.62	604.84
674.96	600.99
675.30	597.33
675.64	593.47
675.97	589.59
676.31	585.87
676.65	582.10
676.99	578.60
677.33	574.77
677.67	571.10
678.01	567.08
678.34	563.11
678.68	559.65
679.02	556.06
679.36	552.84
679.70	549.36
680.04	545.76
680.37	542.18
680.71	538.54
681.05	535.59
681.39	532.23
681.73	528.94
682.06	525.82
682.40	522.84
682.74	519.73
683.08	516.64
683.42	513.24
683.75	510.22
684.09	506.97
684.43	503.82
684.77	500.58
685.10	497.69
685.44	494.69
685.78	491.59
686.12	488.57
686.45	485.37
686.79	482.44
687.13	479.53
687.46	476.51
687.80	473.73
688.14	470.61
688.48	467.90
688.81	464.98
689.15	462.06
689.49	459.18
689.82	456.46
690.16	453.81
690.50	451.40
690.83	448.73
691.17	446.10
691.51	443.80
691.84	441.49
692.18	439.00
692.52	436.59
692.85	434.17
693.19	431.88
693.52	429.53
693.86	427.19
694.20	424.80
694.53	422.60
694.87	420.20
695.21	417.88
695.54	415.52
695.88	413.09
696.21	410.66
696.55	408.38
696.88	406.19
697.22	404.09
697.56	401.85
697.89	399.57
698.23	397.49
698.56	395.26
698.90	393.10
699.23	390.91
699.57	388.83
699.90	386.75
700.24	384.65
700.58	382.70
700.91	380.67
701.25	378.88
701.58	377.13
701.92	375.50
702.25	373.69
702.59	371.94
702.92	370.35
703.26	368.71
703.59	366.95
703.93	365.43
704.26	363.70
704.60	362.05
704.93	360.39
705.26	358.82
705.60	357.25
705.93	355.77
706.27	354.41
706.60	353.06
706.94	351.50
707.27	350.02
707.61	348.50
707.94	347.13
708.27	345.51
708.61	343.84
708.94	342.31
709.28	340.90
709.61	339.47
709.94	338.06
710.28	336.79
710.61	335.52
710.95	334.05
711.28	332.87
711.61	331.59
711.95	330.46
712.28	329.17
712.61	327.95
712.95	326.75
713.28	325.47
713.61	324.15
713.95	323.08
714.28	321.83
714.61	320.70
714.95	319.52
715.28	318.49
715.61	317.55
715.95	316.50
716.28	315.57
716.61	314.58
716.95	313.64
717.28	312.65
717.61	311.53
717.94	310.61
718.28	309.64
718.61	308.62
718.94	307.66
719.27	306.76
719.61	306.00
719.94	305.08
720.27	304.19
720.60	303.31
720.94	302.50
721.27	301.71
721.60	300.91
721.93	300.10
722.27	299.36
722.60	298.51
722.93	297.79
723.26	297.01
723.59	296.22
723.93	295.43
724.26	294.84
724.59	294.22
724.92	293.42
725.25	292.60
725.59	291.84
725.92	291.19
726.25	290.48
726.58	289.67
726.91	288.98
727.24	288.25
727.57	287.69
727.91	286.86
728.24	286.34
728.57	285.65
728.90	285.04
729.23	284.33
729.56	283.77
729.89	283.02
730.22	282.41
730.55	281.86
730.89	281.25
731.22	280.51
731.55	279.87
731.88	279.31
732.21	278.64
732.54	278.22
732.87	277.53
733.20	277.02
733.53	276.41
733.86	275.96
734.19	275.38
734.52	274.80
734.85	274.42
735.18	273.80
735.51	273.37
735.84	272.97
736.17	272.41
736.50	271.80
736.83	271.56
737.16	271.05
737.49	270.48
737.82	269.94
738.15	269.38
738.48	268.84
738.81	268.29
739.14	267.88
739.47	267.31
739.80	266.99
740.13	266.52
740.46	266.03
740.79	265.51
741.12	265.24
741.45	264.73
741.78	264.26
742.11	263.80
742.44	263.28
742.77	262.81
743.10	262.40
743.43	261.92
743.75	261.26
744.08	260.99
744.41	260.74
744.74	260.30
745.07	259.94
745.40	259.63
745.73	259.39
746.06	259.04
746.39	258.62
746.71	258.16
747.04	257.72
747.37	257.53
747.70	257.18
748.03	256.73
748.36	256.45
748.68	256.09
749.01	255.70
749.34	255.42
749.67	255.02
750.00	254.89
750.33	254.79
750.65	254.55
750.98	254.03
751.31	253.68
751.64	253.43
751.97	253.28
752.29	252.94
752.62	252.55
752.95	252.26
753.28	252.12
753.60	251.95
753.93	251.74
754.26	251.39
754.59	251.03
754.91	250.69
755.24	250.42
755.57	250.13
755.90	249.90
756.22	249.60
756.55	249.33
756.88	248.96
757.20	248.49
757.53	248.22
757.86	248.04
758.19	247.87
758.51	247.72
758.84	247.42
759.17	247.24
759.49	247.10
759.82	246.96
760.15	246.80
760.47	246.47
760.80	246.29
761.13	246.16
761.45	245.99
761.78	245.78
762.11	245.73
762.43	245.53
762.76	245.38
763.08	245.24
763.41	245.20
763.74	245.01
764.06	244.97
764.39	244.80
764.71	244.58
765.04	244.23
765.37	243.97
765.69	243.74
766.02	243.55
766.34	243.48
766.67	243.29
767.00	243.04
767.32	243.00
767.65	242.91
767.97	242.67
768.30	242.56
768.62	242.48
768.95	242.19
769.27	242.04
769.60	241.93
769.92	241.70
770.25	241.42
770.57	241.26
770.90	241.04
771.22	240.87
771.55	240.80
771.87	240.76
772.20	240.65
772.52	240.71
772.85	240.83
773.17	240.53
773.50	240.32
773.82	240.17
774.15	240.03
774.47	239.76
774.80	239.68
775.12	239.48
775.45	239.41
775.77	239.30
776.09	239.23
776.42	239.06
776.74	238.98
777.07	238.88
777.39	238.73
777.72	238.56
778.04	238.35
778.36	238.08
778.69	238.01
779.01	237.90
779.33	237.52
779.66	237.15
779.98	237.06
780.31	237.02
780.63	236.91
780.95	236.80
781.28	236.70
781.60	236.40
781.92	236.36
782.25	236.09
782.57	236.03
782.89	235.84
783.22	235.76
783.54	235.66
783.86	235.49
784.19	235.34
784.51	235.36
784.83	235.28
785.16	235.31
785.48	235.24
785.80	235.19
786.12	235.13
786.45	235.03
786.77	234.89
787.09	234.78
787.42	234.71
787.74	234.65
788.06	234.60
788.38	234.62
788.71	234.51
789.03	234.49
789.35	234.38
789.67	234.35
789.99	234.32
790.32	234.18
790.64	234.18
790.96	234.38
791.28	234.27
791.61	234.24
791.93	234.14
792.25	233.98
792.57	234.02
792.89	233.95
793.21	233.95
793.54	233.94
793.86	233.79
794.18	233.78
794.50	233.60
794.82	233.53
795.14	233.55
795.47	233.58
795.79	233.67
796.11	233.60
796.43	233.59
796.75	233.44
797.07	233.46
797.39	233.50
797.71	233.22
798.04	233.31
798.36	233.26
798.68	233.28
799.00	233.29
799.32	233.18
799.64	233.16
799.96	233.13
800.28	233.23
800.60	233.23
800.92	233.22
801.24	233.19
801.56	233.22
801.89	233.26
802.21	233.29
802.53	233.17
802.85	233.28
803.17	233.41
803.49	233.48
803.81	233.50
804.13	233.49
804.45	233.57
804.77	233.48
805.09	233.53
805.41	233.41
805.73	233.39
806.05	233.32
806.37	233.35
806.69	233.37
807.01	233.41
807.33	233.37
807.65	233.30
807.97	233.45
808.28	233.36
808.60	233.28
808.92	233.21
809.24	233.30
809.56	233.22
809.88	233.04
810.20	233.02
810.52	233.01
810.84	232.95
811.16	232.89
811.48	232.83
811.80	232.82
812.12	232.85
812.43	232.86
812.75	232.82
813.07	232.84
813.39	232.82
813.71	232.63
814.03	232.53
814.35	232.47
814.67	232.37
814.98	232.36
815.30	232.28
815.62	232.12
815.94	232.02
816.26	232.00
816.58	231.89
816.89	231.79
817.21	231.75
817.53	231.70
817.85	231.58
818.17	231.52
818.48	231.38
818.80	231.36
819.12	231.29
819.44	231.30
819.76	231.10
820.07	230.97
820.39	230.85
820.71	230.90
821.03	230.90
821.34	230.73
821.66	230.76
821.98	230.75
822.30	230.76
822.61	230.81
822.93	230.69
823.25	230.68
823.57	230.60
823.88	230.53
824.20	230.49
824.52	230.51
824.83	230.40
825.15	230.41
825.47	230.41
825.79	230.35
826.10	230.30
826.42	230.30
826.74	230.33
827.05	230.38
827.37	230.31
827.69	230.23
828.00	230.30
828.32	230.15
828.64	230.02
828.95	230.11
829.27	229.99
829.58	230.02
829.90	230.08
830.22	230.17
830.53	230.16
830.85	230.10
831.17	230.03
831.48	230.06
831.80	230.11
832.11	230.04
832.43	230.05
832.75	230.01
833.06	230.18
833.38	230.18
833.69	230.19
834.01	230.24
834.32	230.25
834.64	230.17
834.96	230.19
835.27	230.30
835.59	230.18
835.90	230.12
836.22	230.10
836.53	230.05
836.85	229.92
837.16	230.00
837.48	230.00
837.79	230.10
838.11	230.06
838.42	229.99
838.74	229.92
839.05	229.88
839.37	229.90
839.68	229.66
840.00	229.53
840.31	229.44
840.63	229.50
840.94	229.46
841.26	229.50
841.57	229.52
841.88	229.55
842.20	229.52
842.51	229.52
842.83	229.50
843.14	229.66
843.46	229.77
843.77	229.67
844.08	229.68
844.40	229.59
844.71	229.65
845.03	229.63
845.34	229.67
845.65	229.74
845.97	229.74
846.28	229.82
846.60	229.85
846.91	230.00
847.22	229.87
847.54	229.86
847.85	229.85
848.16	229.90
848.48	229.80
848.79	229.87
849.10	229.92
849.42	229.90
849.73	229.76
850.04	229.63
850.36	229.60
850.67	229.60
850.98	229.59
851.30	229.60
851.61	229.58
851.92	229.59
852.23	229.64
852.55	229.57
852.86	229.61
853.17	229.65
853.49	229.59
853.80	229.60
854.11	229.71
854.42	229.70
854.74	229.61
855.05	229.59
855.36	229.50
855.67	229.44
855.99	229.44
856.30	229.64
856.61	229.69
856.92	229.72
857.23	229.66
857.55	229.71
857.86	229.67
858.17	229.70
858.48	229.67
858.79	229.53
859.11	229.46
859.42	229.43
859.73	229.42
860.04	229.36
860.35	229.33
860.66	229.14
860.98	229.10
861.29	229.10
861.60	229.08
861.91	229.10
862.22	229.11
862.53	228.96
862.84	228.61
863.16	228.69
863.47	228.63
863.78	228.67
864.09	228.65
864.40	228.66
864.71	228.57
865.02	228.62
865.33	228.54
865.64	228.60
865.95	228.65
866.27	228.81
866.58	228.79
866.89	228.77
867.20	228.87
867.51	228.89
867.82	228.91
868.13	228.95
868.44	228.88
868.75	228.87
869.06	229.02
869.37	229.12
869.68	228.98
869.99	229.10
870.30	229.09
870.61	229.07
870.92	229.13
871.23	229.18
871.54	229.17
871.85	229.27
872.16	229.32
872.47	229.28
872.78	229.14
873.09	229.20
873.40	229.23
873.71	229.28
874.02	229.40
874.33	229.36
874.64	229.37
874.95	229.37
875.26	229.38
875.56	229.28
875.87	229.26
876.18	229.33
876.49	229.40
876.80	229.40
877.11	229.37
877.42	229.26
877.73	229.33
878.04	229.32
878.35	229.30
878.66	229.43
878.96	229.41
879.27	229.41
879.58	229.43
879.89	229.43
880.20	229.53
880.51	229.41
880.82	229.42
881.12	229.49
881.43	229.49
881.74	229.44
882.05	229.49
882.36	229.59
882.67	229.62
882.97	229.49
883.28	229.52
883.59	229.61
883.90	229.69
884.21	229.67
884.51	229.68
884.82	229.72
885.13	229.55
885.44	229.49
885.74	229.50
886.05	229.44
886.36	229.38
886.67	229.24
886.98	229.38
887.28	229.36
887.59	229.40
887.90	229.36
888.20	229.44
888.51	229.52
888.82	229.42
889.13	229.43
889.43	229.50
889.74	229.39
890.05	229.33
890.35	229.30
890.66	229.22
890.97	229.22
891.28	229.20
891.58	229.24
891.89	229.28
892.20	229.16
892.50	229.05
892.81	229.07
893.12	228.93
893.42	228.80
893.73	228.82
894.04	228.70
894.34	228.86
894.65	228.84
894.95	228.81
895.26	228.81
895.57	228.83
895.87	228.68
896.18	228.74
896.48	228.79
896.79	228.80
897.10	228.77
897.40	228.81
897.71	228.79
898.01	228.78
898.32	228.83
898.63	228.89
898.93	229.04
899.24	229.05
899.54	229.09
899.85	229.08
900.15	229.16
900.46	229.15
900.76	229.08
901.07	229.08
901.38	229.00
901.68	229.08
901.99	229.06
902.29	229.11
902.60	229.13
902.90	229.06
903.21	229.12
903.51	229.19
903.82	229.16
904.12	229.22
904.43	229.29
904.73	229.27
905.03	229.30
905.34	229.52
905.64	229.54
905.95	229.58
906.25	229.59
906.56	229.58
906.86	229.51
907.17	229.59
907.47	229.50
907.77	229.48
908.08	229.32
908.38	229.32
908.69	229.35
908.99	229.39
909.30	229.47
909.60	229.48
909.90	229.45
910.21	229.41
910.51	229.37
910.81	229.30
911.12	229.32
911.42	229.37
911.73	229.13
912.03	229.08
912.33	229.21
912.64	229.20
912.94	229.01
913.24	229.14
913.55	229.08
913.85	229.11
914.15	229.23
914.46	229.27
914.76	229.29
915.06	229.25
915.37	229.20
915.67	229.11
915.97	228.96
916.27	228.96
916.58	229.00
916.88	228.98
917.18	229.06
917.49	229.07
917.79	229.06
918.09	229.09
918.39	229.25
918.70	229.23
919.00	229.30
919.30	229.50
919.60	229.46
919.91	229.45
920.21	229.50
920.51	229.44
920.81	229.48
921.12	229.48
921.42	229.46
921.72	229.42
922.02	229.40
922.32	229.42
922.63	229.49
922.93	229.53
923.23	229.53
923.53	229.45
923.83	229.47
924.13	229.50
924.44	229.50
924.74	229.41
925.04	229.36
925.34	229.38
925.64	229.35
925.94	229.36
926.24	229.42
926.55	229.37
926.85	229.34
927.15	229.30
927.45	229.26
927.75	229.27
928.05	229.27
928.35	229.31
928.65	229.35
928.95	229.26
929.26	229.09
929.56	229.07
929.86	228.98
930.16	228.94
930.46	228.82
930.76	228.72
931.06	228.70
931.36	228.62
931.66	228.51
931.96	228.47
932.26	228.46
932.56	228.39
932.86	228.36
933.16	228.32
933.46	228.37
933.76	228.36
934.06	228.30
934.36	228.36
934.66	228.29
934.96	228.30
935.26	228.37
935.56	228.51
935.86	228.53
936.16	228.64
936.46	228.60
936.76	228.58
937.06	228.58
937.36	228.48
937.66	228.53
937.96	228.48
938.26	228.41
938.56	228.38
938.86	228.41
939.16	228.49
939.46	228.53
939.76	228.53
940.06	228.51
940.35	228.63
940.65	228.57
940.95	228.65
941.25	228.51
941.55	228.41
941.85	228.29
942.15	228.23
942.45	228.13
942.75	228.14
943.04	228.18
943.34	228.23
943.64	228.37
943.94	228.33
944.24	228.39
944.54	228.46
944.84	228.45
945.13	228.36
945.43	228.26
945.73	228.39
946.03	228.27
946.33	228.25
946.62	228.10
946.92	228.10
947.22	228.09
947.52	228.21
947.82	228.34
948.11	228.33
948.41	228.40
948.71	228.45
949.01	228.44
949.31	228.40
949.60	228.41
949.90	228.42
950.20	228.54
950.50	228.60
950.79	228.50
951.09	228.47
951.39	228.49
951.69	228.56
951.98	228.51
952.28	228.66
952.58	228.62
952.87	228.61
953.17	228.67
953.47	228.68
953.76	228.63
954.06	228.57
954.36	228.66
954.66	228.57
954.95	228.70
955.25	228.75
955.55	228.83
955.84	228.73
956.14	228.69
956.44	228.62
956.73	228.54
957.03	228.69
957.32	228.74
957.62	228.75
957.92	228.75
958.21	228.71
958.51	228.91
958.81	228.96
959.10	229.02
959.40	229.07
959.69	229.17
959.99	229.24
960.29	229.17
960.58	229.07
960.88	229.25
961.17	229.13
961.47	229.11
961.76	228.99
962.06	229.10
962.36	229.14
962.65	229.12
962.95	229.14
963.24	228.97
963.54	229.02
963.83	229.07
964.13	229.03
964.42	228.97
964.72	228.85
965.01	228.96
965.31	228.96
965.60	228.86
965.90	228.89
966.19	228.81
966.49	228.83
966.78	228.93
967.08	228.82
967.37	228.80
967.67	228.71
967.96	228.79
968.26	228.80
968.55	228.72
968.85	228.60
969.14	228.54
969.43	228.56
969.73	228.54
970.02	228.47
970.32	228.49
970.61	228.38
970.91	228.19
971.20	228.00
971.49	227.89
971.79	227.80
972.08	227.58
972.38	227.58
972.67	227.59
972.96	227.50
973.26	227.46
973.55	227.50
973.85	227.47
974.14	227.42
974.43	227.35
974.73	227.38
975.02	227.40
975.31	227.48
975.61	227.49
975.90	227.36
976.19	227.36
976.49	227.29
976.78	227.40
977.07	227.40
977.37	227.43
977.66	227.45
977.95	227.60
978.24	227.72
978.54	227.76
978.83	227.72
979.12	227.66
979.42	227.70
979.71	227.62
980.00	227.56
980.29	227.57
980.59	227.59
980.88	227.60
981.17	227.75
981.46	227.75
981.76	227.82
982.05	227.96
982.34	227.95
982.63	227.96
982.93	227.97
983.22	228.11
983.51	228.08
983.80	228.28
984.09	228.36
984.39	228.42
984.68	228.36
984.97	228.44
985.26	228.50
985.55	228.46
985.85	228.59
986.14	228.74
986.43	228.82
986.72	228.79
987.01	228.82
987.30	228.68
987.59	228.70
987.89	228.70
988.18	228.64
988.47	228.68
988.76	228.79
989.05	228.80
989.34	228.84
989.63	229.02
989.92	228.91
990.22	228.78
990.51	228.70
990.80	228.73
991.09	228.70
991.38	228.80
991.67	228.83
991.96	228.71
992.25	228.70
992.54	228.63
992.83	228.68
993.12	228.60
993.41	228.75
993.70	228.71
993.99	228.73
994.28	228.77
994.58	228.76
994.87	228.76
995.16	228.77
995.45	228.61
995.74	228.51
996.03	228.58
996.32	228.63
996.61	228.63
996.90	228.70
997.19	228.71
997.48	228.62
997.77	228.58
998.06	228.66
998.34	228.63
998.63	228.63
998.92	228.64
999.21	228.68
999.50	228.65
999.79	228.63
1000.08	228.62
1000.37	228.63
1000.66	228.64
1000.95	228.62
1001.24	228.64
1001.53	228.76
1001.82	228.66
1002.11	228.57
1002.40	228.52
1002.68	228.57
1002.97	228.68
1003.26	228.70
1003.55	228.64
1003.84	228.65
1004.13	228.60
1004.42	228.63
1004.71	228.57
1004.99	228.46
1005.28	228.50
1005.57	228.42
1005.86	228.35
1006.15	228.27
1006.44	228.20
1006.72	228.18
1007.01	228.12
1007.30	228.02
1007.59	227.90
1007.88	227.91
1008.17	227.90
1008.45	227.89
1008.74	227.80
1009.03	227.61
1009.32	227.50
1009.60	227.59
1009.89	227.62
1010.18	227.59
1010.47	227.47
1010.76	227.46
1011.04	227.58
1011.33	227.50
1011.62	227.46
1011.91	227.48
1012.19	227.46
1012.48	227.48
1012.77	227.50
1013.05	227.64
1013.34	227.70
1013.63	227.75
1013.92	227.85
1014.20	227.73
1014.49	227.75
1014.78	227.75
1015.06	227.80
1015.35	227.86
1015.64	227.86
1015.92	227.87
1016.21	227.89
1016.50	228.00
1016.78	228.06
1017.07	228.02
1017.36	228.16
1017.64	228.13
1017.93	228.17
1018.22	228.18
1018.50	228.22
1018.79	228.10
1019.08	227.98
1019.36	227.86
1019.65	227.76
1019.93	227.85
1020.22	228.02
1020.51	228.10
1020.79	228.17
1021.08	226.60
1021.36	229.10
1021.65	226.00
1021.94	228.10
1022.22	225.80
1022.51	226.70
1022.79	230.40
1023.08	228.90
1023.36	230.50
1023.65	229.20
>>>>>End Processed Spectral Data<<<<<
