SpectraSuite Data File
++++++++++++++++++++++++++++++++++++
Date: Fri Feb 01 14:35:41 EST 2013
User: group
Dark Spectrum Present: No
Reference Spectrum Present: No
Number of Sampled Component Spectra: 1
Spectrometers: USB2E7196
Integration Time (usec): 70000 (USB2E7196)
Spectra Averaged: 10 (USB2E7196)
Boxcar Smoothing: 10 (USB2E7196)
Correct for Electrical Dark: No (USB2E7196)
Strobe/Lamp Enabled: No (USB2E7196)
Correct for Detector Non-linearity: No (USB2E7196)
Correct for Stray Light: No (USB2E7196)
Number of Pixels in Processed Spectrum: 2048
>>>>>Begin Processed Spectral Data<<<<<
339.09	0.00
339.48	215.30
339.86	216.60
340.24	219.50
340.63	219.50
341.01	223.20
341.39	222.20
341.78	223.50
342.16	225.40
342.54	225.30
342.93	214.16
343.31	225.06
343.69	225.59
344.07	226.10
344.46	226.48
344.84	226.89
345.22	227.16
345.60	227.47
345.99	227.70
346.37	227.78
346.75	227.93
347.13	228.02
347.52	228.06
347.90	228.24
348.28	228.22
348.66	228.24
349.05	228.16
349.43	228.27
349.81	228.15
350.19	228.21
350.57	228.17
350.96	228.24
351.34	228.19
351.72	228.34
352.10	228.37
352.48	228.41
352.87	228.50
353.25	228.40
353.63	228.40
354.01	228.47
354.39	228.55
354.77	228.63
355.15	228.66
355.54	228.75
355.92	228.82
356.30	228.94
356.68	229.13
357.06	229.26
357.44	229.33
357.82	229.55
358.20	229.61
358.58	229.69
358.97	229.72
359.35	229.83
359.73	229.91
360.11	230.10
360.49	230.27
360.87	230.19
361.25	230.36
361.63	230.47
362.01	230.51
362.39	230.58
362.77	230.60
363.15	230.76
363.53	230.77
363.91	230.74
364.29	230.76
364.67	230.58
365.05	230.59
365.43	230.58
365.81	230.64
366.19	230.66
366.57	230.75
366.95	230.79
367.33	230.73
367.71	230.81
368.09	230.79
368.47	230.70
368.85	230.74
369.23	230.78
369.61	230.68
369.99	230.77
370.37	230.77
370.75	230.75
371.13	230.58
371.51	230.50
371.89	230.50
372.27	230.42
372.65	230.33
373.03	230.25
373.41	230.12
373.78	230.02
374.16	229.97
374.54	229.85
374.92	229.78
375.30	229.74
375.68	229.52
376.06	229.42
376.44	229.30
376.82	229.24
377.19	229.10
377.57	229.07
377.95	228.86
378.33	228.74
378.71	228.61
379.09	228.53
379.47	228.52
379.84	228.46
380.22	228.43
380.60	228.41
380.98	228.36
381.36	228.34
381.73	228.20
382.11	228.10
382.49	227.98
382.87	227.80
383.25	227.78
383.62	227.85
384.00	227.66
384.38	227.60
384.76	227.60
385.13	227.56
385.51	227.46
385.89	227.38
386.27	227.34
386.64	227.42
387.02	227.34
387.40	227.17
387.78	227.12
388.15	227.00
388.53	226.87
388.91	226.69
389.29	226.63
389.66	226.61
390.04	226.57
390.42	226.55
390.79	226.56
391.17	226.49
391.55	226.25
391.92	226.31
392.30	226.38
392.68	226.30
393.05	226.32
393.43	226.35
393.81	226.34
394.18	226.43
394.56	226.40
394.94	226.54
395.31	226.56
395.69	226.69
396.06	226.72
396.44	226.81
396.82	227.01
397.19	227.13
397.57	227.26
397.95	227.38
398.32	227.47
398.70	227.68
399.07	227.84
399.45	227.99
399.82	228.10
400.20	228.08
400.58	228.29
400.95	228.39
401.33	228.49
401.70	228.86
402.08	229.01
402.45	229.19
402.83	229.46
403.20	229.71
403.58	229.90
403.95	230.24
404.33	230.53
404.71	230.88
405.08	231.19
405.46	231.42
405.83	231.72
406.21	232.00
406.58	232.28
406.96	232.57
407.33	233.02
407.70	233.50
408.08	234.20
408.45	234.68
408.83	235.12
409.20	235.67
409.58	236.06
409.95	236.51
410.33	237.05
410.70	237.58
411.08	238.35
411.45	239.02
411.82	239.69
412.20	240.45
412.57	241.24
412.95	241.96
413.32	242.85
413.69	243.69
414.07	244.77
414.44	245.85
414.82	247.07
415.19	248.28
415.56	249.48
415.94	250.64
416.31	252.00
416.68	253.52
417.06	255.39
417.43	256.92
417.81	258.73
418.18	260.53
418.55	262.65
418.93	264.80
419.30	266.98
419.67	269.29
420.04	271.68
420.42	274.19
420.79	277.00
421.16	279.95
421.54	282.96
421.91	285.98
422.28	289.20
422.66	292.48
423.03	295.85
423.40	299.40
423.77	303.12
424.15	307.00
424.52	310.83
424.89	314.89
425.26	319.17
425.64	323.13
426.01	327.45
426.38	331.80
426.75	336.10
427.13	340.79
427.50	345.60
427.87	350.85
428.24	356.04
428.61	361.09
428.99	366.49
429.36	372.40
429.73	378.21
430.10	383.88
430.47	389.73
430.85	395.73
431.22	402.14
431.59	408.99
431.96	415.36
432.33	422.54
432.70	429.52
433.08	437.46
433.45	445.14
433.82	452.71
434.19	461.30
434.56	469.45
434.93	477.41
435.30	485.18
435.68	493.76
436.05	502.10
436.42	510.52
436.79	518.18
437.16	526.56
437.53	535.10
437.90	543.85
438.27	552.31
438.64	561.02
439.01	569.07
439.38	576.44
439.75	583.61
440.13	592.00
440.50	599.71
440.87	606.34
441.24	613.04
441.61	620.31
441.98	625.57
442.35	632.17
442.72	638.64
443.09	645.28
443.46	649.34
443.83	652.30
444.20	655.07
444.57	658.61
444.94	660.62
445.31	663.14
445.68	665.24
446.05	666.89
446.42	667.30
446.79	667.40
447.16	667.23
447.53	667.60
447.90	665.28
448.27	663.03
448.64	659.20
449.01	657.06
449.37	652.48
449.74	648.03
450.11	642.36
450.48	635.94
450.85	629.21
451.22	623.89
451.59	618.77
451.96	613.71
452.33	606.98
452.70	600.80
453.07	593.00
453.43	585.38
453.80	577.54
454.17	569.97
454.54	563.11
454.91	555.46
455.28	548.00
455.65	540.99
456.02	533.74
456.38	527.89
456.75	520.25
457.12	513.92
457.49	507.64
457.86	501.55
458.23	496.39
458.59	490.69
458.96	484.64
459.33	479.30
459.70	474.12
460.07	469.71
460.43	464.77
460.80	460.09
461.17	455.77
461.54	451.62
461.91	447.56
462.27	443.03
462.64	439.49
463.01	435.44
463.38	431.69
463.74	427.91
464.11	424.63
464.48	421.42
464.85	418.08
465.21	415.30
465.58	412.47
465.95	409.12
466.32	406.24
466.68	403.48
467.05	400.82
467.42	397.93
467.78	395.02
468.15	392.26
468.52	390.22
468.88	387.62
469.25	385.26
469.62	383.30
469.98	381.37
470.35	379.31
470.72	377.31
471.08	375.10
471.45	373.43
471.82	371.36
472.18	369.49
472.55	368.16
472.92	366.48
473.28	364.99
473.65	363.47
474.02	362.19
474.38	360.93
474.75	359.80
475.11	358.72
475.48	357.91
475.85	357.10
476.21	356.32
476.58	355.61
476.94	354.87
477.31	354.01
477.67	353.36
478.04	352.70
478.41	352.36
478.77	352.22
479.14	351.66
479.50	351.47
479.87	351.30
480.23	351.01
480.60	350.94
480.96	350.87
481.33	351.02
481.69	351.09
482.06	351.02
482.42	350.78
482.79	350.82
483.15	350.99
483.52	351.32
483.88	351.51
484.25	351.67
484.61	352.11
484.98	352.61
485.34	353.25
485.71	353.89
486.07	354.45
486.44	354.86
486.80	355.82
487.17	356.55
487.53	357.70
487.90	358.64
488.26	359.69
488.62	360.68
488.99	361.58
489.35	362.60
489.72	363.99
490.08	365.48
490.44	366.89
490.81	368.35
491.17	369.69
491.54	371.19
491.90	372.75
492.26	374.45
492.63	376.14
492.99	377.72
493.36	379.44
493.72	381.33
494.08	383.09
494.45	384.87
494.81	387.01
495.17	388.77
495.54	390.70
495.90	392.91
496.26	395.15
496.63	397.41
496.99	399.90
497.35	402.14
497.72	404.42
498.08	406.74
498.44	409.02
498.80	411.49
499.17	413.95
499.53	416.57
499.89	419.03
500.26	421.43
500.62	423.87
500.98	426.57
501.34	428.87
501.71	431.63
502.07	434.12
502.43	436.41
502.79	438.76
503.16	441.25
503.52	443.30
503.88	445.34
504.24	447.59
504.60	449.80
504.97	452.06
505.33	454.50
505.69	456.76
506.05	459.05
506.41	461.11
506.78	463.06
507.14	465.10
507.50	467.12
507.86	469.18
508.22	471.28
508.59	472.97
508.95	474.90
509.31	476.70
509.67	478.60
510.03	480.41
510.39	482.19
510.75	483.94
511.12	485.76
511.48	487.47
511.84	489.15
512.20	490.47
512.56	492.10
512.92	493.25
513.28	494.62
513.64	495.78
514.00	496.92
514.37	498.13
514.73	499.12
515.09	500.00
515.45	501.07
515.81	501.83
516.17	502.90
516.53	503.86
516.89	504.43
517.25	504.99
517.61	505.92
517.97	506.69
518.33	507.24
518.69	507.86
519.05	508.60
519.41	509.07
519.77	509.99
520.13	510.39
520.49	511.12
520.85	511.70
521.21	512.58
521.57	513.46
521.93	514.01
522.29	514.72
522.65	515.30
523.01	515.74
523.37	516.28
523.73	516.97
524.09	517.61
524.45	518.50
524.81	519.44
525.17	520.09
525.53	521.20
525.89	522.18
526.25	523.15
526.61	523.93
526.97	525.08
527.33	525.85
527.68	527.06
528.04	528.06
528.40	529.11
528.76	530.15
529.12	531.30
529.48	532.76
529.84	533.90
530.20	535.45
530.56	537.07
530.91	538.89
531.27	540.24
531.63	541.87
531.99	543.49
532.35	545.09
532.71	546.83
533.07	548.35
533.42	550.33
533.78	552.24
534.14	554.32
534.50	556.18
534.86	558.45
535.21	560.30
535.57	562.70
535.93	564.98
536.29	567.30
536.65	569.58
537.00	571.61
537.36	574.15
537.72	576.61
538.08	579.13
538.44	581.64
538.79	584.34
539.15	586.83
539.51	589.68
539.87	592.52
540.22	595.35
540.58	598.56
540.94	601.23
541.29	604.00
541.65	607.04
542.01	610.26
542.37	613.19
542.72	616.60
543.08	619.56
543.44	622.62
543.79	625.50
544.15	628.86
544.51	632.55
544.87	635.97
545.22	639.22
545.58	642.69
545.94	646.07
546.29	649.55
546.65	653.16
547.01	656.28
547.36	659.62
547.72	662.94
548.07	665.98
548.43	669.37
548.79	672.64
549.14	675.79
549.50	679.30
549.86	682.55
550.21	685.72
550.57	689.24
550.92	693.08
551.28	696.90
551.64	700.26
551.99	703.91
552.35	707.29
552.70	710.96
553.06	714.51
553.41	718.14
553.77	721.84
554.13	725.60
554.48	729.40
554.84	733.28
555.19	736.95
555.55	740.58
555.90	744.23
556.26	748.07
556.61	751.99
556.97	755.27
557.32	759.09
557.68	762.81
558.03	766.63
558.39	770.08
558.74	773.47
559.10	777.12
559.45	780.27
559.81	783.93
560.16	787.40
560.52	790.69
560.87	794.03
561.23	797.19
561.58	800.47
561.94	803.65
562.29	806.69
562.64	809.91
563.00	813.09
563.35	816.49
563.71	819.85
564.06	822.92
564.42	826.41
564.77	829.68
565.12	832.87
565.48	835.83
565.83	838.70
566.19	841.92
566.54	844.83
566.89	847.80
567.25	850.77
567.60	853.91
567.96	856.89
568.31	859.58
568.66	862.40
569.02	864.91
569.37	867.70
569.72	870.19
570.08	872.47
570.43	874.80
570.78	876.96
571.14	878.79
571.49	881.05
571.84	883.27
572.20	885.07
572.55	886.92
572.90	888.43
573.26	890.30
573.61	891.78
573.96	893.33
574.31	894.65
574.67	895.80
575.02	896.65
575.37	897.65
575.72	898.50
576.08	899.41
576.43	900.83
576.78	901.82
577.13	902.89
577.49	904.04
577.84	904.99
578.19	905.71
578.54	906.64
578.90	907.29
579.25	907.20
579.60	907.78
579.95	908.01
580.30	908.67
580.66	908.78
581.01	908.99
581.36	909.12
581.71	909.55
582.06	909.76
582.42	910.21
582.77	910.31
583.12	910.65
583.47	910.73
583.82	910.54
584.17	910.59
584.53	910.47
584.88	910.06
585.23	909.98
585.58	909.96
585.93	909.72
586.28	909.79
586.63	910.06
586.98	909.45
587.34	909.57
587.69	909.33
588.04	909.19
588.39	909.01
588.74	908.44
589.09	907.59
589.44	907.02
589.79	906.05
590.14	905.75
590.49	905.34
590.84	904.74
591.19	904.00
591.54	902.77
591.89	901.54
592.25	900.83
592.60	899.53
592.95	898.22
593.30	896.74
593.65	895.05
594.00	893.50
594.35	892.83
594.70	890.83
595.05	889.39
595.40	887.47
595.75	885.70
596.10	884.44
596.45	883.49
596.80	882.41
597.15	881.18
597.50	879.35
597.85	877.62
598.19	876.11
598.54	874.36
598.89	872.86
599.24	871.82
599.59	870.20
599.94	869.09
600.29	867.25
600.64	866.02
600.99	864.10
601.34	862.44
601.69	860.28
602.04	858.65
602.39	856.65
602.74	855.40
603.08	853.80
603.43	852.24
603.78	850.16
604.13	847.80
604.48	845.51
604.83	843.72
605.18	841.82
605.53	839.63
605.87	837.22
606.22	835.15
606.57	832.68
606.92	830.26
607.27	827.95
607.62	826.28
607.96	824.32
608.31	822.72
608.66	820.36
609.01	818.16
609.36	815.81
609.70	813.30
610.05	810.61
610.40	808.22
610.75	805.60
611.10	802.96
611.44	799.98
611.79	797.52
612.14	794.54
612.49	791.35
612.83	788.49
613.18	785.85
613.53	783.08
613.88	780.03
614.22	777.32
614.57	774.40
614.92	771.52
615.27	768.55
615.61	765.40
615.96	762.74
616.31	759.99
616.65	757.70
617.00	755.26
617.35	752.57
617.70	749.54
618.04	746.42
618.39	743.60
618.74	741.32
619.08	738.55
619.43	736.06
619.78	733.61
620.12	730.92
620.47	728.25
620.82	725.36
621.16	722.87
621.51	720.34
621.85	717.46
622.20	714.47
622.55	711.74
622.89	709.08
623.24	706.44
623.59	703.83
623.93	701.09
624.28	698.27
624.62	695.73
624.97	693.36
625.32	690.96
625.66	688.73
626.01	686.00
626.35	683.47
626.70	680.84
627.04	678.40
627.39	675.75
627.73	673.21
628.08	670.85
628.43	668.16
628.77	665.60
629.12	662.83
629.46	660.38
629.81	657.44
630.15	654.76
630.50	651.98
630.84	649.01
631.19	645.89
631.53	643.13
631.88	640.08
632.22	637.05
632.57	634.48
632.91	631.50
633.26	628.87
633.60	625.96
633.95	623.63
634.29	620.97
634.64	618.60
634.98	615.94
635.32	613.25
635.67	611.07
636.01	608.47
636.36	606.02
636.70	603.58
637.05	601.32
637.39	598.89
637.73	596.58
638.08	594.49
638.42	592.40
638.77	590.17
639.11	588.06
639.45	585.77
639.80	583.22
640.14	580.93
640.49	578.71
640.83	576.56
641.17	573.89
641.52	571.46
641.86	568.98
642.20	566.73
642.55	564.52
642.89	562.20
643.23	559.75
643.58	557.77
643.92	555.27
644.26	552.78
644.61	550.60
644.95	548.28
645.29	545.70
645.64	543.23
645.98	540.84
646.32	538.37
646.66	536.30
647.01	533.83
647.35	531.37
647.69	528.81
648.04	526.66
648.38	524.17
648.72	521.70
649.06	519.14
649.41	516.86
649.75	514.37
650.09	511.95
650.43	509.72
650.78	507.01
651.12	504.54
651.46	502.34
651.80	499.83
652.14	497.50
652.49	495.27
652.83	492.90
653.17	490.52
653.51	488.28
653.85	485.77
654.20	483.48
654.54	481.11
654.88	478.91
655.22	476.24
655.56	474.00
655.90	471.89
656.25	469.84
656.59	467.67
656.93	465.64
657.27	463.34
657.61	461.16
657.95	459.25
658.29	457.16
658.64	454.80
658.98	452.63
659.32	450.33
659.66	448.20
660.00	446.21
660.34	444.18
660.68	442.03
661.02	439.95
661.36	438.04
661.70	436.21
662.05	434.21
662.39	432.65
662.73	430.84
663.07	428.97
663.41	427.16
663.75	425.14
664.09	423.21
664.43	421.41
664.77	419.52
665.11	417.80
665.45	416.34
665.79	414.74
666.13	413.16
666.47	411.56
666.81	409.76
667.15	407.93
667.49	406.21
667.83	404.63
668.17	402.97
668.51	401.24
668.85	399.57
669.19	398.18
669.53	396.67
669.87	395.09
670.21	393.58
670.55	392.04
670.89	390.79
671.23	389.41
671.57	387.94
671.91	386.57
672.25	385.00
672.58	383.50
672.92	382.16
673.26	380.83
673.60	379.48
673.94	378.35
674.28	377.15
674.62	376.12
674.96	374.98
675.30	373.89
675.64	372.81
675.97	371.64
676.31	370.36
676.65	369.05
676.99	367.95
677.33	366.69
677.67	365.50
678.01	364.07
678.34	362.82
678.68	361.65
679.02	360.45
679.36	359.36
679.70	358.30
680.04	357.14
680.37	355.96
680.71	354.78
681.05	353.77
681.39	352.70
681.73	351.38
682.06	350.31
682.40	349.18
682.74	348.06
683.08	347.09
683.42	346.02
683.75	344.86
684.09	343.73
684.43	342.69
684.77	341.69
685.10	340.70
685.44	339.58
685.78	338.52
686.12	337.50
686.45	336.46
686.79	335.19
687.13	334.31
687.46	333.22
687.80	332.31
688.14	331.12
688.48	330.12
688.81	329.17
689.15	328.06
689.49	327.06
689.82	326.02
690.16	324.95
690.50	323.95
690.83	323.00
691.17	321.98
691.51	321.12
691.84	320.15
692.18	319.14
692.52	318.22
692.85	317.30
693.19	316.47
693.52	315.53
693.86	314.59
694.20	313.57
694.53	312.74
694.87	311.79
695.21	310.86
695.54	309.97
695.88	308.97
696.21	308.16
696.55	307.26
696.88	306.49
697.22	305.56
697.56	304.80
697.89	303.94
698.23	303.12
698.56	302.12
698.90	301.29
699.23	300.47
699.57	299.58
699.90	298.67
700.24	297.71
700.58	296.82
700.91	296.02
701.25	295.26
701.58	294.43
701.92	293.73
702.25	293.01
702.59	292.21
702.92	291.50
703.26	290.71
703.59	290.09
703.93	289.41
704.26	288.69
704.60	288.01
704.93	287.35
705.26	286.59
705.60	286.00
705.93	285.27
706.27	284.67
706.60	284.17
706.94	283.57
707.27	282.90
707.61	282.40
707.94	281.87
708.27	281.23
708.61	280.59
708.94	279.95
709.28	279.40
709.61	278.73
709.94	278.18
710.28	277.53
710.61	276.98
710.95	276.30
711.28	275.87
711.61	275.18
711.95	274.70
712.28	274.11
712.61	273.52
712.95	273.06
713.28	272.59
713.61	272.19
713.95	271.64
714.28	271.20
714.61	270.60
714.95	270.20
715.28	269.78
715.61	269.27
715.95	268.75
716.28	268.20
716.61	268.07
716.95	267.77
717.28	267.42
717.61	266.96
717.94	266.63
718.28	266.27
718.61	265.86
718.94	265.47
719.27	265.32
719.61	265.00
719.94	264.62
720.27	264.20
720.60	263.61
720.94	263.27
721.27	263.07
721.60	262.88
721.93	262.56
722.27	262.31
722.60	262.05
722.93	261.92
723.26	261.63
723.59	261.24
723.93	260.92
724.26	260.70
724.59	260.24
724.92	260.01
725.25	259.79
725.59	259.57
725.92	259.35
726.25	259.02
726.58	258.65
726.91	258.43
727.24	258.34
727.57	258.22
727.91	258.06
728.24	257.76
728.57	257.44
728.90	257.13
729.23	256.79
729.56	256.64
729.89	256.26
730.22	256.00
730.55	255.69
730.89	255.27
731.22	254.96
731.55	254.89
731.88	254.54
732.21	254.17
732.54	253.90
732.87	253.52
733.20	253.22
733.53	253.11
733.86	252.75
734.19	252.39
734.52	252.16
734.85	252.00
735.18	251.71
735.51	251.59
735.84	251.45
736.17	251.19
736.50	250.86
736.83	250.89
737.16	250.62
737.49	250.49
737.82	250.33
738.15	250.08
738.48	249.82
738.81	249.53
739.14	249.37
739.47	249.28
739.80	249.07
740.13	248.86
740.46	248.61
740.79	248.39
741.12	248.08
741.45	247.84
741.78	247.48
742.11	247.27
742.44	246.96
742.77	246.67
743.10	246.50
743.43	246.36
743.75	245.91
744.08	245.97
744.41	245.68
744.74	245.49
745.07	245.21
745.40	244.98
745.73	244.90
746.06	244.57
746.39	244.23
746.71	244.02
747.04	243.80
747.37	243.55
747.70	243.51
748.03	243.40
748.36	243.14
748.68	242.92
749.01	242.72
749.34	242.60
749.67	242.33
750.00	242.27
750.33	242.13
750.65	241.95
750.98	241.53
751.31	241.35
751.64	241.19
751.97	241.19
752.29	241.04
752.62	240.89
752.95	240.80
753.28	240.62
753.60	240.46
753.93	240.32
754.26	240.20
754.59	239.90
754.91	239.67
755.24	239.62
755.57	239.47
755.90	239.38
756.22	239.20
756.55	239.17
756.88	238.85
757.20	238.54
757.53	238.44
757.86	238.25
758.19	238.08
758.51	238.03
758.84	237.92
759.17	237.83
759.49	237.60
759.82	237.60
760.15	237.53
760.47	237.42
760.80	237.34
761.13	237.29
761.45	237.30
761.78	237.29
762.11	237.19
762.43	237.17
762.76	237.05
763.08	237.03
763.41	236.91
763.74	236.88
764.06	236.90
764.39	236.69
764.71	236.66
765.04	236.64
765.37	236.41
765.69	236.22
766.02	236.10
766.34	236.10
766.67	236.00
767.00	235.90
767.32	235.92
767.65	235.90
767.97	235.89
768.30	235.80
768.62	235.71
768.95	235.69
769.27	235.58
769.60	235.57
769.92	235.41
770.25	235.36
770.57	235.26
770.90	235.19
771.22	235.23
771.55	235.22
771.87	235.18
772.20	235.25
772.52	235.41
772.85	235.60
773.17	235.50
773.50	235.39
773.82	235.32
774.15	235.19
774.47	235.04
774.80	234.86
775.12	234.81
775.45	234.77
775.77	234.61
776.09	234.62
776.42	234.56
776.74	234.55
777.07	234.50
777.39	234.42
777.72	234.31
778.04	234.24
778.36	234.14
778.69	234.14
779.01	234.04
779.33	233.80
779.66	233.56
779.98	233.49
780.31	233.45
780.63	233.48
780.95	233.52
781.28	233.51
781.60	233.47
781.92	233.42
782.25	233.29
782.57	233.22
782.89	233.11
783.22	233.04
783.54	232.95
783.86	232.90
784.19	232.80
784.51	232.86
784.83	232.82
785.16	232.82
785.48	232.75
785.80	232.75
786.12	232.65
786.45	232.54
786.77	232.52
787.09	232.43
787.42	232.36
787.74	232.30
788.06	232.21
788.38	232.15
788.71	232.01
789.03	231.97
789.35	232.02
789.67	232.06
789.99	231.97
790.32	231.95
790.64	231.86
790.96	232.06
791.28	232.02
791.61	231.87
791.93	231.85
792.25	231.73
792.57	231.80
792.89	231.76
793.21	231.69
793.54	231.60
793.86	231.56
794.18	231.43
794.50	231.37
794.82	231.26
795.14	231.23
795.47	231.23
795.79	231.32
796.11	231.21
796.43	231.08
796.75	231.04
797.07	230.91
797.39	230.92
797.71	230.68
798.04	230.59
798.36	230.59
798.68	230.56
799.00	230.60
799.32	230.43
799.64	230.44
799.96	230.53
800.28	230.61
800.60	230.60
800.92	230.66
801.24	230.57
801.56	230.54
801.89	230.58
802.21	230.61
802.53	230.56
802.85	230.57
803.17	230.76
803.49	230.67
803.81	230.62
804.13	230.59
804.45	230.61
804.77	230.63
805.09	230.71
805.41	230.62
805.73	230.62
806.05	230.55
806.37	230.60
806.69	230.50
807.01	230.48
807.33	230.46
807.65	230.41
807.97	230.57
808.28	230.65
808.60	230.60
808.92	230.52
809.24	230.61
809.56	230.56
809.88	230.40
810.20	230.51
810.52	230.65
810.84	230.60
811.16	230.60
811.48	230.48
811.80	230.54
812.12	230.59
812.43	230.59
812.75	230.57
813.07	230.52
813.39	230.61
813.71	230.52
814.03	230.50
814.35	230.53
814.67	230.50
814.98	230.46
815.30	230.50
815.62	230.50
815.94	230.38
816.26	230.45
816.58	230.31
816.89	230.30
817.21	230.16
817.53	230.10
817.85	230.15
818.17	230.16
818.48	230.08
818.80	230.05
819.12	230.08
819.44	230.20
819.76	230.10
820.07	229.98
820.39	229.98
820.71	230.06
821.03	229.94
821.34	229.77
821.66	229.86
821.98	229.88
822.30	229.85
822.61	229.92
822.93	229.84
823.25	229.94
823.57	229.90
823.88	229.89
824.20	229.94
824.52	229.91
824.83	229.89
825.15	229.82
825.47	229.75
825.79	229.62
826.10	229.45
826.42	229.42
826.74	229.37
827.05	229.32
827.37	229.22
827.69	229.22
828.00	229.25
828.32	229.16
828.64	229.02
828.95	229.04
829.27	229.00
829.58	228.87
829.90	228.76
830.22	228.79
830.53	228.88
830.85	228.80
831.17	228.69
831.48	228.70
831.80	228.67
832.11	228.68
832.43	228.73
832.75	228.68
833.06	228.82
833.38	228.82
833.69	228.85
834.01	228.76
834.32	228.80
834.64	228.74
834.96	228.67
835.27	228.71
835.59	228.72
835.90	228.65
836.22	228.67
836.53	228.66
836.85	228.56
837.16	228.64
837.48	228.67
837.79	228.63
838.11	228.57
838.42	228.69
838.74	228.71
839.05	228.60
839.37	228.64
839.68	228.45
840.00	228.48
840.31	228.52
840.63	228.61
840.94	228.60
841.26	228.52
841.57	228.67
841.88	228.62
842.20	228.62
842.51	228.60
842.83	228.64
843.14	228.82
843.46	228.78
843.77	228.71
844.08	228.73
844.40	228.78
844.71	228.82
845.03	228.69
845.34	228.70
845.65	228.75
845.97	228.78
846.28	228.90
846.60	228.90
846.91	228.87
847.22	228.88
847.54	229.02
847.85	229.16
848.16	229.14
848.48	229.06
848.79	229.14
849.10	229.19
849.42	229.22
849.73	229.10
850.04	229.14
850.36	229.15
850.67	229.16
850.98	229.19
851.30	229.24
851.61	229.24
851.92	229.22
852.23	229.34
852.55	229.39
852.86	229.46
853.17	229.46
853.49	229.49
853.80	229.48
854.11	229.41
854.42	229.52
854.74	229.44
855.05	229.54
855.36	229.44
855.67	229.40
855.99	229.55
856.30	229.81
856.61	229.80
856.92	229.75
857.23	229.75
857.55	229.72
857.86	229.66
858.17	229.71
858.48	229.71
858.79	229.60
859.11	229.62
859.42	229.53
859.73	229.56
860.04	229.49
860.35	229.40
860.66	229.26
860.98	229.17
861.29	229.24
861.60	229.26
861.91	229.24
862.22	229.19
862.53	229.02
862.84	228.81
863.16	228.87
863.47	228.75
863.78	228.77
864.09	228.80
864.40	228.76
864.71	228.82
865.02	228.78
865.33	228.75
865.64	228.64
865.95	228.62
866.27	228.64
866.58	228.64
866.89	228.70
867.20	228.64
867.51	228.60
867.82	228.42
868.13	228.45
868.44	228.39
868.75	228.47
869.06	228.46
869.37	228.41
869.68	228.28
869.99	228.28
870.30	228.28
870.61	228.29
870.92	228.33
871.23	228.20
871.54	228.21
871.85	228.27
872.16	228.33
872.47	228.30
872.78	228.13
873.09	228.14
873.40	228.12
873.71	228.13
874.02	228.11
874.33	228.11
874.64	228.04
874.95	228.05
875.26	228.04
875.56	228.06
875.87	228.03
876.18	228.05
876.49	228.27
876.80	228.22
877.11	228.19
877.42	228.21
877.73	228.27
878.04	228.13
878.35	228.06
878.66	228.05
878.96	228.09
879.27	228.13
879.58	228.24
879.89	228.22
880.20	228.30
880.51	228.22
880.82	228.33
881.12	228.31
881.43	228.37
881.74	228.36
882.05	228.34
882.36	228.40
882.67	228.38
882.97	228.23
883.28	228.16
883.59	228.17
883.90	228.25
884.21	228.32
884.51	228.46
884.82	228.48
885.13	228.49
885.44	228.41
885.74	228.51
886.05	228.30
886.36	228.32
886.67	228.36
886.98	228.50
887.28	228.52
887.59	228.60
887.90	228.52
888.20	228.52
888.51	228.58
888.82	228.57
889.13	228.73
889.43	228.93
889.74	228.95
890.05	228.94
890.35	228.80
890.66	228.73
890.97	228.73
891.28	228.69
891.58	228.76
891.89	228.80
892.20	228.76
892.50	228.85
892.81	228.82
893.12	228.81
893.42	228.75
893.73	228.65
894.04	228.54
894.34	228.56
894.65	228.55
894.95	228.55
895.26	228.49
895.57	228.54
895.87	228.35
896.18	228.41
896.48	228.34
896.79	228.32
897.10	228.34
897.40	228.33
897.71	228.24
898.01	228.12
898.32	228.14
898.63	228.10
898.93	228.10
899.24	228.10
899.54	228.10
899.85	228.07
900.15	228.04
900.46	228.10
900.76	228.16
901.07	228.01
901.38	227.91
901.68	227.87
901.99	227.77
902.29	227.77
902.60	227.66
902.90	227.60
903.21	227.60
903.51	227.49
903.82	227.43
904.12	227.58
904.43	227.55
904.73	227.54
905.03	227.53
905.34	227.69
905.64	227.64
905.95	227.68
906.25	227.53
906.56	227.67
906.86	227.62
907.17	227.50
907.47	227.57
907.77	227.64
908.08	227.70
908.38	227.63
908.69	227.65
908.99	227.69
909.30	227.76
909.60	227.80
909.90	227.79
910.21	227.78
910.51	227.61
910.81	227.63
911.12	227.60
911.42	227.57
911.73	227.45
912.03	227.51
912.33	227.51
912.64	227.58
912.94	227.41
913.24	227.41
913.55	227.50
913.85	227.53
914.15	227.47
914.46	227.50
914.76	227.48
915.06	227.43
915.37	227.41
915.67	227.49
915.97	227.46
916.27	227.49
916.58	227.50
916.88	227.62
917.18	227.69
917.49	227.91
917.79	228.00
918.09	228.07
918.39	228.08
918.70	228.07
919.00	228.07
919.30	228.26
919.60	228.23
919.91	228.15
920.21	228.19
920.51	228.20
920.81	228.20
921.12	228.24
921.42	228.31
921.72	228.38
922.02	228.41
922.32	228.50
922.63	228.55
922.93	228.71
923.23	228.70
923.53	228.70
923.83	228.57
924.13	228.68
924.44	228.67
924.74	228.77
925.04	228.82
925.34	228.95
925.64	228.80
925.94	228.83
926.24	228.96
926.55	229.00
926.85	228.95
927.15	228.98
927.45	229.02
927.75	229.04
928.05	229.06
928.35	228.88
928.65	228.89
928.95	228.94
929.26	228.81
929.56	228.85
929.86	228.82
930.16	228.70
930.46	228.60
930.76	228.65
931.06	228.51
931.36	228.41
931.66	228.48
931.96	228.53
932.26	228.63
932.56	228.59
932.86	228.54
933.16	228.66
933.46	228.60
933.76	228.61
934.06	228.66
934.36	228.73
934.66	228.76
934.96	228.65
935.26	228.57
935.56	228.57
935.86	228.50
936.16	228.50
936.46	228.50
936.76	228.44
937.06	228.23
937.36	228.22
937.66	228.25
937.96	228.12
938.26	228.07
938.56	227.98
938.86	227.96
939.16	227.99
939.46	227.97
939.76	227.87
940.06	227.76
940.35	227.67
940.65	227.58
940.95	227.59
941.25	227.69
941.55	227.61
941.85	227.77
942.15	227.90
942.45	227.99
942.75	228.03
943.04	228.00
943.34	228.10
943.64	228.04
943.94	227.96
944.24	228.05
944.54	228.12
944.84	228.09
945.13	228.02
945.43	227.90
945.73	227.88
946.03	227.87
946.33	227.94
946.62	227.87
946.92	227.82
947.22	227.92
947.52	227.88
947.82	227.93
948.11	227.84
948.41	227.76
948.71	227.66
949.01	227.56
949.31	227.55
949.60	227.53
949.90	227.67
950.20	227.71
950.50	227.59
950.79	227.56
951.09	227.61
951.39	227.64
951.69	227.77
951.98	227.82
952.28	227.91
952.58	227.83
952.87	227.96
953.17	228.00
953.47	227.95
953.76	227.96
954.06	227.98
954.36	228.00
954.66	228.01
954.95	228.01
955.25	228.10
955.55	228.20
955.84	228.25
956.14	228.22
956.44	228.21
956.73	228.37
957.03	228.40
957.32	228.47
957.62	228.56
957.92	228.55
958.21	228.59
958.51	228.77
958.81	228.88
959.10	228.82
959.40	228.91
959.69	228.94
959.99	228.98
960.29	229.03
960.58	228.95
960.88	229.06
961.17	229.16
961.47	229.28
961.76	229.29
962.06	229.34
962.36	229.36
962.65	229.41
962.95	229.32
963.24	229.34
963.54	229.34
963.83	229.25
964.13	229.26
964.42	229.11
964.72	228.98
965.01	229.00
965.31	228.95
965.60	228.80
965.90	228.84
966.19	228.71
966.49	228.61
966.78	228.61
967.08	228.51
967.37	228.46
967.67	228.33
967.96	228.34
968.26	228.20
968.55	228.18
968.85	228.18
969.14	228.12
969.43	227.95
969.73	227.94
970.02	227.99
970.32	228.00
970.61	227.95
970.91	227.91
971.20	227.85
971.49	227.93
971.79	228.03
972.08	227.92
972.38	228.01
972.67	228.03
972.96	228.09
973.26	228.09
973.55	228.10
973.85	228.05
974.14	227.98
974.43	228.04
974.73	228.03
975.02	227.97
975.31	228.03
975.61	228.10
975.90	228.00
976.19	227.97
976.49	227.97
976.78	228.10
977.07	228.12
977.37	228.09
977.66	228.05
977.95	228.03
978.24	227.94
978.54	227.89
978.83	227.91
979.12	227.87
979.42	227.81
979.71	227.75
980.00	227.76
980.29	227.77
980.59	227.73
980.88	227.83
981.17	227.86
981.46	227.83
981.76	227.88
982.05	228.02
982.34	228.01
982.63	227.90
982.93	227.87
983.22	227.93
983.51	228.04
983.80	228.04
984.09	228.10
984.39	228.16
984.68	228.21
984.97	228.18
985.26	228.09
985.55	228.12
985.85	228.10
986.14	228.12
986.43	228.12
986.72	228.11
987.01	228.02
987.30	227.98
987.59	228.04
987.89	228.03
988.18	227.94
988.47	227.99
988.76	227.99
989.05	228.01
989.34	227.99
989.63	228.00
989.92	228.12
990.22	228.10
990.51	228.14
990.80	228.14
991.09	228.17
991.38	228.35
991.67	228.40
991.96	228.44
992.25	228.47
992.54	228.45
992.83	228.51
993.12	228.37
993.41	228.39
993.70	228.45
993.99	228.47
994.28	228.58
994.58	228.54
994.87	228.57
995.16	228.58
995.45	228.45
995.74	228.33
996.03	228.31
996.32	228.35
996.61	228.44
996.90	228.46
997.19	228.43
997.48	228.45
997.77	228.43
998.06	228.42
998.34	228.43
998.63	228.49
998.92	228.51
999.21	228.61
999.50	228.68
999.79	228.60
1000.08	228.57
1000.37	228.50
1000.66	228.54
1000.95	228.61
1001.24	228.52
1001.53	228.64
1001.82	228.65
1002.11	228.54
1002.40	228.45
1002.68	228.47
1002.97	228.56
1003.26	228.52
1003.55	228.40
1003.84	228.35
1004.13	228.40
1004.42	228.33
1004.71	228.25
1004.99	228.20
1005.28	228.21
1005.57	228.14
1005.86	228.05
1006.15	228.01
1006.44	227.92
1006.72	227.88
1007.01	227.75
1007.30	227.76
1007.59	227.78
1007.88	227.77
1008.17	227.79
1008.45	227.76
1008.74	227.65
1009.03	227.55
1009.32	227.62
1009.60	227.75
1009.89	227.73
1010.18	227.69
1010.47	227.68
1010.76	227.78
1011.04	227.76
1011.33	227.94
1011.62	228.01
1011.91	228.10
1012.19	228.17
1012.48	228.22
1012.77	228.28
1013.05	228.38
1013.34	228.43
1013.63	228.29
1013.92	228.36
1014.20	228.33
1014.49	228.33
1014.78	228.37
1015.06	228.29
1015.35	228.30
1015.64	228.19
1015.92	228.13
1016.21	228.09
1016.50	228.11
1016.78	228.02
1017.07	228.07
1017.36	227.95
1017.64	227.89
1017.93	227.95
1018.22	227.93
1018.50	227.87
1018.79	227.80
1019.08	227.77
1019.36	227.71
1019.65	227.73
1019.93	227.70
1020.22	227.76
1020.51	227.89
1020.79	227.91
1021.08	227.80
1021.36	226.90
1021.65	227.50
1021.94	228.10
1022.22	227.30
1022.51	227.00
1022.79	228.10
1023.08	228.90
1023.36	230.30
1023.65	228.40
>>>>>End Processed Spectral Data<<<<<
