SpectraSuite Data File
++++++++++++++++++++++++++++++++++++
Date: Fri Feb 01 14:37:33 EST 2013
User: group
Dark Spectrum Present: No
Reference Spectrum Present: No
Number of Sampled Component Spectra: 1
Spectrometers: USB2E7196
Integration Time (usec): 70000 (USB2E7196)
Spectra Averaged: 10 (USB2E7196)
Boxcar Smoothing: 10 (USB2E7196)
Correct for Electrical Dark: No (USB2E7196)
Strobe/Lamp Enabled: No (USB2E7196)
Correct for Detector Non-linearity: No (USB2E7196)
Correct for Stray Light: No (USB2E7196)
Number of Pixels in Processed Spectrum: 2048
>>>>>Begin Processed Spectral Data<<<<<
339.09	0.00
339.48	214.90
339.86	217.20
340.24	220.60
340.63	220.40
341.01	226.70
341.39	221.40
341.78	225.20
342.16	226.30
342.54	223.60
342.93	214.76
343.31	225.58
343.69	226.18
344.07	226.64
344.46	226.96
344.84	227.32
345.22	227.37
345.60	227.73
345.99	227.83
346.37	227.89
346.75	228.05
347.13	228.06
347.52	228.06
347.90	228.19
348.28	228.11
348.66	228.12
349.05	227.99
349.43	228.01
349.81	228.02
350.19	228.10
350.57	228.10
350.96	228.12
351.34	228.23
351.72	228.37
352.10	228.44
352.48	228.50
352.87	228.53
353.25	228.47
353.63	228.52
354.01	228.52
354.39	228.62
354.77	228.73
355.15	228.86
355.54	229.06
355.92	229.01
356.30	229.13
356.68	229.30
357.06	229.35
357.44	229.33
357.82	229.32
358.20	229.29
358.58	229.34
358.97	229.44
359.35	229.51
359.73	229.53
360.11	229.59
360.49	229.72
360.87	229.78
361.25	229.89
361.63	229.90
362.01	230.05
362.39	230.00
362.77	230.04
363.15	230.09
363.53	230.02
363.91	230.01
364.29	230.00
364.67	229.86
365.05	229.84
365.43	229.89
365.81	229.86
366.19	229.97
366.57	230.01
366.95	229.98
367.33	229.80
367.71	229.80
368.09	229.80
368.47	229.70
368.85	229.62
369.23	229.68
369.61	229.60
369.99	229.54
370.37	229.56
370.75	229.57
371.13	229.46
371.51	229.45
371.89	229.34
372.27	229.28
372.65	229.24
373.03	229.13
373.41	229.05
373.78	228.97
374.16	228.84
374.54	228.79
374.92	228.68
375.30	228.60
375.68	228.41
376.06	228.35
376.44	228.25
376.82	228.15
377.19	228.00
377.57	227.92
377.95	227.86
378.33	227.78
378.71	227.61
379.09	227.62
379.47	227.45
379.84	227.46
380.22	227.34
380.60	227.20
380.98	227.16
381.36	227.12
381.73	227.15
382.11	227.08
382.49	226.95
382.87	226.83
383.25	226.90
383.62	227.10
384.00	226.99
384.38	226.97
384.76	227.08
385.13	227.11
385.51	227.05
385.89	227.00
386.27	226.98
386.64	227.00
387.02	226.95
387.40	226.91
387.78	226.80
388.15	226.86
388.53	226.85
388.91	226.90
389.29	226.85
389.66	226.85
390.04	226.84
390.42	226.89
390.79	226.91
391.17	226.87
391.55	226.62
391.92	226.67
392.30	226.63
392.68	226.44
393.05	226.38
393.43	226.40
393.81	226.36
394.18	226.31
394.56	226.29
394.94	226.41
395.31	226.40
395.69	226.50
396.06	226.54
396.44	226.66
396.82	226.68
397.19	226.76
397.57	226.72
397.95	226.89
398.32	226.96
398.70	227.16
399.07	227.23
399.45	227.32
399.82	227.29
400.20	227.40
400.58	227.59
400.95	227.64
401.33	227.84
401.70	228.05
402.08	228.28
402.45	228.41
402.83	228.52
403.20	228.64
403.58	228.71
403.95	228.81
404.33	228.96
404.71	229.09
405.08	229.38
405.46	229.58
405.83	229.73
406.21	229.95
406.58	230.06
406.96	230.34
407.33	230.61
407.70	231.00
408.08	231.51
408.45	231.86
408.83	232.24
409.20	232.48
409.58	232.74
409.95	233.09
410.33	233.44
410.70	233.66
411.08	234.16
411.45	234.72
411.82	235.10
412.20	235.65
412.57	236.29
412.95	236.72
413.32	237.29
413.69	237.88
414.07	238.44
414.44	239.16
414.82	239.83
415.19	240.72
415.56	241.50
415.94	242.29
416.31	243.23
416.68	244.28
417.06	245.41
417.43	246.49
417.81	247.61
418.18	248.84
418.55	250.22
418.93	251.63
419.30	253.12
419.67	254.66
420.04	256.13
420.42	257.81
420.79	259.80
421.16	261.75
421.54	263.66
421.91	265.63
422.28	267.74
422.66	270.01
423.03	272.08
423.40	274.34
423.77	276.78
424.15	279.19
424.52	281.50
424.89	284.22
425.26	286.90
425.64	289.50
426.01	292.30
426.38	295.12
426.75	298.07
427.13	300.93
427.50	304.17
427.87	307.49
428.24	310.67
428.61	313.73
428.99	317.10
429.36	320.80
429.73	324.56
430.10	328.18
430.47	331.86
430.85	335.73
431.22	339.74
431.59	343.96
431.96	348.12
432.33	352.77
432.70	357.07
433.08	362.19
433.45	366.94
433.82	371.56
434.19	376.95
434.56	382.10
434.93	387.15
435.30	392.03
435.68	397.53
436.05	402.85
436.42	408.26
436.79	413.15
437.16	418.36
437.53	423.83
437.90	429.33
438.27	434.64
438.64	440.12
439.01	445.10
439.38	449.60
439.75	453.84
440.13	458.86
440.50	463.71
440.87	467.66
441.24	471.87
441.61	476.51
441.98	479.80
442.35	483.81
442.72	487.74
443.09	491.85
443.46	494.17
443.83	496.00
444.20	497.48
444.57	499.70
444.94	500.94
445.31	502.26
445.68	503.49
446.05	504.25
446.42	504.17
446.79	504.20
447.16	504.00
447.53	504.11
447.90	502.63
448.27	501.18
448.64	498.73
449.01	497.17
449.37	494.02
449.74	491.08
450.11	487.44
450.48	483.23
450.85	478.77
451.22	475.33
451.59	472.03
451.96	468.70
452.33	464.17
452.70	460.18
453.07	455.11
453.43	450.07
453.80	445.30
454.17	440.69
454.54	436.23
454.91	431.34
455.28	426.63
455.65	422.19
456.02	417.81
456.38	414.02
456.75	409.07
457.12	405.07
457.49	401.00
457.86	397.03
458.23	393.86
458.59	390.17
458.96	386.23
459.33	382.75
459.70	379.44
460.07	376.74
460.43	373.59
460.80	370.60
461.17	367.93
461.54	365.14
461.91	362.39
462.27	359.73
462.64	357.44
463.01	354.81
463.38	352.41
463.74	349.83
464.11	347.61
464.48	345.72
464.85	343.73
465.21	342.10
465.58	340.27
465.95	338.13
466.32	336.45
466.68	334.88
467.05	333.08
467.42	331.33
467.78	329.46
468.15	327.73
468.52	326.53
468.88	324.95
469.25	323.43
469.62	322.25
469.98	320.97
470.35	319.72
470.72	318.70
471.08	317.45
471.45	316.26
471.82	315.13
472.18	313.90
472.55	312.90
472.92	311.87
473.28	310.84
473.65	309.89
474.02	308.91
474.38	307.97
474.75	307.29
475.11	306.43
475.48	305.85
475.85	305.25
476.21	304.62
476.58	303.97
476.94	303.53
477.31	303.08
477.67	302.45
478.04	301.89
478.41	301.30
478.77	300.97
479.14	300.56
479.50	300.29
479.87	300.14
480.23	299.94
480.60	299.55
480.96	299.30
481.33	299.14
481.69	298.89
482.06	298.82
482.42	298.60
482.79	298.46
483.15	298.41
483.52	298.34
483.88	298.19
484.25	298.17
484.61	298.14
484.98	298.03
485.34	298.13
485.71	298.33
486.07	298.58
486.44	298.55
486.80	298.62
487.17	298.85
487.53	299.09
487.90	299.41
488.26	299.80
488.62	300.21
488.99	300.53
489.35	301.02
489.72	301.29
490.08	301.62
490.44	302.10
490.81	302.57
491.17	303.10
491.54	303.64
491.90	304.10
492.26	304.68
492.63	305.31
492.99	305.94
493.36	306.49
493.72	306.99
494.08	307.63
494.45	308.45
494.81	309.13
495.17	309.78
495.54	310.28
495.90	311.03
496.26	311.62
496.63	312.41
496.99	313.01
497.35	313.86
497.72	314.68
498.08	315.39
498.44	316.02
498.80	316.81
499.17	317.50
499.53	318.25
499.89	318.98
500.26	319.74
500.62	320.32
500.98	321.15
501.34	321.82
501.71	322.37
502.07	322.91
502.43	323.45
502.79	323.96
503.16	324.47
503.52	324.98
503.88	325.52
504.24	326.01
504.60	326.52
504.97	326.86
505.33	327.23
505.69	327.78
506.05	328.26
506.41	328.43
506.78	328.73
507.14	329.00
507.50	329.15
507.86	329.26
508.22	329.63
508.59	329.62
508.95	329.88
509.31	330.19
509.67	330.32
510.03	330.35
510.39	330.43
510.75	330.74
511.12	330.76
511.48	330.82
511.84	330.87
512.20	330.96
512.56	331.19
512.92	331.35
513.28	331.40
513.64	331.30
514.00	331.43
514.37	331.54
514.73	331.64
515.09	331.82
515.45	331.80
515.81	331.86
516.17	332.03
516.53	332.15
516.89	332.22
517.25	332.46
517.61	332.90
517.97	333.20
518.33	333.28
518.69	333.60
519.05	333.97
519.41	334.34
519.77	334.86
520.13	335.24
520.49	335.66
520.85	336.03
521.21	336.76
521.57	337.40
521.93	338.20
522.29	338.92
522.65	339.59
523.01	340.62
523.37	341.42
523.73	342.27
524.09	343.19
524.45	344.43
524.81	345.61
525.17	346.68
525.53	348.01
525.89	349.34
526.25	350.84
526.61	352.34
526.97	353.89
527.33	355.42
527.68	357.42
528.04	359.26
528.40	361.28
528.76	363.25
529.12	365.26
529.48	367.23
529.84	369.38
530.20	371.93
530.56	374.28
530.91	376.85
531.27	379.46
531.63	382.20
531.99	384.84
532.35	387.49
532.71	390.31
533.07	393.19
533.42	396.52
533.78	399.36
534.14	402.49
534.50	405.69
534.86	409.06
535.21	412.09
535.57	415.60
535.93	418.96
536.29	422.49
536.65	426.25
537.00	430.04
537.36	433.99
537.72	437.66
538.08	441.55
538.44	445.54
538.79	449.52
539.15	453.32
539.51	457.16
539.87	461.39
540.22	465.62
540.58	469.93
540.94	474.01
541.29	478.50
541.65	482.78
542.01	487.30
542.37	491.78
542.72	496.31
543.08	500.77
543.44	505.30
543.79	509.83
544.15	514.28
544.51	519.01
544.87	523.66
545.22	528.27
545.58	532.91
545.94	537.44
546.29	542.30
546.65	547.19
547.01	552.27
547.36	557.12
547.72	561.92
548.07	566.74
548.43	571.60
548.79	576.35
549.14	581.30
549.50	586.10
549.86	590.71
550.21	595.53
550.57	600.35
550.92	605.17
551.28	610.09
551.64	615.18
551.99	620.03
552.35	624.86
552.70	629.67
553.06	634.68
553.41	639.48
553.77	644.40
554.13	649.38
554.48	654.04
554.84	659.02
555.19	663.63
555.55	668.60
555.90	673.12
556.26	678.07
556.61	682.73
556.97	687.28
557.32	692.25
557.68	696.98
558.03	701.66
558.39	706.40
558.74	711.17
559.10	715.54
559.45	720.18
559.81	724.95
560.16	729.49
560.52	734.01
560.87	738.50
561.23	742.99
561.58	747.55
561.94	751.99
562.29	756.11
562.64	760.54
563.00	764.48
563.35	768.92
563.71	773.27
564.06	777.56
564.42	781.81
564.77	786.05
565.12	790.12
565.48	794.39
565.83	798.31
566.19	802.16
566.54	806.20
566.89	809.76
567.25	813.43
567.60	817.51
567.96	821.31
568.31	825.01
568.66	828.40
569.02	831.40
569.37	834.67
569.72	838.00
570.08	841.27
570.43	844.58
570.78	847.77
571.14	850.43
571.49	853.23
571.84	856.69
572.20	859.23
572.55	862.01
572.90	864.25
573.26	867.10
573.61	869.64
573.96	872.05
574.31	874.59
574.67	876.35
575.02	878.20
575.37	879.93
575.72	881.69
576.08	883.51
576.43	885.40
576.78	887.16
577.13	888.92
577.49	890.59
577.84	892.12
578.19	893.45
578.54	895.12
578.90	896.44
579.25	897.00
579.60	898.00
579.95	898.99
580.30	900.17
580.66	900.93
581.01	901.66
581.36	902.32
581.71	902.96
582.06	903.80
582.42	904.16
582.77	904.79
583.12	905.47
583.47	906.24
583.82	907.04
584.17	907.47
584.53	908.00
584.88	908.47
585.23	908.73
585.58	909.22
585.93	909.30
586.28	909.72
586.63	910.25
586.98	910.84
587.34	911.18
587.69	911.28
588.04	911.31
588.39	911.39
588.74	911.12
589.09	910.93
589.44	910.71
589.79	910.70
590.14	910.61
590.49	910.35
590.84	909.97
591.19	909.60
591.54	909.15
591.89	908.09
592.25	907.58
592.60	906.69
592.95	905.61
593.30	904.95
593.65	904.01
594.00	902.68
594.35	902.11
594.70	900.70
595.05	899.90
595.40	898.93
595.75	897.59
596.10	896.50
596.45	895.65
596.80	894.95
597.15	894.10
597.50	892.91
597.85	891.91
598.19	890.66
598.54	889.68
598.89	888.66
599.24	887.98
599.59	886.50
599.94	885.56
600.29	884.33
600.64	882.83
600.99	881.34
601.34	880.09
601.69	878.17
602.04	877.14
602.39	875.34
602.74	873.95
603.08	872.94
603.43	872.01
603.78	870.15
604.13	868.76
604.48	866.92
604.83	865.60
605.18	863.98
605.53	862.16
605.87	859.91
606.22	858.13
606.57	855.93
606.92	854.24
607.27	852.50
607.62	851.18
607.96	849.74
608.31	848.05
608.66	846.15
609.01	843.91
609.36	841.59
609.70	839.32
610.05	836.90
610.40	834.48
610.75	832.08
611.10	829.84
611.44	826.99
611.79	824.88
612.14	822.08
612.49	819.17
612.83	816.61
613.18	814.14
613.53	811.53
613.88	808.67
614.22	805.99
614.57	803.08
614.92	799.93
615.27	796.94
615.61	794.11
615.96	791.71
616.31	789.35
616.65	787.13
617.00	785.04
617.35	782.49
617.70	779.95
618.04	776.92
618.39	774.32
618.74	771.86
619.08	769.01
619.43	766.35
619.78	764.10
620.12	761.56
620.47	758.90
620.82	756.15
621.16	753.86
621.51	751.59
621.85	749.13
622.20	746.37
622.55	743.56
622.89	741.04
623.24	738.38
623.59	735.78
623.93	733.20
624.28	730.36
624.62	727.79
624.97	725.20
625.32	722.95
625.66	720.52
626.01	717.90
626.35	715.35
626.70	712.86
627.04	710.29
627.39	707.38
627.73	704.99
628.08	702.49
628.43	699.90
628.77	696.99
629.12	694.09
629.46	691.70
629.81	689.12
630.15	686.39
630.50	683.32
630.84	680.09
631.19	676.88
631.53	674.11
631.88	671.20
632.22	668.11
632.57	665.04
632.91	662.10
633.26	659.31
633.60	656.29
633.95	653.60
634.29	650.72
634.64	648.22
634.98	645.26
635.32	642.60
635.67	640.23
636.01	637.45
636.36	634.91
636.70	632.21
637.05	629.66
637.39	627.37
637.73	625.10
638.08	623.08
638.42	620.74
638.77	618.20
639.11	615.60
639.45	613.26
639.80	610.91
640.14	608.46
640.49	605.84
640.83	603.61
641.17	601.13
641.52	598.46
641.86	596.06
642.20	593.76
642.55	590.97
642.89	588.18
643.23	585.90
643.58	583.70
643.92	581.27
644.26	578.77
644.61	576.39
644.95	573.82
645.29	571.01
645.64	568.44
645.98	566.00
646.32	563.70
646.66	561.12
647.01	558.74
647.35	556.40
647.69	553.99
648.04	551.49
648.38	548.88
648.72	546.41
649.06	543.89
649.41	541.39
649.75	538.96
650.09	536.46
650.43	533.72
650.78	530.93
651.12	528.28
651.46	525.83
651.80	522.95
652.14	520.44
652.49	518.21
652.83	515.78
653.17	513.13
653.51	510.60
653.85	508.15
654.20	505.54
654.54	502.96
654.88	500.61
655.22	498.02
655.56	495.53
655.90	493.12
656.25	490.73
656.59	488.24
656.93	486.12
657.27	483.83
657.61	481.51
657.95	479.29
658.29	477.06
658.64	474.79
658.98	472.60
659.32	470.24
659.66	467.80
660.00	465.50
660.34	463.45
660.68	461.28
661.02	459.09
661.36	457.01
661.70	454.90
662.05	452.79
662.39	450.90
662.73	448.93
663.07	447.14
663.41	445.09
663.75	443.08
664.09	441.11
664.43	439.15
664.77	437.26
665.11	435.39
665.45	433.48
665.79	431.59
666.13	429.51
666.47	427.79
666.81	425.95
667.15	424.10
667.49	422.33
667.83	420.65
668.17	418.90
668.51	417.02
668.85	415.21
669.19	413.52
669.53	411.56
669.87	409.76
670.21	407.95
670.55	406.28
670.89	404.83
671.23	403.11
671.57	401.48
671.91	400.01
672.25	398.36
672.58	396.88
672.92	395.31
673.26	394.04
673.60	392.63
673.94	391.21
674.28	389.90
674.62	388.46
674.96	387.04
675.30	385.62
675.64	384.34
675.97	382.95
676.31	381.52
676.65	380.25
676.99	379.03
677.33	377.58
677.67	376.32
678.01	374.73
678.34	373.41
678.68	372.08
679.02	370.67
679.36	369.35
679.70	368.04
680.04	366.66
680.37	365.23
680.71	363.78
681.05	362.65
681.39	361.29
681.73	360.05
682.06	358.85
682.40	357.73
682.74	356.64
683.08	355.53
683.42	354.40
683.75	353.33
684.09	352.00
684.43	350.87
684.77	349.65
685.10	348.61
685.44	347.47
685.78	346.39
686.12	345.35
686.45	344.31
686.79	343.12
687.13	342.08
687.46	341.04
687.80	340.00
688.14	338.65
688.48	337.72
688.81	336.70
689.15	335.59
689.49	334.46
689.82	333.37
690.16	332.18
690.50	331.09
690.83	330.04
691.17	328.92
691.51	328.06
691.84	327.04
692.18	326.00
692.52	325.01
692.85	323.88
693.19	322.73
693.52	321.63
693.86	320.60
694.20	319.65
694.53	318.71
694.87	317.70
695.21	316.78
695.54	315.63
695.88	314.43
696.21	313.26
696.55	312.31
696.88	311.21
697.22	310.33
697.56	309.47
697.89	308.50
698.23	307.73
698.56	306.68
698.90	305.83
699.23	304.94
699.57	303.90
699.90	303.07
700.24	302.29
700.58	301.46
700.91	300.80
701.25	300.10
701.58	299.26
701.92	298.43
702.25	297.64
702.59	296.90
702.92	296.24
703.26	295.51
703.59	294.66
703.93	294.02
704.26	293.20
704.60	292.33
704.93	291.55
705.26	290.84
705.60	290.11
705.93	289.49
706.27	288.87
706.60	288.33
706.94	287.76
707.27	286.95
707.61	286.26
707.94	285.61
708.27	284.79
708.61	284.14
708.94	283.55
709.28	282.95
709.61	282.38
709.94	281.74
710.28	281.18
710.61	280.68
710.95	279.94
711.28	279.52
711.61	278.99
711.95	278.58
712.28	278.09
712.61	277.53
712.95	276.91
713.28	276.43
713.61	275.92
713.95	275.32
714.28	275.00
714.61	274.49
714.95	273.90
715.28	273.37
715.61	272.85
715.95	272.41
716.28	271.93
716.61	271.46
716.95	271.02
717.28	270.66
717.61	270.21
717.94	269.77
718.28	269.24
718.61	268.86
718.94	268.23
719.27	267.63
719.61	267.28
719.94	266.84
720.27	266.26
720.60	265.92
720.94	265.58
721.27	265.11
721.60	264.90
721.93	264.61
722.27	264.38
722.60	264.07
722.93	263.84
723.26	263.61
723.59	263.23
723.93	262.98
724.26	262.55
724.59	262.20
724.92	261.99
725.25	261.67
725.59	261.36
725.92	261.30
726.25	261.09
726.58	260.80
726.91	260.55
727.24	260.33
727.57	259.95
727.91	259.54
728.24	259.23
728.57	258.91
728.90	258.51
729.23	258.18
729.56	257.93
729.89	257.46
730.22	257.09
730.55	256.74
730.89	256.40
731.22	256.22
731.55	255.95
731.88	255.69
732.21	255.41
732.54	255.00
732.87	254.57
733.20	254.24
733.53	254.04
733.86	253.79
734.19	253.50
734.52	253.35
734.85	253.28
735.18	252.99
735.51	252.70
735.84	252.46
736.17	252.35
736.50	252.00
736.83	252.01
737.16	251.75
737.49	251.66
737.82	251.44
738.15	251.25
738.48	251.02
738.81	250.65
739.14	250.43
739.47	250.26
739.80	250.16
740.13	250.01
740.46	249.80
740.79	249.53
741.12	249.37
741.45	249.09
741.78	248.80
742.11	248.69
742.44	248.38
742.77	248.10
743.10	247.69
743.43	247.38
743.75	246.97
744.08	247.00
744.41	246.73
744.74	246.45
745.07	246.18
745.40	246.06
745.73	246.10
746.06	246.03
746.39	245.79
746.71	245.39
747.04	245.17
747.37	244.94
747.70	244.81
748.03	244.60
748.36	244.39
748.68	244.17
749.01	243.97
749.34	243.91
749.67	243.91
750.00	243.83
750.33	243.88
750.65	243.77
750.98	243.35
751.31	243.16
751.64	243.05
751.97	243.10
752.29	242.94
752.62	242.76
752.95	242.52
753.28	242.42
753.60	242.35
753.93	242.29
754.26	242.03
754.59	241.83
754.91	241.75
755.24	241.60
755.57	241.40
755.90	241.32
756.22	241.10
756.55	240.84
756.88	240.79
757.20	240.59
757.53	240.36
757.86	240.30
758.19	240.25
758.51	240.16
758.84	239.80
759.17	239.57
759.49	239.35
759.82	239.28
760.15	239.35
760.47	239.20
760.80	239.02
761.13	238.97
761.45	238.91
761.78	238.75
762.11	238.60
762.43	238.57
762.76	238.38
763.08	238.20
763.41	238.21
763.74	238.03
764.06	237.92
764.39	237.90
764.71	237.72
765.04	237.54
765.37	237.44
765.69	237.36
766.02	237.30
766.34	237.20
766.67	237.08
767.00	236.86
767.32	236.94
767.65	236.94
767.97	236.87
768.30	236.82
768.62	236.76
768.95	236.69
769.27	236.55
769.60	236.50
769.92	236.45
770.25	236.31
770.57	236.24
770.90	236.05
771.22	235.89
771.55	235.90
771.87	235.82
772.20	235.68
772.52	235.75
772.85	235.85
773.17	235.74
773.50	235.56
773.82	235.48
774.15	235.24
774.47	235.12
774.80	235.15
775.12	234.97
775.45	234.75
775.77	234.66
776.09	234.65
776.42	234.51
776.74	234.51
777.07	234.44
777.39	234.28
777.72	234.26
778.04	234.20
778.36	234.09
778.69	233.95
779.01	233.89
779.33	233.69
779.66	233.40
779.98	233.31
780.31	233.33
780.63	233.20
780.95	233.14
781.28	232.99
781.60	232.77
781.92	232.71
782.25	232.70
782.57	232.68
782.89	232.53
783.22	232.48
783.54	232.43
783.86	232.38
784.19	232.28
784.51	232.19
784.83	232.18
785.16	232.00
785.48	231.99
785.80	231.93
786.12	231.84
786.45	231.71
786.77	231.77
787.09	231.61
787.42	231.52
787.74	231.50
788.06	231.45
788.38	231.36
788.71	231.28
789.03	231.22
789.35	231.14
789.67	231.07
789.99	231.10
790.32	230.97
790.64	230.87
790.96	231.08
791.28	231.04
791.61	230.91
791.93	230.92
792.25	230.80
792.57	230.93
792.89	230.92
793.21	230.97
793.54	230.89
793.86	230.94
794.18	231.09
794.50	230.92
794.82	231.09
795.14	231.10
795.47	231.24
795.79	231.24
796.11	231.28
796.43	231.23
796.75	231.14
797.07	231.16
797.39	231.17
797.71	230.98
798.04	231.00
798.36	231.00
798.68	231.10
799.00	231.23
799.32	231.09
799.64	231.14
799.96	231.07
800.28	231.14
800.60	231.04
800.92	231.05
801.24	231.11
801.56	231.03
801.89	231.03
802.21	230.91
802.53	230.99
802.85	230.95
803.17	231.12
803.49	231.14
803.81	231.15
804.13	231.13
804.45	231.07
804.77	231.08
805.09	231.11
805.41	231.03
805.73	231.10
806.05	231.07
806.37	231.00
806.69	231.10
807.01	231.05
807.33	231.07
807.65	231.01
807.97	231.20
808.28	231.20
808.60	231.30
808.92	231.35
809.24	231.45
809.56	231.40
809.88	231.30
810.20	231.34
810.52	231.36
810.84	231.35
811.16	231.30
811.48	231.27
811.80	231.27
812.12	231.26
812.43	231.12
812.75	231.06
813.07	230.99
813.39	230.93
813.71	230.83
814.03	230.79
814.35	230.67
814.67	230.43
814.98	230.26
815.30	230.22
815.62	230.13
815.94	229.99
816.26	230.04
816.58	229.94
816.89	229.93
817.21	229.81
817.53	229.69
817.85	229.67
818.17	229.59
818.48	229.46
818.80	229.38
819.12	229.32
819.44	229.24
819.76	229.18
820.07	229.15
820.39	229.06
820.71	229.14
821.03	229.04
821.34	229.02
821.66	229.08
821.98	228.92
822.30	228.81
822.61	228.80
822.93	228.75
823.25	228.74
823.57	228.59
823.88	228.62
824.20	228.65
824.52	228.65
824.83	228.59
825.15	228.58
825.47	228.50
825.79	228.50
826.10	228.46
826.42	228.44
826.74	228.33
827.05	228.28
827.37	228.18
827.69	228.16
828.00	228.20
828.32	228.15
828.64	228.14
828.95	228.20
829.27	228.09
829.58	228.03
829.90	228.03
830.22	228.06
830.53	227.90
830.85	227.94
831.17	227.94
831.48	228.03
831.80	228.12
832.11	228.19
832.43	228.20
832.75	228.23
833.06	228.52
833.38	228.56
833.69	228.61
834.01	228.60
834.32	228.61
834.64	228.55
834.96	228.69
835.27	228.59
835.59	228.55
835.90	228.56
836.22	228.56
836.53	228.57
836.85	228.58
837.16	228.91
837.48	228.90
837.79	228.97
838.11	229.00
838.42	228.97
838.74	229.13
839.05	229.10
839.37	229.09
839.68	228.95
840.00	229.01
840.31	229.13
840.63	229.26
840.94	229.30
841.26	229.38
841.57	229.26
841.88	229.41
842.20	229.49
842.51	229.49
842.83	229.49
843.14	229.69
843.46	229.70
843.77	229.62
844.08	229.61
844.40	229.56
844.71	229.59
845.03	229.50
845.34	229.42
845.65	229.46
845.97	229.56
846.28	229.55
846.60	229.54
846.91	229.49
847.22	229.53
847.54	229.62
847.85	229.51
848.16	229.47
848.48	229.45
848.79	229.50
849.10	229.62
849.42	229.67
849.73	229.43
850.04	229.48
850.36	229.30
850.67	229.30
850.98	229.31
851.30	229.31
851.61	229.40
851.92	229.34
852.23	229.36
852.55	229.41
852.86	229.37
853.17	229.40
853.49	229.40
853.80	229.35
854.11	229.31
854.42	229.41
854.74	229.42
855.05	229.33
855.36	229.26
855.67	229.17
855.99	229.16
856.30	229.29
856.61	229.19
856.92	229.23
857.23	229.14
857.55	229.20
857.86	229.04
858.17	229.01
858.48	228.99
858.79	228.89
859.11	228.80
859.42	228.73
859.73	228.60
860.04	228.58
860.35	228.34
860.66	228.35
860.98	228.36
861.29	228.34
861.60	228.37
861.91	228.29
862.22	228.20
862.53	228.08
862.84	227.91
863.16	227.94
863.47	227.80
863.78	227.81
864.09	227.75
864.40	227.80
864.71	227.80
865.02	227.79
865.33	227.81
865.64	227.83
865.95	227.89
866.27	227.98
866.58	227.78
866.89	227.96
867.20	227.80
867.51	227.71
867.82	227.76
868.13	227.78
868.44	227.76
868.75	227.83
869.06	227.96
869.37	228.14
869.68	228.08
869.99	228.18
870.30	228.22
870.61	228.26
870.92	228.29
871.23	228.30
871.54	228.28
871.85	228.33
872.16	228.35
872.47	228.27
872.78	228.30
873.09	228.48
873.40	228.44
873.71	228.48
874.02	228.51
874.33	228.48
874.64	228.46
874.95	228.50
875.26	228.45
875.56	228.49
875.87	228.44
876.18	228.44
876.49	228.61
876.80	228.70
877.11	228.72
877.42	228.64
877.73	228.55
878.04	228.65
878.35	228.65
878.66	228.71
878.96	228.73
879.27	228.66
879.58	228.66
879.89	228.70
880.20	228.80
880.51	228.89
880.82	228.90
881.12	229.02
881.43	229.09
881.74	229.13
882.05	229.06
882.36	229.07
882.67	229.17
882.97	229.03
883.28	228.98
883.59	229.06
883.90	229.21
884.21	229.28
884.51	229.26
884.82	229.21
885.13	229.22
885.44	229.27
885.74	229.26
886.05	229.30
886.36	229.24
886.67	229.22
886.98	229.25
887.28	229.26
887.59	229.19
887.90	229.09
888.20	229.09
888.51	229.09
888.82	228.90
889.13	228.86
889.43	229.03
889.74	229.05
890.05	228.98
890.35	228.99
890.66	228.96
890.97	228.84
891.28	228.83
891.58	228.62
891.89	228.68
892.20	228.65
892.50	228.64
892.81	228.64
893.12	228.59
893.42	228.49
893.73	228.41
894.04	228.35
894.34	228.37
894.65	228.25
894.95	228.08
895.26	228.12
895.57	228.23
895.87	228.02
896.18	227.99
896.48	227.92
896.79	227.81
897.10	227.79
897.40	227.83
897.71	227.88
898.01	227.97
898.32	227.90
898.63	227.92
898.93	227.85
899.24	227.83
899.54	227.83
899.85	227.80
900.15	227.74
900.46	227.69
900.76	227.74
901.07	227.83
901.38	228.00
901.68	228.08
901.99	228.07
902.29	228.09
902.60	228.07
902.90	228.00
903.21	227.92
903.51	228.02
903.82	228.09
904.12	228.02
904.43	228.01
904.73	227.94
905.03	227.88
905.34	228.14
905.64	228.15
905.95	228.13
906.25	228.19
906.56	228.22
906.86	228.34
907.17	228.20
907.47	228.23
907.77	228.09
908.08	228.03
908.38	227.94
908.69	227.87
908.99	227.84
909.30	227.88
909.60	228.03
909.90	228.05
910.21	228.02
910.51	228.04
910.81	228.09
911.12	228.17
911.42	228.27
911.73	228.03
912.03	228.10
912.33	228.10
912.64	228.05
912.94	228.02
913.24	227.96
913.55	228.01
913.85	227.97
914.15	228.10
914.46	228.20
914.76	228.16
915.06	228.26
915.37	228.29
915.67	228.29
915.97	228.21
916.27	228.14
916.58	228.14
916.88	228.07
917.18	228.12
917.49	228.23
917.79	228.15
918.09	228.19
918.39	228.20
918.70	228.24
919.00	228.34
919.30	228.49
919.60	228.56
919.91	228.64
920.21	228.64
920.51	228.72
920.81	228.60
921.12	228.73
921.42	228.69
921.72	228.75
922.02	228.71
922.32	228.84
922.63	228.90
922.93	228.99
923.23	229.01
923.53	228.90
923.83	228.86
924.13	228.91
924.44	228.92
924.74	229.00
925.04	229.03
925.34	228.93
925.64	228.86
925.94	228.82
926.24	228.88
926.55	228.81
926.85	228.77
927.15	228.78
927.45	228.68
927.75	228.63
928.05	228.60
928.35	228.74
928.65	228.70
928.95	228.68
929.26	228.62
929.56	228.69
929.86	228.76
930.16	228.67
930.46	228.61
930.76	228.52
931.06	228.44
931.36	228.38
931.66	228.50
931.96	228.51
932.26	228.51
932.56	228.47
932.86	228.61
933.16	228.66
933.46	228.70
933.76	228.68
934.06	228.86
934.36	228.83
934.66	228.68
934.96	228.66
935.26	228.66
935.56	228.66
935.86	228.64
936.16	228.57
936.46	228.49
936.76	228.51
937.06	228.65
937.36	228.63
937.66	228.65
937.96	228.58
938.26	228.58
938.56	228.61
938.86	228.60
939.16	228.56
939.46	228.48
939.76	228.39
940.06	228.48
940.35	228.35
940.65	228.27
940.95	228.40
941.25	228.40
941.55	228.28
941.85	228.27
942.15	228.29
942.45	228.33
942.75	228.39
943.04	228.45
943.34	228.34
943.64	228.34
943.94	228.30
944.24	228.35
944.54	228.40
944.84	228.36
945.13	228.40
945.43	228.34
945.73	228.37
946.03	228.40
946.33	228.24
946.62	228.26
946.92	228.31
947.22	228.21
947.52	228.20
947.82	228.30
948.11	228.35
948.41	228.40
948.71	228.38
949.01	228.42
949.31	228.41
949.60	228.48
949.90	228.55
950.20	228.51
950.50	228.52
950.79	228.40
951.09	228.40
951.39	228.37
951.69	228.37
951.98	228.38
952.28	228.45
952.58	228.47
952.87	228.39
953.17	228.48
953.47	228.40
953.76	228.30
954.06	228.26
954.36	228.09
954.66	227.98
954.95	227.97
955.25	227.99
955.55	228.05
955.84	227.97
956.14	227.90
956.44	227.92
956.73	227.82
957.03	227.85
957.32	227.90
957.62	227.80
957.92	227.90
958.21	227.90
958.51	228.10
958.81	228.17
959.10	228.18
959.40	228.20
959.69	228.35
959.99	228.41
960.29	228.45
960.58	228.52
960.88	228.66
961.17	228.69
961.47	228.73
961.76	228.70
962.06	228.80
962.36	228.77
962.65	228.81
962.95	228.86
963.24	228.90
963.54	228.86
963.83	228.91
964.13	228.84
964.42	228.80
964.72	228.60
965.01	228.62
965.31	228.68
965.60	228.59
965.90	228.65
966.19	228.61
966.49	228.55
966.78	228.49
967.08	228.42
967.37	228.40
967.67	228.28
967.96	228.27
968.26	228.20
968.55	228.21
968.85	228.26
969.14	228.20
969.43	228.11
969.73	228.16
970.02	228.14
970.32	228.09
970.61	228.09
970.91	228.05
971.20	228.01
971.49	227.99
971.79	227.97
972.08	227.85
972.38	227.88
972.67	227.90
972.96	227.98
973.26	227.91
973.55	228.03
973.85	228.04
974.14	227.99
974.43	228.06
974.73	228.04
975.02	227.88
975.31	227.90
975.61	228.01
975.90	227.94
976.19	227.84
976.49	227.83
976.78	227.85
977.07	227.82
977.37	227.83
977.66	227.86
977.95	227.80
978.24	227.79
978.54	227.90
978.83	227.96
979.12	227.92
979.42	227.94
979.71	227.74
980.00	227.74
980.29	227.81
980.59	227.73
980.88	227.72
981.17	227.78
981.46	227.84
981.76	227.79
982.05	227.91
982.34	227.99
982.63	228.01
982.93	228.05
983.22	228.07
983.51	228.04
983.80	228.06
984.09	228.10
984.39	228.17
984.68	228.02
984.97	227.95
985.26	227.96
985.55	227.94
985.85	228.06
986.14	228.11
986.43	228.06
986.72	228.04
987.01	228.03
987.30	228.05
987.59	228.03
987.89	228.05
988.18	227.93
988.47	227.99
988.76	228.01
989.05	228.01
989.34	228.00
989.63	228.18
989.92	228.13
990.22	228.20
990.51	228.22
990.80	228.23
991.09	228.32
991.38	228.31
991.67	228.35
991.96	228.30
992.25	228.31
992.54	228.27
992.83	228.29
993.12	228.30
993.41	228.30
993.70	228.40
993.99	228.41
994.28	228.46
994.58	228.39
994.87	228.34
995.16	228.38
995.45	228.50
995.74	228.37
996.03	228.39
996.32	228.40
996.61	228.32
996.90	228.33
997.19	228.25
997.48	228.21
997.77	228.20
998.06	228.12
998.34	228.14
998.63	228.15
998.92	228.28
999.21	228.28
999.50	228.31
999.79	228.15
1000.08	228.12
1000.37	228.15
1000.66	228.20
1000.95	228.31
1001.24	228.26
1001.53	228.20
1001.82	228.15
1002.11	228.10
1002.40	228.13
1002.68	228.25
1002.97	228.46
1003.26	228.42
1003.55	228.46
1003.84	228.48
1004.13	228.62
1004.42	228.57
1004.71	228.60
1004.99	228.50
1005.28	228.52
1005.57	228.52
1005.86	228.54
1006.15	228.54
1006.44	228.48
1006.72	228.44
1007.01	228.43
1007.30	228.36
1007.59	228.33
1007.88	228.35
1008.17	228.35
1008.45	228.20
1008.74	228.12
1009.03	227.98
1009.32	228.01
1009.60	228.05
1009.89	228.01
1010.18	227.92
1010.47	227.82
1010.76	227.75
1011.04	227.80
1011.33	227.88
1011.62	227.87
1011.91	227.94
1012.19	227.91
1012.48	227.88
1012.77	227.81
1013.05	227.86
1013.34	227.91
1013.63	227.96
1013.92	227.99
1014.20	227.96
1014.49	228.13
1014.78	228.08
1015.06	228.01
1015.35	228.11
1015.64	227.99
1015.92	228.05
1016.21	228.06
1016.50	228.09
1016.78	228.19
1017.07	228.15
1017.36	228.07
1017.64	228.12
1017.93	228.14
1018.22	228.12
1018.50	228.23
1018.79	228.26
1019.08	228.18
1019.36	228.13
1019.65	228.07
1019.93	228.13
1020.22	228.23
1020.51	228.20
1020.79	228.15
1021.08	227.20
1021.36	229.10
1021.65	226.60
1021.94	228.50
1022.22	227.40
1022.51	228.10
1022.79	229.50
1023.08	229.00
1023.36	229.80
1023.65	226.30
>>>>>End Processed Spectral Data<<<<<
