SpectraSuite Data File
++++++++++++++++++++++++++++++++++++
Date: Fri Feb 01 14:35:42 EST 2013
User: group
Dark Spectrum Present: No
Reference Spectrum Present: No
Number of Sampled Component Spectra: 1
Spectrometers: USB2E7196
Integration Time (usec): 70000 (USB2E7196)
Spectra Averaged: 10 (USB2E7196)
Boxcar Smoothing: 10 (USB2E7196)
Correct for Electrical Dark: No (USB2E7196)
Strobe/Lamp Enabled: No (USB2E7196)
Correct for Detector Non-linearity: No (USB2E7196)
Correct for Stray Light: No (USB2E7196)
Number of Pixels in Processed Spectrum: 2048
>>>>>Begin Processed Spectral Data<<<<<
339.09	0.00
339.48	215.00
339.86	217.60
340.24	217.60
340.63	218.00
341.01	223.10
341.39	221.30
341.78	225.20
342.16	225.80
342.54	226.50
342.93	214.13
343.31	225.07
343.69	225.66
344.07	226.10
344.46	226.66
344.84	227.19
345.22	227.41
345.60	227.66
345.99	227.81
346.37	227.91
346.75	227.92
347.13	227.97
347.52	228.06
347.90	228.10
348.28	228.08
348.66	228.14
349.05	227.93
349.43	228.00
349.81	228.11
350.19	228.20
350.57	228.22
350.96	228.23
351.34	228.22
351.72	228.27
352.10	228.40
352.48	228.34
352.87	228.35
353.25	228.39
353.63	228.59
354.01	228.56
354.39	228.72
354.77	228.81
355.15	229.02
355.54	229.12
355.92	229.12
356.30	229.15
356.68	229.31
357.06	229.49
357.44	229.58
357.82	229.64
358.20	229.63
358.58	229.78
358.97	229.86
359.35	229.94
359.73	230.08
360.11	230.12
360.49	230.28
360.87	230.24
361.25	230.28
361.63	230.38
362.01	230.54
362.39	230.40
362.77	230.47
363.15	230.44
363.53	230.40
363.91	230.51
364.29	230.54
364.67	230.40
365.05	230.41
365.43	230.47
365.81	230.58
366.19	230.72
366.57	230.69
366.95	230.66
367.33	230.49
367.71	230.50
368.09	230.45
368.47	230.44
368.85	230.43
369.23	230.47
369.61	230.24
369.99	230.16
370.37	230.18
370.75	230.22
371.13	230.09
371.51	230.01
371.89	229.90
372.27	229.90
372.65	229.84
373.03	229.79
373.41	229.60
373.78	229.44
374.16	229.30
374.54	229.24
374.92	229.23
375.30	229.36
375.68	229.13
376.06	229.14
376.44	228.98
376.82	228.95
377.19	228.80
377.57	228.74
377.95	228.66
378.33	228.64
378.71	228.45
379.09	228.36
379.47	228.37
379.84	228.32
380.22	228.18
380.60	228.10
380.98	227.86
381.36	227.90
381.73	227.80
382.11	227.57
382.49	227.47
382.87	227.31
383.25	227.07
383.62	227.28
384.00	227.15
384.38	227.05
384.76	226.97
385.13	227.05
385.51	227.07
385.89	226.99
386.27	226.98
386.64	227.03
387.02	227.03
387.40	226.95
387.78	226.91
388.15	226.92
388.53	226.83
388.91	226.91
389.29	226.77
389.66	226.72
390.04	226.91
390.42	226.93
390.79	226.96
391.17	227.04
391.55	226.79
391.92	226.71
392.30	226.74
392.68	226.82
393.05	226.78
393.43	226.77
393.81	226.74
394.18	226.74
394.56	226.67
394.94	226.72
395.31	226.76
395.69	226.89
396.06	226.84
396.44	226.96
396.82	227.07
397.19	227.32
397.57	227.39
397.95	227.43
398.32	227.38
398.70	227.44
399.07	227.60
399.45	227.75
399.82	227.91
400.20	228.03
400.58	228.09
400.95	228.19
401.33	228.37
401.70	228.72
402.08	228.84
402.45	229.13
402.83	229.37
403.20	229.57
403.58	229.69
403.95	230.11
404.33	230.30
404.71	230.47
405.08	230.72
405.46	231.02
405.83	231.27
406.21	231.60
406.58	231.96
406.96	232.26
407.33	232.62
407.70	233.00
408.08	233.63
408.45	234.25
408.83	234.74
409.20	235.19
409.58	235.59
409.95	236.05
410.33	236.60
410.70	237.20
411.08	237.80
411.45	238.43
411.82	239.00
412.20	239.73
412.57	240.61
412.95	241.37
413.32	242.35
413.69	243.36
414.07	244.35
414.44	245.43
414.82	246.51
415.19	247.83
415.56	249.18
415.94	250.39
416.31	251.79
416.68	253.23
417.06	255.08
417.43	256.64
417.81	258.50
418.18	260.34
418.55	262.28
418.93	264.33
419.30	266.55
419.67	268.80
420.04	271.35
420.42	273.89
420.79	276.75
421.16	279.58
421.54	282.49
421.91	285.66
422.28	288.85
422.66	292.29
423.03	295.70
423.40	299.14
423.77	302.88
424.15	306.56
424.52	310.45
424.89	314.56
425.26	318.77
425.64	322.72
426.01	327.03
426.38	331.64
426.75	336.27
427.13	341.12
427.50	346.08
427.87	351.24
428.24	356.30
428.61	361.20
428.99	366.59
429.36	372.42
429.73	378.28
430.10	383.93
430.47	389.71
430.85	395.68
431.22	402.18
431.59	408.78
431.96	415.09
432.33	422.31
432.70	429.33
433.08	437.50
433.45	445.15
433.82	452.86
434.19	461.11
434.56	469.29
434.93	476.97
435.30	484.76
435.68	493.23
436.05	501.85
436.42	510.38
436.79	518.03
437.16	526.25
437.53	534.74
437.90	543.45
438.27	552.01
438.64	560.88
439.01	568.95
439.38	576.34
439.75	583.62
440.13	591.64
440.50	599.05
440.87	605.10
441.24	611.70
441.61	619.03
441.98	624.48
442.35	631.03
442.72	637.60
443.09	644.01
443.46	648.13
443.83	651.07
444.20	653.62
444.57	657.26
444.94	659.60
445.31	661.90
445.68	663.88
446.05	665.23
446.42	665.27
446.79	665.05
447.16	664.94
447.53	665.32
447.90	663.20
448.27	661.24
448.64	657.93
449.01	655.76
449.37	650.75
449.74	646.27
450.11	640.41
450.48	633.97
450.85	627.50
451.22	622.13
451.59	616.91
451.96	612.07
452.33	605.09
452.70	598.69
453.07	590.98
453.43	583.36
453.80	575.88
454.17	568.43
454.54	561.71
454.91	554.23
455.28	546.63
455.65	539.85
456.02	532.61
456.38	526.40
456.75	518.77
457.12	512.50
457.49	506.08
457.86	500.08
458.23	494.87
458.59	489.12
458.96	483.08
459.33	477.72
459.70	472.47
460.07	468.33
460.43	463.26
460.80	458.50
461.17	454.30
461.54	450.09
461.91	445.90
462.27	441.63
462.64	437.84
463.01	433.88
463.38	429.77
463.74	426.11
464.11	422.85
464.48	419.84
464.85	416.64
465.21	414.23
465.58	411.45
465.95	408.34
466.32	405.47
466.68	402.80
467.05	400.26
467.42	397.41
467.78	394.53
468.15	392.04
468.52	390.22
468.88	387.57
469.25	385.21
469.62	383.33
469.98	381.22
470.35	379.29
470.72	377.46
471.08	375.54
471.45	373.71
471.82	371.84
472.18	369.81
472.55	368.25
472.92	366.49
473.28	364.99
473.65	363.46
474.02	362.13
474.38	360.94
474.75	359.90
475.11	358.75
475.48	357.78
475.85	356.94
476.21	355.95
476.58	355.16
476.94	354.34
477.31	353.63
477.67	353.00
478.04	352.38
478.41	351.85
478.77	351.47
479.14	350.88
479.50	350.64
479.87	350.69
480.23	350.67
480.60	350.35
480.96	349.99
481.33	350.00
481.69	350.01
482.06	349.92
482.42	349.56
482.79	349.53
483.15	349.76
483.52	350.00
483.88	350.25
484.25	350.72
484.61	351.23
484.98	351.62
485.34	352.17
485.71	352.89
486.07	353.64
486.44	354.18
486.80	355.09
487.17	356.01
487.53	356.86
487.90	357.79
488.26	359.04
488.62	360.47
488.99	361.40
489.35	362.43
489.72	363.79
490.08	365.25
490.44	366.50
490.81	368.09
491.17	369.48
491.54	371.08
491.90	372.57
492.26	374.20
492.63	375.99
492.99	377.65
493.36	379.34
493.72	381.10
494.08	383.00
494.45	384.89
494.81	386.85
495.17	388.89
495.54	391.02
495.90	393.09
496.26	395.28
496.63	397.63
496.99	399.85
497.35	401.97
497.72	404.23
498.08	406.66
498.44	408.85
498.80	411.20
499.17	413.56
499.53	415.93
499.89	418.24
500.26	420.53
500.62	422.88
500.98	425.40
501.34	427.72
501.71	430.32
502.07	432.84
502.43	435.23
502.79	437.35
503.16	439.66
503.52	441.96
503.88	444.01
504.24	446.29
504.60	448.64
504.97	451.02
505.33	453.19
505.69	455.63
506.05	457.89
506.41	459.89
506.78	461.81
507.14	463.84
507.50	465.70
507.86	467.61
508.22	469.58
508.59	471.23
508.95	473.08
509.31	474.74
509.67	476.40
510.03	477.99
510.39	479.80
510.75	481.33
511.12	482.82
511.48	484.40
511.84	485.73
512.20	487.33
512.56	488.60
512.92	489.95
513.28	491.00
513.64	492.07
514.00	493.34
514.37	494.58
514.73	495.53
515.09	496.69
515.45	497.67
515.81	498.63
516.17	499.70
516.53	500.60
516.89	501.44
517.25	502.23
517.61	503.03
517.97	503.83
518.33	504.62
518.69	505.25
519.05	505.84
519.41	506.60
519.77	507.27
520.13	508.10
520.49	508.64
520.85	509.28
521.21	510.03
521.57	510.88
521.93	511.50
522.29	512.42
522.65	513.05
523.01	513.74
523.37	514.27
523.73	514.97
524.09	515.60
524.45	516.35
524.81	517.14
525.17	518.08
525.53	519.02
525.89	519.82
526.25	520.84
526.61	521.75
526.97	522.78
527.33	523.40
527.68	524.49
528.04	525.87
528.40	527.18
528.76	528.40
529.12	529.60
529.48	530.92
529.84	532.02
530.20	533.51
530.56	535.06
530.91	536.73
531.27	538.39
531.63	540.08
531.99	541.73
532.35	543.43
532.71	544.92
533.07	546.65
533.42	548.68
533.78	550.76
534.14	552.93
534.50	554.96
534.86	557.34
535.21	559.01
535.57	561.05
535.93	563.21
536.29	565.40
536.65	567.79
537.00	570.02
537.36	572.60
537.72	575.10
538.08	577.73
538.44	580.37
538.79	582.94
539.15	585.52
539.51	588.17
539.87	591.08
540.22	593.98
540.58	597.01
540.94	599.72
541.29	602.37
541.65	605.06
542.01	608.22
542.37	611.44
542.72	614.68
543.08	617.83
543.44	621.04
543.79	624.01
544.15	627.11
544.51	630.47
544.87	633.98
545.22	637.25
545.58	640.51
545.94	643.75
546.29	647.03
546.65	650.39
547.01	653.81
547.36	657.04
547.72	660.59
548.07	663.97
548.43	667.35
548.79	670.90
549.14	674.33
549.50	677.49
549.86	680.66
550.21	684.23
550.57	687.79
550.92	691.23
551.28	694.92
551.64	698.40
551.99	702.17
552.35	705.34
552.70	708.86
553.06	712.55
553.41	716.04
553.77	719.53
554.13	723.24
554.48	727.14
554.84	730.77
555.19	734.33
555.55	737.97
555.90	741.40
556.26	745.04
556.61	748.82
556.97	752.40
557.32	755.96
557.68	759.48
558.03	762.92
558.39	766.52
558.74	770.26
559.10	773.64
559.45	776.97
559.81	780.65
560.16	783.90
560.52	787.22
560.87	790.78
561.23	793.96
561.58	797.70
561.94	800.89
562.29	804.13
562.64	806.97
563.00	809.90
563.35	813.50
563.71	817.00
564.06	820.18
564.42	823.61
564.77	826.84
565.12	830.13
565.48	833.38
565.83	836.38
566.19	839.30
566.54	842.38
566.89	845.41
567.25	848.55
567.60	851.75
567.96	854.65
568.31	857.57
568.66	860.73
569.02	862.85
569.37	865.20
569.72	867.84
570.08	870.77
570.43	873.23
570.78	875.48
571.14	877.25
571.49	879.40
571.84	881.77
572.20	883.74
572.55	885.52
572.90	887.25
573.26	889.15
573.61	891.12
573.96	893.01
574.31	894.48
574.67	895.50
575.02	896.72
575.37	897.99
575.72	898.60
576.08	899.74
576.43	901.09
576.78	902.11
577.13	903.11
577.49	904.31
577.84	905.24
578.19	906.10
578.54	907.28
578.90	908.13
579.25	908.56
579.60	909.39
579.95	909.93
580.30	910.38
580.66	910.47
581.01	910.29
581.36	910.31
581.71	910.57
582.06	911.13
582.42	911.24
582.77	911.22
583.12	911.47
583.47	911.31
583.82	911.40
584.17	911.48
584.53	911.37
584.88	911.05
585.23	910.98
585.58	910.62
585.93	910.39
586.28	910.19
586.63	909.86
586.98	909.29
587.34	909.07
587.69	908.71
588.04	908.64
588.39	908.87
588.74	908.09
589.09	907.48
589.44	906.43
589.79	905.91
590.14	905.50
590.49	904.87
590.84	904.14
591.19	903.25
591.54	902.04
591.89	900.59
592.25	899.64
592.60	898.35
592.95	896.96
593.30	895.43
593.65	893.76
594.00	892.24
594.35	891.29
594.70	889.56
595.05	888.10
595.40	886.32
595.75	884.23
596.10	882.82
596.45	881.57
596.80	880.30
597.15	878.82
597.50	877.00
597.85	875.58
598.19	874.21
598.54	872.84
598.89	871.50
599.24	870.32
599.59	868.53
599.94	867.00
600.29	865.56
600.64	863.70
600.99	861.88
601.34	860.24
601.69	857.94
602.04	856.33
602.39	854.52
602.74	853.06
603.08	851.38
603.43	850.06
603.78	848.16
604.13	846.37
604.48	844.53
604.83	842.84
605.18	841.08
605.53	838.90
605.87	836.38
606.22	834.41
606.57	832.21
606.92	829.84
607.27	827.93
607.62	826.02
607.96	824.17
608.31	822.48
608.66	820.20
609.01	818.02
609.36	815.41
609.70	812.88
610.05	810.22
610.40	807.86
610.75	805.12
611.10	802.27
611.44	799.29
611.79	796.41
612.14	793.62
612.49	790.50
612.83	787.73
613.18	785.30
613.53	782.65
613.88	779.87
614.22	777.28
614.57	774.42
614.92	771.55
615.27	768.99
615.61	766.10
615.96	763.26
616.31	760.78
616.65	758.44
617.00	755.96
617.35	753.58
617.70	750.79
618.04	747.86
618.39	745.25
618.74	743.00
619.08	740.38
619.43	737.57
619.78	735.17
620.12	732.61
620.47	729.74
620.82	726.81
621.16	724.09
621.51	721.63
621.85	719.01
622.20	716.00
622.55	713.20
622.89	710.58
623.24	708.26
623.59	705.63
623.93	703.26
624.28	700.59
624.62	697.91
624.97	695.50
625.32	692.98
625.66	690.52
626.01	687.78
626.35	685.47
626.70	683.18
627.04	680.65
627.39	678.00
627.73	675.52
628.08	673.13
628.43	670.73
628.77	668.03
629.12	665.12
629.46	662.69
629.81	659.71
630.15	656.78
630.50	653.75
630.84	650.70
631.19	647.60
631.53	644.90
631.88	641.76
632.22	638.53
632.57	635.93
632.91	633.15
633.26	630.31
633.60	627.31
633.95	624.43
634.29	621.85
634.64	619.41
634.98	616.48
635.32	613.93
635.67	611.41
636.01	608.91
636.36	606.29
636.70	603.93
637.05	601.73
637.39	599.47
637.73	597.10
638.08	595.09
638.42	592.81
638.77	590.37
639.11	588.10
639.45	585.83
639.80	583.43
640.14	581.02
640.49	578.62
640.83	576.11
641.17	573.70
641.52	571.09
641.86	568.50
642.20	566.24
642.55	563.57
642.89	561.09
643.23	558.77
643.58	556.79
643.92	554.20
644.26	551.94
644.61	549.50
644.95	547.18
645.29	544.30
645.64	541.66
645.98	539.32
646.32	536.99
646.66	534.58
647.01	532.20
647.35	529.94
647.69	527.71
648.04	525.61
648.38	523.26
648.72	520.83
649.06	518.29
649.41	515.95
649.75	513.68
650.09	511.10
650.43	508.48
650.78	505.72
651.12	503.38
651.46	500.85
651.80	498.54
652.14	496.41
652.49	494.45
652.83	492.54
653.17	490.11
653.51	487.85
653.85	485.60
654.20	483.36
654.54	480.71
654.88	478.19
655.22	475.52
655.56	473.08
655.90	470.89
656.25	468.70
656.59	466.67
656.93	464.53
657.27	462.61
657.61	460.32
657.95	458.40
658.29	456.32
658.64	454.17
658.98	452.12
659.32	449.80
659.66	447.90
660.00	445.72
660.34	443.82
660.68	441.72
661.02	439.67
661.36	437.71
661.70	436.04
662.05	434.32
662.39	432.61
662.73	431.04
663.07	429.45
663.41	427.77
663.75	425.95
664.09	424.10
664.43	422.31
664.77	420.85
665.11	419.06
665.45	417.50
665.79	415.74
666.13	414.10
666.47	412.46
666.81	410.35
667.15	408.47
667.49	406.81
667.83	405.24
668.17	403.73
668.51	402.01
668.85	400.40
669.19	398.94
669.53	397.49
669.87	395.75
670.21	394.10
670.55	392.65
670.89	391.17
671.23	389.88
671.57	388.35
671.91	386.82
672.25	385.38
672.58	384.00
672.92	382.73
673.26	381.20
673.60	379.82
673.94	378.69
674.28	377.67
674.62	376.43
674.96	375.16
675.30	373.88
675.64	372.76
675.97	371.48
676.31	370.24
676.65	369.06
676.99	368.00
677.33	366.65
677.67	365.40
678.01	364.05
678.34	362.77
678.68	361.62
679.02	360.34
679.36	359.03
679.70	357.66
680.04	356.35
680.37	355.21
680.71	354.11
681.05	352.91
681.39	351.57
681.73	350.40
682.06	349.36
682.40	348.30
682.74	347.11
683.08	346.05
683.42	344.78
683.75	343.52
684.09	342.22
684.43	341.12
684.77	339.97
685.10	338.89
685.44	337.79
685.78	336.72
686.12	335.85
686.45	334.82
686.79	333.89
687.13	332.87
687.46	331.79
687.80	330.77
688.14	329.87
688.48	328.89
688.81	327.72
689.15	326.66
689.49	325.56
689.82	324.44
690.16	323.29
690.50	322.35
690.83	321.45
691.17	320.56
691.51	319.65
691.84	318.77
692.18	317.90
692.52	316.92
692.85	315.88
693.19	314.92
693.52	314.04
693.86	312.99
694.20	312.14
694.53	311.16
694.87	310.09
695.21	309.01
695.54	308.09
695.88	307.16
696.21	306.18
696.55	305.42
696.88	304.58
697.22	303.85
697.56	303.10
697.89	302.27
698.23	301.51
698.56	300.68
698.90	299.90
699.23	299.06
699.57	298.29
699.90	297.62
700.24	296.81
700.58	296.12
700.91	295.42
701.25	294.79
701.58	294.16
701.92	293.57
702.25	292.90
702.59	292.15
702.92	291.61
703.26	290.98
703.59	290.22
703.93	289.86
704.26	289.14
704.60	288.47
704.93	287.79
705.26	287.11
705.60	286.52
705.93	285.81
706.27	285.28
706.60	284.73
706.94	284.12
707.27	283.40
707.61	282.78
707.94	282.19
708.27	281.45
708.61	281.00
708.94	280.45
709.28	279.82
709.61	279.36
709.94	278.86
710.28	278.41
710.61	278.05
710.95	277.35
711.28	277.01
711.61	276.48
711.95	276.04
712.28	275.48
712.61	274.85
712.95	274.53
713.28	274.03
713.61	273.54
713.95	273.01
714.28	272.78
714.61	272.32
714.95	271.89
715.28	271.53
715.61	270.98
715.95	270.45
716.28	270.21
716.61	269.80
716.95	269.42
717.28	268.94
717.61	268.44
717.94	268.00
718.28	267.49
718.61	267.08
718.94	266.72
719.27	266.33
719.61	266.08
719.94	265.59
720.27	265.17
720.60	264.70
720.94	264.40
721.27	263.91
721.60	263.65
721.93	263.23
722.27	263.01
722.60	262.65
722.93	262.43
723.26	262.04
723.59	261.74
723.93	261.34
724.26	261.03
724.59	260.64
724.92	260.28
725.25	259.97
725.59	259.69
725.92	259.40
726.25	259.12
726.58	258.79
726.91	258.47
727.24	258.26
727.57	258.07
727.91	257.76
728.24	257.57
728.57	257.22
728.90	257.01
729.23	256.50
729.56	256.40
729.89	256.05
730.22	255.73
730.55	255.41
730.89	255.19
731.22	254.91
731.55	254.69
731.88	254.50
732.21	254.13
732.54	253.81
732.87	253.48
733.20	253.30
733.53	253.10
733.86	252.91
734.19	252.56
734.52	252.38
734.85	252.21
735.18	251.85
735.51	251.62
735.84	251.47
736.17	251.33
736.50	250.88
736.83	250.91
737.16	250.60
737.49	250.41
737.82	250.09
738.15	249.89
738.48	249.67
738.81	249.35
739.14	249.18
739.47	248.92
739.80	248.72
740.13	248.41
740.46	248.13
740.79	247.84
741.12	247.70
741.45	247.31
741.78	246.94
742.11	246.79
742.44	246.50
742.77	246.22
743.10	246.00
743.43	245.88
743.75	245.43
744.08	245.61
744.41	245.35
744.74	245.21
745.07	244.85
745.40	244.65
745.73	244.54
746.06	244.32
746.39	244.22
746.71	244.10
747.04	243.96
747.37	243.74
747.70	243.60
748.03	243.47
748.36	243.37
748.68	243.27
749.01	243.12
749.34	243.09
749.67	242.99
750.00	242.89
750.33	242.87
750.65	242.73
750.98	242.33
751.31	242.23
751.64	242.16
751.97	242.25
752.29	242.09
752.62	241.97
752.95	241.92
753.28	241.86
753.60	241.66
753.93	241.63
754.26	241.66
754.59	241.53
754.91	241.26
755.24	241.19
755.57	241.08
755.90	241.00
756.22	240.82
756.55	240.68
756.88	240.50
757.20	240.30
757.53	240.17
757.86	239.97
758.19	239.83
758.51	239.69
758.84	239.46
759.17	239.41
759.49	239.31
759.82	239.33
760.15	239.10
760.47	239.04
760.80	238.85
761.13	238.67
761.45	238.63
761.78	238.64
762.11	238.52
762.43	238.40
762.76	238.16
763.08	238.08
763.41	238.03
763.74	237.86
764.06	237.72
764.39	237.61
764.71	237.59
765.04	237.45
765.37	237.24
765.69	237.12
766.02	236.98
766.34	236.88
766.67	236.66
767.00	236.67
767.32	236.58
767.65	236.60
767.97	236.48
768.30	236.24
768.62	236.06
768.95	235.91
769.27	235.80
769.60	235.66
769.92	235.60
770.25	235.36
770.57	235.29
770.90	235.16
771.22	235.03
771.55	234.78
771.87	234.74
772.20	234.66
772.52	234.81
772.85	234.93
773.17	234.72
773.50	234.54
773.82	234.40
774.15	234.26
774.47	234.07
774.80	234.01
775.12	233.97
775.45	233.90
775.77	233.83
776.09	233.80
776.42	233.79
776.74	233.69
777.07	233.69
777.39	233.61
777.72	233.50
778.04	233.52
778.36	233.53
778.69	233.46
779.01	233.43
779.33	233.19
779.66	233.03
779.98	233.02
780.31	233.03
780.63	233.11
780.95	233.13
781.28	233.03
781.60	232.92
781.92	232.81
782.25	232.81
782.57	232.74
782.89	232.66
783.22	232.59
783.54	232.50
783.86	232.44
784.19	232.44
784.51	232.47
784.83	232.36
785.16	232.32
785.48	232.27
785.80	232.23
786.12	232.23
786.45	232.17
786.77	232.16
787.09	232.18
787.42	232.11
787.74	232.08
788.06	232.13
788.38	232.15
788.71	232.23
789.03	232.22
789.35	232.21
789.67	232.15
789.99	232.21
790.32	232.13
790.64	232.20
790.96	232.39
791.28	232.31
791.61	232.31
791.93	232.41
792.25	232.29
792.57	232.43
792.89	232.30
793.21	232.20
793.54	232.26
793.86	232.17
794.18	232.02
794.50	231.93
794.82	231.82
795.14	231.89
795.47	231.79
795.79	231.75
796.11	231.77
796.43	231.82
796.75	231.86
797.07	231.90
797.39	231.85
797.71	231.61
798.04	231.58
798.36	231.56
798.68	231.52
799.00	231.67
799.32	231.53
799.64	231.54
799.96	231.60
800.28	231.51
800.60	231.45
800.92	231.40
801.24	231.41
801.56	231.38
801.89	231.27
802.21	231.32
802.53	231.29
802.85	231.22
803.17	231.28
803.49	231.03
803.81	230.96
804.13	230.96
804.45	230.90
804.77	230.88
805.09	230.80
805.41	230.67
805.73	230.48
806.05	230.33
806.37	230.35
806.69	230.27
807.01	230.18
807.33	230.10
807.65	230.01
807.97	230.02
808.28	230.00
808.60	229.90
808.92	229.78
809.24	229.73
809.56	229.69
809.88	229.50
810.20	229.52
810.52	229.52
810.84	229.40
811.16	229.28
811.48	229.23
811.80	229.27
812.12	229.17
812.43	229.27
812.75	229.28
813.07	229.20
813.39	229.19
813.71	229.20
814.03	229.27
814.35	229.28
814.67	229.07
814.98	229.00
815.30	228.97
815.62	228.95
815.94	228.83
816.26	228.84
816.58	228.89
816.89	228.90
817.21	228.80
817.53	228.72
817.85	228.83
818.17	228.85
818.48	228.78
818.80	228.83
819.12	228.76
819.44	228.79
819.76	228.71
820.07	228.73
820.39	228.62
820.71	228.53
821.03	228.55
821.34	228.62
821.66	228.64
821.98	228.68
822.30	228.75
822.61	228.95
822.93	228.93
823.25	228.94
823.57	228.95
823.88	229.00
824.20	229.05
824.52	228.96
824.83	228.90
825.15	228.92
825.47	228.98
825.79	229.00
826.10	228.92
826.42	228.98
826.74	229.01
827.05	229.09
827.37	229.17
827.69	229.13
828.00	229.13
828.32	229.18
828.64	229.15
828.95	229.14
829.27	229.11
829.58	229.15
829.90	229.17
830.22	229.21
830.53	229.22
830.85	229.20
831.17	229.21
831.48	229.27
831.80	229.30
832.11	229.33
832.43	229.26
832.75	229.28
833.06	229.41
833.38	229.28
833.69	229.28
834.01	229.31
834.32	229.30
834.64	229.26
834.96	229.20
835.27	229.24
835.59	229.21
835.90	229.19
836.22	229.09
836.53	229.01
836.85	228.92
837.16	229.07
837.48	229.12
837.79	229.27
838.11	229.17
838.42	229.15
838.74	229.10
839.05	229.14
839.37	229.15
839.68	228.98
840.00	229.02
840.31	229.12
840.63	229.15
840.94	229.23
841.26	229.23
841.57	229.31
841.88	229.36
842.20	229.39
842.51	229.31
842.83	229.35
843.14	229.42
843.46	229.42
843.77	229.25
844.08	229.26
844.40	229.11
844.71	229.20
845.03	229.11
845.34	229.07
845.65	229.10
845.97	229.16
846.28	229.19
846.60	229.15
846.91	229.01
847.22	228.86
847.54	228.86
847.85	228.86
848.16	228.78
848.48	228.64
848.79	228.68
849.10	228.62
849.42	228.64
849.73	228.53
850.04	228.57
850.36	228.49
850.67	228.51
850.98	228.60
851.30	228.55
851.61	228.58
851.92	228.60
852.23	228.69
852.55	228.60
852.86	228.63
853.17	228.70
853.49	228.74
853.80	228.89
854.11	228.93
854.42	228.98
854.74	228.94
855.05	229.02
855.36	228.85
855.67	228.98
855.99	228.91
856.30	229.14
856.61	229.10
856.92	229.15
857.23	229.06
857.55	229.00
857.86	228.97
858.17	229.01
858.48	229.00
858.79	228.85
859.11	228.86
859.42	228.76
859.73	228.69
860.04	228.68
860.35	228.65
860.66	228.57
860.98	228.55
861.29	228.64
861.60	228.66
861.91	228.68
862.22	228.59
862.53	228.56
862.84	228.40
863.16	228.48
863.47	228.44
863.78	228.50
864.09	228.46
864.40	228.58
864.71	228.61
865.02	228.65
865.33	228.72
865.64	228.82
865.95	229.03
866.27	229.22
866.58	229.25
866.89	229.18
867.20	229.25
867.51	229.31
867.82	229.30
868.13	229.39
868.44	229.42
868.75	229.52
869.06	229.65
869.37	229.67
869.68	229.63
869.99	229.79
870.30	229.76
870.61	229.83
870.92	229.85
871.23	229.80
871.54	229.90
871.85	229.91
872.16	229.83
872.47	229.70
872.78	229.53
873.09	229.55
873.40	229.66
873.71	229.69
874.02	229.63
874.33	229.54
874.64	229.38
874.95	229.50
875.26	229.43
875.56	229.39
875.87	229.34
876.18	229.36
876.49	229.55
876.80	229.62
877.11	229.61
877.42	229.58
877.73	229.60
878.04	229.51
878.35	229.50
878.66	229.54
878.96	229.51
879.27	229.61
879.58	229.61
879.89	229.54
880.20	229.47
880.51	229.48
880.82	229.53
881.12	229.62
881.43	229.53
881.74	229.43
882.05	229.40
882.36	229.40
882.67	229.36
882.97	229.09
883.28	228.96
883.59	228.94
883.90	228.85
884.21	228.90
884.51	228.87
884.82	228.86
885.13	228.83
885.44	228.83
885.74	228.80
886.05	228.76
886.36	228.73
886.67	228.74
886.98	228.83
887.28	228.85
887.59	228.81
887.90	228.72
888.20	228.65
888.51	228.72
888.82	228.59
889.13	228.61
889.43	228.81
889.74	228.79
890.05	228.80
890.35	228.71
890.66	228.60
890.97	228.58
891.28	228.49
891.58	228.41
891.89	228.41
892.20	228.19
892.50	228.18
892.81	228.21
893.12	228.20
893.42	228.04
893.73	227.95
894.04	227.88
894.34	227.92
894.65	227.87
894.95	227.72
895.26	227.77
895.57	227.69
895.87	227.44
896.18	227.55
896.48	227.48
896.79	227.54
897.10	227.63
897.40	227.60
897.71	227.63
898.01	227.60
898.32	227.54
898.63	227.62
898.93	227.65
899.24	227.56
899.54	227.55
899.85	227.52
900.15	227.55
900.46	227.66
900.76	227.69
901.07	227.78
901.38	227.75
901.68	227.72
901.99	227.68
902.29	227.71
902.60	227.64
902.90	227.71
903.21	227.72
903.51	227.75
903.82	227.76
904.12	227.89
904.43	228.09
904.73	228.11
905.03	228.18
905.34	228.40
905.64	228.47
905.95	228.52
906.25	228.61
906.56	228.79
906.86	228.68
907.17	228.62
907.47	228.73
907.77	228.80
908.08	228.80
908.38	228.96
908.69	229.01
908.99	229.09
909.30	229.12
909.60	229.17
909.90	229.20
910.21	229.25
910.51	229.16
910.81	229.20
911.12	229.23
911.42	229.29
911.73	229.05
912.03	229.07
912.33	229.01
912.64	229.02
912.94	228.98
913.24	229.09
913.55	229.12
913.85	229.18
914.15	229.34
914.46	229.55
914.76	229.52
915.06	229.51
915.37	229.45
915.67	229.38
915.97	229.40
916.27	229.33
916.58	229.30
916.88	229.28
917.18	229.17
917.49	229.36
917.79	229.39
918.09	229.41
918.39	229.43
918.70	229.43
919.00	229.50
919.30	229.56
919.60	229.56
919.91	229.57
920.21	229.47
920.51	229.39
920.81	229.30
921.12	229.22
921.42	229.11
921.72	229.16
922.02	229.29
922.32	229.34
922.63	229.34
922.93	229.46
923.23	229.42
923.53	229.30
923.83	229.18
924.13	229.09
924.44	229.00
924.74	229.00
925.04	229.05
925.34	228.94
925.64	228.84
925.94	228.80
926.24	228.90
926.55	228.82
926.85	228.77
927.15	228.71
927.45	228.76
927.75	228.85
928.05	228.81
928.35	228.62
928.65	228.53
928.95	228.50
929.26	228.33
929.56	228.34
929.86	228.37
930.16	228.30
930.46	228.30
930.76	228.37
931.06	228.27
931.36	228.22
931.66	228.16
931.96	228.08
932.26	227.97
932.56	227.83
932.86	227.81
933.16	227.80
933.46	227.82
933.76	227.85
934.06	227.84
934.36	227.80
934.66	227.78
934.96	227.78
935.26	227.80
935.56	227.85
935.86	227.82
936.16	227.78
936.46	227.73
936.76	227.80
937.06	227.78
937.36	227.82
937.66	227.78
937.96	227.81
938.26	227.81
938.56	227.84
938.86	227.84
939.16	227.96
939.46	227.89
939.76	227.87
940.06	227.81
940.35	227.73
940.65	227.77
940.95	227.81
941.25	227.78
941.55	227.66
941.85	227.59
942.15	227.68
942.45	227.81
942.75	227.86
943.04	227.81
943.34	227.75
943.64	227.76
943.94	227.72
944.24	227.83
944.54	227.90
944.84	227.96
945.13	227.98
945.43	227.94
945.73	228.05
946.03	228.12
946.33	228.19
946.62	228.21
946.92	228.18
947.22	228.20
947.52	228.24
947.82	228.28
948.11	228.42
948.41	228.35
948.71	228.33
949.01	228.33
949.31	228.37
949.60	228.39
949.90	228.38
950.20	228.47
950.50	228.45
950.79	228.40
951.09	228.45
951.39	228.51
951.69	228.51
951.98	228.52
952.28	228.50
952.58	228.35
952.87	228.43
953.17	228.55
953.47	228.52
953.76	228.64
954.06	228.76
954.36	228.70
954.66	228.76
954.95	228.79
955.25	228.86
955.55	228.90
955.84	229.01
956.14	229.10
956.44	229.15
956.73	229.18
957.03	229.21
957.32	229.27
957.62	229.33
957.92	229.42
958.21	229.34
958.51	229.50
958.81	229.63
959.10	229.59
959.40	229.57
959.69	229.60
959.99	229.53
960.29	229.44
960.58	229.36
960.88	229.41
961.17	229.37
961.47	229.31
961.76	229.17
962.06	229.16
962.36	229.04
962.65	229.02
962.95	228.93
963.24	228.86
963.54	228.80
963.83	228.64
964.13	228.55
964.42	228.59
964.72	228.38
965.01	228.36
965.31	228.29
965.60	228.18
965.90	228.33
966.19	228.23
966.49	228.25
966.78	228.27
967.08	228.14
967.37	228.00
967.67	227.92
967.96	228.08
968.26	228.01
968.55	228.01
968.85	228.00
969.14	227.93
969.43	227.96
969.73	227.79
970.02	227.90
970.32	227.91
970.61	227.85
970.91	227.78
971.20	227.79
971.49	227.76
971.79	227.80
972.08	227.63
972.38	227.66
972.67	227.69
972.96	227.68
973.26	227.64
973.55	227.87
973.85	227.93
974.14	227.81
974.43	227.80
974.73	227.75
975.02	227.70
975.31	227.75
975.61	227.81
975.90	227.90
976.19	227.77
976.49	227.80
976.78	227.81
977.07	227.87
977.37	227.80
977.66	227.85
977.95	227.82
978.24	227.79
978.54	227.84
978.83	227.86
979.12	227.96
979.42	228.04
979.71	227.95
980.00	227.87
980.29	227.95
980.59	227.91
980.88	228.04
981.17	227.98
981.46	227.97
981.76	227.94
982.05	227.99
982.34	227.94
982.63	227.97
982.93	228.00
983.22	228.09
983.51	228.21
983.80	228.24
984.09	228.37
984.39	228.48
984.68	228.46
984.97	228.38
985.26	228.43
985.55	228.56
985.85	228.54
986.14	228.67
986.43	228.70
986.72	228.80
987.01	228.72
987.30	228.83
987.59	228.81
987.89	228.78
988.18	228.79
988.47	228.96
988.76	228.86
989.05	228.86
989.34	228.75
989.63	228.82
989.92	228.80
990.22	228.75
990.51	228.60
990.80	228.61
991.09	228.70
991.38	228.62
991.67	228.52
991.96	228.53
992.25	228.45
992.54	228.35
992.83	228.34
993.12	228.39
993.41	228.31
993.70	228.43
993.99	228.41
994.28	228.26
994.58	228.20
994.87	228.18
995.16	228.14
995.45	228.22
995.74	228.03
996.03	228.06
996.32	228.06
996.61	228.14
996.90	228.08
997.19	228.02
997.48	228.01
997.77	227.95
998.06	227.93
998.34	227.95
998.63	227.89
998.92	227.75
999.21	227.75
999.50	227.82
999.79	227.77
1000.08	227.78
1000.37	227.98
1000.66	227.96
1000.95	228.04
1001.24	228.03
1001.53	227.97
1001.82	227.94
1002.11	227.88
1002.40	227.83
1002.68	227.86
1002.97	228.00
1003.26	228.07
1003.55	227.98
1003.84	227.97
1004.13	228.00
1004.42	227.96
1004.71	228.01
1004.99	228.06
1005.28	227.99
1005.57	227.94
1005.86	227.89
1006.15	227.87
1006.44	227.76
1006.72	227.80
1007.01	227.71
1007.30	227.72
1007.59	227.77
1007.88	227.73
1008.17	227.81
1008.45	227.84
1008.74	227.73
1009.03	227.70
1009.32	227.61
1009.60	227.67
1009.89	227.61
1010.18	227.53
1010.47	227.56
1010.76	227.60
1011.04	227.61
1011.33	227.70
1011.62	227.66
1011.91	227.73
1012.19	227.84
1012.48	227.91
1012.77	227.88
1013.05	228.11
1013.34	228.11
1013.63	228.10
1013.92	228.20
1014.20	228.20
1014.49	228.16
1014.78	228.29
1015.06	228.16
1015.35	228.12
1015.64	228.07
1015.92	228.17
1016.21	228.18
1016.50	228.18
1016.78	228.17
1017.07	228.24
1017.36	228.28
1017.64	228.36
1017.93	228.33
1018.22	228.31
1018.50	228.21
1018.79	228.24
1019.08	228.12
1019.36	228.21
1019.65	228.14
1019.93	228.25
1020.22	228.24
1020.51	228.40
1020.79	228.36
1021.08	229.30
1021.36	226.80
1021.65	228.60
1021.94	229.40
1022.22	228.90
1022.51	226.60
1022.79	230.30
1023.08	229.00
1023.36	230.70
1023.65	228.30
>>>>>End Processed Spectral Data<<<<<
