SpectraSuite Data File
++++++++++++++++++++++++++++++++++++
Date: Fri Feb 01 14:36:33 EST 2013
User: group
Dark Spectrum Present: No
Reference Spectrum Present: No
Number of Sampled Component Spectra: 1
Spectrometers: USB2E7196
Integration Time (usec): 70000 (USB2E7196)
Spectra Averaged: 10 (USB2E7196)
Boxcar Smoothing: 10 (USB2E7196)
Correct for Electrical Dark: No (USB2E7196)
Strobe/Lamp Enabled: No (USB2E7196)
Correct for Detector Non-linearity: No (USB2E7196)
Correct for Stray Light: No (USB2E7196)
Number of Pixels in Processed Spectrum: 2048
>>>>>Begin Processed Spectral Data<<<<<
339.09	0.00
339.48	216.40
339.86	219.00
340.24	218.30
340.63	220.40
341.01	224.20
341.39	224.30
341.78	225.40
342.16	224.10
342.54	225.30
342.93	214.36
343.31	225.21
343.69	225.80
344.07	226.14
344.46	226.57
344.84	226.95
345.22	227.10
345.60	227.22
345.99	227.30
346.37	227.40
346.75	227.51
347.13	227.57
347.52	227.64
347.90	227.70
348.28	227.74
348.66	227.78
349.05	227.70
349.43	227.74
349.81	227.73
350.19	227.82
350.57	227.89
350.96	227.80
351.34	227.71
351.72	227.72
352.10	227.88
352.48	227.97
352.87	228.00
353.25	228.02
353.63	228.22
354.01	228.34
354.39	228.52
354.77	228.63
355.15	228.68
355.54	228.76
355.92	228.76
356.30	228.80
356.68	229.02
357.06	229.13
357.44	229.25
357.82	229.40
358.20	229.45
358.58	229.51
358.97	229.70
359.35	229.92
359.73	230.01
360.11	230.03
360.49	230.02
360.87	230.01
361.25	230.23
361.63	230.23
362.01	230.31
362.39	230.38
362.77	230.44
363.15	230.56
363.53	230.57
363.91	230.66
364.29	230.71
364.67	230.53
365.05	230.60
365.43	230.54
365.81	230.58
366.19	230.62
366.57	230.61
366.95	230.67
367.33	230.63
367.71	230.62
368.09	230.68
368.47	230.75
368.85	230.87
369.23	230.85
369.61	230.85
369.99	230.94
370.37	230.95
370.75	230.96
371.13	230.80
371.51	230.70
371.89	230.57
372.27	230.57
372.65	230.60
373.03	230.56
373.41	230.63
373.78	230.61
374.16	230.37
374.54	230.38
374.92	230.25
375.30	230.24
375.68	230.09
376.06	229.92
376.44	229.77
376.82	229.63
377.19	229.50
377.57	229.36
377.95	229.08
378.33	228.98
378.71	228.73
379.09	228.79
379.47	228.77
379.84	228.70
380.22	228.53
380.60	228.45
380.98	228.31
381.36	228.17
381.73	227.91
382.11	227.97
382.49	227.88
382.87	227.76
383.25	227.66
383.62	227.84
384.00	227.76
384.38	227.76
384.76	227.67
385.13	227.70
385.51	227.58
385.89	227.44
386.27	227.34
386.64	227.38
387.02	227.24
387.40	227.11
387.78	227.10
388.15	227.04
388.53	226.98
388.91	226.86
389.29	226.87
389.66	226.94
390.04	226.86
390.42	226.72
390.79	226.73
391.17	226.64
391.55	226.34
391.92	226.36
392.30	226.28
392.68	226.21
393.05	226.06
393.43	226.12
393.81	226.15
394.18	226.03
394.56	226.02
394.94	226.02
395.31	226.15
395.69	226.11
396.06	226.14
396.44	226.17
396.82	226.19
397.19	226.24
397.57	226.22
397.95	226.27
398.32	226.24
398.70	226.36
399.07	226.45
399.45	226.50
399.82	226.51
400.20	226.59
400.58	226.74
400.95	226.88
401.33	227.07
401.70	227.39
402.08	227.56
402.45	227.67
402.83	227.87
403.20	227.96
403.58	228.15
403.95	228.38
404.33	228.53
404.71	228.85
405.08	229.15
405.46	229.47
405.83	229.65
406.21	230.01
406.58	230.24
406.96	230.62
407.33	231.09
407.70	231.46
408.08	232.06
408.45	232.53
408.83	233.00
409.20	233.24
409.58	233.53
409.95	234.05
410.33	234.60
410.70	235.11
411.08	235.66
411.45	236.33
411.82	236.87
412.20	237.59
412.57	238.33
412.95	238.86
413.32	239.63
413.69	240.49
414.07	241.33
414.44	242.23
414.82	243.02
415.19	244.06
415.56	245.18
415.94	246.15
416.31	247.33
416.68	248.50
417.06	250.01
417.43	251.46
417.81	253.02
418.18	254.55
418.55	256.22
418.93	258.07
419.30	259.87
419.67	261.89
420.04	263.76
420.42	265.90
420.79	268.37
421.16	270.65
421.54	273.12
421.91	275.65
422.28	278.31
422.66	281.28
423.03	284.02
423.40	286.93
423.77	289.98
424.15	293.03
424.52	296.28
424.89	299.76
425.26	303.10
425.64	306.28
426.01	309.74
426.38	313.34
426.75	317.10
427.13	320.89
427.50	324.89
427.87	329.20
428.24	333.35
428.61	337.26
428.99	341.67
429.36	346.49
429.73	351.12
430.10	355.74
430.47	360.34
430.85	365.19
431.22	370.36
431.59	375.78
431.96	380.87
432.33	386.60
432.70	392.10
433.08	398.70
433.45	404.75
433.82	410.85
434.19	417.47
434.56	423.99
434.93	430.31
435.30	436.49
435.68	443.50
436.05	450.35
436.42	457.19
436.79	463.33
437.16	469.90
437.53	477.00
437.90	483.83
438.27	490.79
438.64	497.90
439.01	504.48
439.38	510.50
439.75	516.24
440.13	522.62
440.50	528.96
440.87	534.02
441.24	539.54
441.61	545.56
441.98	550.05
442.35	555.20
442.72	560.50
443.09	565.80
443.46	569.02
443.83	571.50
444.20	573.66
444.57	576.81
444.94	578.31
445.31	580.08
445.68	581.90
446.05	583.18
446.42	583.10
446.79	582.99
447.16	582.85
447.53	583.15
447.90	581.47
448.27	579.39
448.64	576.45
449.01	574.58
449.37	570.58
449.74	566.64
450.11	562.04
450.48	556.78
450.85	551.53
451.22	547.11
451.59	542.76
451.96	538.81
452.33	533.00
452.70	528.20
453.07	522.05
453.43	515.77
453.80	509.46
454.17	503.58
454.54	497.97
454.91	491.77
455.28	485.62
455.65	480.17
456.02	474.58
456.38	469.62
456.75	463.39
457.12	458.32
457.49	453.55
457.86	448.65
458.23	444.38
458.59	439.56
458.96	434.64
459.33	430.27
459.70	425.81
460.07	422.44
460.43	418.26
460.80	414.32
461.17	410.91
461.54	407.37
461.91	404.05
462.27	400.57
462.64	397.62
463.01	394.48
463.38	391.27
463.74	388.04
464.11	385.45
464.48	383.07
464.85	380.40
465.21	378.20
465.58	375.89
465.95	373.45
466.32	371.17
466.68	369.00
467.05	366.84
467.42	364.61
467.78	362.44
468.15	360.26
468.52	358.61
468.88	356.44
469.25	354.55
469.62	353.09
469.98	351.57
470.35	349.89
470.72	348.32
471.08	346.55
471.45	345.29
471.82	343.66
472.18	341.99
472.55	340.83
472.92	339.60
473.28	338.31
473.65	337.07
474.02	335.80
474.38	334.72
474.75	333.84
475.11	332.91
475.48	332.08
475.85	331.43
476.21	330.65
476.58	330.06
476.94	329.35
477.31	328.54
477.67	327.71
478.04	327.13
478.41	326.74
478.77	326.51
479.14	325.91
479.50	325.66
479.87	325.42
480.23	325.09
480.60	324.69
480.96	324.36
481.33	324.29
481.69	324.44
482.06	324.28
482.42	324.02
482.79	324.01
483.15	323.88
483.52	324.04
483.88	324.23
484.25	324.17
484.61	324.35
484.98	324.68
485.34	324.98
485.71	325.37
486.07	325.69
486.44	325.90
486.80	326.40
487.17	326.81
487.53	327.40
487.90	327.94
488.26	328.60
488.62	329.32
488.99	329.93
489.35	330.49
489.72	331.23
490.08	332.15
490.44	332.87
490.81	333.86
491.17	334.70
491.54	335.67
491.90	336.63
492.26	337.75
492.63	338.65
492.99	339.75
493.36	340.95
493.72	342.15
494.08	343.26
494.45	344.57
494.81	345.90
495.17	347.18
495.54	348.63
495.90	350.00
496.26	351.37
496.63	352.67
496.99	354.03
497.35	355.58
497.72	357.02
498.08	358.43
498.44	359.74
498.80	361.31
499.17	362.59
499.53	364.24
499.89	365.70
500.26	367.23
500.62	368.60
500.98	369.87
501.34	371.27
501.71	372.68
502.07	373.83
502.43	375.00
502.79	376.28
503.16	377.50
503.52	378.63
503.88	379.71
504.24	380.87
504.60	382.18
504.97	383.21
505.33	384.21
505.69	385.40
506.05	386.48
506.41	387.27
506.78	388.40
507.14	389.18
507.50	390.18
507.86	390.90
508.22	391.76
508.59	392.56
508.95	393.35
509.31	394.06
509.67	394.72
510.03	395.57
510.39	396.35
510.75	396.96
511.12	397.64
511.48	398.30
511.84	398.91
512.20	399.18
512.56	399.68
512.92	400.10
513.28	400.57
513.64	400.94
514.00	401.31
514.37	401.44
514.73	401.70
515.09	401.82
515.45	402.00
515.81	402.10
516.17	402.38
516.53	402.44
516.89	402.58
517.25	402.82
517.61	402.86
517.97	402.64
518.33	402.65
518.69	402.74
519.05	402.89
519.41	403.08
519.77	403.53
520.13	403.65
520.49	403.78
520.85	403.83
521.21	403.99
521.57	404.27
521.93	404.58
522.29	404.96
522.65	405.12
523.01	405.63
523.37	406.02
523.73	406.26
524.09	406.72
524.45	407.18
524.81	407.72
525.17	408.30
525.53	409.28
525.89	410.13
526.25	411.03
526.61	411.71
526.97	412.41
527.33	413.01
527.68	414.24
528.04	415.24
528.40	416.38
528.76	417.60
529.12	418.74
529.48	420.14
529.84	421.52
530.20	423.20
530.56	424.85
530.91	426.63
531.27	428.54
531.63	430.36
531.99	432.20
532.35	434.07
532.71	436.03
533.07	438.13
533.42	440.34
533.78	442.39
534.14	444.80
534.50	447.09
534.86	449.77
535.21	451.95
535.57	454.73
535.93	457.38
536.29	460.05
536.65	462.87
537.00	465.30
537.36	468.12
537.72	470.89
538.08	473.72
538.44	476.63
538.79	479.69
539.15	482.60
539.51	486.04
539.87	489.51
540.22	492.95
540.58	496.34
540.94	499.50
541.29	502.94
541.65	506.33
542.01	510.07
542.37	513.59
542.72	517.19
543.08	520.84
543.44	524.66
543.79	528.15
544.15	531.93
544.51	536.15
544.87	539.90
545.22	543.79
545.58	547.60
545.94	551.48
546.29	555.28
546.65	559.30
547.01	563.19
547.36	567.10
547.72	571.10
548.07	574.97
548.43	578.95
548.79	583.19
549.14	587.29
549.50	591.16
549.86	595.08
550.21	599.22
550.57	603.32
550.92	607.21
551.28	611.48
551.64	615.60
551.99	619.71
552.35	623.95
552.70	628.24
553.06	632.61
553.41	636.98
553.77	641.43
554.13	645.61
554.48	649.89
554.84	654.20
555.19	658.19
555.55	662.56
555.90	666.76
556.26	670.74
556.61	674.86
556.97	679.10
557.32	683.46
557.68	687.64
558.03	691.79
558.39	696.00
558.74	700.29
559.10	704.54
559.45	708.38
559.81	712.87
560.16	716.60
560.52	720.57
560.87	724.68
561.23	728.57
561.58	732.75
561.94	736.63
562.29	740.37
562.64	744.27
563.00	747.86
563.35	751.84
563.71	755.74
564.06	759.76
564.42	763.63
564.77	767.32
565.12	771.19
565.48	774.97
565.83	778.44
566.19	781.85
566.54	785.29
566.89	788.80
567.25	791.96
567.60	795.92
567.96	799.50
568.31	802.62
568.66	805.60
569.02	808.65
569.37	811.49
569.72	814.54
570.08	817.58
570.43	820.53
570.78	823.19
571.14	825.59
571.49	828.00
571.84	830.87
572.20	833.40
572.55	835.52
572.90	837.69
573.26	840.09
573.61	842.31
573.96	844.28
574.31	846.27
574.67	847.99
575.02	849.44
575.37	850.95
575.72	852.22
576.08	854.17
576.43	855.78
576.78	857.58
577.13	859.16
577.49	860.77
577.84	862.15
578.19	863.64
578.54	865.16
578.90	866.34
579.25	867.04
579.60	867.89
579.95	868.92
580.30	869.73
580.66	870.35
581.01	871.16
581.36	871.97
581.71	872.93
582.06	873.74
582.42	874.38
582.77	874.88
583.12	875.63
583.47	876.10
583.82	876.45
584.17	876.66
584.53	876.73
584.88	876.90
585.23	877.10
585.58	877.18
585.93	877.35
586.28	877.49
586.63	877.92
586.98	878.06
587.34	878.18
587.69	878.28
588.04	878.42
588.39	878.53
588.74	877.95
589.09	877.57
589.44	877.16
589.79	876.94
590.14	876.91
590.49	876.65
590.84	876.00
591.19	875.45
591.54	874.45
591.89	873.67
592.25	873.23
592.60	872.31
592.95	871.49
593.30	870.42
593.65	869.62
594.00	868.44
594.35	867.84
594.70	866.61
595.05	865.68
595.40	864.52
595.75	863.20
596.10	862.52
596.45	861.58
596.80	860.79
597.15	859.73
597.50	858.25
597.85	857.29
598.19	856.40
598.54	855.51
598.89	854.86
599.24	854.08
599.59	852.90
599.94	851.92
600.29	850.81
600.64	849.60
600.99	848.02
601.34	846.72
601.69	844.90
602.04	843.55
602.39	842.05
602.74	840.82
603.08	839.59
603.43	838.41
603.78	836.93
604.13	835.12
604.48	833.66
604.83	832.00
605.18	830.31
605.53	828.28
605.87	825.99
606.22	824.30
606.57	822.25
606.92	820.27
607.27	818.57
607.62	816.70
607.96	815.18
608.31	813.59
608.66	811.54
609.01	809.42
609.36	807.22
609.70	804.86
610.05	802.50
610.40	800.18
610.75	797.75
611.10	795.57
611.44	793.00
611.79	790.41
612.14	788.16
612.49	785.49
612.83	783.14
613.18	781.13
613.53	778.58
613.88	776.11
614.22	773.32
614.57	770.40
614.92	767.50
615.27	764.81
615.61	761.97
615.96	759.21
616.31	756.87
616.65	754.72
617.00	752.64
617.35	750.21
617.70	747.65
618.04	744.88
618.39	742.24
618.74	739.92
619.08	737.29
619.43	734.63
619.78	732.16
620.12	729.52
620.47	726.70
620.82	724.05
621.16	721.48
621.51	719.35
621.85	716.83
622.20	714.30
622.55	711.65
622.89	709.32
623.24	707.08
623.59	704.67
623.93	702.33
624.28	699.56
624.62	697.02
624.97	694.70
625.32	692.34
625.66	689.92
626.01	687.51
626.35	685.44
626.70	683.04
627.04	680.83
627.39	678.38
627.73	675.95
628.08	673.59
628.43	670.99
628.77	668.21
629.12	665.72
629.46	663.62
629.81	660.91
630.15	658.10
630.50	655.47
630.84	652.56
631.19	649.58
631.53	646.94
631.88	644.14
632.22	641.28
632.57	638.79
632.91	635.82
633.26	633.12
633.60	630.16
633.95	627.65
634.29	624.98
634.64	622.64
634.98	620.18
635.32	617.52
635.67	615.32
636.01	612.88
636.36	610.45
636.70	607.84
637.05	605.53
637.39	603.33
637.73	600.82
638.08	598.99
638.42	596.86
638.77	594.50
639.11	592.33
639.45	589.98
639.80	587.50
640.14	585.31
640.49	583.05
640.83	580.78
641.17	578.65
641.52	576.14
641.86	573.55
642.20	571.32
642.55	568.93
642.89	566.60
643.23	564.17
643.58	562.20
643.92	559.83
644.26	557.51
644.61	555.28
644.95	553.06
645.29	550.34
645.64	547.77
645.98	545.60
646.32	543.34
646.66	540.97
647.01	538.60
647.35	536.35
647.69	533.94
648.04	531.62
648.38	528.90
648.72	526.46
649.06	523.91
649.41	521.36
649.75	518.83
650.09	516.26
650.43	513.78
650.78	511.12
651.12	508.75
651.46	506.49
651.80	504.24
652.14	501.90
652.49	499.65
652.83	497.47
653.17	494.86
653.51	492.35
653.85	490.16
654.20	487.94
654.54	485.56
654.88	483.13
655.22	480.73
655.56	478.57
655.90	476.34
656.25	474.48
656.59	472.37
656.93	470.32
657.27	468.21
657.61	466.20
657.95	464.09
658.29	462.02
658.64	459.76
658.98	457.46
659.32	455.24
659.66	453.14
660.00	450.96
660.34	449.10
660.68	447.20
661.02	445.06
661.36	443.08
661.70	441.15
662.05	439.50
662.39	437.78
662.73	435.82
663.07	434.08
663.41	432.27
663.75	430.51
664.09	428.97
664.43	427.27
664.77	425.40
665.11	423.62
665.45	421.70
665.79	419.99
666.13	418.13
666.47	416.43
666.81	414.61
667.15	412.92
667.49	411.21
667.83	409.58
668.17	407.92
668.51	406.06
668.85	404.40
669.19	402.76
669.53	401.02
669.87	399.47
670.21	397.76
670.55	396.10
670.89	394.60
671.23	392.91
671.57	391.40
671.91	389.98
672.25	388.48
672.58	387.18
672.92	385.67
673.26	384.46
673.60	383.12
673.94	381.73
674.28	380.44
674.62	379.13
674.96	377.76
675.30	376.48
675.64	375.22
675.97	373.96
676.31	372.57
676.65	371.40
676.99	370.21
677.33	369.05
677.67	367.77
678.01	366.42
678.34	365.18
678.68	363.98
679.02	362.69
679.36	361.50
679.70	360.27
680.04	359.12
680.37	357.78
680.71	356.53
681.05	355.48
681.39	354.40
681.73	353.21
682.06	352.03
682.40	350.99
682.74	349.97
683.08	348.90
683.42	347.86
683.75	346.70
684.09	345.55
684.43	344.51
684.77	343.29
685.10	342.17
685.44	341.12
685.78	339.95
686.12	338.98
686.45	337.88
686.79	336.73
687.13	335.78
687.46	334.76
687.80	333.82
688.14	332.70
688.48	331.55
688.81	330.44
689.15	329.59
689.49	328.51
689.82	327.40
690.16	326.37
690.50	325.34
690.83	324.34
691.17	323.13
691.51	322.19
691.84	321.34
692.18	320.37
692.52	319.33
692.85	318.35
693.19	317.33
693.52	316.31
693.86	315.36
694.20	314.26
694.53	313.31
694.87	312.40
695.21	311.37
695.54	310.48
695.88	309.54
696.21	308.42
696.55	307.45
696.88	306.60
697.22	305.68
697.56	304.78
697.89	303.94
698.23	303.29
698.56	302.23
698.90	301.39
699.23	300.51
699.57	299.64
699.90	298.91
700.24	298.08
700.58	297.30
700.91	296.61
701.25	296.01
701.58	295.32
701.92	294.52
702.25	293.87
702.59	293.17
702.92	292.54
703.26	292.01
703.59	291.52
703.93	290.92
704.26	290.28
704.60	289.54
704.93	288.83
705.26	288.13
705.60	287.69
705.93	286.97
706.27	286.54
706.60	285.97
706.94	285.51
707.27	284.89
707.61	284.27
707.94	283.66
708.27	283.09
708.61	282.46
708.94	281.86
709.28	281.40
709.61	280.70
709.94	280.23
710.28	279.60
710.61	278.88
710.95	278.29
711.28	277.89
711.61	277.40
711.95	276.86
712.28	276.30
712.61	275.74
712.95	275.35
713.28	274.82
713.61	274.38
713.95	273.69
714.28	273.34
714.61	272.96
714.95	272.50
715.28	271.99
715.61	271.58
715.95	271.23
716.28	270.73
716.61	270.53
716.95	269.97
717.28	269.52
717.61	269.19
717.94	268.80
718.28	268.20
718.61	267.94
718.94	267.56
719.27	267.19
719.61	266.80
719.94	266.50
720.27	266.14
720.60	265.77
720.94	265.48
721.27	265.10
721.60	264.77
721.93	264.46
722.27	264.17
722.60	263.79
722.93	263.39
723.26	263.12
723.59	262.73
723.93	262.50
724.26	262.26
724.59	261.80
724.92	261.42
725.25	261.20
725.59	260.87
725.92	260.61
726.25	260.34
726.58	260.05
726.91	259.65
727.24	259.26
727.57	258.98
727.91	258.68
728.24	258.31
728.57	258.04
728.90	257.72
729.23	257.33
729.56	257.20
729.89	257.00
730.22	256.66
730.55	256.31
730.89	255.97
731.22	255.75
731.55	255.65
731.88	255.38
732.21	255.00
732.54	254.74
732.87	254.49
733.20	254.19
733.53	253.96
733.86	253.83
734.19	253.60
734.52	253.33
734.85	253.12
735.18	252.85
735.51	252.62
735.84	252.42
736.17	252.25
736.50	251.81
736.83	251.69
737.16	251.38
737.49	251.19
737.82	251.02
738.15	250.73
738.48	250.38
738.81	250.23
739.14	250.01
739.47	249.63
739.80	249.38
740.13	249.21
740.46	248.95
740.79	248.52
741.12	248.12
741.45	247.90
741.78	247.61
742.11	247.44
742.44	247.14
742.77	246.81
743.10	246.54
743.43	246.30
743.75	245.89
744.08	245.96
744.41	245.69
744.74	245.31
745.07	245.04
745.40	244.90
745.73	244.63
746.06	244.48
746.39	244.38
746.71	244.08
747.04	243.83
747.37	243.61
747.70	243.52
748.03	243.54
748.36	243.44
748.68	243.22
749.01	243.00
749.34	242.77
749.67	242.67
750.00	242.50
750.33	242.61
750.65	242.47
750.98	241.99
751.31	241.81
751.64	241.77
751.97	241.70
752.29	241.56
752.62	241.37
752.95	241.21
753.28	240.99
753.60	240.84
753.93	240.76
754.26	240.58
754.59	240.44
754.91	240.25
755.24	239.89
755.57	239.72
755.90	239.57
756.22	239.42
756.55	239.34
756.88	239.28
757.20	238.85
757.53	238.69
757.86	238.70
758.19	238.69
758.51	238.55
758.84	238.32
759.17	238.10
759.49	238.06
759.82	238.08
760.15	238.03
760.47	238.01
760.80	237.82
761.13	237.80
761.45	237.71
761.78	237.59
762.11	237.67
762.43	237.51
762.76	237.46
763.08	237.39
763.41	237.33
763.74	237.21
764.06	237.26
764.39	237.19
764.71	237.08
765.04	236.93
765.37	236.88
765.69	236.82
766.02	236.86
766.34	236.77
766.67	236.65
767.00	236.68
767.32	236.65
767.65	236.73
767.97	236.65
768.30	236.51
768.62	236.47
768.95	236.18
769.27	236.20
769.60	236.13
769.92	236.09
770.25	235.90
770.57	235.77
770.90	235.61
771.22	235.46
771.55	235.33
771.87	235.17
772.20	235.15
772.52	235.20
772.85	235.31
773.17	235.30
773.50	235.12
773.82	234.98
774.15	234.82
774.47	234.62
774.80	234.43
775.12	234.40
775.45	234.30
775.77	234.44
776.09	234.38
776.42	234.29
776.74	234.25
777.07	234.26
777.39	234.18
777.72	234.04
778.04	234.06
778.36	233.98
778.69	234.00
779.01	233.89
779.33	233.78
779.66	233.50
779.98	233.33
780.31	233.35
780.63	233.28
780.95	233.29
781.28	233.19
781.60	233.13
781.92	233.10
782.25	232.96
782.57	232.87
782.89	232.74
783.22	232.63
783.54	232.60
783.86	232.44
784.19	232.35
784.51	232.38
784.83	232.27
785.16	232.23
785.48	232.11
785.80	231.99
786.12	231.94
786.45	231.90
786.77	231.97
787.09	231.85
787.42	231.74
787.74	231.64
788.06	231.65
788.38	231.59
788.71	231.55
789.03	231.51
789.35	231.48
789.67	231.42
789.99	231.46
790.32	231.29
790.64	231.27
790.96	231.44
791.28	231.47
791.61	231.44
791.93	231.48
792.25	231.45
792.57	231.60
792.89	231.38
793.21	231.41
793.54	231.30
793.86	231.29
794.18	231.30
794.50	231.32
794.82	231.23
795.14	231.40
795.47	231.35
795.79	231.40
796.11	231.31
796.43	231.39
796.75	231.33
797.07	231.43
797.39	231.45
797.71	231.35
798.04	231.36
798.36	231.31
798.68	231.20
799.00	231.18
799.32	231.04
799.64	231.21
799.96	231.16
800.28	231.10
800.60	231.03
800.92	231.08
801.24	230.98
801.56	231.06
801.89	230.86
802.21	230.95
802.53	230.89
802.85	231.00
803.17	231.09
803.49	231.09
803.81	231.11
804.13	231.11
804.45	230.92
804.77	230.83
805.09	230.84
805.41	230.90
805.73	230.94
806.05	230.94
806.37	230.89
806.69	230.79
807.01	230.78
807.33	230.80
807.65	230.68
807.97	230.80
808.28	230.84
808.60	230.88
808.92	230.82
809.24	230.94
809.56	230.82
809.88	230.70
810.20	230.74
810.52	230.76
810.84	230.67
811.16	230.78
811.48	230.79
811.80	230.85
812.12	230.84
812.43	230.85
812.75	230.71
813.07	230.69
813.39	230.73
813.71	230.62
814.03	230.46
814.35	230.44
814.67	230.32
814.98	230.24
815.30	230.19
815.62	230.04
815.94	229.84
816.26	229.90
816.58	229.87
816.89	229.81
817.21	229.74
817.53	229.68
817.85	229.60
818.17	229.57
818.48	229.50
818.80	229.40
819.12	229.27
819.44	229.30
819.76	229.18
820.07	229.05
820.39	229.01
820.71	229.09
821.03	229.10
821.34	229.03
821.66	228.93
821.98	228.91
822.30	228.87
822.61	229.01
822.93	228.81
823.25	228.74
823.57	228.69
823.88	228.64
824.20	228.65
824.52	228.65
824.83	228.55
825.15	228.37
825.47	228.29
825.79	228.32
826.10	228.29
826.42	228.25
826.74	228.33
827.05	228.35
827.37	228.39
827.69	228.23
828.00	228.25
828.32	228.25
828.64	228.16
828.95	228.26
829.27	228.13
829.58	228.20
829.90	228.22
830.22	228.28
830.53	228.24
830.85	228.26
831.17	228.16
831.48	228.32
831.80	228.52
832.11	228.52
832.43	228.51
832.75	228.48
833.06	228.55
833.38	228.55
833.69	228.68
834.01	228.59
834.32	228.72
834.64	228.65
834.96	228.68
835.27	228.73
835.59	228.73
835.90	228.76
836.22	228.75
836.53	228.77
836.85	228.74
837.16	228.88
837.48	228.83
837.79	229.05
838.11	229.06
838.42	229.06
838.74	229.18
839.05	229.20
839.37	229.31
839.68	229.35
840.00	229.41
840.31	229.45
840.63	229.50
840.94	229.46
841.26	229.52
841.57	229.55
841.88	229.68
842.20	229.73
842.51	229.71
842.83	229.82
843.14	229.99
843.46	230.05
843.77	230.03
844.08	230.04
844.40	230.01
844.71	230.00
845.03	230.05
845.34	230.03
845.65	230.01
845.97	230.06
846.28	230.18
846.60	230.29
846.91	230.20
847.22	230.23
847.54	230.34
847.85	230.45
848.16	230.53
848.48	230.53
848.79	230.51
849.10	230.64
849.42	230.66
849.73	230.51
850.04	230.50
850.36	230.40
850.67	230.51
850.98	230.41
851.30	230.30
851.61	230.22
851.92	230.26
852.23	230.30
852.55	230.20
852.86	230.08
853.17	229.85
853.49	229.86
853.80	229.84
854.11	229.81
854.42	229.79
854.74	229.64
855.05	229.57
855.36	229.47
855.67	229.43
855.99	229.32
856.30	229.47
856.61	229.31
856.92	229.28
857.23	229.23
857.55	229.23
857.86	229.21
858.17	229.23
858.48	229.10
858.79	229.01
859.11	229.00
859.42	228.98
859.73	229.06
860.04	229.05
860.35	228.93
860.66	228.83
860.98	228.77
861.29	228.81
861.60	228.75
861.91	228.79
862.22	228.71
862.53	228.72
862.84	228.50
863.16	228.53
863.47	228.54
863.78	228.40
864.09	228.32
864.40	228.43
864.71	228.39
865.02	228.37
865.33	228.32
865.64	228.28
865.95	228.21
866.27	228.20
866.58	228.15
866.89	228.11
867.20	228.12
867.51	227.95
867.82	227.93
868.13	228.00
868.44	227.90
868.75	227.98
869.06	227.87
869.37	227.89
869.68	227.88
869.99	227.90
870.30	228.00
870.61	227.99
870.92	227.76
871.23	227.70
871.54	227.75
871.85	227.87
872.16	227.95
872.47	227.99
872.78	227.87
873.09	227.87
873.40	227.97
873.71	227.99
874.02	228.03
874.33	228.04
874.64	228.04
874.95	228.11
875.26	228.00
875.56	228.10
875.87	228.18
876.18	228.22
876.49	228.38
876.80	228.38
877.11	228.45
877.42	228.66
877.73	228.75
878.04	228.77
878.35	228.79
878.66	228.84
878.96	228.80
879.27	228.89
879.58	228.97
879.89	228.99
880.20	229.02
880.51	229.13
880.82	229.11
881.12	229.18
881.43	229.22
881.74	229.31
882.05	229.29
882.36	229.25
882.67	229.29
882.97	229.12
883.28	229.10
883.59	229.18
883.90	229.24
884.21	229.30
884.51	229.37
884.82	229.41
885.13	229.40
885.44	229.43
885.74	229.50
886.05	229.45
886.36	229.43
886.67	229.36
886.98	229.49
887.28	229.52
887.59	229.47
887.90	229.39
888.20	229.31
888.51	229.53
888.82	229.60
889.13	229.49
889.43	229.66
889.74	229.72
890.05	229.72
890.35	229.69
890.66	229.62
890.97	229.57
891.28	229.43
891.58	229.43
891.89	229.44
892.20	229.40
892.50	229.34
892.81	229.34
893.12	229.46
893.42	229.37
893.73	229.43
894.04	229.36
894.34	229.38
894.65	229.39
894.95	229.18
895.26	229.07
895.57	229.12
895.87	228.89
896.18	228.78
896.48	228.65
896.79	228.59
897.10	228.53
897.40	228.54
897.71	228.52
898.01	228.40
898.32	228.36
898.63	228.33
898.93	228.37
899.24	228.39
899.54	228.25
899.85	228.13
900.15	228.04
900.46	228.11
900.76	228.05
901.07	227.92
901.38	227.88
901.68	227.89
901.99	227.83
902.29	227.79
902.60	227.70
902.90	227.64
903.21	227.52
903.51	227.60
903.82	227.53
904.12	227.55
904.43	227.66
904.73	227.65
905.03	227.51
905.34	227.59
905.64	227.56
905.95	227.55
906.25	227.56
906.56	227.45
906.86	227.38
907.17	227.39
907.47	227.57
907.77	227.61
908.08	227.51
908.38	227.47
908.69	227.51
908.99	227.60
909.30	227.71
909.60	227.79
909.90	227.74
910.21	227.70
910.51	227.68
910.81	227.58
911.12	227.64
911.42	227.74
911.73	227.60
912.03	227.49
912.33	227.60
912.64	227.59
912.94	227.60
913.24	227.60
913.55	227.66
913.85	227.59
914.15	227.59
914.46	227.63
914.76	227.70
915.06	227.73
915.37	227.75
915.67	227.64
915.97	227.60
916.27	227.54
916.58	227.63
916.88	227.61
917.18	227.62
917.49	227.70
917.79	227.76
918.09	227.82
918.39	227.95
918.70	227.90
919.00	227.88
919.30	227.97
919.60	227.94
919.91	227.92
920.21	228.00
920.51	227.93
920.81	227.92
921.12	227.98
921.42	227.94
921.72	227.98
922.02	228.14
922.32	228.12
922.63	228.16
922.93	228.28
923.23	228.34
923.53	228.36
923.83	228.32
924.13	228.27
924.44	228.34
924.74	228.41
925.04	228.42
925.34	228.39
925.64	228.35
925.94	228.40
926.24	228.57
926.55	228.54
926.85	228.66
927.15	228.76
927.45	228.70
927.75	228.78
928.05	228.83
928.35	228.74
928.65	228.81
928.95	228.90
929.26	228.74
929.56	228.83
929.86	228.90
930.16	228.71
930.46	228.68
930.76	228.66
931.06	228.50
931.36	228.48
931.66	228.62
931.96	228.59
932.26	228.62
932.56	228.48
932.86	228.40
933.16	228.45
933.46	228.41
933.76	228.47
934.06	228.45
934.36	228.46
934.66	228.45
934.96	228.45
935.26	228.41
935.56	228.44
935.86	228.29
936.16	228.23
936.46	228.28
936.76	228.25
937.06	228.21
937.36	228.24
937.66	228.22
937.96	228.12
938.26	228.19
938.56	228.17
938.86	228.13
939.16	228.20
939.46	228.17
939.76	228.08
940.06	228.03
940.35	227.97
940.65	227.81
940.95	227.85
941.25	227.79
941.55	227.77
941.85	227.75
942.15	227.82
942.45	227.80
942.75	227.82
943.04	227.89
943.34	227.83
943.64	227.82
943.94	227.80
944.24	227.80
944.54	227.72
944.84	227.60
945.13	227.55
945.43	227.46
945.73	227.26
946.03	227.26
946.33	227.21
946.62	227.29
946.92	227.36
947.22	227.41
947.52	227.49
947.82	227.43
948.11	227.46
948.41	227.40
948.71	227.32
949.01	227.40
949.31	227.36
949.60	227.44
949.90	227.47
950.20	227.49
950.50	227.52
950.79	227.51
951.09	227.63
951.39	227.71
951.69	227.86
951.98	228.00
952.28	227.99
952.58	227.96
952.87	227.85
953.17	227.86
953.47	227.80
953.76	227.74
954.06	227.69
954.36	227.61
954.66	227.69
954.95	227.71
955.25	227.72
955.55	227.75
955.84	227.74
956.14	227.77
956.44	227.73
956.73	227.79
957.03	227.84
957.32	227.86
957.62	227.87
957.92	227.83
958.21	227.87
958.51	228.17
958.81	228.30
959.10	228.32
959.40	228.32
959.69	228.30
959.99	228.34
960.29	228.50
960.58	228.47
960.88	228.43
961.17	228.41
961.47	228.46
961.76	228.35
962.06	228.30
962.36	228.30
962.65	228.47
962.95	228.44
963.24	228.50
963.54	228.56
963.83	228.54
964.13	228.51
964.42	228.40
964.72	228.18
965.01	228.16
965.31	228.21
965.60	228.20
965.90	228.40
966.19	228.36
966.49	228.22
966.78	228.29
967.08	228.35
967.37	228.48
967.67	228.31
967.96	228.43
968.26	228.48
968.55	228.48
968.85	228.38
969.14	228.40
969.43	228.40
969.73	228.33
970.02	228.30
970.32	228.36
970.61	228.35
970.91	228.33
971.20	228.25
971.49	228.18
971.79	228.23
972.08	228.00
972.38	228.08
972.67	228.04
972.96	228.01
973.26	227.95
973.55	227.99
973.85	228.05
974.14	227.98
974.43	227.97
974.73	227.88
975.02	227.79
975.31	227.67
975.61	227.69
975.90	227.63
976.19	227.63
976.49	227.56
976.78	227.54
977.07	227.49
977.37	227.57
977.66	227.61
977.95	227.53
978.24	227.54
978.54	227.54
978.83	227.63
979.12	227.61
979.42	227.61
979.71	227.52
980.00	227.51
980.29	227.44
980.59	227.41
980.88	227.42
981.17	227.47
981.46	227.50
981.76	227.36
982.05	227.39
982.34	227.33
982.63	227.33
982.93	227.31
983.22	227.40
983.51	227.36
983.80	227.43
984.09	227.53
984.39	227.52
984.68	227.46
984.97	227.49
985.26	227.44
985.55	227.36
985.85	227.37
986.14	227.46
986.43	227.64
986.72	227.71
987.01	227.82
987.30	227.88
987.59	227.90
987.89	227.91
988.18	227.91
988.47	227.90
988.76	227.83
989.05	227.84
989.34	227.84
989.63	227.84
989.92	227.80
990.22	227.70
990.51	227.72
990.80	227.84
991.09	227.83
991.38	227.96
991.67	228.04
991.96	228.06
992.25	228.08
992.54	228.05
992.83	227.99
993.12	228.04
993.41	228.11
993.70	228.28
993.99	228.36
994.28	228.41
994.58	228.57
994.87	228.62
995.16	228.69
995.45	228.69
995.74	228.68
996.03	228.72
996.32	228.92
996.61	228.96
996.90	228.81
997.19	228.80
997.48	228.82
997.77	228.83
998.06	228.96
998.34	228.93
998.63	228.85
998.92	228.92
999.21	228.92
999.50	228.82
999.79	228.80
1000.08	228.86
1000.37	228.89
1000.66	228.86
1000.95	228.88
1001.24	228.99
1001.53	228.96
1001.82	228.98
1002.11	228.81
1002.40	228.70
1002.68	228.73
1002.97	228.91
1003.26	228.87
1003.55	228.72
1003.84	228.68
1004.13	228.63
1004.42	228.60
1004.71	228.60
1004.99	228.62
1005.28	228.64
1005.57	228.64
1005.86	228.47
1006.15	228.45
1006.44	228.37
1006.72	228.39
1007.01	228.34
1007.30	228.27
1007.59	228.34
1007.88	228.31
1008.17	228.49
1008.45	228.48
1008.74	228.36
1009.03	228.21
1009.32	228.26
1009.60	228.35
1009.89	228.30
1010.18	228.22
1010.47	228.11
1010.76	228.05
1011.04	227.99
1011.33	227.90
1011.62	227.94
1011.91	228.03
1012.19	228.06
1012.48	228.01
1012.77	227.98
1013.05	228.06
1013.34	227.99
1013.63	227.90
1013.92	227.89
1014.20	227.81
1014.49	227.80
1014.78	227.84
1015.06	227.75
1015.35	227.69
1015.64	227.72
1015.92	227.74
1016.21	227.72
1016.50	227.82
1016.78	227.80
1017.07	227.76
1017.36	227.66
1017.64	227.50
1017.93	227.45
1018.22	227.34
1018.50	227.30
1018.79	227.28
1019.08	227.10
1019.36	227.04
1019.65	227.04
1019.93	227.12
1020.22	227.11
1020.51	227.20
1020.79	227.16
1021.08	227.40
1021.36	226.60
1021.65	227.80
1021.94	225.40
1022.22	225.70
1022.51	227.20
1022.79	229.10
1023.08	227.80
1023.36	230.20
1023.65	226.70
>>>>>End Processed Spectral Data<<<<<
