SpectraSuite Data File
++++++++++++++++++++++++++++++++++++
Date: Fri Feb 01 14:41:22 EST 2013
User: group
Dark Spectrum Present: No
Reference Spectrum Present: No
Number of Sampled Component Spectra: 1
Spectrometers: USB2E7196
Integration Time (usec): 70000 (USB2E7196)
Spectra Averaged: 10 (USB2E7196)
Boxcar Smoothing: 10 (USB2E7196)
Correct for Electrical Dark: No (USB2E7196)
Strobe/Lamp Enabled: No (USB2E7196)
Correct for Detector Non-linearity: No (USB2E7196)
Correct for Stray Light: No (USB2E7196)
Number of Pixels in Processed Spectrum: 2048
>>>>>Begin Processed Spectral Data<<<<<
339.09	0.00
339.48	215.60
339.86	217.30
340.24	220.60
340.63	220.50
341.01	224.20
341.39	225.70
341.78	224.70
342.16	224.50
342.54	224.80
342.93	214.59
343.31	225.48
343.69	226.01
344.07	226.50
344.46	226.82
344.84	227.20
345.22	227.38
345.60	227.50
345.99	227.73
346.37	227.88
346.75	227.98
347.13	227.99
347.52	228.00
347.90	228.11
348.28	228.28
348.66	228.32
349.05	228.35
349.43	228.42
349.81	228.51
350.19	228.43
350.57	228.45
350.96	228.54
351.34	228.65
351.72	228.81
352.10	228.91
352.48	229.01
352.87	229.03
353.25	229.10
353.63	229.15
354.01	229.15
354.39	229.18
354.77	229.34
355.15	229.46
355.54	229.54
355.92	229.47
356.30	229.46
356.68	229.67
357.06	229.78
357.44	229.77
357.82	229.78
358.20	229.94
358.58	230.04
358.97	230.11
359.35	230.15
359.73	230.21
360.11	230.29
360.49	230.42
360.87	230.50
361.25	230.58
361.63	230.71
362.01	230.73
362.39	230.82
362.77	230.89
363.15	230.96
363.53	230.99
363.91	231.10
364.29	231.17
364.67	230.99
365.05	230.99
365.43	230.98
365.81	231.03
366.19	231.09
366.57	231.10
366.95	231.12
367.33	231.13
367.71	231.11
368.09	231.09
368.47	231.03
368.85	231.10
369.23	231.15
369.61	230.98
369.99	231.10
370.37	231.10
370.75	231.07
371.13	231.02
371.51	230.94
371.89	230.91
372.27	230.90
372.65	230.76
373.03	230.62
373.41	230.58
373.78	230.57
374.16	230.40
374.54	230.32
374.92	230.28
375.30	230.15
375.68	230.01
376.06	229.90
376.44	229.79
376.82	229.61
377.19	229.51
377.57	229.51
377.95	229.40
378.33	229.30
378.71	229.20
379.09	229.16
379.47	229.09
379.84	228.95
380.22	228.81
380.60	228.80
380.98	228.79
381.36	228.72
381.73	228.61
382.11	228.55
382.49	228.43
382.87	228.36
383.25	228.21
383.62	228.42
384.00	228.45
384.38	228.40
384.76	228.43
385.13	228.37
385.51	228.29
385.89	228.13
386.27	228.13
386.64	228.09
387.02	228.01
387.40	228.10
387.78	228.20
388.15	228.16
388.53	228.19
388.91	228.17
389.29	228.16
389.66	228.08
390.04	228.00
390.42	228.01
390.79	227.99
391.17	227.99
391.55	227.76
391.92	227.69
392.30	227.75
392.68	227.66
393.05	227.65
393.43	227.63
393.81	227.76
394.18	227.75
394.56	227.79
394.94	227.80
395.31	227.68
395.69	227.66
396.06	227.66
396.44	227.65
396.82	227.74
397.19	227.87
397.57	227.84
397.95	228.00
398.32	228.06
398.70	228.07
399.07	228.28
399.45	228.34
399.82	228.37
400.20	228.34
400.58	228.38
400.95	228.39
401.33	228.50
401.70	228.55
402.08	228.53
402.45	228.63
402.83	228.72
403.20	228.90
403.58	229.01
403.95	229.20
404.33	229.36
404.71	229.45
405.08	229.67
405.46	229.87
405.83	230.02
406.21	230.17
406.58	230.33
406.96	230.51
407.33	230.70
407.70	230.98
408.08	231.45
408.45	231.81
408.83	232.15
409.20	232.47
409.58	232.70
409.95	233.17
410.33	233.43
410.70	233.79
411.08	234.16
411.45	234.45
411.82	234.89
412.20	235.30
412.57	235.86
412.95	236.20
413.32	236.70
413.69	237.23
414.07	237.74
414.44	238.38
414.82	238.97
415.19	239.78
415.56	240.46
415.94	241.11
416.31	241.89
416.68	242.68
417.06	243.59
417.43	244.55
417.81	245.43
418.18	246.50
418.55	247.65
418.93	248.74
419.30	249.97
419.67	251.20
420.04	252.48
420.42	253.62
420.79	255.16
421.16	256.71
421.54	258.21
421.91	259.64
422.28	261.18
422.66	262.75
423.03	264.35
423.40	266.00
423.77	267.62
424.15	269.41
424.52	271.29
424.89	273.37
425.26	275.17
425.64	276.96
426.01	278.85
426.38	280.79
426.75	282.96
427.13	284.98
427.50	287.17
427.87	289.50
428.24	291.80
428.61	293.87
428.99	296.20
429.36	298.80
429.73	301.40
430.10	303.91
430.47	306.56
430.85	309.04
431.22	311.87
431.59	314.98
431.96	317.74
432.33	320.81
432.70	323.70
433.08	327.16
433.45	330.49
433.82	333.66
434.19	337.38
434.56	340.80
434.93	344.24
435.30	347.48
435.68	350.96
436.05	354.50
436.42	357.80
436.79	360.86
437.16	364.19
437.53	367.81
437.90	371.30
438.27	374.57
438.64	378.07
439.01	381.08
439.38	383.70
439.75	386.35
440.13	389.44
440.50	392.26
440.87	394.61
441.24	396.94
441.61	399.64
441.98	401.33
442.35	403.37
442.72	405.43
443.09	407.66
443.46	408.81
443.83	409.49
444.20	410.19
444.57	411.23
444.94	411.41
445.31	411.71
445.68	412.16
446.05	412.17
446.42	411.51
446.79	410.82
447.16	410.05
447.53	409.59
447.90	407.96
448.27	406.29
448.64	404.25
449.01	402.68
449.37	400.19
449.74	397.79
450.11	395.21
450.48	392.18
450.85	388.95
451.22	386.32
451.59	383.79
451.96	381.25
452.33	378.00
452.70	375.05
453.07	371.46
453.43	367.72
453.80	364.33
454.17	361.11
454.54	358.15
454.91	354.82
455.28	351.40
455.65	348.33
456.02	345.50
456.38	342.69
456.75	339.48
457.12	336.56
457.49	333.80
457.86	330.96
458.23	328.72
458.59	326.13
458.96	323.54
459.33	321.14
459.70	318.85
460.07	316.93
460.43	314.79
460.80	312.82
461.17	311.01
461.54	309.17
461.91	307.44
462.27	305.58
462.64	303.98
463.01	302.23
463.38	300.63
463.74	298.86
464.11	297.45
464.48	296.14
464.85	294.86
465.21	293.80
465.58	292.57
465.95	291.17
466.32	289.97
466.68	288.77
467.05	287.55
467.42	286.57
467.78	285.50
468.15	284.36
468.52	283.42
468.88	282.24
469.25	281.24
469.62	280.42
469.98	279.62
470.35	278.96
470.72	278.38
471.08	277.50
471.45	276.81
471.82	276.20
472.18	275.44
472.55	274.76
472.92	273.94
473.28	273.27
473.65	272.56
474.02	272.08
474.38	271.57
474.75	271.21
475.11	270.72
475.48	270.24
475.85	269.93
476.21	269.55
476.58	269.34
476.94	269.16
477.31	268.81
477.67	268.56
478.04	268.29
478.41	268.10
478.77	268.17
479.14	267.92
479.50	267.85
479.87	267.76
480.23	267.81
480.60	267.61
480.96	267.61
481.33	267.76
481.69	267.56
482.06	267.71
482.42	267.75
482.79	267.77
483.15	267.88
483.52	268.08
483.88	268.33
484.25	268.46
484.61	268.57
484.98	268.81
485.34	269.23
485.71	269.60
486.07	269.90
486.44	270.10
486.80	270.53
487.17	270.86
487.53	271.53
487.90	272.17
488.26	273.09
488.62	273.77
488.99	274.48
489.35	275.48
489.72	276.34
490.08	277.31
490.44	278.21
490.81	279.28
491.17	280.34
491.54	281.57
491.90	282.85
492.26	284.32
492.63	285.71
492.99	287.09
493.36	288.61
493.72	290.37
494.08	292.21
494.45	294.17
494.81	296.26
495.17	298.42
495.54	300.63
495.90	303.00
496.26	305.56
496.63	308.17
496.99	310.93
497.35	313.82
497.72	316.90
498.08	320.28
498.44	323.63
498.80	327.34
499.17	330.99
499.53	334.90
499.89	338.97
500.26	343.21
500.62	347.53
500.98	352.19
501.34	356.90
501.71	361.91
502.07	367.15
502.43	372.45
502.79	377.91
503.16	383.76
503.52	389.72
503.88	395.90
504.24	402.38
504.60	409.09
504.97	416.00
505.33	423.17
505.69	430.73
506.05	438.44
506.41	446.10
506.78	454.03
507.14	462.58
507.50	471.08
507.86	480.10
508.22	489.39
508.59	498.70
508.95	508.40
509.31	518.46
509.67	528.61
510.03	539.31
510.39	550.00
510.75	561.17
511.12	572.49
511.48	584.17
511.84	596.25
512.20	608.48
512.56	620.99
512.92	633.66
513.28	646.40
513.64	659.53
514.00	673.09
514.37	687.10
514.73	700.81
515.09	715.01
515.45	729.31
515.81	743.74
516.17	758.85
516.53	774.20
516.89	789.50
517.25	805.27
517.61	821.06
517.97	837.10
518.33	853.20
518.69	869.47
519.05	885.91
519.41	902.66
519.77	919.75
520.13	936.96
520.49	954.28
520.85	971.53
521.21	989.40
521.57	1007.73
521.93	1025.41
522.29	1043.54
522.65	1061.43
523.01	1079.30
523.37	1098.00
523.73	1116.43
524.09	1134.62
524.45	1153.61
524.81	1172.13
525.17	1191.18
525.53	1210.64
525.89	1229.70
526.25	1249.19
526.61	1268.24
526.97	1287.63
527.33	1306.76
527.68	1326.39
528.04	1345.93
528.40	1365.81
528.76	1385.93
529.12	1405.28
529.48	1425.23
529.84	1445.00
530.20	1465.41
530.56	1486.13
530.91	1506.38
531.27	1526.86
531.63	1547.38
531.99	1567.14
532.35	1586.88
532.71	1606.24
533.07	1625.65
533.42	1645.25
533.78	1664.77
534.14	1684.83
534.50	1703.54
534.86	1722.61
535.21	1740.95
535.57	1760.36
535.93	1779.58
536.29	1797.63
536.65	1816.43
537.00	1835.00
537.36	1853.25
537.72	1871.32
538.08	1889.11
538.44	1906.56
538.79	1923.80
539.15	1940.84
539.51	1958.43
539.87	1976.23
540.22	1993.75
540.58	2011.31
540.94	2028.17
541.29	2044.53
541.65	2060.63
542.01	2077.70
542.37	2094.36
542.72	2110.40
543.08	2126.10
543.44	2141.77
543.79	2156.36
544.15	2171.35
544.51	2186.78
544.87	2202.14
545.22	2216.38
545.58	2230.60
545.94	2244.37
546.29	2258.04
546.65	2272.04
547.01	2284.66
547.36	2297.09
547.72	2309.32
548.07	2320.99
548.43	2332.62
548.79	2344.50
549.14	2355.96
549.50	2366.45
549.86	2376.76
550.21	2387.60
550.57	2397.80
550.92	2407.40
551.28	2417.90
551.64	2427.38
551.99	2436.49
552.35	2445.66
552.70	2454.80
553.06	2464.36
553.41	2473.42
553.77	2482.48
554.13	2490.75
554.48	2499.57
554.84	2507.97
555.19	2516.20
555.55	2524.17
555.90	2531.58
556.26	2539.11
556.61	2546.70
556.97	2553.90
557.32	2561.59
557.68	2568.99
558.03	2576.21
558.39	2583.27
558.74	2590.87
559.10	2597.68
559.45	2604.28
559.81	2611.79
560.16	2617.93
560.52	2623.39
560.87	2629.76
561.23	2634.42
561.58	2639.63
561.94	2644.70
562.29	2648.87
562.64	2653.18
563.00	2657.74
563.35	2663.72
563.71	2669.13
564.06	2673.66
564.42	2678.62
564.77	2683.21
565.12	2687.72
565.48	2691.87
565.83	2695.40
566.19	2698.87
566.54	2701.32
566.89	2703.79
567.25	2705.53
567.60	2708.64
567.96	2711.06
568.31	2712.47
568.66	2714.95
569.02	2716.88
569.37	2718.24
569.72	2720.00
570.08	2721.08
570.43	2722.66
570.78	2722.67
571.14	2721.95
571.49	2722.01
571.84	2722.73
572.20	2721.71
572.55	2720.60
572.90	2718.91
573.26	2718.30
573.61	2717.09
573.96	2715.77
574.31	2713.35
574.67	2709.80
575.02	2706.86
575.37	2704.10
575.72	2700.49
576.08	2697.50
576.43	2694.20
576.78	2690.90
577.13	2688.24
577.49	2685.24
577.84	2681.15
578.19	2677.55
578.54	2673.60
578.90	2668.63
579.25	2662.52
579.60	2657.54
579.95	2651.76
580.30	2646.52
580.66	2640.20
581.01	2633.82
581.36	2628.69
581.71	2624.02
582.06	2619.45
582.42	2613.71
582.77	2607.50
583.12	2602.19
583.47	2596.61
583.82	2591.61
584.17	2585.95
584.53	2580.03
584.88	2573.97
585.23	2567.74
585.58	2561.59
585.93	2556.27
586.28	2550.87
586.63	2545.40
586.98	2539.76
587.34	2534.41
587.69	2528.68
588.04	2522.82
588.39	2516.57
588.74	2508.86
589.09	2501.55
589.44	2494.15
589.79	2487.98
590.14	2482.40
590.49	2475.39
590.84	2467.89
591.19	2460.24
591.54	2451.88
591.89	2442.76
592.25	2434.84
592.60	2426.40
592.95	2417.76
593.30	2408.82
593.65	2400.39
594.00	2391.67
594.35	2384.28
594.70	2374.99
595.05	2365.92
595.40	2357.29
595.75	2348.75
596.10	2342.06
596.45	2334.65
596.80	2327.43
597.15	2319.37
597.50	2310.59
597.85	2302.97
598.19	2295.94
598.54	2288.50
598.89	2281.30
599.24	2274.73
599.59	2267.36
599.94	2260.17
600.29	2252.22
600.64	2244.29
600.99	2235.51
601.34	2228.18
601.69	2218.93
602.04	2211.74
602.39	2204.17
602.74	2197.40
603.08	2190.18
603.43	2182.30
603.78	2174.52
604.13	2166.04
604.48	2157.74
604.83	2149.60
605.18	2141.62
605.53	2131.81
605.87	2121.83
606.22	2113.12
606.57	2104.49
606.92	2095.79
607.27	2087.36
607.62	2079.50
607.96	2071.39
608.31	2063.58
608.66	2054.61
609.01	2045.74
609.36	2035.95
609.70	2025.94
610.05	2015.50
610.40	2006.04
610.75	1995.92
611.10	1985.84
611.44	1975.65
611.79	1966.25
612.14	1956.60
612.49	1946.10
612.83	1936.51
613.18	1927.02
613.53	1917.47
613.88	1906.95
614.22	1896.91
614.57	1886.60
614.92	1876.73
615.27	1866.85
615.61	1856.81
615.96	1846.80
616.31	1837.40
616.65	1829.06
617.00	1820.56
617.35	1811.54
617.70	1801.60
618.04	1792.03
618.39	1782.72
618.74	1773.77
619.08	1763.94
619.43	1754.79
619.78	1746.11
620.12	1737.21
620.47	1728.14
620.82	1718.43
621.16	1709.66
621.51	1700.77
621.85	1691.62
622.20	1681.79
622.55	1672.53
622.89	1663.88
623.24	1655.41
623.59	1646.50
623.93	1637.39
624.28	1628.40
624.62	1619.27
624.97	1610.55
625.32	1601.95
625.66	1593.07
626.01	1584.22
626.35	1575.15
626.70	1565.91
627.04	1557.20
627.39	1547.97
627.73	1538.88
628.08	1530.39
628.43	1521.52
628.77	1512.29
629.12	1502.87
629.46	1494.21
629.81	1484.60
630.15	1475.01
630.50	1465.45
630.84	1455.75
631.19	1445.83
631.53	1436.47
631.88	1426.81
632.22	1417.13
632.57	1407.85
632.91	1398.50
633.26	1389.46
633.60	1380.26
633.95	1371.44
634.29	1362.47
634.64	1354.29
634.98	1345.47
635.32	1337.00
635.67	1328.49
636.01	1320.09
636.36	1311.88
636.70	1303.68
637.05	1295.75
637.39	1287.92
637.73	1279.97
638.08	1272.70
638.42	1265.44
638.77	1257.52
639.11	1249.66
639.45	1242.29
639.80	1234.60
640.14	1226.98
640.49	1219.13
640.83	1211.38
641.17	1203.50
641.52	1195.35
641.86	1187.27
642.20	1179.80
642.55	1171.78
642.89	1163.88
643.23	1156.05
643.58	1148.88
643.92	1140.84
644.26	1132.92
644.61	1125.53
644.95	1117.95
645.29	1109.58
645.64	1101.08
645.98	1093.68
646.32	1086.44
646.66	1078.75
647.01	1071.24
647.35	1063.79
647.69	1056.43
648.04	1049.35
648.38	1041.69
648.72	1033.81
649.06	1026.30
649.41	1018.95
649.75	1011.26
650.09	1003.85
650.43	996.49
650.78	988.46
651.12	981.12
651.46	974.23
651.80	966.94
652.14	959.97
652.49	953.16
652.83	946.79
653.17	939.43
653.51	932.18
653.85	925.27
654.20	918.10
654.54	910.97
654.88	903.80
655.22	896.43
655.56	889.50
655.90	883.23
656.25	876.54
656.59	869.74
656.93	863.33
657.27	856.84
657.61	849.99
657.95	844.18
658.29	838.00
658.64	831.42
658.98	824.69
659.32	817.60
659.66	811.31
660.00	804.89
660.34	798.70
660.68	792.62
661.02	786.31
661.36	780.42
661.70	774.87
662.05	769.25
662.39	763.92
662.73	758.57
663.07	753.03
663.41	747.57
663.75	742.04
664.09	736.52
664.43	731.38
664.77	726.49
665.11	721.04
665.45	715.89
665.79	710.89
666.13	705.98
666.47	701.26
666.81	695.97
667.15	690.59
667.49	685.60
667.83	680.90
668.17	676.09
668.51	671.26
668.85	666.15
669.19	661.31
669.53	656.64
669.87	651.40
670.21	646.72
670.55	642.12
670.89	638.15
671.23	634.06
671.57	629.49
671.91	625.20
672.25	620.96
672.58	616.50
672.92	612.48
673.26	608.38
673.60	604.38
673.94	600.34
674.28	596.80
674.62	592.96
674.96	589.09
675.30	585.37
675.64	581.55
675.97	577.84
676.31	574.32
676.65	570.47
676.99	567.43
677.33	563.87
677.67	560.18
678.01	556.10
678.34	552.40
678.68	548.78
679.02	545.20
679.36	541.77
679.70	538.50
680.04	534.90
680.37	531.33
680.71	528.03
681.05	525.20
681.39	522.00
681.73	518.94
682.06	515.87
682.40	512.70
682.74	509.57
683.08	506.45
683.42	503.23
683.75	500.26
684.09	497.07
684.43	494.05
684.77	490.98
685.10	488.15
685.44	485.21
685.78	482.58
686.12	479.73
686.45	476.88
686.79	474.00
687.13	471.26
687.46	468.51
687.80	465.65
688.14	462.60
688.48	460.03
688.81	457.35
689.15	454.63
689.49	451.98
689.82	449.40
690.16	446.85
690.50	444.48
690.83	441.92
691.17	439.33
691.51	436.85
691.84	434.70
692.18	432.23
692.52	429.84
692.85	427.36
693.19	425.10
693.52	422.68
693.86	420.32
694.20	417.98
694.53	415.98
694.87	413.70
695.21	411.51
695.54	409.12
695.88	406.82
696.21	404.71
696.55	402.67
696.88	400.63
697.22	398.68
697.56	396.70
697.89	394.71
698.23	392.67
698.56	390.59
698.90	388.56
699.23	386.70
699.57	384.88
699.90	382.90
700.24	380.90
700.58	379.05
700.91	377.24
701.25	375.57
701.58	373.73
701.92	372.18
702.25	370.49
702.59	368.81
702.92	367.20
703.26	365.55
703.59	363.97
703.93	362.52
704.26	360.87
704.60	359.13
704.93	357.60
705.26	356.30
705.60	354.85
705.93	353.42
706.27	352.02
706.60	350.58
706.94	349.33
707.27	347.91
707.61	346.62
707.94	345.33
708.27	344.00
708.61	342.56
708.94	341.09
709.28	339.74
709.61	338.39
709.94	337.20
710.28	335.81
710.61	334.43
710.95	332.90
711.28	331.66
711.61	330.41
711.95	329.02
712.28	327.49
712.61	326.24
712.95	325.02
713.28	323.87
713.61	322.52
713.95	321.31
714.28	320.07
714.61	318.71
714.95	317.58
715.28	316.31
715.61	315.06
715.95	313.93
716.28	312.92
716.61	311.87
716.95	310.69
717.28	309.80
717.61	308.80
717.94	307.91
718.28	306.91
718.61	306.03
718.94	305.13
719.27	304.45
719.61	303.51
719.94	302.55
720.27	301.40
720.60	300.57
720.94	299.58
721.27	298.91
721.60	298.35
721.93	297.57
722.27	296.87
722.60	296.24
722.93	295.46
723.26	294.59
723.59	293.77
723.93	293.10
724.26	292.30
724.59	291.55
724.92	290.82
725.25	290.04
725.59	289.18
725.92	288.43
726.25	287.60
726.58	286.98
726.91	286.42
727.24	285.90
727.57	285.35
727.91	284.68
728.24	283.88
728.57	283.04
728.90	282.39
729.23	281.71
729.56	281.10
729.89	280.58
730.22	279.96
730.55	279.51
730.89	278.86
731.22	278.29
731.55	277.73
731.88	277.09
732.21	276.50
732.54	276.04
732.87	275.53
733.20	275.10
733.53	274.66
733.86	274.06
734.19	273.44
734.52	272.86
734.85	272.53
735.18	272.20
735.51	271.77
735.84	271.26
736.17	270.80
736.50	270.23
736.83	270.00
737.16	269.72
737.49	269.25
737.82	268.83
738.15	268.41
738.48	267.99
738.81	267.60
739.14	267.29
739.47	266.89
739.80	266.60
740.13	266.18
740.46	265.69
740.79	265.26
741.12	265.03
741.45	264.67
741.78	264.13
742.11	263.70
742.44	263.24
742.77	262.93
743.10	262.59
743.43	262.30
743.75	261.72
744.08	261.51
744.41	261.02
744.74	260.63
745.07	260.16
745.40	259.75
745.73	259.52
746.06	259.09
746.39	258.83
746.71	258.34
747.04	257.96
747.37	257.65
747.70	257.35
748.03	256.97
748.36	256.68
748.68	256.42
749.01	256.08
749.34	255.87
749.67	255.54
750.00	255.19
750.33	254.96
750.65	254.60
750.98	254.07
751.31	253.90
751.64	253.67
751.97	253.54
752.29	253.29
752.62	252.93
752.95	252.65
753.28	252.28
753.60	252.08
753.93	251.86
754.26	251.67
754.59	251.40
754.91	251.12
755.24	250.78
755.57	250.54
755.90	250.29
756.22	249.97
756.55	249.50
756.88	249.24
757.20	248.98
757.53	248.72
757.86	248.54
758.19	248.14
758.51	247.93
758.84	247.69
759.17	247.46
759.49	247.23
759.82	247.07
760.15	246.90
760.47	246.68
760.80	246.40
761.13	246.01
761.45	245.84
761.78	245.50
762.11	245.32
762.43	245.03
762.76	244.80
763.08	244.80
763.41	244.79
763.74	244.63
764.06	244.30
764.39	244.06
764.71	243.74
765.04	243.63
765.37	243.36
765.69	243.20
766.02	243.01
766.34	242.74
766.67	242.54
767.00	242.43
767.32	242.36
767.65	242.31
767.97	242.30
768.30	242.02
768.62	241.95
768.95	241.76
769.27	241.59
769.60	241.48
769.92	241.19
770.25	240.98
770.57	240.75
770.90	240.70
771.22	240.60
771.55	240.50
771.87	240.44
772.20	240.27
772.52	240.25
772.85	240.40
773.17	240.37
773.50	240.28
773.82	240.11
774.15	239.92
774.47	239.65
774.80	239.43
775.12	239.30
775.45	239.20
775.77	239.12
776.09	239.00
776.42	238.93
776.74	238.85
777.07	238.76
777.39	238.66
777.72	238.44
778.04	238.39
778.36	238.38
778.69	238.28
779.01	238.24
779.33	237.95
779.66	237.44
779.98	237.30
780.31	237.16
780.63	237.09
780.95	237.04
781.28	237.00
781.60	236.97
781.92	236.87
782.25	236.80
782.57	236.70
782.89	236.68
783.22	236.60
783.54	236.49
783.86	236.47
784.19	236.39
784.51	236.43
784.83	236.30
785.16	236.09
785.48	236.01
785.80	235.96
786.12	235.90
786.45	235.99
786.77	235.95
787.09	235.97
787.42	235.85
787.74	235.84
788.06	235.80
788.38	235.72
788.71	235.78
789.03	235.76
789.35	235.79
789.67	235.71
789.99	235.71
790.32	235.57
790.64	235.51
790.96	235.69
791.28	235.64
791.61	235.67
791.93	235.74
792.25	235.64
792.57	235.76
792.89	235.74
793.21	235.64
793.54	235.55
793.86	235.40
794.18	235.30
794.50	235.20
794.82	235.17
795.14	235.06
795.47	234.94
795.79	234.80
796.11	234.70
796.43	234.63
796.75	234.42
797.07	234.35
797.39	234.28
797.71	233.99
798.04	233.87
798.36	233.76
798.68	233.72
799.00	233.72
799.32	233.46
799.64	233.43
799.96	233.40
800.28	233.35
800.60	233.27
800.92	233.22
801.24	233.02
801.56	232.89
801.89	232.90
802.21	232.88
802.53	232.85
802.85	232.79
803.17	232.90
803.49	232.80
803.81	232.82
804.13	232.68
804.45	232.55
804.77	232.53
805.09	232.41
805.41	232.37
805.73	232.19
806.05	232.05
806.37	231.94
806.69	231.80
807.01	231.80
807.33	231.81
807.65	231.76
807.97	231.93
808.28	231.92
808.60	231.86
808.92	231.73
809.24	231.69
809.56	231.59
809.88	231.39
810.20	231.43
810.52	231.46
810.84	231.40
811.16	231.35
811.48	231.26
811.80	231.35
812.12	231.16
812.43	231.08
812.75	231.20
813.07	231.19
813.39	231.23
813.71	231.13
814.03	231.08
814.35	231.07
814.67	230.85
814.98	230.90
815.30	230.79
815.62	230.88
815.94	230.92
816.26	231.00
816.58	231.08
816.89	231.07
817.21	230.90
817.53	230.95
817.85	231.02
818.17	231.01
818.48	230.86
818.80	230.90
819.12	230.89
819.44	230.84
819.76	230.79
820.07	230.86
820.39	230.85
820.71	230.84
821.03	230.80
821.34	230.85
821.66	230.77
821.98	231.00
822.30	231.02
822.61	231.08
822.93	231.00
823.25	230.90
823.57	230.89
823.88	230.94
824.20	231.00
824.52	231.03
824.83	231.05
825.15	231.12
825.47	231.13
825.79	231.29
826.10	231.22
826.42	231.15
826.74	231.09
827.05	231.19
827.37	231.32
827.69	231.30
828.00	231.34
828.32	231.43
828.64	231.32
828.95	231.33
829.27	231.33
829.58	231.27
829.90	231.27
830.22	231.26
830.53	231.24
830.85	231.21
831.17	231.12
831.48	231.07
831.80	231.08
832.11	231.03
832.43	230.97
832.75	231.00
833.06	231.13
833.38	231.07
833.69	230.85
834.01	230.74
834.32	230.82
834.64	230.81
834.96	230.73
835.27	230.68
835.59	230.54
835.90	230.44
836.22	230.41
836.53	230.40
836.85	230.30
837.16	230.42
837.48	230.39
837.79	230.38
838.11	230.37
838.42	230.31
838.74	230.38
839.05	230.40
839.37	230.32
839.68	230.23
840.00	230.26
840.31	230.33
840.63	230.25
840.94	230.17
841.26	230.14
841.57	230.09
841.88	230.09
842.20	229.97
842.51	229.94
842.83	229.97
843.14	230.09
843.46	230.13
843.77	229.96
844.08	229.94
844.40	229.88
844.71	229.84
845.03	229.83
845.34	229.73
845.65	229.58
845.97	229.69
846.28	229.53
846.60	229.44
846.91	229.34
847.22	229.30
847.54	229.29
847.85	229.20
848.16	229.20
848.48	229.07
848.79	229.13
849.10	229.14
849.42	229.03
849.73	228.81
850.04	228.75
850.36	228.69
850.67	228.70
850.98	228.70
851.30	228.64
851.61	228.53
851.92	228.49
852.23	228.57
852.55	228.45
852.86	228.48
853.17	228.45
853.49	228.44
853.80	228.49
854.11	228.44
854.42	228.47
854.74	228.34
855.05	228.32
855.36	228.32
855.67	228.31
855.99	228.40
856.30	228.61
856.61	228.59
856.92	228.65
857.23	228.62
857.55	228.60
857.86	228.62
858.17	228.72
858.48	228.75
858.79	228.67
859.11	228.77
859.42	228.81
859.73	228.85
860.04	228.89
860.35	228.89
860.66	228.90
860.98	228.84
861.29	228.99
861.60	229.02
861.91	229.06
862.22	229.05
862.53	229.00
862.84	228.85
863.16	228.95
863.47	228.94
863.78	228.93
864.09	228.87
864.40	228.90
864.71	228.98
865.02	228.95
865.33	229.00
865.64	228.89
865.95	228.93
866.27	229.00
866.58	229.21
866.89	229.23
867.20	229.22
867.51	229.22
867.82	229.15
868.13	229.25
868.44	229.13
868.75	229.16
869.06	229.16
869.37	229.19
869.68	229.20
869.99	229.27
870.30	229.35
870.61	229.43
870.92	229.43
871.23	229.40
871.54	229.48
871.85	229.51
872.16	229.50
872.47	229.42
872.78	229.31
873.09	229.12
873.40	229.06
873.71	229.06
874.02	229.07
874.33	229.06
874.64	228.93
874.95	229.02
875.26	228.97
875.56	229.00
875.87	228.96
876.18	228.90
876.49	228.97
876.80	228.80
877.11	228.78
877.42	228.80
877.73	228.86
878.04	228.82
878.35	228.81
878.66	228.85
878.96	228.83
879.27	228.87
879.58	228.81
879.89	228.82
880.20	228.84
880.51	228.90
880.82	228.87
881.12	228.82
881.43	228.81
881.74	228.73
882.05	228.71
882.36	228.61
882.67	228.56
882.97	228.35
883.28	228.37
883.59	228.37
883.90	228.29
884.21	228.13
884.51	228.12
884.82	228.09
885.13	228.04
885.44	228.09
885.74	228.02
886.05	228.09
886.36	228.07
886.67	228.10
886.98	228.14
887.28	228.19
887.59	228.41
887.90	228.43
888.20	228.41
888.51	228.43
888.82	228.41
889.13	228.46
889.43	228.67
889.74	228.59
890.05	228.58
890.35	228.66
890.66	228.59
890.97	228.58
891.28	228.56
891.58	228.65
891.89	228.57
892.20	228.64
892.50	228.69
892.81	228.58
893.12	228.56
893.42	228.46
893.73	228.40
894.04	228.28
894.34	228.24
894.65	228.30
894.95	228.20
895.26	228.26
895.57	228.38
895.87	228.19
896.18	228.33
896.48	228.35
896.79	228.36
897.10	228.55
897.40	228.64
897.71	228.67
898.01	228.65
898.32	228.70
898.63	228.77
898.93	228.71
899.24	228.78
899.54	228.74
899.85	228.76
900.15	228.85
900.46	228.88
900.76	228.97
901.07	228.93
901.38	229.02
901.68	229.09
901.99	229.06
902.29	229.15
902.60	229.12
902.90	229.17
903.21	229.19
903.51	229.13
903.82	229.13
904.12	229.16
904.43	229.28
904.73	229.38
905.03	229.37
905.34	229.58
905.64	229.72
905.95	229.72
906.25	229.78
906.56	229.76
906.86	229.83
907.17	229.79
907.47	229.92
907.77	229.95
908.08	229.88
908.38	229.88
908.69	229.89
908.99	229.97
909.30	229.98
909.60	229.95
909.90	230.00
910.21	229.89
910.51	229.89
910.81	229.84
911.12	229.79
911.42	229.81
911.73	229.64
912.03	229.62
912.33	229.66
912.64	229.56
912.94	229.53
913.24	229.42
913.55	229.33
913.85	229.27
914.15	229.30
914.46	229.42
914.76	229.28
915.06	229.24
915.37	229.06
915.67	229.01
915.97	228.94
916.27	228.81
916.58	228.77
916.88	228.72
917.18	228.57
917.49	228.69
917.79	228.63
918.09	228.58
918.39	228.58
918.70	228.48
919.00	228.44
919.30	228.54
919.60	228.53
919.91	228.57
920.21	228.53
920.51	228.46
920.81	228.43
921.12	228.50
921.42	228.38
921.72	228.42
922.02	228.38
922.32	228.40
922.63	228.33
922.93	228.31
923.23	228.28
923.53	228.24
923.83	228.05
924.13	228.01
924.44	228.04
924.74	228.11
925.04	228.14
925.34	228.05
925.64	227.94
925.94	227.90
926.24	227.89
926.55	227.82
926.85	227.78
927.15	227.77
927.45	227.68
927.75	227.70
928.05	227.74
928.35	227.70
928.65	227.71
928.95	227.87
929.26	227.90
929.56	227.96
929.86	228.02
930.16	228.02
930.46	228.06
930.76	228.14
931.06	227.90
931.36	227.90
931.66	227.94
931.96	227.98
932.26	228.10
932.56	228.11
932.86	228.16
933.16	228.17
933.46	228.07
933.76	228.05
934.06	228.11
934.36	228.18
934.66	228.21
934.96	228.25
935.26	228.25
935.56	228.32
935.86	228.38
936.16	228.42
936.46	228.51
936.76	228.48
937.06	228.41
937.36	228.58
937.66	228.64
937.96	228.79
938.26	228.78
938.56	228.69
938.86	228.76
939.16	228.93
939.46	229.05
939.76	229.17
940.06	229.19
940.35	229.20
940.65	229.12
940.95	229.25
941.25	229.27
941.55	229.12
941.85	229.13
942.15	229.16
942.45	229.16
942.75	229.10
943.04	229.14
943.34	229.24
943.64	229.19
943.94	229.15
944.24	229.16
944.54	229.17
944.84	229.19
945.13	229.09
945.43	229.00
945.73	228.95
946.03	228.93
946.33	229.03
946.62	229.05
946.92	229.07
947.22	229.00
947.52	228.82
947.82	229.01
948.11	228.96
948.41	228.96
948.71	228.78
949.01	228.80
949.31	228.78
949.60	228.71
949.90	228.75
950.20	228.79
950.50	228.70
950.79	228.63
951.09	228.64
951.39	228.68
951.69	228.70
951.98	228.63
952.28	228.67
952.58	228.55
952.87	228.44
953.17	228.50
953.47	228.46
953.76	228.56
954.06	228.33
954.36	228.34
954.66	228.18
954.95	228.29
955.25	228.30
955.55	228.25
955.84	228.23
956.14	228.09
956.44	228.03
956.73	227.91
957.03	227.86
957.32	227.83
957.62	227.71
957.92	227.59
958.21	227.55
958.51	227.57
958.81	227.58
959.10	227.65
959.40	227.59
959.69	227.60
959.99	227.60
960.29	227.68
960.58	227.61
960.88	227.68
961.17	227.64
961.47	227.62
961.76	227.58
962.06	227.47
962.36	227.44
962.65	227.35
962.95	227.37
963.24	227.34
963.54	227.34
963.83	227.43
964.13	227.33
964.42	227.35
964.72	227.30
965.01	227.36
965.31	227.40
965.60	227.28
965.90	227.41
966.19	227.39
966.49	227.43
966.78	227.39
967.08	227.36
967.37	227.35
967.67	227.28
967.96	227.40
968.26	227.49
968.55	227.62
968.85	227.67
969.14	227.76
969.43	227.88
969.73	227.93
970.02	227.90
970.32	228.05
970.61	228.06
970.91	227.98
971.20	227.95
971.49	227.86
971.79	227.91
972.08	227.80
972.38	227.80
972.67	227.71
972.96	227.90
973.26	227.96
973.55	228.13
973.85	228.16
974.14	228.18
974.43	228.24
974.73	228.23
975.02	228.32
975.31	228.32
975.61	228.26
975.90	228.16
976.19	228.27
976.49	228.45
976.78	228.43
977.07	228.42
977.37	228.40
977.66	228.46
977.95	228.56
978.24	228.58
978.54	228.64
978.83	228.76
979.12	228.67
979.42	228.66
979.71	228.54
980.00	228.58
980.29	228.63
980.59	228.61
980.88	228.69
981.17	228.73
981.46	228.71
981.76	228.83
982.05	228.97
982.34	228.88
982.63	228.71
982.93	228.80
983.22	228.94
983.51	229.09
983.80	229.13
984.09	229.05
984.39	228.97
984.68	229.00
984.97	229.01
985.26	229.04
985.55	229.07
985.85	229.06
986.14	229.10
986.43	229.01
986.72	229.03
987.01	229.00
987.30	228.92
987.59	228.91
987.89	228.90
988.18	228.85
988.47	228.85
988.76	228.86
989.05	228.84
989.34	228.77
989.63	228.69
989.92	228.63
990.22	228.63
990.51	228.69
990.80	228.60
991.09	228.49
991.38	228.50
991.67	228.31
991.96	228.27
992.25	228.27
992.54	228.27
992.83	228.23
993.12	228.17
993.41	228.14
993.70	228.27
993.99	228.18
994.28	228.20
994.58	228.24
994.87	228.12
995.16	228.00
995.45	227.94
995.74	227.92
996.03	227.86
996.32	227.87
996.61	227.79
996.90	227.66
997.19	227.70
997.48	227.62
997.77	227.81
998.06	227.84
998.34	227.78
998.63	227.75
998.92	227.64
999.21	227.55
999.50	227.54
999.79	227.42
1000.08	227.41
1000.37	227.36
1000.66	227.27
1000.95	227.44
1001.24	227.48
1001.53	227.52
1001.82	227.49
1002.11	227.50
1002.40	227.46
1002.68	227.60
1002.97	227.69
1003.26	227.67
1003.55	227.67
1003.84	227.58
1004.13	227.55
1004.42	227.54
1004.71	227.51
1004.99	227.50
1005.28	227.54
1005.57	227.54
1005.86	227.40
1006.15	227.47
1006.44	227.49
1006.72	227.49
1007.01	227.38
1007.30	227.45
1007.59	227.52
1007.88	227.49
1008.17	227.56
1008.45	227.63
1008.74	227.48
1009.03	227.50
1009.32	227.63
1009.60	227.58
1009.89	227.70
1010.18	227.68
1010.47	227.66
1010.76	227.68
1011.04	227.74
1011.33	227.88
1011.62	228.04
1011.91	228.22
1012.19	228.23
1012.48	228.28
1012.77	228.36
1013.05	228.47
1013.34	228.56
1013.63	228.48
1013.92	228.56
1014.20	228.58
1014.49	228.58
1014.78	228.75
1015.06	228.78
1015.35	228.75
1015.64	228.90
1015.92	228.90
1016.21	229.09
1016.50	229.11
1016.78	229.18
1017.07	229.22
1017.36	229.23
1017.64	229.13
1017.93	229.15
1018.22	229.12
1018.50	229.10
1018.79	229.06
1019.08	229.00
1019.36	228.91
1019.65	228.95
1019.93	228.99
1020.22	229.03
1020.51	229.08
1020.79	229.09
1021.08	228.50
1021.36	228.50
1021.65	227.70
1021.94	228.60
1022.22	228.70
1022.51	229.50
1022.79	229.50
1023.08	229.60
1023.36	229.70
1023.65	230.30
>>>>>End Processed Spectral Data<<<<<
