SpectraSuite Data File
++++++++++++++++++++++++++++++++++++
Date: Fri Feb 01 14:33:51 EST 2013
User: group
Dark Spectrum Present: No
Reference Spectrum Present: No
Number of Sampled Component Spectra: 1
Spectrometers: USB2E7196
Integration Time (usec): 70000 (USB2E7196)
Spectra Averaged: 10 (USB2E7196)
Boxcar Smoothing: 10 (USB2E7196)
Correct for Electrical Dark: No (USB2E7196)
Strobe/Lamp Enabled: No (USB2E7196)
Correct for Detector Non-linearity: No (USB2E7196)
Correct for Stray Light: No (USB2E7196)
Number of Pixels in Processed Spectrum: 2048
>>>>>Begin Processed Spectral Data<<<<<
339.09	0.00
339.48	217.90
339.86	218.70
340.24	222.10
340.63	219.40
341.01	224.30
341.39	222.80
341.78	226.90
342.16	228.10
342.54	228.80
342.93	215.58
343.31	226.38
343.69	226.86
344.07	227.24
344.46	227.60
344.84	228.12
345.22	228.34
345.60	228.61
345.99	228.67
346.37	228.79
346.75	228.81
347.13	228.87
347.52	228.90
347.90	228.98
348.28	229.00
348.66	228.97
349.05	228.90
349.43	228.77
349.81	228.81
350.19	228.80
350.57	228.81
350.96	228.79
351.34	229.03
351.72	228.99
352.10	229.20
352.48	229.15
352.87	229.11
353.25	229.07
353.63	229.11
354.01	229.20
354.39	229.15
354.77	229.21
355.15	229.30
355.54	229.40
355.92	229.42
356.30	229.57
356.68	229.74
357.06	229.75
357.44	229.83
357.82	229.93
358.20	229.95
358.58	230.10
358.97	230.15
359.35	230.23
359.73	230.40
360.11	230.41
360.49	230.43
360.87	230.42
361.25	230.49
361.63	230.52
362.01	230.49
362.39	230.53
362.77	230.51
363.15	230.48
363.53	230.35
363.91	230.34
364.29	230.24
364.67	230.12
365.05	230.24
365.43	230.16
365.81	229.97
366.19	230.06
366.57	230.03
366.95	229.93
367.33	229.80
367.71	229.74
368.09	229.67
368.47	229.66
368.85	229.56
369.23	229.56
369.61	229.50
369.99	229.50
370.37	229.44
370.75	229.46
371.13	229.34
371.51	229.40
371.89	229.34
372.27	229.31
372.65	229.15
373.03	229.00
373.41	228.99
373.78	228.99
374.16	228.80
374.54	228.75
374.92	228.70
375.30	228.57
375.68	228.49
376.06	228.38
376.44	228.26
376.82	228.33
377.19	228.32
377.57	228.18
377.95	228.07
378.33	227.97
378.71	227.81
379.09	227.82
379.47	227.74
379.84	227.61
380.22	227.47
380.60	227.46
380.98	227.39
381.36	227.33
381.73	227.30
382.11	227.33
382.49	227.23
382.87	227.32
383.25	227.31
383.62	227.53
384.00	227.47
384.38	227.52
384.76	227.47
385.13	227.44
385.51	227.53
385.89	227.48
386.27	227.48
386.64	227.45
387.02	227.36
387.40	227.42
387.78	227.48
388.15	227.52
388.53	227.50
388.91	227.54
389.29	227.56
389.66	227.66
390.04	227.71
390.42	227.80
390.79	227.80
391.17	227.78
391.55	227.63
391.92	227.72
392.30	227.70
392.68	227.72
393.05	227.81
393.43	227.81
393.81	227.93
394.18	227.92
394.56	228.15
394.94	228.40
395.31	228.39
395.69	228.53
396.06	228.67
396.44	228.83
396.82	228.92
397.19	229.19
397.57	229.28
397.95	229.40
398.32	229.49
398.70	229.56
399.07	229.72
399.45	229.90
399.82	230.07
400.20	230.27
400.58	230.45
400.95	230.50
401.33	230.79
401.70	231.13
402.08	231.46
402.45	231.52
402.83	231.73
403.20	231.96
403.58	232.20
403.95	232.47
404.33	232.78
404.71	233.14
405.08	233.42
405.46	233.68
405.83	234.09
406.21	234.44
406.58	234.86
406.96	235.26
407.33	235.52
407.70	236.05
408.08	236.79
408.45	237.32
408.83	237.98
409.20	238.51
409.58	238.97
409.95	239.64
410.33	240.46
410.70	241.23
411.08	242.18
411.45	243.15
411.82	244.03
412.20	245.06
412.57	246.28
412.95	247.33
413.32	248.69
413.69	249.98
414.07	251.47
414.44	253.09
414.82	254.68
415.19	256.65
415.56	258.36
415.94	260.13
416.31	262.36
416.68	264.53
417.06	267.08
417.43	269.37
417.81	272.06
418.18	274.85
418.55	277.80
418.93	280.89
419.30	284.10
419.67	287.72
420.04	291.20
420.42	294.95
420.79	299.14
421.16	303.48
421.54	307.72
421.91	312.18
422.28	317.00
422.66	322.16
423.03	326.95
423.40	332.19
423.77	337.86
424.15	343.43
424.52	349.16
424.89	355.44
425.26	361.66
425.64	367.48
426.01	373.85
426.38	380.48
426.75	387.16
427.13	394.15
427.50	401.42
427.87	409.10
428.24	416.67
428.61	424.02
428.99	431.85
429.36	440.60
429.73	449.01
430.10	457.28
430.47	465.93
430.85	474.95
431.22	484.34
431.59	494.15
431.96	503.56
432.33	514.06
432.70	524.13
433.08	536.32
433.45	547.59
433.82	558.72
434.19	571.25
434.56	583.45
434.93	595.10
435.30	606.63
435.68	619.55
436.05	632.23
436.42	644.79
436.79	656.17
437.16	668.49
437.53	681.72
437.90	694.95
438.27	707.64
438.64	720.90
439.01	733.00
439.38	743.95
439.75	754.74
440.13	766.89
440.50	778.59
440.87	788.23
441.24	798.03
441.61	809.27
441.98	817.39
442.35	827.14
442.72	836.75
443.09	846.33
443.46	852.44
443.83	856.82
444.20	861.08
444.57	866.92
444.94	870.26
445.31	873.46
445.68	876.31
446.05	878.67
446.42	879.05
446.79	879.28
447.16	879.30
447.53	879.60
447.90	876.39
448.27	873.17
448.64	867.44
449.01	864.28
449.37	857.00
449.74	850.25
450.11	841.47
450.48	832.01
450.85	822.35
451.22	814.09
451.59	806.30
451.96	798.85
452.33	788.18
452.70	778.64
453.07	767.21
453.43	755.77
453.80	744.21
454.17	733.04
454.54	722.59
454.91	711.01
455.28	699.94
455.65	689.67
456.02	678.85
456.38	670.33
456.75	659.04
457.12	649.44
457.49	640.29
457.86	631.38
458.23	623.87
458.59	615.01
458.96	606.21
459.33	598.63
459.70	590.61
460.07	584.57
460.43	577.42
460.80	570.43
461.17	564.36
461.54	557.83
461.91	551.75
462.27	545.57
462.64	540.48
463.01	534.57
463.38	528.85
463.74	523.31
464.11	518.16
464.48	513.80
464.85	509.16
465.21	505.20
465.58	501.28
465.95	496.29
466.32	492.47
466.68	488.51
467.05	484.36
467.42	480.50
467.78	476.27
468.15	472.25
468.52	469.40
468.88	465.58
469.25	462.35
469.62	459.49
469.98	456.58
470.35	453.72
470.72	451.11
471.08	448.43
471.45	446.06
471.82	443.46
472.18	440.76
472.55	438.72
472.92	436.50
473.28	434.40
473.65	432.46
474.02	430.38
474.38	428.80
474.75	427.35
475.11	425.76
475.48	424.59
475.85	423.63
476.21	422.57
476.58	421.84
476.94	421.21
477.31	420.47
477.67	419.66
478.04	418.91
478.41	418.49
478.77	418.22
479.14	417.77
479.50	417.75
479.87	417.72
480.23	417.90
480.60	417.78
480.96	417.76
481.33	418.20
481.69	418.67
482.06	418.86
482.42	419.00
482.79	419.34
483.15	420.03
483.52	420.81
483.88	421.53
484.25	422.12
484.61	423.10
484.98	424.05
485.34	425.40
485.71	426.99
486.07	428.46
486.44	429.71
486.80	431.48
487.17	433.21
487.53	435.19
487.90	437.09
488.26	439.18
488.62	441.50
488.99	443.60
489.35	445.84
489.72	448.50
490.08	451.49
490.44	454.27
490.81	457.10
491.17	459.92
491.54	463.11
491.90	466.33
492.26	469.56
492.63	472.94
492.99	476.30
493.36	479.82
493.72	483.67
494.08	487.65
494.45	491.57
494.81	495.64
495.17	499.82
495.54	504.29
495.90	508.71
496.26	513.12
496.63	517.90
496.99	523.09
497.35	528.04
497.72	532.91
498.08	538.00
498.44	543.22
498.80	548.98
499.17	554.48
499.53	560.10
499.89	565.76
500.26	571.52
500.62	577.14
500.98	583.21
501.34	588.87
501.71	594.82
502.07	600.74
502.43	606.50
502.79	612.44
503.16	618.46
503.52	624.60
503.88	630.67
504.24	636.79
504.60	642.74
504.97	649.15
505.33	655.43
505.69	662.09
506.05	668.21
506.41	674.10
506.78	680.08
507.14	686.11
507.50	692.31
507.86	698.39
508.22	704.77
508.59	710.51
508.95	716.63
509.31	722.73
509.67	729.02
510.03	735.23
510.39	741.38
510.75	747.34
511.12	752.98
511.48	758.82
511.84	764.45
512.20	769.87
512.56	775.50
512.92	781.18
513.28	786.55
513.64	791.85
514.00	797.02
514.37	802.47
514.73	807.62
515.09	812.59
515.45	817.61
515.81	822.31
516.17	827.45
516.53	832.32
516.89	837.00
517.25	841.15
517.61	845.66
517.97	849.92
518.33	853.87
518.69	858.24
519.05	862.29
519.41	866.40
519.77	871.03
520.13	875.06
520.49	878.92
520.85	882.66
521.21	886.41
521.57	890.54
521.93	893.90
522.29	897.62
522.65	900.94
523.01	904.24
523.37	907.32
523.73	910.37
524.09	913.50
524.45	916.68
524.81	920.04
525.17	923.30
525.53	926.44
525.89	929.92
526.25	933.10
526.61	936.11
526.97	939.27
527.33	941.83
527.68	944.75
528.04	947.50
528.40	950.22
528.76	953.52
529.12	956.40
529.48	959.63
529.84	962.26
530.20	965.36
530.56	968.87
530.91	972.55
531.27	975.80
531.63	978.60
531.99	981.50
532.35	984.44
532.71	987.00
533.07	990.13
533.42	992.74
533.78	995.37
534.14	998.30
534.50	1000.77
534.86	1003.57
535.21	1005.75
535.57	1008.43
535.93	1011.23
536.29	1013.69
536.65	1015.96
537.00	1018.18
537.36	1021.03
537.72	1023.50
538.08	1025.54
538.44	1027.64
538.79	1029.72
539.15	1031.91
539.51	1034.26
539.87	1036.77
540.22	1039.03
540.58	1041.57
540.94	1043.89
541.29	1046.24
541.65	1048.68
542.01	1051.50
542.37	1054.04
542.72	1056.40
543.08	1058.65
543.44	1060.74
543.79	1062.40
544.15	1065.03
544.51	1067.79
544.87	1069.91
545.22	1071.86
545.58	1073.98
545.94	1075.74
546.29	1077.90
546.65	1080.08
547.01	1081.77
547.36	1083.40
547.72	1085.68
548.07	1087.00
548.43	1089.13
548.79	1090.97
549.14	1092.42
549.50	1093.70
549.86	1095.20
550.21	1096.93
550.57	1098.86
550.92	1100.41
551.28	1102.08
551.64	1103.31
551.99	1104.68
552.35	1106.13
552.70	1107.92
553.06	1109.52
553.41	1111.30
553.77	1112.83
554.13	1114.25
554.48	1116.01
554.84	1117.77
555.19	1119.15
555.55	1120.94
555.90	1121.97
556.26	1123.40
556.61	1124.74
556.97	1126.16
557.32	1127.50
557.68	1128.82
558.03	1130.23
558.39	1131.90
558.74	1133.64
559.10	1135.29
559.45	1136.57
559.81	1138.12
560.16	1139.25
560.52	1140.24
560.87	1141.73
561.23	1142.79
561.58	1144.37
561.94	1145.31
562.29	1146.09
562.64	1146.88
563.00	1147.69
563.35	1149.14
563.71	1151.04
564.06	1152.46
564.42	1153.71
564.77	1155.12
565.12	1156.62
565.48	1157.33
565.83	1157.95
566.19	1159.08
566.54	1159.92
566.89	1160.64
567.25	1161.30
567.60	1162.58
567.96	1163.48
568.31	1164.15
568.66	1164.99
569.02	1165.40
569.37	1165.86
569.72	1166.72
570.08	1167.30
570.43	1167.94
570.78	1168.22
571.14	1167.34
571.49	1167.33
571.84	1167.63
572.20	1167.51
572.55	1167.06
572.90	1166.94
573.26	1166.79
573.61	1166.34
573.96	1165.60
574.31	1164.89
574.67	1163.85
575.02	1162.35
575.37	1161.66
575.72	1160.14
576.08	1159.10
576.43	1158.00
576.78	1157.19
577.13	1156.00
577.49	1154.85
577.84	1153.50
578.19	1152.04
578.54	1151.11
578.90	1149.71
579.25	1147.88
579.60	1145.94
579.95	1144.53
580.30	1142.77
580.66	1140.93
581.01	1138.95
581.36	1137.39
581.71	1135.73
582.06	1134.21
582.42	1132.59
582.77	1130.92
583.12	1129.42
583.47	1127.76
583.82	1125.96
584.17	1123.91
584.53	1122.06
584.88	1120.26
585.23	1117.99
585.58	1115.82
585.93	1113.62
586.28	1111.73
586.63	1109.90
586.98	1107.95
587.34	1105.53
587.69	1103.54
588.04	1101.78
588.39	1099.67
588.74	1096.40
589.09	1094.02
589.44	1091.27
589.79	1088.96
590.14	1086.27
590.49	1083.75
590.84	1080.73
591.19	1078.38
591.54	1075.39
591.89	1071.80
592.25	1069.04
592.60	1066.14
592.95	1063.03
593.30	1059.67
593.65	1056.46
594.00	1053.25
594.35	1050.57
594.70	1046.99
595.05	1043.85
595.40	1040.27
595.75	1036.92
596.10	1034.61
596.45	1031.55
596.80	1028.98
597.15	1025.85
597.50	1022.70
597.85	1019.69
598.19	1016.89
598.54	1013.77
598.89	1010.82
599.24	1008.34
599.59	1005.21
599.94	1002.31
600.29	999.21
600.64	996.50
600.99	993.01
601.34	990.10
601.69	986.33
602.04	983.48
602.39	980.11
602.74	977.40
603.08	974.46
603.43	971.37
603.78	968.16
604.13	964.88
604.48	961.77
604.83	958.58
605.18	955.33
605.53	951.57
605.87	947.98
606.22	944.80
606.57	941.17
606.92	937.64
607.27	934.54
607.62	931.70
607.96	928.31
608.31	925.41
608.66	921.58
609.01	918.09
609.36	914.31
609.70	910.60
610.05	906.88
610.40	903.21
610.75	899.33
611.10	895.21
611.44	890.99
611.79	887.01
612.14	883.23
612.49	878.92
612.83	875.28
613.18	871.21
613.53	867.37
613.88	863.34
614.22	859.27
614.57	855.11
614.92	850.90
615.27	847.20
615.61	843.27
615.96	839.60
616.31	836.13
616.65	833.09
617.00	829.51
617.35	825.56
617.70	821.89
618.04	818.06
618.39	814.79
618.74	811.55
619.08	808.04
619.43	804.42
619.78	801.01
620.12	797.35
620.47	794.02
620.82	790.36
621.16	787.19
621.51	784.01
621.85	780.14
622.20	776.56
622.55	772.96
622.89	769.51
623.24	766.05
623.59	762.62
623.93	758.97
624.28	755.40
624.62	752.26
624.97	748.85
625.32	745.78
625.66	742.52
626.01	738.93
626.35	735.62
626.70	732.22
627.04	729.06
627.39	725.80
627.73	722.41
628.08	719.32
628.43	715.91
628.77	712.85
629.12	709.84
629.46	706.71
629.81	703.28
630.15	699.78
630.50	696.59
630.84	692.79
631.19	689.25
631.53	686.01
631.88	682.27
632.22	678.85
632.57	675.51
632.91	672.05
633.26	668.73
633.60	665.30
633.95	661.93
634.29	658.67
634.64	655.61
634.98	652.37
635.32	649.18
635.67	646.50
636.01	643.26
636.36	640.04
636.70	637.02
637.05	634.00
637.39	631.17
637.73	628.07
638.08	625.56
638.42	622.99
638.77	620.24
639.11	617.57
639.45	614.86
639.80	611.97
640.14	609.09
640.49	606.22
640.83	603.34
641.17	600.75
641.52	597.98
641.86	594.97
642.20	592.31
642.55	589.45
642.89	586.44
643.23	583.22
643.58	580.70
643.92	577.77
644.26	575.14
644.61	572.60
644.95	569.70
645.29	566.81
645.64	563.89
645.98	561.02
646.32	558.40
646.66	555.37
647.01	552.49
647.35	549.88
647.69	547.36
648.04	544.93
648.38	542.15
648.72	539.29
649.06	536.74
649.41	534.10
649.75	531.37
650.09	528.53
650.43	526.20
650.78	523.23
651.12	520.69
651.46	518.09
651.80	515.42
652.14	513.13
652.49	510.55
652.83	508.14
653.17	505.50
653.51	502.72
653.85	500.48
654.20	498.08
654.54	495.69
654.88	492.98
655.22	490.25
655.56	487.54
655.90	485.02
656.25	482.61
656.59	480.20
656.93	478.00
657.27	475.84
657.61	473.30
657.95	471.15
658.29	468.89
658.64	466.50
658.98	464.00
659.32	461.63
659.66	459.53
660.00	457.10
660.34	455.09
660.68	453.18
661.02	450.73
661.36	448.71
661.70	446.64
662.05	445.00
662.39	443.26
662.73	441.50
663.07	439.91
663.41	437.92
663.75	435.94
664.09	433.92
664.43	431.98
664.77	430.16
665.11	428.42
665.45	426.62
665.79	424.81
666.13	423.10
666.47	421.24
666.81	419.39
667.15	417.51
667.49	415.74
667.83	413.92
668.17	412.45
668.51	410.62
668.85	408.74
669.19	407.12
669.53	405.29
669.87	403.60
670.21	402.00
670.55	400.46
670.89	399.17
671.23	397.67
671.57	396.11
671.91	394.62
672.25	393.15
672.58	391.66
672.92	390.17
673.26	388.70
673.60	387.33
673.94	386.01
674.28	384.74
674.62	383.46
674.96	382.06
675.30	380.74
675.64	379.34
675.97	378.10
676.31	376.61
676.65	375.39
676.99	374.12
677.33	372.73
677.67	371.38
678.01	369.82
678.34	368.40
678.68	367.13
679.02	365.86
679.36	364.48
679.70	363.07
680.04	361.74
680.37	360.52
680.71	359.21
681.05	357.90
681.39	356.67
681.73	355.50
682.06	354.35
682.40	353.04
682.74	351.97
683.08	350.82
683.42	349.52
683.75	348.25
684.09	347.07
684.43	345.77
684.77	344.64
685.10	343.54
685.44	342.48
685.78	341.23
686.12	340.03
686.45	338.81
686.79	337.73
687.13	336.83
687.46	335.70
687.80	334.56
688.14	333.41
688.48	332.41
688.81	331.09
689.15	330.00
689.49	328.91
689.82	327.88
690.16	326.67
690.50	325.78
690.83	324.70
691.17	323.65
691.51	322.79
691.84	321.75
692.18	320.62
692.52	319.51
692.85	318.55
693.19	317.67
693.52	316.73
693.86	315.70
694.20	314.64
694.53	313.63
694.87	312.69
695.21	311.72
695.54	310.82
695.88	309.99
696.21	309.03
696.55	308.22
696.88	307.39
697.22	306.49
697.56	305.47
697.89	304.70
698.23	303.78
698.56	302.83
698.90	302.13
699.23	301.25
699.57	300.46
699.90	299.58
700.24	298.80
700.58	298.18
700.91	297.52
701.25	296.90
701.58	296.33
701.92	295.77
702.25	295.09
702.59	294.45
702.92	293.82
703.26	293.10
703.59	292.41
703.93	291.84
704.26	291.34
704.60	290.79
704.93	290.13
705.26	289.55
705.60	289.06
705.93	288.40
706.27	287.96
706.60	287.47
706.94	287.15
707.27	286.45
707.61	285.90
707.94	285.19
708.27	284.41
708.61	283.70
708.94	283.09
709.28	282.48
709.61	281.87
709.94	281.33
710.28	280.80
710.61	280.31
710.95	279.63
711.28	279.10
711.61	278.60
711.95	278.06
712.28	277.44
712.61	276.79
712.95	276.35
713.28	275.98
713.61	275.41
713.95	274.72
714.28	274.36
714.61	273.75
714.95	273.35
715.28	272.81
715.61	272.31
715.95	271.78
716.28	271.31
716.61	270.95
716.95	270.45
717.28	270.11
717.61	269.60
717.94	269.19
718.28	268.75
718.61	268.27
718.94	267.90
719.27	267.57
719.61	267.19
719.94	266.61
720.27	265.95
720.60	265.53
720.94	265.20
721.27	264.74
721.60	264.38
721.93	264.08
722.27	263.82
722.60	263.50
722.93	263.07
723.26	262.70
723.59	262.30
723.93	261.90
724.26	261.57
724.59	261.30
724.92	260.97
725.25	260.53
725.59	260.20
725.92	259.89
726.25	259.51
726.58	259.14
726.91	258.91
727.24	258.68
727.57	258.34
727.91	257.93
728.24	257.59
728.57	257.25
728.90	256.95
729.23	256.58
729.56	256.42
729.89	256.19
730.22	256.01
730.55	255.70
730.89	255.57
731.22	255.18
731.55	254.72
731.88	254.57
732.21	254.33
732.54	253.92
732.87	253.71
733.20	253.45
733.53	253.32
733.86	253.05
734.19	252.83
734.52	252.79
734.85	252.70
735.18	252.56
735.51	252.41
735.84	252.10
736.17	251.93
736.50	251.59
736.83	251.59
737.16	251.30
737.49	250.99
737.82	250.61
738.15	250.34
738.48	250.23
738.81	249.84
739.14	249.57
739.47	249.49
739.80	249.18
740.13	249.16
740.46	248.92
740.79	248.71
741.12	248.52
741.45	248.22
741.78	248.04
742.11	247.84
742.44	247.62
742.77	247.51
743.10	247.32
743.43	247.13
743.75	246.69
744.08	246.75
744.41	246.63
744.74	246.47
745.07	246.44
745.40	246.28
745.73	246.23
746.06	246.10
746.39	245.94
746.71	245.76
747.04	245.48
747.37	245.31
747.70	245.06
748.03	244.92
748.36	244.79
748.68	244.51
749.01	244.24
749.34	244.08
749.67	243.90
750.00	243.80
750.33	243.70
750.65	243.60
750.98	243.29
751.31	243.06
751.64	242.94
751.97	242.81
752.29	242.67
752.62	242.40
752.95	242.21
753.28	242.17
753.60	241.98
753.93	241.96
754.26	241.77
754.59	241.72
754.91	241.48
755.24	241.23
755.57	241.06
755.90	241.06
756.22	240.93
756.55	240.81
756.88	240.63
757.20	240.47
757.53	240.23
757.86	239.99
758.19	239.91
758.51	239.79
758.84	239.50
759.17	239.38
759.49	239.30
759.82	239.24
760.15	238.93
760.47	238.84
760.80	238.57
761.13	238.50
761.45	238.29
761.78	238.19
762.11	238.10
762.43	238.03
762.76	237.88
763.08	237.71
763.41	237.56
763.74	237.43
764.06	237.28
764.39	237.21
764.71	237.17
765.04	237.02
765.37	236.85
765.69	236.76
766.02	236.66
766.34	236.50
766.67	236.38
767.00	236.42
767.32	236.42
767.65	236.49
767.97	236.35
768.30	236.30
768.62	236.20
768.95	236.03
769.27	235.99
769.60	235.79
769.92	235.72
770.25	235.60
770.57	235.48
770.90	235.39
771.22	235.26
771.55	235.27
771.87	235.18
772.20	235.15
772.52	235.29
772.85	235.38
773.17	235.24
773.50	235.10
773.82	234.98
774.15	234.77
774.47	234.60
774.80	234.45
775.12	234.42
775.45	234.41
775.77	234.46
776.09	234.40
776.42	234.52
776.74	234.47
777.07	234.47
777.39	234.41
777.72	234.42
778.04	234.46
778.36	234.32
778.69	234.30
779.01	234.27
779.33	234.04
779.66	233.87
779.98	233.82
780.31	233.78
780.63	233.82
780.95	233.86
781.28	233.74
781.60	233.83
781.92	233.73
782.25	233.64
782.57	233.64
782.89	233.55
783.22	233.48
783.54	233.46
783.86	233.47
784.19	233.47
784.51	233.44
784.83	233.38
785.16	233.32
785.48	233.30
785.80	233.27
786.12	233.30
786.45	233.24
786.77	233.40
787.09	233.42
787.42	233.38
787.74	233.38
788.06	233.41
788.38	233.41
788.71	233.39
789.03	233.32
789.35	233.32
789.67	233.29
789.99	233.26
790.32	233.25
790.64	233.23
790.96	233.37
791.28	233.30
791.61	233.24
791.93	233.20
792.25	233.28
792.57	233.32
792.89	233.19
793.21	233.17
793.54	233.04
793.86	232.93
794.18	232.89
794.50	232.82
794.82	232.88
795.14	232.71
795.47	232.87
795.79	232.89
796.11	232.71
796.43	232.58
796.75	232.61
797.07	232.48
797.39	232.43
797.71	232.24
798.04	232.20
798.36	232.23
798.68	232.19
799.00	232.04
799.32	231.94
799.64	231.98
799.96	231.83
800.28	231.69
800.60	231.74
800.92	231.77
801.24	231.70
801.56	231.60
801.89	231.63
802.21	231.46
802.53	231.38
802.85	231.47
803.17	231.56
803.49	231.33
803.81	231.27
804.13	231.15
804.45	231.05
804.77	230.97
805.09	230.93
805.41	230.88
805.73	230.79
806.05	230.67
806.37	230.65
806.69	230.63
807.01	230.68
807.33	230.65
807.65	230.43
807.97	230.40
808.28	230.26
808.60	230.13
808.92	230.10
809.24	230.16
809.56	230.01
809.88	229.91
810.20	229.87
810.52	229.87
810.84	229.93
811.16	229.90
811.48	229.86
811.80	229.80
812.12	229.74
812.43	229.80
812.75	229.80
813.07	229.78
813.39	229.86
813.71	229.79
814.03	229.73
814.35	229.71
814.67	229.67
814.98	229.63
815.30	229.61
815.62	229.53
815.94	229.42
816.26	229.57
816.58	229.58
816.89	229.71
817.21	229.71
817.53	229.64
817.85	229.65
818.17	229.62
818.48	229.70
818.80	229.76
819.12	229.71
819.44	229.68
819.76	229.57
820.07	229.58
820.39	229.60
820.71	229.67
821.03	229.76
821.34	229.80
821.66	229.91
821.98	229.96
822.30	229.94
822.61	230.10
822.93	229.92
823.25	229.88
823.57	229.88
823.88	229.99
824.20	230.05
824.52	230.11
824.83	230.11
825.15	230.10
825.47	230.17
825.79	230.30
826.10	230.34
826.42	230.42
826.74	230.40
827.05	230.51
827.37	230.59
827.69	230.51
828.00	230.62
828.32	230.61
828.64	230.67
828.95	230.88
829.27	230.88
829.58	230.91
829.90	230.93
830.22	230.92
830.53	230.83
830.85	230.83
831.17	230.82
831.48	230.85
831.80	230.81
832.11	230.72
832.43	230.57
832.75	230.59
833.06	230.61
833.38	230.56
833.69	230.46
834.01	230.37
834.32	230.34
834.64	230.22
834.96	230.17
835.27	230.13
835.59	229.98
835.90	229.85
836.22	229.87
836.53	229.87
836.85	229.81
837.16	229.99
837.48	229.91
837.79	229.94
838.11	229.97
838.42	229.96
838.74	230.00
839.05	230.00
839.37	229.91
839.68	229.80
840.00	229.74
840.31	229.76
840.63	229.72
840.94	229.80
841.26	229.73
841.57	229.65
841.88	229.60
842.20	229.51
842.51	229.54
842.83	229.51
843.14	229.68
843.46	229.68
843.77	229.50
844.08	229.55
844.40	229.38
844.71	229.27
845.03	229.17
845.34	229.25
845.65	229.16
845.97	229.17
846.28	229.18
846.60	229.17
846.91	229.05
847.22	228.99
847.54	228.91
847.85	228.90
848.16	228.95
848.48	228.90
848.79	228.97
849.10	228.86
849.42	228.77
849.73	228.58
850.04	228.49
850.36	228.40
850.67	228.40
850.98	228.38
851.30	228.38
851.61	228.34
851.92	228.22
852.23	228.23
852.55	228.25
852.86	228.29
853.17	228.24
853.49	228.24
853.80	228.26
854.11	228.33
854.42	228.31
854.74	228.29
855.05	228.37
855.36	228.35
855.67	228.39
855.99	228.47
856.30	228.62
856.61	228.72
856.92	228.72
857.23	228.62
857.55	228.59
857.86	228.63
858.17	228.68
858.48	228.69
858.79	228.80
859.11	228.74
859.42	228.72
859.73	228.77
860.04	228.78
860.35	228.73
860.66	228.60
860.98	228.75
861.29	228.79
861.60	228.77
861.91	228.84
862.22	228.89
862.53	228.81
862.84	228.68
863.16	228.63
863.47	228.59
863.78	228.69
864.09	228.85
864.40	228.88
864.71	228.83
865.02	228.81
865.33	228.74
865.64	228.81
865.95	228.76
866.27	228.99
866.58	229.07
866.89	229.07
867.20	229.11
867.51	229.12
867.82	229.19
868.13	229.30
868.44	229.20
868.75	229.19
869.06	229.32
869.37	229.31
869.68	229.33
869.99	229.46
870.30	229.49
870.61	229.52
870.92	229.58
871.23	229.66
871.54	229.79
871.85	229.82
872.16	229.87
872.47	229.95
872.78	229.72
873.09	229.72
873.40	229.79
873.71	229.80
874.02	229.67
874.33	229.65
874.64	229.53
874.95	229.61
875.26	229.58
875.56	229.59
875.87	229.65
876.18	229.63
876.49	229.82
876.80	229.77
877.11	229.70
877.42	229.60
877.73	229.61
878.04	229.46
878.35	229.40
878.66	229.28
878.96	229.17
879.27	229.23
879.58	229.12
879.89	229.09
880.20	229.20
880.51	229.15
880.82	228.94
881.12	228.91
881.43	228.82
881.74	228.74
882.05	228.65
882.36	228.64
882.67	228.62
882.97	228.32
883.28	228.20
883.59	228.11
883.90	228.14
884.21	228.13
884.51	228.12
884.82	228.08
885.13	228.10
885.44	228.10
885.74	228.02
886.05	228.00
886.36	227.94
886.67	227.79
886.98	227.92
887.28	228.00
887.59	228.00
887.90	228.04
888.20	228.05
888.51	228.05
888.82	227.92
889.13	227.94
889.43	228.02
889.74	228.12
890.05	228.10
890.35	228.04
890.66	227.97
890.97	227.91
891.28	227.93
891.58	227.92
891.89	227.96
892.20	227.90
892.50	227.94
892.81	227.89
893.12	227.84
893.42	227.76
893.73	227.82
894.04	227.83
894.34	227.79
894.65	227.75
894.95	227.71
895.26	227.70
895.57	227.83
895.87	227.74
896.18	227.74
896.48	227.74
896.79	227.84
897.10	227.90
897.40	227.96
897.71	228.02
898.01	228.07
898.32	228.00
898.63	228.01
898.93	228.06
899.24	228.07
899.54	228.10
899.85	228.05
900.15	228.06
900.46	228.06
900.76	228.18
901.07	228.25
901.38	228.28
901.68	228.26
901.99	228.12
902.29	228.14
902.60	228.18
902.90	228.21
903.21	228.16
903.51	228.15
903.82	228.16
904.12	228.19
904.43	228.20
904.73	228.33
905.03	228.49
905.34	228.71
905.64	228.75
905.95	228.83
906.25	228.86
906.56	228.93
906.86	228.95
907.17	228.89
907.47	228.93
907.77	228.98
908.08	229.13
908.38	229.23
908.69	229.31
908.99	229.39
909.30	229.43
909.60	229.49
909.90	229.50
910.21	229.59
910.51	229.56
910.81	229.63
911.12	229.60
911.42	229.57
911.73	229.33
912.03	229.41
912.33	229.36
912.64	229.46
912.94	229.44
913.24	229.38
913.55	229.41
913.85	229.40
914.15	229.32
914.46	229.19
914.76	229.17
915.06	229.11
915.37	228.96
915.67	228.94
915.97	229.00
916.27	229.04
916.58	229.02
916.88	228.99
917.18	228.97
917.49	229.15
917.79	229.09
918.09	229.08
918.39	229.18
918.70	229.30
919.00	229.22
919.30	229.26
919.60	229.32
919.91	229.30
920.21	229.31
920.51	229.35
920.81	229.38
921.12	229.29
921.42	229.28
921.72	229.40
922.02	229.39
922.32	229.24
922.63	229.17
922.93	229.21
923.23	229.12
923.53	229.00
923.83	228.77
924.13	228.79
924.44	228.83
924.74	228.75
925.04	228.66
925.34	228.64
925.64	228.51
925.94	228.42
926.24	228.43
926.55	228.39
926.85	228.36
927.15	228.33
927.45	228.30
927.75	228.25
928.05	228.20
928.35	228.04
928.65	228.08
928.95	228.04
929.26	227.90
929.56	228.00
929.86	228.04
930.16	228.03
930.46	228.00
930.76	227.99
931.06	227.91
931.36	227.72
931.66	227.77
931.96	227.77
932.26	227.81
932.56	227.75
932.86	227.73
933.16	227.80
933.46	227.81
933.76	227.80
934.06	227.78
934.36	227.74
934.66	227.87
934.96	227.75
935.26	227.77
935.56	227.69
935.86	227.61
936.16	227.62
936.46	227.69
936.76	227.66
937.06	227.65
937.36	227.76
937.66	227.95
937.96	228.00
938.26	227.99
938.56	228.01
938.86	228.07
939.16	228.15
939.46	228.16
939.76	228.22
940.06	228.27
940.35	228.28
940.65	228.20
940.95	228.15
941.25	228.20
941.55	228.22
941.85	228.35
942.15	228.40
942.45	228.45
942.75	228.38
943.04	228.49
943.34	228.48
943.64	228.33
943.94	228.42
944.24	228.34
944.54	228.41
944.84	228.37
945.13	228.31
945.43	228.25
945.73	228.30
946.03	228.22
946.33	228.28
946.62	228.28
946.92	228.35
947.22	228.48
947.52	228.53
947.82	228.63
948.11	228.67
948.41	228.75
948.71	228.67
949.01	228.71
949.31	228.68
949.60	228.65
949.90	228.74
950.20	228.64
950.50	228.72
950.79	228.65
951.09	228.69
951.39	228.69
951.69	228.74
951.98	228.71
952.28	228.81
952.58	228.68
952.87	228.74
953.17	228.71
953.47	228.73
953.76	228.75
954.06	228.64
954.36	228.62
954.66	228.59
954.95	228.66
955.25	228.70
955.55	228.62
955.84	228.65
956.14	228.67
956.44	228.71
956.73	228.63
957.03	228.78
957.32	228.78
957.62	228.76
957.92	228.69
958.21	228.61
958.51	228.78
958.81	228.91
959.10	228.92
959.40	228.96
959.69	228.89
959.99	228.88
960.29	228.91
960.58	228.83
960.88	228.90
961.17	228.82
961.47	228.88
961.76	228.81
962.06	228.82
962.36	228.73
962.65	228.68
962.95	228.63
963.24	228.48
963.54	228.54
963.83	228.53
964.13	228.59
964.42	228.49
964.72	228.34
965.01	228.25
965.31	228.25
965.60	228.24
965.90	228.35
966.19	228.30
966.49	228.29
966.78	228.31
967.08	228.33
967.37	228.31
967.67	228.19
967.96	228.30
968.26	228.29
968.55	228.35
968.85	228.34
969.14	228.32
969.43	228.25
969.73	228.17
970.02	228.19
970.32	228.22
970.61	228.29
970.91	228.10
971.20	228.08
971.49	228.00
971.79	227.96
972.08	227.80
972.38	227.90
972.67	227.84
972.96	227.88
973.26	227.80
973.55	227.79
973.85	227.76
974.14	227.76
974.43	227.75
974.73	227.67
975.02	227.65
975.31	227.75
975.61	227.78
975.90	227.80
976.19	227.74
976.49	227.65
976.78	227.65
977.07	227.71
977.37	227.73
977.66	227.76
977.95	227.79
978.24	227.79
978.54	227.76
978.83	227.67
979.12	227.59
979.42	227.47
979.71	227.50
980.00	227.49
980.29	227.56
980.59	227.56
980.88	227.68
981.17	227.73
981.46	227.69
981.76	227.78
982.05	227.86
982.34	227.94
982.63	227.98
982.93	227.94
983.22	228.04
983.51	228.08
983.80	228.08
984.09	228.18
984.39	228.20
984.68	228.23
984.97	228.38
985.26	228.40
985.55	228.52
985.85	228.55
986.14	228.72
986.43	228.79
986.72	228.78
987.01	228.71
987.30	228.65
987.59	228.69
987.89	228.60
988.18	228.54
988.47	228.53
988.76	228.54
989.05	228.60
989.34	228.59
989.63	228.60
989.92	228.70
990.22	228.55
990.51	228.46
990.80	228.40
991.09	228.37
991.38	228.41
991.67	228.42
991.96	228.42
992.25	228.31
992.54	228.24
992.83	228.32
993.12	228.40
993.41	228.53
993.70	228.60
993.99	228.72
994.28	228.82
994.58	228.87
994.87	228.78
995.16	228.81
995.45	228.88
995.74	228.91
996.03	228.94
996.32	229.02
996.61	229.22
996.90	229.30
997.19	229.32
997.48	229.35
997.77	229.32
998.06	229.15
998.34	229.20
998.63	229.10
998.92	229.03
999.21	228.99
999.50	228.89
999.79	228.91
1000.08	228.86
1000.37	228.78
1000.66	228.73
1000.95	228.76
1001.24	228.66
1001.53	228.63
1001.82	228.50
1002.11	228.39
1002.40	228.33
1002.68	228.25
1002.97	228.20
1003.26	228.15
1003.55	228.12
1003.84	228.10
1004.13	228.20
1004.42	228.16
1004.71	228.13
1004.99	228.10
1005.28	228.09
1005.57	228.04
1005.86	227.91
1006.15	227.91
1006.44	227.91
1006.72	227.87
1007.01	227.93
1007.30	228.02
1007.59	227.91
1007.88	227.90
1008.17	227.89
1008.45	227.98
1008.74	228.02
1009.03	228.10
1009.32	228.10
1009.60	228.07
1009.89	228.12
1010.18	228.06
1010.47	228.02
1010.76	228.10
1011.04	228.09
1011.33	228.11
1011.62	228.15
1011.91	228.16
1012.19	228.18
1012.48	228.12
1012.77	228.15
1013.05	228.17
1013.34	228.16
1013.63	228.22
1013.92	228.28
1014.20	228.36
1014.49	228.38
1014.78	228.34
1015.06	228.21
1015.35	228.26
1015.64	228.33
1015.92	228.35
1016.21	228.48
1016.50	228.48
1016.78	228.54
1017.07	228.55
1017.36	228.57
1017.64	228.59
1017.93	228.60
1018.22	228.57
1018.50	228.67
1018.79	228.62
1019.08	228.59
1019.36	228.60
1019.65	228.52
1019.93	228.66
1020.22	228.56
1020.51	228.64
1020.79	228.70
1021.08	228.20
1021.36	229.30
1021.65	227.70
1021.94	228.10
1022.22	229.00
1022.51	226.80
1022.79	230.80
1023.08	226.90
1023.36	231.70
1023.65	229.90
>>>>>End Processed Spectral Data<<<<<
