SpectraSuite Data File
++++++++++++++++++++++++++++++++++++
Date: Fri Feb 01 14:36:56 EST 2013
User: group
Dark Spectrum Present: No
Reference Spectrum Present: No
Number of Sampled Component Spectra: 1
Spectrometers: USB2E7196
Integration Time (usec): 70000 (USB2E7196)
Spectra Averaged: 10 (USB2E7196)
Boxcar Smoothing: 10 (USB2E7196)
Correct for Electrical Dark: No (USB2E7196)
Strobe/Lamp Enabled: No (USB2E7196)
Correct for Detector Non-linearity: No (USB2E7196)
Correct for Stray Light: No (USB2E7196)
Number of Pixels in Processed Spectrum: 2048
>>>>>Begin Processed Spectral Data<<<<<
339.09	0.00
339.48	216.50
339.86	217.70
340.24	217.70
340.63	221.40
341.01	225.00
341.39	222.90
341.78	225.20
342.16	229.00
342.54	224.60
342.93	214.82
343.31	225.70
343.69	226.24
344.07	226.69
344.46	227.10
344.84	227.42
345.22	227.55
345.60	227.83
345.99	227.84
346.37	227.76
346.75	227.91
347.13	227.92
347.52	227.88
347.90	227.93
348.28	227.99
348.66	228.14
349.05	228.10
349.43	228.14
349.81	228.10
350.19	228.14
350.57	228.29
350.96	228.35
351.34	228.36
351.72	228.33
352.10	228.38
352.48	228.52
352.87	228.55
353.25	228.53
353.63	228.64
354.01	228.78
354.39	228.96
354.77	229.02
355.15	229.13
355.54	229.19
355.92	229.17
356.30	229.13
356.68	229.28
357.06	229.32
357.44	229.34
357.82	229.42
358.20	229.44
358.58	229.51
358.97	229.57
359.35	229.70
359.73	229.89
360.11	229.98
360.49	230.04
360.87	230.08
361.25	230.29
361.63	230.37
362.01	230.50
362.39	230.41
362.77	230.53
363.15	230.62
363.53	230.75
363.91	230.84
364.29	230.98
364.67	230.83
365.05	230.90
365.43	231.00
365.81	231.06
366.19	231.23
366.57	231.26
366.95	231.22
367.33	231.20
367.71	231.19
368.09	231.26
368.47	231.25
368.85	231.29
369.23	231.24
369.61	231.14
369.99	231.20
370.37	231.27
370.75	231.21
371.13	231.13
371.51	230.98
371.89	230.92
372.27	230.76
372.65	230.71
373.03	230.68
373.41	230.55
373.78	230.49
374.16	230.29
374.54	230.10
374.92	230.09
375.30	230.00
375.68	229.87
376.06	229.76
376.44	229.60
376.82	229.51
377.19	229.34
377.57	229.30
377.95	229.14
378.33	228.98
378.71	228.87
379.09	228.73
379.47	228.69
379.84	228.61
380.22	228.65
380.60	228.46
380.98	228.31
381.36	228.22
381.73	228.19
382.11	228.24
382.49	228.27
382.87	228.18
383.25	228.13
383.62	228.38
384.00	228.35
384.38	228.30
384.76	228.22
385.13	228.38
385.51	228.18
385.89	228.06
386.27	228.08
386.64	227.96
387.02	227.86
387.40	227.79
387.78	227.64
388.15	227.49
388.53	227.47
388.91	227.50
389.29	227.44
389.66	227.33
390.04	227.12
390.42	227.00
390.79	226.98
391.17	226.84
391.55	226.62
391.92	226.64
392.30	226.70
392.68	226.72
393.05	226.67
393.43	226.68
393.81	226.76
394.18	226.75
394.56	226.92
394.94	227.00
395.31	227.00
395.69	227.13
396.06	227.22
396.44	227.22
396.82	227.19
397.19	227.34
397.57	227.40
397.95	227.63
398.32	227.69
398.70	227.79
399.07	228.06
399.45	228.02
399.82	228.00
400.20	228.05
400.58	228.17
400.95	228.18
401.33	228.43
401.70	228.63
402.08	228.70
402.45	228.70
402.83	228.94
403.20	229.15
403.58	229.35
403.95	229.58
404.33	229.79
404.71	230.00
405.08	230.22
405.46	230.46
405.83	230.60
406.21	230.73
406.58	230.92
406.96	231.02
407.33	231.38
407.70	231.76
408.08	232.23
408.45	232.53
408.83	232.96
409.20	233.35
409.58	233.58
409.95	234.14
410.33	234.64
410.70	235.13
411.08	235.60
411.45	236.10
411.82	236.64
412.20	237.35
412.57	238.12
412.95	238.67
413.32	239.39
413.69	240.11
414.07	241.00
414.44	241.90
414.82	242.89
415.19	243.85
415.56	244.67
415.94	245.67
416.31	246.87
416.68	247.84
417.06	249.06
417.43	250.33
417.81	251.68
418.18	253.08
418.55	254.49
418.93	256.14
419.30	257.84
419.67	259.50
420.04	261.26
420.42	263.12
420.79	265.40
421.16	267.55
421.54	269.83
421.91	272.16
422.28	274.50
422.66	277.09
423.03	279.50
423.40	282.13
423.77	284.84
424.15	287.70
424.52	290.70
424.89	293.72
425.26	296.79
425.64	299.70
426.01	302.89
426.38	306.25
426.75	309.65
427.13	313.06
427.50	316.95
427.87	320.84
428.24	324.71
428.61	328.29
428.99	332.31
429.36	336.54
429.73	340.79
430.10	345.12
430.47	349.26
430.85	353.77
431.22	358.63
431.59	363.67
431.96	368.40
432.33	373.73
432.70	378.94
433.08	384.93
433.45	390.64
433.82	396.34
434.19	402.66
434.56	408.70
434.93	414.52
435.30	420.20
435.68	426.70
436.05	432.93
436.42	439.32
436.79	444.90
437.16	451.19
437.53	457.66
437.90	464.18
438.27	470.66
438.64	477.15
439.01	483.21
439.38	488.63
439.75	493.79
440.13	499.89
440.50	505.80
440.87	510.55
441.24	515.41
441.61	520.77
441.98	524.75
442.35	529.54
442.72	534.33
443.09	539.08
443.46	541.91
443.83	543.85
444.20	545.61
444.57	548.44
444.94	549.82
445.31	551.35
445.68	552.97
446.05	553.98
446.42	554.06
446.79	554.00
447.16	553.66
447.53	553.88
447.90	552.10
448.27	550.17
448.64	547.33
449.01	545.59
449.37	541.95
449.74	538.45
450.11	534.10
450.48	529.41
450.85	524.49
451.22	520.51
451.59	516.73
451.96	513.19
452.33	507.93
452.70	503.38
453.07	497.63
453.43	491.73
453.80	486.18
454.17	480.72
454.54	475.52
454.91	470.00
455.28	464.37
455.65	459.09
456.02	453.93
456.38	449.57
456.75	443.91
457.12	439.26
457.49	434.64
457.86	430.14
458.23	426.30
458.59	421.80
458.96	417.20
459.33	413.30
459.70	409.17
460.07	405.97
460.43	402.17
460.80	398.84
461.17	395.75
461.54	392.32
461.91	389.22
462.27	385.96
462.64	383.32
463.01	380.36
463.38	377.47
463.74	374.59
464.11	372.17
464.48	369.91
464.85	367.39
465.21	365.39
465.58	363.31
465.95	360.85
466.32	358.90
466.68	356.84
467.05	354.87
467.42	352.98
467.78	350.90
468.15	348.94
468.52	347.37
468.88	345.30
469.25	343.57
469.62	342.24
469.98	340.67
470.35	338.96
470.72	337.57
471.08	336.12
471.45	334.75
471.82	333.24
472.18	331.65
472.55	330.57
472.92	329.30
473.28	328.15
473.65	326.99
474.02	325.89
474.38	324.98
474.75	324.01
475.11	322.89
475.48	322.06
475.85	321.32
476.21	320.62
476.58	319.95
476.94	319.40
477.31	318.55
477.67	317.93
478.04	317.51
478.41	317.09
478.77	316.73
479.14	316.24
479.50	315.81
479.87	315.52
480.23	315.32
480.60	314.95
480.96	314.59
481.33	314.50
481.69	314.46
482.06	314.36
482.42	314.24
482.79	314.23
483.15	314.30
483.52	314.54
483.88	314.44
484.25	314.53
484.61	314.53
484.98	314.77
485.34	314.96
485.71	315.28
486.07	315.55
486.44	315.62
486.80	316.06
487.17	316.55
487.53	317.17
487.90	317.53
488.26	318.13
488.62	318.72
488.99	319.18
489.35	319.70
489.72	320.31
490.08	321.04
490.44	321.74
490.81	322.30
491.17	322.82
491.54	323.70
491.90	324.38
492.26	325.35
492.63	326.20
492.99	326.99
493.36	327.90
493.72	328.83
494.08	329.99
494.45	330.99
494.81	331.90
495.17	332.96
495.54	334.04
495.90	335.11
496.26	336.19
496.63	337.29
496.99	338.45
497.35	339.49
497.72	340.37
498.08	341.56
498.44	342.81
498.80	344.10
499.17	345.22
499.53	346.33
499.89	347.47
500.26	348.50
500.62	349.71
500.98	350.92
501.34	351.98
501.71	353.09
502.07	354.03
502.43	355.07
502.79	356.00
503.16	356.86
503.52	357.73
503.88	358.40
504.24	359.18
504.60	359.95
504.97	360.84
505.33	361.83
505.69	362.66
506.05	363.37
506.41	363.99
506.78	364.61
507.14	365.20
507.50	365.70
507.86	366.22
508.22	366.80
508.59	367.13
508.95	367.56
509.31	368.04
509.67	368.45
510.03	368.86
510.39	369.20
510.75	369.72
511.12	370.02
511.48	370.58
511.84	370.99
512.20	371.14
512.56	371.35
512.92	371.60
513.28	371.58
513.64	371.67
514.00	371.73
514.37	371.90
514.73	372.08
515.09	372.24
515.45	372.31
515.81	372.31
516.17	372.44
516.53	372.61
516.89	372.47
517.25	372.65
517.61	372.82
517.97	372.88
518.33	372.87
518.69	373.10
519.05	373.16
519.41	373.34
519.77	373.71
520.13	373.85
520.49	374.09
520.85	374.40
521.21	374.79
521.57	375.26
521.93	375.45
522.29	375.69
522.65	375.96
523.01	376.51
523.37	377.04
523.73	377.57
524.09	377.93
524.45	378.65
524.81	379.28
525.17	379.95
525.53	380.91
525.89	381.74
526.25	382.68
526.61	383.50
526.97	384.35
527.33	385.38
527.68	386.69
528.04	387.72
528.40	388.93
528.76	390.37
529.12	391.77
529.48	393.53
529.84	395.24
530.20	396.86
530.56	398.56
530.91	400.40
531.27	402.42
531.63	404.63
531.99	406.54
532.35	408.71
532.71	410.69
533.07	412.95
533.42	415.50
533.78	417.84
534.14	420.52
534.50	423.05
534.86	425.49
535.21	427.99
535.57	430.87
535.93	433.69
536.29	436.67
536.65	439.74
537.00	442.47
537.36	445.62
537.72	448.79
538.08	452.13
538.44	455.24
538.79	458.31
539.15	461.70
539.51	465.31
539.87	468.60
540.22	472.27
540.58	475.98
540.94	479.39
541.29	482.95
541.65	486.52
542.01	490.71
542.37	494.82
542.72	498.60
543.08	502.51
543.44	506.50
543.79	510.29
544.15	514.32
544.51	518.71
544.87	522.69
545.22	527.03
545.58	531.14
545.94	535.51
546.29	539.78
546.65	543.91
547.01	547.97
547.36	552.36
547.72	556.82
548.07	560.73
548.43	564.93
548.79	569.29
549.14	573.57
549.50	577.51
549.86	581.70
550.21	586.17
550.57	590.52
550.92	594.87
551.28	599.26
551.64	603.40
551.99	607.68
552.35	612.14
552.70	616.44
553.06	620.83
553.41	625.25
553.77	629.90
554.13	634.42
554.48	638.93
554.84	643.30
555.19	647.63
555.55	652.52
555.90	657.05
556.26	661.58
556.61	666.23
556.97	670.73
557.32	675.09
557.68	679.51
558.03	683.93
558.39	688.42
558.74	692.93
559.10	697.30
559.45	701.59
559.81	706.09
560.16	710.29
560.52	714.70
560.87	718.94
561.23	722.90
561.58	727.02
561.94	731.17
562.29	735.14
562.64	739.09
563.00	742.89
563.35	746.91
563.71	751.01
564.06	754.80
564.42	758.67
564.77	762.62
565.12	766.70
565.48	770.70
565.83	774.24
566.19	778.02
566.54	781.76
566.89	785.40
567.25	788.97
567.60	792.70
567.96	795.99
568.31	799.54
568.66	802.80
569.02	806.21
569.37	809.39
569.72	812.76
570.08	816.05
570.43	818.95
570.78	821.90
571.14	824.62
571.49	827.56
571.84	830.52
572.20	832.99
572.55	835.26
572.90	837.35
573.26	840.06
573.61	842.32
573.96	844.50
574.31	846.37
574.67	848.00
575.02	849.70
575.37	851.44
575.72	852.64
576.08	854.72
576.43	856.20
576.78	857.93
577.13	859.55
577.49	861.23
577.84	862.86
578.19	864.54
578.54	865.91
578.90	867.05
579.25	867.94
579.60	869.15
579.95	870.03
580.30	870.91
580.66	871.51
581.01	872.15
581.36	873.04
581.71	874.02
582.06	875.10
582.42	875.85
582.77	876.62
583.12	877.47
583.47	877.81
583.82	878.40
584.17	878.38
584.53	878.70
584.88	879.10
585.23	879.22
585.58	879.37
585.93	879.52
586.28	880.16
586.63	880.65
586.98	880.85
587.34	881.18
587.69	881.41
588.04	881.72
588.39	881.97
588.74	881.52
589.09	881.30
589.44	880.87
589.79	880.66
590.14	880.38
590.49	880.30
590.84	879.98
591.19	879.47
591.54	878.93
591.89	877.90
592.25	877.08
592.60	876.33
592.95	875.43
593.30	874.45
593.65	873.33
594.00	872.15
594.35	871.84
594.70	870.59
595.05	869.89
595.40	868.68
595.75	867.19
596.10	866.41
596.45	865.40
596.80	864.73
597.15	863.75
597.50	862.65
597.85	861.70
598.19	860.61
598.54	859.72
598.89	859.17
599.24	858.52
599.59	857.20
599.94	856.16
600.29	854.90
600.64	853.94
600.99	852.20
601.34	850.97
601.69	848.82
602.04	847.88
602.39	846.20
602.74	845.03
603.08	843.70
603.43	842.49
603.78	841.20
604.13	839.53
604.48	838.10
604.83	836.86
605.18	835.34
605.53	833.53
605.87	831.40
606.22	829.72
606.57	827.86
606.92	825.95
607.27	824.33
607.62	822.79
607.96	821.00
608.31	819.57
608.66	817.72
609.01	815.68
609.36	813.43
609.70	811.00
610.05	808.70
610.40	806.87
610.75	804.60
611.10	802.35
611.44	799.63
611.79	797.39
612.14	794.77
612.49	791.92
612.83	789.55
613.18	787.64
613.53	785.09
613.88	782.58
614.22	780.24
614.57	777.31
614.92	774.51
615.27	771.91
615.61	768.93
615.96	766.38
616.31	764.02
616.65	761.80
617.00	759.65
617.35	756.90
617.70	754.10
618.04	751.35
618.39	748.74
618.74	746.68
619.08	743.79
619.43	741.22
619.78	738.81
620.12	736.33
620.47	733.42
620.82	730.77
621.16	728.30
621.51	726.00
621.85	723.58
622.20	721.09
622.55	718.42
622.89	716.19
623.24	713.82
623.59	711.64
623.93	708.91
624.28	706.40
624.62	704.28
624.97	702.02
625.32	699.59
625.66	697.26
626.01	694.55
626.35	692.26
626.70	689.61
627.04	687.28
627.39	684.59
627.73	682.17
628.08	679.71
628.43	677.01
628.77	674.40
629.12	671.80
629.46	669.24
629.81	666.74
630.15	663.90
630.50	660.90
630.84	657.61
631.19	654.96
631.53	652.44
631.88	649.47
632.22	646.53
632.57	643.85
632.91	641.06
633.26	638.30
633.60	635.43
633.95	632.97
634.29	630.30
634.64	628.13
634.98	625.40
635.32	623.01
635.67	620.70
636.01	618.10
636.36	615.58
636.70	613.20
637.05	610.70
637.39	608.58
637.73	606.39
638.08	604.54
638.42	602.22
638.77	600.04
639.11	597.58
639.45	595.26
639.80	593.06
640.14	590.84
640.49	588.43
640.83	586.24
641.17	584.00
641.52	581.59
641.86	578.93
642.20	576.72
642.55	574.23
642.89	571.83
643.23	569.46
643.58	567.34
643.92	564.89
644.26	562.64
644.61	560.31
644.95	557.98
645.29	555.53
645.64	553.04
645.98	550.48
646.32	548.40
646.66	546.08
647.01	543.66
647.35	541.14
647.69	538.89
648.04	536.66
648.38	534.20
648.72	531.71
649.06	529.27
649.41	526.85
649.75	524.35
650.09	521.86
650.43	519.37
650.78	516.94
651.12	514.68
651.46	512.43
651.80	510.19
652.14	508.10
652.49	505.74
652.83	503.73
653.17	501.41
653.51	499.09
653.85	496.87
654.20	494.49
654.54	491.92
654.88	489.61
655.22	487.08
655.56	484.65
655.90	482.44
656.25	480.22
656.59	477.98
656.93	475.79
657.27	473.71
657.61	471.51
657.95	469.37
658.29	467.04
658.64	464.62
658.98	462.31
659.32	459.92
659.66	457.87
660.00	455.49
660.34	453.38
660.68	451.12
661.02	449.01
661.36	446.92
661.70	444.94
662.05	443.01
662.39	441.16
662.73	439.35
663.07	437.50
663.41	435.70
663.75	433.79
664.09	432.00
664.43	430.20
664.77	428.54
665.11	426.66
665.45	424.87
665.79	423.18
666.13	421.36
666.47	419.40
666.81	417.38
667.15	415.54
667.49	413.64
667.83	412.12
668.17	410.24
668.51	408.53
668.85	406.98
669.19	405.37
669.53	403.67
669.87	402.03
670.21	400.30
670.55	398.70
670.89	397.20
671.23	395.55
671.57	393.84
671.91	392.21
672.25	390.77
672.58	389.43
672.92	387.94
673.26	386.42
673.60	385.03
673.94	383.79
674.28	382.61
674.62	381.38
674.96	380.09
675.30	378.98
675.64	377.76
675.97	376.50
676.31	375.30
676.65	374.15
676.99	372.99
677.33	371.76
677.67	370.41
678.01	369.08
678.34	367.73
678.68	366.55
679.02	365.30
679.36	363.92
679.70	362.59
680.04	361.24
680.37	360.02
680.71	358.90
681.05	357.78
681.39	356.50
681.73	355.37
682.06	354.12
682.40	352.88
682.74	351.62
683.08	350.48
683.42	349.32
683.75	348.11
684.09	346.90
684.43	345.77
684.77	344.72
685.10	343.62
685.44	342.73
685.78	341.73
686.12	340.69
686.45	339.65
686.79	338.54
687.13	337.59
687.46	336.61
687.80	335.60
688.14	334.40
688.48	333.42
688.81	332.38
689.15	331.38
689.49	330.46
689.82	329.48
690.16	328.47
690.50	327.42
690.83	326.38
691.17	325.29
691.51	324.36
691.84	323.47
692.18	322.42
692.52	321.35
692.85	320.31
693.19	319.37
693.52	318.48
693.86	317.43
694.20	316.53
694.53	315.60
694.87	314.68
695.21	313.79
695.54	312.78
695.88	311.75
696.21	310.86
696.55	309.87
696.88	309.00
697.22	308.17
697.56	307.20
697.89	306.24
698.23	305.32
698.56	304.44
698.90	303.47
699.23	302.82
699.57	302.00
699.90	301.09
700.24	300.27
700.58	299.51
700.91	298.91
701.25	298.10
701.58	297.34
701.92	296.54
702.25	295.81
702.59	294.96
702.92	294.05
703.26	293.21
703.59	292.46
703.93	291.90
704.26	291.13
704.60	290.35
704.93	289.80
705.26	289.17
705.60	288.50
705.93	287.86
706.27	287.13
706.60	286.50
706.94	285.91
707.27	285.13
707.61	284.42
707.94	283.73
708.27	283.08
708.61	282.35
708.94	281.80
709.28	281.14
709.61	280.63
709.94	280.28
710.28	279.73
710.61	279.20
710.95	278.49
711.28	277.96
711.61	277.43
711.95	276.82
712.28	276.22
712.61	275.63
712.95	275.18
713.28	274.70
713.61	274.17
713.95	273.70
714.28	273.26
714.61	272.65
714.95	272.11
715.28	271.54
715.61	271.17
715.95	270.67
716.28	270.14
716.61	269.70
716.95	269.20
717.28	268.74
717.61	268.24
717.94	267.87
718.28	267.39
718.61	267.08
718.94	266.75
719.27	266.37
719.61	266.01
719.94	265.60
720.27	265.20
720.60	264.86
720.94	264.55
721.27	264.22
721.60	263.90
721.93	263.62
722.27	263.44
722.60	263.13
722.93	262.83
723.26	262.67
723.59	262.42
723.93	262.14
724.26	261.90
724.59	261.59
724.92	261.21
725.25	261.02
725.59	260.77
725.92	260.47
726.25	260.29
726.58	259.99
726.91	259.62
727.24	259.33
727.57	258.98
727.91	258.66
728.24	258.36
728.57	258.20
728.90	258.06
729.23	257.72
729.56	257.50
729.89	257.26
730.22	257.03
730.55	256.78
730.89	256.52
731.22	256.21
731.55	256.01
731.88	255.80
732.21	255.51
732.54	255.32
732.87	255.01
733.20	254.66
733.53	254.46
733.86	254.31
734.19	253.99
734.52	253.77
734.85	253.66
735.18	253.42
735.51	253.14
735.84	252.75
736.17	252.52
736.50	252.27
736.83	252.13
737.16	251.75
737.49	251.56
737.82	251.47
738.15	251.26
738.48	250.93
738.81	250.59
739.14	250.33
739.47	249.89
739.80	249.60
740.13	249.39
740.46	249.10
740.79	248.83
741.12	248.62
741.45	248.42
741.78	247.91
742.11	247.71
742.44	247.35
742.77	247.13
743.10	246.80
743.43	246.40
743.75	245.96
744.08	246.04
744.41	245.72
744.74	245.36
745.07	245.12
745.40	244.96
745.73	244.91
746.06	244.69
746.39	244.52
746.71	244.32
747.04	244.17
747.37	243.92
747.70	243.76
748.03	243.58
748.36	243.42
748.68	243.30
749.01	243.02
749.34	242.94
749.67	242.73
750.00	242.64
750.33	242.64
750.65	242.48
750.98	241.98
751.31	241.80
751.64	241.57
751.97	241.47
752.29	241.36
752.62	241.04
752.95	240.93
753.28	240.80
753.60	240.58
753.93	240.44
754.26	240.32
754.59	240.04
754.91	239.90
755.24	239.69
755.57	239.67
755.90	239.61
756.22	239.54
756.55	239.50
756.88	239.35
757.20	239.02
757.53	238.90
757.86	238.80
758.19	238.80
758.51	238.71
758.84	238.56
759.17	238.41
759.49	238.41
759.82	238.34
760.15	238.36
760.47	238.33
760.80	238.24
761.13	238.20
761.45	238.18
761.78	238.12
762.11	238.08
762.43	237.96
762.76	237.89
763.08	237.81
763.41	237.66
763.74	237.74
764.06	237.78
764.39	237.66
764.71	237.64
765.04	237.49
765.37	237.51
765.69	237.45
766.02	237.32
766.34	237.29
766.67	237.16
767.00	237.10
767.32	237.26
767.65	237.21
767.97	237.27
768.30	237.22
768.62	237.09
768.95	237.04
769.27	236.97
769.60	236.89
769.92	236.83
770.25	236.85
770.57	236.73
770.90	236.66
771.22	236.60
771.55	236.49
771.87	236.40
772.20	236.27
772.52	236.36
772.85	236.64
773.17	236.58
773.50	236.53
773.82	236.43
774.15	236.22
774.47	236.16
774.80	235.95
775.12	235.91
775.45	235.90
775.77	235.84
776.09	235.78
776.42	235.76
776.74	235.69
777.07	235.52
777.39	235.45
777.72	235.38
778.04	235.32
778.36	235.27
778.69	235.22
779.01	235.20
779.33	234.87
779.66	234.56
779.98	234.34
780.31	234.20
780.63	234.20
780.95	234.14
781.28	234.00
781.60	233.91
781.92	233.76
782.25	233.69
782.57	233.47
782.89	233.29
783.22	233.14
783.54	232.94
783.86	232.90
784.19	232.70
784.51	232.62
784.83	232.57
785.16	232.45
785.48	232.38
785.80	232.23
786.12	232.17
786.45	231.97
786.77	231.88
787.09	231.80
787.42	231.52
787.74	231.43
788.06	231.36
788.38	231.28
788.71	231.30
789.03	231.10
789.35	231.20
789.67	231.16
789.99	231.16
790.32	231.24
790.64	231.20
790.96	231.39
791.28	231.35
791.61	231.35
791.93	231.33
792.25	231.18
792.57	231.30
792.89	231.27
793.21	231.30
793.54	231.29
793.86	231.26
794.18	231.38
794.50	231.30
794.82	231.28
795.14	231.27
795.47	231.15
795.79	231.20
796.11	231.09
796.43	231.08
796.75	231.00
797.07	230.95
797.39	230.89
797.71	230.79
798.04	230.79
798.36	230.76
798.68	230.80
799.00	230.83
799.32	230.74
799.64	230.85
799.96	230.94
800.28	231.10
800.60	231.10
800.92	231.01
801.24	231.03
801.56	231.09
801.89	231.09
802.21	231.13
802.53	231.12
802.85	231.16
803.17	231.28
803.49	231.28
803.81	231.30
804.13	231.33
804.45	231.25
804.77	231.28
805.09	231.29
805.41	231.30
805.73	231.26
806.05	231.18
806.37	231.18
806.69	231.13
807.01	231.05
807.33	231.10
807.65	231.07
807.97	231.25
808.28	231.23
808.60	231.26
808.92	231.25
809.24	231.40
809.56	231.40
809.88	231.32
810.20	231.37
810.52	231.40
810.84	231.34
811.16	231.36
811.48	231.27
811.80	231.32
812.12	231.26
812.43	231.34
812.75	231.40
813.07	231.37
813.39	231.38
813.71	231.36
814.03	231.38
814.35	231.43
814.67	231.25
814.98	231.22
815.30	231.11
815.62	231.07
815.94	230.96
816.26	230.91
816.58	230.93
816.89	230.89
817.21	230.77
817.53	230.83
817.85	230.67
818.17	230.71
818.48	230.68
818.80	230.65
819.12	230.63
819.44	230.57
819.76	230.47
820.07	230.40
820.39	230.36
820.71	230.24
821.03	230.06
821.34	229.95
821.66	229.94
821.98	229.92
822.30	229.81
822.61	229.76
822.93	229.74
823.25	229.62
823.57	229.55
823.88	229.57
824.20	229.47
824.52	229.57
824.83	229.46
825.15	229.26
825.47	229.23
825.79	229.11
826.10	229.00
826.42	228.87
826.74	228.82
827.05	228.67
827.37	228.52
827.69	228.61
828.00	228.54
828.32	228.43
828.64	228.38
828.95	228.56
829.27	228.53
829.58	228.42
829.90	228.43
830.22	228.31
830.53	228.11
830.85	227.99
831.17	227.88
831.48	227.79
831.80	227.76
832.11	227.74
832.43	227.58
832.75	227.54
833.06	227.78
833.38	227.72
833.69	227.78
834.01	227.85
834.32	227.80
834.64	227.91
834.96	228.01
835.27	227.95
835.59	227.82
835.90	227.81
836.22	227.81
836.53	227.77
836.85	227.81
837.16	228.22
837.48	228.33
837.79	228.47
838.11	228.51
838.42	228.59
838.74	228.57
839.05	228.76
839.37	228.83
839.68	228.73
840.00	228.75
840.31	228.82
840.63	228.88
840.94	228.84
841.26	228.81
841.57	228.70
841.88	228.86
842.20	228.88
842.51	228.90
842.83	229.02
843.14	229.20
843.46	229.26
843.77	229.14
844.08	229.07
844.40	229.06
844.71	229.11
845.03	229.03
845.34	229.07
845.65	229.09
845.97	229.21
846.28	229.19
846.60	229.19
846.91	229.15
847.22	229.20
847.54	229.34
847.85	229.45
848.16	229.51
848.48	229.46
848.79	229.58
849.10	229.60
849.42	229.59
849.73	229.48
850.04	229.50
850.36	229.50
850.67	229.58
850.98	229.63
851.30	229.72
851.61	229.78
851.92	229.76
852.23	229.77
852.55	229.73
852.86	229.73
853.17	229.75
853.49	229.80
853.80	229.81
854.11	229.87
854.42	229.85
854.74	229.85
855.05	229.85
855.36	229.71
855.67	229.67
855.99	229.56
856.30	229.71
856.61	229.70
856.92	229.62
857.23	229.64
857.55	229.41
857.86	229.33
858.17	229.40
858.48	229.35
858.79	229.30
859.11	229.21
859.42	229.10
859.73	229.04
860.04	228.92
860.35	228.75
860.66	228.50
860.98	228.37
861.29	228.27
861.60	228.26
861.91	228.22
862.22	228.12
862.53	228.16
862.84	227.84
863.16	227.82
863.47	227.72
863.78	227.65
864.09	227.69
864.40	227.67
864.71	227.55
865.02	227.60
865.33	227.59
865.64	227.52
865.95	227.57
866.27	227.65
866.58	227.62
866.89	227.54
867.20	227.63
867.51	227.54
867.82	227.55
868.13	227.58
868.44	227.51
868.75	227.56
869.06	227.39
869.37	227.37
869.68	227.26
869.99	227.24
870.30	227.27
870.61	227.22
870.92	227.11
871.23	227.12
871.54	227.10
871.85	227.05
872.16	227.16
872.47	227.17
872.78	227.10
873.09	227.04
873.40	227.23
873.71	227.20
874.02	227.27
874.33	227.24
874.64	227.24
874.95	227.30
875.26	227.28
875.56	227.40
875.87	227.49
876.18	227.62
876.49	227.94
876.80	227.95
877.11	228.04
877.42	228.07
877.73	228.10
878.04	228.03
878.35	228.15
878.66	228.14
878.96	228.10
879.27	228.19
879.58	228.30
879.89	228.24
880.20	228.41
880.51	228.51
880.82	228.60
881.12	228.54
881.43	228.54
881.74	228.63
882.05	228.65
882.36	228.72
882.67	228.71
882.97	228.44
883.28	228.44
883.59	228.43
883.90	228.60
884.21	228.65
884.51	228.77
884.82	228.79
885.13	228.79
885.44	228.84
885.74	228.83
886.05	228.93
886.36	229.06
886.67	229.01
886.98	229.13
887.28	229.23
887.59	229.39
887.90	229.46
888.20	229.52
888.51	229.52
888.82	229.52
889.13	229.60
889.43	229.80
889.74	229.81
890.05	229.84
890.35	229.75
890.66	229.72
890.97	229.68
891.28	229.61
891.58	229.70
891.89	229.74
892.20	229.65
892.50	229.60
892.81	229.55
893.12	229.48
893.42	229.30
893.73	229.29
894.04	229.20
894.34	229.18
894.65	229.09
894.95	229.09
895.26	229.05
895.57	229.10
895.87	228.93
896.18	228.90
896.48	228.94
896.79	229.04
897.10	229.07
897.40	229.00
897.71	229.07
898.01	228.92
898.32	228.92
898.63	228.92
898.93	228.77
899.24	228.70
899.54	228.66
899.85	228.63
900.15	228.59
900.46	228.52
900.76	228.56
901.07	228.50
901.38	228.44
901.68	228.38
901.99	228.25
902.29	228.10
902.60	228.12
902.90	228.00
903.21	227.92
903.51	227.80
903.82	227.86
904.12	227.74
904.43	227.77
904.73	227.71
905.03	227.70
905.34	227.90
905.64	227.86
905.95	227.82
906.25	227.77
906.56	227.69
906.86	227.64
907.17	227.57
907.47	227.57
907.77	227.60
908.08	227.64
908.38	227.56
908.69	227.70
908.99	227.71
909.30	227.71
909.60	227.69
909.90	227.81
910.21	227.80
910.51	227.79
910.81	227.72
911.12	227.72
911.42	227.75
911.73	227.65
912.03	227.72
912.33	227.78
912.64	227.79
912.94	227.73
913.24	227.68
913.55	227.67
913.85	227.68
914.15	227.72
914.46	227.70
914.76	227.74
915.06	227.66
915.37	227.60
915.67	227.66
915.97	227.70
916.27	227.62
916.58	227.70
916.88	227.78
917.18	228.01
917.49	228.20
917.79	228.22
918.09	228.28
918.39	228.35
918.70	228.32
919.00	228.45
919.30	228.61
919.60	228.75
919.91	228.75
920.21	228.83
920.51	228.88
920.81	228.98
921.12	229.14
921.42	229.17
921.72	229.24
922.02	229.38
922.32	229.42
922.63	229.55
922.93	229.61
923.23	229.56
923.53	229.46
923.83	229.32
924.13	229.40
924.44	229.47
924.74	229.50
925.04	229.65
925.34	229.71
925.64	229.72
925.94	229.68
926.24	229.86
926.55	229.87
926.85	229.90
927.15	229.92
927.45	229.88
927.75	229.95
928.05	229.95
928.35	229.87
928.65	229.91
928.95	229.85
929.26	229.81
929.56	229.95
929.86	230.01
930.16	230.11
930.46	230.05
930.76	229.86
931.06	229.75
931.36	229.59
931.66	229.52
931.96	229.48
932.26	229.54
932.56	229.39
932.86	229.32
933.16	229.35
933.46	229.20
933.76	229.07
934.06	229.08
934.36	229.12
934.66	228.99
934.96	228.92
935.26	228.96
935.56	228.93
935.86	228.77
936.16	228.63
936.46	228.50
936.76	228.43
937.06	228.48
937.36	228.48
937.66	228.53
937.96	228.45
938.26	228.40
938.56	228.19
938.86	228.15
939.16	228.12
939.46	227.92
939.76	227.93
940.06	227.97
940.35	227.88
940.65	227.61
940.95	227.58
941.25	227.48
941.55	227.37
941.85	227.25
942.15	227.29
942.45	227.30
942.75	227.18
943.04	227.18
943.34	227.11
943.64	227.03
943.94	226.89
944.24	226.98
944.54	226.93
944.84	226.93
945.13	226.89
945.43	226.79
945.73	226.83
946.03	226.81
946.33	226.74
946.62	226.70
946.92	226.81
947.22	226.91
947.52	226.89
947.82	226.92
948.11	226.95
948.41	226.87
948.71	226.87
949.01	227.02
949.31	226.98
949.60	227.08
949.90	227.09
950.20	227.11
950.50	227.05
950.79	227.00
951.09	227.11
951.39	227.14
951.69	227.28
951.98	227.45
952.28	227.44
952.58	227.45
952.87	227.47
953.17	227.47
953.47	227.59
953.76	227.58
954.06	227.57
954.36	227.58
954.66	227.67
954.95	227.70
955.25	227.69
955.55	227.82
955.84	227.89
956.14	228.11
956.44	228.21
956.73	228.24
957.03	228.35
957.32	228.40
957.62	228.40
957.92	228.45
958.21	228.40
958.51	228.67
958.81	228.82
959.10	228.90
959.40	229.05
959.69	229.10
959.99	229.29
960.29	229.32
960.58	229.29
960.88	229.34
961.17	229.36
961.47	229.44
961.76	229.44
962.06	229.44
962.36	229.30
962.65	229.40
962.95	229.47
963.24	229.45
963.54	229.50
963.83	229.59
964.13	229.56
964.42	229.48
964.72	229.34
965.01	229.36
965.31	229.30
965.60	229.25
965.90	229.27
966.19	229.20
966.49	229.20
966.78	229.15
967.08	229.18
967.37	229.18
967.67	229.11
967.96	229.16
968.26	229.12
968.55	229.17
968.85	229.08
969.14	229.03
969.43	228.99
969.73	228.97
970.02	228.96
970.32	228.94
970.61	228.91
970.91	228.88
971.20	228.77
971.49	228.73
971.79	228.67
972.08	228.48
972.38	228.52
972.67	228.50
972.96	228.59
973.26	228.40
973.55	228.41
973.85	228.29
974.14	228.21
974.43	228.18
974.73	228.09
975.02	227.94
975.31	227.84
975.61	227.85
975.90	227.68
976.19	227.56
976.49	227.58
976.78	227.58
977.07	227.45
977.37	227.37
977.66	227.44
977.95	227.39
978.24	227.33
978.54	227.26
978.83	227.20
979.12	227.14
979.42	227.18
979.71	227.13
980.00	227.11
980.29	227.13
980.59	227.03
980.88	227.03
981.17	227.14
981.46	227.11
981.76	227.07
982.05	227.25
982.34	227.23
982.63	227.10
982.93	226.98
983.22	227.03
983.51	227.03
983.80	226.95
984.09	227.05
984.39	227.05
984.68	226.94
984.97	226.89
985.26	226.87
985.55	226.88
985.85	226.85
986.14	226.86
986.43	226.84
986.72	226.85
987.01	226.77
987.30	226.80
987.59	226.89
987.89	226.93
988.18	226.82
988.47	226.91
988.76	227.01
989.05	227.14
989.34	227.26
989.63	227.34
989.92	227.37
990.22	227.38
990.51	227.48
990.80	227.64
991.09	227.82
991.38	227.96
991.67	228.07
991.96	228.11
992.25	228.28
992.54	228.24
992.83	228.34
993.12	228.52
993.41	228.50
993.70	228.68
993.99	228.80
994.28	228.93
994.58	229.02
994.87	229.03
995.16	229.08
995.45	229.01
995.74	229.00
996.03	229.09
996.32	229.13
996.61	229.15
996.90	229.17
997.19	229.21
997.48	229.21
997.77	229.20
998.06	229.35
998.34	229.29
998.63	229.38
998.92	229.40
999.21	229.49
999.50	229.54
999.79	229.49
1000.08	229.43
1000.37	229.47
1000.66	229.43
1000.95	229.53
1001.24	229.59
1001.53	229.68
1001.82	229.67
1002.11	229.67
1002.40	229.70
1002.68	229.72
1002.97	229.82
1003.26	229.76
1003.55	229.61
1003.84	229.56
1004.13	229.50
1004.42	229.51
1004.71	229.49
1004.99	229.39
1005.28	229.36
1005.57	229.36
1005.86	229.32
1006.15	229.33
1006.44	229.24
1006.72	229.23
1007.01	229.17
1007.30	229.15
1007.59	228.96
1007.88	228.90
1008.17	228.92
1008.45	228.74
1008.74	228.67
1009.03	228.45
1009.32	228.37
1009.60	228.35
1009.89	228.33
1010.18	228.23
1010.47	228.16
1010.76	228.09
1011.04	228.03
1011.33	227.97
1011.62	227.93
1011.91	227.77
1012.19	227.71
1012.48	227.65
1012.77	227.52
1013.05	227.50
1013.34	227.35
1013.63	227.43
1013.92	227.45
1014.20	227.31
1014.49	227.38
1014.78	227.40
1015.06	227.36
1015.35	227.24
1015.64	227.31
1015.92	227.33
1016.21	227.28
1016.50	227.26
1016.78	227.25
1017.07	227.34
1017.36	227.19
1017.64	227.12
1017.93	227.21
1018.22	227.13
1018.50	227.10
1018.79	227.10
1019.08	227.02
1019.36	227.07
1019.65	227.08
1019.93	227.16
1020.22	227.17
1020.51	227.16
1020.79	227.03
1021.08	226.30
1021.36	226.70
1021.65	226.60
1021.94	226.50
1022.22	227.10
1022.51	227.90
1022.79	228.90
1023.08	226.70
1023.36	227.70
1023.65	225.70
>>>>>End Processed Spectral Data<<<<<
