SpectraSuite Data File
++++++++++++++++++++++++++++++++++++
Date: Fri Feb 01 14:37:53 EST 2013
User: group
Dark Spectrum Present: No
Reference Spectrum Present: No
Number of Sampled Component Spectra: 1
Spectrometers: USB2E7196
Integration Time (usec): 70000 (USB2E7196)
Spectra Averaged: 10 (USB2E7196)
Boxcar Smoothing: 10 (USB2E7196)
Correct for Electrical Dark: No (USB2E7196)
Strobe/Lamp Enabled: No (USB2E7196)
Correct for Detector Non-linearity: No (USB2E7196)
Correct for Stray Light: No (USB2E7196)
Number of Pixels in Processed Spectrum: 2048
>>>>>Begin Processed Spectral Data<<<<<
339.09	0.00
339.48	215.00
339.86	217.60
340.24	219.70
340.63	219.30
341.01	226.00
341.39	220.70
341.78	223.50
342.16	225.00
342.54	226.70
342.93	214.40
343.31	225.24
343.69	225.88
344.07	226.34
344.46	226.68
344.84	227.06
345.22	227.17
345.60	227.46
345.99	227.68
346.37	227.81
346.75	227.83
347.13	227.80
347.52	227.77
347.90	227.85
348.28	227.77
348.66	227.87
349.05	227.75
349.43	227.80
349.81	227.80
350.19	227.88
350.57	227.98
350.96	228.00
351.34	228.11
351.72	228.12
352.10	228.19
352.48	228.32
352.87	228.38
353.25	228.40
353.63	228.54
354.01	228.57
354.39	228.70
354.77	228.81
355.15	228.94
355.54	229.02
355.92	229.04
356.30	229.24
356.68	229.41
357.06	229.52
357.44	229.51
357.82	229.65
358.20	229.66
358.58	229.60
358.97	229.60
359.35	229.67
359.73	229.73
360.11	229.80
360.49	229.77
360.87	229.81
361.25	229.91
361.63	229.90
362.01	230.00
362.39	230.00
362.77	230.03
363.15	230.08
363.53	230.12
363.91	230.26
364.29	230.29
364.67	230.10
365.05	230.15
365.43	230.19
365.81	230.17
366.19	230.23
366.57	230.44
366.95	230.50
367.33	230.47
367.71	230.59
368.09	230.56
368.47	230.58
368.85	230.63
369.23	230.53
369.61	230.56
369.99	230.52
370.37	230.50
370.75	230.57
371.13	230.50
371.51	230.40
371.89	230.25
372.27	230.14
372.65	230.09
373.03	230.00
373.41	229.92
373.78	229.83
374.16	229.78
374.54	229.57
374.92	229.45
375.30	229.36
375.68	229.11
376.06	229.07
376.44	228.98
376.82	228.81
377.19	228.79
377.57	228.68
377.95	228.60
378.33	228.50
378.71	228.28
379.09	228.22
379.47	228.11
379.84	228.01
380.22	227.95
380.60	227.86
380.98	227.92
381.36	227.88
381.73	227.71
382.11	227.57
382.49	227.48
382.87	227.36
383.25	227.15
383.62	227.30
384.00	227.12
384.38	227.06
384.76	227.16
385.13	227.20
385.51	227.08
385.89	226.96
386.27	226.87
386.64	226.86
387.02	226.78
387.40	226.73
387.78	226.68
388.15	226.51
388.53	226.44
388.91	226.23
389.29	226.10
389.66	226.16
390.04	226.13
390.42	226.14
390.79	226.15
391.17	226.22
391.55	226.04
391.92	226.09
392.30	226.12
392.68	226.02
393.05	225.93
393.43	226.00
393.81	225.94
394.18	225.95
394.56	225.95
394.94	226.06
395.31	226.01
395.69	226.10
396.06	226.24
396.44	226.37
396.82	226.40
397.19	226.49
397.57	226.59
397.95	226.71
398.32	226.68
398.70	226.86
399.07	226.99
399.45	227.02
399.82	227.10
400.20	227.19
400.58	227.30
400.95	227.37
401.33	227.50
401.70	227.83
402.08	227.89
402.45	228.03
402.83	228.09
403.20	228.27
403.58	228.44
403.95	228.68
404.33	228.83
404.71	229.06
405.08	229.45
405.46	229.54
405.83	229.73
406.21	230.00
406.58	230.08
406.96	230.23
407.33	230.58
407.70	230.82
408.08	231.23
408.45	231.51
408.83	231.79
409.20	232.07
409.58	232.19
409.95	232.66
410.33	233.00
410.70	233.39
411.08	233.86
411.45	234.22
411.82	234.64
412.20	235.14
412.57	235.65
412.95	236.05
413.32	236.55
413.69	237.13
414.07	237.68
414.44	238.37
414.82	239.07
415.19	239.73
415.56	240.50
415.94	241.17
416.31	242.11
416.68	243.15
417.06	244.19
417.43	245.24
417.81	246.29
418.18	247.50
418.55	248.80
418.93	250.11
419.30	251.51
419.67	252.96
420.04	254.32
420.42	255.84
420.79	257.62
421.16	259.50
421.54	261.26
421.91	263.03
422.28	265.11
422.66	267.30
423.03	269.39
423.40	271.45
423.77	273.62
424.15	275.81
424.52	277.98
424.89	280.37
425.26	282.88
425.64	285.15
426.01	287.59
426.38	290.15
426.75	292.72
427.13	295.31
427.50	298.07
427.87	301.17
428.24	304.16
428.61	306.95
428.99	310.04
429.36	313.36
429.73	316.70
430.10	319.80
430.47	323.10
430.85	326.55
431.22	330.27
431.59	334.27
431.96	337.91
432.33	342.10
432.70	346.14
433.08	350.68
433.45	355.22
433.82	359.55
434.19	364.32
434.56	369.05
434.93	373.53
435.30	377.88
435.68	382.72
436.05	387.50
436.42	392.21
436.79	396.58
437.16	401.42
437.53	406.45
437.90	411.34
438.27	416.15
438.64	421.06
439.01	425.64
439.38	429.68
439.75	433.62
440.13	438.32
440.50	442.59
440.87	446.17
441.24	449.72
441.61	453.72
441.98	456.57
442.35	460.14
442.72	463.99
443.09	467.81
443.46	470.08
443.83	471.49
444.20	472.85
444.57	474.74
444.94	475.66
445.31	476.91
445.68	478.18
446.05	478.80
446.42	478.62
446.79	478.48
447.16	478.29
447.53	478.20
447.90	476.60
448.27	475.32
448.64	473.16
449.01	471.75
449.37	468.94
449.74	466.36
450.11	462.99
450.48	459.05
450.85	455.08
451.22	451.72
451.59	448.66
451.96	445.75
452.33	441.69
452.70	438.00
453.07	433.44
453.43	428.62
453.80	424.06
454.17	419.90
454.54	415.81
454.91	411.30
455.28	406.99
455.65	402.96
456.02	399.09
456.38	395.50
456.75	391.09
457.12	387.54
457.49	383.82
457.86	380.24
458.23	377.42
458.59	374.00
458.96	370.70
459.33	367.80
459.70	364.73
460.07	362.34
460.43	359.50
460.80	356.80
461.17	354.37
461.54	352.06
461.91	349.58
462.27	347.03
462.64	344.90
463.01	342.72
463.38	340.49
463.74	337.85
464.11	336.01
464.48	334.20
464.85	332.28
465.21	330.73
465.58	329.23
465.95	327.18
466.32	325.51
466.68	323.93
467.05	322.36
467.42	320.84
467.78	319.12
468.15	317.55
468.52	316.29
468.88	314.89
469.25	313.50
469.62	312.45
469.98	311.38
470.35	310.29
470.72	309.22
471.08	307.96
471.45	307.03
471.82	305.89
472.18	304.79
472.55	303.96
472.92	302.91
473.28	301.84
473.65	300.87
474.02	299.99
474.38	299.07
474.75	298.25
475.11	297.41
475.48	296.81
475.85	296.21
476.21	295.54
476.58	294.96
476.94	294.50
477.31	293.86
477.67	293.31
478.04	292.82
478.41	292.41
478.77	292.27
479.14	291.81
479.50	291.38
479.87	291.13
480.23	290.71
480.60	290.50
480.96	290.28
481.33	290.21
481.69	290.09
482.06	289.92
482.42	289.96
482.79	289.86
483.15	289.67
483.52	289.70
483.88	289.77
484.25	289.87
484.61	289.84
484.98	289.87
485.34	289.91
485.71	290.15
486.07	290.15
486.44	290.05
486.80	290.20
487.17	290.39
487.53	290.72
487.90	290.89
488.26	291.21
488.62	291.42
488.99	291.53
489.35	291.75
489.72	291.93
490.08	292.03
490.44	292.26
490.81	292.68
491.17	293.01
491.54	293.26
491.90	293.49
492.26	293.92
492.63	294.30
492.99	294.73
493.36	294.99
493.72	295.47
494.08	295.81
494.45	296.28
494.81	296.80
495.17	297.22
495.54	297.82
495.90	298.30
496.26	298.80
496.63	299.39
496.99	299.90
497.35	300.64
497.72	301.24
498.08	301.79
498.44	302.32
498.80	302.91
499.17	303.49
499.53	304.02
499.89	304.40
500.26	304.90
500.62	305.38
500.98	305.85
501.34	306.29
501.71	306.82
502.07	307.20
502.43	307.53
502.79	307.82
503.16	308.16
503.52	308.53
503.88	308.78
504.24	309.06
504.60	309.43
504.97	309.63
505.33	310.03
505.69	310.34
506.05	310.56
506.41	310.76
506.78	310.97
507.14	311.15
507.50	311.29
507.86	311.50
508.22	311.66
508.59	311.96
508.95	312.04
509.31	312.47
509.67	312.70
510.03	312.95
510.39	313.20
510.75	313.37
511.12	313.49
511.48	313.89
511.84	313.99
512.20	314.03
512.56	314.23
512.92	314.39
513.28	314.62
513.64	314.88
514.00	315.07
514.37	315.31
514.73	315.61
515.09	316.04
515.45	316.30
515.81	316.64
516.17	316.93
516.53	317.38
516.89	317.65
517.25	318.10
517.61	318.70
517.97	319.19
518.33	319.77
518.69	320.38
519.05	320.92
519.41	321.75
519.77	322.64
520.13	323.50
520.49	324.22
520.85	325.12
521.21	326.20
521.57	327.23
521.93	328.42
522.29	329.60
522.65	330.87
523.01	332.28
523.37	333.52
523.73	334.95
524.09	336.41
524.45	337.72
524.81	339.21
525.17	340.91
525.53	342.65
525.89	344.35
526.25	346.32
526.61	348.18
526.97	350.29
527.33	352.50
527.68	354.75
528.04	357.16
528.40	359.45
528.76	361.84
529.12	364.34
529.48	366.93
529.84	369.55
530.20	372.32
530.56	375.13
530.91	378.34
531.27	381.40
531.63	384.35
531.99	387.59
532.35	390.91
532.71	394.11
533.07	397.66
533.42	401.40
533.78	404.98
534.14	408.83
534.50	412.45
534.86	416.20
535.21	419.95
535.57	423.79
535.93	427.86
536.29	431.99
536.65	436.31
537.00	440.42
537.36	444.72
537.72	448.95
538.08	453.39
538.44	457.60
538.79	461.97
539.15	466.60
539.51	471.31
539.87	476.03
540.22	480.76
540.58	485.52
540.94	490.24
541.29	495.00
541.65	499.65
542.01	504.64
542.37	509.53
542.72	514.48
543.08	519.56
543.44	524.69
543.79	529.52
544.15	534.51
544.51	539.81
544.87	544.96
545.22	550.20
545.58	555.46
545.94	560.37
546.29	565.53
546.65	570.60
547.01	575.83
547.36	580.78
547.72	585.93
548.07	591.12
548.43	595.97
548.79	601.06
549.14	606.19
549.50	611.18
549.86	616.27
550.21	621.49
550.57	626.80
550.92	631.88
551.28	637.01
551.64	642.02
551.99	647.13
552.35	652.32
552.70	657.21
553.06	662.27
553.41	667.77
553.77	672.99
554.13	678.33
554.48	683.37
554.84	688.47
555.19	693.65
555.55	698.70
555.90	703.79
556.26	708.82
556.61	713.95
556.97	719.05
557.32	723.97
557.68	728.86
558.03	733.57
558.39	738.34
558.74	743.21
559.10	748.19
559.45	752.94
559.81	757.78
560.16	762.53
560.52	767.05
560.87	771.74
561.23	776.05
561.58	780.70
561.94	785.29
562.29	789.65
562.64	793.58
563.00	797.93
563.35	802.48
563.71	807.18
564.06	811.53
564.42	815.72
564.77	819.92
565.12	824.25
565.48	828.52
565.83	832.60
566.19	836.96
566.54	840.69
566.89	844.44
567.25	848.12
567.60	852.26
567.96	856.33
568.31	859.81
568.66	863.72
569.02	867.27
569.37	870.62
569.72	874.22
570.08	877.79
570.43	881.04
570.78	884.20
571.14	886.80
571.49	889.89
571.84	892.88
572.20	895.80
572.55	898.39
572.90	900.86
573.26	903.38
573.61	905.53
573.96	907.96
574.31	910.16
574.67	912.17
575.02	913.93
575.37	915.71
575.72	917.50
576.08	919.32
576.43	920.97
576.78	922.94
577.13	924.64
577.49	926.27
577.84	927.80
578.19	929.08
578.54	930.70
578.90	931.58
579.25	932.53
579.60	933.59
579.95	934.49
580.30	935.22
580.66	936.17
581.01	936.98
581.36	937.73
581.71	938.77
582.06	939.66
582.42	940.25
582.77	940.62
583.12	941.00
583.47	941.51
583.82	942.01
584.17	942.00
584.53	942.40
584.88	942.87
585.23	942.96
585.58	943.46
585.93	943.45
586.28	943.91
586.63	944.45
586.98	944.52
587.34	944.89
587.69	945.40
588.04	945.47
588.39	945.65
588.74	945.47
589.09	944.91
589.44	944.47
589.79	944.32
590.14	944.16
590.49	944.10
590.84	943.53
591.19	943.10
591.54	942.53
591.89	941.23
592.25	940.58
592.60	939.70
592.95	938.52
593.30	937.56
593.65	936.17
594.00	934.96
594.35	934.28
594.70	932.85
595.05	931.40
595.40	930.14
595.75	928.72
596.10	927.48
596.45	926.56
596.80	925.45
597.15	924.28
597.50	922.90
597.85	921.69
598.19	920.46
598.54	918.99
598.89	917.70
599.24	917.18
599.59	915.90
599.94	914.61
600.29	913.28
600.64	911.80
600.99	910.70
601.34	909.13
601.69	907.14
602.04	905.66
602.39	904.35
602.74	902.74
603.08	901.36
603.43	900.35
603.78	898.66
604.13	897.25
604.48	895.71
604.83	894.03
605.18	892.16
605.53	890.01
605.87	888.30
606.22	886.72
606.57	884.61
606.92	882.68
607.27	880.88
607.62	879.23
607.96	877.38
608.31	875.42
608.66	873.29
609.01	871.15
609.36	868.76
609.70	865.96
610.05	863.97
610.40	861.68
610.75	858.76
611.10	856.06
611.44	853.01
611.79	850.43
612.14	848.14
612.49	845.34
612.83	842.91
613.18	840.01
613.53	837.09
613.88	833.90
614.22	830.89
614.57	827.79
614.92	824.70
615.27	822.13
615.61	819.22
615.96	816.68
616.31	814.19
616.65	811.86
617.00	809.34
617.35	806.31
617.70	803.31
618.04	800.48
618.39	797.97
618.74	795.53
619.08	792.60
619.43	789.80
619.78	787.20
620.12	784.53
620.47	781.98
620.82	779.05
621.16	776.69
621.51	774.16
621.85	771.81
622.20	769.00
622.55	766.28
622.89	763.31
623.24	760.52
623.59	757.87
623.93	755.20
624.28	752.70
624.62	750.12
624.97	747.71
625.32	745.20
625.66	742.53
626.01	739.74
626.35	737.01
626.70	734.08
627.04	731.44
627.39	728.60
627.73	725.75
628.08	723.07
628.43	720.31
628.77	717.50
629.12	714.40
629.46	711.80
629.81	708.62
630.15	705.82
630.50	702.75
630.84	699.34
631.19	696.09
631.53	692.89
631.88	689.72
632.22	686.42
632.57	683.45
632.91	680.22
633.26	677.36
633.60	674.21
633.95	671.21
634.29	668.33
634.64	665.73
634.98	662.81
635.32	660.29
635.67	657.53
636.01	654.75
636.36	652.17
636.70	649.55
637.05	647.00
637.39	644.44
637.73	642.04
638.08	639.81
638.42	637.57
638.77	635.25
639.11	632.67
639.45	630.14
639.80	627.54
640.14	625.12
640.49	622.57
640.83	620.10
641.17	617.69
641.52	615.02
641.86	612.16
642.20	609.74
642.55	606.95
642.89	604.50
643.23	601.81
643.58	599.16
643.92	596.36
644.26	593.68
644.61	591.46
644.95	588.56
645.29	585.50
645.64	582.53
645.98	579.86
646.32	577.31
646.66	574.63
647.01	571.87
647.35	569.20
647.69	566.46
648.04	564.19
648.38	561.44
648.72	558.71
649.06	555.84
649.41	553.02
649.75	550.20
650.09	547.32
650.43	544.69
650.78	541.86
651.12	539.30
651.46	536.80
651.80	533.89
652.14	531.54
652.49	529.26
652.83	526.69
653.17	523.90
653.51	521.40
653.85	518.90
654.20	516.38
654.54	513.83
654.88	511.16
655.22	508.20
655.56	505.50
655.90	503.15
656.25	500.90
656.59	498.51
656.93	496.30
657.27	494.07
657.61	491.66
657.95	489.60
658.29	487.21
658.64	484.86
658.98	482.34
659.32	479.72
659.66	477.27
660.00	474.93
660.34	472.59
660.68	470.14
661.02	467.77
661.36	465.65
661.70	463.57
662.05	461.75
662.39	459.82
662.73	457.96
663.07	456.13
663.41	454.12
663.75	452.04
664.09	450.00
664.43	447.82
664.77	445.80
665.11	443.64
665.45	441.60
665.79	439.55
666.13	437.70
666.47	435.86
666.81	434.03
667.15	432.26
667.49	430.60
667.83	428.92
668.17	427.02
668.51	425.00
668.85	422.91
669.19	420.92
669.53	418.96
669.87	417.11
670.21	415.09
670.55	413.37
670.89	411.70
671.23	409.90
671.57	408.21
671.91	406.54
672.25	404.85
672.58	403.34
672.92	401.71
673.26	400.20
673.60	398.85
673.94	397.36
674.28	395.97
674.62	394.42
674.96	392.88
675.30	391.41
675.64	389.94
675.97	388.62
676.31	387.26
676.65	385.78
676.99	384.48
677.33	382.84
677.67	381.28
678.01	379.86
678.34	378.61
678.68	377.16
679.02	375.79
679.36	374.37
679.70	372.91
680.04	371.61
680.37	370.21
680.71	368.90
681.05	367.59
681.39	366.18
681.73	364.91
682.06	363.68
682.40	362.50
682.74	361.44
683.08	360.26
683.42	358.99
683.75	357.74
684.09	356.38
684.43	355.19
684.77	354.10
685.10	352.78
685.44	351.44
685.78	350.23
686.12	348.84
686.45	347.57
686.79	346.41
687.13	345.12
687.46	343.95
687.80	342.54
688.14	341.30
688.48	340.14
688.81	338.95
689.15	337.80
689.49	336.68
689.82	335.52
690.16	334.37
690.50	333.37
690.83	332.45
691.17	331.25
691.51	330.37
691.84	329.33
692.18	328.29
692.52	327.21
692.85	326.27
693.19	325.42
693.52	324.50
693.86	323.39
694.20	322.44
694.53	321.48
694.87	320.44
695.21	319.31
695.54	318.19
695.88	317.06
696.21	315.92
696.55	314.90
696.88	313.95
697.22	312.95
697.56	311.93
697.89	310.87
698.23	310.05
698.56	309.01
698.90	308.04
699.23	307.08
699.57	306.23
699.90	305.30
700.24	304.32
700.58	303.50
700.91	302.66
701.25	301.95
701.58	301.13
701.92	300.35
702.25	299.72
702.59	299.08
702.92	298.34
703.26	297.70
703.59	297.00
703.93	296.34
704.26	295.70
704.60	294.95
704.93	294.21
705.26	293.54
705.60	292.83
705.93	292.19
706.27	291.60
706.60	290.90
706.94	290.22
707.27	289.50
707.61	288.90
707.94	288.21
708.27	287.41
708.61	286.70
708.94	286.13
709.28	285.43
709.61	284.72
709.94	284.31
710.28	283.71
710.61	283.20
710.95	282.48
711.28	281.90
711.61	281.35
711.95	280.79
712.28	280.10
712.61	279.62
712.95	279.16
713.28	278.66
713.61	278.13
713.95	277.63
714.28	277.19
714.61	276.53
714.95	275.96
715.28	275.34
715.61	274.79
715.95	274.38
716.28	273.89
716.61	273.53
716.95	272.92
717.28	272.51
717.61	271.96
717.94	271.50
718.28	270.90
718.61	270.36
718.94	270.00
719.27	269.67
719.61	269.19
719.94	268.70
720.27	268.11
720.60	267.69
720.94	267.30
721.27	266.92
721.60	266.67
721.93	266.43
722.27	266.34
722.60	265.96
722.93	265.62
723.26	265.25
723.59	264.82
723.93	264.50
724.26	264.11
724.59	263.70
724.92	263.25
725.25	263.04
725.59	262.71
725.92	262.38
726.25	261.95
726.58	261.67
726.91	261.36
727.24	261.17
727.57	260.78
727.91	260.35
728.24	260.04
728.57	259.67
728.90	259.34
729.23	258.94
729.56	258.73
729.89	258.32
730.22	258.05
730.55	257.72
730.89	257.35
731.22	257.05
731.55	256.69
731.88	256.38
732.21	255.96
732.54	255.60
732.87	255.31
733.20	255.02
733.53	254.64
733.86	254.37
734.19	254.09
734.52	254.02
734.85	254.05
735.18	253.72
735.51	253.41
735.84	253.10
736.17	252.77
736.50	252.52
736.83	252.50
737.16	252.36
737.49	252.09
737.82	251.93
738.15	251.71
738.48	251.48
738.81	251.36
739.14	251.13
739.47	250.85
739.80	250.56
740.13	250.34
740.46	250.17
740.79	249.93
741.12	249.64
741.45	249.30
741.78	248.77
742.11	248.69
742.44	248.44
742.77	248.26
743.10	248.06
743.43	247.78
743.75	247.38
744.08	247.35
744.41	247.17
744.74	246.80
745.07	246.51
745.40	246.43
745.73	246.23
746.06	246.02
746.39	245.89
746.71	245.70
747.04	245.50
747.37	245.20
747.70	244.99
748.03	244.82
748.36	244.68
748.68	244.51
749.01	244.21
749.34	244.00
749.67	243.80
750.00	243.61
750.33	243.60
750.65	243.42
750.98	242.99
751.31	242.77
751.64	242.60
751.97	242.55
752.29	242.28
752.62	242.12
752.95	242.00
753.28	241.86
753.60	241.70
753.93	241.55
754.26	241.44
754.59	241.23
754.91	241.15
755.24	240.91
755.57	240.82
755.90	240.62
756.22	240.47
756.55	240.33
756.88	240.17
757.20	239.88
757.53	239.62
757.86	239.45
758.19	239.44
758.51	239.31
758.84	239.10
759.17	239.00
759.49	238.84
759.82	238.83
760.15	238.72
760.47	238.58
760.80	238.44
761.13	238.50
761.45	238.42
761.78	238.26
762.11	238.15
762.43	238.07
762.76	238.02
763.08	237.95
763.41	237.94
763.74	237.83
764.06	237.75
764.39	237.72
764.71	237.56
765.04	237.31
765.37	237.40
765.69	237.25
766.02	237.20
766.34	237.09
766.67	236.93
767.00	236.80
767.32	236.86
767.65	236.89
767.97	236.78
768.30	236.69
768.62	236.60
768.95	236.46
769.27	236.30
769.60	236.28
769.92	236.19
770.25	236.03
770.57	235.89
770.90	235.78
771.22	235.58
771.55	235.50
771.87	235.44
772.20	235.29
772.52	235.27
772.85	235.36
773.17	235.34
773.50	235.18
773.82	235.14
774.15	235.04
774.47	234.90
774.80	234.74
775.12	234.63
775.45	234.56
775.77	234.64
776.09	234.60
776.42	234.56
776.74	234.47
777.07	234.37
777.39	234.36
777.72	234.30
778.04	234.46
778.36	234.41
778.69	234.40
779.01	234.31
779.33	234.19
779.66	233.89
779.98	233.72
780.31	233.63
780.63	233.66
780.95	233.59
781.28	233.51
781.60	233.35
781.92	233.24
782.25	233.21
782.57	233.04
782.89	233.00
783.22	232.95
783.54	232.97
783.86	232.95
784.19	232.90
784.51	232.86
784.83	232.61
785.16	232.58
785.48	232.48
785.80	232.31
786.12	232.30
786.45	232.34
786.77	232.40
787.09	232.42
787.42	232.37
787.74	232.34
788.06	232.20
788.38	232.21
788.71	232.17
789.03	232.07
789.35	232.10
789.67	231.99
789.99	231.82
790.32	231.75
790.64	231.70
790.96	231.76
791.28	231.76
791.61	231.80
791.93	231.77
792.25	231.77
792.57	231.90
792.89	231.81
793.21	231.75
793.54	231.65
793.86	231.68
794.18	231.59
794.50	231.39
794.82	231.49
795.14	231.53
795.47	231.56
795.79	231.51
796.11	231.41
796.43	231.42
796.75	231.40
797.07	231.48
797.39	231.40
797.71	231.23
798.04	231.20
798.36	231.20
798.68	231.24
799.00	231.23
799.32	231.28
799.64	231.23
799.96	231.24
800.28	231.11
800.60	230.99
800.92	230.98
801.24	231.00
801.56	230.93
801.89	230.81
802.21	230.78
802.53	230.73
802.85	230.75
803.17	230.84
803.49	230.78
803.81	230.60
804.13	230.55
804.45	230.55
804.77	230.50
805.09	230.40
805.41	230.36
805.73	230.35
806.05	230.29
806.37	230.38
806.69	230.39
807.01	230.45
807.33	230.42
807.65	230.35
807.97	230.45
808.28	230.52
808.60	230.51
808.92	230.52
809.24	230.65
809.56	230.59
809.88	230.43
810.20	230.51
810.52	230.50
810.84	230.52
811.16	230.45
811.48	230.47
811.80	230.58
812.12	230.45
812.43	230.45
812.75	230.36
813.07	230.34
813.39	230.36
813.71	230.40
814.03	230.42
814.35	230.40
814.67	230.37
814.98	230.24
815.30	230.27
815.62	230.24
815.94	230.13
816.26	230.21
816.58	230.21
816.89	230.17
817.21	230.12
817.53	230.20
817.85	230.22
818.17	230.21
818.48	230.04
818.80	230.17
819.12	230.07
819.44	230.00
819.76	230.01
820.07	229.90
820.39	229.83
820.71	229.76
821.03	229.76
821.34	229.65
821.66	229.79
821.98	229.78
822.30	229.80
822.61	229.83
822.93	229.74
823.25	229.69
823.57	229.63
823.88	229.74
824.20	229.72
824.52	229.81
824.83	229.70
825.15	229.73
825.47	229.65
825.79	229.70
826.10	229.62
826.42	229.44
826.74	229.44
827.05	229.41
827.37	229.53
827.69	229.55
828.00	229.56
828.32	229.44
828.64	229.39
828.95	229.40
829.27	229.36
829.58	229.41
829.90	229.45
830.22	229.54
830.53	229.43
830.85	229.26
831.17	229.20
831.48	229.21
831.80	229.19
832.11	229.17
832.43	229.04
832.75	229.07
833.06	229.23
833.38	229.12
833.69	229.10
834.01	229.01
834.32	228.93
834.64	228.90
834.96	228.93
835.27	228.92
835.59	228.83
835.90	228.80
836.22	228.70
836.53	228.74
836.85	228.69
837.16	228.87
837.48	228.95
837.79	228.89
838.11	228.92
838.42	228.97
838.74	228.99
839.05	228.98
839.37	228.91
839.68	228.80
840.00	228.78
840.31	228.86
840.63	228.83
840.94	228.84
841.26	228.88
841.57	228.83
841.88	228.79
842.20	228.90
842.51	228.87
842.83	228.95
843.14	229.05
843.46	229.04
843.77	228.92
844.08	228.95
844.40	228.94
844.71	228.87
845.03	228.83
845.34	228.84
845.65	228.88
845.97	228.91
846.28	228.95
846.60	229.04
846.91	229.05
847.22	229.04
847.54	229.11
847.85	229.07
848.16	229.03
848.48	228.99
848.79	228.95
849.10	228.92
849.42	228.86
849.73	228.63
850.04	228.64
850.36	228.64
850.67	228.59
850.98	228.66
851.30	228.82
851.61	228.87
851.92	228.92
852.23	229.00
852.55	229.03
852.86	229.03
853.17	229.04
853.49	229.03
853.80	229.05
854.11	229.06
854.42	229.04
854.74	229.17
855.05	229.20
855.36	229.10
855.67	229.28
855.99	229.35
856.30	229.59
856.61	229.54
856.92	229.53
857.23	229.50
857.55	229.48
857.86	229.31
858.17	229.30
858.48	229.19
858.79	229.11
859.11	229.15
859.42	229.14
859.73	229.08
860.04	229.01
860.35	229.01
860.66	228.87
860.98	228.94
861.29	228.85
861.60	228.86
861.91	228.91
862.22	228.72
862.53	228.73
862.84	228.56
863.16	228.64
863.47	228.60
863.78	228.61
864.09	228.59
864.40	228.62
864.71	228.64
865.02	228.62
865.33	228.65
865.64	228.65
865.95	228.72
866.27	228.82
866.58	228.82
866.89	228.87
867.20	228.90
867.51	228.83
867.82	228.76
868.13	228.77
868.44	228.72
868.75	228.80
869.06	228.77
869.37	228.80
869.68	228.70
869.99	228.70
870.30	228.65
870.61	228.60
870.92	228.61
871.23	228.62
871.54	228.71
871.85	228.72
872.16	228.63
872.47	228.48
872.78	228.35
873.09	228.43
873.40	228.34
873.71	228.39
874.02	228.37
874.33	228.31
874.64	228.25
874.95	228.30
875.26	228.20
875.56	228.10
875.87	227.96
876.18	227.88
876.49	228.01
876.80	228.08
877.11	228.04
877.42	227.98
877.73	227.79
878.04	227.70
878.35	227.64
878.66	227.67
878.96	227.61
879.27	227.64
879.58	227.59
879.89	227.63
880.20	227.70
880.51	227.71
880.82	227.85
881.12	227.92
881.43	227.87
881.74	227.84
882.05	227.90
882.36	228.05
882.67	228.10
882.97	227.99
883.28	227.96
883.59	228.12
883.90	228.24
884.21	228.40
884.51	228.33
884.82	228.36
885.13	228.39
885.44	228.49
885.74	228.50
886.05	228.56
886.36	228.54
886.67	228.50
886.98	228.66
887.28	228.62
887.59	228.65
887.90	228.64
888.20	228.77
888.51	228.80
888.82	228.67
889.13	228.72
889.43	228.92
889.74	228.90
890.05	228.89
890.35	228.92
890.66	228.90
890.97	228.96
891.28	229.00
891.58	229.07
891.89	229.12
892.20	229.14
892.50	229.06
892.81	229.03
893.12	229.01
893.42	228.93
893.73	228.99
894.04	228.92
894.34	229.04
894.65	229.03
894.95	229.05
895.26	229.12
895.57	229.30
895.87	229.01
896.18	229.13
896.48	229.10
896.79	229.05
897.10	229.13
897.40	229.15
897.71	229.15
898.01	229.07
898.32	229.10
898.63	229.06
898.93	229.10
899.24	229.19
899.54	229.20
899.85	229.13
900.15	229.12
900.46	229.15
900.76	229.04
901.07	228.97
901.38	228.85
901.68	228.83
901.99	228.69
902.29	228.79
902.60	228.71
902.90	228.63
903.21	228.57
903.51	228.55
903.82	228.56
904.12	228.58
904.43	228.65
904.73	228.62
905.03	228.54
905.34	228.69
905.64	228.57
905.95	228.59
906.25	228.68
906.56	228.62
906.86	228.68
907.17	228.67
907.47	228.75
907.77	228.76
908.08	228.77
908.38	228.66
908.69	228.63
908.99	228.61
909.30	228.62
909.60	228.62
909.90	228.50
910.21	228.53
910.51	228.51
910.81	228.52
911.12	228.43
911.42	228.55
911.73	228.30
912.03	228.29
912.33	228.19
912.64	228.02
912.94	227.97
913.24	227.93
913.55	227.95
913.85	227.84
914.15	227.93
914.46	227.90
914.76	227.90
915.06	227.85
915.37	227.84
915.67	227.77
915.97	227.79
916.27	227.78
916.58	227.72
916.88	227.72
917.18	227.61
917.49	227.77
917.79	227.70
918.09	227.67
918.39	227.82
918.70	227.88
919.00	227.87
919.30	228.01
919.60	227.88
919.91	227.82
920.21	227.92
920.51	227.86
920.81	227.88
921.12	228.01
921.42	228.06
921.72	228.09
922.02	228.18
922.32	228.20
922.63	228.25
922.93	228.43
923.23	228.44
923.53	228.41
923.83	228.40
924.13	228.47
924.44	228.60
924.74	228.62
925.04	228.63
925.34	228.72
925.64	228.68
925.94	228.76
926.24	228.89
926.55	229.00
926.85	228.97
927.15	228.98
927.45	228.91
927.75	228.89
928.05	228.93
928.35	229.00
928.65	229.04
928.95	229.02
929.26	228.87
929.56	228.82
929.86	229.00
930.16	228.92
930.46	228.94
930.76	228.88
931.06	228.77
931.36	228.72
931.66	228.71
931.96	228.76
932.26	228.82
932.56	228.79
932.86	228.74
933.16	228.83
933.46	228.82
933.76	228.90
934.06	229.02
934.36	229.10
934.66	229.05
934.96	228.98
935.26	229.11
935.56	229.16
935.86	229.18
936.16	229.18
936.46	229.13
936.76	229.15
937.06	229.10
937.36	229.12
937.66	229.23
937.96	229.30
938.26	229.13
938.56	229.15
938.86	229.19
939.16	229.17
939.46	229.19
939.76	229.21
940.06	229.17
940.35	229.10
940.65	228.97
940.95	228.91
941.25	228.91
941.55	228.82
941.85	228.80
942.15	228.84
942.45	228.83
942.75	228.79
943.04	228.72
943.34	228.74
943.64	228.69
943.94	228.54
944.24	228.50
944.54	228.61
944.84	228.52
945.13	228.49
945.43	228.44
945.73	228.30
946.03	228.15
946.33	228.07
946.62	227.99
946.92	227.94
947.22	227.84
947.52	227.87
947.82	227.84
948.11	227.72
948.41	227.60
948.71	227.47
949.01	227.52
949.31	227.49
949.60	227.51
949.90	227.51
950.20	227.49
950.50	227.45
950.79	227.37
951.09	227.35
951.39	227.24
951.69	227.17
951.98	227.27
952.28	227.40
952.58	227.34
952.87	227.35
953.17	227.37
953.47	227.42
953.76	227.33
954.06	227.24
954.36	227.25
954.66	227.29
954.95	227.32
955.25	227.32
955.55	227.37
955.84	227.35
956.14	227.39
956.44	227.47
956.73	227.44
957.03	227.51
957.32	227.52
957.62	227.53
957.92	227.64
958.21	227.53
958.51	227.57
958.81	227.67
959.10	227.76
959.40	227.88
959.69	228.00
959.99	228.03
960.29	228.08
960.58	228.13
960.88	228.15
961.17	228.24
961.47	228.25
961.76	228.18
962.06	228.27
962.36	228.23
962.65	228.24
962.95	228.33
963.24	228.30
963.54	228.36
963.83	228.33
964.13	228.35
964.42	228.50
964.72	228.51
965.01	228.54
965.31	228.50
965.60	228.48
965.90	228.60
966.19	228.63
966.49	228.70
966.78	228.81
967.08	228.82
967.37	228.80
967.67	228.80
967.96	228.86
968.26	228.77
968.55	228.84
968.85	228.83
969.14	228.81
969.43	228.81
969.73	228.81
970.02	228.97
970.32	228.97
970.61	228.90
970.91	228.88
971.20	228.86
971.49	228.80
971.79	228.89
972.08	228.71
972.38	228.70
972.67	228.59
972.96	228.56
973.26	228.59
973.55	228.62
973.85	228.73
974.14	228.78
974.43	228.94
974.73	228.91
975.02	228.94
975.31	228.99
975.61	228.99
975.90	229.00
976.19	228.95
976.49	228.89
976.78	228.84
977.07	228.81
977.37	228.80
977.66	228.88
977.95	228.76
978.24	228.74
978.54	228.80
978.83	228.97
979.12	228.94
979.42	228.98
979.71	228.91
980.00	228.83
980.29	228.72
980.59	228.65
980.88	228.75
981.17	228.72
981.46	228.71
981.76	228.68
982.05	228.57
982.34	228.55
982.63	228.61
982.93	228.61
983.22	228.66
983.51	228.55
983.80	228.54
984.09	228.41
984.39	228.39
984.68	228.26
984.97	228.02
985.26	227.93
985.55	227.82
985.85	227.72
986.14	227.74
986.43	227.83
986.72	227.69
987.01	227.49
987.30	227.47
987.59	227.37
987.89	227.30
988.18	227.40
988.47	227.37
988.76	227.27
989.05	227.27
989.34	227.30
989.63	227.40
989.92	227.34
990.22	227.37
990.51	227.40
990.80	227.46
991.09	227.66
991.38	227.78
991.67	227.77
991.96	227.73
992.25	227.65
992.54	227.58
992.83	227.61
993.12	227.61
993.41	227.62
993.70	227.68
993.99	227.87
994.28	227.74
994.58	227.77
994.87	227.75
995.16	227.78
995.45	227.61
995.74	227.58
996.03	227.62
996.32	227.64
996.61	227.66
996.90	227.70
997.19	227.60
997.48	227.55
997.77	227.54
998.06	227.67
998.34	227.74
998.63	227.79
998.92	227.86
999.21	227.96
999.50	227.91
999.79	227.95
1000.08	227.89
1000.37	227.92
1000.66	227.98
1000.95	228.07
1001.24	228.05
1001.53	228.22
1001.82	228.29
1002.11	228.36
1002.40	228.48
1002.68	228.54
1002.97	228.70
1003.26	228.69
1003.55	228.61
1003.84	228.55
1004.13	228.61
1004.42	228.50
1004.71	228.46
1004.99	228.53
1005.28	228.62
1005.57	228.68
1005.86	228.69
1006.15	228.76
1006.44	228.90
1006.72	228.91
1007.01	228.98
1007.30	229.00
1007.59	228.93
1007.88	228.90
1008.17	228.86
1008.45	228.82
1008.74	228.80
1009.03	228.66
1009.32	228.78
1009.60	228.83
1009.89	228.95
1010.18	228.85
1010.47	228.88
1010.76	228.93
1011.04	228.81
1011.33	228.77
1011.62	228.77
1011.91	228.67
1012.19	228.62
1012.48	228.54
1012.77	228.55
1013.05	228.53
1013.34	228.52
1013.63	228.54
1013.92	228.57
1014.20	228.53
1014.49	228.51
1014.78	228.43
1015.06	228.42
1015.35	228.45
1015.64	228.39
1015.92	228.34
1016.21	228.28
1016.50	228.35
1016.78	228.42
1017.07	228.50
1017.36	228.48
1017.64	228.46
1017.93	228.51
1018.22	228.42
1018.50	228.39
1018.79	228.31
1019.08	228.25
1019.36	228.25
1019.65	228.28
1019.93	228.33
1020.22	228.32
1020.51	228.43
1020.79	228.41
1021.08	227.10
1021.36	227.30
1021.65	228.20
1021.94	228.90
1022.22	227.70
1022.51	229.50
1022.79	229.90
1023.08	227.80
1023.36	230.70
1023.65	227.10
>>>>>End Processed Spectral Data<<<<<
