SpectraSuite Data File
++++++++++++++++++++++++++++++++++++
Date: Fri Feb 01 14:34:58 EST 2013
User: group
Dark Spectrum Present: No
Reference Spectrum Present: No
Number of Sampled Component Spectra: 1
Spectrometers: USB2E7196
Integration Time (usec): 70000 (USB2E7196)
Spectra Averaged: 10 (USB2E7196)
Boxcar Smoothing: 10 (USB2E7196)
Correct for Electrical Dark: No (USB2E7196)
Strobe/Lamp Enabled: No (USB2E7196)
Correct for Detector Non-linearity: No (USB2E7196)
Correct for Stray Light: No (USB2E7196)
Number of Pixels in Processed Spectrum: 2048
>>>>>Begin Processed Spectral Data<<<<<
339.09	0.00
339.48	216.20
339.86	217.70
340.24	216.80
340.63	219.20
341.01	225.60
341.39	222.70
341.78	225.00
342.16	226.60
342.54	227.50
342.93	214.40
343.31	225.20
343.69	225.71
344.07	226.22
344.46	226.80
344.84	227.19
345.22	227.32
345.60	227.53
345.99	227.65
346.37	227.77
346.75	227.82
347.13	227.94
347.52	227.86
347.90	228.09
348.28	228.10
348.66	228.32
349.05	228.25
349.43	228.18
349.81	228.20
350.19	228.29
350.57	228.47
350.96	228.61
351.34	228.76
351.72	228.83
352.10	228.88
352.48	228.95
352.87	229.06
353.25	229.05
353.63	229.19
354.01	229.21
354.39	229.25
354.77	229.30
355.15	229.44
355.54	229.50
355.92	229.43
356.30	229.56
356.68	229.73
357.06	229.81
357.44	229.90
357.82	229.91
358.20	230.07
358.58	230.11
358.97	230.19
359.35	230.21
359.73	230.32
360.11	230.34
360.49	230.32
360.87	230.46
361.25	230.57
361.63	230.69
362.01	230.76
362.39	230.82
362.77	230.81
363.15	230.77
363.53	230.82
363.91	230.85
364.29	230.78
364.67	230.53
365.05	230.51
365.43	230.46
365.81	230.59
366.19	230.58
366.57	230.67
366.95	230.58
367.33	230.53
367.71	230.55
368.09	230.58
368.47	230.50
368.85	230.43
369.23	230.41
369.61	230.31
369.99	230.35
370.37	230.25
370.75	230.38
371.13	230.32
371.51	230.25
371.89	230.16
372.27	230.15
372.65	230.05
373.03	230.03
373.41	229.99
373.78	229.72
374.16	229.63
374.54	229.49
374.92	229.50
375.30	229.44
375.68	229.28
376.06	229.12
376.44	229.09
376.82	228.94
377.19	228.87
377.57	228.71
377.95	228.67
378.33	228.62
378.71	228.40
379.09	228.26
379.47	228.26
379.84	228.22
380.22	228.08
380.60	228.05
380.98	227.91
381.36	227.92
381.73	227.97
382.11	227.92
382.49	227.89
382.87	227.72
383.25	227.68
383.62	227.88
384.00	227.84
384.38	227.83
384.76	227.79
385.13	227.79
385.51	227.76
385.89	227.51
386.27	227.50
386.64	227.51
387.02	227.49
387.40	227.43
387.78	227.32
388.15	227.29
388.53	227.31
388.91	227.38
389.29	227.29
389.66	227.28
390.04	227.25
390.42	227.21
390.79	227.30
391.17	227.32
391.55	227.05
391.92	227.13
392.30	227.18
392.68	227.22
393.05	227.28
393.43	227.30
393.81	227.48
394.18	227.42
394.56	227.52
394.94	227.62
395.31	227.70
395.69	227.89
396.06	227.95
396.44	228.03
396.82	228.08
397.19	228.25
397.57	228.31
397.95	228.43
398.32	228.40
398.70	228.45
399.07	228.63
399.45	228.79
399.82	228.84
400.20	228.93
400.58	228.98
400.95	229.04
401.33	229.23
401.70	229.46
402.08	229.70
402.45	229.81
402.83	230.09
403.20	230.19
403.58	230.31
403.95	230.62
404.33	230.91
404.71	231.08
405.08	231.44
405.46	231.73
405.83	231.99
406.21	232.46
406.58	232.90
406.96	233.11
407.33	233.54
407.70	233.99
408.08	234.55
408.45	235.07
408.83	235.54
409.20	236.05
409.58	236.52
409.95	237.17
410.33	237.89
410.70	238.43
411.08	239.21
411.45	240.04
411.82	240.80
412.20	241.66
412.57	242.83
412.95	243.66
413.32	244.79
413.69	245.89
414.07	246.95
414.44	248.19
414.82	249.59
415.19	251.12
415.56	252.76
415.94	254.26
416.31	256.08
416.68	257.92
417.06	259.94
417.43	261.84
417.81	264.03
418.18	266.16
418.55	268.65
418.93	271.22
419.30	273.79
419.67	276.53
420.04	279.37
420.42	282.30
420.79	285.75
421.16	289.20
421.54	292.76
421.91	296.50
422.28	300.35
422.66	304.36
423.03	308.39
423.40	312.38
423.77	316.77
424.15	321.23
424.52	325.90
424.89	330.83
425.26	335.71
425.64	340.36
426.01	345.65
426.38	350.91
426.75	356.14
427.13	361.70
427.50	367.57
427.87	373.68
428.24	379.70
428.61	385.45
428.99	391.77
429.36	398.86
429.73	405.73
430.10	412.50
430.47	419.41
430.85	426.47
431.22	433.85
431.59	441.84
431.96	449.66
432.33	458.14
432.70	466.28
433.08	475.85
433.45	484.80
433.82	493.71
434.19	503.65
434.56	513.41
434.93	522.90
435.30	532.34
435.68	542.66
436.05	552.88
436.42	562.99
436.79	572.10
437.16	581.81
437.53	592.41
437.90	602.71
438.27	613.14
438.64	623.63
439.01	633.40
439.38	642.22
439.75	650.35
440.13	659.93
440.50	669.40
440.87	677.25
441.24	685.20
441.61	693.85
441.98	700.29
442.35	708.29
442.72	715.90
443.09	723.52
443.46	728.28
443.83	731.70
444.20	734.72
444.57	739.16
444.94	741.80
445.31	744.08
445.68	746.41
446.05	748.12
446.42	748.30
446.79	748.27
447.16	748.15
447.53	748.59
447.90	746.10
448.27	743.30
448.64	738.82
449.01	736.26
449.37	730.49
449.74	725.23
450.11	717.99
450.48	710.40
450.85	702.55
451.22	696.20
451.59	690.08
451.96	684.42
452.33	676.12
452.70	668.54
453.07	659.47
453.43	650.33
453.80	641.11
454.17	632.28
454.54	624.28
454.91	615.11
455.28	606.25
455.65	597.71
456.02	589.20
456.38	582.13
456.75	572.99
457.12	565.63
457.49	558.19
457.86	551.11
458.23	545.01
458.59	537.95
458.96	530.78
459.33	524.62
459.70	518.10
460.07	513.09
460.43	507.25
460.80	501.69
461.17	496.77
461.54	491.70
461.91	486.79
462.27	481.67
462.64	477.29
463.01	472.66
463.38	468.31
463.74	463.80
464.11	459.58
464.48	455.98
464.85	452.11
465.21	448.99
465.58	445.72
465.95	441.84
466.32	438.82
466.68	435.63
467.05	432.26
467.42	429.19
467.78	425.78
468.15	422.49
468.52	420.03
468.88	416.97
469.25	414.12
469.62	411.98
469.98	409.49
470.35	407.38
470.72	405.11
471.08	402.88
471.45	401.00
471.82	399.37
472.18	397.25
472.55	395.71
472.92	393.74
473.28	392.07
473.65	390.40
474.02	388.72
474.38	387.36
474.75	386.25
475.11	384.95
475.48	383.95
475.85	383.22
476.21	382.43
476.58	381.77
476.94	381.11
477.31	380.40
477.67	379.90
478.04	379.22
478.41	378.80
478.77	378.48
479.14	377.98
479.50	377.39
479.87	377.45
480.23	377.23
480.60	377.18
480.96	376.94
481.33	377.30
481.69	377.44
482.06	377.40
482.42	377.28
482.79	377.39
483.15	377.82
483.52	378.35
483.88	378.71
484.25	379.16
484.61	379.76
484.98	380.22
485.34	380.93
485.71	381.86
486.07	382.68
486.44	383.40
486.80	384.50
487.17	385.68
487.53	386.84
487.90	388.20
488.26	389.70
488.62	391.28
488.99	392.68
489.35	394.28
489.72	396.11
490.08	398.16
490.44	400.14
490.81	402.03
491.17	403.86
491.54	406.10
491.90	408.27
492.26	410.62
492.63	413.00
492.99	415.41
493.36	417.72
493.72	420.55
494.08	423.23
494.45	426.02
494.81	428.85
495.17	431.68
495.54	434.60
495.90	437.53
496.26	440.53
496.63	443.67
496.99	446.95
497.35	450.20
497.72	453.47
498.08	456.66
498.44	460.07
498.80	463.90
499.17	467.22
499.53	470.69
499.89	474.13
500.26	477.62
500.62	481.08
500.98	484.98
501.34	488.48
501.71	492.19
502.07	495.80
502.43	499.56
502.79	503.29
503.16	506.98
503.52	510.72
503.88	514.29
504.24	517.90
504.60	521.37
504.97	524.81
505.33	528.37
505.69	532.39
506.05	536.00
506.41	539.18
506.78	542.75
507.14	546.31
507.50	549.83
507.86	553.15
508.22	556.63
508.59	559.69
508.95	563.00
509.31	566.23
509.67	569.46
510.03	572.45
510.39	575.45
510.75	578.47
511.12	581.39
511.48	584.68
511.84	587.60
512.20	590.45
512.56	593.35
512.92	596.15
513.28	598.65
513.64	601.18
514.00	603.85
514.37	606.21
514.73	608.62
515.09	610.90
515.45	613.45
515.81	615.49
516.17	617.83
516.53	620.03
516.89	621.85
517.25	623.87
517.61	626.00
517.97	627.80
518.33	629.53
518.69	631.13
519.05	632.81
519.41	634.38
519.77	636.53
520.13	638.37
520.49	640.03
520.85	641.36
521.21	642.94
521.57	644.61
521.93	645.90
522.29	647.43
522.65	648.89
523.01	650.21
523.37	651.58
523.73	653.10
524.09	654.39
524.45	655.85
524.81	657.14
525.17	658.55
525.53	660.15
525.89	661.47
526.25	663.14
526.61	664.57
526.97	666.13
527.33	667.35
527.68	668.83
528.04	670.40
528.40	672.43
528.76	674.38
529.12	675.93
529.48	677.72
529.84	679.33
530.20	681.40
530.56	683.60
530.91	685.91
531.27	687.66
531.63	689.63
531.99	691.82
532.35	693.63
532.71	695.58
533.07	697.77
533.42	700.09
533.78	702.05
534.14	704.20
534.50	706.26
534.86	708.37
535.21	710.47
535.57	712.53
535.93	714.57
536.29	716.66
536.65	718.67
537.00	721.10
537.36	723.47
537.72	725.64
538.08	727.72
538.44	729.89
538.79	732.41
539.15	734.70
539.51	737.12
539.87	740.10
540.22	742.78
540.58	745.34
540.94	747.70
541.29	750.32
541.65	752.90
542.01	755.87
542.37	758.70
542.72	761.50
543.08	764.45
543.44	767.04
543.79	769.33
544.15	772.26
544.51	775.38
544.87	778.27
545.22	781.17
545.58	783.90
545.94	786.72
546.29	789.60
546.65	792.54
547.01	795.29
547.36	797.96
547.72	800.75
548.07	803.50
548.43	806.58
548.79	809.39
549.14	812.30
549.50	814.73
549.86	817.37
550.21	820.44
550.57	823.32
550.92	826.34
551.28	829.15
551.64	831.98
551.99	834.50
552.35	837.30
552.70	840.13
553.06	843.08
553.41	845.77
553.77	848.84
554.13	851.86
554.48	854.97
554.84	858.04
555.19	860.94
555.55	863.80
555.90	866.69
556.26	869.81
556.61	872.47
556.97	875.40
557.32	878.37
557.68	880.89
558.03	883.57
558.39	886.21
558.74	889.62
559.10	892.44
559.45	895.46
559.81	898.53
560.16	901.24
560.52	903.90
560.87	907.00
561.23	909.41
561.58	912.16
561.94	914.84
562.29	917.10
562.64	919.60
563.00	922.09
563.35	924.84
563.71	927.70
564.06	930.43
564.42	933.08
564.77	935.81
565.12	938.20
565.48	940.81
565.83	943.29
566.19	945.40
566.54	947.98
566.89	950.16
567.25	951.98
567.60	954.45
567.96	956.82
568.31	959.10
568.66	961.06
569.02	963.01
569.37	964.87
569.72	966.93
570.08	968.70
570.43	970.47
570.78	972.07
571.14	973.18
571.49	974.77
571.84	976.58
572.20	977.46
572.55	978.70
572.90	979.44
573.26	980.66
573.61	981.60
573.96	982.40
574.31	983.20
574.67	983.90
575.02	984.34
575.37	984.67
575.72	984.66
576.08	985.32
576.43	985.29
576.78	985.58
577.13	986.07
577.49	986.18
577.84	986.33
578.19	986.22
578.54	986.11
578.90	985.85
579.25	985.19
579.60	985.08
579.95	984.87
580.30	984.79
580.66	984.31
581.01	983.93
581.36	983.54
581.71	982.93
582.06	982.41
582.42	981.50
582.77	981.12
583.12	980.99
583.47	980.26
583.82	979.85
584.17	979.29
584.53	978.31
584.88	977.78
585.23	976.85
585.58	975.90
585.93	975.30
586.28	974.79
586.63	974.25
586.98	973.25
587.34	972.41
587.69	971.58
588.04	970.58
588.39	969.81
588.74	968.46
589.09	967.27
589.44	965.97
589.79	964.78
590.14	963.48
590.49	961.96
590.84	960.46
591.19	959.20
591.54	956.96
591.89	955.13
592.25	953.36
592.60	951.36
592.95	949.40
593.30	947.29
593.65	945.20
594.00	942.67
594.35	941.40
594.70	939.13
595.05	937.33
595.40	935.19
595.75	932.72
596.10	930.67
596.45	928.98
596.80	927.10
597.15	925.25
597.50	922.98
597.85	920.92
598.19	919.14
598.54	917.17
598.89	915.66
599.24	913.89
599.59	912.12
599.94	910.16
600.29	908.43
600.64	906.27
600.99	903.78
601.34	902.22
601.69	899.50
602.04	897.46
602.39	894.72
602.74	892.60
603.08	890.61
603.43	888.53
603.78	886.27
604.13	884.00
604.48	881.41
604.83	879.53
605.18	877.09
605.53	874.27
605.87	871.42
606.22	868.78
606.57	866.15
606.92	863.26
607.27	861.22
607.62	858.71
607.96	856.40
608.31	854.10
608.66	851.15
609.01	848.32
609.36	845.39
609.70	842.46
610.05	839.37
610.40	836.49
610.75	833.36
611.10	830.15
611.44	826.72
611.79	823.92
612.14	820.35
612.49	816.80
612.83	813.80
613.18	810.70
613.53	807.78
613.88	804.45
614.22	801.39
614.57	797.54
614.92	794.31
615.27	791.18
615.61	787.92
615.96	784.80
616.31	781.97
616.65	779.20
617.00	776.67
617.35	773.99
617.70	770.71
618.04	767.66
618.39	764.54
618.74	762.01
619.08	758.93
619.43	756.19
619.78	753.58
620.12	750.66
620.47	747.51
620.82	744.30
621.16	741.69
621.51	738.87
621.85	736.17
622.20	733.09
622.55	730.11
622.89	727.30
623.24	724.59
623.59	721.65
623.93	718.98
624.28	715.85
624.62	713.00
624.97	710.46
625.32	707.78
625.66	705.44
626.01	702.68
626.35	699.84
626.70	696.93
627.04	694.32
627.39	691.13
627.73	688.41
628.08	685.60
628.43	682.51
628.77	679.57
629.12	676.79
629.46	673.89
629.81	670.77
630.15	667.61
630.50	664.49
630.84	661.43
631.19	658.14
631.53	655.13
631.88	651.71
632.22	648.51
632.57	645.56
632.91	642.35
633.26	639.22
633.60	636.37
633.95	633.52
634.29	630.57
634.64	628.12
634.98	625.17
635.32	622.71
635.67	620.08
636.01	617.29
636.36	614.58
636.70	612.08
637.05	609.56
637.39	607.28
637.73	604.60
638.08	602.57
638.42	600.29
638.77	597.72
639.11	595.35
639.45	592.87
639.80	590.59
640.14	588.10
640.49	585.64
640.83	583.08
641.17	580.63
641.52	577.92
641.86	575.42
642.20	573.10
642.55	570.36
642.89	567.75
643.23	565.42
643.58	563.31
643.92	560.70
644.26	558.29
644.61	555.82
644.95	553.61
645.29	550.48
645.64	547.77
645.98	545.43
646.32	543.01
646.66	540.49
647.01	537.83
647.35	535.55
647.69	533.14
648.04	530.92
648.38	528.38
648.72	525.88
649.06	523.26
649.41	520.92
649.75	518.38
650.09	515.99
650.43	513.34
650.78	510.65
651.12	508.09
651.46	505.70
651.80	503.11
652.14	500.72
652.49	498.37
652.83	496.06
653.17	493.62
653.51	491.25
653.85	489.12
654.20	486.66
654.54	483.89
654.88	481.51
655.22	478.78
655.56	476.38
655.90	474.19
656.25	472.06
656.59	469.71
656.93	467.50
657.27	465.30
657.61	463.10
657.95	460.93
658.29	458.81
658.64	456.69
658.98	454.51
659.32	452.18
659.66	450.13
660.00	448.13
660.34	446.03
660.68	444.03
661.02	441.74
661.36	439.94
661.70	437.93
662.05	436.10
662.39	434.52
662.73	432.60
663.07	430.94
663.41	429.02
663.75	427.04
664.09	425.18
664.43	423.30
664.77	421.61
665.11	419.84
665.45	418.17
665.79	416.45
666.13	414.77
666.47	413.09
666.81	411.50
667.15	409.60
667.49	407.98
667.83	406.39
668.17	404.68
668.51	402.70
668.85	401.21
669.19	399.58
669.53	397.87
669.87	396.40
670.21	394.70
670.55	393.13
670.89	391.81
671.23	390.65
671.57	389.30
671.91	387.80
672.25	386.30
672.58	384.77
672.92	383.25
673.26	381.90
673.60	380.66
673.94	379.30
674.28	378.11
674.62	376.99
674.96	375.74
675.30	374.67
675.64	373.54
675.97	372.42
676.31	371.08
676.65	369.86
676.99	368.68
677.33	367.35
677.67	366.20
678.01	364.87
678.34	363.46
678.68	362.17
679.02	360.95
679.36	359.80
679.70	358.76
680.04	357.48
680.37	356.10
680.71	354.81
681.05	353.59
681.39	352.34
681.73	351.04
682.06	349.83
682.40	348.72
682.74	347.66
683.08	346.48
683.42	345.39
683.75	344.24
684.09	342.94
684.43	341.90
684.77	340.65
685.10	339.50
685.44	338.35
685.78	337.29
686.12	336.37
686.45	335.23
686.79	334.13
687.13	333.27
687.46	332.40
687.80	331.49
688.14	330.41
688.48	329.38
688.81	328.40
689.15	327.35
689.49	326.26
689.82	325.21
690.16	324.17
690.50	323.23
690.83	322.36
691.17	321.35
691.51	320.33
691.84	319.56
692.18	318.67
692.52	317.77
692.85	316.79
693.19	315.67
693.52	314.74
693.86	313.76
694.20	312.89
694.53	311.83
694.87	310.78
695.21	309.84
695.54	308.95
695.88	307.80
696.21	306.92
696.55	306.01
696.88	305.09
697.22	304.30
697.56	303.36
697.89	302.43
698.23	301.69
698.56	300.99
698.90	300.15
699.23	299.25
699.57	298.38
699.90	297.57
700.24	296.83
700.58	295.99
700.91	295.15
701.25	294.38
701.58	293.80
701.92	293.14
702.25	292.43
702.59	291.70
702.92	291.14
703.26	290.48
703.59	289.84
703.93	289.44
704.26	288.70
704.60	288.11
704.93	287.47
705.26	286.84
705.60	286.16
705.93	285.59
706.27	285.14
706.60	284.74
706.94	284.21
707.27	283.69
707.61	283.15
707.94	282.66
708.27	282.17
708.61	281.52
708.94	280.90
709.28	280.41
709.61	279.95
709.94	279.61
710.28	279.11
710.61	278.61
710.95	277.77
711.28	277.37
711.61	276.82
711.95	276.40
712.28	275.79
712.61	275.27
712.95	274.85
713.28	274.49
713.61	273.88
713.95	273.42
714.28	272.84
714.61	272.40
714.95	272.01
715.28	271.39
715.61	270.95
715.95	270.65
716.28	270.14
716.61	269.75
716.95	269.10
717.28	268.72
717.61	268.18
717.94	267.90
718.28	267.39
718.61	266.93
718.94	266.47
719.27	266.18
719.61	265.84
719.94	265.38
720.27	264.82
720.60	264.56
720.94	264.21
721.27	263.98
721.60	263.67
721.93	263.28
722.27	263.00
722.60	262.68
722.93	262.28
723.26	262.02
723.59	261.57
723.93	261.32
724.26	260.97
724.59	260.71
724.92	260.36
725.25	260.11
725.59	259.81
725.92	259.50
726.25	259.25
726.58	258.82
726.91	258.42
727.24	258.06
727.57	257.70
727.91	257.29
728.24	256.99
728.57	256.57
728.90	256.32
729.23	255.90
729.56	255.80
729.89	255.53
730.22	255.19
730.55	254.84
730.89	254.58
731.22	254.20
731.55	253.95
731.88	253.72
732.21	253.42
732.54	253.15
732.87	252.78
733.20	252.53
733.53	252.29
733.86	252.10
734.19	251.82
734.52	251.50
734.85	251.41
735.18	251.14
735.51	251.10
735.84	250.79
736.17	250.69
736.50	250.23
736.83	250.23
737.16	250.07
737.49	249.96
737.82	249.57
738.15	249.48
738.48	249.19
738.81	248.88
739.14	248.52
739.47	248.36
739.80	248.18
740.13	247.84
740.46	247.57
740.79	247.31
741.12	247.19
741.45	246.99
741.78	246.70
742.11	246.45
742.44	246.20
742.77	246.05
743.10	245.79
743.43	245.70
743.75	245.31
744.08	245.39
744.41	245.17
744.74	245.22
745.07	244.92
745.40	244.96
745.73	244.87
746.06	244.83
746.39	244.70
746.71	244.58
747.04	244.39
747.37	244.30
747.70	244.20
748.03	244.05
748.36	243.90
748.68	243.70
749.01	243.53
749.34	243.31
749.67	243.16
750.00	242.93
750.33	242.75
750.65	242.65
750.98	242.27
751.31	242.17
751.64	241.89
751.97	241.82
752.29	241.67
752.62	241.45
752.95	241.20
753.28	241.04
753.60	240.92
753.93	240.84
754.26	240.70
754.59	240.43
754.91	240.34
755.24	240.24
755.57	240.16
755.90	240.09
756.22	239.92
756.55	239.71
756.88	239.59
757.20	239.36
757.53	239.01
757.86	238.83
758.19	238.73
758.51	238.59
758.84	238.49
759.17	238.28
759.49	238.22
759.82	238.22
760.15	238.24
760.47	238.17
760.80	238.10
761.13	238.10
761.45	238.15
761.78	237.96
762.11	237.82
762.43	237.72
762.76	237.61
763.08	237.56
763.41	237.57
763.74	237.52
764.06	237.46
764.39	237.49
764.71	237.40
765.04	237.29
765.37	237.27
765.69	237.14
766.02	237.05
766.34	236.90
766.67	236.85
767.00	236.76
767.32	236.68
767.65	236.64
767.97	236.52
768.30	236.35
768.62	236.29
768.95	236.15
769.27	236.06
769.60	236.00
769.92	235.87
770.25	235.74
770.57	235.58
770.90	235.55
771.22	235.36
771.55	235.20
771.87	235.09
772.20	234.94
772.52	235.00
772.85	235.13
773.17	235.14
773.50	235.01
773.82	234.86
774.15	234.71
774.47	234.52
774.80	234.39
775.12	234.28
775.45	234.19
775.77	234.24
776.09	234.13
776.42	234.01
776.74	233.95
777.07	233.90
777.39	233.87
777.72	233.80
778.04	233.80
778.36	233.81
778.69	233.76
779.01	233.71
779.33	233.40
779.66	233.15
779.98	233.02
780.31	232.90
780.63	232.87
780.95	232.91
781.28	232.84
781.60	232.79
781.92	232.77
782.25	232.78
782.57	232.67
782.89	232.66
783.22	232.66
783.54	232.69
783.86	232.61
784.19	232.57
784.51	232.64
784.83	232.64
785.16	232.54
785.48	232.54
785.80	232.52
786.12	232.55
786.45	232.52
786.77	232.62
787.09	232.60
787.42	232.57
787.74	232.52
788.06	232.54
788.38	232.47
788.71	232.43
789.03	232.42
789.35	232.48
789.67	232.41
789.99	232.33
790.32	232.27
790.64	232.37
790.96	232.47
791.28	232.30
791.61	232.19
791.93	232.26
792.25	232.23
792.57	232.34
792.89	232.30
793.21	232.27
793.54	232.21
793.86	232.20
794.18	232.18
794.50	232.11
794.82	232.04
795.14	232.08
795.47	232.13
795.79	232.03
796.11	231.86
796.43	231.85
796.75	231.83
797.07	231.78
797.39	231.69
797.71	231.69
798.04	231.70
798.36	231.72
798.68	231.70
799.00	231.64
799.32	231.48
799.64	231.53
799.96	231.42
800.28	231.42
800.60	231.40
800.92	231.36
801.24	231.38
801.56	231.48
801.89	231.43
802.21	231.37
802.53	231.37
802.85	231.32
803.17	231.40
803.49	231.37
803.81	231.42
804.13	231.36
804.45	231.26
804.77	231.21
805.09	231.29
805.41	231.25
805.73	231.20
806.05	231.14
806.37	231.13
806.69	231.11
807.01	231.09
807.33	231.01
807.65	230.87
807.97	230.87
808.28	230.79
808.60	230.70
808.92	230.68
809.24	230.70
809.56	230.79
809.88	230.64
810.20	230.57
810.52	230.59
810.84	230.51
811.16	230.42
811.48	230.34
811.80	230.30
812.12	230.13
812.43	230.13
812.75	230.13
813.07	230.07
813.39	230.05
813.71	229.90
814.03	229.88
814.35	229.91
814.67	229.81
814.98	229.76
815.30	229.79
815.62	229.65
815.94	229.63
816.26	229.65
816.58	229.59
816.89	229.62
817.21	229.39
817.53	229.39
817.85	229.41
818.17	229.47
818.48	229.32
818.80	229.51
819.12	229.46
819.44	229.40
819.76	229.31
820.07	229.40
820.39	229.44
820.71	229.45
821.03	229.43
821.34	229.38
821.66	229.36
821.98	229.46
822.30	229.49
822.61	229.59
822.93	229.50
823.25	229.51
823.57	229.49
823.88	229.67
824.20	229.70
824.52	229.68
824.83	229.60
825.15	229.64
825.47	229.48
825.79	229.49
826.10	229.50
826.42	229.46
826.74	229.40
827.05	229.32
827.37	229.28
827.69	229.38
828.00	229.47
828.32	229.52
828.64	229.43
828.95	229.67
829.27	229.51
829.58	229.54
829.90	229.64
830.22	229.70
830.53	229.64
830.85	229.61
831.17	229.50
831.48	229.53
831.80	229.54
832.11	229.65
832.43	229.69
832.75	229.67
833.06	229.86
833.38	229.85
833.69	229.98
834.01	229.99
834.32	229.92
834.64	229.87
834.96	229.77
835.27	229.70
835.59	229.51
835.90	229.57
836.22	229.59
836.53	229.58
836.85	229.50
837.16	229.72
837.48	229.72
837.79	229.93
838.11	229.94
838.42	229.98
838.74	229.91
839.05	229.90
839.37	230.02
839.68	229.85
840.00	229.82
840.31	229.75
840.63	229.67
840.94	229.65
841.26	229.66
841.57	229.74
841.88	229.74
842.20	229.67
842.51	229.53
842.83	229.42
843.14	229.51
843.46	229.46
843.77	229.26
844.08	229.14
844.40	228.98
844.71	228.93
845.03	228.81
845.34	228.91
845.65	228.86
845.97	228.76
846.28	228.79
846.60	228.80
846.91	228.70
847.22	228.80
847.54	228.85
847.85	228.82
848.16	228.68
848.48	228.69
848.79	228.79
849.10	228.85
849.42	228.86
849.73	228.69
850.04	228.66
850.36	228.62
850.67	228.69
850.98	228.65
851.30	228.64
851.61	228.62
851.92	228.48
852.23	228.50
852.55	228.53
852.86	228.54
853.17	228.49
853.49	228.61
853.80	228.57
854.11	228.45
854.42	228.41
854.74	228.38
855.05	228.38
855.36	228.30
855.67	228.30
855.99	228.33
856.30	228.50
856.61	228.46
856.92	228.40
857.23	228.31
857.55	228.29
857.86	228.29
858.17	228.31
858.48	228.37
858.79	228.34
859.11	228.32
859.42	228.36
859.73	228.31
860.04	228.23
860.35	228.25
860.66	228.23
860.98	228.27
861.29	228.40
861.60	228.31
861.91	228.26
862.22	228.25
862.53	228.21
862.84	227.97
863.16	228.11
863.47	228.07
863.78	228.13
864.09	228.23
864.40	228.34
864.71	228.41
865.02	228.43
865.33	228.32
865.64	228.23
865.95	228.18
866.27	228.36
866.58	228.43
866.89	228.48
867.20	228.50
867.51	228.48
867.82	228.55
868.13	228.59
868.44	228.65
868.75	228.67
869.06	228.73
869.37	228.80
869.68	228.83
869.99	228.99
870.30	229.01
870.61	229.12
870.92	229.10
871.23	229.10
871.54	229.14
871.85	229.31
872.16	229.45
872.47	229.51
872.78	229.51
873.09	229.56
873.40	229.46
873.71	229.59
874.02	229.61
874.33	229.62
874.64	229.70
874.95	229.80
875.26	229.84
875.56	229.81
875.87	229.83
876.18	229.72
876.49	229.86
876.80	229.94
877.11	229.85
877.42	229.84
877.73	229.90
878.04	229.78
878.35	229.69
878.66	229.82
878.96	229.77
879.27	229.64
879.58	229.58
879.89	229.62
880.20	229.61
880.51	229.53
880.82	229.40
881.12	229.41
881.43	229.28
881.74	229.19
882.05	229.12
882.36	229.09
882.67	229.15
882.97	228.90
883.28	228.85
883.59	228.70
883.90	228.67
884.21	228.63
884.51	228.57
884.82	228.52
885.13	228.28
885.44	228.24
885.74	228.22
886.05	228.20
886.36	228.20
886.67	228.14
886.98	228.25
887.28	228.24
887.59	228.19
887.90	228.16
888.20	228.09
888.51	228.19
888.82	228.16
889.13	228.19
889.43	228.30
889.74	228.20
890.05	228.18
890.35	228.16
890.66	228.07
890.97	228.16
891.28	228.17
891.58	228.21
891.89	228.25
892.20	228.21
892.50	228.17
892.81	228.03
893.12	228.02
893.42	227.88
893.73	227.93
894.04	228.00
894.34	228.01
894.65	228.02
894.95	227.86
895.26	227.77
895.57	227.75
895.87	227.70
896.18	227.79
896.48	227.83
896.79	227.78
897.10	227.84
897.40	227.84
897.71	227.83
898.01	227.74
898.32	227.68
898.63	227.80
898.93	227.80
899.24	227.83
899.54	227.69
899.85	227.72
900.15	227.76
900.46	227.70
900.76	227.73
901.07	227.70
901.38	227.77
901.68	227.87
901.99	227.88
902.29	227.80
902.60	227.85
902.90	227.78
903.21	227.90
903.51	227.87
903.82	227.97
904.12	228.05
904.43	228.23
904.73	228.31
905.03	228.32
905.34	228.54
905.64	228.72
905.95	228.91
906.25	228.95
906.56	228.93
906.86	228.86
907.17	228.95
907.47	229.03
907.77	229.10
908.08	229.16
908.38	229.21
908.69	229.28
908.99	229.26
909.30	229.48
909.60	229.50
909.90	229.48
910.21	229.45
910.51	229.39
910.81	229.30
911.12	229.33
911.42	229.26
911.73	229.10
912.03	229.04
912.33	229.04
912.64	229.05
912.94	229.07
913.24	229.16
913.55	229.07
913.85	229.09
914.15	229.14
914.46	229.16
914.76	229.11
915.06	229.08
915.37	229.03
915.67	228.95
915.97	228.90
916.27	229.01
916.58	229.00
916.88	229.07
917.18	229.06
917.49	229.25
917.79	229.21
918.09	229.21
918.39	229.24
918.70	229.13
919.00	229.09
919.30	229.20
919.60	229.15
919.91	229.16
920.21	229.12
920.51	228.99
920.81	228.96
921.12	228.94
921.42	228.93
921.72	228.93
922.02	228.90
922.32	228.90
922.63	228.86
922.93	228.80
923.23	228.77
923.53	228.71
923.83	228.42
924.13	228.40
924.44	228.34
924.74	228.39
925.04	228.41
925.34	228.32
925.64	228.17
925.94	228.10
926.24	228.19
926.55	228.10
926.85	228.12
927.15	228.03
927.45	228.04
927.75	228.05
928.05	228.10
928.35	228.09
928.65	228.03
928.95	228.05
929.26	227.99
929.56	227.97
929.86	228.01
930.16	227.96
930.46	227.98
930.76	227.95
931.06	227.84
931.36	227.79
931.66	227.83
931.96	227.84
932.26	227.92
932.56	227.71
932.86	227.82
933.16	227.82
933.46	227.83
933.76	227.69
934.06	227.67
934.36	227.66
934.66	227.64
934.96	227.62
935.26	227.55
935.56	227.78
935.86	227.82
936.16	227.81
936.46	227.85
936.76	227.88
937.06	227.85
937.36	227.87
937.66	227.88
937.96	228.07
938.26	228.01
938.56	228.00
938.86	228.10
939.16	228.21
939.46	228.27
939.76	228.32
940.06	228.53
940.35	228.53
940.65	228.44
940.95	228.56
941.25	228.62
941.55	228.63
941.85	228.60
942.15	228.62
942.45	228.68
942.75	228.82
943.04	228.93
943.34	229.10
943.64	229.07
943.94	229.16
944.24	229.11
944.54	229.13
944.84	229.11
945.13	229.15
945.43	229.08
945.73	229.03
946.03	229.04
946.33	228.93
946.62	228.94
946.92	229.06
947.22	229.00
947.52	229.05
947.82	229.10
948.11	229.03
948.41	228.95
948.71	228.98
949.01	228.89
949.31	228.79
949.60	228.70
949.90	228.71
950.20	228.69
950.50	228.70
950.79	228.77
951.09	228.87
951.39	228.80
951.69	228.75
951.98	228.84
952.28	228.85
952.58	228.81
952.87	228.81
953.17	228.74
953.47	228.74
953.76	228.66
954.06	228.64
954.36	228.54
954.66	228.55
954.95	228.57
955.25	228.57
955.55	228.57
955.84	228.56
956.14	228.68
956.44	228.70
956.73	228.62
957.03	228.52
957.32	228.50
957.62	228.58
957.92	228.58
958.21	228.50
958.51	228.71
958.81	228.79
959.10	228.87
959.40	228.99
959.69	229.00
959.99	228.99
960.29	228.95
960.58	229.01
960.88	229.02
961.17	228.95
961.47	229.02
961.76	229.01
962.06	229.09
962.36	229.01
962.65	228.88
962.95	228.92
963.24	228.84
963.54	228.80
963.83	228.76
964.13	228.80
964.42	228.84
964.72	228.64
965.01	228.55
965.31	228.48
965.60	228.28
965.90	228.37
966.19	228.35
966.49	228.37
966.78	228.28
967.08	228.22
967.37	228.20
967.67	228.02
967.96	228.03
968.26	227.96
968.55	228.01
968.85	228.15
969.14	228.03
969.43	228.09
969.73	228.12
970.02	228.13
970.32	228.10
970.61	228.04
970.91	227.97
971.20	227.98
971.49	227.96
971.79	228.04
972.08	227.88
972.38	228.00
972.67	227.99
972.96	228.07
973.26	228.02
973.55	228.04
973.85	228.17
974.14	228.10
974.43	228.06
974.73	228.01
975.02	227.90
975.31	227.97
975.61	227.94
975.90	227.93
976.19	228.01
976.49	227.90
976.78	227.85
977.07	227.86
977.37	227.83
977.66	227.80
977.95	227.70
978.24	227.77
978.54	227.64
978.83	227.61
979.12	227.59
979.42	227.63
979.71	227.75
980.00	227.70
980.29	227.66
980.59	227.66
980.88	227.63
981.17	227.73
981.46	227.67
981.76	227.72
982.05	227.78
982.34	227.71
982.63	227.89
982.93	227.90
983.22	228.03
983.51	228.12
983.80	228.20
984.09	228.34
984.39	228.32
984.68	228.34
984.97	228.34
985.26	228.31
985.55	228.37
985.85	228.22
986.14	228.25
986.43	228.36
986.72	228.43
987.01	228.36
987.30	228.29
987.59	228.31
987.89	228.36
988.18	228.22
988.47	228.21
988.76	228.07
989.05	228.17
989.34	228.09
989.63	228.07
989.92	228.12
990.22	228.05
990.51	228.12
990.80	228.19
991.09	228.24
991.38	228.27
991.67	228.21
991.96	228.34
992.25	228.43
992.54	228.44
992.83	228.41
993.12	228.42
993.41	228.49
993.70	228.51
993.99	228.53
994.28	228.56
994.58	228.54
994.87	228.50
995.16	228.37
995.45	228.30
995.74	228.27
996.03	228.22
996.32	228.24
996.61	228.10
996.90	227.96
997.19	227.95
997.48	227.98
997.77	228.00
998.06	227.88
998.34	227.74
998.63	227.64
998.92	227.64
999.21	227.70
999.50	227.69
999.79	227.68
1000.08	227.70
1000.37	227.66
1000.66	227.61
1000.95	227.68
1001.24	227.73
1001.53	227.73
1001.82	227.74
1002.11	227.64
1002.40	227.64
1002.68	227.79
1002.97	227.89
1003.26	227.79
1003.55	227.74
1003.84	227.72
1004.13	227.73
1004.42	227.68
1004.71	227.62
1004.99	227.53
1005.28	227.59
1005.57	227.48
1005.86	227.42
1006.15	227.40
1006.44	227.49
1006.72	227.46
1007.01	227.47
1007.30	227.37
1007.59	227.40
1007.88	227.41
1008.17	227.46
1008.45	227.39
1008.74	227.28
1009.03	227.25
1009.32	227.26
1009.60	227.26
1009.89	227.23
1010.18	227.15
1010.47	227.23
1010.76	227.33
1011.04	227.40
1011.33	227.32
1011.62	227.42
1011.91	227.55
1012.19	227.59
1012.48	227.51
1012.77	227.59
1013.05	227.72
1013.34	227.93
1013.63	228.00
1013.92	228.00
1014.20	227.99
1014.49	228.07
1014.78	228.05
1015.06	228.04
1015.35	228.10
1015.64	228.17
1015.92	228.21
1016.21	228.39
1016.50	228.40
1016.78	228.50
1017.07	228.44
1017.36	228.40
1017.64	228.41
1017.93	228.36
1018.22	228.31
1018.50	228.33
1018.79	228.45
1019.08	228.41
1019.36	228.23
1019.65	228.20
1019.93	228.24
1020.22	228.35
1020.51	228.44
1020.79	228.52
1021.08	228.60
1021.36	227.20
1021.65	230.80
1021.94	229.10
1022.22	226.60
1022.51	228.50
1022.79	229.40
1023.08	229.40
1023.36	230.20
1023.65	228.80
>>>>>End Processed Spectral Data<<<<<
