SpectraSuite Data File
++++++++++++++++++++++++++++++++++++
Date: Fri Feb 01 14:35:10 EST 2013
User: group
Dark Spectrum Present: No
Reference Spectrum Present: No
Number of Sampled Component Spectra: 1
Spectrometers: USB2E7196
Integration Time (usec): 70000 (USB2E7196)
Spectra Averaged: 10 (USB2E7196)
Boxcar Smoothing: 10 (USB2E7196)
Correct for Electrical Dark: No (USB2E7196)
Strobe/Lamp Enabled: No (USB2E7196)
Correct for Detector Non-linearity: No (USB2E7196)
Correct for Stray Light: No (USB2E7196)
Number of Pixels in Processed Spectrum: 2048
>>>>>Begin Processed Spectral Data<<<<<
339.09	0.00
339.48	215.70
339.86	217.10
340.24	217.90
340.63	219.40
341.01	223.00
341.39	223.90
341.78	222.60
342.16	226.50
342.54	225.90
342.93	214.09
343.31	224.91
343.69	225.43
344.07	225.80
344.46	226.25
344.84	226.65
345.22	226.82
345.60	227.02
345.99	227.32
346.37	227.42
346.75	227.44
347.13	227.48
347.52	227.68
347.90	227.88
348.28	227.93
348.66	228.03
349.05	228.00
349.43	227.95
349.81	227.84
350.19	227.90
350.57	227.99
350.96	228.02
351.34	228.14
351.72	228.27
352.10	228.42
352.48	228.45
352.87	228.42
353.25	228.52
353.63	228.62
354.01	228.63
354.39	228.59
354.77	228.77
355.15	228.99
355.54	228.97
355.92	228.92
356.30	229.00
356.68	229.13
357.06	229.23
357.44	229.31
357.82	229.43
358.20	229.57
358.58	229.61
358.97	229.76
359.35	229.79
359.73	229.91
360.11	229.96
360.49	230.10
360.87	230.18
361.25	230.27
361.63	230.33
362.01	230.40
362.39	230.47
362.77	230.34
363.15	230.32
363.53	230.38
363.91	230.39
364.29	230.39
364.67	230.30
365.05	230.40
365.43	230.45
365.81	230.59
366.19	230.71
366.57	230.70
366.95	230.70
367.33	230.73
367.71	230.75
368.09	230.91
368.47	230.83
368.85	230.83
369.23	230.83
369.61	230.70
369.99	230.82
370.37	230.95
370.75	231.11
371.13	231.00
371.51	231.01
371.89	231.07
372.27	231.01
372.65	231.00
373.03	230.86
373.41	230.84
373.78	230.73
374.16	230.55
374.54	230.60
374.92	230.48
375.30	230.39
375.68	230.20
376.06	230.04
376.44	230.05
376.82	230.09
377.19	230.04
377.57	230.06
377.95	229.82
378.33	229.72
378.71	229.52
379.09	229.58
379.47	229.60
379.84	229.46
380.22	229.38
380.60	229.22
380.98	229.08
381.36	228.99
381.73	228.89
382.11	228.86
382.49	228.74
382.87	228.63
383.25	228.54
383.62	228.70
384.00	228.64
384.38	228.66
384.76	228.56
385.13	228.50
385.51	228.39
385.89	228.43
386.27	228.37
386.64	228.47
387.02	228.40
387.40	228.22
387.78	228.25
388.15	228.23
388.53	228.10
388.91	228.10
389.29	228.04
389.66	228.05
390.04	227.99
390.42	228.01
390.79	228.11
391.17	228.08
391.55	227.86
391.92	227.80
392.30	227.77
392.68	227.71
393.05	227.76
393.43	227.73
393.81	227.70
394.18	227.59
394.56	227.55
394.94	227.53
395.31	227.50
395.69	227.45
396.06	227.45
396.44	227.54
396.82	227.57
397.19	227.68
397.57	227.76
397.95	227.80
398.32	227.78
398.70	227.74
399.07	227.86
399.45	227.90
399.82	228.02
400.20	228.07
400.58	228.28
400.95	228.37
401.33	228.57
401.70	228.73
402.08	228.98
402.45	229.05
402.83	229.29
403.20	229.46
403.58	229.60
403.95	229.86
404.33	230.09
404.71	230.41
405.08	230.77
405.46	230.93
405.83	231.31
406.21	231.65
406.58	231.95
406.96	232.37
407.33	232.82
407.70	233.33
408.08	233.83
408.45	234.21
408.83	234.74
409.20	235.26
409.58	235.81
409.95	236.43
410.33	237.18
410.70	237.69
411.08	238.47
411.45	239.33
411.82	240.17
412.20	241.06
412.57	242.17
412.95	242.90
413.32	243.98
413.69	245.03
414.07	246.08
414.44	247.33
414.82	248.64
415.19	250.09
415.56	251.48
415.94	253.03
416.31	254.82
416.68	256.56
417.06	258.54
417.43	260.46
417.81	262.66
418.18	264.81
418.55	267.32
418.93	269.87
419.30	272.55
419.67	275.26
420.04	277.99
420.42	280.78
420.79	284.27
421.16	287.63
421.54	291.03
421.91	294.57
422.28	298.40
422.66	302.23
423.03	306.05
423.40	310.09
423.77	314.32
424.15	318.62
424.52	322.98
424.89	327.65
425.26	332.27
425.64	336.70
426.01	341.48
426.38	346.61
426.75	351.70
427.13	356.84
427.50	362.45
427.87	368.36
428.24	374.05
428.61	379.57
428.99	385.71
429.36	392.42
429.73	399.07
430.10	405.50
430.47	412.07
430.85	419.03
431.22	426.17
431.59	433.80
431.96	441.07
432.33	449.24
432.70	457.19
433.08	466.27
433.45	474.79
433.82	483.61
434.19	492.78
434.56	502.02
434.93	510.95
435.30	519.68
435.68	529.37
436.05	539.20
436.42	548.82
436.79	557.44
437.16	567.02
437.53	576.83
437.90	586.52
438.27	596.09
438.64	605.86
439.01	615.15
439.38	623.64
439.75	631.69
440.13	640.82
440.50	649.62
440.87	657.01
441.24	664.45
441.61	672.64
441.98	679.01
442.35	686.34
442.72	693.80
443.09	701.23
443.46	706.12
443.83	709.20
444.20	712.21
444.57	716.41
444.94	718.44
445.31	720.93
445.68	723.50
446.05	725.36
446.42	725.56
446.79	725.40
447.16	725.19
447.53	725.61
447.90	723.13
448.27	720.62
448.64	716.33
449.01	714.23
449.37	708.68
449.74	703.47
450.11	696.84
450.48	689.59
450.85	681.94
451.22	675.54
451.59	669.78
451.96	664.22
452.33	656.17
452.70	649.23
453.07	640.58
453.43	631.73
453.80	623.10
454.17	614.81
454.54	607.01
454.91	598.33
455.28	589.77
455.65	581.98
456.02	573.84
456.38	567.20
456.75	558.15
457.12	551.18
457.49	544.05
457.86	537.29
458.23	531.47
458.59	524.88
458.96	517.93
459.33	512.08
459.70	505.92
460.07	501.22
460.43	495.51
460.80	490.10
461.17	485.16
461.54	480.30
461.91	475.65
462.27	471.00
462.64	466.94
463.01	462.40
463.38	457.92
463.74	453.53
464.11	449.79
464.48	446.75
464.85	443.03
465.21	440.20
465.58	437.14
465.95	433.40
466.32	430.31
466.68	427.53
467.05	424.56
467.42	421.60
467.78	418.40
468.15	415.47
468.52	413.13
468.88	410.44
469.25	407.68
469.62	405.60
469.98	403.11
470.35	400.77
470.72	398.63
471.08	396.50
471.45	394.75
471.82	392.79
472.18	390.46
472.55	388.96
472.92	387.15
473.28	385.60
473.65	384.00
474.02	382.58
474.38	381.22
474.75	379.88
475.11	378.57
475.48	377.67
475.85	376.76
476.21	376.05
476.58	375.25
476.94	374.53
477.31	373.76
477.67	373.24
478.04	372.79
478.41	372.39
478.77	372.09
479.14	371.42
479.50	371.07
479.87	370.88
480.23	370.71
480.60	370.40
480.96	370.25
481.33	370.25
481.69	370.24
482.06	370.19
482.42	370.06
482.79	370.07
483.15	370.32
483.52	370.73
483.88	371.02
484.25	371.34
484.61	371.81
484.98	372.12
485.34	372.80
485.71	373.50
486.07	374.27
486.44	375.08
486.80	376.28
487.17	377.30
487.53	378.47
487.90	379.66
488.26	381.15
488.62	382.40
488.99	383.69
489.35	385.03
489.72	386.77
490.08	388.47
490.44	390.25
490.81	392.06
491.17	393.93
491.54	396.01
491.90	397.95
492.26	399.98
492.63	402.21
492.99	404.29
493.36	406.54
493.72	408.98
494.08	411.31
494.45	413.68
494.81	416.11
495.17	418.84
495.54	421.41
495.90	424.16
496.26	426.97
496.63	429.96
496.99	433.13
497.35	436.20
497.72	439.37
498.08	442.44
498.44	445.59
498.80	448.80
499.17	451.80
499.53	455.08
499.89	458.38
500.26	461.59
500.62	464.81
500.98	468.14
501.34	471.40
501.71	474.77
502.07	478.21
502.43	481.53
502.79	484.73
503.16	487.98
503.52	491.11
503.88	494.18
504.24	497.54
504.60	500.79
504.97	503.88
505.33	507.15
505.69	510.50
506.05	513.47
506.41	516.43
506.78	519.45
507.14	522.57
507.50	525.74
507.86	528.87
508.22	531.88
508.59	534.56
508.95	537.58
509.31	540.44
509.67	543.24
510.03	546.24
510.39	549.07
510.75	551.85
511.12	554.44
511.48	557.33
511.84	559.67
512.20	562.00
512.56	564.47
512.92	566.76
513.28	568.87
513.64	571.02
514.00	573.06
514.37	575.16
514.73	577.17
515.09	578.96
515.45	580.62
515.81	582.56
516.17	584.49
516.53	586.15
516.89	587.61
517.25	589.03
517.61	590.62
517.97	591.93
518.33	593.25
518.69	594.73
519.05	595.89
519.41	597.46
519.77	599.01
520.13	600.20
520.49	601.43
520.85	602.85
521.21	604.09
521.57	605.60
521.93	606.83
522.29	608.22
522.65	609.45
523.01	610.80
523.37	611.85
523.73	613.09
524.09	614.14
524.45	615.56
524.81	616.82
525.17	617.89
525.53	619.16
525.89	620.43
526.25	621.51
526.61	622.69
526.97	623.86
527.33	625.09
527.68	626.59
528.04	627.91
528.40	629.23
528.76	630.88
529.12	632.24
529.48	633.83
529.84	635.00
530.20	636.77
530.56	638.61
530.91	640.59
531.27	642.68
531.63	644.45
531.99	646.20
532.35	647.87
532.71	649.63
533.07	651.68
533.42	653.86
533.78	656.01
534.14	658.21
534.50	659.99
534.86	662.02
535.21	663.86
535.57	666.03
535.93	668.24
536.29	670.37
536.65	672.88
537.00	674.87
537.36	677.32
537.72	679.73
538.08	681.81
538.44	684.01
538.79	685.99
539.15	688.29
539.51	690.79
539.87	693.55
540.22	696.28
540.58	699.00
540.94	701.61
541.29	704.28
541.65	706.93
542.01	710.13
542.37	712.95
542.72	715.90
543.08	718.78
543.44	721.80
543.79	724.48
544.15	727.33
544.51	730.81
544.87	734.25
545.22	737.25
545.58	740.18
545.94	742.93
546.29	746.31
546.65	749.20
547.01	752.08
547.36	755.21
547.72	758.10
548.07	760.84
548.43	763.63
548.79	766.80
549.14	769.95
549.50	772.86
549.86	775.56
550.21	778.24
550.57	781.49
550.92	784.52
551.28	787.55
551.64	790.55
551.99	793.48
552.35	796.17
552.70	799.15
553.06	802.77
553.41	806.20
553.77	809.00
554.13	812.49
554.48	815.88
554.84	818.74
555.19	821.73
555.55	825.23
555.90	828.34
556.26	831.22
556.61	834.31
556.97	837.24
557.32	840.63
557.68	844.01
558.03	846.82
558.39	849.64
558.74	853.36
559.10	856.23
559.45	859.34
559.81	862.74
560.16	865.60
560.52	868.28
560.87	871.07
561.23	874.06
561.58	877.25
561.94	879.88
562.29	882.56
562.64	885.35
563.00	887.82
563.35	890.90
563.71	893.72
564.06	896.45
564.42	899.15
564.77	901.77
565.12	904.40
565.48	907.22
565.83	909.73
566.19	911.86
566.54	914.44
566.89	916.61
567.25	918.90
567.60	921.31
567.96	923.84
568.31	926.39
568.66	928.53
569.02	930.41
569.37	932.66
569.72	935.10
570.08	937.19
570.43	939.15
570.78	940.76
571.14	942.53
571.49	944.30
571.84	946.26
572.20	947.80
572.55	949.18
572.90	950.47
573.26	951.91
573.61	953.20
573.96	954.14
574.31	955.11
574.67	955.67
575.02	956.32
575.37	956.95
575.72	957.04
576.08	957.74
576.43	958.21
576.78	958.69
577.13	958.97
577.49	959.56
577.84	960.24
578.19	960.72
578.54	960.89
578.90	961.11
579.25	960.99
579.60	961.06
579.95	961.15
580.30	960.70
580.66	960.57
581.01	960.43
581.36	960.53
581.71	960.49
582.06	960.10
582.42	959.91
582.77	959.27
583.12	959.20
583.47	958.55
583.82	958.27
584.17	957.75
584.53	957.41
584.88	956.83
585.23	955.88
585.58	954.99
585.93	954.53
586.28	953.77
586.63	953.19
586.98	952.69
587.34	952.00
587.69	951.55
588.04	950.64
588.39	949.70
588.74	948.29
589.09	947.04
589.44	946.07
589.79	945.13
590.14	944.35
590.49	943.20
590.84	942.43
591.19	941.10
591.54	939.55
591.89	937.63
592.25	936.15
592.60	934.41
592.95	932.75
593.30	930.99
593.65	929.14
594.00	927.15
594.35	925.61
594.70	923.30
595.05	921.31
595.40	919.50
595.75	917.37
596.10	915.66
596.45	914.14
596.80	912.67
597.15	910.76
597.50	908.80
597.85	906.77
598.19	904.87
598.54	903.07
598.89	901.21
599.24	899.82
599.59	897.62
599.94	895.92
600.29	894.05
600.64	891.96
600.99	889.58
601.34	887.73
601.69	885.12
602.04	883.49
602.39	881.42
602.74	879.63
603.08	877.83
603.43	875.95
603.78	873.77
604.13	871.69
604.48	869.57
604.83	867.26
605.18	865.40
605.53	862.71
605.87	859.93
606.22	857.80
606.57	855.29
606.92	853.02
607.27	850.79
607.62	848.59
607.96	846.65
608.31	844.67
608.66	842.22
609.01	839.90
609.36	837.07
609.70	834.15
610.05	830.76
610.40	827.94
610.75	825.29
611.10	822.35
611.44	818.93
611.79	816.04
612.14	813.29
612.49	810.04
612.83	807.17
613.18	804.55
613.53	801.57
613.88	798.33
614.22	795.50
614.57	792.10
614.92	788.91
615.27	785.69
615.61	782.49
615.96	779.14
616.31	776.29
616.65	773.77
617.00	771.10
617.35	768.50
617.70	765.66
618.04	762.35
618.39	759.46
618.74	756.66
619.08	753.35
619.43	750.40
619.78	747.53
620.12	744.46
620.47	741.43
620.82	738.26
621.16	735.50
621.51	732.62
621.85	729.90
622.20	726.78
622.55	723.83
622.89	721.08
623.24	718.50
623.59	715.58
623.93	712.59
624.28	709.98
624.62	707.50
624.97	704.73
625.32	702.12
625.66	699.33
626.01	696.68
626.35	694.00
626.70	691.15
627.04	688.39
627.39	685.73
627.73	682.92
628.08	680.23
628.43	677.23
628.77	674.40
629.12	671.46
629.46	668.90
629.81	665.74
630.15	662.64
630.50	659.71
630.84	656.50
631.19	653.50
631.53	650.35
631.88	647.11
632.22	644.02
632.57	641.03
632.91	638.00
633.26	635.09
633.60	632.22
633.95	629.33
634.29	626.55
634.64	623.87
634.98	621.17
635.32	618.50
635.67	616.02
636.01	613.30
636.36	610.61
636.70	608.12
637.05	605.54
637.39	602.96
637.73	600.44
638.08	598.30
638.42	595.90
638.77	593.50
639.11	590.96
639.45	588.43
639.80	585.87
640.14	583.34
640.49	580.75
640.83	578.31
641.17	575.89
641.52	573.40
641.86	570.76
642.20	568.42
642.55	565.91
642.89	563.43
643.23	560.90
643.58	558.79
643.92	556.20
644.26	553.93
644.61	552.02
644.95	549.75
645.29	546.94
645.64	544.17
645.98	541.76
646.32	539.46
646.66	537.00
647.01	534.67
647.35	532.68
647.69	530.39
648.04	528.20
648.38	525.64
648.72	523.13
649.06	520.86
649.41	518.40
649.75	516.05
650.09	513.65
650.43	511.42
650.78	508.80
651.12	506.25
651.46	503.94
651.80	501.36
652.14	498.80
652.49	496.65
652.83	494.69
653.17	492.29
653.51	489.78
653.85	487.57
654.20	485.27
654.54	482.78
654.88	480.33
655.22	477.93
655.56	475.73
655.90	473.45
656.25	471.40
656.59	468.97
656.93	466.82
657.27	464.72
657.61	462.35
657.95	460.40
658.29	458.34
658.64	456.17
658.98	453.91
659.32	451.94
659.66	449.83
660.00	447.64
660.34	445.70
660.68	443.77
661.02	441.62
661.36	439.77
661.70	437.87
662.05	436.18
662.39	434.29
662.73	432.38
663.07	430.69
663.41	428.71
663.75	426.96
664.09	425.25
664.43	423.31
664.77	421.73
665.11	419.99
665.45	418.29
665.79	416.61
666.13	414.96
666.47	413.17
666.81	411.43
667.15	409.67
667.49	408.01
667.83	406.45
668.17	404.87
668.51	403.12
668.85	401.42
669.19	400.00
669.53	398.45
669.87	396.88
670.21	395.42
670.55	393.85
670.89	392.56
671.23	390.91
671.57	389.53
671.91	388.13
672.25	386.54
672.58	385.23
672.92	383.86
673.26	382.58
673.60	381.27
673.94	379.85
674.28	378.57
674.62	377.20
674.96	375.80
675.30	374.72
675.64	373.53
675.97	372.18
676.31	370.64
676.65	369.34
676.99	368.28
677.33	366.87
677.67	365.71
678.01	364.21
678.34	362.88
678.68	361.72
679.02	360.25
679.36	359.09
679.70	357.72
680.04	356.48
680.37	355.21
680.71	353.93
681.05	352.89
681.39	351.77
681.73	350.60
682.06	349.71
682.40	348.49
682.74	347.45
683.08	346.49
683.42	345.43
683.75	344.43
684.09	343.14
684.43	342.06
684.77	341.03
685.10	340.05
685.44	338.96
685.78	337.95
686.12	337.03
686.45	335.97
686.79	335.00
687.13	334.00
687.46	333.01
687.80	332.00
688.14	330.91
688.48	329.84
688.81	328.90
689.15	327.80
689.49	326.70
689.82	325.53
690.16	324.52
690.50	323.52
690.83	322.55
691.17	321.56
691.51	320.72
691.84	319.64
692.18	318.76
692.52	317.92
692.85	316.98
693.19	316.03
693.52	315.16
693.86	314.30
694.20	313.37
694.53	312.32
694.87	311.34
695.21	310.46
695.54	309.61
695.88	308.65
696.21	307.64
696.55	306.79
696.88	305.98
697.22	305.02
697.56	304.31
697.89	303.33
698.23	302.59
698.56	301.76
698.90	301.00
699.23	300.18
699.57	299.40
699.90	298.53
700.24	297.72
700.58	296.91
700.91	296.11
701.25	295.44
701.58	294.85
701.92	294.29
702.25	293.71
702.59	293.00
702.92	292.36
703.26	291.72
703.59	291.10
703.93	290.60
704.26	290.06
704.60	289.26
704.93	288.73
705.26	288.12
705.60	287.52
705.93	286.82
706.27	286.19
706.60	285.72
706.94	285.24
707.27	284.47
707.61	283.87
707.94	283.23
708.27	282.60
708.61	281.93
708.94	281.36
709.28	280.73
709.61	280.19
709.94	279.77
710.28	279.18
710.61	278.71
710.95	277.99
711.28	277.41
711.61	276.83
711.95	276.39
712.28	275.79
712.61	275.19
712.95	274.80
713.28	274.53
713.61	273.89
713.95	273.28
714.28	272.81
714.61	272.33
714.95	271.89
715.28	271.41
715.61	270.92
715.95	270.50
716.28	270.08
716.61	269.66
716.95	269.11
717.28	268.75
717.61	268.20
717.94	267.90
718.28	267.47
718.61	267.05
718.94	266.60
719.27	266.18
719.61	265.74
719.94	265.34
720.27	264.75
720.60	264.34
720.94	264.02
721.27	263.88
721.60	263.55
721.93	263.12
722.27	262.82
722.60	262.56
722.93	262.16
723.26	261.79
723.59	261.36
723.93	260.94
724.26	260.68
724.59	260.38
724.92	259.99
725.25	259.78
725.59	259.65
725.92	259.40
726.25	259.13
726.58	258.87
726.91	258.57
727.24	258.25
727.57	258.05
727.91	257.69
728.24	257.34
728.57	257.16
728.90	256.97
729.23	256.61
729.56	256.46
729.89	256.15
730.22	255.87
730.55	255.66
730.89	255.48
731.22	255.26
731.55	254.90
731.88	254.62
732.21	254.21
732.54	253.84
732.87	253.52
733.20	253.21
733.53	252.94
733.86	252.73
734.19	252.58
734.52	252.29
734.85	252.25
735.18	251.97
735.51	251.58
735.84	251.31
736.17	251.23
736.50	250.84
736.83	250.85
737.16	250.63
737.49	250.39
737.82	250.11
738.15	249.74
738.48	249.67
738.81	249.46
739.14	249.25
739.47	249.11
739.80	248.87
740.13	248.79
740.46	248.52
740.79	248.27
741.12	247.96
741.45	247.67
741.78	247.34
742.11	247.22
742.44	247.05
742.77	246.93
743.10	246.62
743.43	246.38
743.75	246.01
744.08	246.04
744.41	245.90
744.74	245.75
745.07	245.60
745.40	245.39
745.73	245.28
746.06	245.08
746.39	244.91
746.71	244.70
747.04	244.43
747.37	244.27
747.70	244.03
748.03	243.88
748.36	243.81
748.68	243.52
749.01	243.34
749.34	243.17
749.67	242.98
750.00	242.88
750.33	242.89
750.65	242.74
750.98	242.30
751.31	242.19
751.64	242.05
751.97	242.03
752.29	241.85
752.62	241.54
752.95	241.42
753.28	241.22
753.60	241.08
753.93	240.94
754.26	240.82
754.59	240.67
754.91	240.50
755.24	240.36
755.57	240.30
755.90	240.06
756.22	239.84
756.55	239.64
756.88	239.36
757.20	239.09
757.53	238.85
757.86	238.75
758.19	238.61
758.51	238.50
758.84	238.39
759.17	238.32
759.49	238.28
759.82	238.26
760.15	238.14
760.47	238.11
760.80	237.94
761.13	237.95
761.45	237.82
761.78	237.75
762.11	237.62
762.43	237.50
762.76	237.45
763.08	237.44
763.41	237.31
763.74	237.34
764.06	237.27
764.39	237.13
764.71	237.07
765.04	237.00
765.37	236.93
765.69	236.66
766.02	236.55
766.34	236.42
766.67	236.19
767.00	235.99
767.32	235.98
767.65	235.99
767.97	235.82
768.30	235.80
768.62	235.77
768.95	235.71
769.27	235.64
769.60	235.58
769.92	235.52
770.25	235.53
770.57	235.49
770.90	235.40
771.22	235.35
771.55	235.20
771.87	235.05
772.20	234.98
772.52	235.15
772.85	235.26
773.17	235.18
773.50	235.22
773.82	235.22
774.15	235.11
774.47	234.98
774.80	234.94
775.12	234.84
775.45	234.80
775.77	234.80
776.09	234.84
776.42	234.79
776.74	234.81
777.07	234.73
777.39	234.63
777.72	234.57
778.04	234.55
778.36	234.56
778.69	234.46
779.01	234.41
779.33	234.13
779.66	233.90
779.98	233.84
780.31	233.78
780.63	233.85
780.95	233.74
781.28	233.78
781.60	233.64
781.92	233.66
782.25	233.56
782.57	233.40
782.89	233.25
783.22	233.19
783.54	233.00
783.86	232.93
784.19	232.90
784.51	232.95
784.83	232.97
785.16	232.99
785.48	233.02
785.80	232.94
786.12	233.01
786.45	232.95
786.77	232.91
787.09	232.92
787.42	232.86
787.74	232.85
788.06	232.84
788.38	232.83
788.71	232.76
789.03	232.73
789.35	232.77
789.67	232.72
789.99	232.72
790.32	232.70
790.64	232.69
790.96	232.72
791.28	232.58
791.61	232.43
791.93	232.36
792.25	232.26
792.57	232.33
792.89	232.18
793.21	232.12
793.54	232.17
793.86	231.99
794.18	231.83
794.50	231.63
794.82	231.51
795.14	231.48
795.47	231.53
795.79	231.42
796.11	231.40
796.43	231.40
796.75	231.39
797.07	231.37
797.39	231.33
797.71	231.15
798.04	231.05
798.36	231.15
798.68	231.02
799.00	231.06
799.32	231.03
799.64	231.11
799.96	231.13
800.28	231.13
800.60	231.21
800.92	231.30
801.24	231.43
801.56	231.50
801.89	231.57
802.21	231.55
802.53	231.44
802.85	231.46
803.17	231.55
803.49	231.40
803.81	231.31
804.13	231.35
804.45	231.30
804.77	231.43
805.09	231.36
805.41	231.44
805.73	231.41
806.05	231.27
806.37	231.20
806.69	231.25
807.01	231.16
807.33	231.10
807.65	230.98
807.97	230.98
808.28	230.93
808.60	230.91
808.92	230.82
809.24	231.00
809.56	230.95
809.88	230.87
810.20	230.95
810.52	231.07
810.84	231.02
811.16	231.02
811.48	230.91
811.80	231.02
812.12	230.96
812.43	230.95
812.75	230.98
813.07	230.94
813.39	230.99
813.71	231.05
814.03	231.13
814.35	231.15
814.67	231.18
814.98	231.14
815.30	231.06
815.62	231.10
815.94	230.97
816.26	230.97
816.58	230.79
816.89	230.87
817.21	230.84
817.53	230.76
817.85	230.76
818.17	230.71
818.48	230.52
818.80	230.53
819.12	230.46
819.44	230.33
819.76	230.31
820.07	230.26
820.39	230.19
820.71	230.07
821.03	230.05
821.34	229.92
821.66	229.95
821.98	229.97
822.30	229.81
822.61	229.84
822.93	229.77
823.25	229.72
823.57	229.56
823.88	229.44
824.20	229.54
824.52	229.54
824.83	229.54
825.15	229.55
825.47	229.48
825.79	229.46
826.10	229.50
826.42	229.52
826.74	229.45
827.05	229.36
827.37	229.35
827.69	229.31
828.00	229.28
828.32	229.22
828.64	229.22
828.95	229.28
829.27	229.26
829.58	229.29
829.90	229.38
830.22	229.39
830.53	229.40
830.85	229.27
831.17	229.18
831.48	229.16
831.80	229.11
832.11	229.02
832.43	228.93
832.75	228.95
833.06	228.91
833.38	228.86
833.69	228.84
834.01	228.82
834.32	228.78
834.64	228.80
834.96	228.77
835.27	228.60
835.59	228.54
835.90	228.47
836.22	228.47
836.53	228.43
836.85	228.37
837.16	228.56
837.48	228.61
837.79	228.69
838.11	228.71
838.42	228.70
838.74	228.74
839.05	228.75
839.37	228.71
839.68	228.69
840.00	228.67
840.31	228.75
840.63	228.71
840.94	228.73
841.26	228.60
841.57	228.56
841.88	228.72
842.20	228.66
842.51	228.65
842.83	228.54
843.14	228.70
843.46	228.71
843.77	228.56
844.08	228.51
844.40	228.34
844.71	228.32
845.03	228.23
845.34	228.24
845.65	228.27
845.97	228.27
846.28	228.19
846.60	228.19
846.91	228.15
847.22	228.19
847.54	228.30
847.85	228.37
848.16	228.40
848.48	228.36
848.79	228.54
849.10	228.60
849.42	228.70
849.73	228.54
850.04	228.53
850.36	228.50
850.67	228.46
850.98	228.60
851.30	228.71
851.61	228.80
851.92	228.72
852.23	228.78
852.55	228.82
852.86	228.93
853.17	228.88
853.49	228.91
853.80	228.92
854.11	228.80
854.42	228.80
854.74	228.85
855.05	228.81
855.36	228.78
855.67	228.68
855.99	228.70
856.30	228.99
856.61	229.02
856.92	229.06
857.23	229.07
857.55	229.05
857.86	228.99
858.17	229.05
858.48	229.14
858.79	229.16
859.11	229.22
859.42	229.14
859.73	229.10
860.04	229.10
860.35	229.09
860.66	229.22
860.98	229.27
861.29	229.31
861.60	229.30
861.91	229.20
862.22	229.20
862.53	229.06
862.84	228.77
863.16	228.87
863.47	228.83
863.78	228.85
864.09	228.82
864.40	228.80
864.71	228.77
865.02	228.80
865.33	228.85
865.64	228.67
865.95	228.68
866.27	228.88
866.58	228.81
866.89	228.74
867.20	228.68
867.51	228.53
867.82	228.40
868.13	228.50
868.44	228.55
868.75	228.58
869.06	228.70
869.37	228.79
869.68	228.59
869.99	228.56
870.30	228.48
870.61	228.55
870.92	228.45
871.23	228.49
871.54	228.39
871.85	228.29
872.16	228.39
872.47	228.41
872.78	228.20
873.09	228.12
873.40	228.20
873.71	228.26
874.02	228.41
874.33	228.47
874.64	228.33
874.95	228.30
875.26	228.33
875.56	228.25
875.87	228.17
876.18	228.16
876.49	228.36
876.80	228.40
877.11	228.40
877.42	228.53
877.73	228.50
878.04	228.62
878.35	228.66
878.66	228.64
878.96	228.70
879.27	228.74
879.58	228.83
879.89	228.86
880.20	228.71
880.51	228.70
880.82	228.68
881.12	228.70
881.43	228.76
881.74	228.77
882.05	228.68
882.36	228.67
882.67	228.74
882.97	228.61
883.28	228.63
883.59	228.60
883.90	228.57
884.21	228.53
884.51	228.50
884.82	228.49
885.13	228.49
885.44	228.46
885.74	228.54
886.05	228.64
886.36	228.53
886.67	228.55
886.98	228.63
887.28	228.68
887.59	228.69
887.90	228.71
888.20	228.79
888.51	228.93
888.82	228.93
889.13	228.98
889.43	229.06
889.74	229.06
890.05	229.10
890.35	229.09
890.66	229.08
890.97	229.09
891.28	229.05
891.58	229.10
891.89	229.12
892.20	229.12
892.50	229.00
892.81	229.07
893.12	228.99
893.42	228.82
893.73	228.79
894.04	228.81
894.34	228.80
894.65	228.74
894.95	228.72
895.26	228.74
895.57	228.93
895.87	228.76
896.18	228.83
896.48	228.80
896.79	228.78
897.10	228.85
897.40	228.87
897.71	228.84
898.01	228.82
898.32	228.79
898.63	228.74
898.93	228.73
899.24	228.73
899.54	228.81
899.85	228.87
900.15	228.84
900.46	228.93
900.76	228.88
901.07	228.82
901.38	228.80
901.68	228.81
901.99	228.58
902.29	228.56
902.60	228.48
902.90	228.40
903.21	228.41
903.51	228.28
903.82	228.30
904.12	228.36
904.43	228.29
904.73	228.32
905.03	228.30
905.34	228.43
905.64	228.37
905.95	228.32
906.25	228.24
906.56	228.25
906.86	228.17
907.17	228.10
907.47	228.16
907.77	228.08
908.08	228.00
908.38	228.00
908.69	228.10
908.99	228.13
909.30	228.15
909.60	228.11
909.90	228.19
910.21	228.09
910.51	228.05
910.81	228.02
911.12	227.95
911.42	227.97
911.73	227.72
912.03	227.73
912.33	227.86
912.64	227.84
912.94	227.79
913.24	227.74
913.55	227.68
913.85	227.67
914.15	227.69
914.46	227.72
914.76	227.70
915.06	227.62
915.37	227.51
915.67	227.50
915.97	227.52
916.27	227.53
916.58	227.54
916.88	227.56
917.18	227.59
917.49	227.73
917.79	227.80
918.09	227.88
918.39	227.93
918.70	227.87
919.00	227.97
919.30	228.09
919.60	228.12
919.91	228.25
920.21	228.23
920.51	228.30
920.81	228.32
921.12	228.39
921.42	228.43
921.72	228.58
922.02	228.61
922.32	228.70
922.63	228.67
922.93	228.74
923.23	228.75
923.53	228.72
923.83	228.64
924.13	228.66
924.44	228.79
924.74	228.88
925.04	228.92
925.34	228.89
925.64	228.80
925.94	228.83
926.24	228.87
926.55	228.94
926.85	228.89
927.15	228.90
927.45	228.87
927.75	228.88
928.05	228.83
928.35	228.88
928.65	228.98
928.95	229.00
929.26	228.96
929.56	229.03
929.86	229.02
930.16	228.96
930.46	228.87
930.76	228.71
931.06	228.70
931.36	228.68
931.66	228.76
931.96	228.73
932.26	228.66
932.56	228.60
932.86	228.48
933.16	228.54
933.46	228.58
933.76	228.61
934.06	228.67
934.36	228.75
934.66	228.76
934.96	228.64
935.26	228.67
935.56	228.70
935.86	228.62
936.16	228.70
936.46	228.75
936.76	228.67
937.06	228.69
937.36	228.66
937.66	228.57
937.96	228.54
938.26	228.68
938.56	228.71
938.86	228.66
939.16	228.76
939.46	228.80
939.76	228.77
940.06	228.79
940.35	228.74
940.65	228.74
940.95	228.70
941.25	228.60
941.55	228.60
941.85	228.55
942.15	228.59
942.45	228.60
942.75	228.51
943.04	228.52
943.34	228.63
943.64	228.53
943.94	228.51
944.24	228.50
944.54	228.40
944.84	228.38
945.13	228.42
945.43	228.31
945.73	228.25
946.03	228.15
946.33	228.06
946.62	227.92
946.92	227.80
947.22	227.82
947.52	227.87
947.82	227.89
948.11	227.84
948.41	227.74
948.71	227.55
949.01	227.58
949.31	227.62
949.60	227.58
949.90	227.58
950.20	227.51
950.50	227.46
950.79	227.44
951.09	227.48
951.39	227.43
951.69	227.49
951.98	227.49
952.28	227.50
952.58	227.50
952.87	227.65
953.17	227.69
953.47	227.54
953.76	227.50
954.06	227.43
954.36	227.47
954.66	227.43
954.95	227.57
955.25	227.58
955.55	227.54
955.84	227.60
956.14	227.60
956.44	227.67
956.73	227.62
957.03	227.61
957.32	227.59
957.62	227.52
957.92	227.55
958.21	227.49
958.51	227.72
958.81	227.68
959.10	227.61
959.40	227.70
959.69	227.76
959.99	227.73
960.29	227.70
960.58	227.56
960.88	227.67
961.17	227.67
961.47	227.80
961.76	227.75
962.06	227.74
962.36	227.79
962.65	227.78
962.95	227.87
963.24	227.93
963.54	227.98
963.83	228.09
964.13	228.08
964.42	228.23
964.72	228.07
965.01	228.08
965.31	227.99
965.60	228.01
965.90	228.33
966.19	228.44
966.49	228.53
966.78	228.60
967.08	228.65
967.37	228.68
967.67	228.57
967.96	228.74
968.26	228.72
968.55	228.84
968.85	228.92
969.14	228.90
969.43	228.87
969.73	228.90
970.02	228.95
970.32	228.90
970.61	228.82
970.91	228.84
971.20	228.97
971.49	229.09
971.79	229.03
972.08	228.80
972.38	228.86
972.67	228.83
972.96	228.82
973.26	228.74
973.55	228.75
973.85	228.73
974.14	228.66
974.43	228.66
974.73	228.57
975.02	228.47
975.31	228.40
975.61	228.39
975.90	228.23
976.19	228.09
976.49	228.05
976.78	228.02
977.07	227.93
977.37	227.86
977.66	227.80
977.95	227.79
978.24	227.85
978.54	227.78
978.83	227.73
979.12	227.80
979.42	227.76
979.71	227.69
980.00	227.60
980.29	227.69
980.59	227.66
980.88	227.56
981.17	227.56
981.46	227.63
981.76	227.63
982.05	227.80
982.34	227.87
982.63	227.97
982.93	227.98
983.22	228.01
983.51	227.99
983.80	228.10
984.09	228.11
984.39	227.96
984.68	227.89
984.97	227.88
985.26	227.83
985.55	227.92
985.85	227.93
986.14	228.06
986.43	228.04
986.72	227.91
987.01	227.92
987.30	227.97
987.59	228.02
987.89	227.89
988.18	227.80
988.47	227.76
988.76	227.78
989.05	227.69
989.34	227.76
989.63	227.82
989.92	227.78
990.22	227.69
990.51	227.65
990.80	227.64
991.09	227.69
991.38	227.78
991.67	227.68
991.96	227.68
992.25	227.64
992.54	227.60
992.83	227.73
993.12	227.79
993.41	227.83
993.70	227.93
993.99	228.11
994.28	228.21
994.58	228.27
994.87	228.24
995.16	228.34
995.45	228.30
995.74	228.17
996.03	228.22
996.32	228.37
996.61	228.49
996.90	228.51
997.19	228.51
997.48	228.50
997.77	228.57
998.06	228.58
998.34	228.55
998.63	228.55
998.92	228.63
999.21	228.63
999.50	228.55
999.79	228.38
1000.08	228.39
1000.37	228.40
1000.66	228.43
1000.95	228.47
1001.24	228.52
1001.53	228.60
1001.82	228.61
1002.11	228.56
1002.40	228.58
1002.68	228.57
1002.97	228.78
1003.26	228.82
1003.55	228.86
1003.84	228.89
1004.13	228.94
1004.42	229.03
1004.71	229.02
1004.99	228.96
1005.28	229.01
1005.57	229.12
1005.86	229.12
1006.15	229.10
1006.44	228.94
1006.72	228.93
1007.01	228.88
1007.30	228.88
1007.59	228.88
1007.88	229.00
1008.17	229.03
1008.45	228.92
1008.74	228.95
1009.03	228.73
1009.32	228.75
1009.60	228.71
1009.89	228.67
1010.18	228.71
1010.47	228.73
1010.76	228.75
1011.04	228.83
1011.33	228.84
1011.62	228.81
1011.91	228.91
1012.19	228.92
1012.48	228.99
1012.77	228.99
1013.05	229.07
1013.34	229.02
1013.63	228.89
1013.92	228.89
1014.20	228.79
1014.49	228.74
1014.78	228.65
1015.06	228.67
1015.35	228.57
1015.64	228.61
1015.92	228.60
1016.21	228.62
1016.50	228.52
1016.78	228.51
1017.07	228.50
1017.36	228.49
1017.64	228.54
1017.93	228.41
1018.22	228.32
1018.50	228.33
1018.79	228.33
1019.08	228.21
1019.36	228.18
1019.65	228.21
1019.93	228.06
1020.22	228.16
1020.51	228.35
1020.79	228.42
1021.08	226.90
1021.36	228.00
1021.65	228.90
1021.94	227.70
1022.22	228.00
1022.51	227.70
1022.79	226.40
1023.08	228.80
1023.36	231.60
1023.65	228.50
>>>>>End Processed Spectral Data<<<<<
