SpectraSuite Data File
++++++++++++++++++++++++++++++++++++
Date: Fri Feb 01 14:37:39 EST 2013
User: group
Dark Spectrum Present: No
Reference Spectrum Present: No
Number of Sampled Component Spectra: 1
Spectrometers: USB2E7196
Integration Time (usec): 70000 (USB2E7196)
Spectra Averaged: 10 (USB2E7196)
Boxcar Smoothing: 10 (USB2E7196)
Correct for Electrical Dark: No (USB2E7196)
Strobe/Lamp Enabled: No (USB2E7196)
Correct for Detector Non-linearity: No (USB2E7196)
Correct for Stray Light: No (USB2E7196)
Number of Pixels in Processed Spectrum: 2048
>>>>>Begin Processed Spectral Data<<<<<
339.09	0.00
339.48	217.70
339.86	218.20
340.24	218.80
340.63	221.70
341.01	226.80
341.39	221.50
341.78	225.90
342.16	225.30
342.54	225.80
342.93	215.23
343.31	226.07
343.69	226.51
344.07	227.01
344.46	227.43
344.84	227.78
345.22	227.82
345.60	228.17
345.99	228.22
346.37	228.28
346.75	228.32
347.13	228.44
347.52	228.41
347.90	228.51
348.28	228.47
348.66	228.31
349.05	228.20
349.43	228.21
349.81	228.10
350.19	228.03
350.57	228.01
350.96	227.94
351.34	227.98
351.72	228.01
352.10	227.99
352.48	228.01
352.87	227.92
353.25	227.90
353.63	227.91
354.01	227.96
354.39	228.13
354.77	228.25
355.15	228.31
355.54	228.32
355.92	228.38
356.30	228.46
356.68	228.77
357.06	228.75
357.44	228.70
357.82	228.90
358.20	229.06
358.58	229.13
358.97	229.11
359.35	229.17
359.73	229.34
360.11	229.37
360.49	229.39
360.87	229.38
361.25	229.44
361.63	229.54
362.01	229.69
362.39	229.65
362.77	229.68
363.15	229.63
363.53	229.65
363.91	229.58
364.29	229.49
364.67	229.24
365.05	229.30
365.43	229.40
365.81	229.33
366.19	229.35
366.57	229.44
366.95	229.47
367.33	229.50
367.71	229.47
368.09	229.49
368.47	229.55
368.85	229.65
369.23	229.71
369.61	229.60
369.99	229.57
370.37	229.60
370.75	229.65
371.13	229.54
371.51	229.54
371.89	229.39
372.27	229.43
372.65	229.40
373.03	229.36
373.41	229.25
373.78	229.13
374.16	228.95
374.54	228.87
374.92	228.75
375.30	228.64
375.68	228.52
376.06	228.52
376.44	228.40
376.82	228.39
377.19	228.31
377.57	228.20
377.95	228.01
378.33	227.85
378.71	227.74
379.09	227.88
379.47	227.83
379.84	227.82
380.22	227.70
380.60	227.63
380.98	227.64
381.36	227.58
381.73	227.57
382.11	227.69
382.49	227.61
382.87	227.69
383.25	227.56
383.62	227.71
384.00	227.55
384.38	227.45
384.76	227.37
385.13	227.48
385.51	227.51
385.89	227.45
386.27	227.38
386.64	227.28
387.02	227.13
387.40	227.00
387.78	226.97
388.15	227.03
388.53	227.00
388.91	226.91
389.29	226.90
389.66	226.88
390.04	226.70
390.42	226.67
390.79	226.56
391.17	226.59
391.55	226.40
391.92	226.40
392.30	226.50
392.68	226.45
393.05	226.35
393.43	226.32
393.81	226.25
394.18	226.30
394.56	226.26
394.94	226.30
395.31	226.35
395.69	226.40
396.06	226.44
396.44	226.47
396.82	226.49
397.19	226.59
397.57	226.64
397.95	226.73
398.32	226.74
398.70	226.82
399.07	226.93
399.45	226.95
399.82	227.01
400.20	226.96
400.58	227.00
400.95	226.90
401.33	226.98
401.70	227.41
402.08	227.62
402.45	227.81
402.83	227.98
403.20	228.11
403.58	228.30
403.95	228.44
404.33	228.59
404.71	228.77
405.08	228.97
405.46	229.15
405.83	229.32
406.21	229.65
406.58	229.85
406.96	230.05
407.33	230.29
407.70	230.62
408.08	231.16
408.45	231.51
408.83	231.94
409.20	232.28
409.58	232.39
409.95	232.60
410.33	233.02
410.70	233.37
411.08	233.79
411.45	234.19
411.82	234.60
412.20	235.20
412.57	235.78
412.95	236.30
413.32	236.90
413.69	237.53
414.07	238.05
414.44	238.67
414.82	239.47
415.19	240.24
415.56	241.04
415.94	241.80
416.31	242.86
416.68	243.78
417.06	245.00
417.43	246.12
417.81	247.39
418.18	248.56
418.55	249.94
418.93	251.29
419.30	252.71
419.67	254.26
420.04	255.64
420.42	257.34
420.79	259.20
421.16	261.06
421.54	263.07
421.91	265.02
422.28	267.20
422.66	269.19
423.03	271.36
423.40	273.59
423.77	275.86
424.15	278.24
424.52	280.72
424.89	283.33
425.26	285.90
425.64	288.28
426.01	291.01
426.38	293.83
426.75	296.69
427.13	299.58
427.50	302.50
427.87	305.70
428.24	308.85
428.61	311.93
428.99	315.21
429.36	318.78
429.73	322.50
430.10	326.18
430.47	329.81
430.85	333.68
431.22	337.53
431.59	341.86
431.96	345.77
432.33	350.17
432.70	354.41
433.08	359.32
433.45	364.04
433.82	368.72
434.19	373.88
434.56	378.91
434.93	383.74
435.30	388.59
435.68	394.00
436.05	399.11
436.42	404.14
436.79	408.90
437.16	414.02
437.53	419.31
437.90	424.33
438.27	429.68
438.64	434.98
439.01	440.15
439.38	444.63
439.75	448.98
440.13	453.90
440.50	458.49
440.87	462.20
441.24	466.28
441.61	470.63
441.98	473.76
442.35	477.57
442.72	481.60
443.09	485.51
443.46	487.80
443.83	489.52
444.20	491.13
444.57	493.18
444.94	494.21
445.31	495.35
445.68	496.77
446.05	497.47
446.42	497.43
446.79	497.38
447.16	497.00
447.53	496.94
447.90	495.63
448.27	494.28
448.64	492.11
449.01	490.51
449.37	487.45
449.74	484.55
450.11	481.03
450.48	476.84
450.85	472.64
451.22	469.22
451.59	465.97
451.96	462.86
452.33	458.53
452.70	454.63
453.07	449.82
453.43	444.80
453.80	440.11
454.17	435.55
454.54	431.03
454.91	426.36
455.28	421.67
455.65	417.20
456.02	412.88
456.38	409.18
456.75	404.52
457.12	400.63
457.49	396.67
457.86	392.83
458.23	389.75
458.59	386.10
458.96	382.41
459.33	379.09
459.70	375.81
460.07	373.24
460.43	370.27
460.80	367.39
461.17	364.88
461.54	362.14
461.91	359.42
462.27	356.66
462.64	354.37
463.01	352.03
463.38	349.70
463.74	347.17
464.11	345.11
464.48	343.30
464.85	341.20
465.21	339.75
465.58	338.14
465.95	336.20
466.32	334.56
466.68	332.99
467.05	331.37
467.42	329.64
467.78	327.90
468.15	326.17
468.52	324.85
468.88	323.08
469.25	321.64
469.62	320.57
469.98	319.29
470.35	317.98
470.72	316.80
471.08	315.49
471.45	314.38
471.82	313.13
472.18	311.89
472.55	310.99
472.92	309.77
473.28	308.69
473.65	307.60
474.02	306.65
474.38	305.74
474.75	304.87
475.11	303.98
475.48	303.20
475.85	302.52
476.21	301.84
476.58	301.31
476.94	300.81
477.31	300.10
477.67	299.51
478.04	299.10
478.41	298.62
478.77	298.31
479.14	297.76
479.50	297.56
479.87	297.26
480.23	297.00
480.60	296.71
480.96	296.39
481.33	296.24
481.69	296.01
482.06	295.77
482.42	295.61
482.79	295.50
483.15	295.43
483.52	295.49
483.88	295.53
484.25	295.53
484.61	295.50
484.98	295.53
485.34	295.83
485.71	295.97
486.07	295.91
486.44	295.89
486.80	296.07
487.17	296.22
487.53	296.46
487.90	296.76
488.26	297.15
488.62	297.59
488.99	297.87
489.35	298.27
489.72	298.64
490.08	299.08
490.44	299.43
490.81	299.84
491.17	300.19
491.54	300.75
491.90	301.20
492.26	301.71
492.63	302.18
492.99	302.58
493.36	303.18
493.72	303.93
494.08	304.54
494.45	305.23
494.81	305.75
495.17	306.42
495.54	307.00
495.90	307.61
496.26	308.14
496.63	308.87
496.99	309.58
497.35	310.42
497.72	311.09
498.08	311.85
498.44	312.48
498.80	313.27
499.17	313.73
499.53	314.36
499.89	314.94
500.26	315.60
500.62	316.17
500.98	316.83
501.34	317.43
501.71	318.15
502.07	318.74
502.43	319.41
502.79	319.87
503.16	320.38
503.52	320.93
503.88	321.38
504.24	321.81
504.60	322.21
504.97	322.50
505.33	322.79
505.69	323.24
506.05	323.68
506.41	323.86
506.78	324.27
507.14	324.67
507.50	325.05
507.86	325.37
508.22	325.76
508.59	325.81
508.95	326.01
509.31	326.14
509.67	326.30
510.03	326.38
510.39	326.52
510.75	326.76
511.12	326.83
511.48	326.96
511.84	327.03
512.20	327.13
512.56	327.32
512.92	327.52
513.28	327.57
513.64	327.61
514.00	327.76
514.37	327.75
514.73	327.74
515.09	327.78
515.45	327.75
515.81	327.88
516.17	328.09
516.53	328.22
516.89	328.25
517.25	328.51
517.61	328.83
517.97	329.16
518.33	329.39
518.69	329.79
519.05	330.27
519.41	330.67
519.77	331.40
520.13	331.91
520.49	332.48
520.85	333.12
521.21	333.98
521.57	334.65
521.93	335.49
522.29	336.33
522.65	337.11
523.01	338.17
523.37	339.06
523.73	340.00
524.09	341.12
524.45	342.46
524.81	343.50
525.17	344.77
525.53	346.30
525.89	347.75
526.25	349.06
526.61	350.45
526.97	352.12
527.33	353.72
527.68	355.54
528.04	357.37
528.40	359.30
528.76	361.29
529.12	363.50
529.48	365.66
529.84	367.86
530.20	370.41
530.56	372.93
530.91	375.56
531.27	378.34
531.63	380.98
531.99	383.55
532.35	386.38
532.71	389.05
533.07	392.01
533.42	395.28
533.78	398.62
534.14	401.99
534.50	405.23
534.86	408.56
535.21	411.95
535.57	415.64
535.93	419.24
536.29	422.90
536.65	426.55
537.00	430.35
537.36	434.29
537.72	438.31
538.08	442.33
538.44	446.20
538.79	450.34
539.15	454.55
539.51	459.02
539.87	463.59
540.22	468.19
540.58	472.65
540.94	476.79
541.29	481.18
541.65	485.60
542.01	490.30
542.37	494.73
542.72	499.21
543.08	503.75
543.44	508.38
543.79	512.72
544.15	517.58
544.51	522.57
544.87	527.48
545.22	532.11
545.58	536.82
545.94	541.70
546.29	546.49
546.65	551.32
547.01	556.17
547.36	561.03
547.72	565.77
548.07	570.59
548.43	575.49
548.79	580.30
549.14	585.20
549.50	590.06
549.86	595.09
550.21	600.15
550.57	605.10
550.92	610.16
551.28	615.38
551.64	620.21
551.99	625.24
552.35	630.20
552.70	635.13
553.06	640.16
553.41	645.04
553.77	650.01
554.13	654.90
554.48	659.90
554.84	664.67
555.19	669.57
555.55	674.58
555.90	679.32
556.26	684.21
556.61	689.08
556.97	693.88
557.32	698.65
557.68	703.43
558.03	708.22
558.39	712.81
558.74	717.70
559.10	722.42
559.45	727.02
559.81	731.77
560.16	736.38
560.52	740.91
560.87	745.66
561.23	750.11
561.58	754.86
561.94	758.94
562.29	763.16
562.64	767.34
563.00	771.27
563.35	776.07
563.71	780.55
564.06	784.72
564.42	789.06
564.77	793.38
565.12	797.39
565.48	802.00
565.83	805.88
566.19	809.63
566.54	813.39
566.89	816.98
567.25	820.69
567.60	824.69
567.96	828.49
568.31	831.89
568.66	835.48
569.02	838.73
569.37	842.31
569.72	845.90
570.08	849.25
570.43	852.70
570.78	855.47
571.14	858.23
571.49	861.37
571.84	864.34
572.20	867.06
572.55	869.87
572.90	871.91
573.26	874.54
573.61	876.92
573.96	879.76
574.31	881.92
574.67	883.81
575.02	885.46
575.37	887.23
575.72	889.23
576.08	890.87
576.43	892.79
576.78	894.39
577.13	896.11
577.49	898.05
577.84	899.38
578.19	901.00
578.54	902.33
578.90	903.30
579.25	904.07
579.60	905.01
579.95	905.94
580.30	906.66
580.66	907.52
581.01	908.63
581.36	909.27
581.71	910.20
582.06	911.17
582.42	911.85
582.77	912.41
583.12	912.88
583.47	913.72
583.82	914.13
584.17	914.79
584.53	915.29
584.88	915.54
585.23	916.00
585.58	916.20
585.93	916.61
586.28	917.20
586.63	917.80
586.98	918.11
587.34	918.36
587.69	918.60
588.04	918.73
588.39	918.50
588.74	917.77
589.09	917.66
589.44	916.96
589.79	916.70
590.14	916.66
590.49	916.34
590.84	915.69
591.19	915.10
591.54	914.04
591.89	912.81
592.25	912.29
592.60	911.49
592.95	910.46
593.30	909.66
593.65	908.60
594.00	907.24
594.35	906.39
594.70	905.01
595.05	904.00
595.40	902.73
595.75	901.59
596.10	900.76
596.45	899.69
596.80	899.09
597.15	898.45
597.50	897.40
597.85	896.26
598.19	895.33
598.54	894.42
598.89	893.74
599.24	893.05
599.59	891.68
599.94	890.55
600.29	889.34
600.64	887.85
600.99	886.40
601.34	885.21
601.69	883.54
602.04	882.37
602.39	881.06
602.74	880.03
603.08	878.95
603.43	877.88
603.78	876.40
604.13	874.94
604.48	872.97
604.83	871.42
605.18	869.89
605.53	868.18
605.87	866.03
606.22	864.35
606.57	862.42
606.92	860.56
607.27	858.60
607.62	856.93
607.96	855.47
608.31	853.85
608.66	851.94
609.01	849.84
609.36	847.56
609.70	845.09
610.05	842.59
610.40	840.24
610.75	837.69
611.10	835.30
611.44	832.59
611.79	830.41
612.14	827.73
612.49	824.90
612.83	822.16
613.18	819.73
613.53	816.79
613.88	814.00
614.22	811.09
614.57	808.40
614.92	805.55
615.27	802.65
615.61	799.65
615.96	796.84
616.31	794.43
616.65	792.35
617.00	789.98
617.35	787.50
617.70	784.64
618.04	781.82
618.39	779.17
618.74	776.63
619.08	773.75
619.43	771.06
619.78	768.60
620.12	765.99
620.47	763.31
620.82	760.63
621.16	758.18
621.51	755.75
621.85	753.19
622.20	750.58
622.55	747.87
622.89	745.46
623.24	742.82
623.59	740.37
623.93	737.70
624.28	735.09
624.62	732.41
624.97	729.85
625.32	727.53
625.66	725.06
626.01	722.40
626.35	719.80
626.70	717.22
627.04	714.82
627.39	712.04
627.73	709.33
628.08	706.93
628.43	704.07
628.77	701.57
629.12	698.64
629.46	695.92
629.81	693.13
630.15	690.11
630.50	687.24
630.84	683.91
631.19	680.75
631.53	677.75
631.88	674.57
632.22	671.52
632.57	668.65
632.91	665.52
633.26	662.56
633.60	659.70
633.95	656.80
634.29	653.96
634.64	651.36
634.98	648.66
635.32	645.90
635.67	643.36
636.01	640.59
636.36	638.04
636.70	635.57
637.05	633.03
637.39	630.50
637.73	628.15
638.08	626.00
638.42	623.71
638.77	621.44
639.11	619.15
639.45	616.91
639.80	614.44
640.14	611.89
640.49	609.49
640.83	606.98
641.17	604.64
641.52	602.05
641.86	599.55
642.20	597.33
642.55	594.82
642.89	592.27
643.23	589.76
643.58	587.54
643.92	584.81
644.26	582.29
644.61	580.04
644.95	577.55
645.29	574.75
645.64	571.92
645.98	569.16
646.32	566.90
646.66	564.20
647.01	561.50
647.35	559.09
647.69	556.48
648.04	554.17
648.38	551.69
648.72	549.02
649.06	546.41
649.41	543.73
649.75	541.01
650.09	538.38
650.43	535.65
650.78	532.75
651.12	530.20
651.46	527.60
651.80	525.00
652.14	522.52
652.49	520.40
652.83	518.25
653.17	515.71
653.51	513.09
653.85	510.60
654.20	508.26
654.54	505.90
654.88	503.36
655.22	500.52
655.56	497.83
655.90	495.62
656.25	493.18
656.59	490.63
656.93	488.48
657.27	486.28
657.61	483.90
657.95	481.74
658.29	479.49
658.64	477.06
658.98	474.81
659.32	472.30
659.66	469.69
660.00	467.25
660.34	465.02
660.68	462.81
661.02	460.73
661.36	458.60
661.70	456.45
662.05	454.56
662.39	452.86
662.73	450.94
663.07	448.76
663.41	446.90
663.75	445.08
664.09	443.11
664.43	441.19
664.77	439.47
665.11	437.38
665.45	435.64
665.79	434.03
666.13	432.10
666.47	430.25
666.81	428.52
667.15	426.54
667.49	424.78
667.83	422.92
668.17	421.07
668.51	419.20
668.85	417.35
669.19	415.80
669.53	413.90
669.87	412.13
670.21	410.54
670.55	408.79
670.89	407.25
671.23	405.65
671.57	404.09
671.91	402.43
672.25	401.04
672.58	399.31
672.92	397.73
673.26	396.30
673.60	394.88
673.94	393.40
674.28	392.06
674.62	390.82
674.96	389.43
675.30	387.94
675.64	386.50
675.97	385.14
676.31	383.60
676.65	382.27
676.99	381.02
677.33	379.65
677.67	378.25
678.01	376.78
678.34	375.31
678.68	373.90
679.02	372.59
679.36	371.20
679.70	369.99
680.04	368.54
680.37	367.00
680.71	365.71
681.05	364.52
681.39	363.31
681.73	362.01
682.06	360.78
682.40	359.63
682.74	358.58
683.08	357.38
683.42	356.12
683.75	354.93
684.09	353.63
684.43	352.31
684.77	351.15
685.10	349.85
685.44	348.76
685.78	347.52
686.12	346.39
686.45	345.21
686.79	343.84
687.13	342.88
687.46	341.87
687.80	340.89
688.14	339.68
688.48	338.51
688.81	337.24
689.15	336.05
689.49	334.87
689.82	333.69
690.16	332.66
690.50	331.80
690.83	330.71
691.17	329.46
691.51	328.49
691.84	327.44
692.18	326.38
692.52	325.20
692.85	324.14
693.19	323.09
693.52	322.11
693.86	321.28
694.20	320.22
694.53	319.30
694.87	318.09
695.21	317.00
695.54	316.05
695.88	315.07
696.21	314.21
696.55	313.28
696.88	312.25
697.22	311.23
697.56	310.07
697.89	309.01
698.23	308.21
698.56	307.30
698.90	306.35
699.23	305.39
699.57	304.59
699.90	303.82
700.24	302.89
700.58	301.98
700.91	301.18
701.25	300.45
701.58	299.59
701.92	298.86
702.25	298.06
702.59	297.20
702.92	296.46
703.26	295.69
703.59	294.99
703.93	294.42
704.26	293.57
704.60	292.85
704.93	292.27
705.26	291.47
705.60	290.81
705.93	290.31
706.27	289.81
706.60	289.17
706.94	288.53
707.27	287.89
707.61	287.29
707.94	286.48
708.27	285.68
708.61	284.98
708.94	284.41
709.28	283.83
709.61	283.29
709.94	282.78
710.28	282.09
710.61	281.56
710.95	280.83
711.28	280.43
711.61	279.90
711.95	279.40
712.28	278.87
712.61	278.37
712.95	277.66
713.28	277.22
713.61	276.60
713.95	276.10
714.28	275.61
714.61	275.06
714.95	274.70
715.28	274.24
715.61	273.79
715.95	273.32
716.28	272.93
716.61	272.53
716.95	272.00
717.28	271.69
717.61	271.25
717.94	270.76
718.28	270.29
718.61	269.90
718.94	269.38
719.27	269.07
719.61	268.66
719.94	268.33
720.27	267.82
720.60	267.48
720.94	267.04
721.27	266.71
721.60	266.40
721.93	266.00
722.27	265.65
722.60	265.31
722.93	264.83
723.26	264.47
723.59	264.02
723.93	263.75
724.26	263.34
724.59	262.94
724.92	262.69
725.25	262.31
725.59	262.01
725.92	261.74
726.25	261.31
726.58	261.10
726.91	260.79
727.24	260.47
727.57	260.15
727.91	259.80
728.24	259.40
728.57	259.01
728.90	258.71
729.23	258.35
729.56	258.02
729.89	257.77
730.22	257.41
730.55	257.11
730.89	256.87
731.22	256.50
731.55	256.14
731.88	255.84
732.21	255.52
732.54	255.08
732.87	254.68
733.20	254.48
733.53	253.97
733.86	253.76
734.19	253.38
734.52	253.16
734.85	252.97
735.18	252.73
735.51	252.56
735.84	252.20
736.17	252.00
736.50	251.71
736.83	251.54
737.16	251.36
737.49	251.06
737.82	250.65
738.15	250.44
738.48	250.19
738.81	249.81
739.14	249.61
739.47	249.41
739.80	249.29
740.13	249.01
740.46	248.83
740.79	248.48
741.12	248.30
741.45	248.01
741.78	247.63
742.11	247.43
742.44	247.12
742.77	246.94
743.10	246.68
743.43	246.40
743.75	246.10
744.08	246.12
744.41	246.04
744.74	245.89
745.07	245.69
745.40	245.57
745.73	245.57
746.06	245.34
746.39	245.14
746.71	244.78
747.04	244.58
747.37	244.21
747.70	244.11
748.03	243.92
748.36	243.76
748.68	243.70
749.01	243.50
749.34	243.38
749.67	243.32
750.00	243.14
750.33	243.21
750.65	243.11
750.98	242.57
751.31	242.32
751.64	242.14
751.97	242.09
752.29	241.89
752.62	241.65
752.95	241.44
753.28	241.42
753.60	241.41
753.93	241.28
754.26	241.34
754.59	241.17
754.91	241.02
755.24	240.82
755.57	240.64
755.90	240.45
756.22	240.30
756.55	240.03
756.88	239.86
757.20	239.56
757.53	239.37
757.86	239.35
758.19	239.25
758.51	239.06
758.84	238.84
759.17	238.70
759.49	238.55
759.82	238.64
760.15	238.41
760.47	238.24
760.80	238.15
761.13	238.05
761.45	237.91
761.78	237.90
762.11	237.81
762.43	237.77
762.76	237.75
763.08	237.78
763.41	237.78
763.74	237.75
764.06	237.66
764.39	237.47
764.71	237.26
765.04	237.18
765.37	237.12
765.69	237.01
766.02	236.97
766.34	236.86
766.67	236.61
767.00	236.68
767.32	236.76
767.65	236.76
767.97	236.60
768.30	236.51
768.62	236.26
768.95	236.20
769.27	236.08
769.60	236.11
769.92	235.91
770.25	235.72
770.57	235.58
770.90	235.46
771.22	235.39
771.55	235.32
771.87	235.21
772.20	235.15
772.52	235.34
772.85	235.40
773.17	235.39
773.50	235.33
773.82	235.19
774.15	234.88
774.47	234.70
774.80	234.67
775.12	234.60
775.45	234.60
775.77	234.57
776.09	234.52
776.42	234.30
776.74	234.21
777.07	234.21
777.39	234.16
777.72	234.01
778.04	234.02
778.36	233.98
778.69	233.77
779.01	233.72
779.33	233.42
779.66	233.18
779.98	233.04
780.31	232.96
780.63	232.96
780.95	232.97
781.28	232.95
781.60	232.78
781.92	232.66
782.25	232.54
782.57	232.44
782.89	232.30
783.22	232.20
783.54	232.20
783.86	232.10
784.19	231.97
784.51	232.10
784.83	231.98
785.16	231.92
785.48	232.08
785.80	232.05
786.12	232.03
786.45	231.92
786.77	231.95
787.09	231.97
787.42	231.75
787.74	231.75
788.06	231.63
788.38	231.69
788.71	231.74
789.03	231.78
789.35	231.84
789.67	231.82
789.99	231.89
790.32	231.80
790.64	231.82
790.96	232.00
791.28	231.85
791.61	231.84
791.93	231.93
792.25	231.85
792.57	232.01
792.89	231.93
793.21	232.05
793.54	231.95
793.86	231.82
794.18	231.90
794.50	231.81
794.82	231.86
795.14	231.89
795.47	231.84
795.79	231.94
796.11	231.92
796.43	231.93
796.75	231.93
797.07	231.91
797.39	231.82
797.71	231.73
798.04	231.74
798.36	231.80
798.68	231.82
799.00	231.86
799.32	231.69
799.64	231.66
799.96	231.62
800.28	231.70
800.60	231.75
800.92	231.78
801.24	231.78
801.56	231.78
801.89	231.68
802.21	231.64
802.53	231.50
802.85	231.48
803.17	231.60
803.49	231.41
803.81	231.40
804.13	231.46
804.45	231.35
804.77	231.27
805.09	231.20
805.41	231.03
805.73	230.92
806.05	230.81
806.37	230.81
806.69	230.68
807.01	230.60
807.33	230.53
807.65	230.26
807.97	230.32
808.28	230.36
808.60	230.35
808.92	230.31
809.24	230.39
809.56	230.30
809.88	230.09
810.20	230.17
810.52	230.10
810.84	229.92
811.16	230.00
811.48	229.99
811.80	229.91
812.12	229.92
812.43	229.93
812.75	229.89
813.07	229.80
813.39	229.80
813.71	229.77
814.03	229.71
814.35	229.75
814.67	229.60
814.98	229.42
815.30	229.38
815.62	229.23
815.94	229.15
816.26	229.22
816.58	229.17
816.89	229.10
817.21	229.02
817.53	229.12
817.85	228.96
818.17	228.99
818.48	229.04
818.80	229.01
819.12	228.90
819.44	228.82
819.76	228.80
820.07	228.76
820.39	228.71
820.71	228.75
821.03	228.76
821.34	228.80
821.66	228.86
821.98	228.86
822.30	228.95
822.61	228.98
822.93	228.84
823.25	228.89
823.57	228.94
823.88	229.06
824.20	229.00
824.52	229.04
824.83	228.97
825.15	229.00
825.47	228.93
825.79	229.05
826.10	229.14
826.42	229.18
826.74	229.27
827.05	229.30
827.37	229.33
827.69	229.37
828.00	229.38
828.32	229.36
828.64	229.37
828.95	229.47
829.27	229.41
829.58	229.34
829.90	229.45
830.22	229.39
830.53	229.27
830.85	229.40
831.17	229.49
831.48	229.50
831.80	229.43
832.11	229.45
832.43	229.43
832.75	229.39
833.06	229.49
833.38	229.42
833.69	229.39
834.01	229.39
834.32	229.37
834.64	229.26
834.96	229.28
835.27	229.28
835.59	229.27
835.90	229.30
836.22	229.36
836.53	229.23
836.85	229.30
837.16	229.63
837.48	229.48
837.79	229.40
838.11	229.42
838.42	229.44
838.74	229.40
839.05	229.36
839.37	229.39
839.68	229.36
840.00	229.39
840.31	229.45
840.63	229.42
840.94	229.42
841.26	229.43
841.57	229.42
841.88	229.46
842.20	229.43
842.51	229.25
842.83	229.22
843.14	229.31
843.46	229.20
843.77	229.01
844.08	229.03
844.40	229.07
844.71	228.98
845.03	228.87
845.34	228.92
845.65	228.85
845.97	228.83
846.28	228.80
846.60	228.77
846.91	228.69
847.22	228.68
847.54	228.67
847.85	228.74
848.16	228.56
848.48	228.42
848.79	228.39
849.10	228.46
849.42	228.41
849.73	228.29
850.04	228.28
850.36	228.17
850.67	228.18
850.98	228.05
851.30	228.16
851.61	228.21
851.92	228.19
852.23	228.35
852.55	228.36
852.86	228.25
853.17	228.23
853.49	228.19
853.80	228.25
854.11	228.24
854.42	228.20
854.74	228.26
855.05	228.28
855.36	228.20
855.67	228.27
855.99	228.32
856.30	228.53
856.61	228.64
856.92	228.69
857.23	228.74
857.55	228.68
857.86	228.59
858.17	228.62
858.48	228.57
858.79	228.47
859.11	228.55
859.42	228.60
859.73	228.61
860.04	228.65
860.35	228.46
860.66	228.46
860.98	228.52
861.29	228.57
861.60	228.60
861.91	228.62
862.22	228.52
862.53	228.56
862.84	228.39
863.16	228.37
863.47	228.34
863.78	228.22
864.09	228.31
864.40	228.35
864.71	228.38
865.02	228.42
865.33	228.37
865.64	228.30
865.95	228.27
866.27	228.40
866.58	228.42
866.89	228.58
867.20	228.54
867.51	228.56
867.82	228.52
868.13	228.63
868.44	228.69
868.75	228.85
869.06	228.81
869.37	228.68
869.68	228.69
869.99	228.69
870.30	228.70
870.61	228.77
870.92	228.75
871.23	228.78
871.54	228.83
871.85	228.86
872.16	228.81
872.47	228.87
872.78	228.67
873.09	228.71
873.40	228.61
873.71	228.68
874.02	228.62
874.33	228.66
874.64	228.59
874.95	228.55
875.26	228.53
875.56	228.54
875.87	228.72
876.18	228.69
876.49	228.88
876.80	228.89
877.11	228.78
877.42	228.64
877.73	228.62
878.04	228.69
878.35	228.75
878.66	228.80
878.96	228.79
879.27	228.90
879.58	228.89
879.89	228.95
880.20	228.93
880.51	228.90
880.82	228.87
881.12	228.89
881.43	228.92
881.74	228.74
882.05	228.75
882.36	228.66
882.67	228.67
882.97	228.48
883.28	228.46
883.59	228.49
883.90	228.67
884.21	228.63
884.51	228.43
884.82	228.31
885.13	228.22
885.44	228.18
885.74	228.12
886.05	228.06
886.36	228.01
886.67	228.01
886.98	228.11
887.28	228.22
887.59	228.12
887.90	228.10
888.20	228.13
888.51	228.08
888.82	228.09
889.13	228.09
889.43	228.10
889.74	228.20
890.05	228.18
890.35	228.15
890.66	228.14
890.97	228.14
891.28	228.08
891.58	228.13
891.89	228.12
892.20	228.10
892.50	228.09
892.81	228.05
893.12	227.96
893.42	227.80
893.73	227.71
894.04	227.73
894.34	227.67
894.65	227.68
894.95	227.67
895.26	227.63
895.57	227.73
895.87	227.67
896.18	227.56
896.48	227.66
896.79	227.56
897.10	227.59
897.40	227.55
897.71	227.62
898.01	227.62
898.32	227.58
898.63	227.49
898.93	227.51
899.24	227.55
899.54	227.54
899.85	227.63
900.15	227.67
900.46	227.69
900.76	227.75
901.07	227.73
901.38	227.73
901.68	227.71
901.99	227.59
902.29	227.50
902.60	227.47
902.90	227.45
903.21	227.51
903.51	227.42
903.82	227.59
904.12	227.62
904.43	227.65
904.73	227.74
905.03	227.85
905.34	227.99
905.64	228.00
905.95	228.00
906.25	227.99
906.56	227.96
906.86	228.03
907.17	228.05
907.47	228.10
907.77	228.17
908.08	228.22
908.38	228.23
908.69	228.48
908.99	228.55
909.30	228.51
909.60	228.50
909.90	228.63
910.21	228.63
910.51	228.62
910.81	228.56
911.12	228.53
911.42	228.54
911.73	228.40
912.03	228.41
912.33	228.52
912.64	228.40
912.94	228.36
913.24	228.35
913.55	228.24
913.85	228.21
914.15	228.16
914.46	228.18
914.76	228.10
915.06	228.04
915.37	228.01
915.67	228.04
915.97	228.07
916.27	228.03
916.58	227.98
916.88	227.99
917.18	228.15
917.49	228.31
917.79	228.28
918.09	228.32
918.39	228.36
918.70	228.37
919.00	228.48
919.30	228.57
919.60	228.51
919.91	228.54
920.21	228.53
920.51	228.47
920.81	228.38
921.12	228.54
921.42	228.40
921.72	228.52
922.02	228.47
922.32	228.44
922.63	228.40
922.93	228.55
923.23	228.58
923.53	228.49
923.83	228.34
924.13	228.32
924.44	228.37
924.74	228.39
925.04	228.51
925.34	228.45
925.64	228.34
925.94	228.32
926.24	228.52
926.55	228.43
926.85	228.52
927.15	228.64
927.45	228.58
927.75	228.60
928.05	228.56
928.35	228.58
928.65	228.70
928.95	228.72
929.26	228.48
929.56	228.55
929.86	228.55
930.16	228.56
930.46	228.61
930.76	228.54
931.06	228.50
931.36	228.40
931.66	228.49
931.96	228.56
932.26	228.60
932.56	228.45
932.86	228.44
933.16	228.45
933.46	228.33
933.76	228.35
934.06	228.48
934.36	228.60
934.66	228.54
934.96	228.51
935.26	228.58
935.56	228.69
935.86	228.60
936.16	228.64
936.46	228.68
936.76	228.58
937.06	228.57
937.36	228.57
937.66	228.52
937.96	228.60
938.26	228.51
938.56	228.51
938.86	228.56
939.16	228.71
939.46	228.76
939.76	228.89
940.06	228.86
940.35	228.74
940.65	228.57
940.95	228.63
941.25	228.52
941.55	228.53
941.85	228.49
942.15	228.65
942.45	228.69
942.75	228.68
943.04	228.84
943.34	228.89
943.64	228.93
943.94	228.90
944.24	228.90
944.54	229.00
944.84	229.06
945.13	229.02
945.43	229.10
945.73	229.08
946.03	229.02
946.33	228.96
946.62	229.06
946.92	229.06
947.22	229.02
947.52	229.03
947.82	229.04
948.11	229.08
948.41	228.91
948.71	228.72
949.01	228.66
949.31	228.59
949.60	228.56
949.90	228.52
950.20	228.50
950.50	228.38
950.79	228.41
951.09	228.37
951.39	228.31
951.69	228.24
951.98	228.30
952.28	228.28
952.58	228.29
952.87	228.22
953.17	228.28
953.47	228.30
953.76	228.30
954.06	228.17
954.36	228.20
954.66	228.20
954.95	228.31
955.25	228.36
955.55	228.41
955.84	228.39
956.14	228.39
956.44	228.37
956.73	228.35
957.03	228.24
957.32	228.23
957.62	228.22
957.92	228.20
958.21	228.13
958.51	228.32
958.81	228.30
959.10	228.30
959.40	228.28
959.69	228.29
959.99	228.30
960.29	228.30
960.58	228.22
960.88	228.35
961.17	228.36
961.47	228.43
961.76	228.32
962.06	228.29
962.36	228.33
962.65	228.38
962.95	228.37
963.24	228.41
963.54	228.41
963.83	228.35
964.13	228.42
964.42	228.39
964.72	228.18
965.01	228.21
965.31	228.12
965.60	228.10
965.90	228.20
966.19	228.08
966.49	228.12
966.78	228.03
967.08	228.00
967.37	228.06
967.67	228.07
967.96	228.13
968.26	228.20
968.55	228.16
968.85	228.16
969.14	228.17
969.43	228.20
969.73	228.14
970.02	228.23
970.32	228.13
970.61	228.20
970.91	228.23
971.20	228.27
971.49	228.38
971.79	228.37
972.08	228.24
972.38	228.50
972.67	228.43
972.96	228.55
973.26	228.50
973.55	228.46
973.85	228.36
974.14	228.40
974.43	228.41
974.73	228.47
975.02	228.46
975.31	228.55
975.61	228.55
975.90	228.55
976.19	228.55
976.49	228.61
976.78	228.62
977.07	228.60
977.37	228.60
977.66	228.69
977.95	228.64
978.24	228.64
978.54	228.46
978.83	228.53
979.12	228.50
979.42	228.49
979.71	228.48
980.00	228.55
980.29	228.51
980.59	228.39
980.88	228.37
981.17	228.32
981.46	228.23
981.76	228.23
982.05	228.35
982.34	228.38
982.63	228.38
982.93	228.41
983.22	228.44
983.51	228.45
983.80	228.46
984.09	228.69
984.39	228.72
984.68	228.83
984.97	228.87
985.26	228.88
985.55	228.97
985.85	228.82
986.14	228.84
986.43	228.93
986.72	228.96
987.01	228.88
987.30	228.89
987.59	228.92
987.89	228.93
988.18	228.80
988.47	228.74
988.76	228.79
989.05	228.64
989.34	228.67
989.63	228.65
989.92	228.59
990.22	228.49
990.51	228.57
990.80	228.47
991.09	228.41
991.38	228.40
991.67	228.31
991.96	228.48
992.25	228.37
992.54	228.25
992.83	228.31
993.12	228.36
993.41	228.40
993.70	228.41
993.99	228.47
994.28	228.40
994.58	228.39
994.87	228.22
995.16	228.30
995.45	228.26
995.74	228.19
996.03	228.11
996.32	228.02
996.61	228.00
996.90	227.99
997.19	228.06
997.48	228.09
997.77	228.00
998.06	227.99
998.34	228.06
998.63	228.10
998.92	228.10
999.21	228.10
999.50	228.03
999.79	227.95
1000.08	227.91
1000.37	228.04
1000.66	227.94
1000.95	228.13
1001.24	228.09
1001.53	228.09
1001.82	228.15
1002.11	228.16
1002.40	228.16
1002.68	228.16
1002.97	228.30
1003.26	228.19
1003.55	228.12
1003.84	228.21
1004.13	228.20
1004.42	228.14
1004.71	228.18
1004.99	228.08
1005.28	228.08
1005.57	228.07
1005.86	228.10
1006.15	228.02
1006.44	227.92
1006.72	228.02
1007.01	227.94
1007.30	227.93
1007.59	227.96
1007.88	227.96
1008.17	227.89
1008.45	227.86
1008.74	227.74
1009.03	227.59
1009.32	227.60
1009.60	227.61
1009.89	227.50
1010.18	227.33
1010.47	227.31
1010.76	227.22
1011.04	227.19
1011.33	227.27
1011.62	227.35
1011.91	227.37
1012.19	227.46
1012.48	227.59
1012.77	227.62
1013.05	227.61
1013.34	227.57
1013.63	227.52
1013.92	227.48
1014.20	227.57
1014.49	227.58
1014.78	227.55
1015.06	227.60
1015.35	227.57
1015.64	227.57
1015.92	227.63
1016.21	227.80
1016.50	227.85
1016.78	227.95
1017.07	228.06
1017.36	228.00
1017.64	227.98
1017.93	228.03
1018.22	227.91
1018.50	227.83
1018.79	227.80
1019.08	227.77
1019.36	227.80
1019.65	227.78
1019.93	227.83
1020.22	227.80
1020.51	228.00
1020.79	228.01
1021.08	226.10
1021.36	227.40
1021.65	227.10
1021.94	228.50
1022.22	227.40
1022.51	227.20
1022.79	228.70
1023.08	227.50
1023.36	231.20
1023.65	226.40
>>>>>End Processed Spectral Data<<<<<
