SpectraSuite Data File
++++++++++++++++++++++++++++++++++++
Date: Fri Feb 01 14:39:54 EST 2013
User: group
Dark Spectrum Present: No
Reference Spectrum Present: No
Number of Sampled Component Spectra: 1
Spectrometers: USB2E7196
Integration Time (usec): 70000 (USB2E7196)
Spectra Averaged: 10 (USB2E7196)
Boxcar Smoothing: 10 (USB2E7196)
Correct for Electrical Dark: No (USB2E7196)
Strobe/Lamp Enabled: No (USB2E7196)
Correct for Detector Non-linearity: No (USB2E7196)
Correct for Stray Light: No (USB2E7196)
Number of Pixels in Processed Spectrum: 2048
>>>>>Begin Processed Spectral Data<<<<<
339.09	0.00
339.48	216.50
339.86	217.40
340.24	219.80
340.63	219.50
341.01	223.20
341.39	223.00
341.78	226.70
342.16	225.20
342.54	225.70
342.93	214.60
343.31	225.46
343.69	225.96
344.07	226.52
344.46	226.92
344.84	227.37
345.22	227.58
345.60	227.79
345.99	227.82
346.37	228.03
346.75	228.17
347.13	228.29
347.52	228.32
347.90	228.49
348.28	228.55
348.66	228.59
349.05	228.55
349.43	228.60
349.81	228.54
350.19	228.55
350.57	228.52
350.96	228.59
351.34	228.70
351.72	228.80
352.10	228.86
352.48	228.89
352.87	228.97
353.25	229.05
353.63	229.17
354.01	229.22
354.39	229.29
354.77	229.33
355.15	229.36
355.54	229.43
355.92	229.41
356.30	229.45
356.68	229.60
357.06	229.58
357.44	229.68
357.82	229.83
358.20	229.97
358.58	230.04
358.97	230.10
359.35	230.11
359.73	230.20
360.11	230.20
360.49	230.32
360.87	230.35
361.25	230.51
361.63	230.58
362.01	230.76
362.39	230.77
362.77	230.85
363.15	231.06
363.53	231.00
363.91	231.01
364.29	231.05
364.67	230.83
365.05	230.93
365.43	230.92
365.81	230.90
366.19	230.91
366.57	230.99
366.95	231.02
367.33	231.02
367.71	230.99
368.09	231.02
368.47	230.91
368.85	230.85
369.23	230.72
369.61	230.63
369.99	230.43
370.37	230.43
370.75	230.46
371.13	230.26
371.51	230.22
371.89	230.22
372.27	230.11
372.65	230.14
373.03	230.08
373.41	230.07
373.78	230.02
374.16	229.84
374.54	229.63
374.92	229.50
375.30	229.47
375.68	229.27
376.06	229.18
376.44	229.18
376.82	229.04
377.19	229.00
377.57	228.90
377.95	228.86
378.33	228.71
378.71	228.50
379.09	228.56
379.47	228.47
379.84	228.40
380.22	228.35
380.60	228.21
380.98	228.08
381.36	227.94
381.73	227.81
382.11	227.87
382.49	227.77
382.87	227.60
383.25	227.39
383.62	227.57
384.00	227.47
384.38	227.30
384.76	227.27
385.13	227.22
385.51	227.16
385.89	227.12
386.27	227.08
386.64	227.10
387.02	226.98
387.40	226.94
387.78	226.95
388.15	226.90
388.53	226.85
388.91	226.83
389.29	226.74
389.66	226.66
390.04	226.64
390.42	226.72
390.79	226.74
391.17	226.77
391.55	226.60
391.92	226.52
392.30	226.48
392.68	226.48
393.05	226.47
393.43	226.46
393.81	226.38
394.18	226.37
394.56	226.39
394.94	226.43
395.31	226.45
395.69	226.55
396.06	226.54
396.44	226.68
396.82	226.59
397.19	226.83
397.57	227.02
397.95	227.12
398.32	227.14
398.70	227.28
399.07	227.34
399.45	227.44
399.82	227.51
400.20	227.65
400.58	227.73
400.95	227.77
401.33	227.90
401.70	228.23
402.08	228.32
402.45	228.33
402.83	228.49
403.20	228.67
403.58	228.65
403.95	228.86
404.33	228.97
404.71	229.26
405.08	229.43
405.46	229.42
405.83	229.50
406.21	229.62
406.58	229.77
406.96	229.87
407.33	230.01
407.70	230.38
408.08	230.67
408.45	230.90
408.83	231.10
409.20	231.30
409.58	231.39
409.95	231.75
410.33	231.97
410.70	232.17
411.08	232.43
411.45	232.85
411.82	233.08
412.20	233.41
412.57	233.86
412.95	234.09
413.32	234.56
413.69	234.93
414.07	235.35
414.44	235.84
414.82	236.38
415.19	236.95
415.56	237.31
415.94	237.85
416.31	238.46
416.68	239.05
417.06	239.77
417.43	240.43
417.81	241.06
418.18	241.90
418.55	242.70
418.93	243.51
419.30	244.26
419.67	245.15
420.04	246.08
420.42	246.98
420.79	248.09
421.16	249.25
421.54	250.46
421.91	251.61
422.28	252.78
422.66	254.11
423.03	255.35
423.40	256.72
423.77	258.13
424.15	259.49
424.52	261.01
424.89	262.60
425.26	264.17
425.64	265.60
426.01	267.09
426.38	268.65
426.75	270.38
427.13	272.15
427.50	273.96
427.87	275.83
428.24	277.68
428.61	279.30
428.99	281.23
429.36	283.29
429.73	285.43
430.10	287.52
430.47	289.59
430.85	291.83
431.22	294.14
431.59	296.60
431.96	299.01
432.33	301.49
432.70	303.90
433.08	306.75
433.45	309.46
433.82	312.19
434.19	315.26
434.56	318.04
434.93	320.75
435.30	323.51
435.68	326.50
436.05	329.29
436.42	332.30
436.79	334.97
437.16	337.78
437.53	340.74
437.90	343.74
438.27	346.72
438.64	349.60
439.01	352.26
439.38	354.47
439.75	356.82
440.13	359.48
440.50	361.92
440.87	363.92
441.24	366.03
441.61	368.41
441.98	370.06
442.35	372.19
442.72	374.14
443.09	376.13
443.46	377.19
443.83	377.98
444.20	378.64
444.57	379.51
444.94	379.97
445.31	380.43
445.68	380.90
446.05	381.17
446.42	380.83
446.79	380.57
447.16	380.38
447.53	380.10
447.90	379.23
448.27	378.27
448.64	376.71
449.01	375.77
449.37	373.80
449.74	372.00
450.11	369.92
450.48	367.59
450.85	365.07
451.22	363.02
451.59	361.13
451.96	359.22
452.33	356.75
452.70	354.32
453.07	351.48
453.43	348.46
453.80	345.56
454.17	342.97
454.54	340.43
454.91	337.68
455.28	335.02
455.65	332.34
456.02	329.99
456.38	327.82
456.75	325.10
457.12	322.75
457.49	320.38
457.86	317.96
458.23	315.97
458.59	313.77
458.96	311.59
459.33	309.65
459.70	307.82
460.07	306.20
460.43	304.48
460.80	302.90
461.17	301.40
461.54	299.78
461.91	298.23
462.27	296.68
462.64	295.35
463.01	293.88
463.38	292.61
463.74	291.06
464.11	289.90
464.48	288.71
464.85	287.60
465.21	286.72
465.58	285.69
465.95	284.55
466.32	283.70
466.68	282.86
467.05	281.91
467.42	280.76
467.78	279.76
468.15	278.86
468.52	277.99
468.88	277.00
469.25	276.11
469.62	275.35
469.98	274.51
470.35	273.72
470.72	272.91
471.08	272.03
471.45	271.37
471.82	270.70
472.18	269.94
472.55	269.36
472.92	268.59
473.28	267.93
473.65	267.28
474.02	266.68
474.38	266.06
474.75	265.39
475.11	264.80
475.48	264.30
475.85	263.81
476.21	263.37
476.58	262.93
476.94	262.47
477.31	262.05
477.67	261.59
478.04	261.21
478.41	260.91
478.77	260.69
479.14	260.21
479.50	259.80
479.87	259.61
480.23	259.25
480.60	258.94
480.96	258.63
481.33	258.43
481.69	258.04
482.06	257.78
482.42	257.69
482.79	257.62
483.15	257.47
483.52	257.41
483.88	257.28
484.25	257.19
484.61	257.18
484.98	257.02
485.34	257.15
485.71	257.08
486.07	256.97
486.44	256.91
486.80	256.95
487.17	257.03
487.53	257.14
487.90	257.39
488.26	257.63
488.62	257.80
488.99	258.00
489.35	258.27
489.72	258.46
490.08	258.60
490.44	258.90
490.81	259.27
491.17	259.33
491.54	259.56
491.90	259.88
492.26	260.30
492.63	260.73
492.99	261.06
493.36	261.51
493.72	262.12
494.08	262.46
494.45	262.98
494.81	263.53
495.17	264.09
495.54	264.51
495.90	265.09
496.26	265.83
496.63	266.51
496.99	267.24
497.35	267.85
497.72	268.61
498.08	269.30
498.44	269.91
498.80	270.84
499.17	271.77
499.53	272.77
499.89	273.75
500.26	274.78
500.62	275.90
500.98	276.94
501.34	277.89
501.71	279.05
502.07	280.18
502.43	281.48
502.79	282.64
503.16	284.10
503.52	285.42
503.88	286.90
504.24	288.44
504.60	290.10
504.97	291.93
505.33	293.73
505.69	295.60
506.05	297.64
506.41	299.68
506.78	301.72
507.14	303.86
507.50	306.04
507.86	308.45
508.22	310.76
508.59	313.31
508.95	316.13
509.31	319.02
509.67	321.81
510.03	324.63
510.39	327.70
510.75	330.83
511.12	333.98
511.48	337.29
511.84	340.68
512.20	344.20
512.56	348.00
512.92	351.77
513.28	355.55
513.64	359.50
514.00	363.56
514.37	367.77
514.73	372.04
515.09	376.38
515.45	380.66
515.81	385.21
516.17	389.93
516.53	394.73
516.89	399.72
517.25	404.88
517.61	410.03
517.97	415.25
518.33	420.62
518.69	426.42
519.05	432.12
519.41	438.05
519.77	444.02
520.13	449.93
520.49	456.16
520.85	462.29
521.21	468.75
521.57	475.24
521.93	481.79
522.29	488.54
522.65	495.28
523.01	502.09
523.37	509.16
523.73	516.41
524.09	523.43
524.45	530.57
524.81	537.83
525.17	545.46
525.53	553.02
525.89	560.67
526.25	568.11
526.61	575.58
526.97	583.42
527.33	591.30
527.68	599.57
528.04	607.52
528.40	616.12
528.76	624.37
529.12	632.84
529.48	641.41
529.84	649.83
530.20	658.62
530.56	667.78
530.91	676.86
531.27	685.69
531.63	694.72
531.99	703.71
532.35	712.75
532.71	721.73
533.07	731.02
533.42	740.36
533.78	749.89
534.14	759.59
534.50	768.75
534.86	778.00
535.21	787.06
535.57	796.76
535.93	805.96
536.29	815.53
536.65	824.90
537.00	834.18
537.36	843.88
537.72	853.10
538.08	862.32
538.44	871.66
538.79	880.92
539.15	890.39
539.51	900.12
539.87	909.97
540.22	919.18
540.58	928.78
540.94	938.26
541.29	947.37
541.65	956.70
542.01	966.23
542.37	975.90
542.72	985.24
543.08	994.56
543.44	1003.85
543.79	1012.51
544.15	1021.49
544.51	1031.08
544.87	1040.20
545.22	1049.42
545.58	1058.25
545.94	1066.70
546.29	1075.84
546.65	1084.27
547.01	1092.48
547.36	1100.65
547.72	1109.08
548.07	1117.29
548.43	1125.20
548.79	1133.24
549.14	1140.93
549.50	1148.63
549.86	1155.89
550.21	1163.58
550.57	1171.11
550.92	1178.50
551.28	1185.84
551.64	1193.58
551.99	1200.56
552.35	1207.52
552.70	1214.75
553.06	1222.20
553.41	1229.53
553.77	1236.26
554.13	1243.33
554.48	1250.35
554.84	1257.14
555.19	1263.75
555.55	1270.24
555.90	1276.70
556.26	1283.16
556.61	1289.45
556.97	1295.61
557.32	1302.00
557.68	1307.96
558.03	1313.63
558.39	1319.63
558.74	1326.18
559.10	1332.01
559.45	1337.76
559.81	1344.00
560.16	1349.36
560.52	1354.86
560.87	1360.61
561.23	1365.49
561.58	1370.89
561.94	1375.68
562.29	1380.25
562.64	1385.06
563.00	1389.65
563.35	1394.72
563.71	1399.68
564.06	1404.72
564.42	1409.37
564.77	1414.18
565.12	1419.15
565.48	1424.00
565.83	1427.95
566.19	1432.16
566.54	1435.84
566.89	1439.52
567.25	1442.88
567.60	1447.14
567.96	1450.50
568.31	1453.31
568.66	1456.63
569.02	1459.81
569.37	1462.79
569.72	1466.05
570.08	1469.24
570.43	1471.91
570.78	1474.13
571.14	1476.43
571.49	1478.19
571.84	1481.01
572.20	1482.60
572.55	1484.10
572.90	1485.34
573.26	1487.40
573.61	1488.74
573.96	1490.04
574.31	1490.77
574.67	1491.21
575.02	1491.22
575.37	1491.63
575.72	1491.75
576.08	1492.47
576.43	1492.46
576.78	1493.04
577.13	1493.35
577.49	1493.70
577.84	1493.97
578.19	1493.98
578.54	1493.58
578.90	1493.29
579.25	1491.83
579.60	1491.48
579.95	1490.11
580.30	1489.06
580.66	1487.72
581.01	1486.34
581.36	1485.17
581.71	1484.69
582.06	1483.91
582.42	1482.60
582.77	1481.21
583.12	1480.34
583.47	1479.08
583.82	1478.20
584.17	1476.40
584.53	1474.89
584.88	1472.89
585.23	1471.09
585.58	1469.68
585.93	1467.97
586.28	1466.70
586.63	1465.16
586.98	1463.23
587.34	1462.03
587.69	1460.58
588.04	1459.16
588.39	1457.42
588.74	1454.91
589.09	1452.16
589.44	1449.65
589.79	1447.84
590.14	1446.32
590.49	1443.70
590.84	1440.95
591.19	1437.97
591.54	1434.70
591.89	1431.40
592.25	1428.63
592.60	1425.10
592.95	1421.85
593.30	1418.54
593.65	1415.18
594.00	1412.08
594.35	1409.05
594.70	1405.16
595.05	1401.76
595.40	1397.92
595.75	1394.25
596.10	1391.49
596.45	1388.51
596.80	1385.67
597.15	1382.40
597.50	1378.40
597.85	1375.38
598.19	1372.48
598.54	1369.40
598.89	1366.88
599.24	1364.14
599.59	1360.62
599.94	1358.18
600.29	1354.40
600.64	1351.29
600.99	1347.25
601.34	1343.53
601.69	1339.59
602.04	1336.46
602.39	1333.06
602.74	1330.22
603.08	1327.17
603.43	1323.84
603.78	1320.62
604.13	1316.80
604.48	1312.65
604.83	1309.20
605.18	1305.78
605.53	1301.21
605.87	1296.58
606.22	1292.44
606.57	1287.76
606.92	1283.80
607.27	1279.65
607.62	1275.91
607.96	1271.92
608.31	1268.61
608.66	1264.46
609.01	1259.75
609.36	1255.08
609.70	1249.70
610.05	1244.34
610.40	1239.32
610.75	1234.23
611.10	1229.12
611.44	1223.28
611.79	1218.93
612.14	1213.97
612.49	1208.27
612.83	1203.27
613.18	1198.40
613.53	1193.43
613.88	1188.53
614.22	1183.18
614.57	1177.70
614.92	1172.56
615.27	1167.54
615.61	1162.20
615.96	1157.03
616.31	1152.65
616.65	1148.34
617.00	1144.22
617.35	1139.36
617.70	1134.19
618.04	1128.83
618.39	1123.70
618.74	1119.46
619.08	1114.01
619.43	1108.92
619.78	1103.89
620.12	1099.27
620.47	1094.45
620.82	1089.41
621.16	1084.64
621.51	1080.18
621.85	1075.28
622.20	1070.02
622.55	1064.64
622.89	1059.59
623.24	1055.06
623.59	1050.39
623.93	1045.11
624.28	1040.13
624.62	1035.42
624.97	1030.97
625.32	1026.50
625.66	1021.82
626.01	1017.10
626.35	1012.47
626.70	1007.62
627.04	1003.22
627.39	998.10
627.73	993.20
628.08	988.58
628.43	983.52
628.77	978.59
629.12	973.70
629.46	969.08
629.81	964.12
630.15	959.06
630.50	953.91
630.84	948.32
631.19	943.08
631.53	937.95
631.88	932.54
632.22	927.05
632.57	922.24
632.91	917.23
633.26	912.25
633.60	907.12
633.95	901.96
634.29	897.20
634.64	892.79
634.98	888.15
635.32	883.36
635.67	879.15
636.01	874.44
636.36	869.79
636.70	865.26
637.05	860.85
637.39	856.56
637.73	852.20
638.08	848.61
638.42	844.73
638.77	840.58
639.11	836.49
639.45	832.61
639.80	827.98
640.14	823.67
640.49	818.97
640.83	814.71
641.17	810.60
641.52	806.04
641.86	801.59
642.20	797.33
642.55	793.20
642.89	788.72
643.23	784.35
643.58	780.25
643.92	776.15
644.26	771.88
644.61	767.72
644.95	763.38
645.29	758.36
645.64	753.56
645.98	749.03
646.32	744.84
646.66	740.37
647.01	736.28
647.35	732.21
647.69	728.47
648.04	724.63
648.38	720.54
648.72	716.24
649.06	711.94
649.41	707.90
649.75	703.36
650.09	698.96
650.43	694.76
650.78	690.39
651.12	685.99
651.46	681.85
651.80	677.68
652.14	673.84
652.49	669.98
652.83	666.26
653.17	662.34
653.51	658.26
653.85	654.44
654.20	650.48
654.54	646.35
654.88	642.13
655.22	637.64
655.56	633.59
655.90	629.83
656.25	626.02
656.59	622.05
656.93	618.47
657.27	615.10
657.61	611.31
657.95	607.80
658.29	604.01
658.64	600.50
658.98	596.91
659.32	592.89
659.66	589.22
660.00	585.49
660.34	581.85
660.68	578.19
661.02	574.41
661.36	571.11
661.70	567.68
662.05	564.38
662.39	561.39
662.73	558.20
663.07	555.19
663.41	552.04
663.75	548.97
664.09	545.60
664.43	542.17
664.77	539.23
665.11	536.24
665.45	533.35
665.79	530.33
666.13	527.20
666.47	524.38
666.81	521.29
667.15	518.31
667.49	515.49
667.83	512.92
668.17	510.10
668.51	507.06
668.85	504.24
669.19	501.53
669.53	498.66
669.87	495.66
670.21	492.74
670.55	490.01
670.89	487.45
671.23	485.16
671.57	482.85
671.91	480.30
672.25	477.61
672.58	475.06
672.92	472.51
673.26	470.07
673.60	467.75
673.94	465.54
674.28	463.47
674.62	461.15
674.96	458.64
675.30	456.43
675.64	454.18
675.97	451.95
676.31	449.89
676.65	447.78
676.99	445.80
677.33	443.71
677.67	441.61
678.01	439.22
678.34	436.97
678.68	434.88
679.02	432.76
679.36	430.78
679.70	428.82
680.04	426.90
680.37	424.91
680.71	422.85
681.05	421.06
681.39	418.93
681.73	417.10
682.06	415.40
682.40	413.51
682.74	411.63
683.08	410.03
683.42	408.03
683.75	406.13
684.09	404.28
684.43	402.33
684.77	400.53
685.10	398.83
685.44	396.96
685.78	395.17
686.12	393.30
686.45	391.60
686.79	389.73
687.13	387.99
687.46	386.27
687.80	384.55
688.14	382.77
688.48	381.34
688.81	379.63
689.15	377.90
689.49	376.31
689.82	374.81
690.16	373.05
690.50	371.48
690.83	369.91
691.17	368.28
691.51	366.87
691.84	365.41
692.18	363.90
692.52	362.40
692.85	360.76
693.19	359.51
693.52	358.06
693.86	356.68
694.20	355.24
694.53	353.84
694.87	352.36
695.21	350.97
695.54	349.40
695.88	347.85
696.21	346.41
696.55	345.00
696.88	343.58
697.22	342.09
697.56	340.98
697.89	339.70
698.23	338.51
698.56	337.21
698.90	335.90
699.23	334.47
699.57	333.08
699.90	331.91
700.24	330.43
700.58	329.03
700.91	327.74
701.25	326.57
701.58	325.45
701.92	324.43
702.25	323.26
702.59	322.15
702.92	321.11
703.26	320.07
703.59	319.08
703.93	318.21
704.26	317.29
704.60	316.05
704.93	315.00
705.26	313.92
705.60	312.85
705.93	311.94
706.27	311.25
706.60	310.53
706.94	309.69
707.27	308.70
707.61	307.84
707.94	307.14
708.27	306.33
708.61	305.29
708.94	304.38
709.28	303.43
709.61	302.63
709.94	301.77
710.28	300.93
710.61	300.05
710.95	299.00
711.28	298.20
711.61	297.48
711.95	296.61
712.28	295.82
712.61	295.14
712.95	294.41
713.28	293.59
713.61	292.73
713.95	291.79
714.28	291.18
714.61	290.56
714.95	289.82
715.28	288.95
715.61	288.24
715.95	287.48
716.28	286.82
716.61	286.19
716.95	285.66
717.28	285.04
717.61	284.45
717.94	283.90
718.28	283.21
718.61	282.49
718.94	282.00
719.27	281.48
719.61	280.95
719.94	280.29
720.27	279.60
720.60	279.02
720.94	278.57
721.27	278.08
721.60	277.51
721.93	276.97
722.27	276.54
722.60	276.01
722.93	275.60
723.26	275.06
723.59	274.45
723.93	273.84
724.26	273.29
724.59	272.75
724.92	272.30
725.25	271.85
725.59	271.50
725.92	271.12
726.25	270.64
726.58	270.08
726.91	269.69
727.24	269.35
727.57	269.02
727.91	268.54
728.24	268.09
728.57	267.60
728.90	267.07
729.23	266.62
729.56	266.38
729.89	265.93
730.22	265.67
730.55	265.26
730.89	264.94
731.22	264.69
731.55	264.30
731.88	263.91
732.21	263.50
732.54	263.10
732.87	262.62
733.20	262.23
733.53	262.00
733.86	261.64
734.19	261.26
734.52	260.85
734.85	260.62
735.18	260.29
735.51	260.02
735.84	259.77
736.17	259.38
736.50	258.89
736.83	258.83
737.16	258.41
737.49	258.17
737.82	257.79
738.15	257.45
738.48	257.12
738.81	256.74
739.14	256.47
739.47	256.10
739.80	255.79
740.13	255.44
740.46	255.06
740.79	254.58
741.12	254.29
741.45	253.99
741.78	253.64
742.11	253.36
742.44	252.98
742.77	252.68
743.10	252.41
743.43	252.09
743.75	251.55
744.08	251.49
744.41	251.25
744.74	250.92
745.07	250.62
745.40	250.41
745.73	250.23
746.06	249.90
746.39	249.72
746.71	249.52
747.04	249.29
747.37	248.96
747.70	248.86
748.03	248.55
748.36	248.36
748.68	248.03
749.01	247.73
749.34	247.55
749.67	247.36
750.00	247.14
750.33	247.11
750.65	246.90
750.98	246.47
751.31	246.16
751.64	246.00
751.97	245.83
752.29	245.54
752.62	245.36
752.95	245.21
753.28	244.96
753.60	244.69
753.93	244.56
754.26	244.44
754.59	244.21
754.91	244.13
755.24	243.88
755.57	243.80
755.90	243.62
756.22	243.40
756.55	243.20
756.88	243.10
757.20	242.77
757.53	242.59
757.86	242.50
758.19	242.38
758.51	242.30
758.84	242.06
759.17	241.94
759.49	241.76
759.82	241.70
760.15	241.63
760.47	241.51
760.80	241.36
761.13	241.29
761.45	241.13
761.78	240.95
762.11	240.87
762.43	240.67
762.76	240.56
763.08	240.38
763.41	240.21
763.74	239.97
764.06	239.94
764.39	239.78
764.71	239.66
765.04	239.50
765.37	239.29
765.69	239.15
766.02	239.06
766.34	238.88
766.67	238.74
767.00	238.62
767.32	238.66
767.65	238.60
767.97	238.39
768.30	238.42
768.62	238.27
768.95	238.16
769.27	238.07
769.60	237.94
769.92	237.92
770.25	237.81
770.57	237.81
770.90	237.70
771.22	237.60
771.55	237.41
771.87	237.40
772.20	237.42
772.52	237.60
772.85	237.74
773.17	237.66
773.50	237.47
773.82	237.38
774.15	237.14
774.47	236.97
774.80	237.00
775.12	236.84
775.45	236.73
775.77	236.64
776.09	236.66
776.42	236.64
776.74	236.60
777.07	236.51
777.39	236.40
777.72	236.28
778.04	236.22
778.36	236.14
778.69	236.02
779.01	235.91
779.33	235.65
779.66	235.35
779.98	235.36
780.31	235.34
780.63	235.23
780.95	235.27
781.28	235.22
781.60	235.01
781.92	234.88
782.25	234.88
782.57	234.80
782.89	234.66
783.22	234.60
783.54	234.47
783.86	234.51
784.19	234.42
784.51	234.50
784.83	234.36
785.16	234.35
785.48	234.24
785.80	234.10
786.12	234.05
786.45	234.02
786.77	233.94
787.09	233.85
787.42	233.81
787.74	233.75
788.06	233.74
788.38	233.78
788.71	233.79
789.03	233.82
789.35	233.81
789.67	233.71
789.99	233.70
790.32	233.62
790.64	233.53
790.96	233.66
791.28	233.60
791.61	233.63
791.93	233.62
792.25	233.64
792.57	233.75
792.89	233.67
793.21	233.56
793.54	233.52
793.86	233.49
794.18	233.57
794.50	233.41
794.82	233.29
795.14	233.25
795.47	233.26
795.79	233.09
796.11	233.03
796.43	233.00
796.75	232.84
797.07	232.87
797.39	232.84
797.71	232.60
798.04	232.45
798.36	232.48
798.68	232.35
799.00	232.26
799.32	232.10
799.64	232.09
799.96	232.06
800.28	231.97
800.60	231.92
800.92	231.74
801.24	231.77
801.56	231.76
801.89	231.72
802.21	231.59
802.53	231.52
802.85	231.48
803.17	231.52
803.49	231.52
803.81	231.51
804.13	231.44
804.45	231.43
804.77	231.39
805.09	231.29
805.41	231.24
805.73	231.18
806.05	231.12
806.37	231.10
806.69	231.06
807.01	231.10
807.33	231.10
807.65	231.02
807.97	231.11
808.28	231.00
808.60	231.00
808.92	231.03
809.24	231.11
809.56	231.14
809.88	231.09
810.20	231.01
810.52	231.00
810.84	230.93
811.16	230.80
811.48	230.77
811.80	230.78
812.12	230.80
812.43	230.85
812.75	230.91
813.07	230.84
813.39	230.82
813.71	230.79
814.03	230.73
814.35	230.75
814.67	230.57
814.98	230.58
815.30	230.46
815.62	230.34
815.94	230.24
816.26	230.17
816.58	230.00
816.89	230.04
817.21	229.93
817.53	229.96
817.85	229.97
818.17	230.00
818.48	229.82
818.80	229.85
819.12	229.80
819.44	229.62
819.76	229.65
820.07	229.60
820.39	229.61
820.71	229.62
821.03	229.68
821.34	229.63
821.66	229.70
821.98	229.80
822.30	229.78
822.61	229.92
822.93	229.92
823.25	229.90
823.57	229.87
823.88	229.95
824.20	229.88
824.52	229.95
824.83	229.97
825.15	230.08
825.47	229.99
825.79	229.97
826.10	230.10
826.42	230.07
826.74	230.11
827.05	229.92
827.37	229.90
827.69	229.81
828.00	229.83
828.32	229.74
828.64	229.68
828.95	229.84
829.27	229.72
829.58	229.65
829.90	229.72
830.22	229.71
830.53	229.70
830.85	229.70
831.17	229.60
831.48	229.62
831.80	229.65
832.11	229.59
832.43	229.56
832.75	229.48
833.06	229.60
833.38	229.55
833.69	229.66
834.01	229.70
834.32	229.69
834.64	229.70
834.96	229.70
835.27	229.60
835.59	229.52
835.90	229.51
836.22	229.51
836.53	229.44
836.85	229.40
837.16	229.50
837.48	229.57
837.79	229.66
838.11	229.59
838.42	229.49
838.74	229.66
839.05	229.60
839.37	229.52
839.68	229.33
840.00	229.29
840.31	229.32
840.63	229.31
840.94	229.30
841.26	229.20
841.57	229.21
841.88	229.25
842.20	229.13
842.51	229.09
842.83	229.12
843.14	229.35
843.46	229.37
843.77	229.29
844.08	229.20
844.40	229.14
844.71	229.09
845.03	229.14
845.34	228.99
845.65	228.99
845.97	229.01
846.28	229.10
846.60	229.08
846.91	228.86
847.22	228.79
847.54	228.76
847.85	228.74
848.16	228.68
848.48	228.64
848.79	228.77
849.10	228.76
849.42	228.70
849.73	228.50
850.04	228.57
850.36	228.42
850.67	228.55
850.98	228.54
851.30	228.54
851.61	228.49
851.92	228.53
852.23	228.64
852.55	228.71
852.86	228.61
853.17	228.69
853.49	228.85
853.80	228.88
854.11	228.82
854.42	228.91
854.74	228.94
855.05	228.98
855.36	228.84
855.67	228.92
855.99	228.92
856.30	229.13
856.61	229.02
856.92	229.05
857.23	228.97
857.55	228.83
857.86	228.88
858.17	228.85
858.48	228.83
858.79	228.73
859.11	228.68
859.42	228.77
859.73	228.75
860.04	228.70
860.35	228.56
860.66	228.64
860.98	228.70
861.29	228.75
861.60	228.78
861.91	228.90
862.22	228.87
862.53	228.92
862.84	228.77
863.16	228.83
863.47	228.83
863.78	228.89
864.09	229.07
864.40	229.06
864.71	229.16
865.02	229.21
865.33	229.30
865.64	229.28
865.95	229.23
866.27	229.35
866.58	229.50
866.89	229.62
867.20	229.66
867.51	229.55
867.82	229.57
868.13	229.52
868.44	229.51
868.75	229.57
869.06	229.59
869.37	229.64
869.68	229.60
869.99	229.73
870.30	229.73
870.61	229.70
870.92	229.62
871.23	229.63
871.54	229.62
871.85	229.70
872.16	229.76
872.47	229.79
872.78	229.67
873.09	229.59
873.40	229.61
873.71	229.62
874.02	229.68
874.33	229.63
874.64	229.68
874.95	229.67
875.26	229.63
875.56	229.66
875.87	229.64
876.18	229.66
876.49	229.86
876.80	229.79
877.11	229.77
877.42	229.83
877.73	229.76
878.04	229.70
878.35	229.67
878.66	229.62
878.96	229.50
879.27	229.50
879.58	229.51
879.89	229.49
880.20	229.48
880.51	229.41
880.82	229.44
881.12	229.43
881.43	229.39
881.74	229.25
882.05	229.20
882.36	229.22
882.67	229.23
882.97	229.02
883.28	229.10
883.59	229.17
883.90	229.16
884.21	229.14
884.51	229.12
884.82	229.05
885.13	229.05
885.44	229.10
885.74	228.98
886.05	229.00
886.36	228.89
886.67	228.87
886.98	228.99
887.28	228.91
887.59	228.91
887.90	228.80
888.20	228.74
888.51	228.67
888.82	228.60
889.13	228.58
889.43	228.57
889.74	228.47
890.05	228.30
890.35	228.21
890.66	228.35
890.97	228.38
891.28	228.31
891.58	228.31
891.89	228.25
892.20	228.20
892.50	228.08
892.81	228.10
893.12	228.02
893.42	227.86
893.73	227.85
894.04	227.76
894.34	227.81
894.65	227.86
894.95	227.82
895.26	227.81
895.57	227.84
895.87	227.69
896.18	227.60
896.48	227.69
896.79	227.70
897.10	227.58
897.40	227.62
897.71	227.66
898.01	227.66
898.32	227.72
898.63	227.76
898.93	227.74
899.24	227.83
899.54	227.77
899.85	227.78
900.15	227.76
900.46	227.80
900.76	227.86
901.07	227.89
901.38	227.98
901.68	228.08
901.99	228.00
902.29	228.04
902.60	228.12
902.90	228.10
903.21	228.08
903.51	228.10
903.82	228.07
904.12	228.12
904.43	228.11
904.73	228.16
905.03	228.27
905.34	228.44
905.64	228.37
905.95	228.49
906.25	228.56
906.56	228.60
906.86	228.73
907.17	228.70
907.47	228.75
907.77	228.75
908.08	228.61
908.38	228.63
908.69	228.74
908.99	228.81
909.30	228.81
909.60	228.89
909.90	228.95
910.21	228.92
910.51	228.92
910.81	229.07
911.12	229.08
911.42	229.08
911.73	229.04
912.03	229.17
912.33	229.18
912.64	229.23
912.94	229.34
913.24	229.32
913.55	229.33
913.85	229.35
914.15	229.40
914.46	229.53
914.76	229.61
915.06	229.42
915.37	229.42
915.67	229.37
915.97	229.45
916.27	229.32
916.58	229.35
916.88	229.35
917.18	229.23
917.49	229.38
917.79	229.41
918.09	229.45
918.39	229.35
918.70	229.35
919.00	229.27
919.30	229.27
919.60	229.06
919.91	229.07
920.21	229.01
920.51	228.98
920.81	228.90
921.12	228.84
921.42	228.89
921.72	228.80
922.02	228.81
922.32	228.70
922.63	228.68
922.93	228.65
923.23	228.58
923.53	228.50
923.83	228.21
924.13	228.19
924.44	228.00
924.74	228.05
925.04	228.05
925.34	227.97
925.64	227.96
925.94	227.93
926.24	227.96
926.55	227.94
926.85	227.89
927.15	227.85
927.45	227.77
927.75	227.78
928.05	227.75
928.35	227.68
928.65	227.68
928.95	227.72
929.26	227.71
929.56	227.68
929.86	227.73
930.16	227.78
930.46	227.80
930.76	227.84
931.06	227.72
931.36	227.59
931.66	227.70
931.96	227.53
932.26	227.58
932.56	227.54
932.86	227.50
933.16	227.54
933.46	227.46
933.76	227.55
934.06	227.65
934.36	227.72
934.66	227.75
934.96	227.76
935.26	227.79
935.56	227.85
935.86	227.89
936.16	227.77
936.46	227.80
936.76	227.73
937.06	227.78
937.36	227.80
937.66	227.90
937.96	227.87
938.26	227.89
938.56	227.94
938.86	227.99
939.16	228.07
939.46	228.06
939.76	228.09
940.06	228.07
940.35	227.94
940.65	227.87
940.95	227.93
941.25	227.84
941.55	227.83
941.85	227.74
942.15	227.83
942.45	228.00
942.75	227.98
943.04	227.95
943.34	227.99
943.64	227.94
943.94	227.88
944.24	227.94
944.54	228.05
944.84	228.06
945.13	228.04
945.43	228.05
945.73	228.05
946.03	228.14
946.33	228.13
946.62	228.20
946.92	228.24
947.22	228.26
947.52	228.34
947.82	228.49
948.11	228.52
948.41	228.44
948.71	228.44
949.01	228.54
949.31	228.70
949.60	228.69
949.90	228.88
950.20	228.99
950.50	228.93
950.79	228.92
951.09	228.97
951.39	228.99
951.69	228.98
951.98	229.01
952.28	228.96
952.58	229.03
952.87	229.00
953.17	229.06
953.47	229.06
953.76	229.07
954.06	228.95
954.36	228.89
954.66	228.97
954.95	228.98
955.25	228.98
955.55	228.93
955.84	228.91
956.14	228.84
956.44	228.88
956.73	228.92
957.03	228.92
957.32	228.90
957.62	228.85
957.92	228.88
958.21	228.85
958.51	229.10
958.81	228.90
959.10	228.89
959.40	228.83
959.69	228.85
959.99	228.86
960.29	228.77
960.58	228.79
960.88	228.81
961.17	228.80
961.47	228.85
961.76	228.77
962.06	228.80
962.36	228.74
962.65	228.76
962.95	228.70
963.24	228.64
963.54	228.67
963.83	228.73
964.13	228.69
964.42	228.61
964.72	228.45
965.01	228.69
965.31	228.65
965.60	228.75
965.90	228.70
966.19	228.65
966.49	228.65
966.78	228.70
967.08	228.62
967.37	228.54
967.67	228.37
967.96	228.36
968.26	228.29
968.55	228.21
968.85	228.09
969.14	228.13
969.43	228.07
969.73	227.94
970.02	227.82
970.32	227.83
970.61	227.78
970.91	227.63
971.20	227.42
971.49	227.45
971.79	227.27
972.08	227.22
972.38	227.20
972.67	227.30
972.96	227.21
973.26	227.17
973.55	227.19
973.85	227.29
974.14	227.28
974.43	227.32
974.73	227.35
975.02	227.30
975.31	227.23
975.61	227.23
975.90	227.35
976.19	227.44
976.49	227.38
976.78	227.45
977.07	227.42
977.37	227.48
977.66	227.39
977.95	227.47
978.24	227.55
978.54	227.58
978.83	227.53
979.12	227.57
979.42	227.60
979.71	227.66
980.00	227.65
980.29	227.77
980.59	227.70
980.88	227.78
981.17	227.70
981.46	227.74
981.76	227.83
982.05	227.86
982.34	227.80
982.63	227.96
982.93	227.88
983.22	228.02
983.51	228.10
983.80	228.27
984.09	228.46
984.39	228.43
984.68	228.51
984.97	228.51
985.26	228.55
985.55	228.62
985.85	228.60
986.14	228.59
986.43	228.48
986.72	228.56
987.01	228.60
987.30	228.69
987.59	228.67
987.89	228.71
988.18	228.68
988.47	228.76
988.76	228.67
989.05	228.84
989.34	228.79
989.63	228.86
989.92	228.86
990.22	228.75
990.51	228.86
990.80	228.73
991.09	228.80
991.38	228.78
991.67	228.77
991.96	228.67
992.25	228.69
992.54	228.74
992.83	228.76
993.12	228.69
993.41	228.70
993.70	228.82
993.99	228.79
994.28	228.80
994.58	228.77
994.87	228.78
995.16	228.70
995.45	228.60
995.74	228.50
996.03	228.51
996.32	228.50
996.61	228.37
996.90	228.43
997.19	228.37
997.48	228.38
997.77	228.30
998.06	228.36
998.34	228.40
998.63	228.40
998.92	228.38
999.21	228.44
999.50	228.44
999.79	228.33
1000.08	228.28
1000.37	228.26
1000.66	228.21
1000.95	228.20
1001.24	228.18
1001.53	228.20
1001.82	228.13
1002.11	227.96
1002.40	227.87
1002.68	227.90
1002.97	228.10
1003.26	228.11
1003.55	228.09
1003.84	228.14
1004.13	228.30
1004.42	228.29
1004.71	228.32
1004.99	228.24
1005.28	228.22
1005.57	228.27
1005.86	228.26
1006.15	228.27
1006.44	228.24
1006.72	228.18
1007.01	228.13
1007.30	228.10
1007.59	228.18
1007.88	228.17
1008.17	228.18
1008.45	228.16
1008.74	228.16
1009.03	227.96
1009.32	227.98
1009.60	228.00
1009.89	227.89
1010.18	227.71
1010.47	227.64
1010.76	227.60
1011.04	227.52
1011.33	227.59
1011.62	227.57
1011.91	227.57
1012.19	227.62
1012.48	227.56
1012.77	227.70
1013.05	227.79
1013.34	227.82
1013.63	227.85
1013.92	228.00
1014.20	228.02
1014.49	228.05
1014.78	228.10
1015.06	228.14
1015.35	228.12
1015.64	228.12
1015.92	228.23
1016.21	228.31
1016.50	228.16
1016.78	228.14
1017.07	228.25
1017.36	228.08
1017.64	228.16
1017.93	228.13
1018.22	228.09
1018.50	228.09
1018.79	228.00
1019.08	228.03
1019.36	228.16
1019.65	228.16
1019.93	228.20
1020.22	228.33
1020.51	228.55
1020.79	228.49
1021.08	227.70
1021.36	227.10
1021.65	227.70
1021.94	229.70
1022.22	230.10
1022.51	228.60
1022.79	230.80
1023.08	229.50
1023.36	232.30
1023.65	228.00
>>>>>End Processed Spectral Data<<<<<
