SpectraSuite Data File
++++++++++++++++++++++++++++++++++++
Date: Fri Feb 01 14:35:15 EST 2013
User: group
Dark Spectrum Present: No
Reference Spectrum Present: No
Number of Sampled Component Spectra: 1
Spectrometers: USB2E7196
Integration Time (usec): 70000 (USB2E7196)
Spectra Averaged: 10 (USB2E7196)
Boxcar Smoothing: 10 (USB2E7196)
Correct for Electrical Dark: No (USB2E7196)
Strobe/Lamp Enabled: No (USB2E7196)
Correct for Detector Non-linearity: No (USB2E7196)
Correct for Stray Light: No (USB2E7196)
Number of Pixels in Processed Spectrum: 2048
>>>>>Begin Processed Spectral Data<<<<<
339.09	0.00
339.48	215.10
339.86	218.10
340.24	218.60
340.63	221.20
341.01	225.00
341.39	224.10
341.78	222.90
342.16	226.90
342.54	226.00
342.93	214.69
343.31	225.49
343.69	226.11
344.07	226.60
344.46	227.04
344.84	227.39
345.22	227.55
345.60	227.73
345.99	228.00
346.37	228.09
346.75	228.21
347.13	228.24
347.52	228.37
347.90	228.37
348.28	228.38
348.66	228.45
349.05	228.45
349.43	228.55
349.81	228.50
350.19	228.49
350.57	228.54
350.96	228.60
351.34	228.72
351.72	228.81
352.10	228.77
352.48	228.83
352.87	228.88
353.25	228.93
353.63	229.01
354.01	229.13
354.39	229.24
354.77	229.31
355.15	229.41
355.54	229.43
355.92	229.49
356.30	229.59
356.68	229.78
357.06	229.85
357.44	229.77
357.82	229.84
358.20	229.97
358.58	229.87
358.97	229.89
359.35	229.95
359.73	229.84
360.11	229.97
360.49	230.00
360.87	229.96
361.25	229.94
361.63	229.97
362.01	229.99
362.39	229.89
362.77	229.94
363.15	230.02
363.53	230.07
363.91	230.19
364.29	230.08
364.67	229.83
365.05	229.72
365.43	229.85
365.81	229.95
366.19	229.89
366.57	230.08
366.95	230.07
367.33	230.01
367.71	230.09
368.09	230.10
368.47	230.05
368.85	230.07
369.23	230.17
369.61	230.08
369.99	230.06
370.37	229.95
370.75	229.85
371.13	229.74
371.51	229.62
371.89	229.54
372.27	229.58
372.65	229.61
373.03	229.58
373.41	229.49
373.78	229.29
374.16	229.22
374.54	229.09
374.92	228.99
375.30	228.97
375.68	228.91
376.06	228.83
376.44	228.69
376.82	228.69
377.19	228.51
377.57	228.47
377.95	228.34
378.33	228.36
378.71	228.21
379.09	228.21
379.47	228.10
379.84	227.99
380.22	227.81
380.60	227.70
380.98	227.67
381.36	227.49
381.73	227.55
382.11	227.61
382.49	227.50
382.87	227.36
383.25	227.22
383.62	227.30
384.00	227.17
384.38	227.20
384.76	227.10
385.13	227.18
385.51	227.09
385.89	226.98
386.27	226.98
386.64	227.07
387.02	227.07
387.40	227.05
387.78	226.99
388.15	227.06
388.53	227.01
388.91	226.95
389.29	227.10
389.66	226.94
390.04	226.88
390.42	226.91
390.79	226.90
391.17	226.93
391.55	226.77
391.92	226.80
392.30	226.86
392.68	226.90
393.05	226.87
393.43	226.91
393.81	226.98
394.18	226.94
394.56	226.95
394.94	226.94
395.31	227.04
395.69	227.14
396.06	227.25
396.44	227.35
396.82	227.47
397.19	227.55
397.57	227.71
397.95	227.82
398.32	227.85
398.70	228.06
399.07	228.24
399.45	228.35
399.82	228.53
400.20	228.62
400.58	228.76
400.95	228.83
401.33	229.05
401.70	229.32
402.08	229.50
402.45	229.66
402.83	229.86
403.20	230.02
403.58	230.31
403.95	230.61
404.33	230.88
404.71	231.19
405.08	231.61
405.46	231.85
405.83	232.10
406.21	232.44
406.58	232.75
406.96	233.01
407.33	233.43
407.70	233.81
408.08	234.37
408.45	234.89
408.83	235.41
409.20	235.90
409.58	236.31
409.95	236.92
410.33	237.55
410.70	238.14
411.08	238.80
411.45	239.43
411.82	240.10
412.20	240.79
412.57	241.77
412.95	242.59
413.32	243.58
413.69	244.60
414.07	245.65
414.44	246.85
414.82	248.15
415.19	249.58
415.56	251.10
415.94	252.51
416.31	254.14
416.68	255.79
417.06	257.66
417.43	259.55
417.81	261.64
418.18	263.84
418.55	266.20
418.93	268.61
419.30	271.20
419.67	273.81
420.04	276.60
420.42	279.37
420.79	282.53
421.16	285.83
421.54	289.13
421.91	292.69
422.28	296.24
422.66	300.03
423.03	303.75
423.40	307.56
423.77	311.75
424.15	316.04
424.52	320.56
424.89	325.30
425.26	329.97
425.64	334.28
426.01	339.04
426.38	343.86
426.75	348.96
427.13	354.12
427.50	359.51
427.87	365.24
428.24	370.87
428.61	376.34
428.99	382.22
429.36	388.82
429.73	395.36
430.10	401.69
430.47	408.25
430.85	414.93
431.22	422.03
431.59	429.53
431.96	436.66
432.33	444.60
432.70	452.21
433.08	461.06
433.45	469.51
433.82	477.86
434.19	487.28
434.56	496.40
434.93	505.17
435.30	514.07
435.68	523.69
436.05	533.19
436.42	542.65
436.79	551.36
437.16	560.57
437.53	570.19
437.90	580.00
438.27	589.55
438.64	599.34
439.01	608.47
439.38	616.87
439.75	624.68
440.13	633.67
440.50	642.45
440.87	649.74
441.24	657.10
441.61	665.29
441.98	671.39
442.35	678.41
442.72	685.60
443.09	692.73
443.46	697.32
443.83	700.69
444.20	703.81
444.57	707.93
444.94	710.34
445.31	712.76
445.68	715.29
446.05	716.88
446.42	717.16
446.79	717.08
447.16	716.81
447.53	717.40
447.90	715.05
448.27	712.46
448.64	708.41
449.01	706.30
449.37	701.06
449.74	696.10
450.11	689.82
450.48	682.85
450.85	675.58
451.22	669.60
451.59	663.85
451.96	658.23
452.33	650.40
452.70	643.70
453.07	635.36
453.43	626.51
453.80	618.17
454.17	609.86
454.54	602.12
454.91	593.64
455.28	585.18
455.65	577.35
456.02	569.41
456.38	562.81
456.75	554.25
457.12	547.36
457.49	540.35
457.86	533.66
458.23	527.76
458.59	521.19
458.96	514.37
459.33	508.36
459.70	502.32
460.07	497.50
460.43	491.65
460.80	486.18
461.17	481.54
461.54	476.43
461.91	472.01
462.27	467.42
462.64	463.31
463.01	458.76
463.38	454.42
463.74	450.09
464.11	446.20
464.48	442.77
464.85	438.96
465.21	436.06
465.58	433.03
465.95	429.36
466.32	426.30
466.68	423.36
467.05	420.61
467.42	417.65
467.78	414.48
468.15	411.53
468.52	409.18
468.88	406.32
469.25	403.87
469.62	401.60
469.98	399.10
470.35	396.87
470.72	394.76
471.08	392.65
471.45	391.00
471.82	388.93
472.18	386.74
472.55	385.17
472.92	383.25
473.28	381.60
473.65	380.17
474.02	378.58
474.38	377.26
474.75	375.80
475.11	374.57
475.48	373.71
475.85	372.83
476.21	372.05
476.58	371.26
476.94	370.59
477.31	369.77
477.67	369.19
478.04	368.67
478.41	368.27
478.77	367.63
479.14	366.99
479.50	366.84
479.87	366.72
480.23	366.58
480.60	366.34
480.96	366.20
481.33	366.20
481.69	366.36
482.06	366.33
482.42	366.26
482.79	366.32
483.15	366.59
483.52	366.99
483.88	367.44
484.25	367.78
484.61	368.25
484.98	368.77
485.34	369.56
485.71	370.39
486.07	371.17
486.44	372.20
486.80	373.25
487.17	374.31
487.53	375.42
487.90	376.64
488.26	378.02
488.62	379.37
488.99	380.58
489.35	382.08
489.72	383.68
490.08	385.50
490.44	387.25
490.81	389.01
491.17	390.64
491.54	392.46
491.90	394.29
492.26	396.31
492.63	398.40
492.99	400.51
493.36	402.62
493.72	404.87
494.08	407.12
494.45	409.64
494.81	411.96
495.17	414.58
495.54	417.28
495.90	420.02
496.26	422.54
496.63	425.41
496.99	428.10
497.35	430.93
497.72	433.85
498.08	436.64
498.44	439.58
498.80	442.90
499.17	445.88
499.53	449.08
499.89	452.18
500.26	455.26
500.62	458.19
500.98	461.52
501.34	464.80
501.71	468.04
502.07	471.05
502.43	474.34
502.79	477.39
503.16	480.41
503.52	483.54
503.88	486.65
504.24	489.67
504.60	492.80
504.97	496.07
505.33	499.37
505.69	502.63
506.05	505.62
506.41	508.48
506.78	511.45
507.14	514.22
507.50	517.09
507.86	520.06
508.22	523.01
508.59	525.56
508.95	528.16
509.31	530.86
509.67	533.40
510.03	535.88
510.39	538.44
510.75	541.05
511.12	543.28
511.48	545.82
511.84	548.27
512.20	550.48
512.56	552.45
512.92	554.39
513.28	556.59
513.64	558.40
514.00	560.30
514.37	562.19
514.73	564.13
515.09	565.85
515.45	567.49
515.81	569.12
516.17	571.00
516.53	572.78
516.89	574.36
517.25	575.93
517.61	577.46
517.97	578.79
518.33	579.88
518.69	581.29
519.05	582.48
519.41	584.04
519.77	585.67
520.13	587.17
520.49	588.50
520.85	589.58
521.21	591.02
521.57	592.18
521.93	593.27
522.29	594.61
522.65	595.78
523.01	596.89
523.37	597.91
523.73	598.66
524.09	599.54
524.45	600.60
524.81	601.77
525.17	603.00
525.53	604.26
525.89	605.48
526.25	606.84
526.61	607.95
526.97	608.81
527.33	609.78
527.68	611.14
528.04	612.00
528.40	613.06
528.76	614.63
529.12	616.27
529.48	617.90
529.84	618.93
530.20	620.49
530.56	622.29
530.91	624.13
531.27	626.06
531.63	628.04
531.99	629.63
532.35	631.42
532.71	633.02
533.07	635.08
533.42	637.42
533.78	639.11
534.14	641.20
534.50	643.07
534.86	645.06
535.21	646.81
535.57	649.42
535.93	651.81
536.29	653.95
536.65	656.16
537.00	658.22
537.36	660.84
537.72	663.40
538.08	665.91
538.44	668.10
538.79	670.46
539.15	672.88
539.51	675.50
539.87	678.35
540.22	681.11
540.58	683.52
540.94	685.91
541.29	688.89
541.65	691.78
542.01	695.08
542.37	698.19
542.72	701.12
543.08	703.84
543.44	707.00
543.79	709.67
544.15	712.75
544.51	716.09
544.87	719.24
545.22	722.19
545.58	724.89
545.94	728.06
546.29	731.30
546.65	734.20
547.01	737.28
547.36	739.97
547.72	743.18
548.07	746.37
548.43	749.61
548.79	752.70
549.14	755.77
549.50	758.69
549.86	761.53
550.21	764.46
550.57	767.56
550.92	770.66
551.28	773.86
551.64	777.02
551.99	780.28
552.35	783.37
552.70	786.61
553.06	790.01
553.41	793.10
553.77	796.29
554.13	799.88
554.48	803.31
554.84	806.88
555.19	809.90
555.55	813.08
555.90	815.99
556.26	819.12
556.61	822.26
556.97	825.15
557.32	828.46
557.68	831.94
558.03	835.24
558.39	838.26
558.74	841.74
559.10	844.61
559.45	847.51
559.81	850.75
560.16	853.49
560.52	856.48
560.87	859.76
561.23	862.67
561.58	865.62
561.94	868.37
562.29	870.82
562.64	873.64
563.00	876.50
563.35	879.55
563.71	882.54
564.06	885.37
564.42	888.53
564.77	891.17
565.12	893.72
565.48	896.47
565.83	899.01
566.19	901.31
566.54	904.02
566.89	906.34
567.25	908.83
567.60	911.73
567.96	914.14
568.31	916.35
568.66	918.47
569.02	920.43
569.37	922.40
569.72	924.47
570.08	926.59
570.43	928.51
570.78	930.20
571.14	931.42
571.49	933.02
571.84	934.83
572.20	936.29
572.55	937.93
572.90	939.15
573.26	940.67
573.61	941.92
573.96	942.97
574.31	943.98
574.67	944.69
575.02	945.13
575.37	946.16
575.72	946.70
576.08	947.56
576.43	948.20
576.78	948.90
577.13	949.82
577.49	950.70
577.84	951.42
578.19	951.86
578.54	952.64
578.90	953.20
579.25	953.06
579.60	953.22
579.95	953.29
580.30	953.42
580.66	953.16
581.01	952.99
581.36	952.96
581.71	953.20
582.06	953.05
582.42	952.89
582.77	952.48
583.12	952.33
583.47	951.88
583.82	951.57
584.17	951.21
584.53	950.56
584.88	949.75
585.23	949.04
585.58	948.28
585.93	947.96
586.28	947.23
586.63	946.47
586.98	945.93
587.34	945.30
587.69	944.65
588.04	944.13
588.39	943.82
588.74	942.58
589.09	941.50
589.44	940.33
589.79	939.42
590.14	938.35
590.49	937.17
590.84	936.17
591.19	935.12
591.54	933.30
591.89	931.68
592.25	930.40
592.60	928.81
592.95	927.35
593.30	925.50
593.65	923.72
594.00	921.99
594.35	921.11
594.70	919.00
595.05	917.09
595.40	914.92
595.75	912.46
596.10	910.85
596.45	909.29
596.80	907.99
597.15	906.20
597.50	904.31
597.85	902.58
598.19	900.71
598.54	898.68
598.89	897.20
599.24	895.84
599.59	893.69
599.94	892.13
600.29	890.34
600.64	888.43
600.99	886.49
601.34	884.76
601.69	882.10
602.04	880.14
602.39	878.15
602.74	876.49
603.08	874.97
603.43	873.16
603.78	870.86
604.13	868.22
604.48	865.98
604.83	863.88
605.18	861.88
605.53	859.53
605.87	856.92
606.22	854.90
606.57	852.25
606.92	850.40
607.27	848.08
607.62	845.81
607.96	843.38
608.31	841.12
608.66	838.70
609.01	835.97
609.36	833.29
609.70	830.39
610.05	827.31
610.40	824.42
610.75	821.33
611.10	818.50
611.44	815.84
611.79	812.99
612.14	810.11
612.49	806.70
612.83	803.73
613.18	801.04
613.53	797.82
613.88	794.92
614.22	791.44
614.57	787.93
614.92	784.50
615.27	781.54
615.61	778.40
615.96	775.33
616.31	772.16
616.65	769.70
617.00	766.95
617.35	764.27
617.70	761.07
618.04	758.07
618.39	755.03
618.74	752.05
619.08	749.11
619.43	746.27
619.78	743.57
620.12	740.53
620.47	737.52
620.82	734.53
621.16	731.71
621.51	729.03
621.85	726.27
622.20	723.70
622.55	720.86
622.89	717.95
623.24	715.18
623.59	712.57
623.93	709.63
624.28	706.80
624.62	703.96
624.97	701.48
625.32	699.03
625.66	696.35
626.01	693.82
626.35	691.12
626.70	688.14
627.04	685.44
627.39	682.66
627.73	679.90
628.08	677.32
628.43	674.22
628.77	671.67
629.12	668.83
629.46	666.25
629.81	663.29
630.15	660.45
630.50	657.51
630.84	654.56
631.19	651.49
631.53	648.74
631.88	645.71
632.22	642.78
632.57	639.87
632.91	637.13
633.26	634.24
633.60	631.23
633.95	628.56
634.29	625.88
634.64	623.51
634.98	620.80
635.32	618.39
635.67	616.24
636.01	613.39
636.36	610.82
636.70	608.31
637.05	605.63
637.39	603.37
637.73	600.87
638.08	598.82
638.42	596.60
638.77	594.24
639.11	591.94
639.45	589.40
639.80	586.78
640.14	584.28
640.49	581.81
640.83	579.48
641.17	577.06
641.52	574.73
641.86	572.07
642.20	569.78
642.55	567.22
642.89	564.59
643.23	562.18
643.58	559.94
643.92	557.26
644.26	555.04
644.61	552.80
644.95	550.50
645.29	547.61
645.64	545.01
645.98	542.45
646.32	540.19
646.66	537.83
647.01	535.65
647.35	533.25
647.69	530.85
648.04	528.81
648.38	526.38
648.72	523.73
649.06	521.27
649.41	518.87
649.75	516.37
650.09	514.04
650.43	511.56
650.78	508.92
651.12	506.39
651.46	503.94
651.80	501.38
652.14	498.94
652.49	496.80
652.83	494.66
653.17	492.24
653.51	489.75
653.85	487.60
654.20	485.18
654.54	482.72
654.88	480.21
655.22	477.53
655.56	475.16
655.90	472.95
656.25	470.80
656.59	468.37
656.93	466.23
657.27	464.10
657.61	461.91
657.95	459.91
658.29	457.91
658.64	455.80
658.98	453.63
659.32	451.45
659.66	449.20
660.00	446.87
660.34	444.91
660.68	442.80
661.02	440.53
661.36	438.54
661.70	436.59
662.05	434.83
662.39	433.13
662.73	431.33
663.07	429.60
663.41	427.81
663.75	426.15
664.09	424.31
664.43	422.29
664.77	420.51
665.11	418.79
665.45	417.14
665.79	415.45
666.13	413.63
666.47	412.00
666.81	410.40
667.15	408.79
667.49	407.00
667.83	405.57
668.17	403.94
668.51	402.35
668.85	400.84
669.19	399.44
669.53	397.82
669.87	396.26
670.21	394.73
670.55	393.13
670.89	391.72
671.23	390.16
671.57	388.92
671.91	387.60
672.25	386.14
672.58	384.77
672.92	383.45
673.26	382.13
673.60	380.82
673.94	379.41
674.28	378.26
674.62	377.09
674.96	375.76
675.30	374.67
675.64	373.39
675.97	372.14
676.31	370.82
676.65	369.65
676.99	368.40
677.33	367.10
677.67	365.87
678.01	364.50
678.34	363.26
678.68	362.02
679.02	360.64
679.36	359.49
679.70	358.20
680.04	356.90
680.37	355.73
680.71	354.48
681.05	353.57
681.39	352.45
681.73	351.20
682.06	349.95
682.40	348.61
682.74	347.48
683.08	346.45
683.42	345.30
683.75	344.26
684.09	343.11
684.43	342.03
684.77	340.90
685.10	339.89
685.44	338.88
685.78	337.81
686.12	336.83
686.45	335.70
686.79	334.68
687.13	333.76
687.46	332.73
687.80	331.75
688.14	330.58
688.48	329.46
688.81	328.39
689.15	327.48
689.49	326.50
689.82	325.59
690.16	324.46
690.50	323.36
690.83	322.32
691.17	321.25
691.51	320.34
691.84	319.43
692.18	318.47
692.52	317.48
692.85	316.47
693.19	315.58
693.52	314.72
693.86	313.64
694.20	312.72
694.53	311.80
694.87	310.80
695.21	309.88
695.54	308.89
695.88	307.96
696.21	307.06
696.55	306.30
696.88	305.35
697.22	304.54
697.56	303.78
697.89	302.89
698.23	302.14
698.56	301.19
698.90	300.41
699.23	299.56
699.57	298.78
699.90	297.94
700.24	297.12
700.58	296.09
700.91	295.36
701.25	294.58
701.58	293.77
701.92	293.06
702.25	292.34
702.59	291.70
702.92	291.19
703.26	290.54
703.59	289.81
703.93	289.28
704.26	288.60
704.60	288.07
704.93	287.29
705.26	286.73
705.60	286.16
705.93	285.58
706.27	285.05
706.60	284.48
706.94	284.00
707.27	283.33
707.61	282.89
707.94	282.31
708.27	281.56
708.61	281.11
708.94	280.65
709.28	280.05
709.61	279.60
709.94	279.03
710.28	278.40
710.61	277.89
710.95	277.22
711.28	276.82
711.61	276.26
711.95	275.94
712.28	275.41
712.61	274.92
712.95	274.46
713.28	274.04
713.61	273.51
713.95	273.05
714.28	272.60
714.61	272.12
714.95	271.76
715.28	271.38
715.61	270.78
715.95	270.36
716.28	270.04
716.61	269.58
716.95	269.13
717.28	268.72
717.61	268.34
717.94	267.97
718.28	267.36
718.61	266.88
718.94	266.45
719.27	266.00
719.61	265.60
719.94	265.23
720.27	264.83
720.60	264.59
720.94	264.22
721.27	263.91
721.60	263.64
721.93	263.26
722.27	263.07
722.60	262.76
722.93	262.44
723.26	262.15
723.59	261.79
723.93	261.60
724.26	261.36
724.59	261.06
724.92	260.74
725.25	260.64
725.59	260.41
725.92	260.15
726.25	259.84
726.58	259.57
726.91	259.16
727.24	258.89
727.57	258.58
727.91	258.29
728.24	258.06
728.57	257.78
728.90	257.60
729.23	257.10
729.56	256.98
729.89	256.64
730.22	256.27
730.55	255.88
730.89	255.50
731.22	255.22
731.55	254.93
731.88	254.66
732.21	254.26
732.54	253.98
732.87	253.55
733.20	253.37
733.53	253.04
733.86	252.91
734.19	252.60
734.52	252.33
734.85	252.19
735.18	251.88
735.51	251.58
735.84	251.21
736.17	251.19
736.50	250.86
736.83	250.85
737.16	250.48
737.49	250.38
737.82	250.09
738.15	249.86
738.48	249.54
738.81	249.34
739.14	249.00
739.47	248.70
739.80	248.58
740.13	248.36
740.46	248.05
740.79	247.70
741.12	247.47
741.45	247.20
741.78	246.87
742.11	246.63
742.44	246.36
742.77	246.19
743.10	245.83
743.43	245.55
743.75	245.12
744.08	245.11
744.41	244.87
744.74	244.62
745.07	244.35
745.40	244.22
745.73	244.09
746.06	244.03
746.39	243.83
746.71	243.62
747.04	243.41
747.37	243.31
747.70	243.20
748.03	243.05
748.36	242.86
748.68	242.70
749.01	242.51
749.34	242.41
749.67	242.26
750.00	242.09
750.33	242.04
750.65	241.90
750.98	241.58
751.31	241.43
751.64	241.38
751.97	241.33
752.29	241.15
752.62	240.92
752.95	240.71
753.28	240.62
753.60	240.52
753.93	240.41
754.26	240.30
754.59	240.18
754.91	240.08
755.24	239.96
755.57	239.82
755.90	239.79
756.22	239.75
756.55	239.60
756.88	239.56
757.20	239.41
757.53	239.31
757.86	239.30
758.19	239.20
758.51	239.15
758.84	238.97
759.17	239.00
759.49	238.98
759.82	239.08
760.15	239.02
760.47	239.00
760.80	238.98
761.13	239.01
761.45	238.90
761.78	238.82
762.11	238.82
762.43	238.65
762.76	238.52
763.08	238.43
763.41	238.49
763.74	238.41
764.06	238.35
764.39	238.25
764.71	238.08
765.04	237.97
765.37	237.89
765.69	237.81
766.02	237.66
766.34	237.52
766.67	237.41
767.00	237.34
767.32	237.34
767.65	237.30
767.97	237.15
768.30	237.12
768.62	236.97
768.95	236.77
769.27	236.72
769.60	236.62
769.92	236.52
770.25	236.29
770.57	236.17
770.90	236.10
771.22	236.01
771.55	235.97
771.87	235.92
772.20	235.74
772.52	235.80
772.85	235.95
773.17	235.93
773.50	235.69
773.82	235.59
774.15	235.24
774.47	234.97
774.80	234.72
775.12	234.54
775.45	234.44
775.77	234.45
776.09	234.31
776.42	234.27
776.74	234.19
777.07	234.09
777.39	234.02
777.72	233.87
778.04	233.71
778.36	233.65
778.69	233.50
779.01	233.37
779.33	233.14
779.66	232.65
779.98	232.43
780.31	232.43
780.63	232.37
780.95	232.48
781.28	232.33
781.60	232.35
781.92	232.30
782.25	232.16
782.57	232.11
782.89	232.07
783.22	231.95
783.54	231.77
783.86	231.76
784.19	231.58
784.51	231.49
784.83	231.39
785.16	231.35
785.48	231.36
785.80	231.44
786.12	231.40
786.45	231.51
786.77	231.52
787.09	231.40
787.42	231.25
787.74	231.18
788.06	231.30
788.38	231.31
788.71	231.31
789.03	231.34
789.35	231.29
789.67	231.20
789.99	231.23
790.32	231.23
790.64	231.16
790.96	231.35
791.28	231.31
791.61	231.37
791.93	231.31
792.25	231.35
792.57	231.30
792.89	231.31
793.21	231.26
793.54	231.20
793.86	231.19
794.18	231.18
794.50	231.09
794.82	231.00
795.14	230.93
795.47	230.88
795.79	230.96
796.11	230.85
796.43	230.80
796.75	230.79
797.07	230.76
797.39	230.83
797.71	230.72
798.04	230.82
798.36	230.99
798.68	230.98
799.00	230.96
799.32	230.95
799.64	231.01
799.96	231.05
800.28	231.15
800.60	231.19
800.92	231.20
801.24	231.26
801.56	231.35
801.89	231.42
802.21	231.42
802.53	231.38
802.85	231.54
803.17	231.77
803.49	231.74
803.81	231.81
804.13	231.77
804.45	231.76
804.77	231.72
805.09	231.67
805.41	231.76
805.73	231.76
806.05	231.77
806.37	231.72
806.69	231.77
807.01	231.89
807.33	231.96
807.65	231.96
807.97	232.00
808.28	231.89
808.60	231.92
808.92	231.99
809.24	232.20
809.56	232.06
809.88	231.91
810.20	231.92
810.52	232.01
810.84	232.01
811.16	231.86
811.48	231.80
811.80	231.71
812.12	231.61
812.43	231.58
812.75	231.50
813.07	231.45
813.39	231.34
813.71	231.19
814.03	231.02
814.35	231.00
814.67	230.88
814.98	230.86
815.30	230.66
815.62	230.55
815.94	230.24
816.26	230.39
816.58	230.33
816.89	230.29
817.21	230.10
817.53	230.09
817.85	230.19
818.17	230.19
818.48	230.15
818.80	230.17
819.12	230.05
819.44	229.98
819.76	229.82
820.07	229.80
820.39	229.68
820.71	229.71
821.03	229.69
821.34	229.64
821.66	229.63
821.98	229.68
822.30	229.75
822.61	229.91
822.93	229.68
823.25	229.61
823.57	229.56
823.88	229.55
824.20	229.46
824.52	229.45
824.83	229.33
825.15	229.24
825.47	229.18
825.79	229.30
826.10	229.31
826.42	229.38
826.74	229.31
827.05	229.27
827.37	229.30
827.69	229.31
828.00	229.30
828.32	229.31
828.64	229.35
828.95	229.31
829.27	229.19
829.58	229.23
829.90	229.38
830.22	229.39
830.53	229.37
830.85	229.44
831.17	229.41
831.48	229.51
831.80	229.57
832.11	229.59
832.43	229.42
832.75	229.50
833.06	229.67
833.38	229.70
833.69	229.69
834.01	229.63
834.32	229.50
834.64	229.50
834.96	229.47
835.27	229.50
835.59	229.44
835.90	229.45
836.22	229.46
836.53	229.35
836.85	229.50
837.16	229.66
837.48	229.64
837.79	229.66
838.11	229.67
838.42	229.61
838.74	229.67
839.05	229.77
839.37	229.77
839.68	229.62
840.00	229.67
840.31	229.88
840.63	229.99
840.94	230.12
841.26	230.23
841.57	230.25
841.88	230.19
842.20	230.19
842.51	230.12
842.83	230.06
843.14	230.28
843.46	230.19
843.77	230.11
844.08	230.04
844.40	229.98
844.71	229.98
845.03	230.00
845.34	229.97
845.65	229.88
845.97	229.80
846.28	229.81
846.60	229.84
846.91	229.63
847.22	229.51
847.54	229.49
847.85	229.30
848.16	229.26
848.48	229.24
848.79	229.30
849.10	229.41
849.42	229.47
849.73	229.24
850.04	229.19
850.36	229.17
850.67	229.21
850.98	229.26
851.30	229.26
851.61	229.25
851.92	229.22
852.23	229.34
852.55	229.25
852.86	229.18
853.17	229.11
853.49	229.15
853.80	229.20
854.11	229.12
854.42	229.18
854.74	229.11
855.05	229.03
855.36	228.88
855.67	228.80
855.99	228.67
856.30	228.84
856.61	228.77
856.92	228.68
857.23	228.73
857.55	228.63
857.86	228.55
858.17	228.61
858.48	228.57
858.79	228.44
859.11	228.56
859.42	228.64
859.73	228.50
860.04	228.51
860.35	228.50
860.66	228.36
860.98	228.33
861.29	228.46
861.60	228.50
861.91	228.48
862.22	228.43
862.53	228.51
862.84	228.30
863.16	228.30
863.47	228.36
863.78	228.28
864.09	228.24
864.40	228.27
864.71	228.12
865.02	228.11
865.33	228.08
865.64	227.88
865.95	227.87
866.27	228.01
866.58	228.02
866.89	228.04
867.20	228.15
867.51	228.15
867.82	228.06
868.13	228.02
868.44	228.09
868.75	228.01
869.06	227.96
869.37	227.96
869.68	227.91
869.99	227.94
870.30	227.93
870.61	228.02
870.92	227.99
871.23	228.07
871.54	228.13
871.85	228.17
872.16	228.30
872.47	228.28
872.78	228.26
873.09	228.32
873.40	228.27
873.71	228.30
874.02	228.40
874.33	228.36
874.64	228.49
874.95	228.50
875.26	228.56
875.56	228.65
875.87	228.76
876.18	228.93
876.49	229.15
876.80	229.17
877.11	229.15
877.42	229.25
877.73	229.36
878.04	229.31
878.35	229.39
878.66	229.42
878.96	229.41
879.27	229.48
879.58	229.45
879.89	229.42
880.20	229.48
880.51	229.38
880.82	229.48
881.12	229.38
881.43	229.45
881.74	229.47
882.05	229.44
882.36	229.41
882.67	229.42
882.97	229.20
883.28	229.27
883.59	229.30
883.90	229.25
884.21	229.22
884.51	229.36
884.82	229.29
885.13	229.31
885.44	229.27
885.74	229.17
886.05	229.13
886.36	229.19
886.67	229.23
886.98	229.38
887.28	229.32
887.59	229.42
887.90	229.40
888.20	229.45
888.51	229.53
888.82	229.48
889.13	229.36
889.43	229.50
889.74	229.47
890.05	229.38
890.35	229.39
890.66	229.23
890.97	229.15
891.28	229.24
891.58	229.25
891.89	229.34
892.20	229.34
892.50	229.37
892.81	229.30
893.12	229.10
893.42	228.98
893.73	229.03
894.04	228.99
894.34	228.92
894.65	228.83
894.95	228.76
895.26	228.76
895.57	228.86
895.87	228.58
896.18	228.49
896.48	228.50
896.79	228.39
897.10	228.46
897.40	228.35
897.71	228.35
898.01	228.24
898.32	228.17
898.63	228.14
898.93	228.09
899.24	228.12
899.54	228.16
899.85	228.17
900.15	228.12
900.46	228.09
900.76	228.07
901.07	228.01
901.38	227.96
901.68	227.96
901.99	227.85
902.29	227.90
902.60	227.90
902.90	227.94
903.21	227.98
903.51	227.91
903.82	228.02
904.12	227.98
904.43	227.96
904.73	228.00
905.03	228.01
905.34	228.12
905.64	228.11
905.95	228.11
906.25	227.99
906.56	227.95
906.86	227.91
907.17	227.91
907.47	228.03
907.77	228.01
908.08	227.98
908.38	227.97
908.69	228.04
908.99	228.10
909.30	228.03
909.60	228.01
909.90	228.05
910.21	227.89
910.51	227.88
910.81	227.97
911.12	227.88
911.42	227.88
911.73	227.79
912.03	227.84
912.33	227.95
912.64	228.08
912.94	228.11
913.24	228.17
913.55	228.21
913.85	228.14
914.15	228.18
914.46	228.29
914.76	228.43
915.06	228.40
915.37	228.39
915.67	228.37
915.97	228.38
916.27	228.40
916.58	228.45
916.88	228.43
917.18	228.43
917.49	228.67
917.79	228.70
918.09	228.72
918.39	228.71
918.70	228.75
919.00	228.75
919.30	228.87
919.60	228.87
919.91	228.82
920.21	228.84
920.51	228.91
920.81	228.80
921.12	228.88
921.42	228.84
921.72	228.87
922.02	228.99
922.32	229.01
922.63	228.93
922.93	229.15
923.23	229.24
923.53	229.22
923.83	229.00
924.13	229.04
924.44	229.10
924.74	229.27
925.04	229.27
925.34	229.28
925.64	229.20
925.94	229.21
926.24	229.37
926.55	229.47
926.85	229.42
927.15	229.49
927.45	229.34
927.75	229.37
928.05	229.36
928.35	229.29
928.65	229.30
928.95	229.44
929.26	229.39
929.56	229.36
929.86	229.33
930.16	229.37
930.46	229.35
930.76	229.26
931.06	229.05
931.36	228.90
931.66	228.91
931.96	228.91
932.26	228.90
932.56	228.84
932.86	228.67
933.16	228.67
933.46	228.59
933.76	228.49
934.06	228.48
934.36	228.56
934.66	228.46
934.96	228.40
935.26	228.27
935.56	228.11
935.86	228.02
936.16	228.00
936.46	227.97
936.76	227.91
937.06	227.88
937.36	227.86
937.66	227.91
937.96	227.82
938.26	227.70
938.56	227.59
938.86	227.47
939.16	227.59
939.46	227.42
939.76	227.37
940.06	227.39
940.35	227.33
940.65	227.11
940.95	227.15
941.25	227.18
941.55	227.11
941.85	227.11
942.15	227.13
942.45	227.17
942.75	227.13
943.04	227.16
943.34	227.19
943.64	227.05
943.94	226.99
944.24	226.99
944.54	226.96
944.84	227.00
945.13	227.00
945.43	226.97
945.73	227.07
946.03	227.12
946.33	227.14
946.62	227.18
946.92	227.16
947.22	227.21
947.52	227.24
947.82	227.40
948.11	227.39
948.41	227.36
948.71	227.38
949.01	227.40
949.31	227.30
949.60	227.33
949.90	227.45
950.20	227.39
950.50	227.42
950.79	227.52
951.09	227.54
951.39	227.48
951.69	227.40
951.98	227.48
952.28	227.48
952.58	227.52
952.87	227.54
953.17	227.68
953.47	227.73
953.76	227.69
954.06	227.66
954.36	227.71
954.66	227.77
954.95	227.80
955.25	227.92
955.55	227.95
955.84	227.89
956.14	227.91
956.44	228.00
956.73	228.01
957.03	228.04
957.32	228.18
957.62	228.29
957.92	228.40
958.21	228.38
958.51	228.60
958.81	228.52
959.10	228.59
959.40	228.63
959.69	228.64
959.99	228.77
960.29	228.85
960.58	228.80
960.88	228.87
961.17	228.89
961.47	228.92
961.76	228.97
962.06	229.06
962.36	229.11
962.65	229.19
962.95	229.20
963.24	229.20
963.54	229.15
963.83	229.16
964.13	229.10
964.42	229.17
964.72	229.06
965.01	229.08
965.31	229.00
965.60	228.95
965.90	229.08
966.19	228.87
966.49	228.81
966.78	228.77
967.08	228.66
967.37	228.60
967.67	228.50
967.96	228.54
968.26	228.51
968.55	228.52
968.85	228.50
969.14	228.40
969.43	228.39
969.73	228.36
970.02	228.32
970.32	228.30
970.61	228.24
970.91	228.10
971.20	228.12
971.49	228.10
971.79	228.14
972.08	227.92
972.38	227.97
972.67	227.89
972.96	227.97
973.26	228.09
973.55	228.15
973.85	228.07
974.14	228.05
974.43	227.99
974.73	227.87
975.02	227.87
975.31	227.80
975.61	227.70
975.90	227.61
976.19	227.61
976.49	227.72
976.78	227.69
977.07	227.77
977.37	227.73
977.66	227.70
977.95	227.65
978.24	227.70
978.54	227.72
978.83	227.78
979.12	227.79
979.42	227.69
979.71	227.60
980.00	227.59
980.29	227.50
980.59	227.48
980.88	227.60
981.17	227.54
981.46	227.66
981.76	227.71
982.05	227.77
982.34	227.70
982.63	227.58
982.93	227.65
983.22	227.74
983.51	227.73
983.80	227.84
984.09	227.81
984.39	227.83
984.68	227.82
984.97	227.84
985.26	227.88
985.55	227.94
985.85	227.91
986.14	228.01
986.43	228.17
986.72	228.30
987.01	228.20
987.30	228.22
987.59	228.22
987.89	228.27
988.18	228.29
988.47	228.38
988.76	228.35
989.05	228.31
989.34	228.24
989.63	228.41
989.92	228.38
990.22	228.38
990.51	228.40
990.80	228.41
991.09	228.42
991.38	228.37
991.67	228.40
991.96	228.42
992.25	228.54
992.54	228.49
992.83	228.47
993.12	228.46
993.41	228.46
993.70	228.54
993.99	228.53
994.28	228.52
994.58	228.51
994.87	228.58
995.16	228.56
995.45	228.55
995.74	228.32
996.03	228.37
996.32	228.47
996.61	228.49
996.90	228.48
997.19	228.50
997.48	228.51
997.77	228.42
998.06	228.35
998.34	228.21
998.63	228.27
998.92	228.17
999.21	228.22
999.50	228.20
999.79	228.10
1000.08	228.13
1000.37	228.24
1000.66	228.23
1000.95	228.27
1001.24	228.26
1001.53	228.24
1001.82	228.36
1002.11	228.32
1002.40	228.24
1002.68	228.23
1002.97	228.49
1003.26	228.35
1003.55	228.28
1003.84	228.25
1004.13	228.28
1004.42	228.22
1004.71	228.10
1004.99	228.13
1005.28	228.16
1005.57	228.15
1005.86	228.14
1006.15	228.11
1006.44	227.91
1006.72	227.96
1007.01	227.90
1007.30	227.84
1007.59	227.78
1007.88	227.67
1008.17	227.62
1008.45	227.61
1008.74	227.50
1009.03	227.30
1009.32	227.31
1009.60	227.33
1009.89	227.28
1010.18	227.24
1010.47	227.23
1010.76	227.22
1011.04	227.28
1011.33	227.25
1011.62	227.32
1011.91	227.22
1012.19	227.20
1012.48	227.25
1012.77	227.11
1013.05	227.15
1013.34	227.14
1013.63	227.12
1013.92	227.16
1014.20	227.20
1014.49	227.21
1014.78	227.27
1015.06	227.14
1015.35	227.18
1015.64	227.19
1015.92	227.16
1016.21	227.17
1016.50	227.26
1016.78	227.31
1017.07	227.20
1017.36	227.17
1017.64	227.06
1017.93	227.20
1018.22	227.30
1018.50	227.30
1018.79	227.34
1019.08	227.29
1019.36	227.38
1019.65	227.45
1019.93	227.52
1020.22	227.47
1020.51	227.52
1020.79	227.51
1021.08	229.20
1021.36	226.90
1021.65	227.50
1021.94	227.40
1022.22	228.40
1022.51	228.00
1022.79	228.00
1023.08	227.30
1023.36	229.00
1023.65	227.60
>>>>>End Processed Spectral Data<<<<<
