SpectraSuite Data File
++++++++++++++++++++++++++++++++++++
Date: Fri Feb 01 14:38:06 EST 2013
User: group
Dark Spectrum Present: No
Reference Spectrum Present: No
Number of Sampled Component Spectra: 1
Spectrometers: USB2E7196
Integration Time (usec): 70000 (USB2E7196)
Spectra Averaged: 10 (USB2E7196)
Boxcar Smoothing: 10 (USB2E7196)
Correct for Electrical Dark: No (USB2E7196)
Strobe/Lamp Enabled: No (USB2E7196)
Correct for Detector Non-linearity: No (USB2E7196)
Correct for Stray Light: No (USB2E7196)
Number of Pixels in Processed Spectrum: 2048
>>>>>Begin Processed Spectral Data<<<<<
339.09	0.00
339.48	215.50
339.86	218.00
340.24	217.80
340.63	220.80
341.01	224.40
341.39	225.10
341.78	223.90
342.16	226.70
342.54	227.20
342.93	214.67
343.31	225.57
343.69	226.14
344.07	226.64
344.46	227.11
344.84	227.42
345.22	227.64
345.60	227.80
345.99	228.02
346.37	228.08
346.75	228.10
347.13	228.21
347.52	228.22
347.90	228.29
348.28	228.25
348.66	228.26
349.05	228.27
349.43	228.35
349.81	228.43
350.19	228.41
350.57	228.35
350.96	228.39
351.34	228.41
351.72	228.44
352.10	228.42
352.48	228.48
352.87	228.58
353.25	228.60
353.63	228.62
354.01	228.58
354.39	228.66
354.77	228.78
355.15	228.84
355.54	228.90
355.92	228.88
356.30	228.98
356.68	229.17
357.06	229.18
357.44	229.14
357.82	229.16
358.20	229.22
358.58	229.31
358.97	229.44
359.35	229.49
359.73	229.57
360.11	229.71
360.49	229.71
360.87	229.72
361.25	229.81
361.63	229.99
362.01	230.16
362.39	230.20
362.77	230.22
363.15	230.29
363.53	230.43
363.91	230.46
364.29	230.52
364.67	230.36
365.05	230.44
365.43	230.45
365.81	230.44
366.19	230.46
366.57	230.47
366.95	230.40
367.33	230.35
367.71	230.32
368.09	230.33
368.47	230.39
368.85	230.39
369.23	230.24
369.61	230.04
369.99	230.02
370.37	230.00
370.75	229.86
371.13	229.70
371.51	229.48
371.89	229.45
372.27	229.43
372.65	229.32
373.03	229.26
373.41	229.20
373.78	229.14
374.16	229.01
374.54	228.90
374.92	228.80
375.30	228.64
375.68	228.52
376.06	228.34
376.44	228.24
376.82	228.07
377.19	228.04
377.57	228.02
377.95	227.81
378.33	227.64
378.71	227.60
379.09	227.64
379.47	227.52
379.84	227.38
380.22	227.27
380.60	227.30
380.98	227.22
381.36	227.11
381.73	227.04
382.11	227.07
382.49	226.94
382.87	226.82
383.25	226.81
383.62	226.94
384.00	226.83
384.38	226.77
384.76	226.75
385.13	226.82
385.51	226.70
385.89	226.69
386.27	226.74
386.64	226.76
387.02	226.58
387.40	226.50
387.78	226.50
388.15	226.40
388.53	226.30
388.91	226.28
389.29	226.32
389.66	226.29
390.04	226.13
390.42	226.17
390.79	226.13
391.17	226.12
391.55	225.89
391.92	225.88
392.30	225.87
392.68	225.89
393.05	225.85
393.43	225.86
393.81	225.88
394.18	225.82
394.56	225.81
394.94	225.94
395.31	226.17
395.69	226.37
396.06	226.41
396.44	226.41
396.82	226.43
397.19	226.53
397.57	226.67
397.95	226.82
398.32	226.92
398.70	227.06
399.07	227.20
399.45	227.42
399.82	227.54
400.20	227.63
400.58	227.68
400.95	227.62
401.33	227.80
401.70	228.00
402.08	228.13
402.45	228.20
402.83	228.42
403.20	228.44
403.58	228.44
403.95	228.60
404.33	228.82
404.71	229.00
405.08	229.27
405.46	229.44
405.83	229.58
406.21	229.80
406.58	230.04
406.96	230.34
407.33	230.60
407.70	230.90
408.08	231.32
408.45	231.71
408.83	232.10
409.20	232.40
409.58	232.59
409.95	232.90
410.33	233.30
410.70	233.47
411.08	233.91
411.45	234.31
411.82	234.65
412.20	235.10
412.57	235.64
412.95	235.90
413.32	236.42
413.69	236.88
414.07	237.42
414.44	238.06
414.82	238.61
415.19	239.31
415.56	239.98
415.94	240.56
416.31	241.37
416.68	242.20
417.06	243.19
417.43	244.11
417.81	245.20
418.18	246.20
418.55	247.33
418.93	248.59
419.30	249.81
419.67	251.19
420.04	252.59
420.42	253.90
420.79	255.61
421.16	257.12
421.54	258.95
421.91	260.77
422.28	262.46
422.66	264.34
423.03	266.15
423.40	268.18
423.77	270.30
424.15	272.24
424.52	274.53
424.89	276.80
425.26	279.20
425.64	281.27
426.01	283.70
426.38	286.22
426.75	288.73
427.13	291.24
427.50	293.92
427.87	296.73
428.24	299.58
428.61	302.18
428.99	305.18
429.36	308.40
429.73	311.48
430.10	314.59
430.47	317.63
430.85	320.90
431.22	324.24
431.59	327.87
431.96	331.40
432.33	335.08
432.70	338.81
433.08	343.05
433.45	347.20
433.82	351.48
434.19	356.09
434.56	360.33
434.93	364.55
435.30	368.70
435.68	373.25
436.05	377.72
436.42	382.29
436.79	386.33
437.16	390.74
437.53	395.49
437.90	400.00
438.27	404.70
438.64	409.16
439.01	413.56
439.38	417.38
439.75	421.16
440.13	425.51
440.50	429.47
440.87	432.87
441.24	436.50
441.61	440.07
441.98	442.70
442.35	446.06
442.72	449.61
443.09	452.90
443.46	455.01
443.83	456.58
444.20	457.83
444.57	459.61
444.94	460.61
445.31	461.54
445.68	462.80
446.05	463.20
446.42	463.47
446.79	463.32
447.16	463.13
447.53	463.09
447.90	461.62
448.27	460.44
448.64	458.43
449.01	456.91
449.37	454.26
449.74	451.73
450.11	448.79
450.48	445.14
450.85	441.55
451.22	438.53
451.59	435.65
451.96	432.90
452.33	429.16
452.70	425.70
453.07	421.34
453.43	416.81
453.80	412.92
454.17	408.78
454.54	405.09
454.91	400.96
455.28	397.04
455.65	393.25
456.02	389.37
456.38	385.92
456.75	381.88
457.12	378.38
457.49	374.97
457.86	371.56
458.23	368.77
458.59	365.70
458.96	362.34
459.33	359.42
459.70	356.50
460.07	354.23
460.43	351.39
460.80	348.80
461.17	346.68
461.54	344.15
461.91	341.76
462.27	339.24
462.64	337.26
463.01	334.99
463.38	332.92
463.74	330.67
464.11	328.87
464.48	327.16
464.85	325.47
465.21	323.96
465.58	322.34
465.95	320.39
466.32	318.83
466.68	317.41
467.05	315.88
467.42	314.44
467.78	312.83
468.15	311.32
468.52	310.29
468.88	308.77
469.25	307.43
469.62	306.45
469.98	305.37
470.35	304.11
470.72	302.92
471.08	301.71
471.45	300.77
471.82	299.84
472.18	298.65
472.55	297.76
472.92	296.90
473.28	295.98
473.65	295.17
474.02	294.25
474.38	293.41
474.75	292.65
475.11	291.85
475.48	291.18
475.85	290.80
476.21	290.16
476.58	289.66
476.94	289.24
477.31	288.62
477.67	287.98
478.04	287.50
478.41	287.31
478.77	287.15
479.14	286.63
479.50	286.15
479.87	285.95
480.23	285.62
480.60	285.28
480.96	285.03
481.33	284.87
481.69	284.67
482.06	284.41
482.42	284.22
482.79	284.09
483.15	284.08
483.52	283.87
483.88	283.69
484.25	283.53
484.61	283.49
484.98	283.43
485.34	283.57
485.71	283.76
486.07	283.64
486.44	283.58
486.80	283.93
487.17	284.11
487.53	284.48
487.90	284.70
488.26	285.00
488.62	285.39
488.99	285.62
489.35	285.97
489.72	286.20
490.08	286.60
490.44	286.84
490.81	287.02
491.17	287.36
491.54	287.83
491.90	288.19
492.26	288.49
492.63	288.97
492.99	289.25
493.36	289.51
493.72	290.11
494.08	290.57
494.45	290.85
494.81	291.26
495.17	291.47
495.54	292.00
495.90	292.35
496.26	292.68
496.63	293.04
496.99	293.43
497.35	294.09
497.72	294.63
498.08	295.23
498.44	295.90
498.80	296.39
499.17	296.83
499.53	297.41
499.89	297.93
500.26	298.31
500.62	298.79
500.98	299.38
501.34	299.72
501.71	300.11
502.07	300.52
502.43	300.81
502.79	301.17
503.16	301.55
503.52	301.89
503.88	302.16
504.24	302.49
504.60	302.65
504.97	302.83
505.33	302.89
505.69	303.09
506.05	303.25
506.41	303.42
506.78	303.60
507.14	303.68
507.50	303.98
507.86	304.10
508.22	304.30
508.59	304.43
508.95	304.62
509.31	304.89
509.67	305.10
510.03	305.28
510.39	305.53
510.75	305.61
511.12	305.69
511.48	305.87
511.84	306.10
512.20	306.57
512.56	306.88
512.92	307.23
513.28	307.50
513.64	307.78
514.00	308.10
514.37	308.51
514.73	308.90
515.09	309.24
515.45	309.79
515.81	310.22
516.17	310.68
516.53	311.29
516.89	311.89
517.25	312.50
517.61	313.33
517.97	313.95
518.33	314.73
518.69	315.80
519.05	316.75
519.41	317.77
519.77	318.79
520.13	319.81
520.49	320.86
520.85	321.95
521.21	323.43
521.57	324.89
521.93	326.28
522.29	327.80
522.65	329.38
523.01	331.00
523.37	332.78
523.73	334.48
524.09	336.21
524.45	338.00
524.81	339.91
525.17	342.02
525.53	344.28
525.89	346.42
526.25	348.58
526.61	350.80
526.97	353.22
527.33	355.72
527.68	358.55
528.04	361.40
528.40	364.36
528.76	367.03
529.12	369.85
529.48	372.94
529.84	376.10
530.20	379.14
530.56	382.59
530.91	386.12
531.27	389.66
531.63	393.18
531.99	396.75
532.35	400.50
532.71	404.18
533.07	407.98
533.42	412.15
533.78	416.27
534.14	420.45
534.50	424.50
534.86	428.77
535.21	432.70
535.57	436.96
535.93	441.27
536.29	445.62
536.65	450.16
537.00	454.60
537.36	459.33
537.72	464.00
538.08	468.70
538.44	473.25
538.79	478.10
539.15	482.90
539.51	487.93
539.87	492.92
540.22	498.03
540.58	503.13
540.94	508.05
541.29	513.08
541.65	518.12
542.01	523.37
542.37	528.61
542.72	534.15
543.08	539.58
543.44	544.95
543.79	550.18
544.15	555.84
544.51	561.36
544.87	566.79
545.22	572.38
545.58	577.78
545.94	583.04
546.29	588.29
546.65	593.93
547.01	599.14
547.36	604.59
547.72	609.83
548.07	615.26
548.43	620.40
548.79	625.76
549.14	631.16
549.50	636.60
549.86	641.81
550.21	647.01
550.57	652.36
550.92	657.74
551.28	663.24
551.64	668.37
551.99	673.83
552.35	678.78
552.70	684.08
553.06	689.43
553.41	694.95
553.77	700.64
554.13	705.77
554.48	711.19
554.84	716.46
555.19	721.60
555.55	726.77
555.90	731.85
556.26	737.05
556.61	742.15
556.97	747.08
557.32	752.29
557.68	757.00
558.03	762.02
558.39	766.78
558.74	771.78
559.10	776.65
559.45	781.29
559.81	786.43
560.16	791.23
560.52	795.57
560.87	800.44
561.23	804.79
561.58	809.40
561.94	813.70
562.29	817.76
562.64	822.23
563.00	826.79
563.35	831.76
563.71	836.14
564.06	840.68
564.42	844.95
564.77	849.19
565.12	853.90
565.48	858.20
565.83	862.28
566.19	866.20
566.54	869.90
566.89	874.05
567.25	877.94
567.60	881.92
567.96	886.12
568.31	889.73
568.66	893.38
569.02	896.95
569.37	900.53
569.72	904.46
570.08	907.40
570.43	910.52
570.78	913.49
571.14	916.38
571.49	919.36
571.84	922.65
572.20	925.54
572.55	928.00
572.90	930.38
573.26	933.18
573.61	935.74
573.96	938.20
574.31	940.05
574.67	941.72
575.02	943.59
575.37	945.27
575.72	946.76
576.08	948.56
576.43	950.25
576.78	952.11
577.13	953.93
577.49	956.04
577.84	957.57
578.19	958.88
578.54	960.41
578.90	961.43
579.25	962.09
579.60	962.96
579.95	963.91
580.30	964.66
580.66	965.41
581.01	965.98
581.36	966.80
581.71	967.57
582.06	968.48
582.42	968.60
582.77	969.27
583.12	969.92
583.47	970.33
583.82	970.91
584.17	971.10
584.53	971.23
584.88	971.55
585.23	971.72
585.58	972.04
585.93	972.10
586.28	972.41
586.63	972.89
586.98	972.99
587.34	973.30
587.69	973.57
588.04	973.53
588.39	973.57
588.74	973.23
589.09	973.04
589.44	972.53
589.79	972.41
590.14	972.27
590.49	971.79
590.84	971.12
591.19	970.51
591.54	969.84
591.89	968.63
592.25	967.70
592.60	966.60
592.95	965.24
593.30	964.03
593.65	962.87
594.00	961.28
594.35	960.48
594.70	958.70
595.05	957.81
595.40	956.41
595.75	955.00
596.10	953.87
596.45	952.71
596.80	951.81
597.15	950.58
597.50	949.00
597.85	947.91
598.19	947.04
598.54	945.80
598.89	944.18
599.24	943.26
599.59	941.83
599.94	940.67
600.29	939.25
600.64	937.84
600.99	936.10
601.34	935.00
601.69	933.01
602.04	931.72
602.39	929.71
602.74	927.90
603.08	926.30
603.43	925.00
603.78	923.12
604.13	921.08
604.48	919.21
604.83	917.50
605.18	915.52
605.53	913.19
605.87	910.67
606.22	909.07
606.57	906.62
606.92	904.79
607.27	902.68
607.62	900.97
607.96	899.17
608.31	897.39
608.66	894.96
609.01	892.64
609.36	889.95
609.70	887.12
610.05	884.60
610.40	882.11
610.75	879.10
611.10	876.54
611.44	873.62
611.79	871.02
612.14	867.93
612.49	864.92
612.83	862.19
613.18	859.67
613.53	856.84
613.88	853.94
614.22	850.80
614.57	847.74
614.92	844.79
615.27	841.77
615.61	838.66
615.96	835.57
616.31	832.90
616.65	830.71
617.00	828.29
617.35	825.70
617.70	822.70
618.04	819.48
618.39	816.58
618.74	814.05
619.08	811.09
619.43	808.55
619.78	805.85
620.12	803.10
620.47	799.96
620.82	796.80
621.16	794.16
621.51	791.42
621.85	788.76
622.20	785.47
622.55	782.76
622.89	779.91
623.24	777.50
623.59	774.74
623.93	771.85
624.28	768.77
624.62	766.06
624.97	763.68
625.32	761.40
625.66	758.77
626.01	756.14
626.35	753.39
626.70	750.40
627.04	747.75
627.39	744.93
627.73	742.17
628.08	739.68
628.43	736.96
628.77	734.06
629.12	730.81
629.46	728.20
629.81	724.61
630.15	721.63
630.50	718.49
630.84	715.02
631.19	711.69
631.53	708.60
631.88	705.42
632.22	701.93
632.57	698.90
632.91	695.88
633.26	692.60
633.60	689.51
633.95	686.54
634.29	683.44
634.64	680.59
634.98	677.79
635.32	674.95
635.67	672.11
636.01	669.07
636.36	666.33
636.70	663.60
637.05	661.19
637.39	658.60
637.73	655.75
638.08	653.33
638.42	650.98
638.77	648.30
639.11	645.50
639.45	642.94
639.80	639.90
640.14	637.13
640.49	634.38
640.83	631.74
641.17	629.04
641.52	626.22
641.86	623.24
642.20	620.56
642.55	617.59
642.89	614.60
643.23	612.03
643.58	609.54
643.92	606.73
644.26	604.00
644.61	601.42
644.95	598.95
645.29	595.93
645.64	592.77
645.98	590.10
646.32	587.46
646.66	584.69
647.01	582.03
647.35	579.30
647.69	576.71
648.04	574.05
648.38	571.25
648.72	568.39
649.06	565.68
649.41	562.80
649.75	559.89
650.09	557.03
650.43	554.18
650.78	551.30
651.12	548.47
651.46	545.74
651.80	542.88
652.14	540.07
652.49	537.59
652.83	535.12
653.17	532.44
653.51	529.65
653.85	527.20
654.20	524.60
654.54	522.04
654.88	519.27
655.22	516.44
655.56	513.86
655.90	511.32
656.25	508.65
656.59	506.14
656.93	503.94
657.27	501.69
657.61	499.30
657.95	496.90
658.29	494.54
658.64	492.13
658.98	489.51
659.32	486.83
659.66	484.32
660.00	481.91
660.34	479.49
660.68	477.05
661.02	474.34
661.36	472.00
661.70	469.63
662.05	467.60
662.39	465.61
662.73	463.44
663.07	461.50
663.41	459.62
663.75	457.63
664.09	455.28
664.43	453.26
664.77	451.26
665.11	449.21
665.45	447.11
665.79	445.13
666.13	443.12
666.47	441.29
666.81	439.32
667.15	437.30
667.49	435.39
667.83	433.76
668.17	432.10
668.51	430.24
668.85	428.46
669.19	426.56
669.53	424.66
669.87	422.86
670.21	421.05
670.55	419.21
670.89	417.72
671.23	416.15
671.57	414.39
671.91	412.70
672.25	411.06
672.58	409.49
672.92	407.98
673.26	406.48
673.60	405.07
673.94	403.38
674.28	401.91
674.62	400.56
674.96	398.99
675.30	397.49
675.64	395.96
675.97	394.35
676.31	392.92
676.65	391.45
676.99	390.13
677.33	388.65
677.67	387.00
678.01	385.23
678.34	383.65
678.68	382.07
679.02	380.50
679.36	378.94
679.70	377.46
680.04	375.78
680.37	374.37
680.71	372.82
681.05	371.70
681.39	370.38
681.73	368.92
682.06	367.73
682.40	366.40
682.74	365.11
683.08	363.78
683.42	362.51
683.75	361.20
684.09	359.57
684.43	358.11
684.77	356.93
685.10	355.51
685.44	354.22
685.78	353.01
686.12	351.74
686.45	350.37
686.79	349.11
687.13	347.97
687.46	346.63
687.80	345.36
688.14	343.91
688.48	342.77
688.81	341.53
689.15	340.14
689.49	338.85
689.82	337.67
690.16	336.48
690.50	335.38
690.83	334.21
691.17	333.02
691.51	331.99
691.84	331.00
692.18	329.94
692.52	328.89
692.85	327.76
693.19	326.78
693.52	325.83
693.86	324.58
694.20	323.45
694.53	322.53
694.87	321.43
695.21	320.35
695.54	319.13
695.88	318.13
696.21	317.06
696.55	316.10
696.88	315.25
697.22	314.13
697.56	312.98
697.89	311.98
698.23	311.18
698.56	310.22
698.90	309.15
699.23	308.20
699.57	307.30
699.90	306.30
700.24	305.36
700.58	304.43
700.91	303.77
701.25	303.08
701.58	302.29
701.92	301.48
702.25	300.73
702.59	299.85
702.92	299.04
703.26	298.30
703.59	297.61
703.93	296.91
704.26	296.29
704.60	295.60
704.93	294.88
705.26	294.17
705.60	293.49
705.93	292.78
706.27	292.32
706.60	291.75
706.94	291.34
707.27	290.63
707.61	290.16
707.94	289.53
708.27	288.73
708.61	287.98
708.94	287.48
709.28	286.99
709.61	286.65
709.94	286.13
710.28	285.58
710.61	284.98
710.95	284.16
711.28	283.82
711.61	283.22
711.95	282.83
712.28	282.32
712.61	281.63
712.95	281.19
713.28	280.54
713.61	279.95
713.95	279.30
714.28	278.77
714.61	278.10
714.95	277.67
715.28	277.23
715.61	276.70
715.95	276.12
716.28	275.45
716.61	274.82
716.95	274.27
717.28	273.80
717.61	273.27
717.94	272.93
718.28	272.23
718.61	271.80
718.94	271.18
719.27	270.68
719.61	270.45
719.94	269.96
720.27	269.45
720.60	269.03
720.94	268.62
721.27	268.22
721.60	267.90
721.93	267.38
722.27	267.00
722.60	266.61
722.93	266.24
723.26	265.98
723.59	265.55
723.93	265.21
724.26	264.77
724.59	264.32
724.92	263.90
725.25	263.46
725.59	263.05
725.92	262.78
726.25	262.40
726.58	261.99
726.91	261.68
727.24	261.31
727.57	260.87
727.91	260.45
728.24	260.06
728.57	259.69
728.90	259.33
729.23	258.97
729.56	258.78
729.89	258.49
730.22	258.10
730.55	257.75
730.89	257.47
731.22	257.20
731.55	256.92
731.88	256.66
732.21	256.33
732.54	255.98
732.87	255.70
733.20	255.34
733.53	255.06
733.86	254.63
734.19	254.47
734.52	254.22
734.85	254.05
735.18	253.77
735.51	253.47
735.84	253.21
736.17	252.98
736.50	252.50
736.83	252.39
737.16	252.05
737.49	251.72
737.82	251.33
738.15	251.09
738.48	250.70
738.81	250.43
739.14	250.22
739.47	250.01
739.80	249.69
740.13	249.53
740.46	249.30
740.79	249.17
741.12	248.84
741.45	248.66
741.78	248.32
742.11	248.10
742.44	247.86
742.77	247.70
743.10	247.33
743.43	247.22
743.75	246.79
744.08	246.96
744.41	246.88
744.74	246.69
745.07	246.50
745.40	246.45
745.73	246.44
746.06	246.35
746.39	246.19
746.71	246.03
747.04	245.75
747.37	245.47
747.70	245.30
748.03	245.15
748.36	245.08
748.68	244.97
749.01	244.82
749.34	244.60
749.67	244.38
750.00	244.36
750.33	244.27
750.65	244.11
750.98	243.62
751.31	243.42
751.64	243.36
751.97	243.31
752.29	243.17
752.62	242.80
752.95	242.53
753.28	242.40
753.60	242.21
753.93	242.16
754.26	242.08
754.59	241.86
754.91	241.65
755.24	241.37
755.57	241.24
755.90	241.18
756.22	241.06
756.55	240.89
756.88	240.76
757.20	240.55
757.53	240.37
757.86	240.31
758.19	240.24
758.51	240.08
758.84	239.82
759.17	239.66
759.49	239.61
759.82	239.60
760.15	239.43
760.47	239.31
760.80	239.12
761.13	239.00
761.45	238.91
761.78	238.89
762.11	238.75
762.43	238.63
762.76	238.41
763.08	238.32
763.41	238.26
763.74	238.12
764.06	237.89
764.39	237.76
764.71	237.56
765.04	237.35
765.37	237.10
765.69	236.84
766.02	236.70
766.34	236.60
766.67	236.48
767.00	236.41
767.32	236.39
767.65	236.39
767.97	236.24
768.30	236.08
768.62	235.97
768.95	235.89
769.27	235.64
769.60	235.59
769.92	235.49
770.25	235.36
770.57	235.19
770.90	235.16
771.22	235.05
771.55	234.94
771.87	234.79
772.20	234.80
772.52	234.94
772.85	235.15
773.17	235.05
773.50	234.91
773.82	234.80
774.15	234.64
774.47	234.49
774.80	234.40
775.12	234.34
775.45	234.21
775.77	234.21
776.09	234.34
776.42	234.18
776.74	234.11
777.07	233.99
777.39	233.89
777.72	233.80
778.04	233.80
778.36	233.79
778.69	233.86
779.01	233.82
779.33	233.69
779.66	233.49
779.98	233.38
780.31	233.37
780.63	233.50
780.95	233.50
781.28	233.44
781.60	233.43
781.92	233.36
782.25	233.27
782.57	233.09
782.89	233.00
783.22	233.01
783.54	232.96
783.86	232.98
784.19	232.93
784.51	232.91
784.83	232.95
785.16	232.96
785.48	232.89
785.80	232.84
786.12	232.79
786.45	232.70
786.77	232.61
787.09	232.56
787.42	232.38
787.74	232.30
788.06	232.30
788.38	232.28
788.71	232.32
789.03	232.31
789.35	232.38
789.67	232.23
789.99	232.23
790.32	232.20
790.64	232.23
790.96	232.41
791.28	232.39
791.61	232.25
791.93	232.18
792.25	232.16
792.57	232.19
792.89	232.12
793.21	232.06
793.54	232.05
793.86	232.06
794.18	231.96
794.50	231.93
794.82	231.92
795.14	231.95
795.47	232.00
795.79	231.96
796.11	231.90
796.43	231.89
796.75	231.91
797.07	231.90
797.39	231.92
797.71	231.70
798.04	231.71
798.36	231.71
798.68	231.76
799.00	231.75
799.32	231.74
799.64	231.70
799.96	231.80
800.28	231.90
800.60	231.77
800.92	231.84
801.24	231.82
801.56	231.85
801.89	231.74
802.21	231.69
802.53	231.69
802.85	231.70
803.17	231.79
803.49	231.59
803.81	231.56
804.13	231.39
804.45	231.35
804.77	231.26
805.09	231.21
805.41	231.12
805.73	231.10
806.05	231.03
806.37	231.03
806.69	231.00
807.01	230.90
807.33	230.87
807.65	230.71
807.97	230.80
808.28	230.65
808.60	230.52
808.92	230.40
809.24	230.50
809.56	230.44
809.88	230.38
810.20	230.47
810.52	230.42
810.84	230.34
811.16	230.36
811.48	230.34
811.80	230.35
812.12	230.30
812.43	230.23
812.75	230.20
813.07	230.09
813.39	229.94
813.71	229.84
814.03	229.71
814.35	229.74
814.67	229.60
814.98	229.58
815.30	229.64
815.62	229.57
815.94	229.30
816.26	229.36
816.58	229.23
816.89	229.17
817.21	229.09
817.53	229.18
817.85	229.16
818.17	229.12
818.48	229.10
818.80	229.13
819.12	229.04
819.44	228.99
819.76	228.89
820.07	228.87
820.39	228.90
820.71	229.03
821.03	228.98
821.34	229.00
821.66	228.97
821.98	228.94
822.30	228.99
822.61	229.14
822.93	229.07
823.25	229.15
823.57	229.08
823.88	229.17
824.20	229.08
824.52	229.11
824.83	229.16
825.15	229.09
825.47	229.08
825.79	229.14
826.10	229.10
826.42	229.26
826.74	229.31
827.05	229.36
827.37	229.29
827.69	229.24
828.00	229.20
828.32	229.17
828.64	229.11
828.95	229.14
829.27	229.20
829.58	229.21
829.90	229.15
830.22	229.25
830.53	229.27
830.85	229.25
831.17	229.20
831.48	229.18
831.80	229.29
832.11	229.28
832.43	229.30
832.75	229.37
833.06	229.43
833.38	229.34
833.69	229.31
834.01	229.34
834.32	229.30
834.64	229.32
834.96	229.42
835.27	229.51
835.59	229.52
835.90	229.40
836.22	229.34
836.53	229.35
836.85	229.28
837.16	229.34
837.48	229.38
837.79	229.43
838.11	229.40
838.42	229.34
838.74	229.35
839.05	229.34
839.37	229.28
839.68	229.20
840.00	229.20
840.31	229.12
840.63	229.16
840.94	229.27
841.26	229.16
841.57	229.15
841.88	229.09
842.20	229.11
842.51	229.11
842.83	229.09
843.14	229.20
843.46	229.20
843.77	229.13
844.08	229.07
844.40	229.01
844.71	229.09
845.03	229.13
845.34	229.00
845.65	228.89
845.97	228.88
846.28	228.89
846.60	228.88
846.91	228.89
847.22	228.88
847.54	228.86
847.85	228.95
848.16	228.94
848.48	228.93
848.79	228.85
849.10	228.85
849.42	228.81
849.73	228.62
850.04	228.72
850.36	228.65
850.67	228.76
850.98	228.70
851.30	228.68
851.61	228.60
851.92	228.69
852.23	228.76
852.55	228.70
852.86	228.68
853.17	228.68
853.49	228.79
853.80	228.74
854.11	228.77
854.42	228.66
854.74	228.58
855.05	228.64
855.36	228.55
855.67	228.62
855.99	228.68
856.30	228.89
856.61	228.85
856.92	228.80
857.23	228.73
857.55	228.76
857.86	228.73
858.17	228.74
858.48	228.64
858.79	228.66
859.11	228.66
859.42	228.65
859.73	228.68
860.04	228.52
860.35	228.44
860.66	228.36
860.98	228.40
861.29	228.40
861.60	228.34
861.91	228.51
862.22	228.41
862.53	228.35
862.84	228.10
863.16	228.11
863.47	228.11
863.78	228.12
864.09	228.15
864.40	228.19
864.71	228.20
865.02	228.34
865.33	228.33
865.64	228.29
865.95	228.19
866.27	228.37
866.58	228.33
866.89	228.42
867.20	228.46
867.51	228.60
867.82	228.53
868.13	228.52
868.44	228.43
868.75	228.48
869.06	228.48
869.37	228.59
869.68	228.54
869.99	228.67
870.30	228.78
870.61	228.78
870.92	228.70
871.23	228.72
871.54	228.68
871.85	228.77
872.16	228.83
872.47	228.98
872.78	228.80
873.09	228.93
873.40	228.99
873.71	228.97
874.02	228.85
874.33	228.95
874.64	228.93
874.95	229.00
875.26	229.09
875.56	229.15
875.87	229.18
876.18	229.21
876.49	229.24
876.80	229.22
877.11	229.12
877.42	229.09
877.73	229.11
878.04	229.10
878.35	229.04
878.66	229.08
878.96	229.07
879.27	229.09
879.58	229.06
879.89	229.02
880.20	229.12
880.51	229.22
880.82	229.16
881.12	229.19
881.43	229.03
881.74	228.87
882.05	228.73
882.36	228.81
882.67	228.74
882.97	228.57
883.28	228.49
883.59	228.47
883.90	228.43
884.21	228.38
884.51	228.29
884.82	228.26
885.13	228.28
885.44	228.18
885.74	228.18
886.05	228.23
886.36	228.15
886.67	227.96
886.98	228.03
887.28	228.09
887.59	228.03
887.90	228.16
888.20	228.12
888.51	228.22
888.82	227.97
889.13	227.91
889.43	228.08
889.74	228.06
890.05	228.12
890.35	228.19
890.66	228.07
890.97	228.16
891.28	228.16
891.58	228.06
891.89	228.03
892.20	227.98
892.50	227.92
892.81	227.96
893.12	228.04
893.42	227.87
893.73	227.93
894.04	227.93
894.34	227.86
894.65	228.04
894.95	228.02
895.26	228.09
895.57	228.23
895.87	228.10
896.18	228.07
896.48	228.07
896.79	228.06
897.10	228.17
897.40	228.11
897.71	228.10
898.01	228.13
898.32	228.19
898.63	228.20
898.93	228.18
899.24	228.17
899.54	228.18
899.85	228.15
900.15	228.17
900.46	228.25
900.76	228.30
901.07	228.23
901.38	228.23
901.68	228.25
901.99	228.18
902.29	228.14
902.60	228.19
902.90	228.20
903.21	228.15
903.51	228.11
903.82	228.23
904.12	228.31
904.43	228.33
904.73	228.25
905.03	228.23
905.34	228.42
905.64	228.46
905.95	228.41
906.25	228.41
906.56	228.27
906.86	228.20
907.17	228.10
907.47	228.03
907.77	228.06
908.08	228.00
908.38	228.02
908.69	228.04
908.99	228.10
909.30	228.21
909.60	228.26
909.90	228.25
910.21	228.13
910.51	228.00
910.81	228.02
911.12	228.10
911.42	228.17
911.73	228.01
912.03	228.01
912.33	228.08
912.64	228.04
912.94	228.12
913.24	228.10
913.55	228.10
913.85	228.04
914.15	228.09
914.46	228.23
914.76	228.25
915.06	228.29
915.37	228.23
915.67	228.11
915.97	228.02
916.27	227.96
916.58	227.93
916.88	227.96
917.18	227.88
917.49	228.00
917.79	227.90
918.09	227.83
918.39	227.81
918.70	227.77
919.00	227.80
919.30	227.84
919.60	227.90
919.91	227.89
920.21	227.95
920.51	227.86
920.81	227.78
921.12	227.71
921.42	227.57
921.72	227.58
922.02	227.59
922.32	227.75
922.63	227.80
922.93	227.96
923.23	227.92
923.53	227.93
923.83	227.81
924.13	227.90
924.44	227.93
924.74	228.00
925.04	228.10
925.34	228.12
925.64	228.12
925.94	228.07
926.24	228.18
926.55	228.08
926.85	228.10
927.15	228.08
927.45	228.20
927.75	228.34
928.05	228.33
928.35	228.34
928.65	228.29
928.95	228.36
929.26	228.24
929.56	228.34
929.86	228.37
930.16	228.36
930.46	228.36
930.76	228.35
931.06	228.24
931.36	228.06
931.66	228.13
931.96	228.22
932.26	228.24
932.56	228.31
932.86	228.37
933.16	228.40
933.46	228.49
933.76	228.48
934.06	228.49
934.36	228.59
934.66	228.59
934.96	228.69
935.26	228.70
935.56	228.82
935.86	228.76
936.16	228.82
936.46	228.83
936.76	228.80
937.06	228.89
937.36	229.04
937.66	229.20
937.96	229.14
938.26	229.00
938.56	228.95
938.86	228.98
939.16	229.08
939.46	229.08
939.76	229.08
940.06	229.10
940.35	229.13
940.65	229.13
940.95	229.10
941.25	228.98
941.55	228.99
941.85	228.91
942.15	228.94
942.45	229.02
942.75	229.10
943.04	229.11
943.34	229.11
943.64	228.97
943.94	228.92
944.24	228.96
944.54	228.96
944.84	229.04
945.13	228.92
945.43	228.94
945.73	229.00
946.03	229.02
946.33	228.90
946.62	228.78
946.92	228.75
947.22	228.80
947.52	228.80
947.82	228.89
948.11	228.83
948.41	228.81
948.71	228.75
949.01	228.67
949.31	228.69
949.60	228.63
949.90	228.70
950.20	228.59
950.50	228.50
950.79	228.46
951.09	228.42
951.39	228.35
951.69	228.31
951.98	228.24
952.28	228.16
952.58	228.10
952.87	228.11
953.17	228.08
953.47	227.99
953.76	227.99
954.06	227.79
954.36	227.75
954.66	227.78
954.95	227.67
955.25	227.68
955.55	227.66
955.84	227.66
956.14	227.57
956.44	227.63
956.73	227.60
957.03	227.64
957.32	227.56
957.62	227.60
957.92	227.59
958.21	227.55
958.51	227.72
958.81	227.88
959.10	227.78
959.40	227.78
959.69	227.79
959.99	227.80
960.29	227.81
960.58	227.72
960.88	227.70
961.17	227.81
961.47	227.83
961.76	227.70
962.06	227.68
962.36	227.73
962.65	227.81
962.95	227.78
963.24	227.75
963.54	227.74
963.83	227.83
964.13	227.78
964.42	227.70
964.72	227.62
965.01	227.52
965.31	227.59
965.60	227.49
965.90	227.64
966.19	227.63
966.49	227.60
966.78	227.68
967.08	227.69
967.37	227.70
967.67	227.66
967.96	227.74
968.26	227.79
968.55	227.75
968.85	227.60
969.14	227.59
969.43	227.59
969.73	227.68
970.02	227.59
970.32	227.59
970.61	227.64
970.91	227.56
971.20	227.57
971.49	227.56
971.79	227.64
972.08	227.58
972.38	227.48
972.67	227.55
972.96	227.59
973.26	227.57
973.55	227.61
973.85	227.57
974.14	227.50
974.43	227.51
974.73	227.49
975.02	227.47
975.31	227.61
975.61	227.54
975.90	227.55
976.19	227.56
976.49	227.56
976.78	227.54
977.07	227.54
977.37	227.60
977.66	227.67
977.95	227.68
978.24	227.66
978.54	227.76
978.83	227.79
979.12	227.88
979.42	227.88
979.71	227.86
980.00	227.94
980.29	228.16
980.59	228.08
980.88	228.14
981.17	228.18
981.46	228.10
981.76	228.26
982.05	228.36
982.34	228.37
982.63	228.44
982.93	228.47
983.22	228.54
983.51	228.59
983.80	228.60
984.09	228.63
984.39	228.58
984.68	228.62
984.97	228.60
985.26	228.59
985.55	228.60
985.85	228.64
986.14	228.66
986.43	228.62
986.72	228.77
987.01	228.76
987.30	228.82
987.59	228.81
987.89	228.80
988.18	228.72
988.47	228.73
988.76	228.70
989.05	228.71
989.34	228.71
989.63	228.70
989.92	228.68
990.22	228.61
990.51	228.61
990.80	228.51
991.09	228.47
991.38	228.50
991.67	228.52
991.96	228.42
992.25	228.33
992.54	228.20
992.83	228.13
993.12	228.13
993.41	228.25
993.70	228.45
993.99	228.45
994.28	228.47
994.58	228.51
994.87	228.50
995.16	228.50
995.45	228.43
995.74	228.43
996.03	228.53
996.32	228.50
996.61	228.62
996.90	228.63
997.19	228.65
997.48	228.51
997.77	228.42
998.06	228.42
998.34	228.49
998.63	228.53
998.92	228.51
999.21	228.50
999.50	228.49
999.79	228.27
1000.08	228.24
1000.37	228.19
1000.66	228.14
1000.95	228.15
1001.24	228.20
1001.53	228.16
1001.82	228.15
1002.11	227.97
1002.40	228.02
1002.68	228.00
1002.97	228.22
1003.26	228.12
1003.55	228.20
1003.84	228.32
1004.13	228.34
1004.42	228.39
1004.71	228.36
1004.99	228.37
1005.28	228.48
1005.57	228.40
1005.86	228.44
1006.15	228.38
1006.44	228.32
1006.72	228.23
1007.01	228.17
1007.30	228.08
1007.59	228.09
1007.88	227.96
1008.17	227.94
1008.45	227.89
1008.74	227.82
1009.03	227.73
1009.32	227.94
1009.60	227.82
1009.89	227.82
1010.18	227.75
1010.47	227.75
1010.76	227.74
1011.04	227.71
1011.33	227.90
1011.62	227.90
1011.91	227.92
1012.19	227.98
1012.48	228.03
1012.77	228.09
1013.05	228.17
1013.34	228.25
1013.63	228.30
1013.92	228.36
1014.20	228.50
1014.49	228.49
1014.78	228.49
1015.06	228.30
1015.35	228.12
1015.64	228.30
1015.92	228.40
1016.21	228.49
1016.50	228.46
1016.78	228.51
1017.07	228.56
1017.36	228.24
1017.64	228.14
1017.93	228.11
1018.22	228.09
1018.50	228.10
1018.79	228.11
1019.08	228.05
1019.36	228.09
1019.65	228.09
1019.93	228.18
1020.22	228.18
1020.51	228.34
1020.79	228.33
1021.08	227.70
1021.36	228.10
1021.65	227.90
1021.94	227.80
1022.22	228.80
1022.51	228.60
1022.79	229.30
1023.08	229.10
1023.36	230.80
1023.65	227.10
>>>>>End Processed Spectral Data<<<<<
