SpectraSuite Data File
++++++++++++++++++++++++++++++++++++
Date: Fri Feb 01 14:39:01 EST 2013
User: group
Dark Spectrum Present: No
Reference Spectrum Present: No
Number of Sampled Component Spectra: 1
Spectrometers: USB2E7196
Integration Time (usec): 70000 (USB2E7196)
Spectra Averaged: 10 (USB2E7196)
Boxcar Smoothing: 10 (USB2E7196)
Correct for Electrical Dark: No (USB2E7196)
Strobe/Lamp Enabled: No (USB2E7196)
Correct for Detector Non-linearity: No (USB2E7196)
Correct for Stray Light: No (USB2E7196)
Number of Pixels in Processed Spectrum: 2048
>>>>>Begin Processed Spectral Data<<<<<
339.09	0.00
339.48	215.10
339.86	216.10
340.24	217.40
340.63	218.40
341.01	220.80
341.39	223.60
341.78	224.30
342.16	226.20
342.54	225.60
342.93	214.15
343.31	225.05
343.69	225.69
344.07	226.22
344.46	226.75
344.84	227.11
345.22	227.42
345.60	227.65
345.99	227.79
346.37	227.92
346.75	227.99
347.13	228.02
347.52	228.15
347.90	228.34
348.28	228.36
348.66	228.28
349.05	228.17
349.43	228.19
349.81	228.10
350.19	228.16
350.57	228.35
350.96	228.41
351.34	228.43
351.72	228.50
352.10	228.56
352.48	228.51
352.87	228.65
353.25	228.76
353.63	228.83
354.01	228.91
354.39	228.96
354.77	229.06
355.15	229.12
355.54	229.10
355.92	229.06
356.30	229.11
356.68	229.31
357.06	229.35
357.44	229.32
357.82	229.50
358.20	229.61
358.58	229.60
358.97	229.63
359.35	229.76
359.73	229.78
360.11	229.77
360.49	229.96
360.87	230.08
361.25	230.11
361.63	230.17
362.01	230.21
362.39	230.24
362.77	230.29
363.15	230.30
363.53	230.37
363.91	230.36
364.29	230.35
364.67	230.28
365.05	230.29
365.43	230.38
365.81	230.39
366.19	230.43
366.57	230.47
366.95	230.51
367.33	230.37
367.71	230.34
368.09	230.40
368.47	230.25
368.85	230.24
369.23	230.34
369.61	230.27
369.99	230.37
370.37	230.27
370.75	230.25
371.13	230.21
371.51	230.00
371.89	230.06
372.27	230.11
372.65	230.02
373.03	229.98
373.41	229.80
373.78	229.76
374.16	229.62
374.54	229.50
374.92	229.35
375.30	229.32
375.68	229.19
376.06	229.16
376.44	229.15
376.82	228.92
377.19	228.78
377.57	228.73
377.95	228.49
378.33	228.47
378.71	228.41
379.09	228.33
379.47	228.33
379.84	228.20
380.22	228.05
380.60	227.85
380.98	227.74
381.36	227.61
381.73	227.48
382.11	227.43
382.49	227.38
382.87	227.31
383.25	227.20
383.62	227.43
384.00	227.24
384.38	227.27
384.76	227.30
385.13	227.25
385.51	227.12
385.89	227.14
386.27	227.01
386.64	226.85
387.02	226.79
387.40	226.82
387.78	226.80
388.15	226.74
388.53	226.71
388.91	226.74
389.29	226.82
389.66	226.82
390.04	226.86
390.42	226.95
390.79	226.99
391.17	226.96
391.55	226.63
391.92	226.71
392.30	226.61
392.68	226.59
393.05	226.59
393.43	226.58
393.81	226.61
394.18	226.64
394.56	226.75
394.94	226.86
395.31	226.75
395.69	226.86
396.06	226.99
396.44	227.01
396.82	226.95
397.19	227.12
397.57	227.26
397.95	227.36
398.32	227.27
398.70	227.21
399.07	227.38
399.45	227.57
399.82	227.67
400.20	227.76
400.58	227.85
400.95	227.86
401.33	228.14
401.70	228.31
402.08	228.50
402.45	228.63
402.83	228.70
403.20	228.93
403.58	228.98
403.95	229.09
404.33	229.47
404.71	229.71
405.08	230.00
405.46	230.10
405.83	230.22
406.21	230.44
406.58	230.76
406.96	231.03
407.33	231.17
407.70	231.34
408.08	231.72
408.45	231.99
408.83	232.23
409.20	232.30
409.58	232.46
409.95	232.70
410.33	232.92
410.70	233.23
411.08	233.61
411.45	233.95
411.82	234.28
412.20	234.56
412.57	235.02
412.95	235.21
413.32	235.57
413.69	235.99
414.07	236.30
414.44	236.70
414.82	237.09
415.19	237.71
415.56	238.23
415.94	238.83
416.31	239.54
416.68	240.18
417.06	240.90
417.43	241.60
417.81	242.34
418.18	243.14
418.55	243.96
418.93	244.76
419.30	245.72
419.67	246.81
420.04	247.87
420.42	249.03
420.79	250.32
421.16	251.58
421.54	252.93
421.91	254.37
422.28	255.75
422.66	257.31
423.03	258.82
423.40	260.30
423.77	261.83
424.15	263.36
424.52	265.12
424.89	267.09
425.26	268.88
425.64	270.61
426.01	272.48
426.38	274.47
426.75	276.45
427.13	278.33
427.50	280.25
427.87	282.34
428.24	284.39
428.61	286.30
428.99	288.76
429.36	290.99
429.73	293.46
430.10	296.08
430.47	298.63
430.85	301.07
431.22	303.90
431.59	306.93
431.96	309.67
432.33	312.57
432.70	315.48
433.08	318.87
433.45	322.08
433.82	325.40
434.19	328.78
434.56	332.28
434.93	335.69
435.30	339.07
435.68	342.67
436.05	346.27
436.42	349.82
436.79	352.93
437.16	356.48
437.53	360.11
437.90	363.59
438.27	366.95
438.64	370.68
439.01	373.96
439.38	376.81
439.75	379.78
440.13	383.11
440.50	386.16
440.87	388.81
441.24	391.51
441.61	394.46
441.98	396.76
442.35	399.28
442.72	401.70
443.09	404.25
443.46	405.83
443.83	406.75
444.20	407.80
444.57	409.07
444.94	409.83
445.31	410.57
445.68	411.30
446.05	411.75
446.42	411.58
446.79	411.36
447.16	411.18
447.53	411.02
447.90	410.04
448.27	408.87
448.64	407.22
449.01	406.21
449.37	404.03
449.74	402.00
450.11	399.55
450.48	396.91
450.85	394.13
451.22	391.76
451.59	389.50
451.96	387.24
452.33	384.35
452.70	381.48
453.07	378.11
453.43	374.76
453.80	371.48
454.17	368.27
454.54	365.30
454.91	361.87
455.28	358.70
455.65	355.66
456.02	352.77
456.38	350.08
456.75	346.81
457.12	343.98
457.49	341.13
457.86	338.42
458.23	336.17
458.59	333.47
458.96	330.80
459.33	328.52
459.70	326.33
460.07	324.29
460.43	322.30
460.80	320.30
461.17	318.44
461.54	316.63
461.91	314.77
462.27	312.90
462.64	311.25
463.01	309.48
463.38	307.70
463.74	305.98
464.11	304.43
464.48	303.02
464.85	301.54
465.21	300.51
465.58	299.33
465.95	297.98
466.32	296.77
466.68	295.54
467.05	294.49
467.42	293.19
467.78	291.91
468.15	290.62
468.52	289.76
468.88	288.65
469.25	287.51
469.62	286.65
469.98	285.79
470.35	284.87
470.72	284.08
471.08	283.16
471.45	282.33
471.82	281.59
472.18	280.69
472.55	280.01
472.92	279.22
473.28	278.45
473.65	277.55
474.02	276.78
474.38	276.28
474.75	275.64
475.11	275.09
475.48	274.52
475.85	274.03
476.21	273.41
476.58	272.88
476.94	272.33
477.31	271.89
477.67	271.30
478.04	270.91
478.41	270.41
478.77	270.24
479.14	269.75
479.50	269.49
479.87	269.17
480.23	268.92
480.60	268.55
480.96	268.22
481.33	268.00
481.69	267.90
482.06	267.69
482.42	267.44
482.79	267.22
483.15	267.25
483.52	267.21
483.88	267.12
484.25	266.90
484.61	266.83
484.98	266.75
485.34	266.88
485.71	266.89
486.07	266.84
486.44	266.79
486.80	266.90
487.17	266.82
487.53	266.94
487.90	267.09
488.26	267.23
488.62	267.45
488.99	267.68
489.35	267.79
489.72	267.88
490.08	267.90
490.44	267.96
490.81	268.11
491.17	268.26
491.54	268.55
491.90	268.82
492.26	269.07
492.63	269.28
492.99	269.35
493.36	269.48
493.72	269.91
494.08	270.05
494.45	270.28
494.81	270.62
495.17	270.86
495.54	271.12
495.90	271.47
496.26	271.73
496.63	272.03
496.99	272.41
497.35	272.77
497.72	273.23
498.08	273.66
498.44	273.95
498.80	274.40
499.17	274.67
499.53	275.10
499.89	275.57
500.26	276.00
500.62	276.50
500.98	277.12
501.34	277.59
501.71	278.14
502.07	278.74
502.43	279.23
502.79	279.78
503.16	280.34
503.52	280.87
503.88	281.41
504.24	282.08
504.60	282.66
504.97	283.32
505.33	283.94
505.69	284.67
506.05	285.50
506.41	286.25
506.78	286.99
507.14	287.80
507.50	288.66
507.86	289.57
508.22	290.50
508.59	291.33
508.95	292.16
509.31	293.24
509.67	294.25
510.03	295.29
510.39	296.48
510.75	297.55
511.12	298.78
511.48	299.99
511.84	301.12
512.20	302.47
512.56	303.84
512.92	305.40
513.28	306.96
513.64	308.54
514.00	310.19
514.37	311.93
514.73	313.70
515.09	315.39
515.45	317.23
515.81	319.11
516.17	321.24
516.53	323.40
516.89	325.46
517.25	327.77
517.61	330.27
517.97	332.69
518.33	335.26
518.69	337.74
519.05	340.54
519.41	343.46
519.77	346.55
520.13	349.58
520.49	352.50
520.85	355.40
521.21	358.58
521.57	361.79
521.93	364.96
522.29	368.40
522.65	371.99
523.01	375.70
523.37	379.45
523.73	383.12
524.09	386.91
524.45	390.90
524.81	394.98
525.17	399.07
525.53	403.34
525.89	407.55
526.25	411.87
526.61	416.27
526.97	420.78
527.33	425.28
527.68	430.07
528.04	435.03
528.40	440.05
528.76	445.12
529.12	450.40
529.48	455.83
529.84	461.10
530.20	466.60
530.56	472.02
530.91	477.70
531.27	483.49
531.63	489.33
531.99	495.18
532.35	500.88
532.71	506.59
533.07	512.60
533.42	518.88
533.78	525.12
534.14	531.12
534.50	537.08
534.86	543.20
535.21	549.36
535.57	555.83
535.93	562.43
536.29	568.82
536.65	575.23
537.00	581.75
537.36	588.57
537.72	594.89
538.08	601.45
538.44	607.99
538.79	614.61
539.15	621.29
539.51	628.18
539.87	635.03
540.22	641.77
540.58	648.51
540.94	655.01
541.29	662.09
541.65	669.06
542.01	676.24
542.37	683.22
542.72	690.10
543.08	696.82
543.44	703.92
543.79	710.48
544.15	717.50
544.51	724.52
544.87	731.36
545.22	738.36
545.58	745.38
545.94	752.02
546.29	758.94
546.65	765.70
547.01	772.07
547.36	778.68
547.72	785.45
548.07	792.00
548.43	798.62
548.79	805.06
549.14	811.55
549.50	817.70
549.86	824.01
550.21	830.44
550.57	836.91
550.92	842.82
551.28	849.48
551.64	855.42
551.99	861.62
552.35	867.67
552.70	873.75
553.06	879.65
553.41	885.83
553.77	892.10
554.13	898.16
554.48	904.25
554.84	910.30
555.19	916.51
555.55	922.43
555.90	928.28
556.26	933.79
556.61	939.54
556.97	945.19
557.32	950.76
557.68	956.37
558.03	961.56
558.39	967.04
558.74	972.76
559.10	978.07
559.45	983.44
559.81	988.84
560.16	994.00
560.52	999.23
560.87	1004.47
561.23	1009.02
561.58	1013.73
561.94	1018.59
562.29	1023.22
562.64	1027.62
563.00	1032.51
563.35	1037.60
563.71	1042.59
564.06	1047.29
564.42	1052.02
564.77	1056.85
565.12	1061.27
565.48	1065.90
565.83	1070.10
566.19	1074.08
566.54	1078.36
566.89	1082.17
567.25	1086.11
567.60	1090.40
567.96	1094.25
568.31	1097.83
568.66	1101.65
569.02	1105.55
569.37	1108.95
569.72	1112.16
570.08	1115.37
570.43	1118.39
570.78	1121.14
571.14	1123.68
571.49	1126.36
571.84	1129.77
572.20	1132.30
572.55	1134.80
572.90	1137.03
573.26	1139.51
573.61	1141.47
573.96	1143.64
574.31	1145.36
574.67	1146.75
575.02	1147.73
575.37	1149.40
575.72	1150.51
576.08	1151.86
576.43	1152.66
576.78	1153.70
577.13	1155.30
577.49	1156.58
577.84	1157.45
578.19	1158.11
578.54	1158.94
578.90	1159.45
579.25	1159.35
579.60	1159.50
579.95	1159.68
580.30	1160.06
580.66	1160.12
581.01	1160.30
581.36	1160.30
581.71	1160.57
582.06	1160.70
582.42	1160.77
582.77	1160.44
583.12	1160.38
583.47	1160.02
583.82	1160.13
584.17	1160.00
584.53	1159.53
584.88	1159.05
585.23	1158.73
585.58	1158.61
585.93	1158.03
586.28	1157.86
586.63	1157.61
586.98	1157.14
587.34	1156.86
587.69	1155.99
588.04	1155.27
588.39	1155.02
588.74	1153.49
589.09	1152.38
589.44	1151.32
589.79	1150.62
590.14	1149.99
590.49	1148.95
590.84	1147.92
591.19	1146.57
591.54	1145.00
591.89	1142.82
592.25	1141.30
592.60	1139.23
592.95	1136.83
593.30	1134.90
593.65	1132.84
594.00	1130.42
594.35	1129.02
594.70	1126.60
595.05	1124.97
595.40	1122.87
595.75	1120.09
596.10	1118.90
596.45	1117.08
596.80	1115.55
597.15	1113.60
597.50	1111.12
597.85	1109.26
598.19	1107.24
598.54	1105.42
598.89	1103.45
599.24	1102.09
599.59	1099.88
599.94	1098.05
600.29	1096.10
600.64	1094.23
600.99	1091.80
601.34	1089.80
601.69	1086.94
602.04	1084.81
602.39	1082.27
602.74	1080.42
603.08	1078.60
603.43	1076.36
603.78	1074.16
604.13	1071.16
604.48	1068.26
604.83	1065.75
605.18	1063.23
605.53	1060.40
605.87	1056.98
606.22	1054.56
606.57	1051.45
606.92	1048.98
607.27	1046.20
607.62	1044.03
607.96	1041.34
608.31	1038.77
608.66	1035.65
609.01	1032.78
609.36	1029.29
609.70	1025.86
610.05	1021.94
610.40	1018.42
610.75	1014.75
611.10	1010.96
611.44	1007.44
611.79	1004.57
612.14	1001.04
612.49	996.98
612.83	993.20
613.18	989.93
613.53	986.22
613.88	982.32
614.22	978.40
614.57	974.47
614.92	970.36
615.27	966.69
615.61	962.77
615.96	959.24
616.31	955.54
616.65	952.61
617.00	949.27
617.35	946.08
617.70	942.11
618.04	938.24
618.39	934.60
618.74	931.33
619.08	927.06
619.43	923.46
619.78	920.30
620.12	916.80
620.47	913.28
620.82	909.30
621.16	905.91
621.51	902.28
621.85	898.66
622.20	894.80
622.55	891.22
622.89	887.68
623.24	884.02
623.59	880.58
623.93	876.96
624.28	873.41
624.62	869.75
624.97	866.38
625.32	862.99
625.66	859.90
626.01	856.43
626.35	853.02
626.70	849.54
627.04	846.15
627.39	842.61
627.73	838.90
628.08	835.57
628.43	832.18
628.77	828.56
629.12	824.74
629.46	821.12
629.81	817.09
630.15	813.28
630.50	809.62
630.84	805.35
631.19	801.14
631.53	797.30
631.88	793.32
632.22	789.30
632.57	785.48
632.91	781.20
633.26	776.90
633.60	773.22
633.95	769.29
634.29	765.39
634.64	761.94
634.98	758.08
635.32	754.49
635.67	750.82
636.01	747.54
636.36	744.22
636.70	740.86
637.05	737.43
637.39	734.17
637.73	730.85
638.08	727.86
638.42	724.73
638.77	721.58
639.11	718.33
639.45	715.28
639.80	711.95
640.14	708.85
640.49	705.89
640.83	702.41
641.17	699.17
641.52	695.81
641.86	692.10
642.20	689.19
642.55	685.95
642.89	682.75
643.23	679.11
643.58	676.15
643.92	672.85
644.26	669.57
644.61	666.65
644.95	663.30
645.29	659.89
645.64	656.41
645.98	653.09
646.32	649.93
646.66	646.43
647.01	643.15
647.35	639.91
647.69	636.68
648.04	633.65
648.38	630.39
648.72	627.04
649.06	623.84
649.41	620.48
649.75	616.84
650.09	613.48
650.43	610.15
650.78	606.63
651.12	603.26
651.46	600.07
651.80	596.55
652.14	593.35
652.49	590.27
652.83	587.25
653.17	583.74
653.51	580.28
653.85	577.37
654.20	574.19
654.54	570.80
654.88	567.45
655.22	564.18
655.56	560.68
655.90	557.61
656.25	554.67
656.59	551.72
656.93	548.82
657.27	545.82
657.61	542.75
657.95	539.81
658.29	537.01
658.64	534.31
658.98	531.25
659.32	528.02
659.66	525.02
660.00	522.00
660.34	519.20
660.68	516.44
661.02	513.57
661.36	510.74
661.70	508.19
662.05	505.68
662.39	503.34
662.73	501.09
663.07	498.68
663.41	496.13
663.75	493.50
664.09	491.08
664.43	488.64
664.77	486.31
665.11	483.91
665.45	481.55
665.79	478.95
666.13	476.71
666.47	474.60
666.81	472.06
667.15	469.62
667.49	467.42
667.83	465.21
668.17	462.72
668.51	460.58
668.85	458.29
669.19	456.02
669.53	453.55
669.87	451.25
670.21	448.97
670.55	446.79
670.89	444.86
671.23	442.84
671.57	440.72
671.91	438.79
672.25	436.65
672.58	434.67
672.92	432.68
673.26	430.73
673.60	428.78
673.94	427.06
674.28	425.55
674.62	423.94
674.96	422.19
675.30	420.56
675.64	418.70
675.97	416.91
676.31	415.13
676.65	413.35
676.99	411.75
677.33	409.92
677.67	408.16
678.01	406.32
678.34	404.57
678.68	403.02
679.02	401.20
679.36	399.59
679.70	397.87
680.04	396.12
680.37	394.49
680.71	392.88
681.05	391.27
681.39	389.61
681.73	387.80
682.06	386.28
682.40	384.79
682.74	383.24
683.08	381.85
683.42	380.25
683.75	378.78
684.09	377.24
684.43	375.79
684.77	374.30
685.10	372.68
685.44	371.26
685.78	369.67
686.12	368.30
686.45	366.98
686.79	365.52
687.13	364.22
687.46	362.81
687.80	361.45
688.14	360.07
688.48	358.64
688.81	357.28
689.15	355.91
689.49	354.49
689.82	353.17
690.16	351.73
690.50	350.58
690.83	349.35
691.17	348.03
691.51	346.71
691.84	345.48
692.18	344.34
692.52	343.07
692.85	341.82
693.19	340.79
693.52	339.47
693.86	338.27
694.20	337.03
694.53	335.76
694.87	334.53
695.21	333.39
695.54	332.15
695.88	330.81
696.21	329.53
696.55	328.34
696.88	327.16
697.22	326.01
697.56	324.85
697.89	323.83
698.23	322.82
698.56	321.74
698.90	320.70
699.23	319.45
699.57	318.33
699.90	317.28
700.24	316.00
700.58	314.99
700.91	314.02
701.25	313.04
701.58	312.20
701.92	311.20
702.25	310.22
702.59	309.28
702.92	308.60
703.26	307.78
703.59	306.89
703.93	306.23
704.26	305.28
704.60	304.38
704.93	303.27
705.26	302.21
705.60	301.42
705.93	300.58
706.27	299.90
706.60	299.20
706.94	298.46
707.27	297.81
707.61	297.01
707.94	296.26
708.27	295.48
708.61	294.56
708.94	293.88
709.28	293.25
709.61	292.58
709.94	291.92
710.28	291.26
710.61	290.61
710.95	289.76
711.28	289.30
711.61	288.57
711.95	288.07
712.28	287.47
712.61	286.71
712.95	286.14
713.28	285.51
713.61	284.74
713.95	284.01
714.28	283.21
714.61	282.60
714.95	281.95
715.28	281.26
715.61	280.60
715.95	279.95
716.28	279.20
716.61	278.70
716.95	277.98
717.28	277.31
717.61	276.77
717.94	276.20
718.28	275.51
718.61	275.08
718.94	274.49
719.27	273.97
719.61	273.59
719.94	273.00
720.27	272.43
720.60	271.92
720.94	271.48
721.27	271.13
721.60	270.70
721.93	270.23
722.27	269.93
722.60	269.58
722.93	269.13
723.26	268.78
723.59	268.25
723.93	267.91
724.26	267.54
724.59	267.11
724.92	266.68
725.25	266.40
725.59	265.93
725.92	265.52
726.25	265.20
726.58	264.77
726.91	264.50
727.24	264.35
727.57	263.96
727.91	263.64
728.24	263.25
728.57	262.84
728.90	262.50
729.23	262.05
729.56	261.78
729.89	261.55
730.22	261.24
730.55	260.89
730.89	260.54
731.22	260.19
731.55	259.82
731.88	259.58
732.21	259.20
732.54	258.78
732.87	258.54
733.20	258.25
733.53	258.03
733.86	257.66
734.19	257.27
734.52	257.16
734.85	256.86
735.18	256.51
735.51	256.17
735.84	255.89
736.17	255.65
736.50	255.25
736.83	255.15
737.16	254.85
737.49	254.59
737.82	254.33
738.15	254.11
738.48	253.89
738.81	253.66
739.14	253.31
739.47	253.13
739.80	252.86
740.13	252.63
740.46	252.30
740.79	251.96
741.12	251.62
741.45	251.17
741.78	250.90
742.11	250.81
742.44	250.59
742.77	250.26
743.10	249.98
743.43	249.72
743.75	249.19
744.08	249.13
744.41	248.85
744.74	248.57
745.07	248.25
745.40	248.09
745.73	247.83
746.06	247.55
746.39	247.19
746.71	246.95
747.04	246.62
747.37	246.39
747.70	246.19
748.03	245.93
748.36	245.75
748.68	245.56
749.01	245.16
749.34	244.98
749.67	244.86
750.00	244.72
750.33	244.73
750.65	244.51
750.98	244.14
751.31	244.06
751.64	243.76
751.97	243.79
752.29	243.47
752.62	243.21
752.95	242.95
753.28	242.83
753.60	242.50
753.93	242.34
754.26	242.07
754.59	241.84
754.91	241.65
755.24	241.57
755.57	241.41
755.90	241.25
756.22	241.01
756.55	240.79
756.88	240.54
757.20	240.18
757.53	240.12
757.86	239.95
758.19	239.68
758.51	239.63
758.84	239.31
759.17	239.20
759.49	238.98
759.82	238.97
760.15	238.90
760.47	238.90
760.80	238.76
761.13	238.74
761.45	238.68
761.78	238.60
762.11	238.35
762.43	238.20
762.76	238.07
763.08	238.05
763.41	238.00
763.74	237.85
764.06	237.77
764.39	237.60
764.71	237.52
765.04	237.49
765.37	237.31
765.69	237.23
766.02	237.14
766.34	237.08
766.67	237.00
767.00	236.99
767.32	236.92
767.65	236.99
767.97	236.87
768.30	236.74
768.62	236.69
768.95	236.71
769.27	236.58
769.60	236.60
769.92	236.46
770.25	236.39
770.57	236.34
770.90	236.27
771.22	236.18
771.55	236.01
771.87	235.85
772.20	235.83
772.52	235.91
772.85	236.13
773.17	236.16
773.50	236.06
773.82	235.96
774.15	235.81
774.47	235.60
774.80	235.58
775.12	235.59
775.45	235.47
775.77	235.37
776.09	235.41
776.42	235.35
776.74	235.32
777.07	235.15
777.39	235.09
777.72	234.94
778.04	234.93
778.36	234.94
778.69	234.94
779.01	234.85
779.33	234.59
779.66	234.34
779.98	234.15
780.31	234.06
780.63	234.10
780.95	234.08
781.28	234.13
781.60	233.97
781.92	233.86
782.25	233.92
782.57	233.93
782.89	233.85
783.22	233.68
783.54	233.53
783.86	233.61
784.19	233.51
784.51	233.58
784.83	233.35
785.16	233.25
785.48	233.16
785.80	233.21
786.12	233.12
786.45	233.02
786.77	233.07
787.09	233.07
787.42	232.88
787.74	232.82
788.06	232.62
788.38	232.63
788.71	232.58
789.03	232.39
789.35	232.30
789.67	232.13
789.99	232.12
790.32	232.13
790.64	231.98
790.96	232.02
791.28	231.94
791.61	232.08
791.93	232.05
792.25	232.00
792.57	232.07
792.89	232.11
793.21	232.08
793.54	231.99
793.86	231.89
794.18	231.87
794.50	231.81
794.82	231.78
795.14	231.76
795.47	231.76
795.79	231.79
796.11	231.59
796.43	231.50
796.75	231.52
797.07	231.42
797.39	231.53
797.71	231.50
798.04	231.51
798.36	231.42
798.68	231.35
799.00	231.34
799.32	231.13
799.64	231.08
799.96	231.04
800.28	231.08
800.60	231.05
800.92	231.06
801.24	231.06
801.56	231.08
801.89	231.02
802.21	230.96
802.53	230.85
802.85	230.98
803.17	231.16
803.49	231.11
803.81	231.07
804.13	230.97
804.45	230.83
804.77	230.63
805.09	230.57
805.41	230.53
805.73	230.54
806.05	230.55
806.37	230.60
806.69	230.55
807.01	230.46
807.33	230.47
807.65	230.36
807.97	230.36
808.28	230.36
808.60	230.35
808.92	230.40
809.24	230.54
809.56	230.59
809.88	230.45
810.20	230.42
810.52	230.60
810.84	230.56
811.16	230.53
811.48	230.65
811.80	230.80
812.12	230.88
812.43	230.88
812.75	230.85
813.07	230.86
813.39	230.84
813.71	230.88
814.03	230.96
814.35	230.91
814.67	230.86
814.98	230.85
815.30	230.87
815.62	230.76
815.94	230.60
816.26	230.68
816.58	230.63
816.89	230.64
817.21	230.57
817.53	230.58
817.85	230.65
818.17	230.71
818.48	230.50
818.80	230.49
819.12	230.44
819.44	230.38
819.76	230.21
820.07	230.21
820.39	230.16
820.71	230.08
821.03	230.16
821.34	230.13
821.66	230.17
821.98	230.16
822.30	230.11
822.61	230.26
822.93	230.13
823.25	230.22
823.57	230.24
823.88	230.14
824.20	230.16
824.52	230.14
824.83	230.11
825.15	230.18
825.47	230.09
825.79	230.07
826.10	230.07
826.42	230.03
826.74	229.93
827.05	229.83
827.37	229.75
827.69	229.71
828.00	229.65
828.32	229.59
828.64	229.47
828.95	229.62
829.27	229.50
829.58	229.48
829.90	229.51
830.22	229.40
830.53	229.39
830.85	229.26
831.17	229.20
831.48	229.13
831.80	229.07
832.11	229.02
832.43	228.97
832.75	228.90
833.06	229.04
833.38	229.09
833.69	229.10
834.01	229.15
834.32	229.15
834.64	229.16
834.96	229.19
835.27	229.29
835.59	229.14
835.90	229.14
836.22	229.12
836.53	229.06
836.85	229.11
837.16	229.42
837.48	229.44
837.79	229.54
838.11	229.49
838.42	229.45
838.74	229.55
839.05	229.49
839.37	229.48
839.68	229.27
840.00	229.23
840.31	229.34
840.63	229.33
840.94	229.22
841.26	229.22
841.57	229.17
841.88	229.07
842.20	229.12
842.51	229.02
842.83	229.00
843.14	229.18
843.46	229.12
843.77	228.86
844.08	228.93
844.40	228.77
844.71	228.83
845.03	228.81
845.34	228.79
845.65	228.78
845.97	228.77
846.28	228.86
846.60	228.81
846.91	228.82
847.22	228.81
847.54	228.92
847.85	228.94
848.16	228.92
848.48	228.95
848.79	229.00
849.10	229.05
849.42	229.06
849.73	228.75
850.04	228.87
850.36	228.81
850.67	228.83
850.98	228.92
851.30	228.90
851.61	228.91
851.92	228.95
852.23	229.07
852.55	229.15
852.86	229.20
853.17	229.34
853.49	229.30
853.80	229.31
854.11	229.31
854.42	229.39
854.74	229.40
855.05	229.44
855.36	229.35
855.67	229.37
855.99	229.37
856.30	229.75
856.61	229.66
856.92	229.73
857.23	229.70
857.55	229.68
857.86	229.60
858.17	229.68
858.48	229.69
858.79	229.69
859.11	229.66
859.42	229.65
859.73	229.55
860.04	229.50
860.35	229.44
860.66	229.31
860.98	229.23
861.29	229.28
861.60	229.24
861.91	229.31
862.22	229.39
862.53	229.35
862.84	228.97
863.16	229.06
863.47	228.99
863.78	228.95
864.09	229.00
864.40	229.07
864.71	229.05
865.02	229.00
865.33	228.92
865.64	228.94
865.95	228.98
866.27	229.19
866.58	229.27
866.89	229.40
867.20	229.49
867.51	229.53
867.82	229.38
868.13	229.41
868.44	229.30
868.75	229.20
869.06	229.23
869.37	229.32
869.68	229.24
869.99	229.23
870.30	229.20
870.61	229.17
870.92	229.14
871.23	229.10
871.54	229.10
871.85	229.12
872.16	229.13
872.47	229.05
872.78	228.93
873.09	228.86
873.40	228.79
873.71	228.74
874.02	228.66
874.33	228.73
874.64	228.69
874.95	228.70
875.26	228.69
875.56	228.62
875.87	228.60
876.18	228.51
876.49	228.70
876.80	228.72
877.11	228.65
877.42	228.63
877.73	228.65
878.04	228.65
878.35	228.73
878.66	228.66
878.96	228.59
879.27	228.52
879.58	228.55
879.89	228.56
880.20	228.56
880.51	228.57
880.82	228.49
881.12	228.55
881.43	228.61
881.74	228.56
882.05	228.62
882.36	228.73
882.67	228.80
882.97	228.69
883.28	228.63
883.59	228.64
883.90	228.65
884.21	228.67
884.51	228.70
884.82	228.56
885.13	228.71
885.44	228.76
885.74	228.74
886.05	228.80
886.36	228.79
886.67	228.76
886.98	228.84
887.28	228.99
887.59	228.92
887.90	228.99
888.20	228.98
888.51	228.93
888.82	228.87
889.13	228.84
889.43	228.96
889.74	229.03
890.05	229.02
890.35	228.95
890.66	228.92
890.97	228.86
891.28	228.89
891.58	228.88
891.89	228.85
892.20	228.89
892.50	228.76
892.81	228.66
893.12	228.70
893.42	228.56
893.73	228.57
894.04	228.54
894.34	228.50
894.65	228.54
894.95	228.55
895.26	228.50
895.57	228.63
895.87	228.39
896.18	228.26
896.48	228.31
896.79	228.40
897.10	228.43
897.40	228.38
897.71	228.35
898.01	228.30
898.32	228.32
898.63	228.12
898.93	228.16
899.24	228.29
899.54	228.30
899.85	228.38
900.15	228.30
900.46	228.33
900.76	228.27
901.07	228.27
901.38	228.18
901.68	228.15
901.99	228.00
902.29	228.06
902.60	228.15
902.90	228.12
903.21	228.17
903.51	228.18
903.82	228.25
904.12	228.38
904.43	228.27
904.73	228.25
905.03	228.43
905.34	228.61
905.64	228.55
905.95	228.51
906.25	228.53
906.56	228.54
906.86	228.45
907.17	228.52
907.47	228.51
907.77	228.55
908.08	228.54
908.38	228.59
908.69	228.56
908.99	228.60
909.30	228.58
909.60	228.46
909.90	228.45
910.21	228.36
910.51	228.34
910.81	228.34
911.12	228.41
911.42	228.33
911.73	228.15
912.03	228.14
912.33	228.10
912.64	228.03
912.94	227.98
913.24	228.07
913.55	227.99
913.85	227.98
914.15	228.01
914.46	227.98
914.76	227.96
915.06	227.94
915.37	227.85
915.67	227.81
915.97	227.84
916.27	227.78
916.58	227.80
916.88	227.71
917.18	227.73
917.49	227.79
917.79	227.92
918.09	227.92
918.39	227.95
918.70	228.04
919.00	228.05
919.30	228.12
919.60	228.07
919.91	227.96
920.21	227.99
920.51	227.90
920.81	228.03
921.12	228.07
921.42	228.13
921.72	228.15
922.02	228.16
922.32	228.18
922.63	228.22
922.93	228.39
923.23	228.33
923.53	228.31
923.83	228.16
924.13	228.15
924.44	228.16
924.74	228.22
925.04	228.29
925.34	228.34
925.64	228.25
925.94	228.33
926.24	228.48
926.55	228.41
926.85	228.50
927.15	228.32
927.45	228.33
927.75	228.26
928.05	228.36
928.35	228.36
928.65	228.45
928.95	228.44
929.26	228.45
929.56	228.53
929.86	228.52
930.16	228.55
930.46	228.50
930.76	228.51
931.06	228.39
931.36	228.31
931.66	228.33
931.96	228.40
932.26	228.35
932.56	228.36
932.86	228.46
933.16	228.43
933.46	228.58
933.76	228.49
934.06	228.61
934.36	228.51
934.66	228.58
934.96	228.48
935.26	228.44
935.56	228.30
935.86	228.24
936.16	228.28
936.46	228.27
936.76	228.27
937.06	228.20
937.36	228.30
937.66	228.34
937.96	228.32
938.26	228.30
938.56	228.32
938.86	228.26
939.16	228.31
939.46	228.39
939.76	228.34
940.06	228.40
940.35	228.30
940.65	228.35
940.95	228.31
941.25	228.35
941.55	228.31
941.85	228.38
942.15	228.30
942.45	228.27
942.75	228.20
943.04	228.14
943.34	228.19
943.64	228.06
943.94	228.06
944.24	228.11
944.54	228.04
944.84	228.00
945.13	228.06
945.43	227.97
945.73	227.89
946.03	227.90
946.33	227.81
946.62	227.79
946.92	227.81
947.22	227.98
947.52	227.91
947.82	228.03
948.11	227.96
948.41	228.15
948.71	228.21
949.01	228.29
949.31	228.35
949.60	228.30
949.90	228.37
950.20	228.29
950.50	228.24
950.79	228.22
951.09	228.21
951.39	228.11
951.69	228.11
951.98	228.22
952.28	228.24
952.58	228.22
952.87	228.20
953.17	228.23
953.47	228.12
953.76	228.15
954.06	228.07
954.36	228.10
954.66	228.01
954.95	228.00
955.25	228.04
955.55	228.03
955.84	228.15
956.14	228.13
956.44	228.20
956.73	228.17
957.03	228.24
957.32	228.33
957.62	228.38
957.92	228.44
958.21	228.32
958.51	228.51
958.81	228.60
959.10	228.67
959.40	228.59
959.69	228.51
959.99	228.55
960.29	228.57
960.58	228.61
960.88	228.64
961.17	228.76
961.47	228.76
961.76	228.72
962.06	228.72
962.36	228.76
962.65	228.69
962.95	228.78
963.24	228.85
963.54	228.86
963.83	228.90
964.13	228.75
964.42	228.80
964.72	228.59
965.01	228.61
965.31	228.55
965.60	228.61
965.90	228.74
966.19	228.66
966.49	228.71
966.78	228.59
967.08	228.72
967.37	228.64
967.67	228.64
967.96	228.70
968.26	228.66
968.55	228.63
968.85	228.61
969.14	228.55
969.43	228.53
969.73	228.48
970.02	228.45
970.32	228.50
970.61	228.52
970.91	228.50
971.20	228.43
971.49	228.42
971.79	228.47
972.08	228.34
972.38	228.38
972.67	228.30
972.96	228.32
973.26	228.24
973.55	228.21
973.85	228.22
974.14	228.15
974.43	228.16
974.73	228.15
975.02	228.20
975.31	228.20
975.61	228.11
975.90	228.08
976.19	228.00
976.49	228.01
976.78	227.90
977.07	227.96
977.37	227.97
977.66	228.02
977.95	227.90
978.24	227.96
978.54	227.93
978.83	227.94
979.12	227.95
979.42	227.92
979.71	227.92
980.00	227.82
980.29	227.86
980.59	227.72
980.88	227.73
981.17	227.67
981.46	227.60
981.76	227.60
982.05	227.52
982.34	227.55
982.63	227.55
982.93	227.51
983.22	227.60
983.51	227.59
983.80	227.60
984.09	227.62
984.39	227.60
984.68	227.59
984.97	227.52
985.26	227.54
985.55	227.48
985.85	227.55
986.14	227.58
986.43	227.53
986.72	227.61
987.01	227.66
987.30	227.63
987.59	227.56
987.89	227.58
988.18	227.56
988.47	227.61
988.76	227.61
989.05	227.70
989.34	227.63
989.63	227.64
989.92	227.63
990.22	227.58
990.51	227.59
990.80	227.61
991.09	227.68
991.38	227.62
991.67	227.61
991.96	227.51
992.25	227.53
992.54	227.59
992.83	227.60
993.12	227.52
993.41	227.59
993.70	227.84
993.99	227.89
994.28	228.00
994.58	228.00
994.87	228.02
995.16	228.01
995.45	228.03
995.74	228.12
996.03	228.06
996.32	228.14
996.61	228.17
996.90	228.20
997.19	228.23
997.48	228.41
997.77	228.40
998.06	228.46
998.34	228.49
998.63	228.45
998.92	228.38
999.21	228.39
999.50	228.43
999.79	228.29
1000.08	228.24
1000.37	228.26
1000.66	228.29
1000.95	228.33
1001.24	228.34
1001.53	228.30
1001.82	228.23
1002.11	228.33
1002.40	228.40
1002.68	228.43
1002.97	228.54
1003.26	228.45
1003.55	228.42
1003.84	228.45
1004.13	228.45
1004.42	228.36
1004.71	228.30
1004.99	228.38
1005.28	228.52
1005.57	228.49
1005.86	228.51
1006.15	228.49
1006.44	228.49
1006.72	228.46
1007.01	228.40
1007.30	228.43
1007.59	228.37
1007.88	228.39
1008.17	228.31
1008.45	228.19
1008.74	228.12
1009.03	228.07
1009.32	228.15
1009.60	228.18
1009.89	228.20
1010.18	228.15
1010.47	228.20
1010.76	228.27
1011.04	228.20
1011.33	228.16
1011.62	228.18
1011.91	228.12
1012.19	228.15
1012.48	228.08
1012.77	228.08
1013.05	228.16
1013.34	228.12
1013.63	228.17
1013.92	228.09
1014.20	228.01
1014.49	228.07
1014.78	228.08
1015.06	227.95
1015.35	227.89
1015.64	227.72
1015.92	227.75
1016.21	227.74
1016.50	227.70
1016.78	227.71
1017.07	227.83
1017.36	227.74
1017.64	227.70
1017.93	227.72
1018.22	227.74
1018.50	227.79
1018.79	227.83
1019.08	227.78
1019.36	227.88
1019.65	227.83
1019.93	227.82
1020.22	227.92
1020.51	227.98
1020.79	227.98
1021.08	227.90
1021.36	228.00
1021.65	229.80
1021.94	228.60
1022.22	229.20
1022.51	227.30
1022.79	226.80
1023.08	227.60
1023.36	230.10
1023.65	227.90
>>>>>End Processed Spectral Data<<<<<
