SpectraSuite Data File
++++++++++++++++++++++++++++++++++++
Date: Fri Feb 01 14:40:17 EST 2013
User: group
Dark Spectrum Present: No
Reference Spectrum Present: No
Number of Sampled Component Spectra: 1
Spectrometers: USB2E7196
Integration Time (usec): 70000 (USB2E7196)
Spectra Averaged: 10 (USB2E7196)
Boxcar Smoothing: 10 (USB2E7196)
Correct for Electrical Dark: No (USB2E7196)
Strobe/Lamp Enabled: No (USB2E7196)
Correct for Detector Non-linearity: No (USB2E7196)
Correct for Stray Light: No (USB2E7196)
Number of Pixels in Processed Spectrum: 2048
>>>>>Begin Processed Spectral Data<<<<<
339.09	0.00
339.48	217.50
339.86	218.70
340.24	219.30
340.63	220.00
341.01	222.90
341.39	222.80
341.78	225.80
342.16	226.60
342.54	225.20
342.93	214.74
343.31	225.55
343.69	226.04
344.07	226.46
344.46	226.84
344.84	227.33
345.22	227.55
345.60	227.80
345.99	227.97
346.37	228.00
346.75	228.12
347.13	228.23
347.52	228.36
347.90	228.36
348.28	228.34
348.66	228.46
349.05	228.36
349.43	228.40
349.81	228.49
350.19	228.43
350.57	228.51
350.96	228.50
351.34	228.59
351.72	228.75
352.10	228.85
352.48	228.91
352.87	228.89
353.25	228.95
353.63	229.04
354.01	229.00
354.39	229.13
354.77	229.13
355.15	229.24
355.54	229.16
355.92	229.22
356.30	229.31
356.68	229.54
357.06	229.58
357.44	229.60
357.82	229.56
358.20	229.62
358.58	229.70
358.97	229.82
359.35	229.92
359.73	229.91
360.11	229.99
360.49	230.05
360.87	230.09
361.25	230.10
361.63	230.15
362.01	230.28
362.39	230.33
362.77	230.57
363.15	230.60
363.53	230.70
363.91	230.59
364.29	230.52
364.67	230.39
365.05	230.48
365.43	230.60
365.81	230.71
366.19	230.81
366.57	230.91
366.95	230.90
367.33	230.94
367.71	230.99
368.09	230.90
368.47	230.90
368.85	230.86
369.23	230.87
369.61	230.78
369.99	230.86
370.37	230.74
370.75	230.70
371.13	230.59
371.51	230.46
371.89	230.49
372.27	230.51
372.65	230.44
373.03	230.45
373.41	230.31
373.78	230.20
374.16	230.13
374.54	230.04
374.92	229.92
375.30	229.74
375.68	229.57
376.06	229.65
376.44	229.52
376.82	229.51
377.19	229.53
377.57	229.45
377.95	229.13
378.33	229.12
378.71	228.94
379.09	228.89
379.47	228.79
379.84	228.75
380.22	228.71
380.60	228.54
380.98	228.35
381.36	228.23
381.73	228.17
382.11	228.02
382.49	227.93
382.87	227.80
383.25	227.76
383.62	227.76
384.00	227.60
384.38	227.51
384.76	227.39
385.13	227.40
385.51	227.44
385.89	227.54
386.27	227.48
386.64	227.52
387.02	227.40
387.40	227.40
387.78	227.31
388.15	227.16
388.53	227.18
388.91	227.07
389.29	227.08
389.66	227.15
390.04	227.04
390.42	227.01
390.79	226.95
391.17	226.96
391.55	226.87
391.92	226.80
392.30	226.94
392.68	226.91
393.05	226.88
393.43	226.82
393.81	226.71
394.18	226.64
394.56	226.63
394.94	226.77
395.31	226.83
395.69	226.95
396.06	227.01
396.44	227.02
396.82	227.11
397.19	227.22
397.57	227.28
397.95	227.40
398.32	227.40
398.70	227.60
399.07	227.65
399.45	227.64
399.82	227.74
400.20	227.78
400.58	227.85
400.95	227.85
401.33	228.02
401.70	228.24
402.08	228.32
402.45	228.31
402.83	228.37
403.20	228.49
403.58	228.61
403.95	228.86
404.33	228.97
404.71	229.11
405.08	229.39
405.46	229.42
405.83	229.52
406.21	229.68
406.58	229.76
406.96	229.87
407.33	230.14
407.70	230.29
408.08	230.65
408.45	230.90
408.83	231.15
409.20	231.24
409.58	231.47
409.95	231.80
410.33	232.12
410.70	232.41
411.08	232.70
411.45	232.95
411.82	233.21
412.20	233.54
412.57	233.92
412.95	234.00
413.32	234.39
413.69	234.90
414.07	235.30
414.44	235.77
414.82	236.21
415.19	236.77
415.56	237.28
415.94	237.69
416.31	238.32
416.68	238.84
417.06	239.54
417.43	240.26
417.81	241.00
418.18	241.70
418.55	242.50
418.93	243.27
419.30	244.23
419.67	245.10
420.04	246.16
420.42	247.15
420.79	248.51
421.16	249.72
421.54	250.87
421.91	252.14
422.28	253.51
422.66	254.80
423.03	256.06
423.40	257.32
423.77	258.70
424.15	260.05
424.52	261.53
424.89	263.15
425.26	264.57
425.64	265.94
426.01	267.49
426.38	269.06
426.75	270.71
427.13	272.38
427.50	274.25
427.87	276.06
428.24	277.90
428.61	279.50
428.99	281.45
429.36	283.38
429.73	285.33
430.10	287.28
430.47	289.51
430.85	291.57
431.22	293.83
431.59	296.28
431.96	298.50
432.33	301.02
432.70	303.34
433.08	306.21
433.45	308.99
433.82	311.59
434.19	314.55
434.56	317.48
434.93	320.07
435.30	322.57
435.68	325.44
436.05	328.20
436.42	331.05
436.79	333.50
437.16	336.33
437.53	339.29
437.90	342.01
438.27	344.70
438.64	347.55
439.01	350.39
439.38	352.51
439.75	354.72
440.13	357.18
440.50	359.58
440.87	361.48
441.24	363.33
441.61	365.49
441.98	366.97
442.35	368.79
442.72	370.57
443.09	372.62
443.46	373.67
443.83	374.41
444.20	374.89
444.57	375.75
444.94	376.11
445.31	376.53
445.68	377.18
446.05	377.26
446.42	377.02
446.79	376.58
447.16	376.37
447.53	376.10
447.90	375.06
448.27	373.90
448.64	372.27
449.01	371.19
449.37	369.45
449.74	367.70
450.11	365.54
450.48	363.24
450.85	360.76
451.22	358.67
451.59	356.68
451.96	354.78
452.33	352.19
452.70	349.79
453.07	346.87
453.43	343.79
453.80	341.14
454.17	338.47
454.54	335.92
454.91	332.97
455.28	330.27
455.65	327.74
456.02	325.52
456.38	323.37
456.75	320.75
457.12	318.44
457.49	316.14
457.86	313.89
458.23	312.09
458.59	309.84
458.96	307.72
459.33	305.75
459.70	303.92
460.07	302.41
460.43	300.71
460.80	299.06
461.17	297.67
461.54	296.11
461.91	294.51
462.27	293.02
462.64	291.78
463.01	290.40
463.38	289.07
463.74	287.44
464.11	286.29
464.48	285.10
464.85	284.02
465.21	283.04
465.58	282.03
465.95	280.83
466.32	279.90
466.68	278.89
467.05	278.02
467.42	276.93
467.78	275.91
468.15	274.90
468.52	274.16
468.88	273.11
469.25	272.21
469.62	271.53
469.98	270.68
470.35	269.91
470.72	269.20
471.08	268.42
471.45	267.83
471.82	267.15
472.18	266.55
472.55	265.73
472.92	265.13
473.28	264.46
473.65	263.74
474.02	263.04
474.38	262.47
474.75	261.98
475.11	261.58
475.48	261.10
475.85	260.70
476.21	260.26
476.58	259.97
476.94	259.52
477.31	259.20
477.67	258.80
478.04	258.63
478.41	258.42
478.77	258.40
479.14	258.09
479.50	257.86
479.87	257.55
480.23	257.50
480.60	257.25
480.96	257.15
481.33	257.16
481.69	257.08
482.06	257.06
482.42	256.89
482.79	256.79
483.15	256.81
483.52	256.80
483.88	256.80
484.25	256.68
484.61	256.75
484.98	256.66
485.34	256.81
485.71	256.82
486.07	256.86
486.44	256.69
486.80	256.69
487.17	256.64
487.53	256.94
487.90	257.14
488.26	257.45
488.62	257.70
488.99	257.85
489.35	258.10
489.72	258.32
490.08	258.68
490.44	258.86
490.81	259.20
491.17	259.45
491.54	259.87
491.90	260.33
492.26	260.78
492.63	261.32
492.99	261.73
493.36	262.14
493.72	262.65
494.08	263.30
494.45	264.10
494.81	264.83
495.17	265.58
495.54	266.27
495.90	267.01
496.26	267.82
496.63	268.87
496.99	269.85
497.35	270.92
497.72	271.96
498.08	273.22
498.44	274.43
498.80	275.82
499.17	277.01
499.53	278.37
499.89	279.82
500.26	281.41
500.62	283.05
500.98	284.93
501.34	286.77
501.71	288.57
502.07	290.36
502.43	292.44
502.79	294.33
503.16	296.39
503.52	298.58
503.88	300.80
504.24	303.14
504.60	305.68
504.97	308.19
505.33	310.90
505.69	313.84
506.05	316.77
506.41	319.77
506.78	322.96
507.14	326.10
507.50	329.48
507.86	332.92
508.22	336.53
508.59	340.18
508.95	344.09
509.31	348.22
509.67	352.40
510.03	356.52
510.39	360.91
510.75	365.53
511.12	370.30
511.48	375.14
511.84	380.06
512.20	385.02
512.56	390.36
512.92	395.63
513.28	401.03
513.64	406.65
514.00	412.56
514.37	418.45
514.73	424.65
515.09	430.80
515.45	437.22
515.81	443.70
516.17	450.24
516.53	456.88
516.89	463.64
517.25	470.74
517.61	477.95
517.97	485.21
518.33	492.42
518.69	499.92
519.05	507.53
519.41	515.28
519.77	523.62
520.13	531.73
520.49	540.21
520.85	548.55
521.21	557.09
521.57	565.56
521.93	574.14
522.29	582.92
522.65	591.63
523.01	600.48
523.37	609.51
523.73	618.73
524.09	628.02
524.45	637.54
524.81	647.06
525.17	656.80
525.53	666.61
525.89	676.88
526.25	686.94
526.61	696.91
526.97	707.08
527.33	717.25
527.68	727.76
528.04	737.95
528.40	748.22
528.76	758.88
529.12	769.49
529.48	780.56
529.84	791.05
530.20	802.23
530.56	813.30
530.91	824.76
531.27	835.99
531.63	847.11
531.99	858.21
532.35	869.20
532.71	880.54
533.07	891.80
533.42	902.91
533.78	914.32
534.14	926.04
534.50	937.30
534.86	948.33
535.21	959.41
535.57	971.02
535.93	983.03
536.29	994.59
536.65	1006.20
537.00	1017.47
537.36	1029.35
537.72	1040.65
538.08	1052.17
538.44	1062.79
538.79	1073.74
539.15	1084.90
539.51	1096.44
539.87	1107.99
540.22	1119.06
540.58	1130.74
540.94	1141.84
541.29	1152.67
541.65	1163.57
542.01	1174.76
542.37	1185.78
542.72	1196.28
543.08	1206.91
543.44	1217.22
543.79	1227.07
544.15	1237.39
544.51	1248.39
544.87	1258.99
545.22	1269.24
545.58	1279.32
545.94	1289.51
546.29	1299.43
546.65	1309.18
547.01	1318.48
547.36	1327.66
547.72	1336.83
548.07	1345.60
548.43	1354.60
548.79	1363.59
549.14	1372.10
549.50	1380.44
549.86	1388.95
550.21	1397.60
550.57	1405.82
550.92	1413.81
551.28	1422.00
551.64	1429.94
551.99	1437.25
552.35	1444.44
552.70	1452.14
553.06	1459.96
553.41	1467.69
553.77	1475.39
554.13	1482.75
554.48	1490.02
554.84	1497.33
555.19	1504.52
555.55	1511.60
555.90	1518.20
556.26	1524.64
556.61	1531.61
556.97	1538.10
557.32	1544.49
557.68	1550.62
558.03	1556.94
558.39	1563.64
558.74	1570.62
559.10	1576.45
559.45	1582.39
559.81	1589.09
560.16	1594.39
560.52	1599.52
560.87	1604.94
561.23	1610.14
561.58	1615.79
561.94	1621.10
562.29	1625.67
562.64	1630.02
563.00	1634.34
563.35	1639.84
563.71	1645.11
564.06	1649.63
564.42	1654.39
564.77	1658.75
565.12	1664.00
565.48	1668.34
565.83	1671.86
566.19	1675.52
566.54	1679.45
566.89	1683.05
567.25	1686.06
567.60	1690.26
567.96	1693.72
568.31	1697.02
568.66	1700.16
569.02	1702.81
569.37	1705.10
569.72	1708.22
570.08	1711.03
570.43	1713.50
570.78	1715.30
571.14	1716.67
571.49	1718.57
571.84	1720.85
572.20	1722.45
572.55	1723.22
572.90	1723.99
573.26	1725.42
573.61	1726.05
573.96	1726.81
574.31	1726.88
574.67	1726.70
575.02	1726.23
575.37	1726.05
575.72	1725.23
576.08	1724.88
576.43	1724.40
576.78	1724.42
577.13	1724.27
577.49	1723.75
577.84	1723.46
578.19	1722.58
578.54	1721.73
578.90	1720.25
579.25	1718.10
579.60	1716.76
579.95	1715.21
580.30	1713.76
580.66	1711.62
581.01	1709.42
581.36	1708.07
581.71	1706.94
582.06	1705.47
582.42	1703.38
582.77	1701.02
583.12	1699.01
583.47	1697.12
583.82	1695.25
584.17	1692.42
584.53	1690.01
584.88	1687.70
585.23	1685.05
585.58	1682.80
585.93	1680.67
586.28	1678.55
586.63	1676.39
586.98	1674.23
587.34	1671.70
587.69	1669.17
588.04	1666.75
588.39	1664.74
588.74	1660.76
589.09	1657.08
589.44	1653.37
589.79	1650.94
590.14	1648.58
590.49	1645.83
590.84	1642.31
591.19	1638.80
591.54	1635.13
591.89	1630.58
592.25	1626.95
592.60	1622.47
592.95	1618.06
593.30	1613.46
593.65	1609.06
594.00	1604.68
594.35	1600.24
594.70	1595.29
595.05	1591.14
595.40	1586.44
595.75	1581.29
596.10	1577.38
596.45	1573.67
596.80	1569.97
597.15	1565.53
597.50	1560.82
597.85	1556.67
598.19	1552.92
598.54	1548.82
598.89	1544.80
599.24	1541.22
599.59	1537.41
599.94	1534.02
600.29	1529.83
600.64	1525.54
600.99	1520.86
601.34	1516.83
601.69	1512.19
602.04	1508.37
602.39	1503.87
602.74	1500.28
603.08	1496.43
603.43	1492.41
603.78	1488.00
604.13	1483.27
604.48	1478.25
604.83	1473.61
605.18	1468.83
605.53	1463.52
605.87	1458.06
606.22	1453.54
606.57	1448.30
606.92	1442.73
607.27	1437.91
607.62	1433.27
607.96	1428.98
608.31	1424.22
608.66	1418.61
609.01	1412.76
609.36	1407.22
609.70	1401.29
610.05	1395.00
610.40	1389.26
610.75	1383.28
611.10	1376.98
611.44	1370.68
611.79	1365.49
612.14	1359.52
612.49	1353.17
612.83	1346.96
613.18	1341.01
613.53	1334.96
613.88	1328.79
614.22	1322.67
614.57	1315.87
614.92	1309.45
615.27	1303.30
615.61	1297.13
615.96	1291.28
616.31	1286.00
616.65	1280.72
617.00	1275.00
617.35	1269.41
617.70	1263.48
618.04	1257.09
618.39	1251.19
618.74	1246.16
619.08	1239.57
619.43	1233.80
619.78	1228.44
620.12	1222.73
620.47	1217.05
620.82	1210.96
621.16	1205.27
621.51	1199.90
621.85	1194.41
622.20	1188.57
622.55	1182.46
622.89	1177.12
623.24	1171.66
623.59	1166.04
623.93	1160.17
624.28	1154.80
624.62	1149.17
624.97	1143.73
625.32	1138.84
625.66	1133.77
626.01	1127.86
626.35	1122.35
626.70	1116.97
627.04	1111.42
627.39	1105.60
627.73	1099.98
628.08	1094.66
628.43	1089.05
628.77	1083.36
629.12	1077.50
629.46	1071.80
629.81	1065.79
630.15	1059.76
630.50	1053.73
630.84	1047.56
631.19	1041.43
631.53	1035.37
631.88	1029.33
632.22	1022.94
632.57	1017.19
632.91	1010.83
633.26	1004.85
633.60	998.95
633.95	992.95
634.29	986.97
634.64	981.64
634.98	976.03
635.32	970.56
635.67	965.56
636.01	960.22
636.36	954.93
636.70	949.92
637.05	945.08
637.39	940.10
637.73	935.00
638.08	930.34
638.42	925.57
638.77	920.68
639.11	915.41
639.45	910.73
639.80	905.45
640.14	900.77
640.49	895.81
640.83	890.85
641.17	886.14
641.52	881.23
641.86	876.04
642.20	871.33
642.55	866.28
642.89	860.99
643.23	855.61
643.58	850.88
643.92	845.66
644.26	840.81
644.61	836.26
644.95	831.58
645.29	826.12
645.64	820.71
645.98	815.90
646.32	811.14
646.66	805.96
647.01	801.16
647.35	796.34
647.69	791.62
648.04	787.34
648.38	782.14
648.72	777.08
649.06	772.23
649.41	767.37
649.75	762.48
650.09	757.50
650.43	752.79
650.78	747.80
651.12	743.09
651.46	738.20
651.80	733.14
652.14	728.35
652.49	723.91
652.83	719.48
653.17	714.52
653.51	709.86
653.85	705.48
654.20	700.85
654.54	696.04
654.88	691.42
655.22	686.56
655.56	682.23
655.90	677.98
656.25	673.62
656.59	669.23
656.93	664.76
657.27	660.60
657.61	656.21
657.95	652.17
658.29	647.97
658.64	643.68
658.98	639.42
659.32	635.11
659.66	631.19
660.00	627.10
660.34	623.02
660.68	619.05
661.02	615.11
661.36	611.27
661.70	607.65
662.05	604.02
662.39	600.50
662.73	596.60
663.07	592.98
663.41	589.66
663.75	586.05
664.09	582.61
664.43	579.00
664.77	575.50
665.11	571.94
665.45	568.63
665.79	565.16
666.13	561.81
666.47	558.48
666.81	555.06
667.15	551.64
667.49	548.52
667.83	545.42
668.17	542.07
668.51	538.72
668.85	535.52
669.19	532.47
669.53	529.15
669.87	526.03
670.21	523.13
670.55	520.01
670.89	517.33
671.23	514.44
671.57	511.66
671.91	508.81
672.25	505.70
672.58	502.90
672.92	500.33
673.26	497.53
673.60	494.89
673.94	492.09
674.28	489.61
674.62	487.10
674.96	484.30
675.30	481.90
675.64	479.21
675.97	476.72
676.31	474.09
676.65	471.76
676.99	469.56
677.33	466.86
677.67	464.34
678.01	461.57
678.34	459.20
678.68	456.79
679.02	454.43
679.36	452.43
679.70	450.10
680.04	447.70
680.37	445.30
680.71	443.00
681.05	441.04
681.39	438.80
681.73	436.44
682.06	434.56
682.40	432.48
682.74	430.53
683.08	428.36
683.42	426.23
683.75	424.01
684.09	421.81
684.43	419.90
684.77	418.03
685.10	416.22
685.44	414.19
685.78	412.22
686.12	410.25
686.45	408.19
686.79	406.21
687.13	404.35
687.46	402.44
687.80	400.50
688.14	398.49
688.48	396.67
688.81	394.73
689.15	392.96
689.49	391.06
689.82	389.26
690.16	387.40
690.50	385.83
690.83	384.14
691.17	382.38
691.51	380.41
691.84	378.65
692.18	376.84
692.52	375.00
692.85	373.22
693.19	371.67
693.52	370.13
693.86	368.33
694.20	366.61
694.53	365.17
694.87	363.68
695.21	361.99
695.54	360.40
695.88	358.85
696.21	357.10
696.55	355.60
696.88	354.09
697.22	352.61
697.56	351.09
697.89	349.60
698.23	348.15
698.56	346.81
698.90	345.38
699.23	343.79
699.57	342.34
699.90	341.09
700.24	339.67
700.58	338.17
700.91	337.02
701.25	335.93
701.58	334.70
701.92	333.42
702.25	332.27
702.59	331.07
702.92	330.06
703.26	328.99
703.59	327.77
703.93	326.91
704.26	325.87
704.60	324.80
704.93	323.72
705.26	322.62
705.60	321.67
705.93	320.57
706.27	319.63
706.60	318.74
706.94	317.80
707.27	316.93
707.61	315.88
707.94	314.86
708.27	313.65
708.61	312.61
708.94	311.66
709.28	310.76
709.61	309.78
709.94	308.90
710.28	308.02
710.61	307.04
710.95	305.86
711.28	305.04
711.61	304.03
711.95	303.20
712.28	302.34
712.61	301.40
712.95	300.69
713.28	299.85
713.61	299.00
713.95	298.10
714.28	297.13
714.61	296.40
714.95	295.67
715.28	294.84
715.61	293.98
715.95	293.08
716.28	292.30
716.61	291.55
716.95	290.76
717.28	290.10
717.61	289.59
717.94	288.88
718.28	288.03
718.61	287.35
718.94	286.53
719.27	285.86
719.61	285.28
719.94	284.76
720.27	284.09
720.60	283.46
720.94	282.89
721.27	282.31
721.60	281.84
721.93	281.30
722.27	280.91
722.60	280.43
722.93	279.93
723.26	279.34
723.59	278.78
723.93	278.19
724.26	277.48
724.59	276.91
724.92	276.43
725.25	275.96
725.59	275.38
725.92	275.06
726.25	274.63
726.58	274.07
726.91	273.35
727.24	272.95
727.57	272.44
727.91	271.89
728.24	271.49
728.57	270.92
728.90	270.36
729.23	269.85
729.56	269.43
729.89	269.00
730.22	268.58
730.55	268.20
730.89	267.71
731.22	267.30
731.55	266.87
731.88	266.43
732.21	266.02
732.54	265.60
732.87	265.05
733.20	264.56
733.53	264.29
733.86	263.91
734.19	263.53
734.52	263.16
734.85	262.86
735.18	262.40
735.51	261.95
735.84	261.53
736.17	261.14
736.50	260.70
736.83	260.40
737.16	260.07
737.49	259.60
737.82	259.38
738.15	259.15
738.48	258.64
738.81	258.28
739.14	257.88
739.47	257.54
739.80	257.34
740.13	257.12
740.46	256.68
740.79	256.37
741.12	255.95
741.45	255.67
741.78	255.39
742.11	255.11
742.44	254.81
742.77	254.63
743.10	254.32
743.43	253.96
743.75	253.69
744.08	253.61
744.41	253.40
744.74	253.04
745.07	252.77
745.40	252.60
745.73	252.38
746.06	252.17
746.39	252.03
746.71	251.74
747.04	251.42
747.37	251.19
747.70	250.80
748.03	250.57
748.36	250.41
748.68	250.11
749.01	249.88
749.34	249.75
749.67	249.49
750.00	249.35
750.33	249.28
750.65	249.05
750.98	248.72
751.31	248.56
751.64	248.43
751.97	248.20
752.29	248.00
752.62	247.71
752.95	247.52
753.28	247.20
753.60	247.05
753.93	246.85
754.26	246.61
754.59	246.51
754.91	246.32
755.24	246.05
755.57	245.92
755.90	245.70
756.22	245.42
756.55	245.27
756.88	244.96
757.20	244.66
757.53	244.44
757.86	244.11
758.19	243.86
758.51	243.63
758.84	243.45
759.17	243.29
759.49	243.21
759.82	243.02
760.15	242.95
760.47	242.73
760.80	242.60
761.13	242.53
761.45	242.44
761.78	242.32
762.11	242.19
762.43	241.99
762.76	241.83
763.08	241.82
763.41	241.64
763.74	241.43
764.06	241.25
764.39	241.05
764.71	240.94
765.04	240.86
765.37	240.69
765.69	240.49
766.02	240.27
766.34	240.12
766.67	240.03
767.00	239.88
767.32	239.80
767.65	239.86
767.97	239.62
768.30	239.47
768.62	239.39
768.95	239.21
769.27	238.98
769.60	238.83
769.92	238.62
770.25	238.30
770.57	238.27
770.90	238.20
771.22	238.16
771.55	238.00
771.87	237.89
772.20	237.75
772.52	237.80
772.85	237.98
773.17	237.93
773.50	237.77
773.82	237.62
774.15	237.46
774.47	237.13
774.80	237.04
775.12	236.96
775.45	236.70
775.77	236.62
776.09	236.64
776.42	236.68
776.74	236.60
777.07	236.60
777.39	236.62
777.72	236.49
778.04	236.35
778.36	236.30
778.69	236.16
779.01	236.14
779.33	235.97
779.66	235.66
779.98	235.46
780.31	235.50
780.63	235.56
780.95	235.48
781.28	235.42
781.60	235.34
781.92	235.26
782.25	235.34
782.57	235.36
782.89	235.36
783.22	235.17
783.54	235.02
783.86	235.05
784.19	234.89
784.51	234.89
784.83	234.84
785.16	234.70
785.48	234.72
785.80	234.62
786.12	234.48
786.45	234.36
786.77	234.38
787.09	234.19
787.42	234.00
787.74	233.90
788.06	233.85
788.38	233.83
788.71	233.61
789.03	233.56
789.35	233.50
789.67	233.40
789.99	233.39
790.32	233.28
790.64	233.20
790.96	233.35
791.28	233.26
791.61	233.22
791.93	233.25
792.25	233.13
792.57	233.26
792.89	233.23
793.21	233.23
793.54	233.14
793.86	233.12
794.18	233.08
794.50	233.11
794.82	233.03
795.14	233.03
795.47	233.26
795.79	233.21
796.11	233.01
796.43	232.85
796.75	232.82
797.07	232.85
797.39	232.99
797.71	232.69
798.04	232.69
798.36	232.70
798.68	232.55
799.00	232.59
799.32	232.49
799.64	232.48
799.96	232.47
800.28	232.45
800.60	232.37
800.92	232.41
801.24	232.28
801.56	232.30
801.89	232.17
802.21	232.00
802.53	231.91
802.85	231.92
803.17	231.99
803.49	231.92
803.81	231.81
804.13	231.62
804.45	231.64
804.77	231.60
805.09	231.45
805.41	231.48
805.73	231.40
806.05	231.30
806.37	231.26
806.69	231.17
807.01	231.15
807.33	231.17
807.65	231.10
807.97	231.24
808.28	231.14
808.60	231.10
808.92	231.02
809.24	231.09
809.56	231.10
809.88	230.99
810.20	231.04
810.52	231.14
810.84	231.09
811.16	231.12
811.48	231.20
811.80	231.42
812.12	231.45
812.43	231.41
812.75	231.40
813.07	231.45
813.39	231.48
813.71	231.39
814.03	231.27
814.35	231.23
814.67	231.08
814.98	231.10
815.30	231.19
815.62	231.24
815.94	231.16
816.26	231.20
816.58	231.26
816.89	231.31
817.21	231.25
817.53	231.22
817.85	231.20
818.17	231.05
818.48	230.80
818.80	230.80
819.12	230.80
819.44	230.75
819.76	230.68
820.07	230.70
820.39	230.71
820.71	230.86
821.03	230.85
821.34	230.87
821.66	230.89
821.98	230.86
822.30	230.79
822.61	230.77
822.93	230.69
823.25	230.66
823.57	230.55
823.88	230.60
824.20	230.63
824.52	230.60
824.83	230.58
825.15	230.64
825.47	230.68
825.79	230.66
826.10	230.65
826.42	230.60
826.74	230.60
827.05	230.60
827.37	230.52
827.69	230.55
828.00	230.52
828.32	230.43
828.64	230.45
828.95	230.52
829.27	230.53
829.58	230.61
829.90	230.60
830.22	230.50
830.53	230.43
830.85	230.32
831.17	230.30
831.48	230.31
831.80	230.25
832.11	230.14
832.43	230.16
832.75	230.12
833.06	230.18
833.38	230.10
833.69	230.07
834.01	230.03
834.32	229.87
834.64	229.79
834.96	229.87
835.27	229.83
835.59	229.80
835.90	229.71
836.22	229.58
836.53	229.52
836.85	229.63
837.16	229.77
837.48	229.81
837.79	229.83
838.11	229.81
838.42	229.76
838.74	229.77
839.05	229.60
839.37	229.55
839.68	229.41
840.00	229.38
840.31	229.36
840.63	229.35
840.94	229.38
841.26	229.40
841.57	229.19
841.88	229.17
842.20	229.09
842.51	229.12
842.83	229.10
843.14	229.20
843.46	229.20
843.77	229.00
844.08	228.96
844.40	228.81
844.71	228.69
845.03	228.56
845.34	228.52
845.65	228.68
845.97	228.68
846.28	228.68
846.60	228.66
846.91	228.59
847.22	228.64
847.54	228.63
847.85	228.65
848.16	228.71
848.48	228.64
848.79	228.68
849.10	228.61
849.42	228.56
849.73	228.40
850.04	228.33
850.36	228.28
850.67	228.29
850.98	228.34
851.30	228.41
851.61	228.57
851.92	228.58
852.23	228.50
852.55	228.56
852.86	228.64
853.17	228.64
853.49	228.67
853.80	228.65
854.11	228.69
854.42	228.73
854.74	228.78
855.05	228.87
855.36	228.84
855.67	228.85
855.99	228.87
856.30	229.09
856.61	229.09
856.92	229.16
857.23	229.26
857.55	229.25
857.86	229.28
858.17	229.37
858.48	229.26
858.79	229.28
859.11	229.29
859.42	229.28
859.73	229.29
860.04	229.32
860.35	229.28
860.66	229.21
860.98	229.14
861.29	229.09
861.60	229.10
861.91	229.17
862.22	229.22
862.53	229.30
862.84	229.12
863.16	229.26
863.47	229.30
863.78	229.28
864.09	229.28
864.40	229.29
864.71	229.21
865.02	229.31
865.33	229.20
865.64	229.14
865.95	229.10
866.27	229.14
866.58	229.14
866.89	229.10
867.20	229.15
867.51	229.13
867.82	229.20
868.13	229.20
868.44	229.21
868.75	229.20
869.06	229.20
869.37	229.19
869.68	229.03
869.99	228.96
870.30	229.00
870.61	229.03
870.92	228.97
871.23	229.01
871.54	229.02
871.85	229.15
872.16	229.22
872.47	229.27
872.78	229.20
873.09	229.24
873.40	229.32
873.71	229.45
874.02	229.46
874.33	229.42
874.64	229.38
874.95	229.34
875.26	229.37
875.56	229.29
875.87	229.30
876.18	229.27
876.49	229.49
876.80	229.40
877.11	229.36
877.42	229.40
877.73	229.27
878.04	229.25
878.35	229.23
878.66	229.15
878.96	229.10
879.27	229.07
879.58	228.95
879.89	228.88
880.20	228.82
880.51	228.75
880.82	228.67
881.12	228.61
881.43	228.49
881.74	228.40
882.05	228.39
882.36	228.35
882.67	228.41
882.97	228.13
883.28	228.08
883.59	228.11
883.90	228.10
884.21	228.13
884.51	228.13
884.82	228.10
885.13	228.18
885.44	228.05
885.74	228.09
886.05	228.18
886.36	228.20
886.67	228.13
886.98	228.25
887.28	228.39
887.59	228.36
887.90	228.44
888.20	228.47
888.51	228.41
888.82	228.46
889.13	228.48
889.43	228.60
889.74	228.63
890.05	228.60
890.35	228.58
890.66	228.52
890.97	228.50
891.28	228.50
891.58	228.44
891.89	228.50
892.20	228.53
892.50	228.43
892.81	228.34
893.12	228.37
893.42	228.42
893.73	228.42
894.04	228.53
894.34	228.61
894.65	228.60
894.95	228.60
895.26	228.62
895.57	228.64
895.87	228.67
896.18	228.63
896.48	228.70
896.79	228.80
897.10	228.90
897.40	228.93
897.71	228.84
898.01	228.82
898.32	228.86
898.63	228.80
898.93	228.89
899.24	229.01
899.54	228.99
899.85	228.90
900.15	228.89
900.46	228.80
900.76	228.76
901.07	228.73
901.38	228.82
901.68	228.80
901.99	228.78
902.29	228.70
902.60	228.80
902.90	228.85
903.21	228.78
903.51	228.83
903.82	228.82
904.12	228.93
904.43	229.03
904.73	228.94
905.03	229.06
905.34	229.26
905.64	229.28
905.95	229.23
906.25	229.41
906.56	229.43
906.86	229.47
907.17	229.45
907.47	229.50
907.77	229.54
908.08	229.52
908.38	229.48
908.69	229.47
908.99	229.43
909.30	229.33
909.60	229.30
909.90	229.25
910.21	229.24
910.51	229.22
910.81	229.17
911.12	229.35
911.42	229.20
911.73	228.95
912.03	228.94
912.33	229.05
912.64	228.86
912.94	228.83
913.24	228.79
913.55	228.74
913.85	228.68
914.15	228.66
914.46	228.65
914.76	228.70
915.06	228.66
915.37	228.70
915.67	228.71
915.97	228.72
916.27	228.59
916.58	228.56
916.88	228.48
917.18	228.49
917.49	228.60
917.79	228.62
918.09	228.67
918.39	228.59
918.70	228.55
919.00	228.48
919.30	228.44
919.60	228.52
919.91	228.47
920.21	228.54
920.51	228.51
920.81	228.46
921.12	228.48
921.42	228.46
921.72	228.40
922.02	228.38
922.32	228.38
922.63	228.46
922.93	228.53
923.23	228.49
923.53	228.38
923.83	228.16
924.13	228.16
924.44	228.11
924.74	228.23
925.04	228.23
925.34	228.35
925.64	228.39
925.94	228.24
926.24	228.38
926.55	228.40
926.85	228.41
927.15	228.43
927.45	228.42
927.75	228.51
928.05	228.50
928.35	228.39
928.65	228.41
928.95	228.33
929.26	228.29
929.56	228.41
929.86	228.54
930.16	228.65
930.46	228.65
930.76	228.65
931.06	228.49
931.36	228.49
931.66	228.50
931.96	228.49
932.26	228.61
932.56	228.57
932.86	228.50
933.16	228.46
933.46	228.47
933.76	228.40
934.06	228.37
934.36	228.44
934.66	228.50
934.96	228.50
935.26	228.60
935.56	228.69
935.86	228.68
936.16	228.56
936.46	228.49
936.76	228.45
937.06	228.44
937.36	228.50
937.66	228.49
937.96	228.55
938.26	228.48
938.56	228.36
938.86	228.36
939.16	228.49
939.46	228.55
939.76	228.65
940.06	228.65
940.35	228.61
940.65	228.54
940.95	228.57
941.25	228.55
941.55	228.60
941.85	228.46
942.15	228.59
942.45	228.65
942.75	228.69
943.04	228.82
943.34	228.84
943.64	228.88
943.94	228.89
944.24	228.73
944.54	228.75
944.84	228.83
945.13	228.85
945.43	228.77
945.73	228.86
946.03	228.72
946.33	228.79
946.62	228.85
946.92	228.91
947.22	228.84
947.52	228.76
947.82	228.85
948.11	228.95
948.41	228.84
948.71	228.86
949.01	228.87
949.31	228.79
949.60	228.81
949.90	228.82
950.20	228.87
950.50	228.87
950.79	228.84
951.09	228.79
951.39	228.76
951.69	228.70
951.98	228.74
952.28	228.79
952.58	228.76
952.87	228.71
953.17	228.73
953.47	228.81
953.76	228.94
954.06	228.76
954.36	228.78
954.66	228.69
954.95	228.74
955.25	228.81
955.55	228.85
955.84	228.80
956.14	228.71
956.44	228.65
956.73	228.71
957.03	228.73
957.32	228.75
957.62	228.70
957.92	228.77
958.21	228.57
958.51	228.85
958.81	228.83
959.10	228.84
959.40	228.84
959.69	228.81
959.99	228.73
960.29	228.74
960.58	228.60
960.88	228.67
961.17	228.60
961.47	228.50
961.76	228.46
962.06	228.47
962.36	228.48
962.65	228.43
962.95	228.38
963.24	228.36
963.54	228.35
963.83	228.32
964.13	228.20
964.42	228.22
964.72	227.94
965.01	227.86
965.31	227.73
965.60	227.58
965.90	227.64
966.19	227.62
966.49	227.59
966.78	227.64
967.08	227.66
967.37	227.60
967.67	227.51
967.96	227.48
968.26	227.45
968.55	227.42
968.85	227.42
969.14	227.45
969.43	227.44
969.73	227.55
970.02	227.53
970.32	227.59
970.61	227.49
970.91	227.43
971.20	227.40
971.49	227.54
971.79	227.60
972.08	227.50
972.38	227.48
972.67	227.60
972.96	227.60
973.26	227.50
973.55	227.60
973.85	227.56
974.14	227.67
974.43	227.70
974.73	227.75
975.02	227.81
975.31	227.74
975.61	227.80
975.90	227.66
976.19	227.73
976.49	227.84
976.78	227.87
977.07	227.89
977.37	228.00
977.66	227.98
977.95	227.98
978.24	227.99
978.54	227.99
978.83	227.80
979.12	227.79
979.42	227.78
979.71	227.72
980.00	227.79
980.29	227.76
980.59	227.77
980.88	227.75
981.17	227.59
981.46	227.71
981.76	227.70
982.05	227.86
982.34	227.95
982.63	227.86
982.93	227.96
983.22	228.01
983.51	228.01
983.80	228.03
984.09	228.12
984.39	228.22
984.68	228.27
984.97	228.37
985.26	228.46
985.55	228.56
985.85	228.53
986.14	228.51
986.43	228.55
986.72	228.51
987.01	228.50
987.30	228.66
987.59	228.66
987.89	228.59
988.18	228.48
988.47	228.48
988.76	228.41
989.05	228.43
989.34	228.42
989.63	228.51
989.92	228.49
990.22	228.43
990.51	228.31
990.80	228.35
991.09	228.33
991.38	228.28
991.67	228.20
991.96	228.19
992.25	228.15
992.54	228.06
992.83	228.02
993.12	228.03
993.41	228.05
993.70	228.10
993.99	228.13
994.28	228.13
994.58	228.07
994.87	228.09
995.16	228.01
995.45	227.95
995.74	227.74
996.03	227.74
996.32	227.75
996.61	227.71
996.90	227.64
997.19	227.72
997.48	227.74
997.77	227.70
998.06	227.68
998.34	227.77
998.63	227.81
998.92	227.81
999.21	227.78
999.50	227.68
999.79	227.61
1000.08	227.66
1000.37	227.78
1000.66	227.79
1000.95	227.83
1001.24	227.86
1001.53	227.86
1001.82	227.94
1002.11	227.91
1002.40	227.92
1002.68	228.05
1002.97	228.23
1003.26	228.23
1003.55	228.11
1003.84	228.13
1004.13	228.16
1004.42	228.11
1004.71	228.08
1004.99	228.16
1005.28	228.21
1005.57	228.18
1005.86	228.12
1006.15	228.15
1006.44	227.95
1006.72	227.96
1007.01	227.95
1007.30	227.86
1007.59	227.89
1007.88	227.88
1008.17	227.93
1008.45	227.84
1008.74	227.81
1009.03	227.74
1009.32	227.64
1009.60	227.70
1009.89	227.71
1010.18	227.72
1010.47	227.62
1010.76	227.64
1011.04	227.47
1011.33	227.52
1011.62	227.60
1011.91	227.66
1012.19	227.67
1012.48	227.75
1012.77	227.70
1013.05	227.80
1013.34	227.92
1013.63	227.91
1013.92	227.91
1014.20	227.87
1014.49	227.85
1014.78	227.92
1015.06	227.77
1015.35	227.86
1015.64	227.88
1015.92	227.90
1016.21	227.96
1016.50	228.08
1016.78	228.13
1017.07	228.30
1017.36	228.23
1017.64	228.29
1017.93	228.27
1018.22	228.30
1018.50	228.23
1018.79	228.28
1019.08	228.17
1019.36	228.20
1019.65	228.20
1019.93	228.33
1020.22	228.38
1020.51	228.60
1020.79	228.59
1021.08	230.30
1021.36	226.90
1021.65	228.90
1021.94	227.60
1022.22	229.40
1022.51	227.60
1022.79	229.90
1023.08	229.00
1023.36	231.30
1023.65	229.40
>>>>>End Processed Spectral Data<<<<<
