SpectraSuite Data File
++++++++++++++++++++++++++++++++++++
Date: Fri Feb 01 14:41:20 EST 2013
User: group
Dark Spectrum Present: No
Reference Spectrum Present: No
Number of Sampled Component Spectra: 1
Spectrometers: USB2E7196
Integration Time (usec): 70000 (USB2E7196)
Spectra Averaged: 10 (USB2E7196)
Boxcar Smoothing: 10 (USB2E7196)
Correct for Electrical Dark: No (USB2E7196)
Strobe/Lamp Enabled: No (USB2E7196)
Correct for Detector Non-linearity: No (USB2E7196)
Correct for Stray Light: No (USB2E7196)
Number of Pixels in Processed Spectrum: 2048
>>>>>Begin Processed Spectral Data<<<<<
339.09	0.00
339.48	216.70
339.86	219.10
340.24	219.30
340.63	218.90
341.01	224.40
341.39	223.70
341.78	224.70
342.16	225.60
342.54	226.40
342.93	214.76
343.31	225.61
343.69	226.18
344.07	226.63
344.46	227.10
344.84	227.59
345.22	227.79
345.60	228.11
345.99	228.40
346.37	228.54
346.75	228.69
347.13	228.69
347.52	228.73
347.90	228.80
348.28	228.95
348.66	229.05
349.05	229.04
349.43	229.07
349.81	229.04
350.19	229.01
350.57	229.12
350.96	229.29
351.34	229.37
351.72	229.47
352.10	229.58
352.48	229.54
352.87	229.53
353.25	229.59
353.63	229.59
354.01	229.61
354.39	229.75
354.77	229.78
355.15	229.90
355.54	230.08
355.92	230.11
356.30	230.24
356.68	230.32
357.06	230.32
357.44	230.44
357.82	230.47
358.20	230.55
358.58	230.55
358.97	230.57
359.35	230.66
359.73	230.63
360.11	230.70
360.49	230.74
360.87	230.83
361.25	230.88
361.63	230.88
362.01	230.85
362.39	230.87
362.77	230.96
363.15	231.00
363.53	231.02
363.91	230.96
364.29	230.90
364.67	230.86
365.05	230.94
365.43	230.83
365.81	230.92
366.19	230.96
366.57	231.10
366.95	231.07
367.33	231.01
367.71	230.99
368.09	230.96
368.47	230.92
368.85	230.90
369.23	230.95
369.61	230.90
369.99	230.91
370.37	230.89
370.75	230.92
371.13	230.73
371.51	230.56
371.89	230.64
372.27	230.65
372.65	230.50
373.03	230.50
373.41	230.48
373.78	230.42
374.16	230.27
374.54	230.10
374.92	230.04
375.30	230.05
375.68	229.98
376.06	229.87
376.44	229.84
376.82	229.74
377.19	229.59
377.57	229.57
377.95	229.43
378.33	229.30
378.71	229.12
379.09	229.18
379.47	229.14
379.84	229.09
380.22	228.99
380.60	228.90
380.98	228.77
381.36	228.62
381.73	228.50
382.11	228.44
382.49	228.36
382.87	228.24
383.25	228.05
383.62	228.22
384.00	228.10
384.38	228.03
384.76	228.03
385.13	228.06
385.51	227.99
385.89	227.84
386.27	227.77
386.64	227.70
387.02	227.63
387.40	227.51
387.78	227.41
388.15	227.43
388.53	227.40
388.91	227.32
389.29	227.30
389.66	227.34
390.04	227.32
390.42	227.32
390.79	227.33
391.17	227.44
391.55	227.23
391.92	227.21
392.30	227.23
392.68	227.16
393.05	227.11
393.43	227.10
393.81	227.26
394.18	227.29
394.56	227.38
394.94	227.50
395.31	227.56
395.69	227.71
396.06	227.66
396.44	227.68
396.82	227.77
397.19	228.01
397.57	228.02
397.95	228.13
398.32	228.20
398.70	228.30
399.07	228.32
399.45	228.44
399.82	228.59
400.20	228.71
400.58	228.90
400.95	229.01
401.33	229.10
401.70	229.39
402.08	229.48
402.45	229.53
402.83	229.62
403.20	229.88
403.58	229.92
403.95	230.16
404.33	230.37
404.71	230.59
405.08	230.81
405.46	230.98
405.83	231.21
406.21	231.46
406.58	231.70
406.96	231.93
407.33	232.10
407.70	232.42
408.08	232.77
408.45	232.92
408.83	233.31
409.20	233.64
409.58	233.75
409.95	234.13
410.33	234.51
410.70	234.80
411.08	235.11
411.45	235.49
411.82	235.75
412.20	236.21
412.57	236.72
412.95	236.99
413.32	237.53
413.69	237.93
414.07	238.53
414.44	239.08
414.82	239.60
415.19	240.31
415.56	240.89
415.94	241.58
416.31	242.44
416.68	242.99
417.06	243.87
417.43	244.76
417.81	245.66
418.18	246.59
418.55	247.60
418.93	248.77
419.30	249.80
419.67	250.90
420.04	251.97
420.42	253.18
420.79	254.71
421.16	256.06
421.54	257.70
421.91	259.20
422.28	260.71
422.66	262.33
423.03	264.00
423.40	265.60
423.77	267.34
424.15	269.07
424.52	271.01
424.89	272.89
425.26	274.70
425.64	276.48
426.01	278.35
426.38	280.32
426.75	282.22
427.13	284.35
427.50	286.60
427.87	289.02
428.24	291.28
428.61	293.26
428.99	295.66
429.36	298.07
429.73	300.29
430.10	302.73
430.47	305.21
430.85	307.69
431.22	310.55
431.59	313.47
431.96	316.20
432.33	319.11
432.70	322.10
433.08	325.50
433.45	328.76
433.82	331.98
434.19	335.56
434.56	339.04
434.93	342.29
435.30	345.42
435.68	348.83
436.05	352.29
436.42	355.60
436.79	358.57
437.16	361.79
437.53	365.26
437.90	368.58
438.27	371.91
438.64	375.37
439.01	378.47
439.38	381.20
439.75	383.73
440.13	386.67
440.50	389.45
440.87	391.67
441.24	393.90
441.61	396.47
441.98	398.36
442.35	400.52
442.72	402.86
443.09	405.14
443.46	406.30
443.83	406.84
444.20	407.49
444.57	408.56
444.94	408.91
445.31	409.30
445.68	409.98
446.05	410.10
446.42	409.50
446.79	408.86
447.16	408.13
447.53	407.78
447.90	406.53
448.27	405.16
448.64	403.08
449.01	401.69
449.37	399.38
449.74	396.95
450.11	394.25
450.48	391.06
450.85	387.91
451.22	385.19
451.59	382.66
451.96	380.23
452.33	377.06
452.70	374.30
453.07	370.85
453.43	367.07
453.80	363.66
454.17	360.39
454.54	357.25
454.91	353.90
455.28	350.50
455.65	347.23
456.02	344.31
456.38	341.87
456.75	338.73
457.12	335.86
457.49	333.15
457.86	330.25
458.23	327.90
458.59	325.46
458.96	322.93
459.33	320.76
459.70	318.49
460.07	316.55
460.43	314.32
460.80	312.46
461.17	310.71
461.54	308.87
461.91	307.11
462.27	305.45
462.64	303.84
463.01	302.35
463.38	300.79
463.74	298.83
464.11	297.31
464.48	295.92
464.85	294.56
465.21	293.39
465.58	292.33
465.95	291.01
466.32	289.77
466.68	288.62
467.05	287.47
467.42	286.44
467.78	285.27
468.15	284.14
468.52	283.22
468.88	282.10
469.25	281.08
469.62	280.40
469.98	279.33
470.35	278.59
470.72	277.65
471.08	276.78
471.45	276.09
471.82	275.29
472.18	274.45
472.55	273.79
472.92	272.96
473.28	272.34
473.65	271.76
474.02	271.17
474.38	270.72
474.75	270.29
475.11	269.76
475.48	269.32
475.85	268.95
476.21	268.48
476.58	268.00
476.94	267.73
477.31	267.27
477.67	266.96
478.04	266.62
478.41	266.42
478.77	266.50
479.14	266.29
479.50	266.22
479.87	266.14
480.23	266.06
480.60	266.04
480.96	265.90
481.33	265.82
481.69	265.80
482.06	265.76
482.42	265.76
482.79	265.83
483.15	265.92
483.52	266.09
483.88	266.04
484.25	266.31
484.61	266.59
484.98	266.72
485.34	267.11
485.71	267.53
486.07	268.05
486.44	268.34
486.80	268.81
487.17	269.29
487.53	269.99
487.90	270.70
488.26	271.48
488.62	272.38
488.99	273.24
489.35	274.13
489.72	274.89
490.08	275.87
490.44	276.81
490.81	277.92
491.17	279.00
491.54	280.28
491.90	281.55
492.26	282.82
492.63	284.35
492.99	285.84
493.36	287.43
493.72	289.00
494.08	290.74
494.45	292.75
494.81	294.72
495.17	296.71
495.54	298.79
495.90	301.14
496.26	303.55
496.63	306.14
496.99	308.76
497.35	311.80
497.72	314.73
498.08	317.92
498.44	321.20
498.80	324.76
499.17	328.57
499.53	332.47
499.89	336.48
500.26	340.61
500.62	344.86
500.98	349.42
501.34	354.20
501.71	359.16
502.07	364.18
502.43	369.45
502.79	374.97
503.16	380.73
503.52	386.56
503.88	392.59
504.24	398.94
504.60	405.51
504.97	412.30
505.33	419.18
505.69	426.41
506.05	433.85
506.41	441.50
506.78	449.41
507.14	457.53
507.50	466.11
507.86	475.08
508.22	484.20
508.59	493.35
508.95	502.79
509.31	512.53
509.67	522.51
510.03	532.83
510.39	543.27
510.75	554.04
511.12	564.78
511.48	576.07
511.84	587.30
512.20	599.10
512.56	611.16
512.92	623.63
513.28	636.21
513.64	648.96
514.00	662.09
514.37	675.68
514.73	689.38
515.09	702.92
515.45	716.60
515.81	730.50
516.17	745.14
516.53	759.86
516.89	774.64
517.25	789.85
517.61	805.29
517.97	820.99
518.33	836.18
518.69	852.15
519.05	868.23
519.41	884.98
519.77	901.85
520.13	918.88
520.49	935.83
520.85	953.11
521.21	970.28
521.57	987.73
521.93	1004.66
522.29	1022.21
522.65	1039.95
523.01	1057.61
523.37	1075.59
523.73	1093.10
524.09	1111.39
524.45	1129.70
524.81	1147.91
525.17	1166.74
525.53	1185.41
525.89	1205.06
526.25	1224.35
526.61	1243.04
526.97	1262.07
527.33	1281.26
527.68	1300.13
528.04	1319.17
528.40	1338.23
528.76	1358.29
529.12	1377.85
529.48	1397.56
529.84	1416.35
530.20	1436.10
530.56	1456.37
530.91	1476.74
531.27	1497.05
531.63	1516.48
531.99	1536.22
532.35	1555.68
532.71	1574.45
533.07	1593.96
533.42	1613.01
533.78	1632.03
534.14	1651.67
534.50	1669.81
534.86	1688.64
535.21	1707.12
535.57	1726.27
535.93	1745.14
536.29	1763.44
536.65	1781.84
537.00	1800.11
537.36	1818.75
537.72	1836.64
538.08	1853.90
538.44	1870.95
538.79	1888.14
539.15	1904.84
539.51	1922.44
539.87	1939.90
540.22	1957.06
540.58	1974.28
540.94	1991.12
541.29	2007.65
541.65	2023.69
542.01	2041.30
542.37	2057.60
542.72	2073.75
543.08	2089.24
543.44	2104.69
543.79	2119.20
544.15	2133.98
544.51	2149.34
544.87	2164.30
545.22	2178.43
545.58	2192.78
545.94	2206.47
546.29	2220.20
546.65	2234.01
547.01	2246.62
547.36	2259.08
547.72	2271.13
548.07	2282.55
548.43	2294.06
548.79	2305.80
549.14	2316.92
549.50	2327.10
549.86	2337.35
550.21	2347.59
550.57	2357.89
550.92	2368.01
551.28	2377.77
551.64	2387.49
551.99	2397.00
552.35	2406.50
552.70	2416.35
553.06	2425.46
553.41	2434.55
553.77	2443.34
554.13	2452.57
554.48	2460.90
554.84	2469.21
555.19	2477.69
555.55	2486.10
555.90	2493.46
556.26	2501.19
556.61	2508.84
556.97	2516.22
557.32	2523.47
557.68	2530.51
558.03	2537.53
558.39	2544.20
558.74	2551.70
559.10	2558.30
559.45	2564.73
559.81	2571.62
560.16	2576.88
560.52	2582.82
560.87	2589.04
561.23	2593.89
561.58	2598.75
561.94	2603.94
562.29	2608.77
562.64	2613.30
563.00	2617.36
563.35	2623.04
563.71	2627.98
564.06	2632.74
564.42	2637.18
564.77	2641.45
565.12	2646.44
565.48	2650.39
565.83	2653.58
566.19	2656.75
566.54	2659.24
566.89	2661.41
567.25	2663.23
567.60	2666.75
567.96	2669.10
568.31	2671.04
568.66	2673.23
569.02	2675.34
569.37	2676.52
569.72	2678.10
570.08	2679.03
570.43	2680.26
570.78	2680.16
571.14	2679.77
571.49	2679.33
571.84	2680.09
572.20	2679.21
572.55	2677.81
572.90	2676.43
573.26	2676.00
573.61	2675.06
573.96	2674.08
574.31	2671.63
574.67	2668.50
575.02	2665.62
575.37	2663.14
575.72	2659.39
576.08	2656.86
576.43	2653.10
576.78	2650.33
577.13	2647.80
577.49	2645.09
577.84	2641.03
578.19	2637.10
578.54	2633.30
578.90	2628.88
579.25	2623.12
579.60	2618.87
579.95	2613.80
580.30	2608.51
580.66	2602.71
581.01	2596.92
581.36	2591.86
581.71	2587.34
582.06	2582.71
582.42	2576.93
582.77	2571.00
583.12	2565.57
583.47	2560.01
583.82	2554.99
584.17	2549.02
584.53	2542.69
584.88	2536.91
585.23	2531.16
585.58	2525.74
585.93	2519.66
586.28	2514.78
586.63	2509.60
586.98	2503.91
587.34	2498.66
587.69	2493.16
588.04	2487.59
588.39	2482.00
588.74	2474.82
589.09	2467.75
589.44	2460.90
589.79	2454.55
590.14	2448.65
590.49	2442.60
590.84	2435.85
591.19	2429.19
591.54	2421.40
591.89	2413.04
592.25	2405.22
592.60	2397.49
592.95	2388.92
593.30	2380.65
593.65	2372.10
594.00	2363.63
594.35	2355.68
594.70	2347.02
595.05	2339.36
595.40	2330.82
595.75	2321.98
596.10	2314.95
596.45	2308.05
596.80	2301.31
597.15	2293.53
597.50	2285.05
597.85	2277.28
598.19	2269.54
598.54	2261.26
598.89	2254.09
599.24	2247.83
599.59	2240.32
599.94	2233.18
600.29	2226.17
600.64	2218.47
600.99	2210.30
601.34	2202.68
601.69	2194.19
602.04	2186.56
602.39	2178.59
602.74	2171.64
603.08	2164.71
603.43	2156.94
603.78	2148.89
604.13	2140.43
604.48	2132.38
604.83	2124.50
605.18	2116.51
605.53	2106.93
605.87	2097.80
606.22	2089.52
606.57	2079.86
606.92	2071.59
607.27	2063.41
607.62	2055.70
607.96	2047.57
608.31	2039.59
608.66	2030.57
609.01	2021.77
609.36	2012.12
609.70	2001.50
610.05	1991.26
610.40	1981.44
610.75	1971.31
611.10	1961.12
611.44	1950.97
611.79	1941.53
612.14	1931.78
612.49	1920.90
612.83	1911.79
613.18	1902.40
613.53	1893.02
613.88	1883.25
614.22	1872.96
614.57	1862.34
614.92	1851.58
615.27	1842.31
615.61	1832.29
615.96	1822.52
616.31	1813.37
616.65	1805.29
617.00	1797.00
617.35	1788.19
617.70	1778.48
618.04	1768.86
618.39	1759.75
618.74	1750.87
619.08	1741.11
619.43	1731.61
619.78	1722.92
620.12	1713.92
620.47	1704.89
620.82	1694.97
621.16	1685.97
621.51	1677.47
621.85	1668.58
622.20	1659.20
622.55	1649.77
622.89	1640.69
623.24	1632.09
623.59	1623.26
623.93	1614.21
624.28	1605.24
624.62	1596.24
624.97	1587.69
625.32	1579.57
625.66	1571.22
626.01	1562.46
626.35	1553.97
626.70	1545.48
627.04	1537.12
627.39	1527.71
627.73	1519.14
628.08	1510.75
628.43	1501.89
628.77	1492.92
629.12	1483.92
629.46	1475.46
629.81	1466.24
630.15	1456.96
630.50	1447.77
630.84	1438.12
631.19	1428.31
631.53	1419.22
631.88	1409.76
632.22	1400.40
632.57	1391.39
632.91	1382.10
633.26	1373.02
633.60	1363.64
633.95	1354.98
634.29	1346.11
634.64	1338.26
634.98	1329.36
635.32	1321.19
635.67	1313.24
636.01	1304.81
636.36	1296.79
636.70	1288.80
637.05	1281.00
637.39	1273.64
637.73	1266.11
638.08	1259.00
638.42	1251.87
638.77	1244.36
639.11	1236.69
639.45	1229.34
639.80	1221.51
640.14	1213.87
640.49	1206.10
640.83	1198.71
641.17	1190.86
641.52	1183.24
641.86	1175.63
642.20	1168.51
642.55	1160.73
642.89	1153.02
643.23	1144.94
643.58	1137.62
643.92	1129.91
644.26	1122.05
644.61	1114.75
644.95	1107.32
645.29	1099.11
645.64	1090.77
645.98	1083.26
646.32	1076.26
646.66	1068.66
647.01	1061.13
647.35	1054.00
647.69	1046.73
648.04	1039.81
648.38	1032.36
648.72	1024.63
649.06	1017.00
649.41	1009.40
649.75	1001.57
650.09	994.10
650.43	987.04
650.78	979.05
651.12	971.57
651.46	964.64
651.80	957.38
652.14	950.16
652.49	943.56
652.83	936.79
653.17	929.64
653.51	922.21
653.85	915.20
654.20	908.26
654.54	901.22
654.88	894.15
655.22	886.78
655.56	879.76
655.90	873.41
656.25	866.97
656.59	860.36
656.93	854.36
657.27	848.09
657.61	841.31
657.95	835.61
658.29	829.49
658.64	823.15
658.98	816.47
659.32	810.01
659.66	803.79
660.00	797.52
660.34	791.55
660.68	785.75
661.02	779.84
661.36	773.99
661.70	768.19
662.05	762.73
662.39	757.36
662.73	752.02
663.07	746.62
663.41	741.23
663.75	735.84
664.09	730.34
664.43	724.90
664.77	720.32
665.11	714.90
665.45	709.76
665.79	704.75
666.13	700.00
666.47	694.85
666.81	689.53
667.15	684.62
667.49	679.47
667.83	674.65
668.17	669.72
668.51	665.05
668.85	660.19
669.19	655.50
669.53	650.92
669.87	646.22
670.21	641.74
670.55	637.38
670.89	633.25
671.23	629.12
671.57	625.02
671.91	620.54
672.25	616.46
672.58	612.32
672.92	608.09
673.26	604.10
673.60	600.53
673.94	596.83
674.28	593.13
674.62	589.78
674.96	585.96
675.30	582.55
675.64	578.83
675.97	575.20
676.31	571.79
676.65	568.00
676.99	564.69
677.33	561.00
677.67	557.27
678.01	553.53
678.34	549.86
678.68	546.40
679.02	543.02
679.36	539.64
679.70	536.36
680.04	533.26
680.37	529.94
680.71	526.60
681.05	523.50
681.39	520.43
681.73	517.20
682.06	514.24
682.40	511.20
682.74	508.20
683.08	505.31
683.42	502.06
683.75	499.21
684.09	496.21
684.43	493.23
684.77	490.30
685.10	487.40
685.44	484.55
685.78	481.74
686.12	478.80
686.45	476.07
686.79	473.12
687.13	470.24
687.46	467.50
687.80	464.64
688.14	461.75
688.48	459.00
688.81	456.14
689.15	453.46
689.49	450.62
689.82	447.97
690.16	445.35
690.50	443.04
690.83	440.61
691.17	437.98
691.51	435.70
691.84	433.47
692.18	430.97
692.52	428.45
692.85	426.25
693.19	423.92
693.52	421.44
693.86	419.02
694.20	416.69
694.53	414.31
694.87	412.14
695.21	409.98
695.54	407.84
695.88	405.53
696.21	403.10
696.55	400.97
696.88	398.93
697.22	396.77
697.56	394.75
697.89	392.63
698.23	390.62
698.56	388.45
698.90	386.46
699.23	384.40
699.57	382.55
699.90	380.37
700.24	378.37
700.58	376.50
700.91	374.79
701.25	373.06
701.58	371.43
701.92	369.61
702.25	367.72
702.59	365.98
702.92	364.41
703.26	362.92
703.59	361.30
703.93	359.61
704.26	358.12
704.60	356.33
704.93	354.82
705.26	353.28
705.60	351.82
705.93	350.30
706.27	348.92
706.60	347.70
706.94	346.35
707.27	344.98
707.61	343.57
707.94	342.37
708.27	340.90
708.61	339.49
708.94	338.18
709.28	337.02
709.61	335.69
709.94	334.52
710.28	333.29
710.61	332.09
710.95	330.77
711.28	329.63
711.61	328.49
711.95	327.31
712.28	326.11
712.61	324.98
712.95	323.72
713.28	322.61
713.61	321.26
713.95	320.18
714.28	319.08
714.61	318.07
714.95	317.01
715.28	315.91
715.61	314.83
715.95	313.87
716.28	312.79
716.61	311.84
716.95	310.87
717.28	309.95
717.61	309.00
717.94	308.10
718.28	306.97
718.61	306.15
718.94	305.21
719.27	304.26
719.61	303.37
719.94	302.51
720.27	301.64
720.60	300.91
720.94	299.97
721.27	299.29
721.60	298.41
721.93	297.46
722.27	296.73
722.60	295.95
722.93	295.09
723.26	294.44
723.59	293.60
723.93	292.75
724.26	291.99
724.59	291.15
724.92	290.54
725.25	289.92
725.59	289.09
725.92	288.51
726.25	287.90
726.58	287.14
726.91	286.53
727.24	285.98
727.57	285.27
727.91	284.59
728.24	283.91
728.57	283.30
728.90	282.67
729.23	282.04
729.56	281.52
729.89	280.84
730.22	280.10
730.55	279.59
730.89	279.11
731.22	278.60
731.55	278.21
731.88	277.49
732.21	276.93
732.54	276.40
732.87	275.76
733.20	275.18
733.53	274.70
733.86	274.21
734.19	273.60
734.52	273.12
734.85	272.67
735.18	272.19
735.51	271.64
735.84	271.14
736.17	270.70
736.50	270.05
736.83	269.93
737.16	269.57
737.49	269.00
737.82	268.40
738.15	267.80
738.48	267.33
738.81	266.97
739.14	266.50
739.47	266.01
739.80	265.51
740.13	265.12
740.46	264.60
740.79	264.08
741.12	263.67
741.45	263.22
741.78	262.84
742.11	262.48
742.44	262.05
742.77	261.67
743.10	261.20
743.43	260.89
743.75	260.26
744.08	259.97
744.41	259.67
744.74	259.41
745.07	259.07
745.40	258.68
745.73	258.45
746.06	258.13
746.39	257.78
746.71	257.37
747.04	257.03
747.37	256.80
747.70	256.54
748.03	256.15
748.36	255.89
748.68	255.57
749.01	255.09
749.34	254.87
749.67	254.61
750.00	254.40
750.33	254.24
750.65	253.95
750.98	253.55
751.31	253.19
751.64	252.90
751.97	252.66
752.29	252.41
752.62	252.04
752.95	251.79
753.28	251.51
753.60	251.41
753.93	251.29
754.26	251.06
754.59	250.75
754.91	250.51
755.24	250.28
755.57	250.01
755.90	249.83
756.22	249.59
756.55	249.34
756.88	249.14
757.20	248.80
757.53	248.59
757.86	248.36
758.19	248.21
758.51	247.99
758.84	247.76
759.17	247.47
759.49	247.20
759.82	247.04
760.15	246.85
760.47	246.61
760.80	246.31
761.13	246.14
761.45	245.86
761.78	245.72
762.11	245.58
762.43	245.41
762.76	245.26
763.08	245.05
763.41	244.82
763.74	244.62
764.06	244.46
764.39	244.25
764.71	244.14
765.04	243.97
765.37	243.81
765.69	243.75
766.02	243.68
766.34	243.50
766.67	243.32
767.00	243.24
767.32	243.20
767.65	243.20
767.97	242.95
768.30	242.83
768.62	242.62
768.95	242.34
769.27	242.09
769.60	242.04
769.92	241.85
770.25	241.71
770.57	241.37
770.90	241.16
771.22	241.00
771.55	240.80
771.87	240.65
772.20	240.47
772.52	240.35
772.85	240.42
773.17	240.26
773.50	240.08
773.82	239.80
774.15	239.51
774.47	239.22
774.80	239.09
775.12	239.00
775.45	238.88
775.77	238.83
776.09	238.78
776.42	238.58
776.74	238.53
777.07	238.38
777.39	238.35
777.72	238.20
778.04	238.10
778.36	237.99
778.69	237.84
779.01	237.70
779.33	237.48
779.66	237.04
779.98	237.01
780.31	236.80
780.63	236.80
780.95	236.71
781.28	236.57
781.60	236.47
781.92	236.39
782.25	236.19
782.57	236.00
782.89	235.80
783.22	235.72
783.54	235.62
783.86	235.51
784.19	235.48
784.51	235.43
784.83	235.33
785.16	235.20
785.48	235.16
785.80	235.12
786.12	235.03
786.45	235.07
786.77	234.93
787.09	234.91
787.42	234.76
787.74	234.71
788.06	234.62
788.38	234.52
788.71	234.41
789.03	234.40
789.35	234.47
789.67	234.44
789.99	234.34
790.32	234.20
790.64	234.22
790.96	234.34
791.28	234.18
791.61	234.05
791.93	234.03
792.25	233.93
792.57	234.02
792.89	233.99
793.21	233.85
793.54	233.76
793.86	233.70
794.18	233.72
794.50	233.64
794.82	233.66
795.14	233.68
795.47	233.60
795.79	233.62
796.11	233.35
796.43	233.34
796.75	233.34
797.07	233.42
797.39	233.45
797.71	233.32
798.04	233.35
798.36	233.39
798.68	233.29
799.00	233.39
799.32	233.35
799.64	233.41
799.96	233.47
800.28	233.57
800.60	233.58
800.92	233.59
801.24	233.54
801.56	233.50
801.89	233.44
802.21	233.47
802.53	233.41
802.85	233.54
803.17	233.60
803.49	233.56
803.81	233.41
804.13	233.30
804.45	233.21
804.77	233.31
805.09	233.35
805.41	233.40
805.73	233.29
806.05	233.11
806.37	233.02
806.69	232.95
807.01	232.87
807.33	232.88
807.65	232.75
807.97	232.76
808.28	232.72
808.60	232.79
808.92	232.74
809.24	232.81
809.56	232.78
809.88	232.67
810.20	232.64
810.52	232.69
810.84	232.59
811.16	232.45
811.48	232.35
811.80	232.33
812.12	232.25
812.43	232.31
812.75	232.38
813.07	232.34
813.39	232.23
813.71	232.09
814.03	231.99
814.35	232.00
814.67	231.92
814.98	231.86
815.30	231.75
815.62	231.60
815.94	231.48
816.26	231.47
816.58	231.38
816.89	231.30
817.21	231.13
817.53	231.21
817.85	231.24
818.17	231.16
818.48	231.05
818.80	231.01
819.12	230.82
819.44	230.66
819.76	230.67
820.07	230.78
820.39	230.78
820.71	230.76
821.03	230.71
821.34	230.62
821.66	230.69
821.98	230.64
822.30	230.65
822.61	230.68
822.93	230.63
823.25	230.65
823.57	230.63
823.88	230.75
824.20	230.71
824.52	230.75
824.83	230.74
825.15	230.74
825.47	230.74
825.79	230.75
826.10	230.83
826.42	230.75
826.74	230.69
827.05	230.83
827.37	230.84
827.69	230.79
828.00	230.79
828.32	230.70
828.64	230.66
828.95	230.84
829.27	230.84
829.58	230.77
829.90	230.83
830.22	230.93
830.53	230.83
830.85	230.78
831.17	230.59
831.48	230.61
831.80	230.57
832.11	230.55
832.43	230.51
832.75	230.44
833.06	230.58
833.38	230.46
833.69	230.35
834.01	230.22
834.32	230.24
834.64	230.30
834.96	230.25
835.27	230.18
835.59	230.10
835.90	230.04
836.22	230.10
836.53	230.00
836.85	229.90
837.16	230.12
837.48	230.07
837.79	230.23
838.11	230.18
838.42	230.25
838.74	230.27
839.05	230.29
839.37	230.29
839.68	230.08
840.00	230.10
840.31	230.07
840.63	230.19
840.94	230.09
841.26	230.03
841.57	230.11
841.88	230.20
842.20	230.12
842.51	230.06
842.83	229.97
843.14	230.12
843.46	230.16
843.77	230.03
844.08	230.06
844.40	229.96
844.71	229.88
845.03	229.72
845.34	229.71
845.65	229.79
845.97	229.70
846.28	229.70
846.60	229.65
846.91	229.59
847.22	229.52
847.54	229.60
847.85	229.63
848.16	229.62
848.48	229.54
848.79	229.58
849.10	229.60
849.42	229.56
849.73	229.43
850.04	229.41
850.36	229.31
850.67	229.36
850.98	229.36
851.30	229.46
851.61	229.48
851.92	229.48
852.23	229.49
852.55	229.43
852.86	229.39
853.17	229.38
853.49	229.40
853.80	229.38
854.11	229.40
854.42	229.29
854.74	229.13
855.05	229.19
855.36	229.01
855.67	229.07
855.99	229.06
856.30	229.15
856.61	229.11
856.92	229.13
857.23	228.99
857.55	229.05
857.86	229.00
858.17	228.99
858.48	228.95
858.79	228.80
859.11	228.84
859.42	228.84
859.73	228.82
860.04	228.88
860.35	228.88
860.66	228.75
860.98	228.70
861.29	228.74
861.60	228.61
861.91	228.64
862.22	228.60
862.53	228.53
862.84	228.30
863.16	228.30
863.47	228.20
863.78	228.17
864.09	228.08
864.40	228.00
864.71	227.96
865.02	227.93
865.33	227.97
865.64	228.00
865.95	227.98
866.27	228.12
866.58	227.99
866.89	228.00
867.20	228.01
867.51	228.03
867.82	228.01
868.13	228.17
868.44	228.13
868.75	228.19
869.06	228.32
869.37	228.35
869.68	228.23
869.99	228.29
870.30	228.40
870.61	228.42
870.92	228.45
871.23	228.52
871.54	228.46
871.85	228.52
872.16	228.52
872.47	228.60
872.78	228.50
873.09	228.68
873.40	228.68
873.71	228.79
874.02	228.85
874.33	228.93
874.64	228.90
874.95	229.06
875.26	228.97
875.56	229.05
875.87	229.19
876.18	229.22
876.49	229.43
876.80	229.35
877.11	229.34
877.42	229.41
877.73	229.37
878.04	229.47
878.35	229.42
878.66	229.52
878.96	229.47
879.27	229.50
879.58	229.39
879.89	229.42
880.20	229.46
880.51	229.44
880.82	229.44
881.12	229.40
881.43	229.36
881.74	229.34
882.05	229.23
882.36	229.16
882.67	229.17
882.97	228.89
883.28	228.86
883.59	228.81
883.90	228.80
884.21	228.94
884.51	228.91
884.82	228.87
885.13	228.85
885.44	228.90
885.74	228.83
886.05	228.85
886.36	228.80
886.67	228.75
886.98	228.82
887.28	228.86
887.59	228.84
887.90	228.73
888.20	228.72
888.51	228.75
888.82	228.76
889.13	228.80
889.43	228.99
889.74	229.10
890.05	229.17
890.35	229.03
890.66	228.96
890.97	228.94
891.28	228.87
891.58	228.89
891.89	228.78
892.20	228.69
892.50	228.69
892.81	228.71
893.12	228.65
893.42	228.64
893.73	228.56
894.04	228.59
894.34	228.70
894.65	228.64
894.95	228.54
895.26	228.47
895.57	228.50
895.87	228.30
896.18	228.27
896.48	228.23
896.79	228.24
897.10	228.20
897.40	228.23
897.71	228.31
898.01	228.25
898.32	228.32
898.63	228.35
898.93	228.32
899.24	228.30
899.54	228.27
899.85	228.20
900.15	228.19
900.46	228.21
900.76	228.19
901.07	228.25
901.38	228.29
901.68	228.29
901.99	228.22
902.29	228.29
902.60	228.25
902.90	228.25
903.21	228.37
903.51	228.35
903.82	228.43
904.12	228.42
904.43	228.36
904.73	228.28
905.03	228.30
905.34	228.47
905.64	228.50
905.95	228.52
906.25	228.45
906.56	228.45
906.86	228.43
907.17	228.50
907.47	228.49
907.77	228.52
908.08	228.52
908.38	228.53
908.69	228.56
908.99	228.63
909.30	228.58
909.60	228.57
909.90	228.61
910.21	228.50
910.51	228.51
910.81	228.60
911.12	228.63
911.42	228.69
911.73	228.54
912.03	228.53
912.33	228.54
912.64	228.62
912.94	228.74
913.24	228.70
913.55	228.66
913.85	228.61
914.15	228.64
914.46	228.76
914.76	228.80
915.06	228.69
915.37	228.72
915.67	228.80
915.97	228.87
916.27	228.77
916.58	228.73
916.88	228.75
917.18	228.74
917.49	228.92
917.79	228.91
918.09	228.83
918.39	228.94
918.70	229.11
919.00	229.14
919.30	229.13
919.60	229.08
919.91	229.03
920.21	229.06
920.51	229.04
920.81	229.00
921.12	229.08
921.42	229.17
921.72	229.12
922.02	229.01
922.32	228.95
922.63	228.99
922.93	229.14
923.23	229.06
923.53	229.08
923.83	228.91
924.13	228.93
924.44	228.99
924.74	228.92
925.04	228.81
925.34	228.84
925.64	228.75
925.94	228.79
926.24	228.89
926.55	228.83
926.85	228.82
927.15	228.76
927.45	228.61
927.75	228.62
928.05	228.55
928.35	228.65
928.65	228.70
928.95	228.73
929.26	228.58
929.56	228.56
929.86	228.52
930.16	228.41
930.46	228.45
930.76	228.54
931.06	228.39
931.36	228.31
931.66	228.36
931.96	228.36
932.26	228.28
932.56	228.19
932.86	228.23
933.16	228.17
933.46	228.26
933.76	228.31
934.06	228.38
934.36	228.46
934.66	228.40
934.96	228.38
935.26	228.36
935.56	228.43
935.86	228.53
936.16	228.54
936.46	228.65
936.76	228.61
937.06	228.54
937.36	228.61
937.66	228.57
937.96	228.54
938.26	228.45
938.56	228.59
938.86	228.55
939.16	228.64
939.46	228.72
939.76	228.77
940.06	228.68
940.35	228.65
940.65	228.70
940.95	228.70
941.25	228.62
941.55	228.69
941.85	228.61
942.15	228.67
942.45	228.66
942.75	228.63
943.04	228.67
943.34	228.66
943.64	228.72
943.94	228.76
944.24	228.65
944.54	228.82
944.84	228.75
945.13	228.80
945.43	228.71
945.73	228.71
946.03	228.63
946.33	228.61
946.62	228.54
946.92	228.38
947.22	228.43
947.52	228.46
947.82	228.50
948.11	228.55
948.41	228.44
948.71	228.38
949.01	228.40
949.31	228.29
949.60	228.36
949.90	228.36
950.20	228.38
950.50	228.34
950.79	228.28
951.09	228.30
951.39	228.28
951.69	228.31
951.98	228.38
952.28	228.33
952.58	228.37
952.87	228.43
953.17	228.54
953.47	228.51
953.76	228.43
954.06	228.21
954.36	228.16
954.66	228.14
954.95	228.24
955.25	228.26
955.55	228.30
955.84	228.21
956.14	228.21
956.44	228.10
956.73	228.11
957.03	228.06
957.32	228.03
957.62	228.00
957.92	228.00
958.21	227.92
958.51	228.12
958.81	228.12
959.10	228.07
959.40	228.04
959.69	228.06
959.99	228.20
960.29	228.38
960.58	228.37
960.88	228.46
961.17	228.35
961.47	228.38
961.76	228.34
962.06	228.34
962.36	228.21
962.65	228.38
962.95	228.39
963.24	228.38
963.54	228.43
963.83	228.53
964.13	228.47
964.42	228.38
964.72	228.23
965.01	228.25
965.31	228.25
965.60	228.28
965.90	228.30
966.19	228.18
966.49	228.13
966.78	228.19
967.08	228.19
967.37	228.29
967.67	228.29
967.96	228.20
968.26	228.28
968.55	228.39
968.85	228.27
969.14	228.25
969.43	228.30
969.73	228.25
970.02	228.11
970.32	228.15
970.61	228.16
970.91	228.07
971.20	228.04
971.49	228.03
971.79	228.07
972.08	227.96
972.38	228.00
972.67	227.95
972.96	227.91
973.26	227.90
973.55	227.94
973.85	227.90
974.14	228.10
974.43	228.05
974.73	228.03
975.02	228.07
975.31	228.16
975.61	228.12
975.90	228.15
976.19	228.24
976.49	228.26
976.78	228.40
977.07	228.54
977.37	228.60
977.66	228.62
977.95	228.61
978.24	228.76
978.54	228.81
978.83	228.88
979.12	228.86
979.42	228.85
979.71	228.91
980.00	229.04
980.29	228.94
980.59	229.05
980.88	229.08
981.17	229.05
981.46	229.08
981.76	229.19
982.05	229.28
982.34	229.38
982.63	229.41
982.93	229.34
983.22	229.32
983.51	229.28
983.80	229.43
984.09	229.42
984.39	229.39
984.68	229.33
984.97	229.30
985.26	229.31
985.55	229.37
985.85	229.22
986.14	229.17
986.43	229.28
986.72	229.07
987.01	229.08
987.30	229.17
987.59	229.21
987.89	229.22
988.18	229.05
988.47	228.98
988.76	228.98
989.05	228.95
989.34	228.94
989.63	229.03
989.92	228.89
990.22	228.84
990.51	228.79
990.80	228.76
991.09	228.90
991.38	228.90
991.67	228.74
991.96	228.60
992.25	228.53
992.54	228.44
992.83	228.50
993.12	228.46
993.41	228.47
993.70	228.43
993.99	228.39
994.28	228.50
994.58	228.51
994.87	228.47
995.16	228.43
995.45	228.32
995.74	228.21
996.03	228.20
996.32	228.14
996.61	228.13
996.90	228.14
997.19	228.10
997.48	228.10
997.77	228.08
998.06	228.30
998.34	228.19
998.63	228.22
998.92	228.22
999.21	228.19
999.50	228.12
999.79	228.04
1000.08	227.99
1000.37	228.00
1000.66	228.01
1000.95	227.95
1001.24	227.98
1001.53	228.03
1001.82	228.15
1002.11	228.18
1002.40	228.31
1002.68	228.46
1002.97	228.58
1003.26	228.45
1003.55	228.38
1003.84	228.50
1004.13	228.46
1004.42	228.60
1004.71	228.60
1004.99	228.56
1005.28	228.77
1005.57	228.82
1005.86	228.78
1006.15	228.74
1006.44	228.73
1006.72	228.62
1007.01	228.70
1007.30	228.71
1007.59	228.71
1007.88	228.70
1008.17	228.67
1008.45	228.60
1008.74	228.46
1009.03	228.43
1009.32	228.50
1009.60	228.50
1009.89	228.52
1010.18	228.55
1010.47	228.56
1010.76	228.62
1011.04	228.75
1011.33	228.74
1011.62	228.74
1011.91	228.91
1012.19	229.00
1012.48	229.09
1012.77	229.19
1013.05	229.31
1013.34	229.28
1013.63	229.33
1013.92	229.36
1014.20	229.40
1014.49	229.36
1014.78	229.39
1015.06	229.36
1015.35	229.31
1015.64	229.43
1015.92	229.49
1016.21	229.50
1016.50	229.45
1016.78	229.51
1017.07	229.51
1017.36	229.43
1017.64	229.37
1017.93	229.27
1018.22	229.23
1018.50	229.09
1018.79	229.06
1019.08	228.94
1019.36	229.05
1019.65	228.95
1019.93	228.94
1020.22	228.88
1020.51	229.04
1020.79	229.10
1021.08	228.40
1021.36	227.50
1021.65	228.90
1021.94	228.60
1022.22	230.00
1022.51	227.10
1022.79	229.90
1023.08	227.80
1023.36	231.10
1023.65	230.00
>>>>>End Processed Spectral Data<<<<<
