SpectraSuite Data File
++++++++++++++++++++++++++++++++++++
Date: Fri Feb 01 14:38:57 EST 2013
User: group
Dark Spectrum Present: No
Reference Spectrum Present: No
Number of Sampled Component Spectra: 1
Spectrometers: USB2E7196
Integration Time (usec): 70000 (USB2E7196)
Spectra Averaged: 10 (USB2E7196)
Boxcar Smoothing: 10 (USB2E7196)
Correct for Electrical Dark: No (USB2E7196)
Strobe/Lamp Enabled: No (USB2E7196)
Correct for Detector Non-linearity: No (USB2E7196)
Correct for Stray Light: No (USB2E7196)
Number of Pixels in Processed Spectrum: 2048
>>>>>Begin Processed Spectral Data<<<<<
339.09	0.00
339.48	217.90
339.86	218.80
340.24	218.00
340.63	219.50
341.01	225.20
341.39	222.80
341.78	225.10
342.16	226.10
342.54	226.70
342.93	215.00
343.31	225.86
343.69	226.30
344.07	226.65
344.46	227.11
344.84	227.50
345.22	227.60
345.60	227.80
345.99	227.93
346.37	227.92
346.75	227.93
347.13	227.83
347.52	227.80
347.90	227.88
348.28	227.82
348.66	227.86
349.05	227.80
349.43	227.79
349.81	227.86
350.19	227.80
350.57	227.76
350.96	227.74
351.34	227.76
351.72	227.88
352.10	227.91
352.48	227.81
352.87	227.81
353.25	227.81
353.63	227.95
354.01	227.99
354.39	228.04
354.77	228.03
355.15	228.13
355.54	228.18
355.92	228.11
356.30	228.18
356.68	228.38
357.06	228.33
357.44	228.44
357.82	228.41
358.20	228.42
358.58	228.47
358.97	228.49
359.35	228.60
359.73	228.60
360.11	228.59
360.49	228.74
360.87	228.86
361.25	228.94
361.63	228.91
362.01	228.96
362.39	229.10
362.77	229.21
363.15	229.20
363.53	229.14
363.91	229.23
364.29	229.26
364.67	229.09
365.05	229.19
365.43	229.12
365.81	229.21
366.19	229.30
366.57	229.39
366.95	229.46
367.33	229.40
367.71	229.36
368.09	229.54
368.47	229.64
368.85	229.61
369.23	229.76
369.61	229.70
369.99	229.67
370.37	229.56
370.75	229.66
371.13	229.65
371.51	229.67
371.89	229.60
372.27	229.65
372.65	229.59
373.03	229.52
373.41	229.57
373.78	229.47
374.16	229.39
374.54	229.32
374.92	229.27
375.30	229.19
375.68	229.09
376.06	229.03
376.44	228.92
376.82	228.82
377.19	228.66
377.57	228.63
377.95	228.63
378.33	228.65
378.71	228.51
379.09	228.42
379.47	228.42
379.84	228.39
380.22	228.21
380.60	228.14
380.98	228.07
381.36	227.98
381.73	227.96
382.11	227.86
382.49	227.85
382.87	227.77
383.25	227.75
383.62	227.97
384.00	227.94
384.38	227.93
384.76	227.91
385.13	227.91
385.51	227.81
385.89	227.71
386.27	227.72
386.64	227.77
387.02	227.78
387.40	227.67
387.78	227.66
388.15	227.61
388.53	227.50
388.91	227.47
389.29	227.42
389.66	227.43
390.04	227.35
390.42	227.35
390.79	227.31
391.17	227.25
391.55	227.00
391.92	226.98
392.30	226.90
392.68	226.84
393.05	226.82
393.43	227.00
393.81	226.94
394.18	226.84
394.56	226.77
394.94	226.68
395.31	226.72
395.69	226.80
396.06	226.76
396.44	226.84
396.82	226.90
397.19	226.97
397.57	226.90
397.95	227.00
398.32	226.93
398.70	227.03
399.07	227.07
399.45	227.06
399.82	227.03
400.20	227.04
400.58	227.29
400.95	227.23
401.33	227.22
401.70	227.46
402.08	227.56
402.45	227.55
402.83	227.71
403.20	227.79
403.58	227.80
403.95	228.11
404.33	228.31
404.71	228.40
405.08	228.59
405.46	228.72
405.83	228.91
406.21	229.06
406.58	229.12
406.96	229.31
407.33	229.57
407.70	229.77
408.08	230.15
408.45	230.20
408.83	230.57
409.20	230.84
409.58	230.99
409.95	231.38
410.33	231.73
410.70	231.98
411.08	232.35
411.45	232.60
411.82	232.83
412.20	233.15
412.57	233.72
412.95	234.03
413.32	234.53
413.69	234.98
414.07	235.46
414.44	236.10
414.82	236.61
415.19	237.22
415.56	237.80
415.94	238.42
416.31	239.16
416.68	239.79
417.06	240.57
417.43	241.38
417.81	242.21
418.18	243.13
418.55	244.07
418.93	245.08
419.30	246.22
419.67	247.28
420.04	248.27
420.42	249.30
420.79	250.74
421.16	252.13
421.54	253.61
421.91	255.12
422.28	256.59
422.66	258.08
423.03	259.71
423.40	261.27
423.77	262.86
424.15	264.60
424.52	266.36
424.89	268.30
425.26	270.10
425.64	271.70
426.01	273.58
426.38	275.56
426.75	277.40
427.13	279.47
427.50	281.69
427.87	284.09
428.24	286.33
428.61	288.35
428.99	290.65
429.36	293.13
429.73	295.52
430.10	297.89
430.47	300.51
430.85	303.06
431.22	305.88
431.59	308.82
431.96	311.55
432.33	314.57
432.70	317.54
433.08	320.97
433.45	324.27
433.82	327.57
434.19	331.11
434.56	334.74
434.93	338.17
435.30	341.50
435.68	345.04
436.05	348.71
436.42	352.30
436.79	355.64
437.16	359.10
437.53	362.81
437.90	366.39
438.27	369.89
438.64	373.56
439.01	377.00
439.38	379.98
439.75	382.90
440.13	386.19
440.50	389.14
440.87	391.71
441.24	394.24
441.61	397.21
441.98	399.36
442.35	401.84
442.72	404.34
443.09	406.87
443.46	408.49
443.83	409.40
444.20	410.35
444.57	411.54
444.94	412.08
445.31	412.91
445.68	413.99
446.05	414.44
446.42	414.18
446.79	413.83
447.16	413.74
447.53	413.62
447.90	412.53
448.27	411.56
448.64	409.80
449.01	408.89
449.37	406.59
449.74	404.68
450.11	402.19
450.48	399.25
450.85	396.18
451.22	393.54
451.59	391.30
451.96	389.19
452.33	386.02
452.70	383.26
453.07	379.80
453.43	376.03
453.80	372.63
454.17	369.35
454.54	366.36
454.91	362.74
455.28	359.48
455.65	356.45
456.02	353.59
456.38	351.01
456.75	347.60
457.12	344.91
457.49	342.02
457.86	339.35
458.23	337.11
458.59	334.61
458.96	332.13
459.33	329.74
459.70	327.24
460.07	325.47
460.43	323.44
460.80	321.31
461.17	319.46
461.54	317.70
461.91	315.87
462.27	313.86
462.64	312.34
463.01	310.58
463.38	308.90
463.74	306.87
464.11	305.31
464.48	303.95
464.85	302.52
465.21	301.38
465.58	300.15
465.95	298.65
466.32	297.58
466.68	296.43
467.05	295.17
467.42	293.91
467.78	292.65
468.15	291.42
468.52	290.54
468.88	289.41
469.25	288.33
469.62	287.51
469.98	286.72
470.35	285.87
470.72	284.95
471.08	283.93
471.45	283.19
471.82	282.47
472.18	281.75
472.55	280.97
472.92	280.11
473.28	279.34
473.65	278.64
474.02	277.80
474.38	277.11
474.75	276.62
475.11	276.08
475.48	275.64
475.85	275.16
476.21	274.57
476.58	274.21
476.94	273.68
477.31	273.17
477.67	272.78
478.04	272.30
478.41	272.00
478.77	271.84
479.14	271.38
479.50	271.14
479.87	270.74
480.23	270.55
480.60	270.36
480.96	270.13
481.33	270.15
481.69	269.97
482.06	269.80
482.42	269.58
482.79	269.44
483.15	269.23
483.52	269.09
483.88	269.03
484.25	268.90
484.61	268.86
484.98	268.83
485.34	268.66
485.71	268.75
486.07	268.73
486.44	268.60
486.80	268.69
487.17	268.58
487.53	268.82
487.90	268.83
488.26	268.92
488.62	268.98
488.99	268.89
489.35	269.22
489.72	269.39
490.08	269.50
490.44	269.55
490.81	269.64
491.17	269.74
491.54	269.89
491.90	270.08
492.26	270.32
492.63	270.51
492.99	270.81
493.36	270.97
493.72	271.27
494.08	271.48
494.45	271.79
494.81	272.05
495.17	272.10
495.54	272.42
495.90	272.73
496.26	273.05
496.63	273.32
496.99	273.48
497.35	273.77
497.72	274.15
498.08	274.57
498.44	274.91
498.80	275.36
499.17	275.74
499.53	276.05
499.89	276.39
500.26	276.85
500.62	277.15
500.98	277.66
501.34	278.04
501.71	278.59
502.07	279.05
502.43	279.50
502.79	280.00
503.16	280.52
503.52	280.94
503.88	281.37
504.24	282.00
504.60	282.56
504.97	283.21
505.33	283.88
505.69	284.57
506.05	285.33
506.41	285.93
506.78	286.64
507.14	287.34
507.50	288.09
507.86	288.77
508.22	289.65
508.59	290.31
508.95	291.20
509.31	292.14
509.67	293.11
510.03	294.25
510.39	295.36
510.75	296.34
511.12	297.52
511.48	298.70
511.84	299.89
512.20	301.08
512.56	302.20
512.92	303.61
513.28	305.01
513.64	306.36
514.00	307.99
514.37	309.69
514.73	311.43
515.09	313.34
515.45	315.20
515.81	317.06
516.17	319.05
516.53	321.04
516.89	323.04
517.25	325.13
517.61	327.30
517.97	329.49
518.33	331.78
518.69	334.14
519.05	336.73
519.41	339.33
519.77	342.22
520.13	345.10
520.49	347.88
520.85	350.72
521.21	353.83
521.57	357.00
521.93	360.13
522.29	363.49
522.65	366.66
523.01	370.16
523.37	373.74
523.73	377.32
524.09	381.00
524.45	384.75
524.81	388.56
525.17	392.59
525.53	396.67
525.89	400.92
526.25	405.31
526.61	409.53
526.97	413.88
527.33	418.46
527.68	422.93
528.04	427.48
528.40	432.34
528.76	437.22
529.12	442.09
529.48	447.22
529.84	452.29
530.20	457.60
530.56	462.91
530.91	468.31
531.27	473.85
531.63	479.42
531.99	485.00
532.35	490.69
532.71	496.23
533.07	502.00
533.42	508.01
533.78	513.92
534.14	520.04
534.50	525.92
534.86	532.08
535.21	538.20
535.57	544.61
535.93	550.79
536.29	557.15
536.65	563.82
537.00	570.06
537.36	576.33
537.72	582.73
538.08	589.06
538.44	595.40
538.79	602.00
539.15	608.56
539.51	615.29
539.87	621.97
540.22	628.81
540.58	635.81
540.94	642.39
541.29	649.19
541.65	655.74
542.01	662.90
542.37	669.53
542.72	676.39
543.08	683.07
543.44	690.09
543.79	696.61
544.15	703.13
544.51	710.17
544.87	717.12
545.22	723.60
545.58	730.48
545.94	737.26
546.29	743.80
546.65	750.49
547.01	756.97
547.36	763.55
547.72	770.45
548.07	776.98
548.43	783.39
548.79	789.77
549.14	796.10
549.50	802.10
549.86	808.11
550.21	814.47
550.57	820.79
550.92	826.84
551.28	833.20
551.64	839.36
551.99	845.47
552.35	851.64
552.70	857.97
553.06	864.08
553.41	870.21
553.77	876.19
554.13	881.99
554.48	888.18
554.84	894.18
555.19	899.57
555.55	905.25
555.90	910.77
556.26	916.17
556.61	921.90
556.97	927.34
557.32	932.96
557.68	938.36
558.03	943.96
558.39	949.63
558.74	955.24
559.10	960.62
559.45	965.81
559.81	971.20
560.16	976.29
560.52	981.51
560.87	986.91
561.23	991.66
561.58	996.90
561.94	1001.55
562.29	1005.84
562.64	1010.31
563.00	1014.90
563.35	1019.96
563.71	1025.29
564.06	1030.09
564.42	1034.67
564.77	1039.15
565.12	1043.77
565.48	1047.97
565.83	1051.51
566.19	1055.64
566.54	1059.77
566.89	1063.50
567.25	1067.14
567.60	1071.14
567.96	1074.48
568.31	1077.88
568.66	1081.53
569.02	1085.20
569.37	1088.70
569.72	1092.60
570.08	1095.92
570.43	1098.97
570.78	1101.95
571.14	1104.09
571.49	1106.81
571.84	1110.22
572.20	1112.90
572.55	1115.26
572.90	1117.50
573.26	1120.32
573.61	1122.31
573.96	1124.32
574.31	1126.26
574.67	1127.77
575.02	1129.17
575.37	1130.91
575.72	1131.92
576.08	1133.55
576.43	1134.48
576.78	1135.83
577.13	1136.76
577.49	1138.40
577.84	1139.61
578.19	1140.34
578.54	1141.62
578.90	1142.49
579.25	1142.57
579.60	1143.09
579.95	1143.52
580.30	1143.92
580.66	1144.00
581.01	1144.20
581.36	1144.38
581.71	1144.66
582.06	1144.96
582.42	1144.99
582.77	1145.00
583.12	1145.20
583.47	1145.30
583.82	1145.23
584.17	1144.85
584.53	1144.55
584.88	1144.05
585.23	1143.70
585.58	1143.49
585.93	1142.66
586.28	1142.28
586.63	1142.10
586.98	1141.72
587.34	1141.57
587.69	1141.12
588.04	1140.86
588.39	1140.29
588.74	1139.07
589.09	1138.46
589.44	1137.24
589.79	1136.66
590.14	1135.60
590.49	1134.27
590.84	1133.12
591.19	1132.12
591.54	1130.50
591.89	1129.20
592.25	1127.70
592.60	1126.05
592.95	1124.15
593.30	1122.56
593.65	1120.75
594.00	1118.68
594.35	1117.30
594.70	1114.80
595.05	1113.01
595.40	1110.57
595.75	1108.15
596.10	1106.82
596.45	1104.68
596.80	1103.37
597.15	1101.26
597.50	1099.26
597.85	1097.94
598.19	1096.13
598.54	1094.12
598.89	1092.60
599.24	1090.77
599.59	1088.88
599.94	1086.98
600.29	1084.96
600.64	1082.93
600.99	1080.01
601.34	1077.92
601.69	1075.23
602.04	1072.95
602.39	1070.76
602.74	1068.95
603.08	1067.12
603.43	1064.73
603.78	1062.40
604.13	1060.09
604.48	1057.55
604.83	1055.03
605.18	1052.22
605.53	1049.41
605.87	1046.44
606.22	1043.70
606.57	1040.73
606.92	1038.11
607.27	1035.59
607.62	1033.02
607.96	1030.34
608.31	1028.31
608.66	1025.38
609.01	1022.20
609.36	1018.95
609.70	1015.30
610.05	1011.77
610.40	1008.50
610.75	1005.00
611.10	1001.54
611.44	997.64
611.79	994.58
612.14	991.15
612.49	987.12
612.83	983.33
613.18	979.74
613.53	976.03
613.88	972.19
614.22	968.02
614.57	963.72
614.92	959.87
615.27	956.13
615.61	952.07
615.96	948.40
616.31	945.03
616.65	941.93
617.00	938.52
617.35	935.11
617.70	931.30
618.04	927.38
618.39	923.66
618.74	920.03
619.08	916.12
619.43	912.82
619.78	909.52
620.12	905.94
620.47	902.25
620.82	898.48
621.16	895.22
621.51	891.94
621.85	888.53
622.20	884.94
622.55	881.41
622.89	877.86
623.24	874.54
623.59	871.10
623.93	867.92
624.28	864.68
624.62	861.21
624.97	858.08
625.32	854.92
625.66	851.62
626.01	848.21
626.35	844.93
626.70	841.20
627.04	838.02
627.39	834.75
627.73	831.23
628.08	827.91
628.43	824.02
628.77	820.62
629.12	816.96
629.46	813.22
629.81	809.27
630.15	805.61
630.50	801.66
630.84	797.59
631.19	793.07
631.53	788.99
631.88	784.97
632.22	780.73
632.57	777.09
632.91	773.28
633.26	769.43
633.60	765.30
633.95	761.73
634.29	758.03
634.64	754.34
634.98	750.82
635.32	747.20
635.67	744.18
636.01	740.56
636.36	737.18
636.70	734.00
637.05	730.84
637.39	727.70
637.73	724.33
638.08	721.67
638.42	718.70
638.77	715.70
639.11	712.56
639.45	709.50
639.80	706.14
640.14	702.80
640.49	699.80
640.83	696.60
641.17	693.30
641.52	690.01
641.86	686.73
642.20	683.63
642.55	680.30
642.89	677.00
643.23	673.61
643.58	670.64
643.92	667.42
644.26	664.28
644.61	661.32
644.95	658.24
645.29	654.26
645.64	651.08
645.98	647.60
646.32	644.64
646.66	641.41
647.01	638.19
647.35	635.08
647.69	631.85
648.04	629.00
648.38	625.78
648.72	622.39
649.06	618.99
649.41	615.57
649.75	612.28
650.09	608.56
650.43	605.25
650.78	601.66
651.12	598.40
651.46	595.07
651.80	591.74
652.14	588.83
652.49	585.97
652.83	582.78
653.17	579.68
653.51	576.00
653.85	572.87
654.20	569.57
654.54	566.26
654.88	562.92
655.22	559.47
655.56	556.30
655.90	553.19
656.25	550.26
656.59	547.27
656.93	544.39
657.27	541.68
657.61	538.71
657.95	536.11
658.29	533.22
658.64	530.43
658.98	527.38
659.32	524.08
659.66	521.17
660.00	518.36
660.34	515.37
660.68	512.82
661.02	510.15
661.36	507.60
661.70	505.08
662.05	502.66
662.39	500.25
662.73	497.70
663.07	495.50
663.41	493.09
663.75	490.63
664.09	488.10
664.43	485.58
664.77	483.23
665.11	480.60
665.45	478.32
665.79	475.92
666.13	473.54
666.47	471.15
666.81	468.75
667.15	466.23
667.49	464.06
667.83	461.86
668.17	459.39
668.51	457.05
668.85	454.85
669.19	452.78
669.53	450.57
669.87	448.42
670.21	446.06
670.55	443.90
670.89	442.00
671.23	440.09
671.57	438.22
671.91	436.27
672.25	434.33
672.58	432.08
672.92	430.17
673.26	428.37
673.60	426.58
673.94	424.61
674.28	422.96
674.62	421.27
674.96	419.36
675.30	417.72
675.64	415.94
675.97	414.14
676.31	412.28
676.65	410.52
676.99	408.89
677.33	407.13
677.67	405.46
678.01	403.63
678.34	401.79
678.68	400.26
679.02	398.48
679.36	396.85
679.70	395.36
680.04	393.62
680.37	391.81
680.71	390.35
681.05	389.11
681.39	387.69
681.73	386.23
682.06	384.83
682.40	383.28
682.74	381.85
683.08	380.47
683.42	378.95
683.75	377.51
684.09	375.94
684.43	374.53
684.77	373.06
685.10	371.71
685.44	370.47
685.78	368.87
686.12	367.49
686.45	366.02
686.79	364.73
687.13	363.50
687.46	362.22
687.80	360.79
688.14	359.24
688.48	357.74
688.81	356.28
689.15	355.01
689.49	353.80
689.82	352.45
690.16	350.99
690.50	349.68
690.83	348.41
691.17	347.04
691.51	345.85
691.84	344.51
692.18	343.11
692.52	341.86
692.85	340.64
693.19	339.53
693.52	338.31
693.86	336.90
694.20	335.59
694.53	334.40
694.87	333.18
695.21	332.01
695.54	330.90
695.88	329.63
696.21	328.33
696.55	327.06
696.88	325.90
697.22	324.76
697.56	323.76
697.89	322.68
698.23	321.79
698.56	320.67
698.90	319.51
699.23	318.47
699.57	317.28
699.90	316.20
700.24	315.03
700.58	313.89
700.91	313.00
701.25	312.19
701.58	311.30
701.92	310.22
702.25	309.37
702.59	308.53
702.92	307.82
703.26	306.97
703.59	306.14
703.93	305.50
704.26	304.73
704.60	303.80
704.93	302.87
705.26	301.98
705.60	301.15
705.93	300.41
706.27	299.69
706.60	299.06
706.94	298.33
707.27	297.47
707.61	296.87
707.94	296.04
708.27	295.14
708.61	294.25
708.94	293.63
709.28	292.80
709.61	291.97
709.94	291.16
710.28	290.37
710.61	289.57
710.95	288.63
711.28	287.99
711.61	287.33
711.95	286.67
712.28	285.85
712.61	285.16
712.95	284.62
713.28	284.03
713.61	283.25
713.95	282.48
714.28	281.90
714.61	281.25
714.95	280.63
715.28	280.00
715.61	279.43
715.95	278.98
716.28	278.34
716.61	277.75
716.95	277.29
717.28	276.73
717.61	276.36
717.94	275.93
718.28	275.30
718.61	274.76
718.94	274.23
719.27	273.88
719.61	273.48
719.94	273.02
720.27	272.43
720.60	272.11
720.94	271.77
721.27	271.44
721.60	271.09
721.93	270.69
722.27	270.44
722.60	270.07
722.93	269.59
723.26	269.26
723.59	268.90
723.93	268.45
724.26	268.15
724.59	267.70
724.92	267.36
725.25	267.12
725.59	266.74
725.92	266.42
726.25	266.01
726.58	265.62
726.91	265.22
727.24	264.96
727.57	264.50
727.91	264.18
728.24	263.80
728.57	263.40
728.90	263.12
729.23	262.55
729.56	262.23
729.89	261.85
730.22	261.54
730.55	261.20
730.89	260.88
731.22	260.54
731.55	260.20
731.88	259.79
732.21	259.42
732.54	259.10
732.87	258.76
733.20	258.46
733.53	258.18
733.86	257.83
734.19	257.45
734.52	257.26
734.85	256.96
735.18	256.70
735.51	256.48
735.84	256.17
736.17	255.99
736.50	255.57
736.83	255.44
737.16	255.08
737.49	254.84
737.82	254.43
738.15	254.10
738.48	253.81
738.81	253.61
739.14	253.35
739.47	253.04
739.80	252.76
740.13	252.47
740.46	252.09
740.79	251.86
741.12	251.57
741.45	251.22
741.78	250.91
742.11	250.67
742.44	250.33
742.77	250.09
743.10	249.69
743.43	249.52
743.75	249.10
744.08	249.11
744.41	248.86
744.74	248.65
745.07	248.47
745.40	248.28
745.73	248.11
746.06	247.73
746.39	247.51
746.71	247.28
747.04	247.03
747.37	246.85
747.70	246.59
748.03	246.47
748.36	246.19
748.68	246.00
749.01	245.58
749.34	245.36
749.67	245.27
750.00	245.26
750.33	245.05
750.65	244.90
750.98	244.48
751.31	244.18
751.64	244.03
751.97	243.75
752.29	243.60
752.62	243.25
752.95	243.17
753.28	242.99
753.60	242.78
753.93	242.63
754.26	242.46
754.59	242.22
754.91	241.97
755.24	241.86
755.57	241.66
755.90	241.60
756.22	241.47
756.55	241.10
756.88	240.83
757.20	240.75
757.53	240.57
757.86	240.40
758.19	240.27
758.51	240.20
758.84	240.11
759.17	239.88
759.49	239.87
759.82	239.89
760.15	239.90
760.47	239.85
760.80	239.74
761.13	239.59
761.45	239.51
761.78	239.51
762.11	239.43
762.43	239.40
762.76	239.25
763.08	239.18
763.41	239.24
763.74	239.21
764.06	239.05
764.39	239.02
764.71	239.03
765.04	239.04
765.37	239.03
765.69	239.05
766.02	238.96
766.34	238.90
766.67	238.64
767.00	238.50
767.32	238.40
767.65	238.41
767.97	238.40
768.30	238.35
768.62	238.22
768.95	238.16
769.27	237.94
769.60	237.96
769.92	237.86
770.25	237.84
770.57	237.69
770.90	237.57
771.22	237.49
771.55	237.33
771.87	237.22
772.20	237.02
772.52	237.10
772.85	237.30
773.17	237.16
773.50	237.12
773.82	236.95
774.15	236.84
774.47	236.61
774.80	236.55
775.12	236.46
775.45	236.36
775.77	236.30
776.09	236.36
776.42	236.35
776.74	236.28
777.07	236.04
777.39	235.96
777.72	235.85
778.04	235.71
778.36	235.57
778.69	235.47
779.01	235.36
779.33	234.98
779.66	234.62
779.98	234.60
780.31	234.46
780.63	234.50
780.95	234.44
781.28	234.40
781.60	234.32
781.92	234.09
782.25	233.96
782.57	233.77
782.89	233.68
783.22	233.43
783.54	233.23
783.86	233.24
784.19	233.26
784.51	233.29
784.83	233.27
785.16	233.22
785.48	233.13
785.80	233.02
786.12	232.97
786.45	232.90
786.77	232.59
787.09	232.52
787.42	232.31
787.74	232.19
788.06	232.11
788.38	231.98
788.71	231.99
789.03	231.99
789.35	231.98
789.67	231.84
789.99	231.85
790.32	231.83
790.64	231.76
790.96	231.82
791.28	231.61
791.61	231.49
791.93	231.42
792.25	231.40
792.57	231.39
792.89	231.23
793.21	231.24
793.54	231.33
793.86	231.35
794.18	231.38
794.50	231.34
794.82	231.30
795.14	231.30
795.47	231.32
795.79	231.29
796.11	231.24
796.43	231.19
796.75	231.14
797.07	231.15
797.39	231.13
797.71	230.95
798.04	230.92
798.36	230.95
798.68	230.97
799.00	230.86
799.32	230.81
799.64	231.04
799.96	230.95
800.28	230.97
800.60	230.90
800.92	230.91
801.24	230.98
801.56	231.07
801.89	231.00
802.21	231.03
802.53	230.99
802.85	230.99
803.17	231.07
803.49	231.08
803.81	231.03
804.13	230.99
804.45	231.01
804.77	231.09
805.09	231.08
805.41	231.04
805.73	231.15
806.05	231.18
806.37	231.10
806.69	231.09
807.01	231.01
807.33	231.03
807.65	230.96
807.97	231.04
808.28	230.93
808.60	231.08
808.92	231.09
809.24	231.16
809.56	231.22
809.88	231.20
810.20	231.24
810.52	231.30
810.84	231.27
811.16	231.26
811.48	231.38
811.80	231.45
812.12	231.47
812.43	231.46
812.75	231.50
813.07	231.56
813.39	231.70
813.71	231.70
814.03	231.77
814.35	231.81
814.67	231.72
814.98	231.74
815.30	231.70
815.62	231.62
815.94	231.46
816.26	231.47
816.58	231.45
816.89	231.44
817.21	231.35
817.53	231.33
817.85	231.31
818.17	231.20
818.48	231.06
818.80	231.07
819.12	231.00
819.44	230.92
819.76	230.81
820.07	230.72
820.39	230.79
820.71	230.73
821.03	230.62
821.34	230.57
821.66	230.53
821.98	230.51
822.30	230.46
822.61	230.55
822.93	230.39
823.25	230.33
823.57	230.30
823.88	230.30
824.20	230.20
824.52	230.11
824.83	229.97
825.15	229.93
825.47	229.77
825.79	229.75
826.10	229.65
826.42	229.52
826.74	229.45
827.05	229.29
827.37	229.30
827.69	229.24
828.00	229.20
828.32	229.14
828.64	228.98
828.95	229.03
829.27	228.96
829.58	228.97
829.90	228.94
830.22	228.79
830.53	228.77
830.85	228.77
831.17	228.70
831.48	228.71
831.80	228.66
832.11	228.70
832.43	228.62
832.75	228.59
833.06	228.62
833.38	228.55
833.69	228.50
834.01	228.46
834.32	228.49
834.64	228.40
834.96	228.34
835.27	228.37
835.59	228.30
835.90	228.25
836.22	228.31
836.53	228.20
836.85	228.23
837.16	228.30
837.48	228.30
837.79	228.35
838.11	228.42
838.42	228.43
838.74	228.52
839.05	228.55
839.37	228.67
839.68	228.70
840.00	228.69
840.31	228.67
840.63	228.59
840.94	228.57
841.26	228.61
841.57	228.69
841.88	228.69
842.20	228.64
842.51	228.71
842.83	228.67
843.14	229.00
843.46	229.16
843.77	229.10
844.08	229.15
844.40	229.19
844.71	229.28
845.03	229.32
845.34	229.23
845.65	229.24
845.97	229.18
846.28	229.22
846.60	229.28
846.91	229.37
847.22	229.40
847.54	229.48
847.85	229.44
848.16	229.41
848.48	229.40
848.79	229.49
849.10	229.51
849.42	229.50
849.73	229.27
850.04	229.18
850.36	229.19
850.67	229.28
850.98	229.33
851.30	229.32
851.61	229.30
851.92	229.46
852.23	229.58
852.55	229.62
852.86	229.58
853.17	229.69
853.49	229.74
853.80	229.88
854.11	229.88
854.42	230.00
854.74	230.09
855.05	230.13
855.36	230.04
855.67	229.92
855.99	229.93
856.30	230.20
856.61	230.17
856.92	230.17
857.23	230.08
857.55	230.09
857.86	230.03
858.17	230.16
858.48	229.97
858.79	229.87
859.11	229.91
859.42	229.81
859.73	229.69
860.04	229.68
860.35	229.56
860.66	229.50
860.98	229.36
861.29	229.32
861.60	229.22
861.91	229.23
862.22	229.36
862.53	229.30
862.84	229.05
863.16	229.04
863.47	229.03
863.78	228.91
864.09	228.76
864.40	228.65
864.71	228.57
865.02	228.53
865.33	228.52
865.64	228.37
865.95	228.43
866.27	228.52
866.58	228.41
866.89	228.35
867.20	228.39
867.51	228.34
867.82	228.28
868.13	228.43
868.44	228.40
868.75	228.29
869.06	228.25
869.37	228.20
869.68	228.13
869.99	228.03
870.30	228.12
870.61	228.09
870.92	228.10
871.23	228.02
871.54	228.04
871.85	228.07
872.16	228.10
872.47	228.07
872.78	228.01
873.09	228.05
873.40	228.08
873.71	227.92
874.02	228.00
874.33	227.99
874.64	227.94
874.95	228.07
875.26	228.06
875.56	228.10
875.87	228.10
876.18	228.08
876.49	228.19
876.80	228.13
877.11	228.18
877.42	228.20
877.73	228.31
878.04	228.34
878.35	228.30
878.66	228.36
878.96	228.31
879.27	228.22
879.58	228.32
879.89	228.30
880.20	228.52
880.51	228.54
880.82	228.53
881.12	228.46
881.43	228.42
881.74	228.49
882.05	228.57
882.36	228.70
882.67	228.74
882.97	228.70
883.28	228.79
883.59	228.86
883.90	229.02
884.21	229.00
884.51	228.96
884.82	229.00
885.13	229.05
885.44	229.07
885.74	229.14
886.05	229.11
886.36	229.16
886.67	229.11
886.98	229.20
887.28	229.16
887.59	229.21
887.90	229.11
888.20	229.06
888.51	229.03
888.82	229.03
889.13	229.08
889.43	229.24
889.74	229.24
890.05	229.19
890.35	228.96
890.66	228.89
890.97	228.90
891.28	228.91
891.58	228.81
891.89	228.84
892.20	228.76
892.50	228.67
892.81	228.67
893.12	228.66
893.42	228.53
893.73	228.59
894.04	228.58
894.34	228.77
894.65	228.77
894.95	228.74
895.26	228.65
895.57	228.67
895.87	228.49
896.18	228.51
896.48	228.52
896.79	228.66
897.10	228.68
897.40	228.59
897.71	228.59
898.01	228.55
898.32	228.49
898.63	228.59
898.93	228.64
899.24	228.57
899.54	228.46
899.85	228.44
900.15	228.41
900.46	228.42
900.76	228.23
901.07	228.11
901.38	228.10
901.68	228.05
901.99	227.95
902.29	227.95
902.60	227.90
902.90	227.82
903.21	227.70
903.51	227.61
903.82	227.69
904.12	227.70
904.43	227.67
904.73	227.64
905.03	227.59
905.34	227.76
905.64	227.74
905.95	227.70
906.25	227.68
906.56	227.67
906.86	227.52
907.17	227.59
907.47	227.59
907.77	227.54
908.08	227.58
908.38	227.57
908.69	227.52
908.99	227.44
909.30	227.40
909.60	227.43
909.90	227.48
910.21	227.40
910.51	227.24
910.81	227.28
911.12	227.37
911.42	227.35
911.73	227.12
912.03	227.12
912.33	227.23
912.64	227.29
912.94	227.28
913.24	227.48
913.55	227.45
913.85	227.54
914.15	227.58
914.46	227.55
914.76	227.56
915.06	227.53
915.37	227.57
915.67	227.66
915.97	227.73
916.27	227.63
916.58	227.66
916.88	227.76
917.18	227.76
917.49	227.95
917.79	228.00
918.09	228.10
918.39	228.22
918.70	228.23
919.00	228.26
919.30	228.39
919.60	228.29
919.91	228.29
920.21	228.40
920.51	228.45
920.81	228.47
921.12	228.50
921.42	228.60
921.72	228.65
922.02	228.69
922.32	228.70
922.63	228.85
922.93	228.94
923.23	228.95
923.53	228.93
923.83	228.81
924.13	228.80
924.44	228.85
924.74	228.83
925.04	228.91
925.34	228.85
925.64	228.76
925.94	228.80
926.24	228.90
926.55	228.88
926.85	228.92
927.15	228.94
927.45	229.04
927.75	229.14
928.05	229.14
928.35	229.14
928.65	229.13
928.95	229.12
929.26	229.09
929.56	229.20
929.86	229.29
930.16	229.28
930.46	229.30
930.76	229.28
931.06	229.23
931.36	229.14
931.66	229.21
931.96	229.26
932.26	229.29
932.56	229.20
932.86	229.15
933.16	229.00
933.46	228.98
933.76	228.94
934.06	228.90
934.36	228.95
934.66	228.93
934.96	228.81
935.26	228.84
935.56	228.80
935.86	228.57
936.16	228.50
936.46	228.43
936.76	228.38
937.06	228.23
937.36	228.18
937.66	228.08
937.96	228.01
938.26	227.97
938.56	227.88
938.86	227.84
939.16	227.77
939.46	227.80
939.76	227.63
940.06	227.58
940.35	227.50
940.65	227.29
940.95	227.18
941.25	227.29
941.55	227.23
941.85	227.26
942.15	227.36
942.45	227.41
942.75	227.40
943.04	227.35
943.34	227.45
943.64	227.39
943.94	227.38
944.24	227.40
944.54	227.44
944.84	227.37
945.13	227.32
945.43	227.30
945.73	227.40
946.03	227.52
946.33	227.47
946.62	227.43
946.92	227.43
947.22	227.46
947.52	227.44
947.82	227.49
948.11	227.57
948.41	227.49
948.71	227.45
949.01	227.59
949.31	227.73
949.60	227.70
949.90	227.84
950.20	227.74
950.50	227.81
950.79	227.86
951.09	227.93
951.39	228.04
951.69	228.05
951.98	228.06
952.28	228.06
952.58	228.20
952.87	228.31
953.17	228.48
953.47	228.55
953.76	228.50
954.06	228.53
954.36	228.53
954.66	228.68
954.95	228.85
955.25	228.81
955.55	228.78
955.84	228.82
956.14	228.83
956.44	229.05
956.73	228.98
957.03	228.94
957.32	228.97
957.62	228.96
957.92	229.09
958.21	229.10
958.51	229.33
958.81	229.29
959.10	229.25
959.40	229.37
959.69	229.46
959.99	229.61
960.29	229.59
960.58	229.61
960.88	229.67
961.17	229.50
961.47	229.57
961.76	229.63
962.06	229.63
962.36	229.63
962.65	229.62
962.95	229.75
963.24	229.76
963.54	229.77
963.83	229.82
964.13	229.84
964.42	229.75
964.72	229.56
965.01	229.60
965.31	229.57
965.60	229.39
965.90	229.40
966.19	229.21
966.49	229.17
966.78	229.02
967.08	229.02
967.37	229.10
967.67	229.08
967.96	229.04
968.26	229.08
968.55	229.05
968.85	229.05
969.14	228.88
969.43	228.75
969.73	228.78
970.02	228.71
970.32	228.66
970.61	228.71
970.91	228.73
971.20	228.73
971.49	228.69
971.79	228.64
972.08	228.50
972.38	228.41
972.67	228.40
972.96	228.45
973.26	228.30
973.55	228.28
973.85	228.08
974.14	228.03
974.43	227.94
974.73	227.77
975.02	227.69
975.31	227.64
975.61	227.65
975.90	227.55
976.19	227.49
976.49	227.42
976.78	227.39
977.07	227.31
977.37	227.19
977.66	227.10
977.95	227.14
978.24	227.15
978.54	227.33
978.83	227.26
979.12	227.34
979.42	227.44
979.71	227.38
980.00	227.44
980.29	227.33
980.59	227.24
980.88	227.39
981.17	227.43
981.46	227.48
981.76	227.53
982.05	227.57
982.34	227.55
982.63	227.59
982.93	227.64
983.22	227.65
983.51	227.66
983.80	227.70
984.09	227.73
984.39	227.76
984.68	227.63
984.97	227.74
985.26	227.66
985.55	227.63
985.85	227.52
986.14	227.55
986.43	227.62
986.72	227.68
987.01	227.60
987.30	227.55
987.59	227.59
987.89	227.57
988.18	227.62
988.47	227.71
988.76	227.60
989.05	227.53
989.34	227.60
989.63	227.78
989.92	227.84
990.22	227.82
990.51	227.82
990.80	227.94
991.09	227.94
991.38	228.10
991.67	228.04
991.96	228.23
992.25	228.34
992.54	228.38
992.83	228.42
993.12	228.51
993.41	228.59
993.70	228.66
993.99	228.72
994.28	228.72
994.58	228.70
994.87	228.82
995.16	228.88
995.45	228.89
995.74	228.74
996.03	228.89
996.32	228.90
996.61	229.00
996.90	229.08
997.19	229.05
997.48	228.96
997.77	228.93
998.06	228.97
998.34	228.85
998.63	228.80
998.92	228.77
999.21	228.90
999.50	228.90
999.79	228.90
1000.08	228.83
1000.37	228.88
1000.66	228.83
1000.95	228.86
1001.24	228.86
1001.53	228.78
1001.82	228.86
1002.11	228.77
1002.40	228.79
1002.68	228.75
1002.97	228.84
1003.26	228.88
1003.55	228.85
1003.84	228.93
1004.13	228.95
1004.42	228.94
1004.71	228.91
1004.99	228.92
1005.28	228.84
1005.57	228.82
1005.86	228.81
1006.15	228.82
1006.44	228.74
1006.72	228.77
1007.01	228.67
1007.30	228.69
1007.59	228.64
1007.88	228.50
1008.17	228.44
1008.45	228.33
1008.74	228.21
1009.03	228.00
1009.32	227.98
1009.60	227.93
1009.89	227.85
1010.18	227.75
1010.47	227.69
1010.76	227.67
1011.04	227.73
1011.33	227.65
1011.62	227.56
1011.91	227.48
1012.19	227.40
1012.48	227.33
1012.77	227.35
1013.05	227.46
1013.34	227.45
1013.63	227.47
1013.92	227.56
1014.20	227.59
1014.49	227.67
1014.78	227.76
1015.06	227.74
1015.35	227.64
1015.64	227.62
1015.92	227.61
1016.21	227.59
1016.50	227.59
1016.78	227.69
1017.07	227.61
1017.36	227.61
1017.64	227.62
1017.93	227.65
1018.22	227.69
1018.50	227.73
1018.79	227.67
1019.08	227.56
1019.36	227.53
1019.65	227.64
1019.93	227.62
1020.22	227.58
1020.51	227.66
1020.79	227.60
1021.08	227.00
1021.36	227.80
1021.65	226.80
1021.94	227.40
1022.22	228.00
1022.51	229.50
1022.79	227.80
1023.08	227.80
1023.36	230.10
1023.65	227.20
>>>>>End Processed Spectral Data<<<<<
