SpectraSuite Data File
++++++++++++++++++++++++++++++++++++
Date: Fri Feb 01 14:42:12 EST 2013
User: group
Dark Spectrum Present: No
Reference Spectrum Present: No
Number of Sampled Component Spectra: 1
Spectrometers: USB2E7196
Integration Time (usec): 70000 (USB2E7196)
Spectra Averaged: 10 (USB2E7196)
Boxcar Smoothing: 10 (USB2E7196)
Correct for Electrical Dark: No (USB2E7196)
Strobe/Lamp Enabled: No (USB2E7196)
Correct for Detector Non-linearity: No (USB2E7196)
Correct for Stray Light: No (USB2E7196)
Number of Pixels in Processed Spectrum: 2048
>>>>>Begin Processed Spectral Data<<<<<
339.09	0.00
339.48	215.70
339.86	218.40
340.24	217.80
340.63	220.60
341.01	224.50
341.39	223.30
341.78	225.50
342.16	225.80
342.54	224.90
342.93	214.75
343.31	225.61
343.69	226.18
344.07	226.53
344.46	227.08
344.84	227.42
345.22	227.66
345.60	228.03
345.99	228.23
346.37	228.46
346.75	228.61
347.13	228.70
347.52	228.85
347.90	228.85
348.28	228.80
348.66	228.83
349.05	228.73
349.43	228.89
349.81	228.91
350.19	229.08
350.57	229.14
350.96	229.25
351.34	229.32
351.72	229.40
352.10	229.52
352.48	229.58
352.87	229.73
353.25	229.79
353.63	229.70
354.01	229.77
354.39	229.73
354.77	229.78
355.15	229.98
355.54	230.02
355.92	230.00
356.30	230.13
356.68	230.40
357.06	230.52
357.44	230.55
357.82	230.70
358.20	230.70
358.58	230.78
358.97	230.80
359.35	230.92
359.73	231.02
360.11	231.16
360.49	231.26
360.87	231.30
361.25	231.39
361.63	231.54
362.01	231.55
362.39	231.61
362.77	231.69
363.15	231.71
363.53	231.80
363.91	231.88
364.29	231.90
364.67	231.65
365.05	231.63
365.43	231.65
365.81	231.61
366.19	231.63
366.57	231.65
366.95	231.58
367.33	231.50
367.71	231.50
368.09	231.56
368.47	231.45
368.85	231.43
369.23	231.41
369.61	231.26
369.99	231.29
370.37	231.25
370.75	231.25
371.13	231.08
371.51	230.92
371.89	230.82
372.27	230.79
372.65	230.80
373.03	230.80
373.41	230.80
373.78	230.84
374.16	230.62
374.54	230.44
374.92	230.34
375.30	230.24
375.68	230.08
376.06	230.06
376.44	229.94
376.82	229.78
377.19	229.65
377.57	229.58
377.95	229.41
378.33	229.34
378.71	229.20
379.09	229.22
379.47	229.16
379.84	229.14
380.22	229.07
380.60	228.95
380.98	228.80
381.36	228.65
381.73	228.39
382.11	228.47
382.49	228.43
382.87	228.31
383.25	228.32
383.62	228.55
384.00	228.31
384.38	228.39
384.76	228.44
385.13	228.53
385.51	228.47
385.89	228.40
386.27	228.38
386.64	228.27
387.02	228.13
387.40	228.11
387.78	227.98
388.15	227.95
388.53	227.91
388.91	227.98
389.29	227.97
389.66	228.07
390.04	228.08
390.42	228.14
390.79	228.32
391.17	228.27
391.55	228.10
391.92	228.10
392.30	228.11
392.68	228.10
393.05	228.08
393.43	228.12
393.81	228.23
394.18	228.27
394.56	228.36
394.94	228.56
395.31	228.54
395.69	228.74
396.06	228.84
396.44	228.97
396.82	229.07
397.19	229.37
397.57	229.41
397.95	229.45
398.32	229.49
398.70	229.58
399.07	229.77
399.45	229.86
399.82	230.09
400.20	230.08
400.58	230.23
400.95	230.22
401.33	230.50
401.70	230.81
402.08	230.88
402.45	231.13
402.83	231.34
403.20	231.57
403.58	231.71
403.95	231.83
404.33	232.05
404.71	232.13
405.08	232.40
405.46	232.67
405.83	232.94
406.21	233.19
406.58	233.42
406.96	233.68
407.33	233.91
407.70	234.12
408.08	234.67
408.45	235.00
408.83	235.44
409.20	235.74
409.58	235.87
409.95	236.38
410.33	236.83
410.70	237.22
411.08	237.72
411.45	238.17
411.82	238.70
412.20	239.29
412.57	239.90
412.95	240.27
413.32	240.86
413.69	241.48
414.07	242.11
414.44	242.79
414.82	243.49
415.19	244.40
415.56	245.27
415.94	246.13
416.31	247.11
416.68	248.21
417.06	249.38
417.43	250.53
417.81	251.70
418.18	252.86
418.55	254.15
418.93	255.51
419.30	256.92
419.67	258.40
420.04	259.85
420.42	261.55
420.79	263.49
421.16	265.38
421.54	267.41
421.91	269.40
422.28	271.47
422.66	273.70
423.03	275.81
423.40	277.97
423.77	280.16
424.15	282.57
424.52	284.92
424.89	287.41
425.26	289.91
425.64	292.34
426.01	294.88
426.38	297.64
426.75	300.42
427.13	303.25
427.50	306.30
427.87	309.31
428.24	312.26
428.61	315.04
428.99	318.05
429.36	321.29
429.73	324.62
430.10	327.96
430.47	331.22
430.85	334.59
431.22	338.27
431.59	342.23
431.96	345.73
432.33	349.77
432.70	353.70
433.08	358.39
433.45	362.51
433.82	366.80
434.19	371.39
434.56	375.94
434.93	380.39
435.30	384.51
435.68	389.31
436.05	393.86
436.42	398.49
436.79	402.68
437.16	407.18
437.53	411.82
437.90	416.40
438.27	420.90
438.64	425.64
439.01	429.87
439.38	433.61
439.75	437.16
440.13	441.11
440.50	444.87
440.87	447.85
441.24	451.03
441.61	454.52
441.98	456.90
442.35	459.80
442.72	462.69
443.09	465.80
443.46	467.44
443.83	468.49
444.20	469.11
444.57	470.51
444.94	470.98
445.31	471.67
445.68	472.43
446.05	472.56
446.42	471.80
446.79	470.91
447.16	469.85
447.53	469.32
447.90	467.53
448.27	465.59
448.64	463.02
449.01	461.24
449.37	458.16
449.74	455.07
450.11	451.38
450.48	447.44
450.85	443.21
451.22	439.66
451.59	436.21
451.96	433.19
452.33	428.88
452.70	424.97
453.07	420.15
453.43	415.18
453.80	410.55
454.17	406.10
454.54	402.17
454.91	397.88
455.28	393.55
455.65	389.47
456.02	385.59
456.38	382.06
456.75	377.85
457.12	374.16
457.49	370.50
457.86	366.99
458.23	364.00
458.59	360.70
458.96	357.32
459.33	354.30
459.70	351.29
460.07	348.84
460.43	346.07
460.80	343.45
461.17	341.05
461.54	338.66
461.91	336.30
462.27	333.85
462.64	331.78
463.01	329.50
463.38	327.20
463.74	324.91
464.11	322.88
464.48	321.05
464.85	319.06
465.21	317.59
465.58	316.06
465.95	314.15
466.32	312.61
466.68	311.10
467.05	309.68
467.42	308.10
467.78	306.57
468.15	305.10
468.52	303.90
468.88	302.47
469.25	301.19
469.62	300.30
469.98	299.13
470.35	298.07
470.72	297.17
471.08	296.14
471.45	295.24
471.82	294.31
472.18	293.17
472.55	292.53
472.92	291.64
473.28	290.76
473.65	289.90
474.02	289.03
474.38	288.33
474.75	287.73
475.11	287.05
475.48	286.66
475.85	286.24
476.21	285.75
476.58	285.29
476.94	284.86
477.31	284.43
477.67	284.19
478.04	283.87
478.41	283.66
478.77	283.62
479.14	283.40
479.50	283.46
479.87	283.54
480.23	283.57
480.60	283.47
480.96	283.48
481.33	283.69
481.69	284.03
482.06	284.36
482.42	284.60
482.79	284.85
483.15	285.05
483.52	285.45
483.88	286.03
484.25	286.51
484.61	287.03
484.98	287.64
485.34	288.51
485.71	289.35
486.07	290.16
486.44	290.75
486.80	291.66
487.17	292.57
487.53	293.70
487.90	294.84
488.26	296.33
488.62	297.87
488.99	299.14
489.35	300.42
489.72	301.80
490.08	303.45
490.44	305.36
490.81	307.40
491.17	309.31
491.54	311.45
491.90	313.79
492.26	316.43
492.63	318.98
492.99	321.45
493.36	324.33
493.72	327.34
494.08	330.49
494.45	333.75
494.81	337.36
495.17	341.03
495.54	344.79
495.90	348.78
496.26	352.98
496.63	357.68
496.99	362.45
497.35	367.46
497.72	372.55
498.08	377.70
498.44	383.10
498.80	389.08
499.17	394.98
499.53	401.36
499.89	407.79
500.26	414.55
500.62	421.40
500.98	428.78
501.34	436.35
501.71	444.32
502.07	452.63
502.43	461.01
502.79	469.86
503.16	479.14
503.52	488.66
503.88	498.30
504.24	508.40
504.60	518.97
504.97	529.94
505.33	541.35
505.69	553.27
506.05	565.35
506.41	577.40
506.78	590.09
507.14	602.90
507.50	616.31
507.86	630.20
508.22	644.53
508.59	658.82
508.95	673.81
509.31	689.20
509.67	704.89
510.03	721.09
510.39	737.44
510.75	754.59
511.12	771.64
511.48	789.42
511.84	807.23
512.20	825.47
512.56	844.10
512.92	863.21
513.28	882.64
513.64	902.24
514.00	922.33
514.37	942.47
514.73	963.15
515.09	984.05
515.45	1005.31
515.81	1027.05
516.17	1049.24
516.53	1071.83
516.89	1094.37
517.25	1117.35
517.61	1140.19
517.97	1163.40
518.33	1186.08
518.69	1209.85
519.05	1233.46
519.41	1258.00
519.77	1282.70
520.13	1307.50
520.49	1331.88
520.85	1357.02
521.21	1381.76
521.57	1407.83
521.93	1433.08
522.29	1458.99
522.65	1485.02
523.01	1510.49
523.37	1535.90
523.73	1561.58
524.09	1587.29
524.45	1613.16
524.81	1639.28
525.17	1666.19
525.53	1692.99
525.89	1719.80
526.25	1746.51
526.61	1773.20
526.97	1799.82
527.33	1826.28
527.68	1852.90
528.04	1879.71
528.40	1906.24
528.76	1934.13
529.12	1960.54
529.48	1988.09
529.84	2013.78
530.20	2040.43
530.56	2068.23
530.91	2096.24
531.27	2123.31
531.63	2149.54
531.99	2176.28
532.35	2202.38
532.71	2227.75
533.07	2253.84
533.42	2279.65
533.78	2305.69
534.14	2331.53
534.50	2356.30
534.86	2381.22
535.21	2405.59
535.57	2431.02
535.93	2455.89
536.29	2479.75
536.65	2503.94
537.00	2527.16
537.36	2552.10
537.72	2574.89
538.08	2597.45
538.44	2619.45
538.79	2642.13
539.15	2664.40
539.51	2687.06
539.87	2709.95
540.22	2732.15
540.58	2754.30
540.94	2775.87
541.29	2796.18
541.65	2816.56
542.01	2838.47
542.37	2859.25
542.72	2879.23
543.08	2898.37
543.44	2917.86
543.79	2936.24
544.15	2954.69
544.51	2974.27
544.87	2992.60
545.22	3010.97
545.58	3028.30
545.94	3044.86
546.29	3061.24
546.65	3077.61
547.01	3092.79
547.36	3107.40
547.72	3121.67
548.07	3135.48
548.43	3149.45
548.79	3163.81
549.14	3177.27
549.50	3188.84
549.86	3200.65
550.21	3213.36
550.57	3225.78
550.92	3236.95
551.28	3248.10
551.64	3259.25
551.99	3269.73
552.35	3279.79
552.70	3290.53
553.06	3300.95
553.41	3311.11
553.77	3320.95
554.13	3331.15
554.48	3341.08
554.84	3350.19
555.19	3360.04
555.55	3369.08
555.90	3376.29
556.26	3384.06
556.61	3392.46
556.97	3400.11
557.32	3408.40
557.68	3415.40
558.03	3422.18
558.39	3429.22
558.74	3437.40
559.10	3444.42
559.45	3450.84
559.81	3458.03
560.16	3463.13
560.52	3468.69
560.87	3475.17
561.23	3479.31
561.58	3484.13
561.94	3488.49
562.29	3492.16
562.64	3494.97
563.00	3498.22
563.35	3503.94
563.71	3508.96
564.06	3512.95
564.42	3516.83
564.77	3520.34
565.12	3524.21
565.48	3527.43
565.83	3529.15
566.19	3530.86
566.54	3532.30
566.89	3533.68
567.25	3534.90
567.60	3537.43
567.96	3538.75
568.31	3538.67
568.66	3540.64
569.02	3541.16
569.37	3540.60
569.72	3541.12
570.08	3541.18
570.43	3540.55
570.78	3538.92
571.14	3536.28
571.49	3534.63
571.84	3534.27
572.20	3531.18
572.55	3527.79
572.90	3524.33
573.26	3522.20
573.61	3519.35
573.96	3515.56
574.31	3510.74
574.67	3504.47
575.02	3498.58
575.37	3493.57
575.72	3488.18
576.08	3482.74
576.43	3476.58
576.78	3471.47
577.13	3466.40
577.49	3461.65
577.84	3455.68
578.19	3449.60
578.54	3443.28
578.90	3435.41
579.25	3426.67
579.60	3419.63
579.95	3412.34
580.30	3404.49
580.66	3396.23
581.01	3387.27
581.36	3380.04
581.71	3373.17
582.06	3366.27
582.42	3358.08
582.77	3349.07
583.12	3340.35
583.47	3332.20
583.82	3324.55
584.17	3315.58
584.53	3306.80
584.88	3297.73
585.23	3289.11
585.58	3280.81
585.93	3272.18
586.28	3264.30
586.63	3256.06
586.98	3247.59
587.34	3239.05
587.69	3230.87
588.04	3222.44
588.39	3214.47
588.74	3203.50
589.09	3193.06
589.44	3182.31
589.79	3173.34
590.14	3164.90
590.49	3155.82
590.84	3145.33
591.19	3134.96
591.54	3123.87
591.89	3111.88
592.25	3100.57
592.60	3088.80
592.95	3076.84
593.30	3065.47
593.65	3053.85
594.00	3042.17
594.35	3031.22
594.70	3019.25
595.05	3008.53
595.40	2996.46
595.75	2984.39
596.10	2974.43
596.45	2964.26
596.80	2955.17
597.15	2944.81
597.50	2933.10
597.85	2922.10
598.19	2911.78
598.54	2901.35
598.89	2892.01
599.24	2882.93
599.59	2872.74
599.94	2863.38
600.29	2852.84
600.64	2842.15
600.99	2830.39
601.34	2819.56
601.69	2807.84
602.04	2797.43
602.39	2786.08
602.74	2776.40
603.08	2766.29
603.43	2755.90
603.78	2745.02
604.13	2733.86
604.48	2721.84
604.83	2711.30
605.18	2700.39
605.53	2687.81
605.87	2674.76
606.22	2662.81
606.57	2650.64
606.92	2639.09
607.27	2627.75
607.62	2617.12
607.96	2605.85
608.31	2595.49
608.66	2583.45
609.01	2571.19
609.36	2558.05
609.70	2544.68
610.05	2531.31
610.40	2518.25
610.75	2504.49
611.10	2491.25
611.44	2476.94
611.79	2464.72
612.14	2451.45
612.49	2437.47
612.83	2424.65
613.18	2412.23
613.53	2399.45
613.88	2385.82
614.22	2372.86
614.57	2358.85
614.92	2345.39
615.27	2332.70
615.61	2319.00
615.96	2306.43
616.31	2294.96
616.65	2284.30
617.00	2272.56
617.35	2260.53
617.70	2248.40
618.04	2236.06
618.39	2223.73
618.74	2212.36
619.08	2199.28
619.43	2186.97
619.78	2175.87
620.12	2163.65
620.47	2151.87
620.82	2139.75
621.16	2127.95
621.51	2115.99
621.85	2104.37
622.20	2091.71
622.55	2079.55
622.89	2068.28
623.24	2056.77
623.59	2045.26
623.93	2033.28
624.28	2021.46
624.62	2009.37
624.97	1997.48
625.32	1986.63
625.66	1975.67
626.01	1964.28
626.35	1952.99
626.70	1941.46
627.04	1929.92
627.39	1918.66
627.73	1907.09
628.08	1896.00
628.43	1884.62
628.77	1873.16
629.12	1861.27
629.46	1850.04
629.81	1837.93
630.15	1825.73
630.50	1813.74
630.84	1800.93
631.19	1788.09
631.53	1776.14
631.88	1764.14
632.22	1752.07
632.57	1740.48
632.91	1728.47
633.26	1716.40
633.60	1704.62
633.95	1693.05
634.29	1681.79
634.64	1671.16
634.98	1659.43
635.32	1648.53
635.67	1638.30
636.01	1627.59
636.36	1616.87
636.70	1606.41
637.05	1596.26
637.39	1586.47
637.73	1576.51
638.08	1567.05
638.42	1558.09
638.77	1548.18
639.11	1538.26
639.45	1528.49
639.80	1518.24
640.14	1508.12
640.49	1498.10
640.83	1488.31
641.17	1478.60
641.52	1468.03
641.86	1457.53
642.20	1448.03
642.55	1437.11
642.89	1426.73
643.23	1416.25
643.58	1406.80
643.92	1396.72
644.26	1386.48
644.61	1376.78
644.95	1366.81
645.29	1356.11
645.64	1344.99
645.98	1335.45
646.32	1326.00
646.66	1316.02
647.01	1306.13
647.35	1296.65
647.69	1287.12
648.04	1277.92
648.38	1268.00
648.72	1258.27
649.06	1248.53
649.41	1238.83
649.75	1229.04
650.09	1219.14
650.43	1209.80
650.78	1199.73
651.12	1190.10
651.46	1181.10
651.80	1171.41
652.14	1162.08
652.49	1152.85
652.83	1144.29
653.17	1134.46
653.51	1124.89
653.85	1115.82
654.20	1106.43
654.54	1096.67
654.88	1087.44
655.22	1077.46
655.56	1068.24
655.90	1059.72
656.25	1050.77
656.59	1041.99
656.93	1033.89
657.27	1025.60
657.61	1016.50
657.95	1008.51
658.29	1000.24
658.64	991.36
658.98	982.70
659.32	974.01
659.66	965.99
660.00	957.64
660.34	949.66
660.68	941.65
661.02	933.48
661.36	926.05
661.70	918.84
662.05	911.66
662.39	904.65
662.73	897.40
663.07	890.33
663.41	883.49
663.75	876.77
664.09	869.89
664.43	862.88
664.77	856.46
665.11	849.60
665.45	843.01
665.79	836.66
666.13	830.27
666.47	823.92
666.81	817.36
667.15	810.71
667.49	804.32
667.83	798.30
668.17	792.03
668.51	785.69
668.85	779.52
669.19	773.52
669.53	767.47
669.87	761.49
670.21	755.72
670.55	750.10
670.89	744.62
671.23	739.09
671.57	733.54
671.91	727.90
672.25	722.36
672.58	716.89
672.92	711.51
673.26	706.35
673.60	701.12
673.94	696.01
674.28	691.39
674.62	686.86
674.96	681.85
675.30	677.19
675.64	672.36
675.97	667.62
676.31	662.88
676.65	658.38
676.99	653.99
677.33	649.13
677.67	644.36
678.01	639.48
678.34	634.71
678.68	630.26
679.02	626.02
679.36	621.68
679.70	617.44
680.04	613.17
680.37	608.67
680.71	604.48
681.05	600.55
681.39	596.53
681.73	592.28
682.06	588.50
682.40	584.76
682.74	580.84
683.08	577.04
683.42	572.89
683.75	569.03
684.09	565.00
684.43	561.17
684.77	557.46
685.10	553.73
685.44	550.12
685.78	546.66
686.12	542.98
686.45	539.30
686.79	535.56
687.13	532.16
687.46	528.74
687.80	525.22
688.14	521.72
688.48	518.06
688.81	514.51
689.15	510.98
689.49	507.43
689.82	504.28
690.16	500.75
690.50	497.78
690.83	494.31
691.17	491.07
691.51	487.87
691.84	484.76
692.18	481.67
692.52	478.49
692.85	475.26
693.19	472.17
693.52	469.12
693.86	466.05
694.20	463.09
694.53	460.07
694.87	457.22
695.21	454.17
695.54	451.40
695.88	448.70
696.21	445.90
696.55	443.17
696.88	440.37
697.22	437.95
697.56	435.30
697.89	432.79
698.23	430.31
698.56	427.85
698.90	425.27
699.23	422.46
699.57	419.92
699.90	417.50
700.24	414.97
700.58	412.61
700.91	410.35
701.25	408.07
701.58	406.03
701.92	403.66
702.25	401.49
702.59	399.34
702.92	397.30
703.26	395.27
703.59	393.40
703.93	391.52
704.26	389.36
704.60	387.29
704.93	385.32
705.26	383.22
705.60	381.32
705.93	379.60
706.27	378.05
706.60	376.37
706.94	374.45
707.27	372.70
707.61	370.83
707.94	369.13
708.27	367.26
708.61	365.51
708.94	364.06
709.28	362.41
709.61	360.81
709.94	359.29
710.28	357.68
710.61	356.08
710.95	354.38
711.28	353.08
711.61	351.57
711.95	350.05
712.28	348.67
712.61	347.20
712.95	345.63
713.28	344.18
713.61	342.75
713.95	341.32
714.28	340.05
714.61	338.80
714.95	337.51
715.28	336.13
715.61	334.92
715.95	333.63
716.28	332.40
716.61	331.20
716.95	329.89
717.28	328.61
717.61	327.26
717.94	326.14
718.28	324.72
718.61	323.54
718.94	322.48
719.27	321.40
719.61	320.34
719.94	319.35
720.27	318.17
720.60	317.19
720.94	316.27
721.27	315.30
721.60	314.43
721.93	313.54
722.27	312.76
722.60	311.79
722.93	310.77
723.26	309.88
723.59	308.80
723.93	307.87
724.26	306.96
724.59	306.13
724.92	305.23
725.25	304.45
725.59	303.66
725.92	302.87
726.25	301.95
726.58	301.08
726.91	300.26
727.24	299.51
727.57	298.72
727.91	297.89
728.24	297.08
728.57	296.26
728.90	295.27
729.23	294.41
729.56	293.70
729.89	293.02
730.22	292.19
730.55	291.51
730.89	290.86
731.22	290.30
731.55	289.60
731.88	288.74
732.21	288.00
732.54	287.30
732.87	286.55
733.20	285.92
733.53	285.32
733.86	284.68
734.19	284.05
734.52	283.30
734.85	282.68
735.18	282.02
735.51	281.43
735.84	280.96
736.17	280.40
736.50	279.64
736.83	279.18
737.16	278.49
737.49	278.00
737.82	277.48
738.15	276.83
738.48	276.22
738.81	275.80
739.14	275.19
739.47	274.51
739.80	273.93
740.13	273.37
740.46	272.73
740.79	272.05
741.12	271.47
741.45	270.93
741.78	270.37
742.11	269.76
742.44	269.13
742.77	268.61
743.10	268.00
743.43	267.49
743.75	266.78
744.08	266.61
744.41	266.00
744.74	265.31
745.07	264.84
745.40	264.43
745.73	264.08
746.06	263.69
746.39	263.32
746.71	262.90
747.04	262.44
747.37	262.04
747.70	261.70
748.03	261.30
748.36	260.94
748.68	260.50
749.01	260.24
749.34	259.73
749.67	259.40
750.00	259.01
750.33	258.83
750.65	258.54
750.98	258.03
751.31	257.70
751.64	257.38
751.97	257.16
752.29	256.86
752.62	256.38
752.95	256.03
753.28	255.70
753.60	255.50
753.93	255.23
754.26	254.87
754.59	254.54
754.91	254.29
755.24	253.87
755.57	253.60
755.90	253.20
756.22	252.92
756.55	252.55
756.88	252.37
757.20	251.93
757.53	251.64
757.86	251.41
758.19	251.23
758.51	250.99
758.84	250.60
759.17	250.23
759.49	249.94
759.82	249.81
760.15	249.53
760.47	249.22
760.80	248.97
761.13	248.83
761.45	248.60
761.78	248.37
762.11	248.27
762.43	248.09
762.76	247.86
763.08	247.89
763.41	247.72
763.74	247.50
764.06	247.30
764.39	247.07
764.71	246.83
765.04	246.58
765.37	246.40
765.69	246.23
766.02	246.16
766.34	246.09
766.67	245.87
767.00	245.82
767.32	245.76
767.65	245.74
767.97	245.51
768.30	245.39
768.62	245.13
768.95	244.88
769.27	244.75
769.60	244.70
769.92	244.35
770.25	244.14
770.57	243.90
770.90	243.70
771.22	243.58
771.55	243.48
771.87	243.27
772.20	243.13
772.52	243.15
772.85	243.21
773.17	242.95
773.50	242.64
773.82	242.38
774.15	242.11
774.47	241.80
774.80	241.64
775.12	241.43
775.45	241.30
775.77	241.26
776.09	241.08
776.42	240.84
776.74	240.76
777.07	240.53
777.39	240.43
777.72	240.36
778.04	240.18
778.36	239.89
778.69	239.82
779.01	239.74
779.33	239.29
779.66	238.89
779.98	238.78
780.31	238.74
780.63	238.65
780.95	238.53
781.28	238.38
781.60	238.21
781.92	238.00
782.25	237.85
782.57	237.58
782.89	237.44
783.22	237.34
783.54	237.12
783.86	236.98
784.19	236.84
784.51	236.74
784.83	236.64
785.16	236.61
785.48	236.40
785.80	236.30
786.12	236.28
786.45	236.16
786.77	236.02
787.09	235.90
787.42	235.73
787.74	235.71
788.06	235.65
788.38	235.49
788.71	235.52
789.03	235.45
789.35	235.40
789.67	235.23
789.99	235.07
790.32	234.99
790.64	235.03
790.96	235.07
791.28	234.89
791.61	234.70
791.93	234.58
792.25	234.60
792.57	234.54
792.89	234.49
793.21	234.41
793.54	234.30
793.86	234.26
794.18	234.24
794.50	234.15
794.82	234.12
795.14	234.17
795.47	234.12
795.79	234.10
796.11	234.06
796.43	234.20
796.75	234.20
797.07	234.19
797.39	234.10
797.71	234.00
798.04	233.97
798.36	233.99
798.68	233.93
799.00	233.86
799.32	233.80
799.64	233.75
799.96	233.79
800.28	233.84
800.60	233.84
800.92	233.90
801.24	233.82
801.56	233.71
801.89	233.70
802.21	233.64
802.53	233.61
802.85	233.64
803.17	233.62
803.49	233.62
803.81	233.60
804.13	233.57
804.45	233.58
804.77	233.62
805.09	233.59
805.41	233.66
805.73	233.63
806.05	233.56
806.37	233.54
806.69	233.43
807.01	233.30
807.33	233.28
807.65	233.21
807.97	233.29
808.28	233.27
808.60	233.12
808.92	233.08
809.24	233.14
809.56	233.15
809.88	233.00
810.20	232.99
810.52	233.11
810.84	233.17
811.16	233.06
811.48	232.89
811.80	232.97
812.12	232.89
812.43	232.91
812.75	232.96
813.07	232.96
813.39	232.96
813.71	233.02
814.03	232.94
814.35	232.93
814.67	232.87
814.98	232.80
815.30	232.92
815.62	232.87
815.94	232.79
816.26	232.74
816.58	232.62
816.89	232.49
817.21	232.30
817.53	232.17
817.85	232.12
818.17	232.23
818.48	232.12
818.80	232.18
819.12	232.06
819.44	231.95
819.76	231.91
820.07	231.90
820.39	231.83
820.71	231.82
821.03	231.70
821.34	231.53
821.66	231.56
821.98	231.37
822.30	231.24
822.61	231.20
822.93	231.04
823.25	231.04
823.57	231.06
823.88	231.01
824.20	231.07
824.52	231.08
824.83	230.97
825.15	230.82
825.47	230.71
825.79	230.64
826.10	230.56
826.42	230.43
826.74	230.27
827.05	230.17
827.37	230.02
827.69	229.92
828.00	229.92
828.32	229.82
828.64	229.86
828.95	229.99
829.27	229.84
829.58	229.86
829.90	229.85
830.22	229.71
830.53	229.65
830.85	229.44
831.17	229.39
831.48	229.37
831.80	229.38
832.11	229.32
832.43	229.24
832.75	229.24
833.06	229.39
833.38	229.40
833.69	229.40
834.01	229.46
834.32	229.43
834.64	229.39
834.96	229.45
835.27	229.45
835.59	229.37
835.90	229.37
836.22	229.32
836.53	229.39
836.85	229.45
837.16	229.57
837.48	229.66
837.79	229.71
838.11	229.75
838.42	229.80
838.74	229.84
839.05	229.92
839.37	229.96
839.68	229.90
840.00	229.92
840.31	229.94
840.63	229.98
840.94	230.09
841.26	230.03
841.57	229.98
841.88	229.95
842.20	229.93
842.51	229.89
842.83	229.93
843.14	230.04
843.46	230.00
843.77	229.98
844.08	229.93
844.40	229.89
844.71	229.82
845.03	229.80
845.34	229.80
845.65	229.88
845.97	229.87
846.28	229.78
846.60	229.85
846.91	229.88
847.22	229.86
847.54	229.82
847.85	229.91
848.16	230.04
848.48	230.10
848.79	230.22
849.10	230.42
849.42	230.52
849.73	230.39
850.04	230.44
850.36	230.47
850.67	230.51
850.98	230.44
851.30	230.46
851.61	230.48
851.92	230.48
852.23	230.48
852.55	230.55
852.86	230.56
853.17	230.49
853.49	230.45
853.80	230.52
854.11	230.52
854.42	230.50
854.74	230.43
855.05	230.33
855.36	230.25
855.67	230.17
855.99	230.06
856.30	230.24
856.61	230.22
856.92	230.11
857.23	230.12
857.55	230.15
857.86	230.10
858.17	230.17
858.48	230.03
858.79	229.95
859.11	229.83
859.42	229.92
859.73	229.94
860.04	229.91
860.35	229.68
860.66	229.59
860.98	229.57
861.29	229.50
861.60	229.45
861.91	229.42
862.22	229.33
862.53	229.26
862.84	228.93
863.16	228.99
863.47	228.92
863.78	228.87
864.09	228.87
864.40	228.90
864.71	228.73
865.02	228.80
865.33	228.64
865.64	228.65
865.95	228.49
866.27	228.53
866.58	228.48
866.89	228.57
867.20	228.58
867.51	228.48
867.82	228.40
868.13	228.47
868.44	228.33
868.75	228.34
869.06	228.34
869.37	228.39
869.68	228.28
869.99	228.37
870.30	228.32
870.61	228.27
870.92	228.28
871.23	228.29
871.54	228.26
871.85	228.36
872.16	228.31
872.47	228.33
872.78	228.20
873.09	228.28
873.40	228.17
873.71	228.16
874.02	228.27
874.33	228.32
874.64	228.30
874.95	228.44
875.26	228.43
875.56	228.38
875.87	228.37
876.18	228.42
876.49	228.45
876.80	228.45
877.11	228.47
877.42	228.39
877.73	228.43
878.04	228.47
878.35	228.44
878.66	228.41
878.96	228.36
879.27	228.44
879.58	228.46
879.89	228.56
880.20	228.77
880.51	228.69
880.82	228.72
881.12	228.74
881.43	228.63
881.74	228.69
882.05	228.82
882.36	228.91
882.67	228.94
882.97	228.85
883.28	228.95
883.59	229.01
883.90	229.08
884.21	229.18
884.51	229.28
884.82	229.44
885.13	229.58
885.44	229.73
885.74	229.74
886.05	229.78
886.36	229.85
886.67	229.74
886.98	229.90
887.28	229.95
887.59	230.05
887.90	230.18
888.20	230.18
888.51	230.23
888.82	230.22
889.13	230.27
889.43	230.56
889.74	230.56
890.05	230.61
890.35	230.63
890.66	230.51
890.97	230.48
891.28	230.35
891.58	230.34
891.89	230.33
892.20	230.31
892.50	230.22
892.81	230.21
893.12	230.18
893.42	230.06
893.73	230.09
894.04	230.00
894.34	229.88
894.65	229.94
894.95	229.86
895.26	229.82
895.57	229.83
895.87	229.66
896.18	229.58
896.48	229.50
896.79	229.50
897.10	229.59
897.40	229.54
897.71	229.51
898.01	229.48
898.32	229.42
898.63	229.43
898.93	229.45
899.24	229.42
899.54	229.31
899.85	229.31
900.15	229.27
900.46	229.26
900.76	229.33
901.07	229.14
901.38	229.18
901.68	229.27
901.99	229.09
902.29	228.97
902.60	228.94
902.90	228.83
903.21	228.80
903.51	228.64
903.82	228.63
904.12	228.64
904.43	228.50
904.73	228.45
905.03	228.29
905.34	228.40
905.64	228.35
905.95	228.41
906.25	228.32
906.56	228.22
906.86	228.18
907.17	228.12
907.47	228.16
907.77	228.10
908.08	227.96
908.38	227.95
908.69	227.90
908.99	227.84
909.30	227.89
909.60	227.84
909.90	227.89
910.21	227.77
910.51	227.72
910.81	227.72
911.12	227.70
911.42	227.76
911.73	227.56
912.03	227.49
912.33	227.46
912.64	227.52
912.94	227.52
913.24	227.47
913.55	227.36
913.85	227.29
914.15	227.29
914.46	227.25
914.76	227.24
915.06	227.27
915.37	227.36
915.67	227.34
915.97	227.34
916.27	227.41
916.58	227.51
916.88	227.37
917.18	227.47
917.49	227.63
917.79	227.63
918.09	227.65
918.39	227.83
918.70	227.79
919.00	227.77
919.30	227.90
919.60	227.92
919.91	228.02
920.21	228.24
920.51	228.23
920.81	228.34
921.12	228.49
921.42	228.46
921.72	228.56
922.02	228.62
922.32	228.64
922.63	228.70
922.93	228.85
923.23	229.06
923.53	229.00
923.83	228.90
924.13	228.97
924.44	229.05
924.74	229.08
925.04	229.31
925.34	229.37
925.64	229.27
925.94	229.30
926.24	229.49
926.55	229.50
926.85	229.48
927.15	229.51
927.45	229.53
927.75	229.60
928.05	229.59
928.35	229.70
928.65	229.88
928.95	229.83
929.26	229.79
929.56	229.85
929.86	229.90
930.16	229.99
930.46	230.09
930.76	230.16
931.06	230.08
931.36	229.98
931.66	229.98
931.96	230.06
932.26	230.13
932.56	230.03
932.86	229.98
933.16	230.03
933.46	229.95
933.76	229.86
934.06	229.90
934.36	229.93
934.66	229.74
934.96	229.60
935.26	229.59
935.56	229.53
935.86	229.52
936.16	229.49
936.46	229.28
936.76	229.15
937.06	229.12
937.36	229.11
937.66	229.06
937.96	229.03
938.26	228.88
938.56	228.82
938.86	228.80
939.16	228.61
939.46	228.57
939.76	228.60
940.06	228.57
940.35	228.50
940.65	228.40
940.95	228.41
941.25	228.27
941.55	228.11
941.85	228.04
942.15	228.01
942.45	228.02
942.75	228.10
943.04	228.09
943.34	228.04
943.64	227.90
943.94	227.89
944.24	227.91
944.54	227.89
944.84	227.81
945.13	227.77
945.43	227.82
945.73	227.77
946.03	227.56
946.33	227.52
946.62	227.43
946.92	227.34
947.22	227.28
947.52	227.33
947.82	227.32
948.11	227.24
948.41	227.17
948.71	227.10
949.01	227.07
949.31	226.97
949.60	226.89
949.90	227.01
950.20	226.96
950.50	226.91
950.79	226.97
951.09	226.93
951.39	226.83
951.69	226.81
951.98	226.85
952.28	226.95
952.58	227.01
952.87	226.96
953.17	226.90
953.47	226.97
953.76	226.95
954.06	227.10
954.36	227.16
954.66	227.13
954.95	227.31
955.25	227.40
955.55	227.47
955.84	227.55
956.14	227.58
956.44	227.64
956.73	227.65
957.03	227.70
957.32	227.76
957.62	227.83
957.92	227.92
958.21	227.92
958.51	228.25
958.81	228.39
959.10	228.49
959.40	228.66
959.69	228.76
959.99	228.91
960.29	228.89
960.58	228.94
960.88	229.11
961.17	229.07
961.47	229.04
961.76	229.12
962.06	229.25
962.36	229.20
962.65	229.28
962.95	229.36
963.24	229.50
963.54	229.56
963.83	229.66
964.13	229.71
964.42	229.79
964.72	229.73
965.01	229.64
965.31	229.74
965.60	229.82
965.90	229.97
966.19	229.93
966.49	230.01
966.78	230.10
967.08	230.12
967.37	230.16
967.67	230.25
967.96	230.31
968.26	230.20
968.55	230.28
968.85	230.22
969.14	230.21
969.43	230.14
969.73	230.18
970.02	230.09
970.32	230.10
970.61	230.01
970.91	229.96
971.20	229.95
971.49	230.00
971.79	229.93
972.08	229.78
972.38	229.77
972.67	229.69
972.96	229.58
973.26	229.46
973.55	229.56
973.85	229.49
974.14	229.44
974.43	229.46
974.73	229.36
975.02	229.30
975.31	229.26
975.61	229.22
975.90	229.09
976.19	229.07
976.49	228.97
976.78	228.94
977.07	228.81
977.37	228.82
977.66	228.70
977.95	228.60
978.24	228.50
978.54	228.52
978.83	228.49
979.12	228.41
979.42	228.43
979.71	228.25
980.00	228.10
980.29	227.97
980.59	227.77
980.88	227.78
981.17	227.71
981.46	227.60
981.76	227.47
982.05	227.54
982.34	227.48
982.63	227.50
982.93	227.54
983.22	227.57
983.51	227.48
983.80	227.47
984.09	227.42
984.39	227.46
984.68	227.30
984.97	227.29
985.26	227.27
985.55	227.20
985.85	227.09
986.14	227.11
986.43	227.14
986.72	227.08
987.01	226.94
987.30	227.02
987.59	226.99
987.89	226.99
988.18	226.83
988.47	226.96
988.76	226.89
989.05	226.80
989.34	226.81
989.63	226.88
989.92	226.79
990.22	226.80
990.51	226.68
990.80	226.72
991.09	226.75
991.38	226.88
991.67	226.85
991.96	226.89
992.25	227.01
992.54	227.00
992.83	227.07
993.12	227.16
993.41	227.08
993.70	227.26
993.99	227.37
994.28	227.53
994.58	227.51
994.87	227.57
995.16	227.64
995.45	227.53
995.74	227.48
996.03	227.60
996.32	227.82
996.61	227.95
996.90	228.11
997.19	228.13
997.48	228.16
997.77	228.24
998.06	228.42
998.34	228.58
998.63	228.65
998.92	228.80
999.21	228.92
999.50	229.12
999.79	229.08
1000.08	229.18
1000.37	229.23
1000.66	229.18
1000.95	229.34
1001.24	229.39
1001.53	229.48
1001.82	229.58
1002.11	229.67
1002.40	229.63
1002.68	229.80
1002.97	229.90
1003.26	229.99
1003.55	230.00
1003.84	230.03
1004.13	230.07
1004.42	229.99
1004.71	230.06
1004.99	230.10
1005.28	230.23
1005.57	230.19
1005.86	230.20
1006.15	230.12
1006.44	230.13
1006.72	230.24
1007.01	230.04
1007.30	230.05
1007.59	230.11
1007.88	230.09
1008.17	230.05
1008.45	229.96
1008.74	229.82
1009.03	229.72
1009.32	229.66
1009.60	229.58
1009.89	229.58
1010.18	229.41
1010.47	229.27
1010.76	229.23
1011.04	229.15
1011.33	229.02
1011.62	229.06
1011.91	229.03
1012.19	229.06
1012.48	228.94
1012.77	228.83
1013.05	229.00
1013.34	228.91
1013.63	228.90
1013.92	228.86
1014.20	228.71
1014.49	228.74
1014.78	228.74
1015.06	228.57
1015.35	228.48
1015.64	228.46
1015.92	228.40
1016.21	228.36
1016.50	228.36
1016.78	228.28
1017.07	228.19
1017.36	228.01
1017.64	227.90
1017.93	227.87
1018.22	227.82
1018.50	227.75
1018.79	227.79
1019.08	227.68
1019.36	227.64
1019.65	227.51
1019.93	227.54
1020.22	227.64
1020.51	227.60
1020.79	227.50
1021.08	228.70
1021.36	226.20
1021.65	228.00
1021.94	228.10
1022.22	226.70
1022.51	226.80
1022.79	229.20
1023.08	228.30
1023.36	228.50
1023.65	226.90
>>>>>End Processed Spectral Data<<<<<
