SpectraSuite Data File
++++++++++++++++++++++++++++++++++++
Date: Fri Feb 01 14:41:38 EST 2013
User: group
Dark Spectrum Present: No
Reference Spectrum Present: No
Number of Sampled Component Spectra: 1
Spectrometers: USB2E7196
Integration Time (usec): 70000 (USB2E7196)
Spectra Averaged: 10 (USB2E7196)
Boxcar Smoothing: 10 (USB2E7196)
Correct for Electrical Dark: No (USB2E7196)
Strobe/Lamp Enabled: No (USB2E7196)
Correct for Detector Non-linearity: No (USB2E7196)
Correct for Stray Light: No (USB2E7196)
Number of Pixels in Processed Spectrum: 2048
>>>>>Begin Processed Spectral Data<<<<<
339.09	0.00
339.48	216.90
339.86	218.50
340.24	219.30
340.63	220.90
341.01	225.70
341.39	224.30
341.78	225.60
342.16	226.10
342.54	227.80
342.93	215.28
343.31	226.06
343.69	226.61
344.07	227.14
344.46	227.60
344.84	227.99
345.22	228.15
345.60	228.34
345.99	228.49
346.37	228.61
346.75	228.58
347.13	228.62
347.52	228.78
347.90	228.77
348.28	228.80
348.66	228.88
349.05	228.85
349.43	228.87
349.81	228.94
350.19	229.06
350.57	229.19
350.96	229.17
351.34	229.41
351.72	229.51
352.10	229.53
352.48	229.56
352.87	229.58
353.25	229.66
353.63	229.84
354.01	229.92
354.39	230.06
354.77	230.21
355.15	230.30
355.54	230.27
355.92	230.32
356.30	230.30
356.68	230.45
357.06	230.47
357.44	230.55
357.82	230.63
358.20	230.68
358.58	230.67
358.97	230.77
359.35	230.82
359.73	230.81
360.11	230.90
360.49	230.95
360.87	231.08
361.25	231.12
361.63	231.10
362.01	231.16
362.39	231.08
362.77	231.07
363.15	231.10
363.53	231.20
363.91	231.25
364.29	231.24
364.67	231.13
365.05	231.23
365.43	231.28
365.81	231.33
366.19	231.35
366.57	231.46
366.95	231.49
367.33	231.33
367.71	231.38
368.09	231.38
368.47	231.42
368.85	231.36
369.23	231.35
369.61	231.28
369.99	231.32
370.37	231.33
370.75	231.47
371.13	231.33
371.51	231.19
371.89	231.12
372.27	231.15
372.65	231.12
373.03	230.97
373.41	230.88
373.78	230.75
374.16	230.69
374.54	230.61
374.92	230.50
375.30	230.45
375.68	230.25
376.06	230.17
376.44	229.98
376.82	229.87
377.19	229.72
377.57	229.65
377.95	229.51
378.33	229.38
378.71	229.14
379.09	229.13
379.47	229.12
379.84	229.00
380.22	228.80
380.60	228.65
380.98	228.60
381.36	228.45
381.73	228.37
382.11	228.31
382.49	228.26
382.87	228.15
383.25	228.07
383.62	228.25
384.00	228.07
384.38	228.10
384.76	228.12
385.13	228.11
385.51	227.98
385.89	227.88
386.27	227.99
386.64	227.99
387.02	227.99
387.40	227.86
387.78	227.83
388.15	227.78
388.53	227.76
388.91	227.68
389.29	227.70
389.66	227.70
390.04	227.64
390.42	227.55
390.79	227.67
391.17	227.69
391.55	227.59
391.92	227.58
392.30	227.55
392.68	227.57
393.05	227.58
393.43	227.69
393.81	227.65
394.18	227.54
394.56	227.56
394.94	227.55
395.31	227.62
395.69	227.76
396.06	227.97
396.44	227.99
396.82	228.08
397.19	228.29
397.57	228.40
397.95	228.54
398.32	228.54
398.70	228.53
399.07	228.70
399.45	228.71
399.82	228.91
400.20	228.98
400.58	229.10
400.95	229.15
401.33	229.23
401.70	229.47
402.08	229.47
402.45	229.62
402.83	229.78
403.20	229.94
403.58	230.03
403.95	230.14
404.33	230.36
404.71	230.55
405.08	230.81
405.46	230.90
405.83	231.03
406.21	231.19
406.58	231.48
406.96	231.77
407.33	231.95
407.70	232.16
408.08	232.56
408.45	232.78
408.83	233.15
409.20	233.43
409.58	233.73
409.95	234.18
410.33	234.47
410.70	234.75
411.08	235.06
411.45	235.51
411.82	235.95
412.20	236.46
412.57	236.95
412.95	237.21
413.32	237.74
413.69	238.30
414.07	239.00
414.44	239.52
414.82	240.15
415.19	240.84
415.56	241.58
415.94	242.34
416.31	243.21
416.68	244.11
417.06	245.15
417.43	245.99
417.81	246.97
418.18	248.00
418.55	249.16
418.93	250.32
419.30	251.42
419.67	252.59
420.04	253.80
420.42	255.21
420.79	256.84
421.16	258.34
421.54	259.93
421.91	261.56
422.28	263.26
422.66	264.90
423.03	266.82
423.40	268.51
423.77	270.39
424.15	272.19
424.52	274.20
424.89	276.36
425.26	278.41
425.64	280.36
426.01	282.55
426.38	284.80
426.75	287.18
427.13	289.54
427.50	292.12
427.87	294.74
428.24	297.22
428.61	299.58
428.99	302.31
429.36	305.10
429.73	307.80
430.10	310.47
430.47	313.17
430.85	315.82
431.22	318.95
431.59	322.22
431.96	325.26
432.33	328.44
432.70	331.53
433.08	335.35
433.45	338.89
433.82	342.32
434.19	346.16
434.56	349.81
434.93	353.31
435.30	356.85
435.68	360.67
436.05	364.47
436.42	368.20
436.79	371.38
437.16	374.80
437.53	378.43
437.90	382.28
438.27	386.11
438.64	389.98
439.01	393.54
439.38	396.35
439.75	399.24
440.13	402.50
440.50	405.64
440.87	408.10
441.24	410.83
441.61	413.60
441.98	415.46
442.35	418.01
442.72	420.55
443.09	422.76
443.46	424.07
443.83	424.72
444.20	425.31
444.57	426.55
444.94	427.08
445.31	427.66
445.68	428.07
446.05	427.97
446.42	427.43
446.79	426.62
447.16	426.03
447.53	425.65
447.90	424.06
448.27	422.46
448.64	420.25
449.01	418.59
449.37	416.16
449.74	413.59
450.11	410.39
450.48	406.93
450.85	403.50
451.22	400.58
451.59	397.89
451.96	395.20
452.33	391.72
452.70	388.47
453.07	384.65
453.43	380.72
453.80	377.13
454.17	373.58
454.54	370.19
454.91	366.52
455.28	362.79
455.65	359.50
456.02	356.26
456.38	353.27
456.75	349.65
457.12	346.45
457.49	343.57
457.86	340.74
458.23	338.32
458.59	335.61
458.96	332.68
459.33	330.10
459.70	327.59
460.07	325.55
460.43	323.34
460.80	321.10
461.17	319.16
461.54	317.11
461.91	314.99
462.27	313.04
462.64	311.28
463.01	309.44
463.38	307.70
463.74	305.74
464.11	304.19
464.48	302.88
464.85	301.47
465.21	300.15
465.58	298.84
465.95	297.37
466.32	296.12
466.68	294.87
467.05	293.73
467.42	292.50
467.78	291.13
468.15	289.83
468.52	288.94
468.88	287.71
469.25	286.48
469.62	285.67
469.98	284.78
470.35	283.93
470.72	283.13
471.08	282.25
471.45	281.54
471.82	280.81
472.18	279.95
472.55	279.30
472.92	278.55
473.28	277.88
473.65	277.13
474.02	276.43
474.38	276.00
474.75	275.46
475.11	274.90
475.48	274.52
475.85	274.17
476.21	273.90
476.58	273.50
476.94	273.27
477.31	272.95
477.67	272.57
478.04	272.28
478.41	272.11
478.77	272.05
479.14	271.89
479.50	271.71
479.87	271.61
480.23	271.49
480.60	271.42
480.96	271.30
481.33	271.48
481.69	271.59
482.06	271.66
482.42	271.91
482.79	272.05
483.15	272.19
483.52	272.40
483.88	272.50
484.25	272.83
484.61	273.23
484.98	273.59
485.34	274.08
485.71	274.78
486.07	275.25
486.44	275.64
486.80	276.23
487.17	276.97
487.53	277.80
487.90	278.66
488.26	279.57
488.62	280.64
488.99	281.60
489.35	282.60
489.72	283.71
490.08	284.73
490.44	286.01
490.81	287.33
491.17	288.82
491.54	290.35
491.90	291.90
492.26	293.56
492.63	295.39
492.99	297.24
493.36	299.03
493.72	301.14
494.08	303.35
494.45	305.68
494.81	308.16
495.17	310.75
495.54	313.50
495.90	316.38
496.26	319.30
496.63	322.46
496.99	325.79
497.35	329.17
497.72	332.81
498.08	336.61
498.44	340.72
498.80	344.92
499.17	349.26
499.53	353.83
499.89	358.55
500.26	363.40
500.62	368.42
500.98	373.76
501.34	379.23
501.71	385.10
502.07	391.04
502.43	397.27
502.79	403.69
503.16	410.29
503.52	417.25
503.88	424.57
504.24	432.07
504.60	439.87
504.97	448.11
505.33	456.45
505.69	465.34
506.05	474.20
506.41	483.21
506.78	492.66
507.14	502.36
507.50	512.41
507.86	522.72
508.22	533.43
508.59	544.29
508.95	555.63
509.31	567.19
509.67	579.14
510.03	591.31
510.39	603.91
510.75	616.87
511.12	629.83
511.48	642.86
511.84	656.48
512.20	670.21
512.56	684.64
512.92	699.28
513.28	714.00
513.64	729.20
514.00	744.59
514.37	760.24
514.73	776.16
515.09	792.09
515.45	808.63
515.81	825.25
516.17	842.56
516.53	859.92
516.89	877.27
517.25	894.73
517.61	912.76
517.97	930.31
518.33	948.23
518.69	966.81
519.05	985.89
519.41	1004.86
519.77	1024.39
520.13	1043.68
520.49	1063.22
520.85	1082.93
521.21	1102.58
521.57	1123.24
521.93	1143.42
522.29	1164.10
522.65	1184.44
523.01	1204.79
523.37	1225.29
523.73	1246.00
524.09	1266.88
524.45	1287.71
524.81	1309.06
525.17	1330.32
525.53	1352.21
525.89	1373.65
526.25	1395.53
526.61	1417.02
526.97	1438.80
527.33	1460.33
527.68	1482.05
528.04	1503.56
528.40	1525.50
528.76	1547.67
529.12	1569.34
529.48	1591.46
529.84	1612.78
530.20	1635.24
530.56	1658.13
530.91	1681.50
531.27	1703.81
531.63	1725.77
531.99	1747.92
532.35	1769.33
532.71	1790.27
533.07	1812.17
533.42	1834.05
533.78	1855.41
534.14	1876.78
534.50	1897.39
534.86	1918.24
535.21	1938.63
535.57	1960.08
535.93	1981.11
536.29	2002.12
536.65	2022.56
537.00	2042.50
537.36	2063.22
537.72	2082.94
538.08	2102.12
538.44	2120.18
538.79	2139.15
539.15	2157.17
539.51	2176.42
539.87	2195.49
540.22	2214.72
540.58	2233.30
540.94	2251.44
541.29	2268.90
541.65	2286.50
542.01	2304.56
542.37	2322.30
542.72	2340.01
543.08	2356.92
543.44	2373.21
543.79	2388.20
544.15	2404.03
544.51	2420.76
544.87	2436.50
545.22	2452.13
545.58	2466.60
545.94	2481.03
546.29	2495.22
546.65	2510.24
547.01	2524.04
547.36	2537.34
547.72	2550.41
548.07	2563.18
548.43	2576.00
548.79	2588.68
549.14	2600.70
549.50	2612.36
549.86	2623.44
550.21	2634.00
550.57	2644.77
550.92	2655.75
551.28	2666.04
551.64	2676.69
551.99	2686.30
552.35	2695.66
552.70	2705.42
553.06	2716.19
553.41	2726.13
553.77	2735.30
554.13	2744.79
554.48	2753.82
554.84	2762.18
555.19	2770.57
555.55	2778.77
555.90	2786.07
556.26	2793.53
556.61	2801.30
556.97	2808.60
557.32	2815.82
557.68	2823.60
558.03	2830.77
558.39	2837.19
558.74	2845.55
559.10	2851.80
559.45	2858.38
559.81	2866.16
560.16	2871.73
560.52	2876.84
560.87	2883.28
561.23	2888.58
561.58	2893.62
561.94	2898.18
562.29	2903.07
562.64	2907.25
563.00	2911.37
563.35	2916.94
563.71	2922.26
564.06	2927.08
564.42	2931.56
564.77	2936.09
565.12	2939.97
565.48	2943.71
565.83	2946.80
566.19	2949.03
566.54	2951.34
566.89	2953.24
567.25	2954.53
567.60	2957.58
567.96	2959.77
568.31	2960.83
568.66	2962.21
569.02	2963.96
569.37	2964.81
569.72	2965.94
570.08	2966.61
570.43	2967.11
570.78	2966.58
571.14	2965.59
571.49	2964.65
571.84	2964.91
572.20	2963.81
572.55	2961.99
572.90	2959.93
573.26	2959.07
573.61	2957.40
573.96	2956.11
574.31	2952.87
574.67	2948.79
575.02	2944.75
575.37	2941.65
575.72	2937.28
576.08	2934.15
576.43	2929.52
576.78	2925.97
577.13	2922.42
577.49	2918.93
577.84	2914.43
578.19	2909.79
578.54	2905.08
578.90	2899.21
579.25	2892.23
579.60	2886.42
579.95	2880.65
580.30	2874.23
580.66	2867.47
581.01	2860.83
581.36	2854.38
581.71	2849.51
582.06	2844.23
582.42	2837.44
582.77	2830.57
583.12	2824.58
583.47	2818.05
583.82	2811.76
584.17	2804.40
584.53	2797.93
584.88	2790.60
585.23	2783.83
585.58	2777.30
585.93	2770.75
586.28	2764.90
586.63	2758.77
586.98	2752.36
587.34	2746.17
587.69	2739.94
588.04	2733.17
588.39	2726.86
588.74	2718.23
589.09	2709.72
589.44	2701.74
589.79	2694.87
590.14	2687.87
590.49	2680.43
590.84	2672.40
591.19	2664.47
591.54	2655.47
591.89	2645.16
592.25	2636.89
592.60	2627.20
592.95	2617.42
593.30	2608.12
593.65	2598.61
594.00	2589.15
594.35	2580.29
594.70	2570.21
595.05	2561.29
595.40	2551.50
595.75	2541.63
596.10	2533.54
596.45	2525.34
596.80	2516.93
597.15	2508.40
597.50	2498.62
597.85	2489.58
598.19	2481.13
598.54	2472.56
598.89	2465.23
599.24	2458.20
599.59	2449.61
599.94	2441.97
600.29	2433.70
600.64	2424.79
600.99	2414.84
601.34	2406.26
601.69	2396.52
602.04	2387.81
602.39	2378.64
602.74	2370.84
603.08	2362.89
603.43	2354.52
603.78	2346.07
604.13	2336.92
604.48	2327.43
604.83	2318.56
605.18	2309.39
605.53	2299.13
605.87	2288.64
606.22	2278.93
606.57	2268.72
606.92	2259.05
607.27	2249.62
607.62	2240.60
607.96	2231.32
608.31	2223.01
608.66	2212.36
609.01	2202.46
609.36	2191.98
609.70	2180.55
610.05	2169.16
610.40	2158.59
610.75	2147.27
611.10	2136.27
611.44	2124.78
611.79	2114.12
612.14	2103.09
612.49	2091.41
612.83	2080.44
613.18	2069.76
613.53	2058.54
613.88	2047.28
614.22	2036.38
614.57	2024.75
614.92	2013.42
615.27	2003.10
615.61	1992.24
615.96	1981.96
616.31	1971.70
616.65	1962.80
617.00	1953.40
617.35	1943.22
617.70	1932.13
618.04	1921.75
618.39	1911.29
618.74	1901.60
619.08	1890.91
619.43	1881.29
619.78	1872.20
620.12	1862.50
620.47	1852.71
620.82	1842.58
621.16	1832.94
621.51	1823.09
621.85	1813.18
622.20	1802.69
622.55	1792.03
622.89	1782.25
623.24	1772.69
623.59	1763.08
623.93	1752.85
624.28	1742.87
624.62	1732.85
624.97	1723.23
625.32	1714.00
625.66	1704.33
626.01	1694.70
626.35	1685.45
626.70	1675.32
627.04	1665.90
627.39	1656.23
627.73	1646.35
628.08	1637.09
628.43	1627.18
628.77	1617.73
629.12	1607.92
629.46	1598.60
629.81	1588.22
630.15	1577.87
630.50	1567.71
630.84	1556.89
631.19	1545.93
631.53	1535.98
631.88	1526.20
632.22	1515.85
632.57	1506.10
632.91	1495.84
633.26	1485.71
633.60	1475.37
633.95	1465.48
634.29	1455.76
634.64	1446.13
634.98	1436.36
635.32	1426.83
635.67	1418.22
636.01	1408.89
636.36	1399.83
636.70	1390.90
637.05	1382.72
637.39	1374.11
637.73	1365.88
638.08	1358.58
638.42	1350.48
638.77	1341.92
639.11	1333.06
639.45	1324.82
639.80	1315.80
640.14	1307.62
640.49	1299.33
640.83	1290.83
641.17	1282.33
641.52	1273.65
641.86	1265.19
642.20	1257.13
642.55	1248.77
642.89	1240.65
643.23	1232.08
643.58	1224.06
643.92	1215.38
644.26	1206.98
644.61	1199.33
644.95	1190.61
645.29	1181.31
645.64	1172.83
645.98	1164.57
646.32	1156.66
646.66	1148.63
647.01	1140.62
647.35	1132.66
647.69	1124.55
648.04	1117.18
648.38	1109.03
648.72	1100.37
649.06	1092.17
649.41	1084.07
649.75	1075.67
650.09	1066.96
650.43	1058.75
650.78	1050.39
651.12	1042.63
651.46	1034.79
651.80	1026.46
652.14	1019.06
652.49	1011.32
652.83	1003.70
653.17	996.03
653.51	988.10
653.85	980.21
654.20	972.67
654.54	964.63
654.88	957.02
655.22	948.99
655.56	941.58
655.90	934.57
656.25	927.29
656.59	920.13
656.93	913.41
657.27	906.52
657.61	899.26
657.95	892.65
658.29	885.60
658.64	878.42
658.98	871.24
659.32	864.03
659.66	857.21
660.00	850.40
660.34	843.65
660.68	837.35
661.02	830.65
661.36	824.14
661.70	818.09
662.05	812.00
662.39	806.11
662.73	799.98
663.07	794.09
663.41	788.44
663.75	782.60
664.09	776.55
664.43	770.62
664.77	765.30
665.11	759.86
665.45	754.46
665.79	749.11
666.13	743.69
666.47	738.02
666.81	732.60
667.15	727.01
667.49	721.30
667.83	716.14
668.17	710.96
668.51	705.40
668.85	699.90
669.19	694.65
669.53	689.54
669.87	684.60
670.21	679.44
670.55	674.33
670.89	669.58
671.23	665.06
671.57	660.22
671.91	655.53
672.25	650.40
672.58	645.68
672.92	641.03
673.26	636.72
673.60	632.52
673.94	628.24
674.28	624.40
674.62	620.87
674.96	616.57
675.30	612.52
675.64	608.68
675.97	604.80
676.31	600.90
676.65	596.81
676.99	593.11
677.33	589.28
677.67	585.33
678.01	581.10
678.34	577.02
678.68	573.37
679.02	569.48
679.36	565.97
679.70	562.36
680.04	558.62
680.37	554.93
680.71	551.40
681.05	548.02
681.39	544.54
681.73	540.92
682.06	537.69
682.40	534.50
682.74	531.12
683.08	527.81
683.42	524.49
683.75	521.43
684.09	517.69
684.43	514.50
684.77	511.37
685.10	508.31
685.44	505.17
685.78	501.94
686.12	498.88
686.45	495.68
686.79	492.49
687.13	489.63
687.46	486.49
687.80	483.43
688.14	480.38
688.48	477.50
688.81	474.40
689.15	471.52
689.49	468.55
689.82	466.00
690.16	463.14
690.50	460.43
690.83	457.58
691.17	455.23
691.51	452.53
691.84	449.99
692.18	447.37
692.52	444.61
692.85	442.16
693.19	439.44
693.52	436.95
693.86	434.64
694.20	432.08
694.53	429.65
694.87	427.27
695.21	424.78
695.54	422.16
695.88	419.83
696.21	417.40
696.55	415.04
696.88	412.48
697.22	410.25
697.56	408.18
697.89	405.84
698.23	403.58
698.56	401.45
698.90	399.34
699.23	397.26
699.57	395.17
699.90	392.93
700.24	390.97
700.58	388.91
700.91	386.87
701.25	385.06
701.58	383.19
701.92	381.36
702.25	379.49
702.59	377.71
702.92	375.90
703.26	374.14
703.59	372.43
703.93	370.87
704.26	369.17
704.60	367.32
704.93	365.72
705.26	364.02
705.60	362.48
705.93	360.91
706.27	359.39
706.60	358.08
706.94	356.68
707.27	354.97
707.61	353.40
707.94	351.90
708.27	350.33
708.61	348.88
708.94	347.51
709.28	346.17
709.61	344.80
709.94	343.48
710.28	342.16
710.61	340.96
710.95	339.53
711.28	338.23
711.61	336.87
711.95	335.62
712.28	334.22
712.61	332.76
712.95	331.45
713.28	330.23
713.61	328.83
713.95	327.58
714.28	326.56
714.61	325.45
714.95	324.35
715.28	323.08
715.61	321.84
715.95	320.70
716.28	319.61
716.61	318.43
716.95	317.30
717.28	316.08
717.61	314.82
717.94	313.78
718.28	312.57
718.61	311.48
718.94	310.30
719.27	309.54
719.61	308.67
719.94	307.68
720.27	306.64
720.60	305.69
720.94	304.72
721.27	303.77
721.60	302.94
721.93	302.05
722.27	301.31
722.60	300.52
722.93	299.57
723.26	298.71
723.59	297.88
723.93	297.05
724.26	296.38
724.59	295.59
724.92	294.80
725.25	294.12
725.59	293.34
725.92	292.83
726.25	292.06
726.58	291.25
726.91	290.64
727.24	290.04
727.57	289.49
727.91	288.79
728.24	288.16
728.57	287.43
728.90	286.67
729.23	285.92
729.56	285.30
729.89	284.60
730.22	283.87
730.55	283.20
730.89	282.70
731.22	282.07
731.55	281.61
731.88	280.97
732.21	280.37
732.54	279.77
732.87	279.05
733.20	278.36
733.53	277.87
733.86	277.29
734.19	276.63
734.52	275.99
734.85	275.57
735.18	275.00
735.51	274.43
735.84	273.98
736.17	273.38
736.50	272.87
736.83	272.62
737.16	272.16
737.49	271.70
737.82	271.13
738.15	270.53
738.48	269.95
738.81	269.51
739.14	269.08
739.47	268.58
739.80	268.18
740.13	267.77
740.46	267.34
740.79	266.75
741.12	266.39
741.45	265.96
741.78	265.44
742.11	265.04
742.44	264.58
742.77	264.19
743.10	263.92
743.43	263.50
743.75	262.81
744.08	262.67
744.41	262.23
744.74	261.81
745.07	261.47
745.40	261.15
745.73	260.78
746.06	260.42
746.39	260.18
746.71	259.71
747.04	259.31
747.37	258.91
747.70	258.61
748.03	258.24
748.36	257.98
748.68	257.69
749.01	257.30
749.34	257.00
749.67	256.56
750.00	256.22
750.33	256.01
750.65	255.73
750.98	255.18
751.31	254.95
751.64	254.69
751.97	254.49
752.29	254.14
752.62	253.84
752.95	253.47
753.28	253.17
753.60	252.86
753.93	252.69
754.26	252.39
754.59	252.01
754.91	251.77
755.24	251.40
755.57	251.11
755.90	250.84
756.22	250.62
756.55	250.39
756.88	250.01
757.20	249.66
757.53	249.36
757.86	249.07
758.19	248.79
758.51	248.43
758.84	248.11
759.17	247.83
759.49	247.62
759.82	247.54
760.15	247.30
760.47	247.15
760.80	246.80
761.13	246.55
761.45	246.30
761.78	246.03
762.11	245.86
762.43	245.61
762.76	245.45
763.08	245.14
763.41	244.92
763.74	244.84
764.06	244.64
764.39	244.50
764.71	244.36
765.04	244.22
765.37	244.10
765.69	243.86
766.02	243.70
766.34	243.47
766.67	243.16
767.00	242.99
767.32	242.88
767.65	242.95
767.97	242.78
768.30	242.72
768.62	242.61
768.95	242.28
769.27	242.15
769.60	241.99
769.92	241.88
770.25	241.71
770.57	241.47
770.90	241.20
771.22	240.97
771.55	240.73
771.87	240.50
772.20	240.30
772.52	240.29
772.85	240.39
773.17	240.28
773.50	240.16
773.82	240.07
774.15	239.86
774.47	239.52
774.80	239.37
775.12	239.12
775.45	238.89
775.77	238.83
776.09	238.67
776.42	238.57
776.74	238.48
777.07	238.39
777.39	238.27
777.72	238.14
778.04	238.06
778.36	237.97
778.69	237.91
779.01	237.75
779.33	237.48
779.66	237.05
779.98	236.92
780.31	236.84
780.63	236.72
780.95	236.54
781.28	236.42
781.60	236.34
781.92	236.32
782.25	236.25
782.57	236.28
782.89	236.16
783.22	236.06
783.54	236.00
783.86	235.82
784.19	235.77
784.51	235.76
784.83	235.67
785.16	235.60
785.48	235.40
785.80	235.47
786.12	235.51
786.45	235.57
786.77	235.40
787.09	235.26
787.42	235.08
787.74	235.11
788.06	235.12
788.38	235.10
788.71	235.03
789.03	234.93
789.35	234.87
789.67	234.77
789.99	234.59
790.32	234.52
790.64	234.61
790.96	234.69
791.28	234.57
791.61	234.54
791.93	234.53
792.25	234.60
792.57	234.64
792.89	234.50
793.21	234.38
793.54	234.38
793.86	234.38
794.18	234.45
794.50	234.40
794.82	234.28
795.14	234.17
795.47	234.14
795.79	234.05
796.11	233.90
796.43	233.87
796.75	233.92
797.07	233.82
797.39	233.68
797.71	233.46
798.04	233.41
798.36	233.40
798.68	233.42
799.00	233.40
799.32	233.28
799.64	233.29
799.96	233.24
800.28	233.20
800.60	233.14
800.92	233.05
801.24	233.00
801.56	233.08
801.89	233.13
802.21	233.05
802.53	233.02
802.85	233.08
803.17	233.21
803.49	233.11
803.81	233.08
804.13	233.09
804.45	233.10
804.77	233.13
805.09	233.13
805.41	232.92
805.73	232.84
806.05	232.77
806.37	232.70
806.69	232.67
807.01	232.69
807.33	232.72
807.65	232.69
807.97	232.67
808.28	232.58
808.60	232.48
808.92	232.53
809.24	232.57
809.56	232.48
809.88	232.35
810.20	232.34
810.52	232.34
810.84	232.29
811.16	232.27
811.48	232.27
811.80	232.19
812.12	232.20
812.43	232.16
812.75	232.08
813.07	232.09
813.39	232.12
813.71	232.05
814.03	232.01
814.35	232.02
814.67	231.97
814.98	231.86
815.30	231.76
815.62	231.69
815.94	231.80
816.26	231.81
816.58	231.78
816.89	231.77
817.21	231.74
817.53	231.69
817.85	231.70
818.17	231.58
818.48	231.49
818.80	231.53
819.12	231.48
819.44	231.53
819.76	231.46
820.07	231.34
820.39	231.33
820.71	231.24
821.03	231.14
821.34	231.12
821.66	231.20
821.98	231.37
822.30	231.34
822.61	231.25
822.93	231.15
823.25	231.10
823.57	231.05
823.88	231.05
824.20	231.14
824.52	230.97
824.83	231.02
825.15	231.00
825.47	231.03
825.79	231.06
826.10	231.00
826.42	230.99
826.74	230.94
827.05	230.91
827.37	231.02
827.69	230.95
828.00	230.90
828.32	230.83
828.64	230.69
828.95	230.70
829.27	230.69
829.58	230.67
829.90	230.69
830.22	230.70
830.53	230.56
830.85	230.41
831.17	230.48
831.48	230.41
831.80	230.36
832.11	230.26
832.43	230.27
832.75	230.27
833.06	230.38
833.38	230.41
833.69	230.37
834.01	230.26
834.32	230.20
834.64	230.12
834.96	230.10
835.27	230.07
835.59	230.00
835.90	229.94
836.22	229.89
836.53	229.89
836.85	229.85
837.16	230.10
837.48	230.10
837.79	230.11
838.11	230.17
838.42	230.14
838.74	230.19
839.05	230.09
839.37	229.96
839.68	229.76
840.00	229.69
840.31	229.68
840.63	229.62
840.94	229.66
841.26	229.56
841.57	229.52
841.88	229.56
842.20	229.47
842.51	229.37
842.83	229.37
843.14	229.36
843.46	229.26
843.77	229.18
844.08	229.16
844.40	229.10
844.71	228.99
845.03	228.94
845.34	228.86
845.65	228.89
845.97	228.98
846.28	228.93
846.60	228.89
846.91	228.80
847.22	228.71
847.54	228.79
847.85	228.92
848.16	228.93
848.48	228.88
848.79	229.03
849.10	229.06
849.42	229.04
849.73	228.93
850.04	229.04
850.36	228.90
850.67	228.99
850.98	228.95
851.30	229.00
851.61	229.06
851.92	229.02
852.23	228.97
852.55	229.07
852.86	229.19
853.17	229.30
853.49	229.44
853.80	229.54
854.11	229.59
854.42	229.59
854.74	229.54
855.05	229.56
855.36	229.44
855.67	229.47
855.99	229.57
856.30	229.75
856.61	229.63
856.92	229.72
857.23	229.64
857.55	229.60
857.86	229.58
858.17	229.69
858.48	229.70
858.79	229.70
859.11	229.56
859.42	229.58
859.73	229.51
860.04	229.55
860.35	229.53
860.66	229.49
860.98	229.46
861.29	229.52
861.60	229.50
861.91	229.51
862.22	229.47
862.53	229.44
862.84	229.31
863.16	229.51
863.47	229.40
863.78	229.38
864.09	229.42
864.40	229.48
864.71	229.38
865.02	229.46
865.33	229.47
865.64	229.41
865.95	229.37
866.27	229.42
866.58	229.33
866.89	229.40
867.20	229.31
867.51	229.28
867.82	229.27
868.13	229.33
868.44	229.29
868.75	229.35
869.06	229.24
869.37	229.10
869.68	228.98
869.99	229.06
870.30	229.18
870.61	229.19
870.92	229.08
871.23	229.05
871.54	229.01
871.85	229.14
872.16	229.14
872.47	229.11
872.78	229.00
873.09	229.10
873.40	229.02
873.71	229.12
874.02	229.19
874.33	229.15
874.64	229.06
874.95	229.12
875.26	229.04
875.56	229.14
875.87	229.20
876.18	229.13
876.49	229.31
876.80	229.19
877.11	229.16
877.42	229.21
877.73	229.22
878.04	229.10
878.35	229.03
878.66	229.14
878.96	229.10
879.27	229.03
879.58	228.99
879.89	228.99
880.20	228.90
880.51	228.93
880.82	228.85
881.12	228.84
881.43	228.75
881.74	228.75
882.05	228.65
882.36	228.65
882.67	228.58
882.97	228.29
883.28	228.30
883.59	228.24
883.90	228.29
884.21	228.33
884.51	228.36
884.82	228.25
885.13	228.19
885.44	228.20
885.74	228.20
886.05	228.17
886.36	228.20
886.67	228.15
886.98	228.10
887.28	228.17
887.59	228.20
887.90	228.21
888.20	228.22
888.51	228.30
888.82	228.40
889.13	228.40
889.43	228.57
889.74	228.60
890.05	228.56
890.35	228.54
890.66	228.50
890.97	228.51
891.28	228.58
891.58	228.64
891.89	228.60
892.20	228.68
892.50	228.67
892.81	228.61
893.12	228.72
893.42	228.79
893.73	228.75
894.04	228.75
894.34	228.77
894.65	228.78
894.95	228.71
895.26	228.60
895.57	228.78
895.87	228.60
896.18	228.62
896.48	228.79
896.79	228.75
897.10	228.78
897.40	228.82
897.71	228.78
898.01	228.76
898.32	228.88
898.63	228.87
898.93	228.83
899.24	228.81
899.54	228.73
899.85	228.67
900.15	228.74
900.46	228.73
900.76	228.80
901.07	228.77
901.38	228.86
901.68	228.92
901.99	228.95
902.29	229.07
902.60	229.05
902.90	228.93
903.21	229.01
903.51	229.02
903.82	229.04
904.12	229.11
904.43	229.14
904.73	229.08
905.03	229.16
905.34	229.28
905.64	229.30
905.95	229.31
906.25	229.23
906.56	229.15
906.86	229.14
907.17	229.08
907.47	229.10
907.77	229.01
908.08	228.96
908.38	228.81
908.69	228.75
908.99	228.77
909.30	228.81
909.60	228.72
909.90	228.69
910.21	228.62
910.51	228.50
910.81	228.44
911.12	228.47
911.42	228.38
911.73	228.23
912.03	228.16
912.33	228.13
912.64	228.14
912.94	228.20
913.24	228.10
913.55	228.14
913.85	228.04
914.15	228.01
914.46	228.02
914.76	228.05
915.06	228.05
915.37	227.97
915.67	227.95
915.97	227.97
916.27	227.94
916.58	227.94
916.88	228.01
917.18	228.01
917.49	228.08
917.79	228.08
918.09	228.05
918.39	228.13
918.70	228.16
919.00	228.18
919.30	228.20
919.60	228.15
919.91	228.04
920.21	228.10
920.51	228.08
920.81	228.08
921.12	228.13
921.42	228.05
921.72	228.03
922.02	228.07
922.32	228.05
922.63	228.12
922.93	228.27
923.23	228.25
923.53	228.23
923.83	228.15
924.13	228.21
924.44	228.32
924.74	228.39
925.04	228.43
925.34	228.48
925.64	228.46
925.94	228.62
926.24	228.81
926.55	228.87
926.85	229.04
927.15	229.06
927.45	229.10
927.75	229.11
928.05	229.30
928.35	229.32
928.65	229.44
928.95	229.48
929.26	229.40
929.56	229.43
929.86	229.46
930.16	229.41
930.46	229.35
930.76	229.32
931.06	229.24
931.36	229.14
931.66	229.12
931.96	229.17
932.26	229.17
932.56	229.08
932.86	229.06
933.16	229.02
933.46	228.94
933.76	228.91
934.06	229.03
934.36	229.00
934.66	228.96
934.96	228.80
935.26	228.76
935.56	228.75
935.86	228.70
936.16	228.65
936.46	228.77
936.76	228.86
937.06	228.84
937.36	228.90
937.66	229.01
937.96	229.00
938.26	228.90
938.56	228.88
938.86	228.86
939.16	228.95
939.46	228.95
939.76	228.93
940.06	228.88
940.35	228.81
940.65	228.69
940.95	228.65
941.25	228.74
941.55	228.78
941.85	228.75
942.15	228.80
942.45	228.83
942.75	228.70
943.04	228.57
943.34	228.57
943.64	228.50
943.94	228.40
944.24	228.48
944.54	228.50
944.84	228.52
945.13	228.44
945.43	228.31
945.73	228.23
946.03	228.40
946.33	228.35
946.62	228.37
946.92	228.42
947.22	228.43
947.52	228.37
947.82	228.26
948.11	228.34
948.41	228.35
948.71	228.26
949.01	228.32
949.31	228.33
949.60	228.30
949.90	228.36
950.20	228.32
950.50	228.29
950.79	228.27
951.09	228.34
951.39	228.38
951.69	228.32
951.98	228.40
952.28	228.30
952.58	228.33
952.87	228.26
953.17	228.31
953.47	228.32
953.76	228.33
954.06	228.37
954.36	228.30
954.66	228.13
954.95	228.23
955.25	228.19
955.55	228.26
955.84	228.22
956.14	228.20
956.44	228.29
956.73	228.32
957.03	228.40
957.32	228.32
957.62	228.40
957.92	228.49
958.21	228.49
958.51	228.69
958.81	228.72
959.10	228.78
959.40	228.70
959.69	228.56
959.99	228.59
960.29	228.61
960.58	228.64
960.88	228.75
961.17	228.76
961.47	228.81
961.76	228.88
962.06	228.93
962.36	229.04
962.65	228.99
962.95	228.92
963.24	228.86
963.54	228.88
963.83	228.78
964.13	228.82
964.42	228.78
964.72	228.67
965.01	228.71
965.31	228.74
965.60	228.66
965.90	228.91
966.19	228.85
966.49	228.82
966.78	228.76
967.08	228.80
967.37	228.81
967.67	228.86
967.96	228.74
968.26	228.74
968.55	228.64
968.85	228.68
969.14	228.66
969.43	228.59
969.73	228.62
970.02	228.69
970.32	228.63
970.61	228.56
970.91	228.53
971.20	228.44
971.49	228.43
971.79	228.49
972.08	228.42
972.38	228.44
972.67	228.46
972.96	228.53
973.26	228.48
973.55	228.50
973.85	228.45
974.14	228.53
974.43	228.57
974.73	228.60
975.02	228.55
975.31	228.57
975.61	228.61
975.90	228.50
976.19	228.30
976.49	228.34
976.78	228.43
977.07	228.40
977.37	228.46
977.66	228.41
977.95	228.41
978.24	228.34
978.54	228.37
978.83	228.30
979.12	228.30
979.42	228.18
979.71	228.09
980.00	228.03
980.29	227.91
980.59	227.85
980.88	227.84
981.17	227.86
981.46	227.88
981.76	227.90
982.05	227.94
982.34	228.07
982.63	228.05
982.93	228.06
983.22	228.08
983.51	228.08
983.80	228.07
984.09	228.10
984.39	228.10
984.68	228.03
984.97	227.99
985.26	227.94
985.55	228.05
985.85	228.01
986.14	228.16
986.43	228.25
986.72	228.17
987.01	228.05
987.30	228.01
987.59	227.92
987.89	227.86
988.18	227.90
988.47	227.85
988.76	227.92
989.05	227.84
989.34	227.79
989.63	227.80
989.92	227.65
990.22	227.63
990.51	227.61
990.80	227.67
991.09	227.75
991.38	227.84
991.67	227.81
991.96	227.82
992.25	227.72
992.54	227.71
992.83	227.76
993.12	227.84
993.41	227.94
993.70	227.97
993.99	228.08
994.28	228.16
994.58	228.26
994.87	228.14
995.16	228.14
995.45	228.25
995.74	228.22
996.03	228.45
996.32	228.41
996.61	228.49
996.90	228.53
997.19	228.63
997.48	228.44
997.77	228.53
998.06	228.51
998.34	228.50
998.63	228.50
998.92	228.59
999.21	228.60
999.50	228.63
999.79	228.62
1000.08	228.56
1000.37	228.45
1000.66	228.45
1000.95	228.59
1001.24	228.63
1001.53	228.58
1001.82	228.56
1002.11	228.53
1002.40	228.65
1002.68	228.78
1002.97	228.87
1003.26	228.79
1003.55	228.80
1003.84	228.76
1004.13	228.91
1004.42	228.88
1004.71	228.94
1004.99	228.89
1005.28	228.94
1005.57	228.88
1005.86	228.86
1006.15	228.89
1006.44	228.84
1006.72	228.80
1007.01	228.72
1007.30	228.69
1007.59	228.71
1007.88	228.75
1008.17	228.73
1008.45	228.74
1008.74	228.63
1009.03	228.56
1009.32	228.51
1009.60	228.59
1009.89	228.50
1010.18	228.39
1010.47	228.41
1010.76	228.32
1011.04	228.26
1011.33	228.25
1011.62	228.19
1011.91	228.18
1012.19	228.18
1012.48	228.24
1012.77	228.22
1013.05	228.25
1013.34	228.27
1013.63	228.26
1013.92	228.22
1014.20	228.21
1014.49	228.06
1014.78	228.04
1015.06	227.92
1015.35	227.94
1015.64	227.88
1015.92	228.03
1016.21	228.04
1016.50	228.06
1016.78	228.07
1017.07	228.22
1017.36	228.19
1017.64	228.16
1017.93	228.27
1018.22	228.23
1018.50	228.20
1018.79	228.19
1019.08	228.09
1019.36	228.06
1019.65	228.01
1019.93	228.10
1020.22	228.06
1020.51	228.18
1020.79	228.25
1021.08	227.60
1021.36	228.00
1021.65	227.40
1021.94	227.10
1022.22	227.40
1022.51	228.10
1022.79	229.80
1023.08	227.70
1023.36	230.30
1023.65	229.60
>>>>>End Processed Spectral Data<<<<<
