SpectraSuite Data File
++++++++++++++++++++++++++++++++++++
Date: Fri Feb 01 14:36:00 EST 2013
User: group
Dark Spectrum Present: No
Reference Spectrum Present: No
Number of Sampled Component Spectra: 1
Spectrometers: USB2E7196
Integration Time (usec): 70000 (USB2E7196)
Spectra Averaged: 10 (USB2E7196)
Boxcar Smoothing: 10 (USB2E7196)
Correct for Electrical Dark: No (USB2E7196)
Strobe/Lamp Enabled: No (USB2E7196)
Correct for Detector Non-linearity: No (USB2E7196)
Correct for Stray Light: No (USB2E7196)
Number of Pixels in Processed Spectrum: 2048
>>>>>Begin Processed Spectral Data<<<<<
339.09	0.00
339.48	216.20
339.86	218.60
340.24	219.50
340.63	221.90
341.01	225.80
341.39	224.30
341.78	225.50
342.16	227.40
342.54	227.10
342.93	215.10
343.31	225.96
343.69	226.52
344.07	226.99
344.46	227.43
344.84	227.72
345.22	227.87
345.60	228.01
345.99	228.21
346.37	228.19
346.75	228.31
347.13	228.32
347.52	228.23
347.90	228.27
348.28	228.19
348.66	228.25
349.05	228.19
349.43	228.32
349.81	228.30
350.19	228.29
350.57	228.39
350.96	228.47
351.34	228.52
351.72	228.56
352.10	228.56
352.48	228.56
352.87	228.57
353.25	228.56
353.63	228.60
354.01	228.57
354.39	228.66
354.77	228.62
355.15	228.72
355.54	228.73
355.92	228.68
356.30	228.80
356.68	229.03
357.06	229.15
357.44	229.12
357.82	229.20
358.20	229.23
358.58	229.22
358.97	229.29
359.35	229.40
359.73	229.46
360.11	229.51
360.49	229.60
360.87	229.66
361.25	229.76
361.63	229.90
362.01	230.01
362.39	230.00
362.77	230.04
363.15	230.08
363.53	230.12
363.91	230.24
364.29	230.14
364.67	230.00
365.05	230.00
365.43	229.98
365.81	230.10
366.19	230.20
366.57	230.30
366.95	230.17
367.33	230.04
367.71	230.13
368.09	230.16
368.47	230.14
368.85	230.14
369.23	230.13
369.61	230.09
369.99	230.16
370.37	230.27
370.75	230.30
371.13	230.25
371.51	230.20
371.89	230.19
372.27	230.18
372.65	230.14
373.03	230.05
373.41	230.06
373.78	229.88
374.16	229.79
374.54	229.68
374.92	229.64
375.30	229.66
375.68	229.41
376.06	229.45
376.44	229.33
376.82	229.20
377.19	229.18
377.57	229.02
377.95	228.77
378.33	228.60
378.71	228.46
379.09	228.43
379.47	228.40
379.84	228.30
380.22	228.18
380.60	227.98
380.98	227.98
381.36	227.75
381.73	227.63
382.11	227.60
382.49	227.48
382.87	227.28
383.25	227.21
383.62	227.37
384.00	227.10
384.38	226.98
384.76	227.08
385.13	227.06
385.51	227.07
385.89	227.07
386.27	227.08
386.64	227.06
387.02	227.05
387.40	226.98
387.78	226.99
388.15	227.09
388.53	227.03
388.91	226.90
389.29	226.88
389.66	227.01
390.04	226.87
390.42	226.94
390.79	227.04
391.17	226.98
391.55	226.83
391.92	226.87
392.30	226.94
392.68	226.84
393.05	226.83
393.43	226.89
393.81	226.95
394.18	226.90
394.56	226.80
394.94	226.89
395.31	226.98
395.69	227.04
396.06	227.05
396.44	227.18
396.82	227.26
397.19	227.50
397.57	227.54
397.95	227.80
398.32	227.86
398.70	227.93
399.07	228.05
399.45	228.09
399.82	228.25
400.20	228.31
400.58	228.42
400.95	228.42
401.33	228.58
401.70	228.74
402.08	228.95
402.45	229.22
402.83	229.42
403.20	229.53
403.58	229.69
403.95	229.88
404.33	230.24
404.71	230.47
405.08	230.82
405.46	231.04
405.83	231.19
406.21	231.44
406.58	231.80
406.96	232.12
407.33	232.50
407.70	232.99
408.08	233.60
408.45	234.04
408.83	234.47
409.20	234.81
409.58	235.26
409.95	235.85
410.33	236.34
410.70	236.75
411.08	237.40
411.45	238.11
411.82	238.83
412.20	239.43
412.57	240.33
412.95	241.05
413.32	241.97
413.69	242.83
414.07	243.81
414.44	244.76
414.82	245.82
415.19	246.96
415.56	248.01
415.94	249.15
416.31	250.63
416.68	252.02
417.06	253.56
417.43	255.00
417.81	256.73
418.18	258.52
418.55	260.50
418.93	262.48
419.30	264.49
419.67	266.55
420.04	268.81
420.42	271.03
420.79	273.77
421.16	276.37
421.54	279.21
421.91	282.05
422.28	285.11
422.66	288.29
423.03	291.45
423.40	294.87
423.77	298.31
424.15	301.62
424.52	305.36
424.89	309.36
425.26	313.24
425.64	316.90
426.01	320.87
426.38	325.04
426.75	329.34
427.13	333.57
427.50	337.98
427.87	342.82
428.24	347.64
428.61	351.98
428.99	356.99
429.36	362.48
429.73	367.72
430.10	372.98
430.47	378.37
430.85	384.00
431.22	389.69
431.59	395.98
431.96	402.05
432.33	408.58
432.70	414.89
433.08	422.50
433.45	429.45
433.82	436.53
434.19	444.20
434.56	451.72
434.93	458.95
435.30	466.35
435.68	474.22
436.05	482.16
436.42	489.92
436.79	497.00
437.16	504.39
437.53	512.60
437.90	520.67
438.27	528.58
438.64	536.82
439.01	544.39
439.38	551.03
439.75	557.54
440.13	565.04
440.50	572.15
440.87	577.73
441.24	583.82
441.61	590.46
441.98	595.48
442.35	601.36
442.72	607.60
443.09	613.72
443.46	617.62
443.83	620.09
444.20	622.70
444.57	626.20
444.94	628.21
445.31	630.24
445.68	632.17
446.05	633.57
446.42	633.58
446.79	633.65
447.16	633.56
447.53	633.95
447.90	632.04
448.27	630.09
448.64	626.72
449.01	625.00
449.37	620.71
449.74	616.50
450.11	611.19
450.48	605.16
450.85	598.80
451.22	593.78
451.59	589.10
451.96	584.46
452.33	577.84
452.70	572.17
453.07	564.88
453.43	557.54
453.80	550.33
454.17	543.50
454.54	537.10
454.91	530.13
455.28	523.04
455.65	516.56
456.02	509.91
456.38	504.53
456.75	497.10
457.12	491.30
457.49	485.43
457.86	479.80
458.23	475.02
458.59	469.70
458.96	464.09
459.33	459.27
459.70	454.47
460.07	450.56
460.43	445.93
460.80	441.63
461.17	437.86
461.54	433.92
461.91	430.13
462.27	426.17
462.64	422.73
463.01	419.00
463.38	415.38
463.74	411.77
464.11	408.67
464.48	405.91
464.85	402.66
465.21	400.19
465.58	397.63
465.95	394.41
466.32	391.91
466.68	389.21
467.05	386.73
467.42	384.07
467.78	381.39
468.15	378.86
468.52	377.08
468.88	374.53
469.25	372.37
469.62	370.49
469.98	368.43
470.35	366.74
470.72	365.11
471.08	363.27
471.45	361.82
471.82	360.13
472.18	358.32
472.55	357.10
472.92	355.60
473.28	354.20
473.65	352.96
474.02	351.57
474.38	350.46
474.75	349.27
475.11	348.24
475.48	347.44
475.85	346.67
476.21	345.80
476.58	345.29
476.94	344.73
477.31	344.12
477.67	343.42
478.04	342.73
478.41	342.20
478.77	341.85
479.14	341.31
479.50	340.95
479.87	340.74
480.23	340.46
480.60	340.20
480.96	339.96
481.33	340.06
481.69	340.06
482.06	340.04
482.42	339.90
482.79	339.77
483.15	339.99
483.52	340.46
483.88	340.61
484.25	340.70
484.61	340.86
484.98	341.16
485.34	341.80
485.71	342.34
486.07	342.83
486.44	343.22
486.80	343.69
487.17	344.50
487.53	345.30
487.90	346.11
488.26	347.06
488.62	348.09
488.99	349.07
489.35	350.22
489.72	351.33
490.08	352.58
490.44	353.62
490.81	354.83
491.17	355.74
491.54	357.03
491.90	358.43
492.26	359.85
492.63	361.28
492.99	362.56
493.36	363.95
493.72	365.70
494.08	367.32
494.45	369.17
494.81	370.85
495.17	372.52
495.54	374.32
495.90	376.13
496.26	377.92
496.63	379.52
496.99	381.20
497.35	383.15
497.72	385.07
498.08	387.20
498.44	389.13
498.80	391.30
499.17	393.22
499.53	395.26
499.89	397.32
500.26	399.33
500.62	401.49
500.98	403.74
501.34	405.63
501.71	407.76
502.07	409.81
502.43	411.74
502.79	413.73
503.16	415.68
503.52	417.35
503.88	419.21
504.24	421.10
504.60	422.94
504.97	424.75
505.33	426.60
505.69	428.37
506.05	430.12
506.41	431.67
506.78	433.35
507.14	434.84
507.50	436.41
507.86	437.79
508.22	439.15
508.59	440.38
508.95	441.77
509.31	443.09
509.67	444.33
510.03	445.48
510.39	446.60
510.75	447.64
511.12	448.97
511.48	450.02
511.84	451.07
512.20	452.08
512.56	452.86
512.92	453.73
513.28	454.61
513.64	455.34
514.00	455.99
514.37	456.71
514.73	457.50
515.09	458.09
515.45	458.79
515.81	459.38
516.17	460.07
516.53	460.63
516.89	460.95
517.25	461.27
517.61	461.74
517.97	462.32
518.33	462.70
518.69	463.05
519.05	463.47
519.41	463.94
519.77	464.52
520.13	464.92
520.49	465.24
520.85	465.60
521.21	466.17
521.57	466.62
521.93	466.97
522.29	467.46
522.65	467.96
523.01	468.39
523.37	468.86
523.73	469.12
524.09	469.53
524.45	470.11
524.81	470.67
525.17	471.41
525.53	472.07
525.89	472.84
526.25	473.60
526.61	474.48
526.97	475.42
527.33	476.29
527.68	477.47
528.04	478.50
528.40	479.59
528.76	480.52
529.12	481.88
529.48	483.37
529.84	484.58
530.20	485.83
530.56	487.31
530.91	488.77
531.27	490.70
531.63	492.27
531.99	494.10
532.35	496.06
532.71	497.64
533.07	499.56
533.42	501.61
533.78	503.50
534.14	505.43
534.50	507.38
534.86	509.44
535.21	511.39
535.57	513.84
535.93	516.35
536.29	518.86
536.65	521.12
537.00	523.26
537.36	525.80
537.72	528.50
538.08	531.10
538.44	533.89
538.79	536.30
539.15	539.07
539.51	541.85
539.87	544.75
540.22	548.00
540.58	550.98
540.94	553.83
541.29	557.06
541.65	560.09
542.01	563.61
542.37	567.06
542.72	570.54
543.08	573.63
543.44	576.91
543.79	580.06
544.15	583.62
544.51	587.56
544.87	591.19
545.22	594.69
545.58	598.30
545.94	601.76
546.29	605.47
546.65	609.12
547.01	612.90
547.36	616.50
547.72	620.12
548.07	623.78
548.43	627.38
548.79	631.09
549.14	634.56
549.50	637.77
549.86	641.03
550.21	644.68
550.57	648.47
550.92	652.20
551.28	656.03
551.64	659.78
551.99	663.29
552.35	666.90
552.70	670.62
553.06	674.30
553.41	678.27
553.77	681.99
554.13	686.04
554.48	689.87
554.84	693.80
555.19	697.60
555.55	701.51
555.90	705.15
556.26	708.90
556.61	712.87
556.97	716.65
557.32	720.57
557.68	724.25
558.03	728.01
558.39	731.50
558.74	735.35
559.10	739.13
559.45	742.81
559.81	746.62
560.16	750.40
560.52	754.20
560.87	757.92
561.23	761.40
561.58	764.96
561.94	768.38
562.29	771.57
562.64	774.72
563.00	777.87
563.35	781.86
563.71	785.52
564.06	789.18
564.42	792.73
564.77	796.47
565.12	799.90
565.48	803.38
565.83	806.70
566.19	809.91
566.54	812.81
566.89	816.10
567.25	819.20
567.60	822.54
567.96	825.28
568.31	828.22
568.66	831.23
569.02	834.09
569.37	836.75
569.72	839.59
570.08	842.43
570.43	845.10
570.78	847.53
571.14	849.62
571.49	851.95
571.84	854.38
572.20	856.34
572.55	858.69
572.90	860.76
573.26	863.05
573.61	865.00
573.96	867.10
574.31	868.57
574.67	869.85
575.02	871.13
575.37	873.04
575.72	874.11
576.08	875.73
576.43	876.94
576.78	878.23
577.13	879.94
577.49	881.31
577.84	882.46
578.19	883.49
578.54	884.74
578.90	885.41
579.25	885.88
579.60	886.42
579.95	887.16
580.30	887.71
580.66	888.04
581.01	888.68
581.36	889.15
581.71	889.71
582.06	890.30
582.42	890.53
582.77	890.54
583.12	891.03
583.47	891.35
583.82	891.54
584.17	891.64
584.53	891.34
584.88	891.22
585.23	891.67
585.58	891.39
585.93	891.20
586.28	891.44
586.63	891.71
586.98	892.00
587.34	891.54
587.69	891.17
588.04	891.08
588.39	890.61
588.74	889.82
589.09	889.47
589.44	888.87
589.79	888.65
590.14	888.30
590.49	887.80
590.84	886.88
591.19	886.19
591.54	885.30
591.89	884.38
592.25	883.73
592.60	882.07
592.95	881.01
593.30	880.02
593.65	878.66
594.00	877.34
594.35	876.28
594.70	874.91
595.05	873.87
595.40	872.46
595.75	871.02
596.10	870.10
596.45	868.73
596.80	867.92
597.15	866.41
597.50	864.91
597.85	863.44
598.19	862.28
598.54	861.21
598.89	860.00
599.24	858.71
599.59	857.26
599.94	856.34
600.29	855.07
600.64	853.25
600.99	851.54
601.34	850.23
601.69	848.28
602.04	846.66
602.39	844.96
602.74	843.60
603.08	842.26
603.43	840.79
603.78	839.36
604.13	837.33
604.48	835.63
604.83	834.13
605.18	832.52
605.53	830.26
605.87	828.10
606.22	826.29
606.57	824.22
606.92	822.29
607.27	820.21
607.62	818.45
607.96	816.97
608.31	815.35
608.66	813.13
609.01	810.89
609.36	808.66
609.70	806.14
610.05	803.53
610.40	801.19
610.75	798.67
611.10	795.94
611.44	793.27
611.79	790.80
612.14	788.22
612.49	785.01
612.83	782.68
613.18	780.20
613.53	777.63
613.88	775.02
614.22	772.08
614.57	769.27
614.92	766.49
615.27	763.65
615.61	761.11
615.96	758.24
616.31	755.68
616.65	753.63
617.00	751.33
617.35	748.90
617.70	746.04
618.04	743.27
618.39	740.90
618.74	738.50
619.08	735.92
619.43	733.23
619.78	731.00
620.12	728.51
620.47	725.74
620.82	723.00
621.16	720.41
621.51	717.98
621.85	715.36
622.20	712.57
622.55	710.02
622.89	707.24
623.24	704.94
623.59	702.68
623.93	699.88
624.28	697.21
624.62	694.76
624.97	692.42
625.32	690.09
625.66	687.27
626.01	684.97
626.35	682.44
626.70	679.92
627.04	677.60
627.39	674.68
627.73	672.13
628.08	669.61
628.43	667.10
628.77	664.68
629.12	662.37
629.46	660.01
629.81	657.30
630.15	654.46
630.50	651.57
630.84	648.50
631.19	645.87
631.53	643.44
631.88	640.58
632.22	637.71
632.57	634.98
632.91	632.43
633.26	629.60
633.60	626.79
633.95	624.01
634.29	621.40
634.64	619.11
634.98	616.39
635.32	614.02
635.67	611.64
636.01	609.07
636.36	606.21
636.70	603.81
637.05	601.47
637.39	599.32
637.73	597.24
638.08	595.37
638.42	593.00
638.77	590.49
639.11	588.15
639.45	585.90
639.80	583.56
640.14	581.19
640.49	578.84
640.83	576.55
641.17	574.26
641.52	571.80
641.86	569.34
642.20	567.23
642.55	564.83
642.89	562.40
643.23	560.16
643.58	558.27
643.92	555.72
644.26	553.56
644.61	551.34
644.95	548.83
645.29	546.24
645.64	543.62
645.98	541.22
646.32	538.92
646.66	536.44
647.01	534.01
647.35	531.80
647.69	529.52
648.04	527.29
648.38	524.92
648.72	522.52
649.06	520.20
649.41	517.80
649.75	515.17
650.09	512.73
650.43	510.05
650.78	507.43
651.12	504.93
651.46	502.49
651.80	500.22
652.14	498.08
652.49	495.93
652.83	493.86
653.17	491.57
653.51	489.30
653.85	487.22
654.20	484.98
654.54	482.57
654.88	479.99
655.22	477.52
655.56	475.24
655.90	473.05
656.25	470.82
656.59	468.62
656.93	466.60
657.27	464.46
657.61	462.41
657.95	460.32
658.29	458.48
658.64	456.46
658.98	454.09
659.32	451.77
659.66	449.46
660.00	447.40
660.34	445.32
660.68	443.16
661.02	441.13
661.36	439.14
661.70	437.24
662.05	435.60
662.39	433.89
662.73	432.09
663.07	430.41
663.41	428.68
663.75	426.68
664.09	425.05
664.43	423.36
664.77	421.60
665.11	419.91
665.45	418.06
665.79	416.03
666.13	414.37
666.47	412.77
666.81	411.06
667.15	409.09
667.49	407.57
667.83	405.81
668.17	404.10
668.51	402.48
668.85	400.82
669.19	399.30
669.53	397.81
669.87	396.17
670.21	394.60
670.55	393.08
670.89	391.91
671.23	390.35
671.57	388.81
671.91	387.43
672.25	385.94
672.58	384.57
672.92	383.30
673.26	381.93
673.60	380.44
673.94	379.09
674.28	377.98
674.62	376.70
674.96	375.60
675.30	374.20
675.64	372.82
675.97	371.71
676.31	370.42
676.65	369.03
676.99	367.92
677.33	366.66
677.67	365.50
678.01	364.02
678.34	362.83
678.68	361.75
679.02	360.53
679.36	359.24
679.70	358.06
680.04	356.99
680.37	355.77
680.71	354.64
681.05	353.70
681.39	352.55
681.73	351.50
682.06	350.42
682.40	349.46
682.74	348.42
683.08	347.30
683.42	346.12
683.75	345.09
684.09	343.91
684.43	342.81
684.77	341.74
685.10	340.72
685.44	339.62
685.78	338.42
686.12	337.30
686.45	336.30
686.79	335.15
687.13	334.03
687.46	332.90
687.80	331.99
688.14	330.66
688.48	329.78
688.81	328.45
689.15	327.51
689.49	326.41
689.82	325.33
690.16	324.29
690.50	323.28
690.83	322.23
691.17	321.24
691.51	320.04
691.84	319.00
692.18	318.10
692.52	317.07
692.85	316.12
693.19	315.15
693.52	314.23
693.86	313.33
694.20	312.51
694.53	311.80
694.87	310.87
695.21	310.09
695.54	309.09
695.88	308.26
696.21	307.18
696.55	306.43
696.88	305.65
697.22	304.78
697.56	304.00
697.89	303.16
698.23	302.39
698.56	301.87
698.90	301.11
699.23	300.29
699.57	299.46
699.90	298.76
700.24	298.06
700.58	297.26
700.91	296.53
701.25	295.89
701.58	295.26
701.92	294.60
702.25	293.83
702.59	293.14
702.92	292.61
703.26	292.00
703.59	291.28
703.93	290.84
704.26	290.18
704.60	289.53
704.93	288.89
705.26	288.21
705.60	287.39
705.93	286.75
706.27	286.24
706.60	285.77
706.94	285.11
707.27	284.43
707.61	283.93
707.94	283.48
708.27	282.62
708.61	281.89
708.94	281.13
709.28	280.66
709.61	280.16
709.94	279.59
710.28	279.14
710.61	278.61
710.95	277.93
711.28	277.51
711.61	276.98
711.95	276.46
712.28	275.90
712.61	275.50
712.95	275.02
713.28	274.46
713.61	273.92
713.95	273.41
714.28	272.97
714.61	272.46
714.95	271.90
715.28	271.46
715.61	271.07
715.95	270.78
716.28	270.34
716.61	269.90
716.95	269.43
717.28	268.88
717.61	268.44
717.94	267.97
718.28	267.43
718.61	266.96
718.94	266.60
719.27	266.34
719.61	265.94
719.94	265.46
720.27	265.04
720.60	264.71
720.94	264.38
721.27	264.08
721.60	263.79
721.93	263.27
722.27	263.01
722.60	262.60
722.93	262.28
723.26	261.94
723.59	261.63
723.93	261.29
724.26	261.01
724.59	260.70
724.92	260.43
725.25	260.20
725.59	259.96
725.92	259.64
726.25	259.20
726.58	258.83
726.91	258.69
727.24	258.43
727.57	258.20
727.91	257.89
728.24	257.60
728.57	257.23
728.90	257.14
729.23	256.80
729.56	256.60
729.89	256.31
730.22	256.03
730.55	255.77
730.89	255.44
731.22	255.25
731.55	254.93
731.88	254.74
732.21	254.39
732.54	254.07
732.87	253.90
733.20	253.70
733.53	253.57
733.86	253.24
734.19	252.89
734.52	252.50
734.85	252.28
735.18	251.87
735.51	251.70
735.84	251.45
736.17	251.23
736.50	250.89
736.83	250.90
737.16	250.70
737.49	250.48
737.82	250.30
738.15	250.04
738.48	249.83
738.81	249.57
739.14	249.50
739.47	249.29
739.80	249.02
740.13	248.81
740.46	248.55
740.79	248.25
741.12	248.15
741.45	247.97
741.78	247.79
742.11	247.86
742.44	247.65
742.77	247.45
743.10	247.20
743.43	246.90
743.75	246.40
744.08	246.40
744.41	246.09
744.74	245.89
745.07	245.63
745.40	245.42
745.73	245.33
746.06	245.00
746.39	244.85
746.71	244.71
747.04	244.39
747.37	244.20
747.70	244.14
748.03	243.94
748.36	243.77
748.68	243.66
749.01	243.27
749.34	243.12
749.67	242.88
750.00	242.72
750.33	242.80
750.65	242.70
750.98	242.34
751.31	242.18
751.64	242.05
751.97	242.02
752.29	241.90
752.62	241.61
752.95	241.40
753.28	241.23
753.60	241.12
753.93	241.15
754.26	240.98
754.59	240.80
754.91	240.59
755.24	240.53
755.57	240.34
755.90	240.19
756.22	239.99
756.55	239.91
756.88	239.82
757.20	239.57
757.53	239.30
757.86	239.18
758.19	239.10
758.51	239.10
758.84	238.87
759.17	238.77
759.49	238.71
759.82	238.64
760.15	238.49
760.47	238.29
760.80	238.12
761.13	237.95
761.45	237.76
761.78	237.71
762.11	237.59
762.43	237.50
762.76	237.35
763.08	237.36
763.41	237.22
763.74	237.10
764.06	237.00
764.39	236.96
764.71	236.83
765.04	236.78
765.37	236.53
765.69	236.40
766.02	236.26
766.34	236.17
766.67	236.10
767.00	236.11
767.32	236.16
767.65	236.23
767.97	236.20
768.30	236.21
768.62	236.09
768.95	235.93
769.27	235.80
769.60	235.85
769.92	235.65
770.25	235.66
770.57	235.59
770.90	235.55
771.22	235.50
771.55	235.49
771.87	235.38
772.20	235.38
772.52	235.51
772.85	235.82
773.17	235.80
773.50	235.81
773.82	235.76
774.15	235.54
774.47	235.42
774.80	235.40
775.12	235.32
775.45	235.32
775.77	235.28
776.09	235.22
776.42	235.15
776.74	235.17
777.07	235.12
777.39	235.13
777.72	235.01
778.04	234.91
778.36	234.80
778.69	234.79
779.01	234.70
779.33	234.46
779.66	234.14
779.98	234.05
780.31	233.90
780.63	233.94
780.95	233.96
781.28	233.80
781.60	233.81
781.92	233.66
782.25	233.57
782.57	233.60
782.89	233.60
783.22	233.57
783.54	233.41
783.86	233.28
784.19	233.12
784.51	233.27
784.83	233.27
785.16	233.30
785.48	233.27
785.80	233.25
786.12	233.31
786.45	233.23
786.77	233.25
787.09	233.26
787.42	233.07
787.74	233.15
788.06	233.12
788.38	233.00
788.71	233.07
789.03	233.08
789.35	232.95
789.67	232.79
789.99	232.76
790.32	232.80
790.64	232.80
790.96	232.89
791.28	232.63
791.61	232.54
791.93	232.45
792.25	232.33
792.57	232.36
792.89	232.20
793.21	232.15
793.54	231.99
793.86	231.81
794.18	231.81
794.50	231.55
794.82	231.50
795.14	231.40
795.47	231.35
795.79	231.35
796.11	231.35
796.43	231.29
796.75	231.15
797.07	231.02
797.39	231.00
797.71	230.89
798.04	230.91
798.36	230.90
798.68	230.86
799.00	230.84
799.32	230.78
799.64	230.86
799.96	230.80
800.28	230.77
800.60	230.76
800.92	230.63
801.24	230.69
801.56	230.68
801.89	230.75
802.21	230.71
802.53	230.63
802.85	230.60
803.17	230.77
803.49	230.76
803.81	230.77
804.13	230.67
804.45	230.62
804.77	230.71
805.09	230.64
805.41	230.57
805.73	230.49
806.05	230.34
806.37	230.20
806.69	230.20
807.01	230.20
807.33	230.22
807.65	230.18
807.97	230.19
808.28	230.19
808.60	230.10
808.92	230.08
809.24	230.20
809.56	230.12
809.88	229.83
810.20	229.88
810.52	229.98
810.84	230.06
811.16	230.06
811.48	229.81
811.80	229.88
812.12	229.85
812.43	229.93
812.75	230.00
813.07	230.05
813.39	230.07
813.71	230.00
814.03	229.98
814.35	230.04
814.67	229.99
814.98	229.94
815.30	229.87
815.62	229.80
815.94	229.59
816.26	229.74
816.58	229.85
816.89	229.85
817.21	229.78
817.53	229.69
817.85	229.68
818.17	229.76
818.48	229.76
818.80	229.83
819.12	229.79
819.44	229.70
819.76	229.64
820.07	229.58
820.39	229.58
820.71	229.58
821.03	229.45
821.34	229.40
821.66	229.49
821.98	229.59
822.30	229.74
822.61	229.84
822.93	229.69
823.25	229.75
823.57	229.65
823.88	229.57
824.20	229.54
824.52	229.53
824.83	229.46
825.15	229.38
825.47	229.35
825.79	229.27
826.10	229.34
826.42	229.28
826.74	229.33
827.05	229.29
827.37	229.32
827.69	229.47
828.00	229.43
828.32	229.36
828.64	229.36
828.95	229.35
829.27	229.31
829.58	229.29
829.90	229.14
830.22	229.14
830.53	229.12
830.85	229.14
831.17	229.09
831.48	229.27
831.80	229.23
832.11	229.14
832.43	229.19
832.75	229.08
833.06	229.28
833.38	229.20
833.69	229.25
834.01	229.29
834.32	229.17
834.64	229.14
834.96	229.05
835.27	228.94
835.59	228.78
835.90	228.74
836.22	228.62
836.53	228.63
836.85	228.57
837.16	228.73
837.48	228.68
837.79	228.64
838.11	228.39
838.42	228.43
838.74	228.52
839.05	228.40
839.37	228.40
839.68	228.23
840.00	228.19
840.31	228.14
840.63	227.99
840.94	227.96
841.26	227.94
841.57	228.00
841.88	228.05
842.20	228.14
842.51	228.03
842.83	228.08
843.14	228.26
843.46	228.35
843.77	228.24
844.08	228.26
844.40	228.43
844.71	228.50
845.03	228.51
845.34	228.47
845.65	228.60
845.97	228.66
846.28	228.66
846.60	228.72
846.91	228.76
847.22	228.77
847.54	228.83
847.85	228.83
848.16	228.79
848.48	228.85
848.79	228.85
849.10	228.94
849.42	229.13
849.73	229.06
850.04	228.98
850.36	228.91
850.67	228.99
850.98	228.94
851.30	229.08
851.61	229.08
851.92	229.10
852.23	229.05
852.55	229.09
852.86	229.15
853.17	229.16
853.49	229.18
853.80	229.35
854.11	229.43
854.42	229.47
854.74	229.55
855.05	229.48
855.36	229.40
855.67	229.40
855.99	229.35
856.30	229.54
856.61	229.63
856.92	229.80
857.23	229.79
857.55	229.79
857.86	229.71
858.17	229.80
858.48	229.68
858.79	229.74
859.11	229.77
859.42	229.67
859.73	229.63
860.04	229.60
860.35	229.56
860.66	229.41
860.98	229.48
861.29	229.50
861.60	229.44
861.91	229.41
862.22	229.31
862.53	229.23
862.84	229.04
863.16	229.09
863.47	228.98
863.78	228.96
864.09	228.93
864.40	228.90
864.71	228.80
865.02	228.90
865.33	228.80
865.64	228.71
865.95	228.77
866.27	228.98
866.58	228.94
866.89	228.83
867.20	228.99
867.51	228.90
867.82	228.85
868.13	228.92
868.44	228.92
868.75	229.05
869.06	229.00
869.37	228.95
869.68	228.80
869.99	228.74
870.30	228.76
870.61	228.67
870.92	228.66
871.23	228.62
871.54	228.57
871.85	228.59
872.16	228.68
872.47	228.58
872.78	228.32
873.09	228.40
873.40	228.44
873.71	228.32
874.02	228.27
874.33	228.19
874.64	228.16
874.95	228.22
875.26	228.05
875.56	228.05
875.87	227.97
876.18	227.91
876.49	228.11
876.80	227.97
877.11	228.00
877.42	227.93
877.73	227.98
878.04	228.01
878.35	228.10
878.66	228.03
878.96	228.09
879.27	228.09
879.58	227.99
879.89	227.96
880.20	228.04
880.51	228.12
880.82	228.20
881.12	228.11
881.43	228.00
881.74	228.09
882.05	228.04
882.36	228.11
882.67	228.21
882.97	227.93
883.28	228.08
883.59	228.11
883.90	228.16
884.21	228.11
884.51	228.09
884.82	227.98
885.13	228.10
885.44	228.14
885.74	228.25
886.05	228.33
886.36	228.35
886.67	228.37
886.98	228.40
887.28	228.37
887.59	228.51
887.90	228.57
888.20	228.56
888.51	228.71
888.82	228.73
889.13	228.83
889.43	229.16
889.74	229.06
890.05	229.06
890.35	229.06
890.66	229.20
890.97	229.12
891.28	229.16
891.58	228.96
891.89	228.98
892.20	228.95
892.50	228.88
892.81	228.82
893.12	228.78
893.42	228.74
893.73	228.81
894.04	228.71
894.34	228.63
894.65	228.59
894.95	228.55
895.26	228.43
895.57	228.51
895.87	228.28
896.18	228.33
896.48	228.39
896.79	228.43
897.10	228.31
897.40	228.30
897.71	228.39
898.01	228.45
898.32	228.36
898.63	228.30
898.93	228.33
899.24	228.36
899.54	228.43
899.85	228.42
900.15	228.34
900.46	228.38
900.76	228.49
901.07	228.47
901.38	228.47
901.68	228.60
901.99	228.45
902.29	228.50
902.60	228.40
902.90	228.22
903.21	228.16
903.51	228.15
903.82	228.22
904.12	228.11
904.43	228.12
904.73	228.18
905.03	228.16
905.34	228.30
905.64	228.25
905.95	228.07
906.25	228.04
906.56	228.00
906.86	228.05
907.17	228.12
907.47	228.23
907.77	228.15
908.08	228.06
908.38	228.05
908.69	228.00
908.99	228.11
909.30	228.11
909.60	228.05
909.90	228.02
910.21	228.09
910.51	228.00
910.81	227.96
911.12	227.90
911.42	227.89
911.73	227.60
912.03	227.69
912.33	227.76
912.64	227.76
912.94	227.79
913.24	227.72
913.55	227.63
913.85	227.56
914.15	227.64
914.46	227.58
914.76	227.50
915.06	227.53
915.37	227.50
915.67	227.56
915.97	227.59
916.27	227.51
916.58	227.47
916.88	227.64
917.18	227.63
917.49	227.82
917.79	227.80
918.09	227.95
918.39	228.04
918.70	228.04
919.00	228.01
919.30	228.10
919.60	228.11
919.91	228.08
920.21	228.18
920.51	228.16
920.81	228.30
921.12	228.40
921.42	228.38
921.72	228.41
922.02	228.42
922.32	228.47
922.63	228.53
922.93	228.65
923.23	228.60
923.53	228.65
923.83	228.56
924.13	228.64
924.44	228.66
924.74	228.58
925.04	228.69
925.34	228.72
925.64	228.81
925.94	228.86
926.24	228.94
926.55	228.87
926.85	228.91
927.15	228.93
927.45	228.98
927.75	228.98
928.05	228.98
928.35	229.04
928.65	229.13
928.95	229.23
929.26	229.13
929.56	229.15
929.86	229.12
930.16	228.99
930.46	228.96
930.76	229.02
931.06	228.92
931.36	228.80
931.66	228.83
931.96	228.71
932.26	228.68
932.56	228.66
932.86	228.59
933.16	228.50
933.46	228.43
933.76	228.35
934.06	228.43
934.36	228.54
934.66	228.43
934.96	228.39
935.26	228.32
935.56	228.36
935.86	228.31
936.16	228.24
936.46	228.34
936.76	228.31
937.06	228.19
937.36	228.22
937.66	228.26
937.96	228.18
938.26	228.11
938.56	228.01
938.86	228.03
939.16	228.11
939.46	228.10
939.76	228.08
940.06	228.02
940.35	227.89
940.65	227.67
940.95	227.70
941.25	227.58
941.55	227.49
941.85	227.39
942.15	227.32
942.45	227.44
942.75	227.46
943.04	227.53
943.34	227.53
943.64	227.50
943.94	227.42
944.24	227.44
944.54	227.43
944.84	227.47
945.13	227.32
945.43	227.31
945.73	227.20
946.03	227.22
946.33	227.18
946.62	227.14
946.92	227.14
947.22	227.08
947.52	227.19
947.82	227.30
948.11	227.27
948.41	227.28
948.71	227.22
949.01	227.10
949.31	227.01
949.60	227.10
949.90	227.16
950.20	227.18
950.50	227.18
950.79	227.12
951.09	227.15
951.39	227.20
951.69	227.20
951.98	227.35
952.28	227.32
952.58	227.33
952.87	227.44
953.17	227.49
953.47	227.51
953.76	227.43
954.06	227.37
954.36	227.37
954.66	227.33
954.95	227.32
955.25	227.34
955.55	227.36
955.84	227.30
956.14	227.34
956.44	227.38
956.73	227.39
957.03	227.44
957.32	227.50
957.62	227.59
957.92	227.66
958.21	227.68
958.51	228.04
958.81	228.14
959.10	228.16
959.40	228.27
959.69	228.35
959.99	228.40
960.29	228.43
960.58	228.56
960.88	228.71
961.17	228.73
961.47	228.88
961.76	228.84
962.06	228.83
962.36	228.79
962.65	228.92
962.95	228.93
963.24	229.05
963.54	229.09
963.83	229.07
964.13	229.05
964.42	229.04
964.72	228.82
965.01	228.84
965.31	228.90
965.60	228.79
965.90	228.90
966.19	228.87
966.49	229.03
966.78	228.95
967.08	228.98
967.37	229.01
967.67	228.93
967.96	229.02
968.26	229.19
968.55	229.35
968.85	229.25
969.14	229.36
969.43	229.31
969.73	229.23
970.02	229.19
970.32	229.17
970.61	229.17
970.91	229.14
971.20	229.11
971.49	229.05
971.79	229.16
972.08	229.02
972.38	229.12
972.67	229.08
972.96	229.15
973.26	229.10
973.55	229.13
973.85	229.17
974.14	229.19
974.43	229.08
974.73	228.98
975.02	228.95
975.31	228.82
975.61	228.82
975.90	228.79
976.19	228.72
976.49	228.70
976.78	228.69
977.07	228.66
977.37	228.66
977.66	228.61
977.95	228.46
978.24	228.45
978.54	228.47
978.83	228.40
979.12	228.41
979.42	228.37
979.71	228.23
980.00	228.20
980.29	228.16
980.59	228.04
980.88	228.04
981.17	228.06
981.46	228.03
981.76	227.97
982.05	227.97
982.34	227.99
982.63	227.98
982.93	228.03
983.22	228.04
983.51	227.98
983.80	228.11
984.09	228.16
984.39	228.12
984.68	227.97
984.97	227.92
985.26	227.77
985.55	227.78
985.85	227.85
986.14	227.83
986.43	227.88
986.72	227.86
987.01	227.56
987.30	227.50
987.59	227.48
987.89	227.41
988.18	227.36
988.47	227.33
988.76	227.30
989.05	227.13
989.34	227.09
989.63	227.10
989.92	226.95
990.22	226.94
990.51	226.98
990.80	227.00
991.09	227.01
991.38	227.11
991.67	227.10
991.96	227.02
992.25	227.12
992.54	226.93
992.83	226.96
993.12	227.19
993.41	227.27
993.70	227.41
993.99	227.50
994.28	227.50
994.58	227.58
994.87	227.60
995.16	227.66
995.45	227.68
995.74	227.69
996.03	227.77
996.32	227.82
996.61	227.93
996.90	227.94
997.19	227.96
997.48	227.94
997.77	227.96
998.06	228.06
998.34	227.99
998.63	228.21
998.92	228.29
999.21	228.34
999.50	228.29
999.79	228.30
1000.08	228.22
1000.37	228.38
1000.66	228.37
1000.95	228.46
1001.24	228.64
1001.53	228.71
1001.82	228.78
1002.11	228.73
1002.40	228.92
1002.68	228.90
1002.97	229.12
1003.26	229.15
1003.55	229.14
1003.84	229.21
1004.13	229.29
1004.42	229.30
1004.71	229.37
1004.99	229.33
1005.28	229.37
1005.57	229.36
1005.86	229.34
1006.15	229.46
1006.44	229.37
1006.72	229.42
1007.01	229.40
1007.30	229.29
1007.59	229.22
1007.88	229.25
1008.17	229.31
1008.45	229.16
1008.74	229.13
1009.03	229.03
1009.32	228.95
1009.60	228.90
1009.89	228.77
1010.18	228.78
1010.47	228.67
1010.76	228.53
1011.04	228.55
1011.33	228.54
1011.62	228.59
1011.91	228.54
1012.19	228.51
1012.48	228.56
1012.77	228.58
1013.05	228.64
1013.34	228.65
1013.63	228.70
1013.92	228.60
1014.20	228.50
1014.49	228.48
1014.78	228.40
1015.06	228.32
1015.35	228.40
1015.64	228.47
1015.92	228.41
1016.21	228.30
1016.50	228.31
1016.78	228.39
1017.07	228.31
1017.36	228.27
1017.64	228.22
1017.93	228.21
1018.22	228.11
1018.50	228.01
1018.79	227.93
1019.08	227.76
1019.36	227.67
1019.65	227.51
1019.93	227.62
1020.22	227.70
1020.51	227.69
1020.79	227.67
1021.08	225.90
1021.36	226.40
1021.65	227.60
1021.94	226.60
1022.22	226.70
1022.51	226.20
1022.79	230.00
1023.08	228.90
1023.36	229.00
1023.65	226.70
>>>>>End Processed Spectral Data<<<<<
