SpectraSuite Data File
++++++++++++++++++++++++++++++++++++
Date: Fri Feb 01 14:35:38 EST 2013
User: group
Dark Spectrum Present: No
Reference Spectrum Present: No
Number of Sampled Component Spectra: 1
Spectrometers: USB2E7196
Integration Time (usec): 70000 (USB2E7196)
Spectra Averaged: 10 (USB2E7196)
Boxcar Smoothing: 10 (USB2E7196)
Correct for Electrical Dark: No (USB2E7196)
Strobe/Lamp Enabled: No (USB2E7196)
Correct for Detector Non-linearity: No (USB2E7196)
Correct for Stray Light: No (USB2E7196)
Number of Pixels in Processed Spectrum: 2048
>>>>>Begin Processed Spectral Data<<<<<
339.09	0.00
339.48	217.40
339.86	218.10
340.24	218.20
340.63	220.00
341.01	223.90
341.39	222.50
341.78	224.50
342.16	226.90
342.54	225.30
342.93	214.73
343.31	225.63
343.69	226.15
344.07	226.62
344.46	227.12
344.84	227.50
345.22	227.70
345.60	227.95
345.99	228.24
346.37	228.30
346.75	228.39
347.13	228.42
347.52	228.49
347.90	228.60
348.28	228.70
348.66	228.73
349.05	228.68
349.43	228.78
349.81	228.87
350.19	228.90
350.57	229.02
350.96	228.94
351.34	228.97
351.72	229.01
352.10	229.10
352.48	229.14
352.87	229.24
353.25	229.30
353.63	229.37
354.01	229.33
354.39	229.45
354.77	229.54
355.15	229.68
355.54	229.78
355.92	229.78
356.30	229.79
356.68	229.91
357.06	229.94
357.44	229.97
357.82	230.19
358.20	230.23
358.58	230.19
358.97	230.33
359.35	230.40
359.73	230.52
360.11	230.55
360.49	230.64
360.87	230.64
361.25	230.80
361.63	230.90
362.01	230.98
362.39	230.90
362.77	231.00
363.15	230.97
363.53	230.94
363.91	230.92
364.29	230.95
364.67	230.80
365.05	230.94
365.43	231.02
365.81	230.90
366.19	230.90
366.57	230.94
366.95	230.94
367.33	230.89
367.71	230.78
368.09	230.74
368.47	230.62
368.85	230.60
369.23	230.52
369.61	230.50
369.99	230.48
370.37	230.56
370.75	230.63
371.13	230.49
371.51	230.34
371.89	230.36
372.27	230.31
372.65	230.28
373.03	230.24
373.41	230.10
373.78	230.03
374.16	229.88
374.54	229.83
374.92	229.72
375.30	229.65
375.68	229.47
376.06	229.50
376.44	229.47
376.82	229.34
377.19	229.26
377.57	229.11
377.95	228.97
378.33	228.80
378.71	228.50
379.09	228.46
379.47	228.46
379.84	228.33
380.22	228.20
380.60	228.06
380.98	227.91
381.36	227.85
381.73	227.78
382.11	227.73
382.49	227.58
382.87	227.48
383.25	227.40
383.62	227.75
384.00	227.59
384.38	227.59
384.76	227.61
385.13	227.50
385.51	227.40
385.89	227.33
386.27	227.30
386.64	227.36
387.02	227.41
387.40	227.38
387.78	227.38
388.15	227.33
388.53	227.26
388.91	227.15
389.29	227.03
389.66	226.93
390.04	226.94
390.42	226.97
390.79	226.90
391.17	226.91
391.55	226.60
391.92	226.60
392.30	226.58
392.68	226.63
393.05	226.81
393.43	226.91
393.81	226.93
394.18	227.00
394.56	227.03
394.94	227.04
395.31	227.10
395.69	227.16
396.06	227.32
396.44	227.54
396.82	227.68
397.19	227.96
397.57	228.04
397.95	228.16
398.32	228.23
398.70	228.48
399.07	228.60
399.45	228.77
399.82	228.90
400.20	229.08
400.58	229.20
400.95	229.28
401.33	229.38
401.70	229.68
402.08	229.90
402.45	230.02
402.83	230.22
403.20	230.47
403.58	230.66
403.95	230.85
404.33	231.05
404.71	231.23
405.08	231.54
405.46	231.82
405.83	232.06
406.21	232.35
406.58	232.51
406.96	232.80
407.33	233.10
407.70	233.45
408.08	233.80
408.45	234.26
408.83	234.69
409.20	235.25
409.58	235.57
409.95	236.04
410.33	236.63
410.70	237.16
411.08	237.68
411.45	238.33
411.82	239.08
412.20	239.83
412.57	240.72
412.95	241.36
413.32	242.27
413.69	243.27
414.07	244.22
414.44	245.35
414.82	246.47
415.19	247.71
415.56	249.02
415.94	250.34
416.31	251.73
416.68	253.19
417.06	254.85
417.43	256.55
417.81	258.35
418.18	260.30
418.55	262.30
418.93	264.59
419.30	266.76
419.67	269.00
420.04	271.44
420.42	274.06
420.79	277.00
421.16	279.96
421.54	283.02
421.91	286.10
422.28	289.38
422.66	292.96
423.03	296.45
423.40	299.99
423.77	303.79
424.15	307.68
424.52	311.56
424.89	315.88
425.26	320.20
425.64	324.37
426.01	328.64
426.38	333.21
426.75	337.65
427.13	342.42
427.50	347.32
427.87	352.50
428.24	357.60
428.61	362.62
428.99	367.99
429.36	373.91
429.73	379.87
430.10	385.80
430.47	391.54
430.85	397.52
431.22	403.98
431.59	410.69
431.96	417.26
432.33	424.45
432.70	431.32
433.08	439.34
433.45	446.95
433.82	454.74
434.19	463.31
434.56	471.78
434.93	479.73
435.30	487.71
435.68	496.52
436.05	505.11
436.42	513.52
436.79	521.42
437.16	529.66
437.53	538.52
437.90	547.15
438.27	555.79
438.64	564.84
439.01	573.22
439.38	580.81
439.75	587.88
440.13	596.14
440.50	604.01
440.87	610.56
441.24	617.46
441.61	624.82
441.98	630.42
442.35	636.86
442.72	643.49
443.09	649.92
443.46	653.65
443.83	656.72
444.20	659.53
444.57	663.23
444.94	665.45
445.31	667.80
445.68	670.16
446.05	671.91
446.42	671.97
446.79	671.85
447.16	671.85
447.53	672.05
447.90	669.98
448.27	667.42
448.64	663.85
449.01	661.54
449.37	656.67
449.74	652.00
450.11	646.02
450.48	639.77
450.85	633.38
451.22	628.31
451.59	622.95
451.96	618.07
452.33	610.92
452.70	604.46
453.07	596.51
453.43	588.49
453.80	580.54
454.17	573.07
454.54	566.09
454.91	558.20
455.28	550.70
455.65	543.50
456.02	536.70
456.38	530.45
456.75	522.57
457.12	516.17
457.49	509.70
457.86	503.60
458.23	498.13
458.59	492.22
458.96	486.12
459.33	480.96
459.70	475.46
460.07	471.25
460.43	466.34
460.80	461.37
461.17	457.06
461.54	452.72
461.91	448.45
462.27	443.92
462.64	440.19
463.01	436.16
463.38	432.36
463.74	428.40
464.11	425.06
464.48	421.94
464.85	418.51
465.21	415.87
465.58	413.28
465.95	409.89
466.32	406.98
466.68	404.20
467.05	401.37
467.42	398.55
467.78	395.59
468.15	392.90
468.52	391.10
468.88	388.67
469.25	386.22
469.62	384.51
469.98	382.62
470.35	380.72
470.72	378.97
471.08	376.88
471.45	375.08
471.82	373.19
472.18	371.35
472.55	370.16
472.92	368.53
473.28	367.05
473.65	365.73
474.02	364.30
474.38	362.94
474.75	361.86
475.11	360.78
475.48	359.89
475.85	359.07
476.21	358.20
476.58	357.35
476.94	356.74
477.31	355.92
477.67	355.20
478.04	354.55
478.41	353.97
478.77	353.74
479.14	353.27
479.50	353.00
479.87	352.87
480.23	352.43
480.60	352.08
480.96	351.74
481.33	351.81
481.69	351.93
482.06	352.02
482.42	351.94
482.79	351.97
483.15	352.26
483.52	352.57
483.88	352.77
484.25	353.12
484.61	353.51
484.98	353.87
485.34	354.50
485.71	355.15
486.07	355.73
486.44	356.28
486.80	357.06
487.17	357.92
487.53	358.72
487.90	359.80
488.26	360.93
488.62	362.12
488.99	363.16
489.35	364.27
489.72	365.67
490.08	367.04
490.44	368.32
490.81	369.72
491.17	371.22
491.54	372.83
491.90	374.35
492.26	376.06
492.63	377.77
492.99	379.32
493.36	381.13
493.72	383.05
494.08	384.96
494.45	387.03
494.81	389.02
495.17	391.06
495.54	393.19
495.90	395.45
496.26	397.62
496.63	399.93
496.99	402.39
497.35	404.58
497.72	406.82
498.08	409.35
498.44	411.79
498.80	414.28
499.17	416.67
499.53	418.92
499.89	421.29
500.26	423.78
500.62	426.42
500.98	428.92
501.34	431.48
501.71	434.02
502.07	436.56
502.43	438.99
502.79	441.57
503.16	443.85
503.52	446.15
503.88	448.46
504.24	450.66
504.60	452.78
504.97	455.10
505.33	457.47
505.69	459.74
506.05	462.04
506.41	464.02
506.78	466.28
507.14	468.50
507.50	470.65
507.86	472.56
508.22	474.55
508.59	476.48
508.95	478.35
509.31	480.15
509.67	481.94
510.03	483.76
510.39	485.66
510.75	487.56
511.12	489.44
511.48	491.06
511.84	492.68
512.20	494.14
512.56	495.89
512.92	497.32
513.28	498.84
513.64	499.92
514.00	501.41
514.37	502.45
514.73	503.80
515.09	504.86
515.45	506.05
515.81	507.08
516.17	508.06
516.53	509.07
516.89	509.92
517.25	510.83
517.61	511.93
517.97	512.39
518.33	513.06
518.69	513.57
519.05	514.34
519.41	515.23
519.77	516.40
520.13	516.84
520.49	517.47
520.85	518.00
521.21	518.97
521.57	519.58
521.93	520.25
522.29	520.92
522.65	521.67
523.01	522.34
523.37	522.96
523.73	523.70
524.09	524.19
524.45	525.04
524.81	525.90
525.17	526.64
525.53	527.64
525.89	528.72
526.25	529.89
526.61	530.78
526.97	531.74
527.33	532.42
527.68	533.53
528.04	534.73
528.40	535.92
528.76	537.05
529.12	538.35
529.48	539.89
529.84	541.06
530.20	542.53
530.56	544.02
530.91	545.71
531.27	547.37
531.63	549.25
531.99	550.93
532.35	552.42
532.71	553.97
533.07	555.91
533.42	557.85
533.78	559.54
534.14	561.71
534.50	563.49
534.86	565.68
535.21	567.53
535.57	569.80
535.93	571.83
536.29	574.12
536.65	576.40
537.00	578.54
537.36	580.96
537.72	583.14
538.08	585.81
538.44	588.19
538.79	590.63
539.15	592.87
539.51	595.43
539.87	598.44
540.22	601.28
540.58	603.96
540.94	606.69
541.29	609.60
541.65	612.37
542.01	615.71
542.37	618.74
542.72	621.98
543.08	625.05
543.44	628.29
543.79	631.33
544.15	634.51
544.51	638.01
544.87	641.31
545.22	644.82
545.58	647.96
545.94	651.15
546.29	654.55
546.65	658.23
547.01	661.61
547.36	664.97
547.72	668.39
548.07	671.92
548.43	675.17
548.79	678.65
549.14	682.16
549.50	685.25
549.86	688.52
550.21	691.92
550.57	695.27
550.92	698.73
551.28	702.04
551.64	705.42
551.99	708.72
552.35	712.45
552.70	716.07
553.06	719.86
553.41	723.50
553.77	727.13
554.13	730.64
554.48	734.40
554.84	737.90
555.19	741.37
555.55	744.86
555.90	748.61
556.26	752.06
556.61	755.38
556.97	758.94
557.32	762.44
557.68	766.24
558.03	769.82
558.39	773.38
558.74	777.31
559.10	780.94
559.45	784.32
559.81	787.89
560.16	791.12
560.52	794.24
560.87	797.64
561.23	801.10
561.58	804.81
561.94	808.23
562.29	811.30
562.64	814.58
563.00	817.78
563.35	821.05
563.71	824.39
564.06	827.90
564.42	831.14
564.77	834.32
565.12	837.53
565.48	840.81
565.83	843.92
566.19	846.55
566.54	849.43
566.89	852.46
567.25	855.23
567.60	858.45
567.96	861.46
568.31	864.25
568.66	866.85
569.02	869.14
569.37	871.54
569.72	874.37
570.08	876.76
570.43	879.26
570.78	881.53
571.14	883.58
571.49	885.47
571.84	887.84
572.20	889.83
572.55	891.38
572.90	892.97
573.26	894.88
573.61	896.89
573.96	898.64
574.31	899.76
574.67	900.82
575.02	901.84
575.37	903.08
575.72	903.90
576.08	904.92
576.43	905.95
576.78	907.00
577.13	907.81
577.49	908.86
577.84	909.71
578.19	910.31
578.54	911.28
578.90	911.92
579.25	911.82
579.60	912.36
579.95	912.84
580.30	913.24
580.66	913.25
581.01	913.27
581.36	913.40
581.71	914.11
582.06	914.50
582.42	914.35
582.77	914.14
583.12	914.44
583.47	914.48
583.82	914.53
584.17	914.26
584.53	914.12
584.88	913.89
585.23	913.38
585.58	913.20
585.93	912.56
586.28	912.62
586.63	912.66
586.98	912.30
587.34	912.00
587.69	911.55
588.04	911.30
588.39	910.87
588.74	909.78
589.09	908.95
589.44	908.08
589.79	907.85
590.14	907.22
590.49	906.57
590.84	905.66
591.19	904.85
591.54	903.77
591.89	902.13
592.25	900.93
592.60	899.47
592.95	898.01
593.30	896.70
593.65	895.18
594.00	893.60
594.35	892.27
594.70	890.32
595.05	889.05
595.40	887.09
595.75	885.34
596.10	884.32
596.45	882.87
596.80	881.52
597.15	879.96
597.50	878.52
597.85	876.94
598.19	875.71
598.54	874.20
598.89	872.85
599.24	871.99
599.59	870.52
599.94	869.24
600.29	867.79
600.64	866.31
600.99	864.22
601.34	862.65
601.69	860.86
602.04	859.38
602.39	857.29
602.74	855.94
603.08	854.45
603.43	852.80
603.78	851.06
604.13	849.11
604.48	846.90
604.83	844.98
605.18	843.21
605.53	841.02
605.87	838.58
606.22	836.40
606.57	833.96
606.92	831.88
607.27	829.96
607.62	828.26
607.96	826.50
608.31	824.62
608.66	822.40
609.01	820.04
609.36	817.52
609.70	815.14
610.05	812.48
610.40	809.99
610.75	807.15
611.10	804.37
611.44	801.65
611.79	799.20
612.14	796.46
612.49	793.30
612.83	790.20
613.18	787.50
613.53	784.83
613.88	782.11
614.22	779.21
614.57	776.31
614.92	773.14
615.27	770.31
615.61	767.10
615.96	764.50
616.31	761.80
616.65	759.83
617.00	757.22
617.35	754.70
617.70	751.77
618.04	748.99
618.39	746.23
618.74	743.64
619.08	740.69
619.43	737.85
619.78	735.38
620.12	732.95
620.47	730.23
620.82	727.25
621.16	724.59
621.51	722.00
621.85	719.40
622.20	716.58
622.55	713.49
622.89	711.15
623.24	708.27
623.59	705.81
623.93	702.82
624.28	700.29
624.62	697.67
624.97	695.29
625.32	692.80
625.66	690.40
626.01	687.69
626.35	685.12
626.70	682.56
627.04	679.95
627.39	677.17
627.73	674.42
628.08	671.88
628.43	669.05
628.77	666.23
629.12	663.35
629.46	660.59
629.81	657.84
630.15	655.00
630.50	652.32
630.84	649.07
631.19	646.14
631.53	643.11
631.88	640.00
632.22	636.80
632.57	634.30
632.91	631.23
633.26	628.48
633.60	625.52
633.95	622.91
634.29	620.22
634.64	617.70
634.98	615.06
635.32	612.62
635.67	610.41
636.01	607.86
636.36	605.15
636.70	602.70
637.05	600.24
637.39	598.00
637.73	595.51
638.08	593.52
638.42	591.05
638.77	588.64
639.11	586.34
639.45	584.01
639.80	581.32
640.14	579.19
640.49	576.80
640.83	574.75
641.17	572.41
641.52	569.80
641.86	567.20
642.20	565.10
642.55	562.51
642.89	560.00
643.23	557.69
643.58	555.71
643.92	553.32
644.26	550.96
644.61	548.60
644.95	546.30
645.29	543.55
645.64	541.23
645.98	539.06
646.32	536.90
646.66	534.63
647.01	532.37
647.35	530.09
647.69	527.74
648.04	525.52
648.38	523.01
648.72	520.56
649.06	518.30
649.41	515.86
649.75	513.69
650.09	511.20
650.43	508.66
650.78	506.09
651.12	503.65
651.46	501.47
651.80	499.22
652.14	497.06
652.49	495.10
652.83	493.01
653.17	490.57
653.51	488.14
653.85	485.91
654.20	483.71
654.54	481.24
654.88	479.10
655.22	476.65
655.56	474.26
655.90	472.29
656.25	470.40
656.59	468.46
656.93	466.36
657.27	464.43
657.61	462.44
657.95	460.52
658.29	458.47
658.64	456.36
658.98	454.20
659.32	451.85
659.66	449.80
660.00	447.73
660.34	445.78
660.68	443.84
661.02	441.78
661.36	439.79
661.70	438.04
662.05	436.22
662.39	434.37
662.73	432.79
663.07	431.06
663.41	429.10
663.75	427.05
664.09	425.19
664.43	423.17
664.77	421.53
665.11	419.72
665.45	418.34
665.79	416.60
666.13	414.86
666.47	413.16
666.81	411.18
667.15	409.28
667.49	407.60
667.83	405.87
668.17	404.23
668.51	402.53
668.85	400.82
669.19	399.25
669.53	397.63
669.87	395.96
670.21	394.41
670.55	392.76
670.89	391.44
671.23	389.98
671.57	388.74
671.91	387.17
672.25	385.60
672.58	384.05
672.92	382.60
673.26	381.24
673.60	380.08
673.94	378.78
674.28	377.49
674.62	376.28
674.96	374.96
675.30	373.68
675.64	372.30
675.97	370.96
676.31	369.57
676.65	368.37
676.99	367.10
677.33	365.75
677.67	364.50
678.01	363.00
678.34	361.67
678.68	360.39
679.02	359.20
679.36	358.15
679.70	356.80
680.04	355.63
680.37	354.43
680.71	353.21
681.05	352.13
681.39	351.02
681.73	349.80
682.06	348.68
682.40	347.56
682.74	346.56
683.08	345.70
683.42	344.69
683.75	343.56
684.09	342.38
684.43	341.32
684.77	340.32
685.10	339.24
685.44	338.21
685.78	337.11
686.12	336.06
686.45	334.89
686.79	333.80
687.13	332.92
687.46	331.74
687.80	330.55
688.14	329.52
688.48	328.57
688.81	327.57
689.15	326.64
689.49	325.70
689.82	324.58
690.16	323.38
690.50	322.30
690.83	321.38
691.17	320.50
691.51	319.50
691.84	318.65
692.18	317.87
692.52	316.86
692.85	315.97
693.19	315.16
693.52	314.31
693.86	313.54
694.20	312.47
694.53	311.70
694.87	311.04
695.21	310.08
695.54	309.19
695.88	308.23
696.21	307.26
696.55	306.57
696.88	305.80
697.22	305.00
697.56	304.19
697.89	303.47
698.23	302.60
698.56	301.92
698.90	301.18
699.23	300.38
699.57	299.57
699.90	298.84
700.24	297.88
700.58	297.02
700.91	296.29
701.25	295.85
701.58	295.29
701.92	294.54
702.25	294.00
702.59	293.26
702.92	292.63
703.26	292.06
703.59	291.23
703.93	290.73
704.26	290.12
704.60	289.57
704.93	288.74
705.26	288.21
705.60	287.51
705.93	286.81
706.27	286.32
706.60	285.89
706.94	285.34
707.27	284.86
707.61	284.38
707.94	283.71
708.27	282.92
708.61	282.07
708.94	281.42
709.28	280.76
709.61	280.32
709.94	279.77
710.28	279.17
710.61	278.65
710.95	277.97
711.28	277.50
711.61	276.81
711.95	276.40
712.28	275.82
712.61	275.33
712.95	274.85
713.28	274.33
713.61	273.59
713.95	273.04
714.28	272.42
714.61	271.90
714.95	271.46
715.28	270.96
715.61	270.57
715.95	270.09
716.28	269.65
716.61	269.07
716.95	268.64
717.28	268.16
717.61	267.68
717.94	267.12
718.28	266.61
718.61	266.28
718.94	265.89
719.27	265.51
719.61	265.16
719.94	264.69
720.27	264.13
720.60	263.81
720.94	263.39
721.27	263.11
721.60	262.77
721.93	262.40
722.27	262.03
722.60	261.81
722.93	261.32
723.26	260.98
723.59	260.66
723.93	260.22
724.26	260.02
724.59	259.72
724.92	259.50
725.25	259.13
725.59	258.88
725.92	258.61
726.25	258.34
726.58	257.89
726.91	257.60
727.24	257.33
727.57	257.10
727.91	256.74
728.24	256.50
728.57	256.19
728.90	255.92
729.23	255.58
729.56	255.24
729.89	255.16
730.22	254.94
730.55	254.75
730.89	254.62
731.22	254.30
731.55	254.01
731.88	253.78
732.21	253.60
732.54	253.39
732.87	253.06
733.20	252.78
733.53	252.64
733.86	252.53
734.19	252.35
734.52	252.26
734.85	252.23
735.18	251.98
735.51	251.90
735.84	251.78
736.17	251.57
736.50	251.33
736.83	251.37
737.16	251.20
737.49	250.97
737.82	250.78
738.15	250.53
738.48	250.30
738.81	250.03
739.14	249.76
739.47	249.41
739.80	249.29
740.13	249.08
740.46	248.91
740.79	248.55
741.12	248.36
741.45	248.10
741.78	247.79
742.11	247.64
742.44	247.41
742.77	247.09
743.10	247.00
743.43	246.75
743.75	246.38
744.08	246.37
744.41	246.20
744.74	245.97
745.07	245.80
745.40	245.77
745.73	245.76
746.06	245.61
746.39	245.52
746.71	245.30
747.04	245.16
747.37	244.87
747.70	244.80
748.03	244.49
748.36	244.29
748.68	244.09
749.01	243.77
749.34	243.53
749.67	243.50
750.00	243.33
750.33	243.30
750.65	243.08
750.98	242.66
751.31	242.41
751.64	242.23
751.97	242.20
752.29	241.99
752.62	241.64
752.95	241.48
753.28	241.24
753.60	241.00
753.93	240.79
754.26	240.64
754.59	240.40
754.91	240.30
755.24	240.19
755.57	240.03
755.90	239.85
756.22	239.61
756.55	239.24
756.88	239.05
757.20	238.72
757.53	238.40
757.86	238.14
758.19	238.00
758.51	237.92
758.84	237.64
759.17	237.52
759.49	237.48
759.82	237.49
760.15	237.34
760.47	237.33
760.80	237.19
761.13	237.10
761.45	236.96
761.78	236.75
762.11	236.50
762.43	236.35
762.76	236.26
763.08	236.15
763.41	236.17
763.74	236.04
764.06	235.96
764.39	236.01
764.71	235.93
765.04	235.91
765.37	235.76
765.69	235.69
766.02	235.43
766.34	235.30
766.67	235.05
767.00	235.10
767.32	235.06
767.65	235.16
767.97	235.04
768.30	235.00
768.62	235.01
768.95	235.03
769.27	235.01
769.60	235.02
769.92	235.00
770.25	234.85
770.57	234.82
770.90	234.74
771.22	234.58
771.55	234.61
771.87	234.51
772.20	234.46
772.52	234.62
772.85	234.88
773.17	234.73
773.50	234.68
773.82	234.53
774.15	234.46
774.47	234.30
774.80	234.31
775.12	234.24
775.45	234.22
775.77	234.25
776.09	234.25
776.42	234.18
776.74	234.25
777.07	234.30
777.39	234.18
777.72	234.16
778.04	234.16
778.36	234.08
778.69	234.04
779.01	234.02
779.33	233.75
779.66	233.62
779.98	233.64
780.31	233.66
780.63	233.75
780.95	233.66
781.28	233.63
781.60	233.57
781.92	233.49
782.25	233.44
782.57	233.38
782.89	233.37
783.22	233.43
783.54	233.33
783.86	233.33
784.19	233.37
784.51	233.43
784.83	233.44
785.16	233.51
785.48	233.45
785.80	233.43
786.12	233.49
786.45	233.36
786.77	233.34
787.09	233.33
787.42	233.16
787.74	233.18
788.06	233.20
788.38	233.14
788.71	233.12
789.03	233.00
789.35	232.96
789.67	232.83
789.99	232.80
790.32	232.72
790.64	232.66
790.96	232.79
791.28	232.69
791.61	232.66
791.93	232.57
792.25	232.55
792.57	232.60
792.89	232.43
793.21	232.40
793.54	232.34
793.86	232.21
794.18	232.23
794.50	232.11
794.82	231.87
795.14	231.86
795.47	231.84
795.79	231.96
796.11	231.80
796.43	231.65
796.75	231.57
797.07	231.48
797.39	231.41
797.71	231.27
798.04	231.22
798.36	231.16
798.68	231.09
799.00	231.02
799.32	230.85
799.64	230.84
799.96	230.83
800.28	230.85
800.60	230.82
800.92	230.76
801.24	230.70
801.56	230.76
801.89	230.61
802.21	230.59
802.53	230.49
802.85	230.53
803.17	230.73
803.49	230.56
803.81	230.49
804.13	230.33
804.45	230.25
804.77	230.21
805.09	230.20
805.41	230.23
805.73	230.18
806.05	230.19
806.37	230.27
806.69	230.17
807.01	230.11
807.33	230.08
807.65	230.03
807.97	230.04
808.28	230.06
808.60	230.19
808.92	230.11
809.24	230.23
809.56	230.25
809.88	230.13
810.20	230.16
810.52	230.25
810.84	230.31
811.16	230.18
811.48	230.20
811.80	230.22
812.12	230.20
812.43	230.25
812.75	230.22
813.07	230.11
813.39	230.07
813.71	230.02
814.03	230.04
814.35	230.11
814.67	230.10
814.98	230.09
815.30	230.01
815.62	230.07
815.94	229.87
816.26	229.95
816.58	229.99
816.89	230.12
817.21	230.10
817.53	230.14
817.85	230.24
818.17	230.14
818.48	230.16
818.80	230.22
819.12	230.10
819.44	230.14
819.76	230.13
820.07	230.19
820.39	230.22
820.71	230.18
821.03	230.18
821.34	230.15
821.66	230.16
821.98	230.26
822.30	230.27
822.61	230.39
822.93	230.24
823.25	230.21
823.57	230.02
823.88	230.06
824.20	229.95
824.52	230.05
824.83	230.12
825.15	229.98
825.47	229.98
825.79	230.03
826.10	229.94
826.42	229.93
826.74	229.92
827.05	229.91
827.37	229.94
827.69	229.88
828.00	229.91
828.32	229.97
828.64	229.91
828.95	230.01
829.27	230.02
829.58	229.90
829.90	229.90
830.22	230.03
830.53	229.96
830.85	230.05
831.17	229.87
831.48	229.72
831.80	229.84
832.11	229.76
832.43	229.62
832.75	229.64
833.06	229.67
833.38	229.57
833.69	229.52
834.01	229.50
834.32	229.38
834.64	229.27
834.96	229.21
835.27	229.16
835.59	229.07
835.90	228.85
836.22	228.85
836.53	228.79
836.85	228.71
837.16	228.88
837.48	228.77
837.79	228.83
838.11	228.86
838.42	228.80
838.74	228.78
839.05	228.84
839.37	228.78
839.68	228.62
840.00	228.67
840.31	228.62
840.63	228.58
840.94	228.62
841.26	228.65
841.57	228.53
841.88	228.47
842.20	228.35
842.51	228.39
842.83	228.45
843.14	228.53
843.46	228.53
843.77	228.33
844.08	228.34
844.40	228.20
844.71	228.18
845.03	228.10
845.34	228.11
845.65	228.04
845.97	228.11
846.28	228.20
846.60	228.15
846.91	228.14
847.22	228.12
847.54	228.13
847.85	228.14
848.16	228.10
848.48	228.13
848.79	228.19
849.10	228.20
849.42	228.13
849.73	228.03
850.04	228.04
850.36	228.06
850.67	228.18
850.98	228.26
851.30	228.32
851.61	228.36
851.92	228.46
852.23	228.59
852.55	228.60
852.86	228.52
853.17	228.62
853.49	228.70
853.80	228.81
854.11	228.84
854.42	228.80
854.74	228.87
855.05	228.84
855.36	228.77
855.67	228.82
855.99	228.90
856.30	229.10
856.61	229.10
856.92	229.09
857.23	229.00
857.55	228.97
857.86	229.04
858.17	229.07
858.48	228.88
858.79	228.81
859.11	228.79
859.42	228.92
859.73	228.97
860.04	229.03
860.35	228.98
860.66	228.95
860.98	229.00
861.29	228.97
861.60	229.07
861.91	229.14
862.22	229.23
862.53	229.19
862.84	228.97
863.16	228.95
863.47	228.95
863.78	228.94
864.09	229.06
864.40	229.05
864.71	229.04
865.02	229.04
865.33	229.05
865.64	229.00
865.95	228.97
866.27	229.09
866.58	229.01
866.89	228.98
867.20	229.07
867.51	228.96
867.82	229.00
868.13	228.90
868.44	228.84
868.75	228.78
869.06	228.81
869.37	228.91
869.68	228.92
869.99	228.99
870.30	228.99
870.61	228.93
870.92	228.86
871.23	228.81
871.54	228.86
871.85	228.82
872.16	228.88
872.47	228.78
872.78	228.57
873.09	228.52
873.40	228.51
873.71	228.43
874.02	228.53
874.33	228.50
874.64	228.46
874.95	228.53
875.26	228.52
875.56	228.50
875.87	228.38
876.18	228.28
876.49	228.32
876.80	228.30
877.11	228.19
877.42	228.14
877.73	228.19
878.04	228.15
878.35	228.24
878.66	228.11
878.96	228.15
879.27	228.03
879.58	228.04
879.89	227.99
880.20	228.04
880.51	227.90
880.82	227.81
881.12	227.83
881.43	227.71
881.74	227.58
882.05	227.55
882.36	227.47
882.67	227.42
882.97	227.16
883.28	227.14
883.59	227.06
883.90	227.15
884.21	227.11
884.51	227.04
884.82	227.00
885.13	227.09
885.44	227.12
885.74	227.13
886.05	227.16
886.36	227.11
886.67	226.97
886.98	227.16
887.28	227.21
887.59	227.26
887.90	227.34
888.20	227.36
888.51	227.32
888.82	227.33
889.13	227.43
889.43	227.68
889.74	227.70
890.05	227.75
890.35	227.76
890.66	227.79
890.97	227.88
891.28	227.87
891.58	227.93
891.89	227.87
892.20	227.87
892.50	227.83
892.81	227.90
893.12	227.96
893.42	227.89
893.73	228.00
894.04	228.07
894.34	228.09
894.65	228.20
894.95	228.36
895.26	228.44
895.57	228.59
895.87	228.49
896.18	228.58
896.48	228.69
896.79	228.66
897.10	228.68
897.40	228.66
897.71	228.69
898.01	228.64
898.32	228.72
898.63	228.89
898.93	228.97
899.24	228.94
899.54	228.96
899.85	228.95
900.15	228.90
900.46	228.81
900.76	228.89
901.07	228.76
901.38	228.65
901.68	228.72
901.99	228.59
902.29	228.55
902.60	228.60
902.90	228.66
903.21	228.66
903.51	228.79
903.82	228.89
904.12	228.92
904.43	229.03
904.73	229.05
905.03	229.02
905.34	229.28
905.64	229.37
905.95	229.40
906.25	229.40
906.56	229.35
906.86	229.38
907.17	229.29
907.47	229.38
907.77	229.37
908.08	229.29
908.38	229.24
908.69	229.26
908.99	229.21
909.30	229.13
909.60	229.10
909.90	229.09
910.21	228.98
910.51	228.95
910.81	228.82
911.12	228.85
911.42	228.76
911.73	228.50
912.03	228.50
912.33	228.49
912.64	228.48
912.94	228.49
913.24	228.45
913.55	228.44
913.85	228.39
914.15	228.37
914.46	228.32
914.76	228.37
915.06	228.37
915.37	228.24
915.67	228.19
915.97	228.20
916.27	228.10
916.58	228.13
916.88	228.00
917.18	228.04
917.49	228.09
917.79	228.13
918.09	228.01
918.39	228.00
918.70	228.04
919.00	227.98
919.30	228.03
919.60	228.03
919.91	228.00
920.21	227.97
920.51	228.00
920.81	227.93
921.12	228.01
921.42	227.98
921.72	228.02
922.02	228.02
922.32	227.98
922.63	227.87
922.93	227.99
923.23	228.14
923.53	228.10
923.83	228.00
924.13	228.01
924.44	228.04
924.74	228.06
925.04	228.05
925.34	228.09
925.64	227.96
925.94	227.98
926.24	228.11
926.55	228.18
926.85	228.16
927.15	228.26
927.45	228.19
927.75	228.24
928.05	228.30
928.35	228.32
928.65	228.44
928.95	228.45
929.26	228.30
929.56	228.33
929.86	228.37
930.16	228.36
930.46	228.34
930.76	228.41
931.06	228.40
931.36	228.34
931.66	228.55
931.96	228.66
932.26	228.77
932.56	228.72
932.86	228.80
933.16	228.87
933.46	228.90
933.76	228.97
934.06	229.11
934.36	229.20
934.66	229.29
934.96	229.21
935.26	229.38
935.56	229.63
935.86	229.60
936.16	229.64
936.46	229.61
936.76	229.63
937.06	229.60
937.36	229.57
937.66	229.68
937.96	229.54
938.26	229.56
938.56	229.51
938.86	229.55
939.16	229.54
939.46	229.53
939.76	229.64
940.06	229.67
940.35	229.49
940.65	229.36
940.95	229.36
941.25	229.29
941.55	229.27
941.85	229.14
942.15	229.15
942.45	229.08
942.75	229.10
943.04	229.10
943.34	229.14
943.64	229.12
943.94	229.07
944.24	229.02
944.54	229.06
944.84	229.07
945.13	229.04
945.43	229.09
945.73	229.11
946.03	229.02
946.33	228.96
946.62	228.93
946.92	228.93
947.22	228.86
947.52	228.87
947.82	228.73
948.11	228.61
948.41	228.60
948.71	228.53
949.01	228.41
949.31	228.40
949.60	228.36
949.90	228.36
950.20	228.32
950.50	228.21
950.79	228.09
951.09	228.05
951.39	227.93
951.69	227.77
951.98	227.73
952.28	227.74
952.58	227.64
952.87	227.62
953.17	227.64
953.47	227.58
953.76	227.58
954.06	227.58
954.36	227.54
954.66	227.38
954.95	227.42
955.25	227.60
955.55	227.57
955.84	227.47
956.14	227.45
956.44	227.41
956.73	227.43
957.03	227.43
957.32	227.34
957.62	227.27
957.92	227.28
958.21	227.20
958.51	227.32
958.81	227.33
959.10	227.34
959.40	227.37
959.69	227.38
959.99	227.48
960.29	227.49
960.58	227.57
960.88	227.71
961.17	227.62
961.47	227.49
961.76	227.48
962.06	227.56
962.36	227.60
962.65	227.57
962.95	227.71
963.24	227.77
963.54	227.75
963.83	227.83
964.13	227.82
964.42	227.82
964.72	227.67
965.01	227.66
965.31	227.75
965.60	227.72
965.90	227.90
966.19	227.80
966.49	227.88
966.78	227.87
967.08	227.87
967.37	228.05
967.67	228.13
967.96	228.21
968.26	228.21
968.55	228.24
968.85	228.40
969.14	228.36
969.43	228.29
969.73	228.32
970.02	228.39
970.32	228.39
970.61	228.51
970.91	228.52
971.20	228.54
971.49	228.49
971.79	228.66
972.08	228.45
972.38	228.54
972.67	228.56
972.96	228.62
973.26	228.55
973.55	228.50
973.85	228.40
974.14	228.40
974.43	228.49
974.73	228.44
975.02	228.43
975.31	228.46
975.61	228.49
975.90	228.59
976.19	228.61
976.49	228.65
976.78	228.58
977.07	228.58
977.37	228.61
977.66	228.64
977.95	228.53
978.24	228.67
978.54	228.75
978.83	228.65
979.12	228.58
979.42	228.62
979.71	228.56
980.00	228.60
980.29	228.63
980.59	228.60
980.88	228.60
981.17	228.50
981.46	228.46
981.76	228.42
982.05	228.38
982.34	228.37
982.63	228.35
982.93	228.29
983.22	228.35
983.51	228.39
983.80	228.39
984.09	228.36
984.39	228.29
984.68	228.12
984.97	228.10
985.26	228.03
985.55	228.05
985.85	228.06
986.14	228.03
986.43	227.90
986.72	227.85
987.01	227.72
987.30	227.68
987.59	227.67
987.89	227.69
988.18	227.61
988.47	227.51
988.76	227.53
989.05	227.55
989.34	227.40
989.63	227.40
989.92	227.37
990.22	227.31
990.51	227.31
990.80	227.31
991.09	227.35
991.38	227.47
991.67	227.45
991.96	227.48
992.25	227.51
992.54	227.55
992.83	227.43
993.12	227.49
993.41	227.57
993.70	227.57
993.99	227.62
994.28	227.68
994.58	227.72
994.87	227.60
995.16	227.64
995.45	227.75
995.74	227.60
996.03	227.68
996.32	227.73
996.61	227.76
996.90	227.73
997.19	227.80
997.48	227.76
997.77	227.76
998.06	227.74
998.34	227.70
998.63	227.66
998.92	227.81
999.21	227.92
999.50	227.87
999.79	227.84
1000.08	227.79
1000.37	227.79
1000.66	227.80
1000.95	227.94
1001.24	227.85
1001.53	227.86
1001.82	227.95
1002.11	227.91
1002.40	227.92
1002.68	227.99
1002.97	228.18
1003.26	228.03
1003.55	228.10
1003.84	228.16
1004.13	228.24
1004.42	228.35
1004.71	228.45
1004.99	228.45
1005.28	228.49
1005.57	228.45
1005.86	228.51
1006.15	228.60
1006.44	228.53
1006.72	228.53
1007.01	228.48
1007.30	228.56
1007.59	228.57
1007.88	228.65
1008.17	228.60
1008.45	228.56
1008.74	228.49
1009.03	228.37
1009.32	228.44
1009.60	228.37
1009.89	228.31
1010.18	228.32
1010.47	228.35
1010.76	228.30
1011.04	228.22
1011.33	228.27
1011.62	228.36
1011.91	228.39
1012.19	228.40
1012.48	228.50
1012.77	228.44
1013.05	228.57
1013.34	228.65
1013.63	228.63
1013.92	228.65
1014.20	228.73
1014.49	228.71
1014.78	228.77
1015.06	228.82
1015.35	228.75
1015.64	228.83
1015.92	228.90
1016.21	228.84
1016.50	228.70
1016.78	228.75
1017.07	228.83
1017.36	228.72
1017.64	228.75
1017.93	228.69
1018.22	228.59
1018.50	228.52
1018.79	228.56
1019.08	228.46
1019.36	228.40
1019.65	228.36
1019.93	228.32
1020.22	228.16
1020.51	228.29
1020.79	228.21
1021.08	226.70
1021.36	227.30
1021.65	227.80
1021.94	228.10
1022.22	228.30
1022.51	228.50
1022.79	228.80
1023.08	225.60
1023.36	230.80
1023.65	227.40
>>>>>End Processed Spectral Data<<<<<
