SpectraSuite Data File
++++++++++++++++++++++++++++++++++++
Date: Fri Feb 01 14:35:02 EST 2013
User: group
Dark Spectrum Present: No
Reference Spectrum Present: No
Number of Sampled Component Spectra: 1
Spectrometers: USB2E7196
Integration Time (usec): 70000 (USB2E7196)
Spectra Averaged: 10 (USB2E7196)
Boxcar Smoothing: 10 (USB2E7196)
Correct for Electrical Dark: No (USB2E7196)
Strobe/Lamp Enabled: No (USB2E7196)
Correct for Detector Non-linearity: No (USB2E7196)
Correct for Stray Light: No (USB2E7196)
Number of Pixels in Processed Spectrum: 2048
>>>>>Begin Processed Spectral Data<<<<<
339.09	0.00
339.48	217.50
339.86	218.80
340.24	216.90
340.63	219.70
341.01	224.10
341.39	221.00
341.78	223.50
342.16	226.00
342.54	227.10
342.93	214.36
343.31	225.15
343.69	225.68
344.07	226.10
344.46	226.61
344.84	227.09
345.22	227.19
345.60	227.50
345.99	227.77
346.37	227.86
346.75	227.86
347.13	227.84
347.52	227.86
347.90	227.96
348.28	228.11
348.66	228.27
349.05	228.17
349.43	228.38
349.81	228.53
350.19	228.63
350.57	228.60
350.96	228.54
351.34	228.65
351.72	228.71
352.10	228.80
352.48	228.87
352.87	228.85
353.25	228.95
353.63	229.07
354.01	229.07
354.39	229.20
354.77	229.32
355.15	229.58
355.54	229.70
355.92	229.63
356.30	229.57
356.68	229.81
357.06	229.88
357.44	229.75
357.82	229.69
358.20	229.76
358.58	229.88
358.97	230.02
359.35	230.13
359.73	230.20
360.11	230.28
360.49	230.34
360.87	230.34
361.25	230.51
361.63	230.68
362.01	230.69
362.39	230.71
362.77	230.71
363.15	230.63
363.53	230.58
363.91	230.70
364.29	230.74
364.67	230.43
365.05	230.42
365.43	230.62
365.81	230.70
366.19	230.70
366.57	230.82
366.95	230.79
367.33	230.73
367.71	230.65
368.09	230.69
368.47	230.66
368.85	230.74
369.23	230.65
369.61	230.49
369.99	230.62
370.37	230.57
370.75	230.76
371.13	230.72
371.51	230.72
371.89	230.56
372.27	230.53
372.65	230.48
373.03	230.50
373.41	230.37
373.78	230.27
374.16	230.18
374.54	230.09
374.92	230.00
375.30	229.86
375.68	229.78
376.06	229.69
376.44	229.60
376.82	229.40
377.19	229.28
377.57	229.22
377.95	229.01
378.33	228.90
378.71	228.60
379.09	228.54
379.47	228.43
379.84	228.40
380.22	228.41
380.60	228.31
380.98	228.19
381.36	228.07
381.73	227.99
382.11	227.98
382.49	227.87
382.87	227.66
383.25	227.75
383.62	227.93
384.00	227.74
384.38	227.70
384.76	227.75
385.13	227.92
385.51	227.82
385.89	227.69
386.27	227.67
386.64	227.66
387.02	227.66
387.40	227.73
387.78	227.68
388.15	227.53
388.53	227.61
388.91	227.67
389.29	227.67
389.66	227.70
390.04	227.53
390.42	227.48
390.79	227.58
391.17	227.50
391.55	227.36
391.92	227.46
392.30	227.47
392.68	227.38
393.05	227.27
393.43	227.20
393.81	227.27
394.18	227.29
394.56	227.41
394.94	227.43
395.31	227.28
395.69	227.34
396.06	227.47
396.44	227.51
396.82	227.46
397.19	227.69
397.57	227.70
397.95	227.93
398.32	228.01
398.70	228.18
399.07	228.28
399.45	228.30
399.82	228.37
400.20	228.54
400.58	228.68
400.95	228.84
401.33	229.08
401.70	229.30
402.08	229.47
402.45	229.50
402.83	229.72
403.20	230.01
403.58	230.29
403.95	230.50
404.33	230.83
404.71	231.17
405.08	231.45
405.46	231.86
405.83	232.26
406.21	232.65
406.58	233.04
406.96	233.42
407.33	233.95
407.70	234.36
408.08	234.95
408.45	235.60
408.83	236.06
409.20	236.70
409.58	237.25
409.95	237.95
410.33	238.70
410.70	239.27
411.08	239.98
411.45	240.72
411.82	241.59
412.20	242.37
412.57	243.31
412.95	244.13
413.32	245.16
413.69	246.25
414.07	247.30
414.44	248.59
414.82	249.87
415.19	251.27
415.56	252.77
415.94	254.29
416.31	255.91
416.68	257.73
417.06	259.64
417.43	261.53
417.81	263.66
418.18	265.83
418.55	268.25
418.93	270.81
419.30	273.30
419.67	275.99
420.04	278.96
420.42	281.98
420.79	285.36
421.16	288.78
421.54	292.14
421.91	295.89
422.28	299.62
422.66	303.60
423.03	307.52
423.40	311.67
423.77	315.94
424.15	320.36
424.52	324.99
424.89	329.92
425.26	334.99
425.64	339.44
426.01	344.55
426.38	349.87
426.75	355.17
427.13	360.72
427.50	366.40
427.87	372.21
428.24	378.00
428.61	383.94
428.99	390.14
429.36	397.15
429.73	403.91
430.10	410.54
430.47	417.39
430.85	424.40
431.22	431.77
431.59	439.64
431.96	447.07
432.33	455.49
432.70	463.61
433.08	472.92
433.45	481.95
433.82	490.64
434.19	500.50
434.56	510.32
434.93	519.50
435.30	528.69
435.68	538.79
436.05	548.76
436.42	558.40
436.79	567.53
437.16	577.05
437.53	587.19
437.90	597.38
438.27	607.43
438.64	617.90
439.01	627.51
439.38	636.06
439.75	644.63
440.13	654.04
440.50	663.05
440.87	670.54
441.24	678.27
441.61	687.10
441.98	693.45
442.35	700.59
442.72	708.30
443.09	715.94
443.46	720.87
443.83	724.60
444.20	728.00
444.57	732.39
444.94	735.09
445.31	737.76
445.68	740.36
446.05	742.09
446.42	742.06
446.79	742.12
447.16	742.08
447.53	742.27
447.90	739.67
448.27	737.18
448.64	732.96
449.01	730.73
449.37	724.98
449.74	719.60
450.11	712.96
450.48	705.54
450.85	697.89
451.22	691.50
451.59	685.50
451.96	679.65
452.33	671.32
452.70	663.93
453.07	654.90
453.43	645.66
453.80	636.56
454.17	628.01
454.54	619.88
454.91	611.07
455.28	602.41
455.65	594.28
456.02	585.82
456.38	578.90
456.75	569.67
457.12	562.35
457.49	555.00
457.86	548.03
458.23	542.07
458.59	535.17
458.96	528.20
459.33	521.83
459.70	515.61
460.07	510.56
460.43	504.70
460.80	499.20
461.17	494.34
461.54	489.54
461.91	484.73
462.27	479.78
462.64	475.56
463.01	470.80
463.38	466.18
463.74	461.76
464.11	457.79
464.48	454.35
464.85	450.41
465.21	447.48
465.58	444.30
465.95	440.34
466.32	437.29
466.68	434.06
467.05	430.91
467.42	427.73
467.78	424.53
468.15	421.38
468.52	419.03
468.88	415.97
469.25	413.11
469.62	410.87
469.98	408.53
470.35	406.25
470.72	404.21
471.08	402.12
471.45	400.24
471.82	398.15
472.18	395.80
472.55	394.22
472.92	392.27
473.28	390.60
473.65	389.03
474.02	387.18
474.38	385.90
474.75	384.72
475.11	383.32
475.48	382.17
475.85	381.21
476.21	380.31
476.58	379.54
476.94	378.80
477.31	377.98
477.67	377.06
478.04	376.49
478.41	375.98
478.77	375.55
479.14	374.96
479.50	374.70
479.87	374.58
480.23	374.43
480.60	374.16
480.96	374.00
481.33	374.03
481.69	374.32
482.06	374.19
482.42	374.11
482.79	374.24
483.15	374.60
483.52	375.17
483.88	375.41
484.25	375.83
484.61	376.58
484.98	377.27
485.34	378.31
485.71	379.07
486.07	380.00
486.44	380.82
486.80	381.91
487.17	383.08
487.53	384.51
487.90	385.90
488.26	387.53
488.62	389.02
488.99	390.51
489.35	392.02
489.72	393.82
490.08	395.78
490.44	397.59
490.81	399.56
491.17	401.37
491.54	403.62
491.90	405.70
492.26	407.94
492.63	410.19
492.99	412.28
493.36	414.89
493.72	417.44
494.08	420.04
494.45	422.85
494.81	425.56
495.17	428.29
495.54	431.11
495.90	433.85
496.26	436.80
496.63	439.75
496.99	442.86
497.35	446.23
497.72	449.44
498.08	452.76
498.44	456.15
498.80	459.76
499.17	463.11
499.53	466.45
499.89	469.93
500.26	473.41
500.62	476.73
500.98	480.20
501.34	483.83
501.71	487.52
502.07	490.75
502.43	494.26
502.79	497.82
503.16	501.39
503.52	504.88
503.88	508.20
504.24	511.88
504.60	515.61
504.97	518.93
505.33	522.53
505.69	526.32
506.05	529.77
506.41	532.98
506.78	536.18
507.14	539.64
507.50	542.81
507.86	546.10
508.22	549.64
508.59	552.64
508.95	555.79
509.31	558.99
509.67	562.27
510.03	565.12
510.39	568.11
510.75	571.06
511.12	574.13
511.48	577.15
511.84	579.81
512.20	582.34
512.56	585.09
512.92	587.53
513.28	589.95
513.64	592.41
514.00	594.74
514.37	597.20
514.73	599.50
515.09	601.60
515.45	603.72
515.81	605.77
516.17	607.87
516.53	609.90
516.89	611.61
517.25	613.52
517.61	615.51
517.97	617.33
518.33	618.96
518.69	620.36
519.05	622.00
519.41	623.69
519.77	625.45
520.13	626.88
520.49	628.42
520.85	629.88
521.21	631.17
521.57	632.80
521.93	634.27
522.29	635.83
522.65	637.17
523.01	638.50
523.37	639.69
523.73	641.19
524.09	642.47
524.45	643.81
524.81	645.16
525.17	646.64
525.53	647.90
525.89	649.30
526.25	650.96
526.61	652.10
526.97	653.44
527.33	654.85
527.68	656.32
528.04	657.59
528.40	659.07
528.76	660.92
529.12	662.72
529.48	664.46
529.84	665.99
530.20	667.95
530.56	669.86
530.91	672.08
531.27	673.99
531.63	675.74
531.99	677.66
532.35	679.67
532.71	681.48
533.07	683.41
533.42	685.84
533.78	687.67
534.14	689.91
534.50	691.84
534.86	693.85
535.21	696.03
535.57	698.59
535.93	700.76
536.29	702.83
536.65	705.02
537.00	707.23
537.36	709.61
537.72	711.90
538.08	714.23
538.44	716.41
538.79	718.57
539.15	720.70
539.51	723.29
539.87	725.96
540.22	728.41
540.58	731.20
540.94	733.30
541.29	735.95
541.65	738.55
542.01	741.77
542.37	744.60
542.72	747.30
543.08	750.00
543.44	752.68
543.79	755.41
544.15	758.24
544.51	761.39
544.87	764.25
545.22	767.34
545.58	770.29
545.94	772.92
546.29	776.06
546.65	779.05
547.01	781.80
547.36	784.48
547.72	787.46
548.07	790.43
548.43	793.49
548.79	796.60
549.14	799.48
549.50	802.13
549.86	805.20
550.21	808.22
550.57	811.08
550.92	814.21
551.28	817.07
551.64	819.87
551.99	822.70
552.35	825.61
552.70	828.15
553.06	831.16
553.41	834.35
553.77	837.25
554.13	840.39
554.48	843.45
554.84	846.43
555.19	849.21
555.55	852.18
555.90	854.97
556.26	858.01
556.61	860.99
556.97	863.60
557.32	866.20
557.68	869.15
558.03	872.20
558.39	875.02
558.74	878.13
559.10	880.80
559.45	883.60
559.81	886.93
560.16	889.73
560.52	892.15
560.87	895.13
561.23	897.75
561.58	900.63
561.94	903.16
562.29	905.60
562.64	908.40
563.00	910.91
563.35	913.88
563.71	916.42
564.06	919.28
564.42	922.20
564.77	924.81
565.12	927.23
565.48	929.77
565.83	931.84
566.19	934.29
566.54	936.75
566.89	938.90
567.25	940.90
567.60	943.33
567.96	945.76
568.31	947.70
568.66	949.79
569.02	951.75
569.37	953.75
569.72	955.85
570.08	957.56
570.43	959.14
570.78	960.70
571.14	962.06
571.49	963.85
571.84	965.54
572.20	967.09
572.55	968.49
572.90	969.49
573.26	970.98
573.61	972.27
573.96	973.30
574.31	974.23
574.67	974.60
575.02	975.31
575.37	975.79
575.72	976.21
576.08	977.00
576.43	977.32
576.78	977.79
577.13	978.27
577.49	978.88
577.84	979.35
578.19	979.53
578.54	979.76
578.90	979.29
579.25	978.82
579.60	978.51
579.95	978.23
580.30	977.80
580.66	977.38
581.01	976.67
581.36	976.22
581.71	975.96
582.06	975.87
582.42	975.27
582.77	974.77
583.12	974.44
583.47	973.39
583.82	972.68
584.17	971.92
584.53	971.23
584.88	970.44
585.23	969.64
585.58	968.80
585.93	967.80
586.28	967.15
586.63	966.62
586.98	965.91
587.34	965.18
587.69	964.44
588.04	963.60
588.39	962.93
588.74	961.76
589.09	960.59
589.44	959.12
589.79	958.18
590.14	957.28
590.49	956.00
590.84	954.79
591.19	953.63
591.54	951.77
591.89	949.78
592.25	948.41
592.60	946.56
592.95	944.55
593.30	942.86
593.65	940.99
594.00	939.09
594.35	937.59
594.70	935.26
595.05	933.52
595.40	931.45
595.75	929.14
596.10	927.44
596.45	925.65
596.80	923.99
597.15	922.02
597.50	919.92
597.85	917.85
598.19	915.87
598.54	914.14
598.89	912.77
599.24	911.33
599.59	909.07
599.94	907.15
600.29	905.25
600.64	903.38
600.99	901.14
601.34	898.96
601.69	896.11
602.04	894.03
602.39	891.43
602.74	889.47
603.08	887.48
603.43	885.11
603.78	882.74
604.13	880.44
604.48	877.91
604.83	875.68
605.18	873.59
605.53	871.01
605.87	868.15
606.22	865.66
606.57	862.93
606.92	860.31
607.27	858.09
607.62	855.59
607.96	853.02
608.31	850.60
608.66	847.84
609.01	845.00
609.36	842.31
609.70	839.38
610.05	836.40
610.40	833.40
610.75	830.54
611.10	827.30
611.44	823.82
611.79	821.10
612.14	817.63
612.49	814.16
612.83	811.16
613.18	808.11
613.53	804.75
613.88	801.56
614.22	798.49
614.57	795.01
614.92	791.92
615.27	788.78
615.61	785.67
615.96	782.60
616.31	779.84
616.65	777.05
617.00	774.57
617.35	771.71
617.70	768.42
618.04	765.33
618.39	762.42
618.74	759.82
619.08	756.17
619.43	753.58
619.78	750.95
620.12	747.95
620.47	744.83
620.82	741.87
621.16	738.71
621.51	735.78
621.85	733.04
622.20	730.11
622.55	727.12
622.89	724.12
623.24	721.31
623.59	718.57
623.93	715.71
624.28	712.87
624.62	709.78
624.97	707.40
625.32	704.60
625.66	702.04
626.01	699.17
626.35	696.95
626.70	694.13
627.04	691.11
627.39	688.25
627.73	685.56
628.08	682.86
628.43	680.27
628.77	677.61
629.12	674.44
629.46	671.82
629.81	668.86
630.15	666.05
630.50	663.11
630.84	659.95
631.19	656.83
631.53	653.66
631.88	650.77
632.22	647.56
632.57	644.70
632.91	641.54
633.26	638.65
633.60	635.56
633.95	632.54
634.29	629.68
634.64	627.22
634.98	624.35
635.32	621.67
635.67	618.99
636.01	616.34
636.36	613.84
636.70	610.99
637.05	608.66
637.39	606.09
637.73	603.54
638.08	601.24
638.42	598.74
638.77	596.35
639.11	593.81
639.45	591.26
639.80	588.59
640.14	585.97
640.49	583.38
640.83	580.95
641.17	578.51
641.52	576.02
641.86	573.45
642.20	571.06
642.55	568.77
642.89	566.34
643.23	563.74
643.58	561.55
643.92	559.06
644.26	556.40
644.61	554.08
644.95	551.73
645.29	549.06
645.64	546.66
645.98	544.20
646.32	541.84
646.66	539.37
647.01	537.03
647.35	535.01
647.69	532.70
648.04	530.37
648.38	527.79
648.72	525.37
649.06	522.78
649.41	520.28
649.75	517.53
650.09	514.99
650.43	512.50
650.78	509.70
651.12	507.28
651.46	504.84
651.80	502.46
652.14	500.08
652.49	497.97
652.83	495.70
653.17	493.35
653.51	490.90
653.85	488.67
654.20	486.40
654.54	483.70
654.88	481.18
655.22	478.78
655.56	476.51
655.90	474.27
656.25	472.11
656.59	469.98
656.93	467.81
657.27	465.64
657.61	463.30
657.95	461.45
658.29	459.26
658.64	457.27
658.98	455.03
659.32	452.73
659.66	450.66
660.00	448.28
660.34	446.02
660.68	443.95
661.02	441.77
661.36	439.86
661.70	438.09
662.05	436.38
662.39	434.52
662.73	432.58
663.07	430.72
663.41	428.83
663.75	426.86
664.09	425.11
664.43	423.27
664.77	421.59
665.11	419.84
665.45	418.18
665.79	416.40
666.13	414.54
666.47	412.87
666.81	411.03
667.15	409.50
667.49	407.85
667.83	406.21
668.17	404.64
668.51	402.78
668.85	400.96
669.19	399.52
669.53	397.90
669.87	396.32
670.21	394.83
670.55	393.34
670.89	392.19
671.23	390.76
671.57	389.30
671.91	388.06
672.25	386.41
672.58	384.97
672.92	383.52
673.26	382.14
673.60	380.71
673.94	379.41
674.28	378.10
674.62	376.99
674.96	375.78
675.30	374.57
675.64	373.36
675.97	372.21
676.31	370.77
676.65	369.48
676.99	368.50
677.33	367.21
677.67	365.93
678.01	364.48
678.34	363.03
678.68	361.87
679.02	360.52
679.36	359.36
679.70	358.12
680.04	356.96
680.37	355.83
680.71	354.62
681.05	353.35
681.39	352.30
681.73	351.12
682.06	350.01
682.40	348.91
682.74	347.80
683.08	346.73
683.42	345.52
683.75	344.53
684.09	343.24
684.43	342.01
684.77	340.90
685.10	339.78
685.44	338.90
685.78	337.75
686.12	336.66
686.45	335.64
686.79	334.48
687.13	333.36
687.46	332.23
687.80	331.23
688.14	330.21
688.48	329.15
688.81	328.06
689.15	327.09
689.49	326.05
689.82	325.14
690.16	323.99
690.50	323.08
690.83	322.04
691.17	321.03
691.51	320.12
691.84	319.30
692.18	318.36
692.52	317.33
692.85	316.49
693.19	315.59
693.52	314.59
693.86	313.85
694.20	313.04
694.53	312.25
694.87	311.53
695.21	310.60
695.54	309.65
695.88	308.63
696.21	307.68
696.55	306.88
696.88	305.98
697.22	305.28
697.56	304.43
697.89	303.72
698.23	303.00
698.56	302.28
698.90	301.43
699.23	300.62
699.57	299.75
699.90	298.99
700.24	298.20
700.58	297.37
700.91	296.55
701.25	295.82
701.58	295.13
701.92	294.23
702.25	293.57
702.59	292.85
702.92	292.47
703.26	291.82
703.59	291.14
703.93	290.59
704.26	289.89
704.60	289.30
704.93	288.50
705.26	287.64
705.60	286.99
705.93	286.41
706.27	285.84
706.60	285.34
706.94	284.67
707.27	284.02
707.61	283.46
707.94	282.85
708.27	282.16
708.61	281.42
708.94	280.82
709.28	280.13
709.61	279.53
709.94	278.85
710.28	278.15
710.61	277.58
710.95	276.84
711.28	276.47
711.61	275.88
711.95	275.41
712.28	275.00
712.61	274.53
712.95	273.98
713.28	273.55
713.61	273.01
713.95	272.52
714.28	272.10
714.61	271.66
714.95	271.34
715.28	270.96
715.61	270.55
715.95	270.20
716.28	269.85
716.61	269.56
716.95	269.05
717.28	268.72
717.61	268.30
717.94	267.90
718.28	267.22
718.61	266.84
718.94	266.34
719.27	266.04
719.61	265.55
719.94	265.21
720.27	264.70
720.60	264.32
720.94	263.90
721.27	263.48
721.60	263.12
721.93	262.54
722.27	262.29
722.60	262.01
722.93	261.60
723.26	261.42
723.59	260.99
723.93	260.72
724.26	260.39
724.59	259.97
724.92	259.76
725.25	259.60
725.59	259.32
725.92	259.23
726.25	258.83
726.58	258.53
726.91	258.21
727.24	257.98
727.57	257.76
727.91	257.51
728.24	257.21
728.57	256.93
728.90	256.83
729.23	256.52
729.56	256.35
729.89	256.17
730.22	255.76
730.55	255.46
730.89	255.06
731.22	254.83
731.55	254.60
731.88	254.35
732.21	253.98
732.54	253.67
732.87	253.30
733.20	253.13
733.53	253.00
733.86	252.62
734.19	252.34
734.52	252.05
734.85	251.93
735.18	251.81
735.51	251.60
735.84	251.35
736.17	251.15
736.50	250.83
736.83	250.75
737.16	250.51
737.49	250.30
737.82	250.16
738.15	249.98
738.48	249.85
738.81	249.65
739.14	249.51
739.47	249.41
739.80	249.21
740.13	248.98
740.46	248.70
740.79	248.58
741.12	248.35
741.45	248.16
741.78	247.80
742.11	247.55
742.44	247.30
742.77	247.13
743.10	246.77
743.43	246.44
743.75	246.04
744.08	246.17
744.41	245.96
744.74	245.77
745.07	245.51
745.40	245.38
745.73	245.07
746.06	244.89
746.39	244.66
746.71	244.40
747.04	244.22
747.37	243.95
747.70	243.85
748.03	243.60
748.36	243.39
748.68	243.23
749.01	242.99
749.34	242.73
749.67	242.49
750.00	242.37
750.33	242.54
750.65	242.48
750.98	242.08
751.31	241.98
751.64	241.92
751.97	241.90
752.29	241.60
752.62	241.50
752.95	241.35
753.28	241.10
753.60	241.00
753.93	240.98
754.26	240.86
754.59	240.62
754.91	240.54
755.24	240.43
755.57	240.42
755.90	240.26
756.22	240.14
756.55	239.96
756.88	239.74
757.20	239.37
757.53	239.16
757.86	239.03
758.19	238.86
758.51	238.70
758.84	238.46
759.17	238.40
759.49	238.24
759.82	238.18
760.15	238.20
760.47	238.15
760.80	237.82
761.13	237.83
761.45	237.69
761.78	237.57
762.11	237.42
762.43	237.21
762.76	237.12
763.08	237.03
763.41	237.10
763.74	237.15
764.06	237.02
764.39	236.86
764.71	236.69
765.04	236.58
765.37	236.48
765.69	236.36
766.02	236.24
766.34	236.19
766.67	236.04
767.00	236.00
767.32	235.93
767.65	236.03
767.97	235.98
768.30	235.92
768.62	235.83
768.95	235.72
769.27	235.61
769.60	235.65
769.92	235.64
770.25	235.36
770.57	235.25
770.90	235.23
771.22	235.20
771.55	235.21
771.87	235.21
772.20	235.11
772.52	235.21
772.85	235.47
773.17	235.41
773.50	235.42
773.82	235.26
774.15	235.13
774.47	234.91
774.80	234.70
775.12	234.72
775.45	234.72
775.77	234.71
776.09	234.68
776.42	234.60
776.74	234.60
777.07	234.61
777.39	234.52
777.72	234.44
778.04	234.41
778.36	234.29
778.69	234.25
779.01	234.23
779.33	234.14
779.66	233.82
779.98	233.77
780.31	233.68
780.63	233.63
780.95	233.60
781.28	233.60
781.60	233.63
781.92	233.53
782.25	233.44
782.57	233.39
782.89	233.32
783.22	233.25
783.54	233.09
783.86	233.08
784.19	233.12
784.51	233.03
784.83	232.89
785.16	232.81
785.48	232.79
785.80	232.70
786.12	232.64
786.45	232.59
786.77	232.45
787.09	232.30
787.42	232.25
787.74	232.21
788.06	232.17
788.38	232.12
788.71	232.14
789.03	232.03
789.35	232.10
789.67	232.07
789.99	232.06
790.32	232.10
790.64	232.01
790.96	232.02
791.28	232.01
791.61	232.01
791.93	231.96
792.25	231.81
792.57	231.93
792.89	231.79
793.21	231.70
793.54	231.73
793.86	231.71
794.18	231.73
794.50	231.67
794.82	231.62
795.14	231.57
795.47	231.48
795.79	231.53
796.11	231.40
796.43	231.30
796.75	231.17
797.07	231.10
797.39	231.11
797.71	231.05
798.04	230.94
798.36	230.90
798.68	230.86
799.00	230.91
799.32	230.80
799.64	230.86
799.96	230.87
800.28	230.86
800.60	230.85
800.92	230.81
801.24	230.67
801.56	230.63
801.89	230.56
802.21	230.56
802.53	230.57
802.85	230.56
803.17	230.64
803.49	230.61
803.81	230.56
804.13	230.48
804.45	230.38
804.77	230.46
805.09	230.50
805.41	230.55
805.73	230.44
806.05	230.33
806.37	230.32
806.69	230.26
807.01	230.23
807.33	230.23
807.65	230.17
807.97	230.29
808.28	230.26
808.60	230.28
808.92	230.24
809.24	230.27
809.56	230.17
809.88	230.24
810.20	230.27
810.52	230.35
810.84	230.34
811.16	230.34
811.48	230.29
811.80	230.27
812.12	230.24
812.43	230.40
812.75	230.36
813.07	230.29
813.39	230.29
813.71	230.35
814.03	230.36
814.35	230.33
814.67	230.27
814.98	230.17
815.30	230.21
815.62	230.17
815.94	230.10
816.26	230.21
816.58	230.05
816.89	230.03
817.21	229.96
817.53	229.95
817.85	229.91
818.17	229.91
818.48	229.92
818.80	229.93
819.12	229.83
819.44	229.83
819.76	229.80
820.07	229.79
820.39	229.68
820.71	229.53
821.03	229.61
821.34	229.59
821.66	229.76
821.98	229.72
822.30	229.70
822.61	229.86
822.93	229.76
823.25	229.74
823.57	229.72
823.88	229.70
824.20	229.84
824.52	229.92
824.83	229.97
825.15	229.87
825.47	229.80
825.79	229.78
826.10	229.73
826.42	229.68
826.74	229.67
827.05	229.74
827.37	229.80
827.69	229.70
828.00	229.77
828.32	229.70
828.64	229.62
828.95	229.72
829.27	229.60
829.58	229.56
829.90	229.67
830.22	229.60
830.53	229.54
830.85	229.41
831.17	229.35
831.48	229.21
831.80	229.33
832.11	229.31
832.43	229.31
832.75	229.41
833.06	229.61
833.38	229.52
833.69	229.47
834.01	229.53
834.32	229.47
834.64	229.45
834.96	229.46
835.27	229.38
835.59	229.25
835.90	229.18
836.22	229.22
836.53	229.14
836.85	229.13
837.16	229.38
837.48	229.35
837.79	229.26
838.11	229.36
838.42	229.28
838.74	229.24
839.05	229.26
839.37	229.13
839.68	229.00
840.00	229.07
840.31	229.07
840.63	229.00
840.94	229.06
841.26	229.06
841.57	229.12
841.88	229.20
842.20	229.21
842.51	229.15
842.83	229.16
843.14	229.30
843.46	229.31
843.77	229.21
844.08	229.20
844.40	229.25
844.71	229.17
845.03	229.09
845.34	229.11
845.65	228.98
845.97	229.05
846.28	229.05
846.60	229.02
846.91	228.99
847.22	228.98
847.54	228.96
847.85	228.88
848.16	228.73
848.48	228.66
848.79	228.74
849.10	228.80
849.42	228.81
849.73	228.57
850.04	228.59
850.36	228.48
850.67	228.52
850.98	228.51
851.30	228.57
851.61	228.55
851.92	228.57
852.23	228.78
852.55	228.76
852.86	228.79
853.17	228.81
853.49	228.82
853.80	228.90
854.11	228.88
854.42	228.92
854.74	228.89
855.05	229.01
855.36	228.90
855.67	228.92
855.99	228.87
856.30	229.09
856.61	229.14
856.92	229.19
857.23	229.20
857.55	229.21
857.86	229.26
858.17	229.39
858.48	229.35
858.79	229.14
859.11	229.20
859.42	229.14
859.73	229.16
860.04	229.20
860.35	229.06
860.66	229.13
860.98	229.17
861.29	229.23
861.60	229.11
861.91	229.13
862.22	229.16
862.53	229.19
862.84	229.00
863.16	228.95
863.47	228.87
863.78	228.83
864.09	228.79
864.40	228.70
864.71	228.69
865.02	228.75
865.33	228.81
865.64	228.83
865.95	228.84
866.27	228.95
866.58	228.83
866.89	228.96
867.20	228.88
867.51	228.87
867.82	228.88
868.13	228.90
868.44	228.86
868.75	228.91
869.06	228.84
869.37	228.91
869.68	228.91
869.99	228.98
870.30	228.91
870.61	228.88
870.92	228.89
871.23	228.80
871.54	228.77
871.85	228.90
872.16	228.89
872.47	228.87
872.78	228.72
873.09	228.79
873.40	228.79
873.71	228.88
874.02	228.75
874.33	228.70
874.64	228.75
874.95	228.79
875.26	228.66
875.56	228.63
875.87	228.53
876.18	228.52
876.49	228.70
876.80	228.74
877.11	228.73
877.42	228.68
877.73	228.70
878.04	228.66
878.35	228.54
878.66	228.50
878.96	228.44
879.27	228.47
879.58	228.52
879.89	228.44
880.20	228.50
880.51	228.51
880.82	228.54
881.12	228.52
881.43	228.56
881.74	228.58
882.05	228.60
882.36	228.72
882.67	228.75
882.97	228.60
883.28	228.59
883.59	228.62
883.90	228.67
884.21	228.68
884.51	228.68
884.82	228.69
885.13	228.69
885.44	228.81
885.74	228.76
886.05	228.79
886.36	228.86
886.67	228.68
886.98	228.86
887.28	228.93
887.59	228.94
887.90	228.97
888.20	228.92
888.51	228.99
888.82	228.93
889.13	228.96
889.43	229.10
889.74	229.12
890.05	229.15
890.35	229.19
890.66	229.24
890.97	229.25
891.28	229.30
891.58	229.30
891.89	229.29
892.20	229.32
892.50	229.22
892.81	229.21
893.12	229.22
893.42	229.02
893.73	228.96
894.04	228.98
894.34	229.05
894.65	229.09
894.95	229.03
895.26	229.10
895.57	229.11
895.87	228.81
896.18	228.88
896.48	228.91
896.79	228.89
897.10	228.90
897.40	228.97
897.71	228.88
898.01	228.83
898.32	228.75
898.63	228.65
898.93	228.67
899.24	228.56
899.54	228.64
899.85	228.78
900.15	228.74
900.46	228.70
900.76	228.66
901.07	228.63
901.38	228.74
901.68	228.72
901.99	228.60
902.29	228.67
902.60	228.71
902.90	228.69
903.21	228.69
903.51	228.67
903.82	228.68
904.12	228.78
904.43	228.83
904.73	228.86
905.03	228.93
905.34	229.10
905.64	229.04
905.95	228.91
906.25	228.83
906.56	228.79
906.86	228.80
907.17	228.74
907.47	228.83
907.77	228.70
908.08	228.60
908.38	228.60
908.69	228.71
908.99	228.70
909.30	228.61
909.60	228.61
909.90	228.53
910.21	228.42
910.51	228.29
910.81	228.24
911.12	228.27
911.42	228.26
911.73	228.05
912.03	228.20
912.33	228.26
912.64	228.26
912.94	228.27
913.24	228.22
913.55	228.17
913.85	228.07
914.15	228.12
914.46	228.23
914.76	228.26
915.06	228.18
915.37	228.01
915.67	228.10
915.97	228.05
916.27	228.09
916.58	228.12
916.88	228.12
917.18	228.09
917.49	228.18
917.79	228.14
918.09	228.06
918.39	228.01
918.70	228.07
919.00	228.08
919.30	228.25
919.60	228.21
919.91	228.24
920.21	228.30
920.51	228.28
920.81	228.18
921.12	228.21
921.42	228.17
921.72	228.29
922.02	228.23
922.32	228.32
922.63	228.31
922.93	228.42
923.23	228.46
923.53	228.50
923.83	228.37
924.13	228.57
924.44	228.71
924.74	228.77
925.04	228.82
925.34	228.82
925.64	228.68
925.94	228.79
926.24	228.92
926.55	228.92
926.85	229.02
927.15	229.11
927.45	229.10
927.75	229.06
928.05	228.92
928.35	229.01
928.65	228.96
928.95	228.93
929.26	228.91
929.56	228.93
929.86	228.93
930.16	228.95
930.46	228.79
930.76	228.82
931.06	228.79
931.36	228.73
931.66	228.80
931.96	228.91
932.26	228.83
932.56	228.67
932.86	228.63
933.16	228.59
933.46	228.45
933.76	228.45
934.06	228.59
934.36	228.73
934.66	228.60
934.96	228.64
935.26	228.73
935.56	228.68
935.86	228.71
936.16	228.66
936.46	228.69
936.76	228.66
937.06	228.56
937.36	228.64
937.66	228.63
937.96	228.63
938.26	228.43
938.56	228.49
938.86	228.55
939.16	228.60
939.46	228.57
939.76	228.67
940.06	228.59
940.35	228.50
940.65	228.34
940.95	228.42
941.25	228.34
941.55	228.29
941.85	228.24
942.15	228.20
942.45	228.23
942.75	228.10
943.04	228.08
943.34	228.12
943.64	227.96
943.94	227.92
944.24	227.87
944.54	227.96
944.84	227.94
945.13	227.87
945.43	227.79
945.73	227.70
946.03	227.60
946.33	227.65
946.62	227.57
946.92	227.63
947.22	227.58
947.52	227.62
947.82	227.60
948.11	227.58
948.41	227.44
948.71	227.45
949.01	227.53
949.31	227.54
949.60	227.42
949.90	227.37
950.20	227.40
950.50	227.39
950.79	227.38
951.09	227.31
951.39	227.34
951.69	227.39
951.98	227.46
952.28	227.56
952.58	227.52
952.87	227.56
953.17	227.54
953.47	227.47
953.76	227.37
954.06	227.37
954.36	227.39
954.66	227.47
954.95	227.50
955.25	227.53
955.55	227.57
955.84	227.57
956.14	227.68
956.44	227.59
956.73	227.49
957.03	227.48
957.32	227.70
957.62	227.65
957.92	227.68
958.21	227.65
958.51	227.82
958.81	227.90
959.10	228.02
959.40	228.18
959.69	228.26
959.99	228.38
960.29	228.39
960.58	228.36
960.88	228.47
961.17	228.52
961.47	228.51
961.76	228.43
962.06	228.62
962.36	228.54
962.65	228.66
962.95	228.80
963.24	228.81
963.54	228.81
963.83	228.92
964.13	228.87
964.42	228.88
964.72	228.76
965.01	228.86
965.31	228.80
965.60	228.77
965.90	228.89
966.19	228.90
966.49	228.95
966.78	228.95
967.08	228.98
967.37	228.99
967.67	228.97
967.96	229.12
968.26	229.10
968.55	229.20
968.85	229.15
969.14	229.09
969.43	229.09
969.73	229.00
970.02	228.97
970.32	228.97
970.61	228.95
970.91	228.87
971.20	228.78
971.49	228.72
971.79	228.69
972.08	228.67
972.38	228.60
972.67	228.59
972.96	228.63
973.26	228.50
973.55	228.50
973.85	228.50
974.14	228.48
974.43	228.45
974.73	228.44
975.02	228.52
975.31	228.60
975.61	228.57
975.90	228.50
976.19	228.46
976.49	228.43
976.78	228.44
977.07	228.43
977.37	228.45
977.66	228.46
977.95	228.31
978.24	228.28
978.54	228.14
978.83	228.23
979.12	228.21
979.42	228.29
979.71	228.20
980.00	228.12
980.29	228.06
980.59	227.98
980.88	228.01
981.17	227.81
981.46	227.79
981.76	227.71
982.05	227.73
982.34	227.58
982.63	227.67
982.93	227.75
983.22	227.74
983.51	227.70
983.80	227.71
984.09	227.77
984.39	227.75
984.68	227.84
984.97	227.76
985.26	227.74
985.55	227.70
985.85	227.69
986.14	227.77
986.43	227.75
986.72	227.76
987.01	227.73
987.30	227.85
987.59	227.80
987.89	227.86
988.18	227.88
988.47	228.00
988.76	227.93
989.05	227.81
989.34	227.81
989.63	227.87
989.92	227.84
990.22	227.83
990.51	227.76
990.80	227.72
991.09	227.64
991.38	227.64
991.67	227.67
991.96	227.70
992.25	227.73
992.54	227.76
992.83	227.73
993.12	227.63
993.41	227.65
993.70	227.77
993.99	227.82
994.28	227.83
994.58	227.83
994.87	227.87
995.16	227.92
995.45	228.01
995.74	227.99
996.03	228.10
996.32	228.17
996.61	228.20
996.90	228.27
997.19	228.35
997.48	228.34
997.77	228.27
998.06	228.28
998.34	228.25
998.63	228.23
998.92	228.30
999.21	228.33
999.50	228.26
999.79	228.22
1000.08	228.30
1000.37	228.25
1000.66	228.10
1000.95	228.19
1001.24	228.19
1001.53	228.17
1001.82	228.16
1002.11	228.13
1002.40	228.10
1002.68	228.23
1002.97	228.37
1003.26	228.28
1003.55	228.37
1003.84	228.40
1004.13	228.42
1004.42	228.40
1004.71	228.46
1004.99	228.55
1005.28	228.65
1005.57	228.67
1005.86	228.52
1006.15	228.51
1006.44	228.54
1006.72	228.79
1007.01	228.65
1007.30	228.60
1007.59	228.53
1007.88	228.62
1008.17	228.56
1008.45	228.59
1008.74	228.51
1009.03	228.39
1009.32	228.38
1009.60	228.33
1009.89	228.27
1010.18	228.22
1010.47	228.25
1010.76	228.09
1011.04	227.98
1011.33	227.91
1011.62	228.00
1011.91	228.02
1012.19	227.98
1012.48	228.00
1012.77	227.95
1013.05	228.00
1013.34	228.04
1013.63	227.93
1013.92	227.82
1014.20	227.72
1014.49	227.69
1014.78	227.63
1015.06	227.66
1015.35	227.71
1015.64	227.70
1015.92	227.72
1016.21	227.70
1016.50	227.73
1016.78	227.83
1017.07	227.86
1017.36	227.82
1017.64	227.87
1017.93	227.95
1018.22	227.91
1018.50	227.89
1018.79	227.80
1019.08	227.70
1019.36	227.80
1019.65	227.91
1019.93	227.96
1020.22	227.97
1020.51	228.04
1020.79	228.10
1021.08	227.60
1021.36	228.30
1021.65	227.00
1021.94	226.90
1022.22	229.60
1022.51	227.90
1022.79	229.00
1023.08	226.20
1023.36	229.80
1023.65	228.60
>>>>>End Processed Spectral Data<<<<<
