SpectraSuite Data File
++++++++++++++++++++++++++++++++++++
Date: Fri Feb 01 14:38:19 EST 2013
User: group
Dark Spectrum Present: No
Reference Spectrum Present: No
Number of Sampled Component Spectra: 1
Spectrometers: USB2E7196
Integration Time (usec): 70000 (USB2E7196)
Spectra Averaged: 10 (USB2E7196)
Boxcar Smoothing: 10 (USB2E7196)
Correct for Electrical Dark: No (USB2E7196)
Strobe/Lamp Enabled: No (USB2E7196)
Correct for Detector Non-linearity: No (USB2E7196)
Correct for Stray Light: No (USB2E7196)
Number of Pixels in Processed Spectrum: 2048
>>>>>Begin Processed Spectral Data<<<<<
339.09	0.00
339.48	215.70
339.86	216.10
340.24	217.10
340.63	218.50
341.01	222.70
341.39	221.80
341.78	223.10
342.16	226.20
342.54	226.40
342.93	213.51
343.31	224.40
343.69	224.95
344.07	225.45
344.46	225.91
344.84	226.33
345.22	226.50
345.60	226.79
345.99	227.01
346.37	227.04
346.75	227.15
347.13	227.20
347.52	227.29
347.90	227.43
348.28	227.50
348.66	227.62
349.05	227.61
349.43	227.71
349.81	227.90
350.19	228.03
350.57	228.20
350.96	228.30
351.34	228.22
351.72	228.30
352.10	228.34
352.48	228.48
352.87	228.60
353.25	228.78
353.63	228.85
354.01	228.91
354.39	229.02
354.77	229.05
355.15	229.19
355.54	229.23
355.92	229.17
356.30	229.29
356.68	229.62
357.06	229.72
357.44	229.80
357.82	229.83
358.20	229.80
358.58	229.74
358.97	229.82
359.35	230.14
359.73	230.19
360.11	230.38
360.49	230.39
360.87	230.42
361.25	230.38
361.63	230.52
362.01	230.51
362.39	230.58
362.77	230.66
363.15	230.71
363.53	230.89
363.91	230.95
364.29	230.97
364.67	230.76
365.05	230.72
365.43	230.64
365.81	230.74
366.19	230.96
366.57	231.01
366.95	230.89
367.33	230.70
367.71	230.67
368.09	230.61
368.47	230.70
368.85	230.71
369.23	230.81
369.61	230.63
369.99	230.76
370.37	230.76
370.75	230.86
371.13	230.75
371.51	230.63
371.89	230.57
372.27	230.56
372.65	230.41
373.03	230.39
373.41	230.37
373.78	230.20
374.16	229.90
374.54	229.84
374.92	229.76
375.30	229.68
375.68	229.63
376.06	229.65
376.44	229.49
376.82	229.37
377.19	229.30
377.57	229.24
377.95	229.00
378.33	228.94
378.71	228.83
379.09	228.85
379.47	228.74
379.84	228.66
380.22	228.48
380.60	228.45
380.98	228.43
381.36	228.30
381.73	228.23
382.11	228.26
382.49	228.22
382.87	228.20
383.25	228.10
383.62	228.20
384.00	228.07
384.38	227.94
384.76	227.90
385.13	227.88
385.51	227.92
385.89	227.91
386.27	227.86
386.64	227.71
387.02	227.51
387.40	227.50
387.78	227.43
388.15	227.47
388.53	227.33
388.91	227.25
389.29	227.20
389.66	227.10
390.04	227.06
390.42	227.01
390.79	226.96
391.17	227.02
391.55	226.75
391.92	226.63
392.30	226.69
392.68	226.58
393.05	226.49
393.43	226.34
393.81	226.36
394.18	226.23
394.56	226.22
394.94	226.25
395.31	226.24
395.69	226.20
396.06	226.21
396.44	226.30
396.82	226.29
397.19	226.55
397.57	226.70
397.95	226.77
398.32	226.94
398.70	227.07
399.07	227.06
399.45	227.20
399.82	227.36
400.20	227.44
400.58	227.55
400.95	227.59
401.33	227.77
401.70	227.97
402.08	228.09
402.45	228.26
402.83	228.50
403.20	228.67
403.58	228.84
403.95	228.94
404.33	229.09
404.71	229.36
405.08	229.55
405.46	229.67
405.83	229.90
406.21	229.88
406.58	230.03
406.96	230.24
407.33	230.43
407.70	230.68
408.08	231.00
408.45	231.28
408.83	231.69
409.20	231.99
409.58	232.21
409.95	232.62
410.33	232.92
410.70	233.20
411.08	233.45
411.45	233.90
411.82	234.35
412.20	234.84
412.57	235.31
412.95	235.67
413.32	236.28
413.69	236.86
414.07	237.51
414.44	238.04
414.82	238.73
415.19	239.47
415.56	240.16
415.94	240.85
416.31	241.74
416.68	242.58
417.06	243.51
417.43	244.40
417.81	245.40
418.18	246.32
418.55	247.40
418.93	248.69
419.30	249.79
419.67	250.98
420.04	252.34
420.42	253.66
420.79	255.22
421.16	256.79
421.54	258.31
421.91	260.00
422.28	261.83
422.66	263.67
423.03	265.47
423.40	267.28
423.77	269.16
424.15	271.09
424.52	272.90
424.89	275.12
425.26	277.17
425.64	279.17
426.01	281.40
426.38	283.72
426.75	285.95
427.13	288.46
427.50	291.00
427.87	293.49
428.24	296.22
428.61	298.66
428.99	301.32
429.36	304.30
429.73	307.11
430.10	309.95
430.47	312.95
430.85	316.00
431.22	319.29
431.59	322.97
431.96	326.16
432.33	329.99
432.70	333.37
433.08	337.43
433.45	341.23
433.82	345.15
434.19	349.38
434.56	353.59
434.93	357.40
435.30	361.36
435.68	365.80
436.05	369.98
436.42	374.06
436.79	377.90
437.16	381.91
437.53	386.42
437.90	390.76
438.27	394.76
438.64	399.17
439.01	403.35
439.38	406.85
439.75	410.35
440.13	414.12
440.50	417.99
440.87	421.12
441.24	424.34
441.61	427.94
441.98	430.40
442.35	433.61
442.72	436.81
443.09	439.98
443.46	441.73
443.83	442.91
444.20	444.28
444.57	446.05
444.94	446.96
445.31	447.80
445.68	448.80
446.05	449.45
446.42	449.22
446.79	448.87
447.16	448.66
447.53	448.60
447.90	447.40
448.27	446.20
448.64	444.38
449.01	443.21
449.37	440.63
449.74	438.37
450.11	435.39
450.48	432.19
450.85	428.69
451.22	425.84
451.59	423.29
451.96	420.63
452.33	417.00
452.70	413.77
453.07	409.85
453.43	405.82
453.80	402.00
454.17	398.23
454.54	394.67
454.91	390.71
455.28	386.98
455.65	383.35
456.02	379.80
456.38	376.61
456.75	372.74
457.12	369.50
457.49	366.16
457.86	362.84
458.23	360.09
458.59	357.09
458.96	354.18
459.33	351.41
459.70	348.69
460.07	346.37
460.43	343.87
460.80	341.45
461.17	339.28
461.54	337.08
461.91	335.00
462.27	332.69
462.64	330.88
463.01	328.84
463.38	327.00
463.74	324.78
464.11	323.08
464.48	321.58
464.85	319.78
465.21	318.57
465.58	317.10
465.95	315.42
466.32	314.02
466.68	312.44
467.05	311.08
467.42	309.60
467.78	308.22
468.15	306.81
468.52	305.80
468.88	304.33
469.25	303.00
469.62	301.98
469.98	300.94
470.35	299.83
470.72	298.75
471.08	297.61
471.45	296.81
471.82	295.77
472.18	294.56
472.55	293.77
472.92	292.71
473.28	291.91
473.65	291.08
474.02	290.17
474.38	289.50
474.75	288.85
475.11	288.17
475.48	287.50
475.85	286.98
476.21	286.32
476.58	285.83
476.94	285.40
477.31	284.90
477.67	284.33
478.04	283.82
478.41	283.44
478.77	283.21
479.14	282.65
479.50	282.31
479.87	282.13
480.23	281.79
480.60	281.47
480.96	281.18
481.33	280.91
481.69	280.70
482.06	280.40
482.42	280.24
482.79	280.02
483.15	279.93
483.52	279.90
483.88	279.67
484.25	279.58
484.61	279.62
484.98	279.49
485.34	279.58
485.71	279.57
486.07	279.55
486.44	279.42
486.80	279.51
487.17	279.52
487.53	279.54
487.90	279.76
488.26	280.07
488.62	280.32
488.99	280.43
489.35	280.64
489.72	280.98
490.08	281.02
490.44	281.33
490.81	281.52
491.17	281.70
491.54	282.07
491.90	282.40
492.26	282.41
492.63	282.69
492.99	282.95
493.36	283.20
493.72	283.57
494.08	283.96
494.45	284.41
494.81	284.92
495.17	285.29
495.54	285.67
495.90	285.93
496.26	286.17
496.63	286.82
496.99	287.29
497.35	287.55
497.72	288.04
498.08	288.37
498.44	288.80
498.80	289.35
499.17	289.69
499.53	290.02
499.89	290.53
500.26	291.00
500.62	291.37
500.98	291.86
501.34	292.31
501.71	292.72
502.07	293.07
502.43	293.38
502.79	293.71
503.16	293.98
503.52	294.35
503.88	294.67
504.24	294.82
504.60	295.18
504.97	295.49
505.33	295.68
505.69	296.10
506.05	296.47
506.41	296.70
506.78	297.14
507.14	297.40
507.50	297.85
507.86	298.14
508.22	298.42
508.59	298.78
508.95	299.16
509.31	299.59
509.67	299.91
510.03	300.20
510.39	300.65
510.75	301.18
511.12	301.67
511.48	302.16
511.84	302.62
512.20	302.91
512.56	303.50
512.92	304.09
513.28	304.61
513.64	305.07
514.00	305.55
514.37	306.10
514.73	306.75
515.09	307.34
515.45	308.03
515.81	308.81
516.17	309.55
516.53	310.26
516.89	310.90
517.25	311.85
517.61	312.94
517.97	313.87
518.33	314.78
518.69	315.86
519.05	317.16
519.41	318.26
519.77	319.71
520.13	321.09
520.49	322.60
520.85	324.13
521.21	325.75
521.57	327.48
521.93	329.25
522.29	331.21
522.65	333.00
523.01	335.01
523.37	337.09
523.73	339.31
524.09	341.49
524.45	343.80
524.81	346.13
525.17	348.51
525.53	351.18
525.89	353.89
526.25	356.59
526.61	359.14
526.97	362.05
527.33	364.96
527.68	368.18
528.04	371.27
528.40	374.43
528.76	377.80
529.12	381.18
529.48	384.48
529.84	387.66
530.20	391.22
530.56	394.91
530.91	398.70
531.27	402.49
531.63	406.40
531.99	410.44
532.35	414.43
532.71	418.47
533.07	422.64
533.42	427.09
533.78	431.41
534.14	436.01
534.50	440.36
534.86	444.94
535.21	449.26
535.57	454.13
535.93	458.99
536.29	463.90
536.65	468.89
537.00	473.97
537.36	479.21
537.72	484.36
538.08	489.37
538.44	494.58
538.79	499.67
539.15	504.84
539.51	510.18
539.87	515.62
540.22	521.13
540.58	526.66
540.94	531.95
541.29	537.45
541.65	542.93
542.01	548.71
542.37	554.29
542.72	559.90
543.08	565.27
543.44	570.73
543.79	576.05
544.15	581.69
544.51	587.58
544.87	593.20
545.22	598.90
545.58	604.75
545.94	610.23
546.29	615.99
546.65	621.77
547.01	627.50
547.36	633.21
547.72	638.86
548.07	644.44
548.43	649.97
548.79	655.34
549.14	660.82
549.50	666.62
549.86	672.10
550.21	677.84
550.57	683.40
550.92	689.00
551.28	694.68
551.64	700.14
551.99	705.53
552.35	711.09
552.70	716.58
553.06	721.95
553.41	727.52
553.77	733.14
554.13	738.45
554.48	743.88
554.84	749.18
555.19	754.55
555.55	759.91
555.90	765.12
556.26	770.51
556.61	775.80
556.97	780.71
557.32	785.89
557.68	790.92
558.03	796.34
558.39	801.29
558.74	806.21
559.10	811.14
559.45	815.98
559.81	821.09
560.16	825.76
560.52	830.49
560.87	835.39
561.23	839.71
561.58	844.58
561.94	848.87
562.29	853.24
562.64	857.70
563.00	862.20
563.35	866.90
563.71	871.63
564.06	876.43
564.42	881.00
564.77	885.42
565.12	889.77
565.48	894.01
565.83	898.29
566.19	902.49
566.54	906.31
566.89	910.30
567.25	914.12
567.60	918.64
567.96	922.88
568.31	926.50
568.66	930.43
569.02	934.27
569.37	938.03
569.72	941.58
570.08	945.03
570.43	948.38
570.78	951.38
571.14	954.12
571.49	956.81
571.84	959.83
572.20	962.46
572.55	964.91
572.90	967.25
573.26	969.70
573.61	972.09
573.96	974.69
574.31	976.60
574.67	978.61
575.02	980.00
575.37	981.65
575.72	983.23
576.08	984.93
576.43	986.20
576.78	987.90
577.13	989.70
577.49	991.14
577.84	992.30
578.19	993.75
578.54	994.83
578.90	995.95
579.25	996.19
579.60	997.03
579.95	997.93
580.30	998.46
580.66	999.10
581.01	999.73
581.36	1000.46
581.71	1001.18
582.06	1001.70
582.42	1002.19
582.77	1002.42
583.12	1002.80
583.47	1003.37
583.82	1003.83
584.17	1004.01
584.53	1004.32
584.88	1004.46
585.23	1004.42
585.58	1004.50
585.93	1004.48
586.28	1004.69
586.63	1004.98
586.98	1005.06
587.34	1005.24
587.69	1005.22
588.04	1005.26
588.39	1004.94
588.74	1004.10
589.09	1003.60
589.44	1002.74
589.79	1002.61
590.14	1002.04
590.49	1001.66
590.84	1000.68
591.19	999.86
591.54	998.52
591.89	996.93
592.25	996.01
592.60	994.90
592.95	993.60
593.30	992.76
593.65	991.09
594.00	989.83
594.35	989.01
594.70	987.20
595.05	986.06
595.40	984.35
595.75	983.00
596.10	981.74
596.45	980.51
596.80	979.73
597.15	978.11
597.50	976.91
597.85	975.58
598.19	974.48
598.54	973.13
598.89	972.18
599.24	971.37
599.59	969.87
599.94	968.47
600.29	967.27
600.64	965.63
600.99	964.09
601.34	962.69
601.69	960.34
602.04	958.86
602.39	956.93
602.74	955.48
603.08	953.99
603.43	952.77
603.78	951.11
604.13	949.10
604.48	947.36
604.83	945.49
605.18	943.24
605.53	940.81
605.87	938.30
606.22	935.88
606.57	933.32
606.92	931.18
607.27	929.58
607.62	927.26
607.96	925.33
608.31	923.49
608.66	921.12
609.01	919.01
609.36	916.31
609.70	913.59
610.05	911.35
610.40	908.67
610.75	905.70
611.10	903.23
611.44	900.13
611.79	897.33
612.14	894.26
612.49	891.33
612.83	888.38
613.18	885.36
613.53	882.52
613.88	879.33
614.22	876.07
614.57	872.66
614.92	869.44
615.27	866.25
615.61	862.81
615.96	859.68
616.31	856.82
616.65	854.27
617.00	851.54
617.35	848.31
617.70	845.18
618.04	841.50
618.39	838.10
618.74	835.11
619.08	831.62
619.43	828.56
619.78	825.75
620.12	822.89
620.47	820.15
620.82	817.01
621.16	814.27
621.51	811.66
621.85	808.50
622.20	805.58
622.55	802.38
622.89	799.41
623.24	796.67
623.59	793.38
623.93	790.43
624.28	787.66
624.62	784.52
624.97	781.71
625.32	779.42
625.66	776.60
626.01	773.72
626.35	770.93
626.70	768.07
627.04	765.14
627.39	762.10
627.73	759.06
628.08	756.44
628.43	753.34
628.77	750.18
629.12	747.09
629.46	744.03
629.81	741.02
630.15	737.79
630.50	734.60
630.84	731.56
631.19	728.08
631.53	724.60
631.88	721.16
632.22	717.58
632.57	714.17
632.91	710.60
633.26	707.44
633.60	704.28
633.95	701.15
634.29	697.97
634.64	694.92
634.98	691.77
635.32	688.57
635.67	685.90
636.01	682.95
636.36	680.03
636.70	677.06
637.05	674.32
637.39	671.78
637.73	668.88
638.08	666.30
638.42	663.88
638.77	661.30
639.11	658.70
639.45	656.24
639.80	653.44
640.14	650.90
640.49	648.18
640.83	645.35
641.17	642.50
641.52	639.63
641.86	636.76
642.20	634.25
642.55	631.47
642.89	628.49
643.23	625.56
643.58	623.15
643.92	620.26
644.26	617.41
644.61	614.53
644.95	611.74
645.29	608.41
645.64	605.12
645.98	602.23
646.32	599.29
646.66	596.36
647.01	593.47
647.35	590.94
647.69	588.18
648.04	585.70
648.38	582.88
648.72	580.07
649.06	577.04
649.41	574.38
649.75	571.28
650.09	568.28
650.43	565.36
650.78	562.14
651.12	559.22
651.46	556.31
651.80	553.53
652.14	550.94
652.49	548.43
652.83	546.11
653.17	543.27
653.51	540.65
653.85	537.98
654.20	535.33
654.54	532.14
654.88	529.38
655.22	526.22
655.56	523.40
655.90	520.84
656.25	518.38
656.59	515.45
656.93	512.98
657.27	510.61
657.61	507.90
657.95	505.50
658.29	503.11
658.64	500.55
658.98	497.96
659.32	494.94
659.66	492.42
660.00	489.68
660.34	487.25
660.68	484.65
661.02	481.95
661.36	479.53
661.70	477.27
662.05	475.06
662.39	473.09
662.73	470.77
663.07	468.51
663.41	466.32
663.75	464.07
664.09	461.71
664.43	459.53
664.77	457.50
665.11	455.36
665.45	453.29
665.79	451.03
666.13	448.80
666.47	446.92
666.81	444.68
667.15	442.46
667.49	440.36
667.83	438.45
668.17	436.59
668.51	434.70
668.85	432.69
669.19	430.69
669.53	428.65
669.87	426.79
670.21	425.01
670.55	423.13
670.89	421.46
671.23	419.97
671.57	418.07
671.91	416.41
672.25	414.44
672.58	412.65
672.92	411.08
673.26	409.55
673.60	407.87
673.94	406.17
674.28	404.89
674.62	403.43
674.96	401.93
675.30	400.34
675.64	398.72
675.97	397.39
676.31	395.88
676.65	394.35
676.99	393.03
677.33	391.31
677.67	389.74
678.01	388.21
678.34	386.57
678.68	385.15
679.02	383.69
679.36	382.27
679.70	380.73
680.04	379.30
680.37	377.81
680.71	376.41
681.05	375.22
681.39	373.71
681.73	372.29
682.06	370.92
682.40	369.70
682.74	368.54
683.08	367.12
683.42	365.66
683.75	364.37
684.09	363.01
684.43	361.76
684.77	360.51
685.10	359.13
685.44	357.90
685.78	356.52
686.12	355.19
686.45	353.97
686.79	352.76
687.13	351.54
687.46	350.27
687.80	349.05
688.14	347.78
688.48	346.58
688.81	345.30
689.15	344.08
689.49	342.84
689.82	341.58
690.16	340.32
690.50	339.18
690.83	338.08
691.17	336.76
691.51	335.45
691.84	334.33
692.18	333.21
692.52	332.07
692.85	330.99
693.19	329.95
693.52	328.85
693.86	327.72
694.20	326.60
694.53	325.43
694.87	324.19
695.21	323.05
695.54	321.95
695.88	320.75
696.21	319.70
696.55	318.74
696.88	317.60
697.22	316.55
697.56	315.62
697.89	314.52
698.23	313.52
698.56	312.61
698.90	311.63
699.23	310.56
699.57	309.60
699.90	308.67
700.24	307.66
700.58	306.72
700.91	305.84
701.25	305.09
701.58	304.26
701.92	303.56
702.25	302.78
702.59	301.93
702.92	301.28
703.26	300.48
703.59	299.63
703.93	299.00
704.26	298.19
704.60	297.39
704.93	296.66
705.26	295.93
705.60	295.16
705.93	294.44
706.27	294.02
706.60	293.28
706.94	292.66
707.27	291.85
707.61	291.23
707.94	290.65
708.27	289.88
708.61	289.19
708.94	288.61
709.28	287.96
709.61	287.36
709.94	286.85
710.28	286.12
710.61	285.43
710.95	284.60
711.28	284.20
711.61	283.58
711.95	282.97
712.28	282.34
712.61	281.83
712.95	281.22
713.28	280.64
713.61	280.05
713.95	279.42
714.28	278.92
714.61	278.28
714.95	277.68
715.28	276.97
715.61	276.44
715.95	275.97
716.28	275.42
716.61	274.92
716.95	274.33
717.28	273.92
717.61	273.44
717.94	273.11
718.28	272.45
718.61	271.86
718.94	271.40
719.27	271.02
719.61	270.63
719.94	270.28
720.27	269.72
720.60	269.30
720.94	268.84
721.27	268.60
721.60	268.21
721.93	267.92
722.27	267.69
722.60	267.28
722.93	266.79
723.26	266.40
723.59	265.95
723.93	265.51
724.26	265.12
724.59	264.78
724.92	264.40
725.25	264.10
725.59	263.80
725.92	263.49
726.25	263.14
726.58	262.65
726.91	262.22
727.24	261.88
727.57	261.57
727.91	261.27
728.24	260.84
728.57	260.52
728.90	260.18
729.23	259.84
729.56	259.60
729.89	259.21
730.22	258.86
730.55	258.46
730.89	258.13
731.22	257.84
731.55	257.40
731.88	257.14
732.21	256.80
732.54	256.51
732.87	256.27
733.20	255.91
733.53	255.67
733.86	255.42
734.19	255.05
734.52	254.84
734.85	254.70
735.18	254.25
735.51	253.95
735.84	253.60
736.17	253.34
736.50	253.00
736.83	252.90
737.16	252.67
737.49	252.48
737.82	252.26
738.15	252.06
738.48	251.81
738.81	251.48
739.14	251.21
739.47	250.93
739.80	250.60
740.13	250.40
740.46	250.20
740.79	249.92
741.12	249.62
741.45	249.29
741.78	248.95
742.11	248.84
742.44	248.62
742.77	248.32
743.10	248.04
743.43	247.81
743.75	247.43
744.08	247.52
744.41	247.36
744.74	247.14
745.07	246.87
745.40	246.65
745.73	246.43
746.06	246.24
746.39	246.01
746.71	245.80
747.04	245.57
747.37	245.42
747.70	245.22
748.03	245.05
748.36	244.95
748.68	244.64
749.01	244.45
749.34	244.25
749.67	244.11
750.00	243.99
750.33	243.88
750.65	243.77
750.98	243.36
751.31	243.14
751.64	243.03
751.97	242.85
752.29	242.76
752.62	242.50
752.95	242.33
753.28	242.16
753.60	242.06
753.93	242.02
754.26	241.93
754.59	241.74
754.91	241.68
755.24	241.57
755.57	241.49
755.90	241.30
756.22	241.05
756.55	240.90
756.88	240.74
757.20	240.60
757.53	240.39
757.86	240.19
758.19	240.17
758.51	239.95
758.84	239.80
759.17	239.70
759.49	239.69
759.82	239.68
760.15	239.66
760.47	239.49
760.80	239.20
761.13	239.00
761.45	238.84
761.78	238.71
762.11	238.56
762.43	238.44
762.76	238.35
763.08	238.39
763.41	238.38
763.74	238.25
764.06	238.08
764.39	238.03
764.71	237.91
765.04	237.66
765.37	237.57
765.69	237.54
766.02	237.31
766.34	237.12
766.67	237.05
767.00	236.93
767.32	236.96
767.65	237.13
767.97	237.09
768.30	237.08
768.62	236.93
768.95	236.82
769.27	236.72
769.60	236.65
769.92	236.56
770.25	236.35
770.57	236.24
770.90	236.12
771.22	235.96
771.55	235.97
771.87	236.10
772.20	235.99
772.52	236.07
772.85	236.21
773.17	236.29
773.50	236.09
773.82	236.01
774.15	235.86
774.47	235.60
774.80	235.44
775.12	235.36
775.45	235.35
775.77	235.20
776.09	235.18
776.42	235.15
776.74	235.10
777.07	235.10
777.39	235.02
777.72	235.00
778.04	235.01
778.36	234.89
778.69	234.70
779.01	234.67
779.33	234.30
779.66	234.08
779.98	233.92
780.31	233.84
780.63	233.86
780.95	233.80
781.28	233.79
781.60	233.67
781.92	233.56
782.25	233.47
782.57	233.43
782.89	233.33
783.22	233.23
783.54	233.01
783.86	232.82
784.19	232.82
784.51	232.84
784.83	232.72
785.16	232.66
785.48	232.55
785.80	232.51
786.12	232.56
786.45	232.55
786.77	232.56
787.09	232.54
787.42	232.39
787.74	232.37
788.06	232.24
788.38	232.27
788.71	232.24
789.03	232.25
789.35	232.28
789.67	232.20
789.99	232.15
790.32	232.21
790.64	232.28
790.96	232.42
791.28	232.31
791.61	232.31
791.93	232.31
792.25	232.33
792.57	232.40
792.89	232.33
793.21	232.40
793.54	232.31
793.86	232.32
794.18	232.38
794.50	232.23
794.82	232.33
795.14	232.37
795.47	232.45
795.79	232.41
796.11	232.34
796.43	232.42
796.75	232.44
797.07	232.41
797.39	232.37
797.71	232.20
798.04	232.15
798.36	232.08
798.68	232.05
799.00	232.02
799.32	231.93
799.64	232.02
799.96	231.94
800.28	231.98
800.60	231.93
800.92	231.89
801.24	231.91
801.56	231.86
801.89	231.80
802.21	231.80
802.53	231.70
802.85	231.77
803.17	231.69
803.49	231.71
803.81	231.65
804.13	231.69
804.45	231.58
804.77	231.60
805.09	231.61
805.41	231.61
805.73	231.55
806.05	231.41
806.37	231.32
806.69	231.29
807.01	231.25
807.33	231.11
807.65	230.94
807.97	230.99
808.28	231.03
808.60	230.90
808.92	230.85
809.24	230.97
809.56	230.75
809.88	230.68
810.20	230.57
810.52	230.60
810.84	230.44
811.16	230.39
811.48	230.34
811.80	230.44
812.12	230.44
812.43	230.43
812.75	230.46
813.07	230.36
813.39	230.30
813.71	230.13
814.03	230.20
814.35	230.28
814.67	230.15
814.98	230.00
815.30	230.00
815.62	229.90
815.94	229.74
816.26	229.84
816.58	229.74
816.89	229.72
817.21	229.69
817.53	229.73
817.85	229.65
818.17	229.50
818.48	229.35
818.80	229.33
819.12	229.34
819.44	229.23
819.76	229.25
820.07	229.25
820.39	229.22
820.71	229.17
821.03	229.16
821.34	229.10
821.66	229.15
821.98	229.10
822.30	229.16
822.61	229.28
822.93	229.13
823.25	229.17
823.57	229.11
823.88	229.10
824.20	229.06
824.52	229.12
824.83	229.16
825.15	229.02
825.47	229.02
825.79	228.94
826.10	229.04
826.42	229.00
826.74	229.02
827.05	229.01
827.37	229.02
827.69	228.89
828.00	228.87
828.32	228.70
828.64	228.76
828.95	228.79
829.27	228.67
829.58	228.82
829.90	228.91
830.22	228.90
830.53	228.88
830.85	228.80
831.17	228.81
831.48	228.90
831.80	228.97
832.11	228.91
832.43	228.90
832.75	228.89
833.06	229.05
833.38	228.98
833.69	228.94
834.01	229.02
834.32	229.11
834.64	229.14
834.96	229.28
835.27	229.32
835.59	229.24
835.90	229.31
836.22	229.30
836.53	229.24
836.85	229.29
837.16	229.48
837.48	229.55
837.79	229.54
838.11	229.58
838.42	229.60
838.74	229.61
839.05	229.68
839.37	229.77
839.68	229.62
840.00	229.66
840.31	229.79
840.63	229.80
840.94	229.86
841.26	229.87
841.57	229.88
841.88	229.87
842.20	229.90
842.51	229.84
842.83	229.76
843.14	229.94
843.46	229.89
843.77	229.78
844.08	229.85
844.40	229.87
844.71	229.80
845.03	229.80
845.34	229.80
845.65	229.75
845.97	229.61
846.28	229.65
846.60	229.59
846.91	229.61
847.22	229.60
847.54	229.54
847.85	229.58
848.16	229.44
848.48	229.32
848.79	229.33
849.10	229.31
849.42	229.32
849.73	229.09
850.04	229.14
850.36	229.06
850.67	229.07
850.98	229.03
851.30	229.04
851.61	228.90
851.92	228.96
852.23	229.02
852.55	229.06
852.86	229.04
853.17	229.04
853.49	229.03
853.80	228.98
854.11	229.00
854.42	229.00
854.74	229.06
855.05	229.07
855.36	229.02
855.67	228.98
855.99	228.98
856.30	229.27
856.61	229.23
856.92	229.23
857.23	229.12
857.55	229.11
857.86	229.02
858.17	229.15
858.48	229.05
858.79	228.98
859.11	229.00
859.42	228.98
859.73	228.96
860.04	228.92
860.35	228.79
860.66	228.67
860.98	228.61
861.29	228.60
861.60	228.64
861.91	228.64
862.22	228.55
862.53	228.53
862.84	228.28
863.16	228.35
863.47	228.36
863.78	228.33
864.09	228.32
864.40	228.43
864.71	228.37
865.02	228.36
865.33	228.35
865.64	228.29
865.95	228.25
866.27	228.33
866.58	228.32
866.89	228.45
867.20	228.47
867.51	228.42
867.82	228.44
868.13	228.45
868.44	228.47
868.75	228.56
869.06	228.46
869.37	228.47
869.68	228.30
869.99	228.18
870.30	228.24
870.61	228.27
870.92	228.25
871.23	228.21
871.54	228.13
871.85	228.14
872.16	228.18
872.47	228.22
872.78	228.15
873.09	228.20
873.40	228.19
873.71	228.31
874.02	228.38
874.33	228.33
874.64	228.33
874.95	228.29
875.26	228.33
875.56	228.47
875.87	228.49
876.18	228.60
876.49	228.88
876.80	228.81
877.11	228.86
877.42	228.84
877.73	229.00
878.04	229.04
878.35	229.07
878.66	229.12
878.96	229.06
879.27	228.97
879.58	228.96
879.89	228.92
880.20	228.92
880.51	228.88
880.82	228.90
881.12	228.87
881.43	228.89
881.74	228.84
882.05	228.78
882.36	228.75
882.67	228.73
882.97	228.59
883.28	228.65
883.59	228.62
883.90	228.66
884.21	228.58
884.51	228.53
884.82	228.54
885.13	228.40
885.44	228.50
885.74	228.55
886.05	228.50
886.36	228.58
886.67	228.40
886.98	228.53
887.28	228.59
887.59	228.62
887.90	228.57
888.20	228.53
888.51	228.55
888.82	228.50
889.13	228.47
889.43	228.51
889.74	228.56
890.05	228.49
890.35	228.50
890.66	228.51
890.97	228.53
891.28	228.52
891.58	228.53
891.89	228.40
892.20	228.43
892.50	228.44
892.81	228.34
893.12	228.36
893.42	228.23
893.73	228.12
894.04	228.14
894.34	228.18
894.65	228.23
894.95	228.24
895.26	228.26
895.57	228.39
895.87	228.22
896.18	228.23
896.48	228.25
896.79	228.18
897.10	228.16
897.40	228.13
897.71	228.12
898.01	228.15
898.32	228.15
898.63	228.20
898.93	228.16
899.24	228.16
899.54	228.17
899.85	228.08
900.15	228.15
900.46	228.17
900.76	228.19
901.07	228.13
901.38	228.10
901.68	228.09
901.99	227.95
902.29	227.95
902.60	227.84
902.90	227.93
903.21	227.90
903.51	227.86
903.82	228.02
904.12	228.02
904.43	228.09
904.73	228.20
905.03	228.16
905.34	228.33
905.64	228.33
905.95	228.36
906.25	228.44
906.56	228.35
906.86	228.37
907.17	228.24
907.47	228.27
907.77	228.25
908.08	228.22
908.38	228.33
908.69	228.39
908.99	228.44
909.30	228.36
909.60	228.40
909.90	228.51
910.21	228.49
910.51	228.39
910.81	228.35
911.12	228.30
911.42	228.32
911.73	228.19
912.03	228.18
912.33	228.30
912.64	228.33
912.94	228.39
913.24	228.29
913.55	228.38
913.85	228.35
914.15	228.46
914.46	228.54
914.76	228.58
915.06	228.58
915.37	228.61
915.67	228.59
915.97	228.66
916.27	228.62
916.58	228.62
916.88	228.67
917.18	228.77
917.49	228.89
917.79	228.89
918.09	228.93
918.39	229.03
918.70	229.03
919.00	228.95
919.30	229.12
919.60	229.11
919.91	229.20
920.21	229.27
920.51	229.18
920.81	229.15
921.12	229.23
921.42	229.25
921.72	229.40
922.02	229.46
922.32	229.46
922.63	229.47
922.93	229.57
923.23	229.65
923.53	229.55
923.83	229.51
924.13	229.55
924.44	229.60
924.74	229.63
925.04	229.61
925.34	229.75
925.64	229.64
925.94	229.65
926.24	229.63
926.55	229.64
926.85	229.68
927.15	229.70
927.45	229.48
927.75	229.42
928.05	229.26
928.35	229.14
928.65	229.20
928.95	229.18
929.26	229.09
929.56	229.03
929.86	229.10
930.16	228.95
930.46	228.93
930.76	228.79
931.06	228.65
931.36	228.54
931.66	228.47
931.96	228.45
932.26	228.48
932.56	228.36
932.86	228.30
933.16	228.31
933.46	228.20
933.76	228.20
934.06	228.16
934.36	228.17
934.66	228.26
934.96	228.11
935.26	228.06
935.56	227.95
935.86	227.92
936.16	227.80
936.46	227.83
936.76	227.69
937.06	227.62
937.36	227.67
937.66	227.70
937.96	227.59
938.26	227.54
938.56	227.57
938.86	227.57
939.16	227.59
939.46	227.56
939.76	227.61
940.06	227.67
940.35	227.63
940.65	227.58
940.95	227.56
941.25	227.51
941.55	227.43
941.85	227.48
942.15	227.48
942.45	227.53
942.75	227.49
943.04	227.54
943.34	227.70
943.64	227.62
943.94	227.64
944.24	227.74
944.54	227.77
944.84	227.80
945.13	227.80
945.43	227.84
945.73	227.85
946.03	227.85
946.33	227.87
946.62	227.90
946.92	227.84
947.22	227.86
947.52	227.87
947.82	228.02
948.11	228.07
948.41	228.19
948.71	228.20
949.01	228.29
949.31	228.29
949.60	228.29
949.90	228.42
950.20	228.40
950.50	228.45
950.79	228.51
951.09	228.50
951.39	228.60
951.69	228.57
951.98	228.62
952.28	228.66
952.58	228.75
952.87	228.88
953.17	228.98
953.47	228.95
953.76	229.04
954.06	229.04
954.36	229.00
954.66	229.00
954.95	229.05
955.25	229.06
955.55	229.21
955.84	229.24
956.14	229.29
956.44	229.34
956.73	229.31
957.03	229.25
957.32	229.32
957.62	229.32
957.92	229.43
958.21	229.33
958.51	229.50
958.81	229.41
959.10	229.39
959.40	229.45
959.69	229.44
959.99	229.38
960.29	229.35
960.58	229.35
960.88	229.30
961.17	229.23
961.47	229.24
961.76	229.14
962.06	229.10
962.36	228.97
962.65	228.93
962.95	228.92
963.24	228.87
963.54	228.67
963.83	228.68
964.13	228.50
964.42	228.50
964.72	228.38
965.01	228.43
965.31	228.39
965.60	228.25
965.90	228.41
966.19	228.41
966.49	228.35
966.78	228.33
967.08	228.24
967.37	228.21
967.67	228.13
967.96	228.09
968.26	228.10
968.55	228.15
968.85	228.10
969.14	228.04
969.43	228.09
969.73	228.15
970.02	227.95
970.32	227.90
970.61	227.90
970.91	227.78
971.20	227.60
971.49	227.54
971.79	227.58
972.08	227.38
972.38	227.36
972.67	227.41
972.96	227.41
973.26	227.50
973.55	227.51
973.85	227.57
974.14	227.50
974.43	227.50
974.73	227.37
975.02	227.27
975.31	227.21
975.61	227.10
975.90	227.07
976.19	227.12
976.49	227.20
976.78	227.20
977.07	227.17
977.37	227.30
977.66	227.36
977.95	227.27
978.24	227.40
978.54	227.41
978.83	227.32
979.12	227.24
979.42	227.13
979.71	227.11
980.00	226.97
980.29	227.13
980.59	227.07
980.88	227.27
981.17	227.37
981.46	227.45
981.76	227.54
982.05	227.56
982.34	227.62
982.63	227.59
982.93	227.59
983.22	227.74
983.51	227.73
983.80	227.69
984.09	227.85
984.39	227.80
984.68	227.87
984.97	227.95
985.26	228.01
985.55	228.07
985.85	228.14
986.14	228.32
986.43	228.36
986.72	228.37
987.01	228.23
987.30	228.30
987.59	228.34
987.89	228.44
988.18	228.40
988.47	228.39
988.76	228.45
989.05	228.46
989.34	228.39
989.63	228.42
989.92	228.49
990.22	228.36
990.51	228.30
990.80	228.36
991.09	228.42
991.38	228.45
991.67	228.51
991.96	228.51
992.25	228.47
992.54	228.43
992.83	228.38
993.12	228.50
993.41	228.57
993.70	228.59
993.99	228.56
994.28	228.68
994.58	228.73
994.87	228.71
995.16	228.71
995.45	228.75
995.74	228.73
996.03	228.74
996.32	228.90
996.61	228.99
996.90	228.90
997.19	228.82
997.48	228.82
997.77	228.82
998.06	228.79
998.34	228.84
998.63	228.80
998.92	228.90
999.21	228.79
999.50	228.69
999.79	228.66
1000.08	228.64
1000.37	228.68
1000.66	228.67
1000.95	228.74
1001.24	228.78
1001.53	228.81
1001.82	228.70
1002.11	228.67
1002.40	228.56
1002.68	228.64
1002.97	228.76
1003.26	228.78
1003.55	228.77
1003.84	228.60
1004.13	228.67
1004.42	228.53
1004.71	228.49
1004.99	228.39
1005.28	228.46
1005.57	228.44
1005.86	228.39
1006.15	228.33
1006.44	228.24
1006.72	228.17
1007.01	228.07
1007.30	228.00
1007.59	227.90
1007.88	227.86
1008.17	227.73
1008.45	227.72
1008.74	227.61
1009.03	227.40
1009.32	227.40
1009.60	227.37
1009.89	227.41
1010.18	227.25
1010.47	227.28
1010.76	227.31
1011.04	227.26
1011.33	227.30
1011.62	227.27
1011.91	227.30
1012.19	227.33
1012.48	227.38
1012.77	227.33
1013.05	227.49
1013.34	227.55
1013.63	227.60
1013.92	227.73
1014.20	227.79
1014.49	227.78
1014.78	227.78
1015.06	227.75
1015.35	227.81
1015.64	227.85
1015.92	227.83
1016.21	227.89
1016.50	227.90
1016.78	227.93
1017.07	228.07
1017.36	228.00
1017.64	228.02
1017.93	228.02
1018.22	228.00
1018.50	227.97
1018.79	228.12
1019.08	228.06
1019.36	228.12
1019.65	228.07
1019.93	228.09
1020.22	228.10
1020.51	228.18
1020.79	228.14
1021.08	227.50
1021.36	228.40
1021.65	229.50
1021.94	229.10
1022.22	229.50
1022.51	227.20
1022.79	229.10
1023.08	227.10
1023.36	229.80
1023.65	227.40
>>>>>End Processed Spectral Data<<<<<
