SpectraSuite Data File
++++++++++++++++++++++++++++++++++++
Date: Fri Feb 01 14:34:47 EST 2013
User: group
Dark Spectrum Present: No
Reference Spectrum Present: No
Number of Sampled Component Spectra: 1
Spectrometers: USB2E7196
Integration Time (usec): 70000 (USB2E7196)
Spectra Averaged: 10 (USB2E7196)
Boxcar Smoothing: 10 (USB2E7196)
Correct for Electrical Dark: No (USB2E7196)
Strobe/Lamp Enabled: No (USB2E7196)
Correct for Detector Non-linearity: No (USB2E7196)
Correct for Stray Light: No (USB2E7196)
Number of Pixels in Processed Spectrum: 2048
>>>>>Begin Processed Spectral Data<<<<<
339.09	0.00
339.48	216.60
339.86	215.90
340.24	221.10
340.63	221.90
341.01	225.00
341.39	223.70
341.78	223.60
342.16	227.10
342.54	225.60
342.93	214.85
343.31	225.70
343.69	226.20
344.07	226.74
344.46	227.04
344.84	227.40
345.22	227.55
345.60	227.87
345.99	228.09
346.37	228.13
346.75	228.23
347.13	228.25
347.52	228.33
347.90	228.36
348.28	228.49
348.66	228.53
349.05	228.50
349.43	228.50
349.81	228.51
350.19	228.42
350.57	228.46
350.96	228.60
351.34	228.65
351.72	228.75
352.10	228.89
352.48	229.00
352.87	229.02
353.25	229.19
353.63	229.24
354.01	229.31
354.39	229.40
354.77	229.51
355.15	229.61
355.54	229.69
355.92	229.82
356.30	229.81
356.68	229.94
357.06	230.09
357.44	230.19
357.82	230.16
358.20	230.26
358.58	230.46
358.97	230.54
359.35	230.56
359.73	230.64
360.11	230.67
360.49	230.72
360.87	230.75
361.25	230.71
361.63	230.70
362.01	230.76
362.39	230.82
362.77	230.91
363.15	230.93
363.53	230.91
363.91	230.90
364.29	230.89
364.67	230.75
365.05	230.76
365.43	230.75
365.81	230.80
366.19	230.89
366.57	230.83
366.95	230.70
367.33	230.70
367.71	230.71
368.09	230.70
368.47	230.70
368.85	230.68
369.23	230.60
369.61	230.45
369.99	230.46
370.37	230.30
370.75	230.27
371.13	230.19
371.51	230.09
371.89	230.10
372.27	230.08
372.65	230.05
373.03	229.98
373.41	229.91
373.78	229.83
374.16	229.76
374.54	229.67
374.92	229.62
375.30	229.53
375.68	229.34
376.06	229.22
376.44	229.11
376.82	228.98
377.19	228.93
377.57	228.93
377.95	228.79
378.33	228.80
378.71	228.60
379.09	228.49
379.47	228.51
379.84	228.36
380.22	228.30
380.60	228.21
380.98	228.11
381.36	228.04
381.73	227.93
382.11	227.83
382.49	227.65
382.87	227.53
383.25	227.56
383.62	227.66
384.00	227.56
384.38	227.48
384.76	227.45
385.13	227.45
385.51	227.39
385.89	227.33
386.27	227.25
386.64	227.18
387.02	227.29
387.40	227.15
387.78	227.03
388.15	226.95
388.53	226.93
388.91	226.90
389.29	226.77
389.66	226.83
390.04	226.68
390.42	226.74
390.79	226.85
391.17	226.78
391.55	226.67
391.92	226.71
392.30	226.69
392.68	226.66
393.05	226.69
393.43	226.74
393.81	226.76
394.18	226.81
394.56	226.85
394.94	226.89
395.31	226.98
395.69	227.18
396.06	227.30
396.44	227.36
396.82	227.37
397.19	227.63
397.57	227.64
397.95	227.80
398.32	227.93
398.70	227.96
399.07	228.11
399.45	228.24
399.82	228.39
400.20	228.58
400.58	228.85
400.95	228.94
401.33	229.14
401.70	229.53
402.08	229.65
402.45	229.84
402.83	229.97
403.20	230.17
403.58	230.42
403.95	230.72
404.33	231.01
404.71	231.37
405.08	231.71
405.46	232.00
405.83	232.42
406.21	232.79
406.58	233.13
406.96	233.57
407.33	234.01
407.70	234.48
408.08	235.09
408.45	235.46
408.83	236.07
409.20	236.58
409.58	237.03
409.95	237.89
410.33	238.58
410.70	239.31
411.08	240.05
411.45	240.84
411.82	241.60
412.20	242.54
412.57	243.68
412.95	244.50
413.32	245.77
413.69	246.92
414.07	248.16
414.44	249.67
414.82	250.95
415.19	252.53
415.56	254.14
415.94	255.85
416.31	257.74
416.68	259.56
417.06	261.71
417.43	263.78
417.81	266.00
418.18	268.43
418.55	271.00
418.93	273.66
419.30	276.43
419.67	279.29
420.04	282.20
420.42	285.14
420.79	288.75
421.16	292.24
421.54	296.05
421.91	299.90
422.28	303.72
422.66	307.95
423.03	312.02
423.40	316.26
423.77	320.79
424.15	325.51
424.52	330.40
424.89	335.54
425.26	340.55
425.64	345.30
426.01	350.70
426.38	356.20
426.75	361.85
427.13	367.68
427.50	373.99
427.87	380.37
428.24	386.84
428.61	393.00
428.99	399.60
429.36	406.83
429.73	413.86
430.10	420.92
430.47	427.90
430.85	435.28
431.22	442.98
431.59	451.15
431.96	459.02
432.33	467.80
432.70	476.40
433.08	486.38
433.45	495.80
433.82	504.99
434.19	515.54
434.56	525.69
434.93	535.56
435.30	545.07
435.68	555.71
436.05	566.13
436.42	576.56
436.79	585.94
437.16	596.07
437.53	606.87
437.90	617.50
438.27	628.27
438.64	639.28
439.01	649.68
439.38	658.88
439.75	667.50
440.13	677.36
440.50	686.80
440.87	694.68
441.24	703.23
441.61	712.61
441.98	719.34
442.35	727.55
442.72	735.44
443.09	743.30
443.46	748.42
443.83	752.15
444.20	755.50
444.57	760.40
444.94	763.13
445.31	765.89
445.68	768.88
446.05	770.77
446.42	770.74
446.79	770.65
447.16	770.48
447.53	771.00
447.90	768.37
448.27	765.68
448.64	761.06
449.01	758.20
449.37	752.16
449.74	746.35
450.11	738.92
450.48	730.86
450.85	722.84
451.22	716.20
451.59	709.65
451.96	703.60
452.33	694.78
452.70	687.15
453.07	677.60
453.43	667.79
453.80	658.58
454.17	649.72
454.54	641.11
454.91	631.64
455.28	622.37
455.65	613.91
456.02	604.91
456.38	597.84
456.75	588.30
457.12	580.47
457.49	572.87
457.86	565.57
458.23	559.43
458.59	552.10
458.96	544.75
459.33	538.40
459.70	531.69
460.07	526.54
460.43	520.19
460.80	514.54
461.17	509.48
461.54	504.01
461.91	498.84
462.27	493.52
462.64	489.08
463.01	484.41
463.38	479.55
463.74	475.07
464.11	470.67
464.48	466.86
464.85	462.68
465.21	459.34
465.58	455.83
465.95	451.74
466.32	448.70
466.68	445.10
467.05	441.73
467.42	438.52
467.78	434.81
468.15	431.64
468.52	429.08
468.88	425.80
469.25	422.87
469.62	420.74
469.98	418.30
470.35	416.03
470.72	413.60
471.08	411.31
471.45	409.21
471.82	407.24
472.18	404.92
472.55	403.34
472.92	401.50
473.28	399.78
473.65	398.12
474.02	396.18
474.38	394.87
474.75	393.71
475.11	392.25
475.48	391.47
475.85	390.38
476.21	389.45
476.58	388.60
476.94	387.87
477.31	386.79
477.67	385.99
478.04	385.30
478.41	384.78
478.77	384.42
479.14	384.00
479.50	383.72
479.87	383.61
480.23	383.45
480.60	383.16
480.96	383.04
481.33	382.94
481.69	383.18
482.06	383.39
482.42	383.32
482.79	383.48
483.15	383.75
483.52	384.48
483.88	384.97
484.25	385.40
484.61	386.02
484.98	386.85
485.34	387.99
485.71	388.93
486.07	389.87
486.44	390.80
486.80	392.06
487.17	393.16
487.53	394.74
487.90	396.22
488.26	397.91
488.62	399.49
488.99	401.15
489.35	402.84
489.72	404.65
490.08	406.60
490.44	408.74
490.81	410.90
491.17	412.81
491.54	415.15
491.90	417.49
492.26	419.92
492.63	422.50
492.99	425.03
493.36	427.60
493.72	430.75
494.08	433.58
494.45	436.49
494.81	439.72
495.17	442.63
495.54	445.75
495.90	448.85
496.26	452.01
496.63	455.41
496.99	459.06
497.35	462.61
497.72	466.20
498.08	469.80
498.44	473.59
498.80	477.68
499.17	481.47
499.53	485.34
499.89	489.29
500.26	493.06
500.62	496.85
500.98	500.88
501.34	504.75
501.71	508.87
502.07	512.79
502.43	516.63
502.79	520.65
503.16	524.59
503.52	528.54
503.88	532.50
504.24	536.70
504.60	540.48
504.97	544.47
505.33	548.70
505.69	552.90
506.05	556.87
506.41	560.68
506.78	564.47
507.14	568.34
507.50	572.30
507.86	576.24
508.22	580.29
508.59	584.14
508.95	587.76
509.31	591.27
509.67	594.93
510.03	598.63
510.39	602.33
510.75	605.93
511.12	609.57
511.48	613.24
511.84	616.54
512.20	619.89
512.56	623.25
512.92	626.42
513.28	629.63
513.64	632.62
514.00	635.70
514.37	638.48
514.73	641.51
515.09	644.06
515.45	646.69
515.81	648.96
516.17	651.66
516.53	654.30
516.89	656.87
517.25	659.31
517.61	661.51
517.97	663.60
518.33	665.64
518.69	667.50
519.05	669.67
519.41	671.71
519.77	673.97
520.13	676.05
520.49	677.77
520.85	679.62
521.21	681.44
521.57	683.15
521.93	684.75
522.29	686.63
522.65	688.42
523.01	689.83
523.37	691.45
523.73	692.90
524.09	694.25
524.45	695.83
524.81	697.48
525.17	699.36
525.53	701.31
525.89	702.80
526.25	704.80
526.61	706.09
526.97	707.68
527.33	709.05
527.68	710.67
528.04	712.49
528.40	714.00
528.76	716.00
529.12	717.73
529.48	719.63
529.84	721.36
530.20	723.27
530.56	725.69
530.91	728.08
531.27	730.09
531.63	732.16
531.99	734.10
532.35	736.28
532.71	738.03
533.07	740.04
533.42	742.62
533.78	744.54
534.14	746.88
534.50	748.89
534.86	751.33
535.21	753.31
535.57	755.49
535.93	757.65
536.29	759.63
536.65	761.87
537.00	764.36
537.36	766.78
537.72	768.99
538.08	771.39
538.44	773.58
538.79	775.86
539.15	778.21
539.51	781.10
539.87	783.45
540.22	786.03
540.58	788.76
540.94	791.33
541.29	794.07
541.65	796.70
542.01	799.74
542.37	802.51
542.72	804.98
543.08	807.74
543.44	810.61
543.79	813.19
544.15	816.15
544.51	819.11
544.87	821.96
545.22	825.05
545.58	827.67
545.94	830.33
546.29	833.31
546.65	836.27
547.01	838.57
547.36	841.30
547.72	844.18
548.07	847.01
548.43	849.66
548.79	852.10
549.14	854.83
549.50	857.15
549.86	859.57
550.21	862.60
550.57	865.22
550.92	867.97
551.28	870.79
551.64	873.49
551.99	876.26
552.35	878.72
552.70	881.35
553.06	884.17
553.41	886.93
553.77	889.64
554.13	892.48
554.48	895.66
554.84	898.46
555.19	901.09
555.55	903.50
555.90	905.97
556.26	908.91
556.61	911.65
556.97	914.25
557.32	916.95
557.68	919.44
558.03	922.20
558.39	924.69
558.74	927.54
559.10	930.01
559.45	932.20
559.81	934.76
560.16	937.07
560.52	939.66
560.87	942.58
561.23	945.15
561.58	947.59
561.94	949.80
562.29	952.09
562.64	954.56
563.00	957.00
563.35	959.68
563.71	962.46
564.06	964.96
564.42	967.41
564.77	969.79
565.12	972.11
565.48	974.61
565.83	976.59
566.19	978.73
566.54	980.49
566.89	982.50
567.25	984.80
567.60	987.21
567.96	989.07
568.31	990.63
568.66	992.20
569.02	993.92
569.37	995.20
569.72	996.80
570.08	998.17
570.43	999.30
570.78	1000.55
571.14	1001.39
571.49	1002.37
571.84	1004.18
572.20	1005.04
572.55	1006.10
572.90	1006.71
573.26	1007.85
573.61	1008.70
573.96	1009.83
574.31	1010.17
574.67	1010.09
575.02	1009.90
575.37	1010.04
575.72	1010.03
576.08	1010.47
576.43	1010.52
576.78	1011.14
577.13	1011.50
577.49	1011.60
577.84	1011.83
578.19	1011.89
578.54	1011.60
578.90	1011.46
579.25	1010.64
579.60	1010.27
579.95	1009.73
580.30	1009.11
580.66	1008.50
581.01	1007.68
581.36	1007.00
581.71	1006.78
582.06	1006.38
582.42	1005.94
582.77	1005.35
583.12	1004.84
583.47	1003.98
583.82	1003.17
584.17	1001.96
584.53	1000.91
584.88	1000.17
585.23	999.31
585.58	998.06
585.93	997.41
586.28	996.33
586.63	995.21
586.98	994.24
587.34	993.21
587.69	992.26
588.04	991.00
588.39	989.95
588.74	988.25
589.09	987.01
589.44	985.40
589.79	983.83
590.14	982.49
590.49	980.69
590.84	979.07
591.19	977.83
591.54	976.10
591.89	973.83
592.25	972.06
592.60	969.45
592.95	967.20
593.30	964.93
593.65	962.92
594.00	960.62
594.35	958.74
594.70	956.30
595.05	954.29
595.40	952.09
595.75	949.73
596.10	947.89
596.45	945.73
596.80	943.99
597.15	942.01
597.50	939.46
597.85	937.49
598.19	935.47
598.54	933.10
598.89	931.03
599.24	929.54
599.59	927.15
599.94	925.44
600.29	923.50
600.64	921.30
600.99	918.34
601.34	916.43
601.69	913.68
602.04	911.48
602.39	908.82
602.74	906.72
603.08	904.35
603.43	902.11
603.78	899.49
604.13	896.90
604.48	894.50
604.83	892.10
605.18	889.45
605.53	886.62
605.87	883.62
606.22	880.93
606.57	877.81
606.92	875.54
607.27	872.87
607.62	870.41
607.96	867.87
608.31	865.81
608.66	862.58
609.01	859.96
609.36	856.80
609.70	853.53
610.05	849.85
610.40	846.67
610.75	843.10
611.10	840.17
611.44	836.79
611.79	833.53
612.14	830.44
612.49	827.05
612.83	823.77
613.18	820.57
613.53	817.33
613.88	813.90
614.22	810.13
614.57	806.60
614.92	802.92
615.27	799.28
615.61	795.87
615.96	792.96
616.31	789.77
616.65	787.17
617.00	784.39
617.35	781.72
617.70	778.67
618.04	775.69
618.39	772.57
618.74	769.66
619.08	766.50
619.43	763.21
619.78	760.17
620.12	757.01
620.47	753.93
620.82	750.60
621.16	747.60
621.51	744.77
621.85	742.17
622.20	739.13
622.55	736.16
622.89	733.20
623.24	730.23
623.59	727.31
623.93	724.21
624.28	721.26
624.62	718.51
624.97	715.69
625.32	712.84
625.66	710.08
626.01	707.26
626.35	704.25
626.70	701.49
627.04	698.70
627.39	695.78
627.73	692.89
628.08	690.20
628.43	687.40
628.77	684.31
629.12	681.22
629.46	678.29
629.81	675.39
630.15	672.19
630.50	669.18
630.84	665.84
631.19	662.75
631.53	659.81
631.88	656.41
632.22	653.05
632.57	650.15
632.91	646.87
633.26	643.90
633.60	640.95
633.95	638.08
634.29	635.30
634.64	632.67
634.98	629.76
635.32	627.20
635.67	624.53
636.01	621.90
636.36	619.17
636.70	616.71
637.05	614.01
637.39	611.61
637.73	609.10
638.08	606.91
638.42	604.64
638.77	602.14
639.11	599.55
639.45	597.16
639.80	594.46
640.14	591.96
640.49	589.01
640.83	586.51
641.17	583.92
641.52	581.41
641.86	578.64
642.20	576.17
642.55	573.43
642.89	570.80
643.23	568.21
643.58	565.83
643.92	563.03
644.26	560.53
644.61	558.10
644.95	555.54
645.29	552.65
645.64	549.80
645.98	547.10
646.32	544.84
646.66	542.32
647.01	539.74
647.35	537.29
647.69	535.06
648.04	532.63
648.38	530.17
648.72	527.43
649.06	524.98
649.41	522.49
649.75	519.72
650.09	517.34
650.43	514.69
650.78	511.95
651.12	509.48
651.46	507.10
651.80	504.54
652.14	501.95
652.49	499.78
652.83	497.48
653.17	495.03
653.51	492.52
653.85	490.13
654.20	488.01
654.54	485.55
654.88	482.97
655.22	480.51
655.56	477.95
655.90	475.67
656.25	473.45
656.59	471.31
656.93	469.26
657.27	466.95
657.61	464.59
657.95	462.42
658.29	460.27
658.64	458.17
658.98	455.73
659.32	453.39
659.66	451.10
660.00	448.83
660.34	446.70
660.68	444.70
661.02	442.51
661.36	440.43
661.70	438.44
662.05	436.67
662.39	434.89
662.73	433.11
663.07	431.39
663.41	429.68
663.75	427.81
664.09	426.03
664.43	424.30
664.77	422.70
665.11	420.95
665.45	419.29
665.79	417.41
666.13	415.90
666.47	414.34
666.81	412.62
667.15	410.88
667.49	409.29
667.83	407.70
668.17	406.06
668.51	404.49
668.85	402.79
669.19	401.26
669.53	399.60
669.87	397.90
670.21	396.31
670.55	394.64
670.89	393.25
671.23	391.86
671.57	390.38
671.91	389.02
672.25	387.52
672.58	386.26
672.92	384.93
673.26	383.58
673.60	382.31
673.94	381.07
674.28	379.86
674.62	378.61
674.96	377.18
675.30	376.02
675.64	374.76
675.97	373.49
676.31	372.13
676.65	370.86
676.99	369.82
677.33	368.48
677.67	367.15
678.01	365.70
678.34	364.44
678.68	363.21
679.02	361.79
679.36	360.64
679.70	359.39
680.04	358.01
680.37	356.74
680.71	355.47
681.05	354.31
681.39	353.24
681.73	352.05
682.06	350.99
682.40	349.77
682.74	348.59
683.08	347.57
683.42	346.47
683.75	345.34
684.09	344.27
684.43	343.25
684.77	342.25
685.10	341.17
685.44	340.01
685.78	338.88
686.12	337.93
686.45	336.83
686.79	335.69
687.13	334.81
687.46	333.86
687.80	332.87
688.14	331.70
688.48	330.59
688.81	329.44
689.15	328.39
689.49	327.37
689.82	326.24
690.16	325.10
690.50	324.04
690.83	323.10
691.17	321.82
691.51	320.79
691.84	319.80
692.18	318.77
692.52	317.67
692.85	316.60
693.19	315.64
693.52	314.65
693.86	313.61
694.20	312.61
694.53	311.70
694.87	310.72
695.21	309.91
695.54	308.93
695.88	307.96
696.21	306.98
696.55	306.14
696.88	305.37
697.22	304.54
697.56	303.87
697.89	303.00
698.23	302.25
698.56	301.37
698.90	300.46
699.23	299.60
699.57	298.91
699.90	298.23
700.24	297.38
700.58	296.62
700.91	295.87
701.25	295.28
701.58	294.55
701.92	293.86
702.25	293.02
702.59	292.46
702.92	291.83
703.26	291.35
703.59	290.73
703.93	290.13
704.26	289.59
704.60	288.94
704.93	288.21
705.26	287.71
705.60	287.19
705.93	286.64
706.27	286.13
706.60	285.53
706.94	284.94
707.27	284.35
707.61	283.76
707.94	283.39
708.27	282.65
708.61	282.08
708.94	281.63
709.28	281.31
709.61	280.72
709.94	280.28
710.28	279.66
710.61	279.06
710.95	278.40
711.28	277.95
711.61	277.41
711.95	277.08
712.28	276.57
712.61	276.04
712.95	275.62
713.28	275.29
713.61	274.83
713.95	274.38
714.28	273.87
714.61	273.43
714.95	272.94
715.28	272.46
715.61	272.00
715.95	271.50
716.28	271.04
716.61	270.66
716.95	270.20
717.28	269.86
717.61	269.50
717.94	269.10
718.28	268.52
718.61	268.00
718.94	267.49
719.27	267.01
719.61	266.60
719.94	266.20
720.27	265.69
720.60	265.37
720.94	265.00
721.27	264.76
721.60	264.52
721.93	264.03
722.27	263.82
722.60	263.46
722.93	263.12
723.26	262.67
723.59	262.20
723.93	261.80
724.26	261.42
724.59	261.05
724.92	260.71
725.25	260.43
725.59	260.10
725.92	259.73
726.25	259.36
726.58	259.07
726.91	258.77
727.24	258.35
727.57	258.12
727.91	257.62
728.24	257.25
728.57	256.83
728.90	256.50
729.23	255.97
729.56	255.77
729.89	255.40
730.22	254.98
730.55	254.64
730.89	254.33
731.22	253.95
731.55	253.57
731.88	253.23
732.21	252.83
732.54	252.47
732.87	252.12
733.20	251.86
733.53	251.58
733.86	251.30
734.19	251.00
734.52	250.62
734.85	250.69
735.18	250.48
735.51	250.32
735.84	250.05
736.17	249.98
736.50	249.51
736.83	249.47
737.16	249.36
737.49	249.15
737.82	248.91
738.15	248.73
738.48	248.55
738.81	248.34
739.14	248.24
739.47	248.12
739.80	247.93
740.13	247.76
740.46	247.55
740.79	247.15
741.12	247.09
741.45	246.82
741.78	246.46
742.11	246.30
742.44	245.97
742.77	245.86
743.10	245.70
743.43	245.56
743.75	245.15
744.08	245.10
744.41	245.02
744.74	244.90
745.07	244.72
745.40	244.71
745.73	244.68
746.06	244.52
746.39	244.37
746.71	244.29
747.04	244.16
747.37	244.05
747.70	244.00
748.03	243.92
748.36	243.92
748.68	243.87
749.01	243.68
749.34	243.62
749.67	243.56
750.00	243.34
750.33	243.41
750.65	243.44
750.98	243.24
751.31	243.12
751.64	243.01
751.97	243.00
752.29	242.88
752.62	242.68
752.95	242.51
753.28	242.38
753.60	242.30
753.93	242.22
754.26	242.16
754.59	242.14
754.91	242.04
755.24	241.87
755.57	241.69
755.90	241.55
756.22	241.43
756.55	241.34
756.88	241.26
757.20	241.00
757.53	240.77
757.86	240.69
758.19	240.59
758.51	240.46
758.84	240.21
759.17	240.01
759.49	239.91
759.82	239.95
760.15	239.92
760.47	239.86
760.80	239.64
761.13	239.45
761.45	239.28
761.78	239.07
762.11	238.95
762.43	238.86
762.76	238.71
763.08	238.59
763.41	238.38
763.74	238.31
764.06	238.18
764.39	238.02
764.71	237.88
765.04	237.70
765.37	237.62
765.69	237.59
766.02	237.41
766.34	237.19
766.67	236.97
767.00	236.84
767.32	236.81
767.65	236.86
767.97	236.76
768.30	236.59
768.62	236.42
768.95	236.18
769.27	236.04
769.60	235.92
769.92	235.80
770.25	235.64
770.57	235.44
770.90	235.38
771.22	235.26
771.55	235.10
771.87	234.88
772.20	234.72
772.52	234.75
772.85	234.88
773.17	234.81
773.50	234.60
773.82	234.40
774.15	234.16
774.47	233.93
774.80	233.82
775.12	233.79
775.45	233.65
775.77	233.58
776.09	233.46
776.42	233.40
776.74	233.31
777.07	233.28
777.39	233.12
777.72	232.94
778.04	232.90
778.36	232.76
778.69	232.80
779.01	232.83
779.33	232.51
779.66	232.24
779.98	232.21
780.31	232.16
780.63	232.21
780.95	232.13
781.28	232.08
781.60	232.07
781.92	231.93
782.25	231.86
782.57	231.89
782.89	231.84
783.22	231.80
783.54	231.77
783.86	231.62
784.19	231.66
784.51	231.71
784.83	231.68
785.16	231.67
785.48	231.66
785.80	231.51
786.12	231.45
786.45	231.45
786.77	231.39
787.09	231.46
787.42	231.38
787.74	231.41
788.06	231.31
788.38	231.25
788.71	231.23
789.03	231.31
789.35	231.33
789.67	231.43
789.99	231.51
790.32	231.56
790.64	231.67
790.96	231.87
791.28	231.80
791.61	231.83
791.93	231.92
792.25	231.87
792.57	232.10
792.89	232.14
793.21	232.21
793.54	232.28
793.86	232.35
794.18	232.37
794.50	232.35
794.82	232.52
795.14	232.58
795.47	232.69
795.79	232.83
796.11	232.77
796.43	232.66
796.75	232.65
797.07	232.55
797.39	232.58
797.71	232.40
798.04	232.41
798.36	232.51
798.68	232.49
799.00	232.57
799.32	232.41
799.64	232.44
799.96	232.40
800.28	232.44
800.60	232.32
800.92	232.29
801.24	232.21
801.56	232.20
801.89	232.19
802.21	232.12
802.53	231.98
802.85	232.00
803.17	232.02
803.49	231.96
803.81	231.93
804.13	231.95
804.45	231.95
804.77	232.02
805.09	231.88
805.41	231.77
805.73	231.68
806.05	231.56
806.37	231.51
806.69	231.42
807.01	231.34
807.33	231.34
807.65	231.24
807.97	231.35
808.28	231.22
808.60	231.11
808.92	231.03
809.24	231.05
809.56	230.95
809.88	230.84
810.20	230.74
810.52	230.79
810.84	230.61
811.16	230.41
811.48	230.32
811.80	230.36
812.12	230.28
812.43	230.19
812.75	230.17
813.07	230.11
813.39	230.05
813.71	229.96
814.03	229.78
814.35	229.74
814.67	229.54
814.98	229.55
815.30	229.50
815.62	229.44
815.94	229.31
816.26	229.37
816.58	229.33
816.89	229.23
817.21	229.07
817.53	228.99
817.85	229.10
818.17	229.03
818.48	228.85
818.80	228.89
819.12	228.87
819.44	228.92
819.76	228.90
820.07	228.88
820.39	228.88
820.71	228.99
821.03	228.96
821.34	228.98
821.66	228.97
821.98	229.04
822.30	229.01
822.61	229.13
822.93	229.03
823.25	229.03
823.57	229.08
823.88	229.17
824.20	229.21
824.52	229.07
824.83	229.10
825.15	229.19
825.47	229.22
825.79	229.26
826.10	229.14
826.42	229.19
826.74	229.27
827.05	229.31
827.37	229.25
827.69	229.38
828.00	229.41
828.32	229.40
828.64	229.39
828.95	229.55
829.27	229.58
829.58	229.67
829.90	229.71
830.22	229.73
830.53	229.72
830.85	229.76
831.17	229.81
831.48	229.85
831.80	229.79
832.11	229.81
832.43	229.82
832.75	229.87
833.06	230.01
833.38	229.94
833.69	229.97
834.01	230.07
834.32	229.99
834.64	230.06
834.96	230.17
835.27	230.12
835.59	230.12
835.90	230.11
836.22	230.10
836.53	230.11
836.85	230.19
837.16	230.36
837.48	230.39
837.79	230.51
838.11	230.49
838.42	230.56
838.74	230.55
839.05	230.46
839.37	230.50
839.68	230.35
840.00	230.38
840.31	230.40
840.63	230.32
840.94	230.35
841.26	230.30
841.57	230.27
841.88	230.25
842.20	230.26
842.51	230.10
842.83	230.06
843.14	230.21
843.46	230.04
843.77	230.03
844.08	230.01
844.40	229.89
844.71	229.94
845.03	229.87
845.34	229.81
845.65	229.89
845.97	229.80
846.28	229.77
846.60	229.79
846.91	229.70
847.22	229.69
847.54	229.67
847.85	229.62
848.16	229.48
848.48	229.41
848.79	229.34
849.10	229.40
849.42	229.32
849.73	229.04
850.04	229.04
850.36	228.81
850.67	228.71
850.98	228.72
851.30	228.62
851.61	228.52
851.92	228.45
852.23	228.47
852.55	228.45
852.86	228.36
853.17	228.13
853.49	228.07
853.80	228.08
854.11	228.07
854.42	228.01
854.74	227.93
855.05	227.95
855.36	227.82
855.67	227.75
855.99	227.80
856.30	228.02
856.61	227.96
856.92	227.94
857.23	227.96
857.55	227.90
857.86	227.84
858.17	227.82
858.48	227.73
858.79	227.65
859.11	227.70
859.42	227.72
859.73	227.89
860.04	227.83
860.35	227.72
860.66	227.57
860.98	227.64
861.29	227.75
861.60	227.71
861.91	227.73
862.22	227.74
862.53	227.75
862.84	227.50
863.16	227.58
863.47	227.59
863.78	227.70
864.09	227.62
864.40	227.60
864.71	227.72
865.02	227.83
865.33	227.87
865.64	227.80
865.95	227.84
866.27	227.99
866.58	228.08
866.89	228.16
867.20	228.33
867.51	228.25
867.82	228.24
868.13	228.45
868.44	228.61
868.75	228.76
869.06	228.62
869.37	228.64
869.68	228.67
869.99	228.76
870.30	228.80
870.61	228.97
870.92	229.07
871.23	229.10
871.54	229.14
871.85	229.19
872.16	229.26
872.47	229.30
872.78	229.20
873.09	229.32
873.40	229.35
873.71	229.32
874.02	229.50
874.33	229.53
874.64	229.44
874.95	229.42
875.26	229.32
875.56	229.46
875.87	229.48
876.18	229.54
876.49	229.77
876.80	229.70
877.11	229.72
877.42	229.61
877.73	229.65
878.04	229.60
878.35	229.62
878.66	229.69
878.96	229.72
879.27	229.64
879.58	229.53
879.89	229.57
880.20	229.64
880.51	229.60
880.82	229.57
881.12	229.48
881.43	229.33
881.74	229.28
882.05	229.33
882.36	229.30
882.67	229.20
882.97	228.93
883.28	228.80
883.59	228.75
883.90	228.81
884.21	228.84
884.51	228.89
884.82	228.81
885.13	228.72
885.44	228.51
885.74	228.49
886.05	228.40
886.36	228.28
886.67	228.15
886.98	228.10
887.28	228.02
887.59	228.00
887.90	228.02
888.20	227.96
888.51	227.88
888.82	227.86
889.13	227.77
889.43	227.84
889.74	227.80
890.05	227.71
890.35	227.67
890.66	227.42
890.97	227.32
891.28	227.29
891.58	227.28
891.89	227.32
892.20	227.28
892.50	227.26
892.81	227.24
893.12	227.12
893.42	227.00
893.73	227.00
894.04	226.93
894.34	226.89
894.65	226.77
894.95	226.74
895.26	226.67
895.57	226.85
895.87	226.62
896.18	226.70
896.48	226.70
896.79	226.72
897.10	226.81
897.40	226.75
897.71	226.72
898.01	226.68
898.32	226.72
898.63	226.72
898.93	226.78
899.24	226.84
899.54	226.91
899.85	226.95
900.15	227.05
900.46	227.02
900.76	227.10
901.07	227.15
901.38	227.10
901.68	227.25
901.99	227.25
902.29	227.35
902.60	227.36
902.90	227.25
903.21	227.18
903.51	227.22
903.82	227.34
904.12	227.41
904.43	227.53
904.73	227.62
905.03	227.74
905.34	227.90
905.64	228.00
905.95	228.08
906.25	228.10
906.56	228.05
906.86	228.24
907.17	228.20
907.47	228.32
907.77	228.33
908.08	228.31
908.38	228.30
908.69	228.35
908.99	228.45
909.30	228.65
909.60	228.82
909.90	228.83
910.21	228.85
910.51	228.87
910.81	228.81
911.12	228.82
911.42	228.83
911.73	228.77
912.03	228.70
912.33	228.60
912.64	228.68
912.94	228.73
913.24	228.80
913.55	228.88
913.85	228.90
914.15	229.04
914.46	229.08
914.76	229.10
915.06	229.11
915.37	228.99
915.67	229.05
915.97	229.01
916.27	229.01
916.58	229.04
916.88	229.07
917.18	229.10
917.49	229.20
917.79	229.22
918.09	229.18
918.39	229.22
918.70	229.30
919.00	229.30
919.30	229.33
919.60	229.16
919.91	229.08
920.21	229.09
920.51	229.00
920.81	229.01
921.12	228.97
921.42	228.91
921.72	228.96
922.02	228.84
922.32	228.76
922.63	228.83
922.93	228.84
923.23	228.81
923.53	228.77
923.83	228.66
924.13	228.62
924.44	228.62
924.74	228.64
925.04	228.64
925.34	228.65
925.64	228.62
925.94	228.61
926.24	228.77
926.55	228.62
926.85	228.59
927.15	228.57
927.45	228.57
927.75	228.56
928.05	228.51
928.35	228.51
928.65	228.51
928.95	228.47
929.26	228.36
929.56	228.29
929.86	228.30
930.16	228.20
930.46	228.12
930.76	228.10
931.06	227.95
931.36	227.96
931.66	227.89
931.96	227.80
932.26	227.86
932.56	227.75
932.86	227.76
933.16	227.73
933.46	227.58
933.76	227.45
934.06	227.50
934.36	227.56
934.66	227.47
934.96	227.50
935.26	227.45
935.56	227.53
935.86	227.49
936.16	227.50
936.46	227.54
936.76	227.61
937.06	227.52
937.36	227.58
937.66	227.52
937.96	227.55
938.26	227.58
938.56	227.53
938.86	227.55
939.16	227.64
939.46	227.69
939.76	227.84
940.06	227.94
940.35	227.91
940.65	227.95
940.95	228.03
941.25	228.01
941.55	228.02
941.85	228.00
942.15	228.18
942.45	228.31
942.75	228.32
943.04	228.26
943.34	228.41
943.64	228.40
943.94	228.43
944.24	228.41
944.54	228.38
944.84	228.49
945.13	228.31
945.43	228.33
945.73	228.38
946.03	228.38
946.33	228.42
946.62	228.42
946.92	228.32
947.22	228.33
947.52	228.45
947.82	228.48
948.11	228.55
948.41	228.40
948.71	228.22
949.01	228.17
949.31	228.27
949.60	228.29
949.90	228.36
950.20	228.37
950.50	228.40
950.79	228.44
951.09	228.42
951.39	228.56
951.69	228.59
951.98	228.60
952.28	228.57
952.58	228.57
952.87	228.60
953.17	228.72
953.47	228.71
953.76	228.66
954.06	228.64
954.36	228.53
954.66	228.63
954.95	228.70
955.25	228.79
955.55	228.76
955.84	228.67
956.14	228.76
956.44	228.91
956.73	228.84
957.03	228.85
957.32	228.83
957.62	228.81
957.92	228.82
958.21	228.81
958.51	229.13
958.81	229.16
959.10	229.16
959.40	229.14
959.69	229.19
959.99	229.23
960.29	229.27
960.58	229.21
960.88	229.20
961.17	229.13
961.47	229.12
961.76	229.05
962.06	229.06
962.36	228.88
962.65	228.68
962.95	228.67
963.24	228.60
963.54	228.58
963.83	228.59
964.13	228.60
964.42	228.54
964.72	228.30
965.01	228.20
965.31	228.21
965.60	228.22
965.90	228.19
966.19	228.07
966.49	227.98
966.78	228.03
967.08	228.03
967.37	228.02
967.67	227.95
967.96	227.94
968.26	227.92
968.55	228.00
968.85	228.00
969.14	228.06
969.43	228.04
969.73	228.01
970.02	228.00
970.32	227.95
970.61	227.99
970.91	227.87
971.20	227.82
971.49	227.79
971.79	227.72
972.08	227.70
972.38	227.77
972.67	227.86
972.96	227.95
973.26	227.86
973.55	228.00
973.85	228.04
974.14	228.13
974.43	228.19
974.73	228.14
975.02	228.17
975.31	228.20
975.61	228.25
975.90	228.28
976.19	228.26
976.49	228.29
976.78	228.32
977.07	228.28
977.37	228.36
977.66	228.36
977.95	228.36
978.24	228.41
978.54	228.50
978.83	228.45
979.12	228.43
979.42	228.47
979.71	228.50
980.00	228.51
980.29	228.52
980.59	228.47
980.88	228.50
981.17	228.50
981.46	228.44
981.76	228.48
982.05	228.54
982.34	228.65
982.63	228.73
982.93	228.69
983.22	228.82
983.51	228.87
983.80	228.90
984.09	228.93
984.39	228.87
984.68	228.82
984.97	228.85
985.26	228.76
985.55	228.77
985.85	228.62
986.14	228.62
986.43	228.59
986.72	228.62
987.01	228.66
987.30	228.72
987.59	228.73
987.89	228.70
988.18	228.62
988.47	228.66
988.76	228.46
989.05	228.43
989.34	228.48
989.63	228.48
989.92	228.43
990.22	228.43
990.51	228.50
990.80	228.51
991.09	228.56
991.38	228.70
991.67	228.72
991.96	228.81
992.25	228.85
992.54	228.82
992.83	228.75
993.12	228.68
993.41	228.70
993.70	228.77
993.99	228.82
994.28	228.89
994.58	228.79
994.87	228.82
995.16	228.84
995.45	228.72
995.74	228.63
996.03	228.70
996.32	228.69
996.61	228.61
996.90	228.55
997.19	228.46
997.48	228.37
997.77	228.40
998.06	228.39
998.34	228.31
998.63	228.33
998.92	228.43
999.21	228.44
999.50	228.38
999.79	228.26
1000.08	228.19
1000.37	228.12
1000.66	228.06
1000.95	228.14
1001.24	228.19
1001.53	228.23
1001.82	228.21
1002.11	228.10
1002.40	228.10
1002.68	228.25
1002.97	228.31
1003.26	228.29
1003.55	228.27
1003.84	228.25
1004.13	228.32
1004.42	228.32
1004.71	228.23
1004.99	228.13
1005.28	228.20
1005.57	228.19
1005.86	228.16
1006.15	228.14
1006.44	228.04
1006.72	228.12
1007.01	228.07
1007.30	228.06
1007.59	227.95
1007.88	227.93
1008.17	227.93
1008.45	227.85
1008.74	227.73
1009.03	227.66
1009.32	227.72
1009.60	227.63
1009.89	227.44
1010.18	227.23
1010.47	227.25
1010.76	227.32
1011.04	227.28
1011.33	227.19
1011.62	227.12
1011.91	227.19
1012.19	227.29
1012.48	227.35
1012.77	227.33
1013.05	227.46
1013.34	227.31
1013.63	227.41
1013.92	227.43
1014.20	227.43
1014.49	227.46
1014.78	227.50
1015.06	227.43
1015.35	227.36
1015.64	227.47
1015.92	227.60
1016.21	227.71
1016.50	227.75
1016.78	227.71
1017.07	227.78
1017.36	227.79
1017.64	227.82
1017.93	227.80
1018.22	227.70
1018.50	227.69
1018.79	227.74
1019.08	227.59
1019.36	227.66
1019.65	227.62
1019.93	227.75
1020.22	227.84
1020.51	227.99
1020.79	227.93
1021.08	227.50
1021.36	227.00
1021.65	229.30
1021.94	227.00
1022.22	227.50
1022.51	227.20
1022.79	229.80
1023.08	228.70
1023.36	230.80
1023.65	227.70
>>>>>End Processed Spectral Data<<<<<
