SpectraSuite Data File
++++++++++++++++++++++++++++++++++++
Date: Fri Feb 01 14:34:32 EST 2013
User: group
Dark Spectrum Present: No
Reference Spectrum Present: No
Number of Sampled Component Spectra: 1
Spectrometers: USB2E7196
Integration Time (usec): 70000 (USB2E7196)
Spectra Averaged: 10 (USB2E7196)
Boxcar Smoothing: 10 (USB2E7196)
Correct for Electrical Dark: No (USB2E7196)
Strobe/Lamp Enabled: No (USB2E7196)
Correct for Detector Non-linearity: No (USB2E7196)
Correct for Stray Light: No (USB2E7196)
Number of Pixels in Processed Spectrum: 2048
>>>>>Begin Processed Spectral Data<<<<<
339.09	0.00
339.48	215.30
339.86	219.00
340.24	220.30
340.63	220.80
341.01	224.00
341.39	224.60
341.78	225.40
342.16	227.40
342.54	227.00
342.93	215.27
343.31	226.14
343.69	226.80
344.07	227.26
344.46	227.64
344.84	228.03
345.22	228.22
345.60	228.42
345.99	228.57
346.37	228.55
346.75	228.68
347.13	228.82
347.52	228.92
347.90	229.02
348.28	229.15
348.66	229.17
349.05	229.15
349.43	229.17
349.81	229.12
350.19	229.13
350.57	229.10
350.96	229.06
351.34	229.12
351.72	229.09
352.10	229.15
352.48	229.14
352.87	229.22
353.25	229.24
353.63	229.20
354.01	229.27
354.39	229.39
354.77	229.40
355.15	229.50
355.54	229.51
355.92	229.53
356.30	229.56
356.68	229.70
357.06	229.69
357.44	229.74
357.82	229.80
358.20	229.88
358.58	229.82
358.97	229.96
359.35	230.02
359.73	230.11
360.11	230.15
360.49	230.20
360.87	230.15
361.25	230.36
361.63	230.56
362.01	230.58
362.39	230.60
362.77	230.53
363.15	230.32
363.53	230.30
363.91	230.27
364.29	230.24
364.67	230.14
365.05	230.15
365.43	230.09
365.81	230.16
366.19	230.24
366.57	230.44
366.95	230.46
367.33	230.46
367.71	230.40
368.09	230.38
368.47	230.38
368.85	230.38
369.23	230.29
369.61	230.13
369.99	230.18
370.37	230.20
370.75	230.33
371.13	230.39
371.51	230.34
371.89	230.25
372.27	230.21
372.65	230.18
373.03	230.13
373.41	230.07
373.78	229.88
374.16	229.65
374.54	229.48
374.92	229.31
375.30	229.18
375.68	229.10
376.06	228.97
376.44	228.93
376.82	228.86
377.19	228.66
377.57	228.55
377.95	228.50
378.33	228.33
378.71	228.10
379.09	227.99
379.47	228.02
379.84	227.94
380.22	227.82
380.60	227.62
380.98	227.59
381.36	227.59
381.73	227.58
382.11	227.65
382.49	227.50
382.87	227.49
383.25	227.49
383.62	227.70
384.00	227.69
384.38	227.63
384.76	227.65
385.13	227.74
385.51	227.78
385.89	227.58
386.27	227.57
386.64	227.62
387.02	227.62
387.40	227.49
387.78	227.48
388.15	227.57
388.53	227.53
388.91	227.54
389.29	227.52
389.66	227.50
390.04	227.44
390.42	227.56
390.79	227.53
391.17	227.49
391.55	227.25
391.92	227.16
392.30	227.24
392.68	227.20
393.05	227.29
393.43	227.26
393.81	227.40
394.18	227.42
394.56	227.37
394.94	227.43
395.31	227.50
395.69	227.56
396.06	227.66
396.44	227.77
396.82	227.88
397.19	227.97
397.57	228.01
397.95	228.14
398.32	228.20
398.70	228.31
399.07	228.47
399.45	228.64
399.82	228.86
400.20	228.99
400.58	229.19
400.95	229.16
401.33	229.47
401.70	229.80
402.08	230.04
402.45	230.37
402.83	230.62
403.20	230.86
403.58	231.18
403.95	231.39
404.33	231.69
404.71	231.99
405.08	232.36
405.46	232.75
405.83	233.04
406.21	233.20
406.58	233.68
406.96	234.11
407.33	234.52
407.70	234.89
408.08	235.57
408.45	236.09
408.83	236.79
409.20	237.30
409.58	237.68
409.95	238.35
410.33	239.06
410.70	239.80
411.08	240.60
411.45	241.43
411.82	242.28
412.20	243.31
412.57	244.30
412.95	245.26
413.32	246.44
413.69	247.71
414.07	249.18
414.44	250.56
414.82	251.95
415.19	253.58
415.56	255.32
415.94	256.94
416.31	258.85
416.68	260.66
417.06	262.86
417.43	265.05
417.81	267.44
418.18	269.89
418.55	272.50
418.93	275.30
419.30	278.11
419.67	281.04
420.04	284.04
420.42	287.32
420.79	291.10
421.16	294.77
421.54	298.60
421.91	302.60
422.28	306.68
422.66	311.13
423.03	315.51
423.40	320.07
423.77	324.84
424.15	329.64
424.52	334.86
424.89	340.36
425.26	345.68
425.64	350.67
426.01	356.21
426.38	361.87
426.75	367.63
427.13	373.79
427.50	380.33
427.87	387.05
428.24	393.86
428.61	400.21
428.99	407.33
429.36	414.98
429.73	422.38
430.10	429.84
430.47	437.22
430.85	444.75
431.22	452.71
431.59	461.33
431.96	469.50
432.33	478.79
432.70	487.51
433.08	498.01
433.45	507.83
433.82	517.47
434.19	528.38
434.56	538.92
434.93	548.94
435.30	558.95
435.68	570.14
436.05	580.93
436.42	591.69
436.79	601.30
437.16	612.12
437.53	623.38
437.90	634.43
438.27	645.49
438.64	656.97
439.01	667.76
439.38	677.30
439.75	686.55
440.13	696.90
440.50	706.94
440.87	714.85
441.24	723.43
441.61	733.24
441.98	740.36
442.35	748.78
442.72	757.22
443.09	765.46
443.46	770.71
443.83	774.42
444.20	778.08
444.57	783.13
444.94	785.71
445.31	788.70
445.68	791.73
446.05	793.89
446.42	794.24
446.79	794.15
447.16	794.27
447.53	794.79
447.90	792.07
448.27	789.26
448.64	784.69
449.01	781.86
449.37	775.45
449.74	769.56
450.11	761.97
450.48	753.68
450.85	745.30
451.22	738.29
451.59	731.77
451.96	725.39
452.33	716.37
452.70	708.51
453.07	698.59
453.43	688.47
453.80	678.58
454.17	669.18
454.54	660.21
454.91	650.01
455.28	640.34
455.65	631.34
456.02	622.06
456.38	614.58
456.75	604.79
457.12	596.76
457.49	588.61
457.86	580.98
458.23	574.44
458.59	566.93
458.96	559.16
459.33	552.33
459.70	545.60
460.07	539.99
460.43	533.44
460.80	527.31
461.17	521.89
461.54	516.21
461.91	510.87
462.27	505.60
462.64	501.16
463.01	495.89
463.38	490.96
463.74	486.23
464.11	481.92
464.48	478.21
464.85	474.00
465.21	470.83
465.58	467.36
465.95	463.30
466.32	460.12
466.68	456.85
467.05	453.47
467.42	449.94
467.78	446.49
468.15	443.07
468.52	440.51
468.88	437.29
469.25	434.33
469.62	431.96
469.98	429.27
470.35	426.72
470.72	424.60
471.08	422.26
471.45	420.09
471.82	417.90
472.18	415.48
472.55	413.70
472.92	411.62
473.28	409.92
473.65	408.12
474.02	406.05
474.38	404.52
474.75	403.22
475.11	401.90
475.48	400.75
475.85	399.68
476.21	398.64
476.58	397.50
476.94	396.77
477.31	395.76
477.67	395.02
478.04	394.41
478.41	393.80
478.77	393.31
479.14	392.76
479.50	392.37
479.87	392.23
480.23	392.26
480.60	391.95
480.96	391.74
481.33	391.97
481.69	392.24
482.06	392.27
482.42	392.22
482.79	392.30
483.15	392.70
483.52	393.44
483.88	393.88
484.25	394.52
484.61	395.31
484.98	395.99
485.34	396.89
485.71	397.87
486.07	399.04
486.44	400.00
486.80	401.44
487.17	402.68
487.53	404.09
487.90	405.46
488.26	407.31
488.62	409.15
488.99	410.62
489.35	412.35
489.72	414.34
490.08	416.50
490.44	418.84
490.81	420.97
491.17	423.02
491.54	425.62
491.90	428.21
492.26	430.69
492.63	433.57
492.99	436.36
493.36	439.16
493.72	442.16
494.08	445.15
494.45	448.18
494.81	451.62
495.17	454.91
495.54	458.41
495.90	461.80
496.26	465.17
496.63	468.97
496.99	472.71
497.35	476.73
497.72	480.72
498.08	484.49
498.44	488.80
498.80	493.29
499.17	497.51
499.53	501.73
499.89	506.10
500.26	510.22
500.62	514.38
500.98	518.99
501.34	523.31
501.71	527.95
502.07	532.41
502.43	536.85
502.79	541.27
503.16	545.66
503.52	550.16
503.88	554.66
504.24	559.10
504.60	563.42
504.97	567.67
505.33	572.18
505.69	576.80
506.05	581.22
506.41	585.30
506.78	589.64
507.14	593.97
507.50	598.21
507.86	602.84
508.22	607.47
508.59	611.47
508.95	615.82
509.31	620.13
509.67	624.47
510.03	628.65
510.39	633.07
510.75	637.13
511.12	641.07
511.48	645.05
511.84	649.12
512.20	653.34
512.56	657.26
512.92	661.05
513.28	664.67
513.64	667.93
514.00	671.61
514.37	675.00
514.73	678.45
515.09	681.79
515.45	684.87
515.81	687.80
516.17	691.17
516.53	694.22
516.89	697.04
517.25	699.79
517.61	702.56
517.97	705.13
518.33	707.71
518.69	710.38
519.05	713.00
519.41	715.44
519.77	718.13
520.13	720.71
520.49	723.10
520.85	725.37
521.21	727.94
521.57	730.02
521.93	732.00
522.29	734.44
522.65	736.50
523.01	738.56
523.37	740.39
523.73	742.20
524.09	743.93
524.45	745.87
524.81	747.76
525.17	749.80
525.53	751.86
525.89	753.80
526.25	755.82
526.61	757.56
526.97	759.31
527.33	760.93
527.68	762.72
528.04	764.49
528.40	766.56
528.76	768.58
529.12	770.68
529.48	772.95
529.84	774.37
530.20	776.60
530.56	778.75
530.91	781.31
531.27	783.66
531.63	785.93
531.99	787.96
532.35	789.99
532.71	791.88
533.07	794.18
533.42	796.34
533.78	798.67
534.14	801.22
534.50	803.40
534.86	805.84
535.21	808.16
535.57	810.53
535.93	812.87
536.29	815.22
536.65	817.66
537.00	819.87
537.36	822.20
537.72	824.44
538.08	826.68
538.44	828.54
538.79	830.91
539.15	833.27
539.51	835.76
539.87	838.49
540.22	841.12
540.58	843.64
540.94	846.18
541.29	848.29
541.65	850.77
542.01	853.63
542.37	856.20
542.72	858.68
543.08	861.09
543.44	863.67
543.79	865.74
544.15	868.33
544.51	871.67
544.87	874.92
545.22	877.69
545.58	880.55
545.94	883.43
546.29	885.87
546.65	888.76
547.01	891.13
547.36	893.65
547.72	896.18
548.07	898.55
548.43	901.21
548.79	903.89
549.14	906.28
549.50	908.54
549.86	910.78
550.21	913.05
550.57	915.91
550.92	918.20
551.28	921.17
551.64	923.54
551.99	925.80
552.35	928.16
552.70	930.80
553.06	933.16
553.41	935.54
553.77	938.20
554.13	940.63
554.48	943.68
554.84	946.25
555.19	948.79
555.55	951.39
555.90	953.60
556.26	956.13
556.61	958.62
556.97	961.27
557.32	963.84
557.68	966.46
558.03	968.63
558.39	970.91
558.74	973.33
559.10	975.54
559.45	977.57
559.81	980.06
560.16	982.03
560.52	984.32
560.87	986.92
561.23	988.90
561.58	991.05
561.94	992.98
562.29	995.41
562.64	997.31
563.00	999.27
563.35	1001.77
563.71	1004.13
564.06	1006.23
564.42	1008.40
564.77	1010.52
565.12	1012.58
565.48	1014.84
565.83	1017.09
566.19	1018.75
566.54	1020.89
566.89	1022.70
567.25	1024.33
567.60	1026.16
567.96	1027.79
568.31	1029.19
568.66	1030.88
569.02	1032.25
569.37	1033.57
569.72	1034.76
570.08	1036.20
570.43	1037.37
570.78	1038.49
571.14	1039.38
571.49	1040.60
571.84	1041.64
572.20	1042.33
572.55	1043.21
572.90	1043.49
573.26	1044.12
573.61	1044.86
573.96	1045.27
574.31	1045.39
574.67	1045.04
575.02	1044.78
575.37	1044.58
575.72	1044.27
576.08	1044.26
576.43	1044.00
576.78	1043.88
577.13	1043.76
577.49	1043.42
577.84	1043.15
578.19	1042.90
578.54	1042.29
578.90	1041.54
579.25	1040.42
579.60	1039.85
579.95	1038.70
580.30	1037.89
580.66	1036.73
581.01	1035.70
581.36	1034.92
581.71	1033.95
582.06	1033.36
582.42	1032.70
582.77	1031.88
583.12	1030.83
583.47	1029.81
583.82	1028.98
584.17	1027.62
584.53	1026.08
584.88	1025.12
585.23	1023.81
585.58	1022.36
585.93	1021.35
586.28	1020.03
586.63	1018.96
586.98	1017.66
587.34	1016.66
587.69	1015.40
588.04	1014.12
588.39	1012.70
588.74	1010.66
589.09	1009.33
589.44	1007.46
589.79	1006.00
590.14	1004.63
590.49	1003.20
590.84	1001.34
591.19	999.49
591.54	997.66
591.89	995.41
592.25	993.49
592.60	991.09
592.95	988.59
593.30	985.99
593.65	983.65
594.00	981.09
594.35	979.12
594.70	976.33
595.05	974.16
595.40	971.56
595.75	969.04
596.10	967.00
596.45	964.77
596.80	962.84
597.15	960.63
597.50	957.90
597.85	955.53
598.19	953.37
598.54	951.14
598.89	949.11
599.24	947.14
599.59	944.46
599.94	942.46
600.29	940.20
600.64	937.73
600.99	935.02
601.34	932.53
601.69	929.53
602.04	927.33
602.39	924.68
602.74	922.50
603.08	920.12
603.43	917.77
603.78	915.08
604.13	912.31
604.48	909.57
604.83	907.19
605.18	904.71
605.53	901.71
605.87	898.63
606.22	895.81
606.57	892.89
606.92	890.00
607.27	887.17
607.62	884.63
607.96	882.06
608.31	879.67
608.66	876.89
609.01	873.81
609.36	870.55
609.70	867.06
610.05	863.51
610.40	860.50
610.75	857.20
611.10	853.69
611.44	850.23
611.79	846.95
612.14	843.40
612.49	839.40
612.83	835.73
613.18	832.34
613.53	828.72
613.88	825.08
614.22	821.78
614.57	818.18
614.92	814.57
615.27	811.12
615.61	807.34
615.96	804.06
616.31	801.00
616.65	798.07
617.00	795.11
617.35	792.20
617.70	788.73
618.04	785.22
618.39	782.18
618.74	778.82
619.08	775.15
619.43	772.03
619.78	769.11
620.12	766.26
620.47	763.14
620.82	759.72
621.16	756.70
621.51	753.64
621.85	750.39
622.20	747.10
622.55	744.06
622.89	741.06
623.24	737.90
623.59	734.88
623.93	731.64
624.28	728.32
624.62	725.11
624.97	722.19
625.32	719.30
625.66	716.23
626.01	713.52
626.35	710.60
626.70	707.57
627.04	704.63
627.39	701.31
627.73	698.37
628.08	695.55
628.43	692.56
628.77	689.48
629.12	686.39
629.46	683.58
629.81	680.25
630.15	677.01
630.50	674.01
630.84	670.59
631.19	667.14
631.53	664.21
631.88	661.10
632.22	657.64
632.57	654.75
632.91	651.72
633.26	648.53
633.60	645.48
633.95	642.40
634.29	639.70
634.64	636.96
634.98	633.76
635.32	631.04
635.67	628.35
636.01	625.67
636.36	622.94
636.70	620.15
637.05	617.62
637.39	615.22
637.73	612.52
638.08	610.17
638.42	608.09
638.77	605.66
639.11	603.05
639.45	600.54
639.80	597.61
640.14	594.96
640.49	592.36
640.83	589.79
641.17	587.21
641.52	584.46
641.86	581.78
642.20	579.41
642.55	576.76
642.89	573.97
643.23	571.33
643.58	569.06
643.92	566.28
644.26	563.91
644.61	561.40
644.95	559.09
645.29	556.09
645.64	553.22
645.98	550.58
646.32	548.12
646.66	545.54
647.01	543.13
647.35	540.67
647.69	538.14
648.04	535.79
648.38	533.25
648.72	530.54
649.06	527.96
649.41	525.48
649.75	522.96
650.09	520.58
650.43	517.88
650.78	515.15
651.12	512.83
651.46	510.23
651.80	507.77
652.14	505.18
652.49	503.04
652.83	500.88
653.17	498.37
653.51	495.87
653.85	493.51
654.20	491.03
654.54	488.52
654.88	486.15
655.22	483.64
655.56	481.10
655.90	478.92
656.25	476.81
656.59	474.50
656.93	472.24
657.27	470.13
657.61	467.87
657.95	465.73
658.29	463.47
658.64	461.26
658.98	458.81
659.32	456.46
659.66	454.20
660.00	451.92
660.34	449.77
660.68	447.70
661.02	445.60
661.36	443.58
661.70	441.63
662.05	439.68
662.39	437.88
662.73	436.21
663.07	434.35
663.41	432.37
663.75	430.49
664.09	428.61
664.43	426.58
664.77	424.93
665.11	423.13
665.45	421.30
665.79	419.58
666.13	418.00
666.47	416.30
666.81	414.49
667.15	412.48
667.49	410.84
667.83	409.34
668.17	407.56
668.51	405.85
668.85	404.06
669.19	402.56
669.53	400.94
669.87	399.23
670.21	397.70
670.55	396.20
670.89	394.73
671.23	393.24
671.57	391.70
671.91	390.24
672.25	388.79
672.58	387.48
672.92	385.85
673.26	384.30
673.60	382.90
673.94	381.67
674.28	380.56
674.62	379.26
674.96	377.74
675.30	376.72
675.64	375.47
675.97	374.24
676.31	372.89
676.65	371.57
676.99	370.34
677.33	369.00
677.67	367.72
678.01	366.24
678.34	364.87
678.68	363.67
679.02	362.35
679.36	361.16
679.70	359.75
680.04	358.54
680.37	357.38
680.71	356.28
681.05	354.97
681.39	353.74
681.73	352.58
682.06	351.48
682.40	350.33
682.74	349.24
683.08	348.22
683.42	347.11
683.75	346.06
684.09	344.86
684.43	343.79
684.77	342.67
685.10	341.60
685.44	340.53
685.78	339.45
686.12	338.29
686.45	337.13
686.79	336.21
687.13	335.26
687.46	334.12
687.80	332.99
688.14	331.91
688.48	330.86
688.81	329.81
689.15	328.77
689.49	327.67
689.82	326.60
690.16	325.41
690.50	324.33
690.83	323.20
691.17	322.30
691.51	321.24
691.84	320.32
692.18	319.36
692.52	318.45
692.85	317.50
693.19	316.64
693.52	315.73
693.86	314.75
694.20	313.84
694.53	313.01
694.87	312.00
695.21	311.21
695.54	310.30
695.88	309.42
696.21	308.50
696.55	307.50
696.88	306.63
697.22	305.78
697.56	305.06
697.89	304.23
698.23	303.37
698.56	302.60
698.90	301.66
699.23	300.81
699.57	299.94
699.90	299.14
700.24	298.30
700.58	297.49
700.91	296.75
701.25	296.06
701.58	295.40
701.92	294.77
702.25	294.01
702.59	293.33
702.92	292.52
703.26	291.73
703.59	291.09
703.93	290.62
704.26	290.04
704.60	289.27
704.93	288.62
705.26	287.94
705.60	287.22
705.93	286.67
706.27	286.22
706.60	285.70
706.94	285.11
707.27	284.44
707.61	283.81
707.94	283.21
708.27	282.43
708.61	281.77
708.94	281.18
709.28	280.58
709.61	280.05
709.94	279.56
710.28	279.13
710.61	278.61
710.95	277.86
711.28	277.42
711.61	276.86
711.95	276.31
712.28	275.76
712.61	275.17
712.95	274.66
713.28	274.14
713.61	273.60
713.95	273.17
714.28	272.81
714.61	272.36
714.95	271.87
715.28	271.40
715.61	270.91
715.95	270.44
716.28	270.09
716.61	269.69
716.95	269.23
717.28	268.81
717.61	268.40
717.94	267.90
718.28	267.28
718.61	266.87
718.94	266.57
719.27	266.08
719.61	265.80
719.94	265.46
720.27	264.95
720.60	264.52
720.94	264.09
721.27	263.72
721.60	263.38
721.93	263.04
722.27	262.81
722.60	262.56
722.93	262.27
723.26	261.96
723.59	261.62
723.93	261.35
724.26	260.95
724.59	260.58
724.92	260.44
725.25	260.25
725.59	260.00
725.92	259.57
726.25	259.48
726.58	259.23
726.91	258.92
727.24	258.69
727.57	258.35
727.91	258.00
728.24	257.76
728.57	257.52
728.90	257.27
729.23	256.87
729.56	256.58
729.89	256.26
730.22	255.89
730.55	255.62
730.89	255.31
731.22	255.11
731.55	254.90
731.88	254.59
732.21	254.36
732.54	254.05
732.87	253.79
733.20	253.40
733.53	253.16
733.86	252.95
734.19	252.76
734.52	252.57
734.85	252.55
735.18	252.18
735.51	251.95
735.84	251.59
736.17	251.56
736.50	251.37
736.83	251.31
737.16	251.08
737.49	250.77
737.82	250.54
738.15	250.30
738.48	250.10
738.81	249.77
739.14	249.57
739.47	249.28
739.80	249.01
740.13	248.80
740.46	248.57
740.79	248.31
741.12	248.18
741.45	248.00
741.78	247.59
742.11	247.40
742.44	247.19
742.77	247.01
743.10	246.50
743.43	246.18
743.75	245.83
744.08	245.77
744.41	245.57
744.74	245.40
745.07	245.16
745.40	244.98
745.73	244.99
746.06	244.67
746.39	244.60
746.71	244.50
747.04	244.30
747.37	244.01
747.70	243.88
748.03	243.46
748.36	243.30
748.68	243.10
749.01	242.98
749.34	242.74
749.67	242.59
750.00	242.58
750.33	242.50
750.65	242.36
750.98	242.04
751.31	241.98
751.64	241.74
751.97	241.73
752.29	241.48
752.62	241.24
752.95	241.04
753.28	240.97
753.60	240.80
753.93	240.81
754.26	240.72
754.59	240.50
754.91	240.41
755.24	240.23
755.57	240.11
755.90	239.95
756.22	239.81
756.55	239.71
756.88	239.51
757.20	239.29
757.53	239.10
757.86	238.90
758.19	238.74
758.51	238.68
758.84	238.49
759.17	238.37
759.49	238.29
759.82	238.37
760.15	238.29
760.47	238.16
760.80	237.96
761.13	237.87
761.45	237.66
761.78	237.62
762.11	237.54
762.43	237.49
762.76	237.41
763.08	237.42
763.41	237.28
763.74	237.25
764.06	237.12
764.39	237.00
764.71	237.00
765.04	236.89
765.37	236.81
765.69	236.63
766.02	236.54
766.34	236.42
766.67	236.26
767.00	236.09
767.32	236.22
767.65	236.16
767.97	236.09
768.30	236.06
768.62	236.00
768.95	235.96
769.27	235.86
769.60	235.90
769.92	235.67
770.25	235.62
770.57	235.59
770.90	235.49
771.22	235.40
771.55	235.44
771.87	235.38
772.20	235.32
772.52	235.54
772.85	235.81
773.17	235.80
773.50	235.78
773.82	235.68
774.15	235.44
774.47	235.28
774.80	235.27
775.12	235.25
775.45	235.24
775.77	235.15
776.09	235.13
776.42	234.99
776.74	235.02
777.07	234.96
777.39	234.94
777.72	234.93
778.04	234.94
778.36	234.73
778.69	234.72
779.01	234.68
779.33	234.44
779.66	234.15
779.98	233.98
780.31	233.92
780.63	234.04
780.95	234.10
781.28	234.00
781.60	233.82
781.92	233.78
782.25	233.57
782.57	233.58
782.89	233.46
783.22	233.37
783.54	233.32
783.86	233.34
784.19	233.20
784.51	233.19
784.83	233.10
785.16	233.15
785.48	233.13
785.80	233.09
786.12	233.04
786.45	232.90
786.77	232.90
787.09	232.78
787.42	232.62
787.74	232.52
788.06	232.61
788.38	232.60
788.71	232.47
789.03	232.49
789.35	232.40
789.67	232.38
789.99	232.31
790.32	232.13
790.64	231.99
790.96	232.02
791.28	231.96
791.61	231.92
791.93	231.84
792.25	231.65
792.57	231.69
792.89	231.49
793.21	231.53
793.54	231.38
793.86	231.32
794.18	231.15
794.50	231.09
794.82	231.02
795.14	230.95
795.47	231.00
795.79	230.95
796.11	230.86
796.43	230.79
796.75	230.79
797.07	230.83
797.39	230.84
797.71	230.80
798.04	230.71
798.36	230.57
798.68	230.49
799.00	230.56
799.32	230.43
799.64	230.60
799.96	230.52
800.28	230.65
800.60	230.70
800.92	230.83
801.24	230.75
801.56	230.71
801.89	230.68
802.21	230.64
802.53	230.69
802.85	230.75
803.17	230.81
803.49	230.72
803.81	230.78
804.13	230.73
804.45	230.63
804.77	230.68
805.09	230.74
805.41	230.78
805.73	230.78
806.05	230.78
806.37	230.70
806.69	230.65
807.01	230.56
807.33	230.50
807.65	230.38
807.97	230.60
808.28	230.52
808.60	230.58
808.92	230.59
809.24	230.69
809.56	230.70
809.88	230.69
810.20	230.80
810.52	230.68
810.84	230.66
811.16	230.70
811.48	230.70
811.80	230.82
812.12	230.73
812.43	230.80
812.75	230.81
813.07	230.76
813.39	230.88
813.71	230.91
814.03	230.89
814.35	231.01
814.67	230.80
814.98	230.86
815.30	230.90
815.62	230.98
815.94	230.77
816.26	230.85
816.58	230.84
816.89	230.79
817.21	230.75
817.53	230.72
817.85	230.64
818.17	230.59
818.48	230.53
818.80	230.57
819.12	230.38
819.44	230.23
819.76	230.30
820.07	230.30
820.39	230.19
820.71	230.22
821.03	230.10
821.34	230.10
821.66	230.10
821.98	230.02
822.30	229.93
822.61	230.10
822.93	230.00
823.25	229.92
823.57	229.93
823.88	230.10
824.20	230.12
824.52	230.15
824.83	230.10
825.15	230.04
825.47	230.09
825.79	230.19
826.10	230.22
826.42	230.24
826.74	230.01
827.05	230.15
827.37	230.13
827.69	230.17
828.00	230.15
828.32	230.04
828.64	230.00
828.95	230.08
829.27	230.04
829.58	229.94
829.90	229.89
830.22	229.81
830.53	229.66
830.85	229.68
831.17	229.55
831.48	229.60
831.80	229.50
832.11	229.53
832.43	229.46
832.75	229.48
833.06	229.41
833.38	229.46
833.69	229.37
834.01	229.48
834.32	229.35
834.64	229.26
834.96	229.34
835.27	229.36
835.59	229.25
835.90	229.20
836.22	229.13
836.53	229.14
836.85	229.17
837.16	229.36
837.48	229.29
837.79	229.47
838.11	229.40
838.42	229.47
838.74	229.40
839.05	229.31
839.37	229.29
839.68	229.20
840.00	229.21
840.31	229.20
840.63	229.09
840.94	229.13
841.26	229.16
841.57	229.17
841.88	229.12
842.20	229.08
842.51	229.05
842.83	229.16
843.14	229.34
843.46	229.31
843.77	229.21
844.08	229.24
844.40	229.08
844.71	229.25
845.03	229.32
845.34	229.40
845.65	229.41
845.97	229.32
846.28	229.39
846.60	229.40
846.91	229.38
847.22	229.38
847.54	229.36
847.85	229.42
848.16	229.40
848.48	229.50
848.79	229.67
849.10	229.63
849.42	229.62
849.73	229.38
850.04	229.44
850.36	229.39
850.67	229.34
850.98	229.30
851.30	229.21
851.61	229.14
851.92	229.04
852.23	229.15
852.55	229.16
852.86	229.17
853.17	229.24
853.49	229.31
853.80	229.36
854.11	229.54
854.42	229.60
854.74	229.54
855.05	229.53
855.36	229.40
855.67	229.45
855.99	229.34
856.30	229.60
856.61	229.53
856.92	229.53
857.23	229.65
857.55	229.74
857.86	229.74
858.17	229.80
858.48	229.72
858.79	229.71
859.11	229.80
859.42	229.76
859.73	229.77
860.04	229.65
860.35	229.50
860.66	229.34
860.98	229.23
861.29	229.29
861.60	229.30
861.91	229.27
862.22	229.16
862.53	229.21
862.84	229.04
863.16	228.96
863.47	228.98
863.78	228.89
864.09	228.93
864.40	228.87
864.71	228.84
865.02	228.87
865.33	228.81
865.64	228.81
865.95	228.76
866.27	228.78
866.58	228.78
866.89	228.90
867.20	228.86
867.51	228.92
867.82	228.94
868.13	229.06
868.44	229.12
868.75	229.22
869.06	229.21
869.37	229.17
869.68	229.23
869.99	229.28
870.30	229.28
870.61	229.30
870.92	229.33
871.23	229.28
871.54	229.37
871.85	229.43
872.16	229.37
872.47	229.37
872.78	229.36
873.09	229.51
873.40	229.43
873.71	229.54
874.02	229.47
874.33	229.38
874.64	229.30
874.95	229.31
875.26	229.29
875.56	229.23
875.87	229.32
876.18	229.34
876.49	229.48
876.80	229.58
877.11	229.54
877.42	229.52
877.73	229.48
878.04	229.45
878.35	229.39
878.66	229.41
878.96	229.53
879.27	229.40
879.58	229.29
879.89	229.33
880.20	229.30
880.51	229.25
880.82	229.24
881.12	229.14
881.43	229.02
881.74	228.98
882.05	229.04
882.36	228.93
882.67	228.95
882.97	228.70
883.28	228.59
883.59	228.56
883.90	228.55
884.21	228.68
884.51	228.62
884.82	228.65
885.13	228.68
885.44	228.57
885.74	228.64
886.05	228.75
886.36	228.67
886.67	228.58
886.98	228.73
887.28	228.80
887.59	228.81
887.90	228.73
888.20	228.71
888.51	228.70
888.82	228.71
889.13	228.61
889.43	228.82
889.74	228.73
890.05	228.70
890.35	228.68
890.66	228.57
890.97	228.54
891.28	228.50
891.58	228.47
891.89	228.43
892.20	228.33
892.50	228.15
892.81	228.28
893.12	228.27
893.42	228.13
893.73	228.04
894.04	228.07
894.34	228.10
894.65	228.04
894.95	228.03
895.26	227.99
895.57	228.03
895.87	227.83
896.18	227.86
896.48	227.90
896.79	227.83
897.10	227.82
897.40	227.81
897.71	227.73
898.01	227.76
898.32	227.84
898.63	227.89
898.93	227.83
899.24	227.75
899.54	227.80
899.85	227.72
900.15	227.74
900.46	227.69
900.76	227.77
901.07	227.83
901.38	227.82
901.68	227.95
901.99	227.93
902.29	227.93
902.60	227.97
902.90	228.00
903.21	228.04
903.51	228.11
903.82	228.16
904.12	228.29
904.43	228.30
904.73	228.24
905.03	228.30
905.34	228.66
905.64	228.61
905.95	228.63
906.25	228.66
906.56	228.73
906.86	228.70
907.17	228.66
907.47	228.62
907.77	228.65
908.08	228.52
908.38	228.54
908.69	228.60
908.99	228.73
909.30	228.66
909.60	228.72
909.90	228.72
910.21	228.78
910.51	228.70
910.81	228.67
911.12	228.71
911.42	228.74
911.73	228.46
912.03	228.57
912.33	228.56
912.64	228.58
912.94	228.46
913.24	228.52
913.55	228.51
913.85	228.63
914.15	228.75
914.46	228.82
914.76	228.78
915.06	228.76
915.37	228.70
915.67	228.73
915.97	228.70
916.27	228.65
916.58	228.63
916.88	228.73
917.18	228.72
917.49	228.84
917.79	228.78
918.09	228.81
918.39	228.89
918.70	228.90
919.00	228.97
919.30	229.12
919.60	229.09
919.91	229.17
920.21	229.11
920.51	229.04
920.81	228.99
921.12	229.00
921.42	229.06
921.72	229.01
922.02	228.96
922.32	229.04
922.63	229.06
922.93	229.07
923.23	229.06
923.53	229.04
923.83	228.90
924.13	228.92
924.44	229.03
924.74	228.93
925.04	228.92
925.34	228.88
925.64	228.75
925.94	228.72
926.24	228.84
926.55	228.83
926.85	228.78
927.15	228.80
927.45	228.74
927.75	228.62
928.05	228.57
928.35	228.58
928.65	228.46
928.95	228.52
929.26	228.46
929.56	228.43
929.86	228.51
930.16	228.48
930.46	228.38
930.76	228.21
931.06	228.09
931.36	228.03
931.66	227.98
931.96	227.98
932.26	228.00
932.56	227.73
932.86	227.66
933.16	227.63
933.46	227.63
933.76	227.73
934.06	227.79
934.36	227.78
934.66	227.73
934.96	227.75
935.26	227.61
935.56	227.65
935.86	227.61
936.16	227.52
936.46	227.49
936.76	227.55
937.06	227.56
937.36	227.67
937.66	227.63
937.96	227.74
938.26	227.80
938.56	227.73
938.86	227.80
939.16	227.93
939.46	227.90
939.76	227.90
940.06	227.86
940.35	227.76
940.65	227.80
940.95	227.83
941.25	227.75
941.55	227.85
941.85	227.90
942.15	227.97
942.45	228.06
942.75	228.13
943.04	228.09
943.34	228.09
943.64	228.04
943.94	228.03
944.24	227.98
944.54	227.93
944.84	228.02
945.13	228.02
945.43	227.95
945.73	227.99
946.03	227.92
946.33	227.90
946.62	227.87
946.92	227.90
947.22	227.99
947.52	228.04
947.82	228.04
948.11	227.93
948.41	227.86
948.71	227.83
949.01	227.80
949.31	227.85
949.60	227.92
949.90	227.95
950.20	228.01
950.50	228.05
950.79	228.06
951.09	228.11
951.39	228.12
951.69	228.13
951.98	228.14
952.28	228.29
952.58	228.23
952.87	228.37
953.17	228.32
953.47	228.32
953.76	228.33
954.06	228.36
954.36	228.35
954.66	228.38
954.95	228.37
955.25	228.49
955.55	228.52
955.84	228.40
956.14	228.50
956.44	228.50
956.73	228.52
957.03	228.50
957.32	228.34
957.62	228.32
957.92	228.41
958.21	228.33
958.51	228.53
958.81	228.67
959.10	228.68
959.40	228.76
959.69	228.78
959.99	228.83
960.29	228.73
960.58	228.64
960.88	228.73
961.17	228.73
961.47	228.69
961.76	228.69
962.06	228.72
962.36	228.63
962.65	228.63
962.95	228.61
963.24	228.60
963.54	228.72
963.83	228.69
964.13	228.70
964.42	228.64
964.72	228.44
965.01	228.42
965.31	228.26
965.60	228.17
965.90	228.12
966.19	228.01
966.49	228.08
966.78	228.12
967.08	228.00
967.37	227.94
967.67	227.90
967.96	227.84
968.26	227.95
968.55	227.89
968.85	227.86
969.14	227.82
969.43	227.86
969.73	227.83
970.02	227.84
970.32	227.69
970.61	227.76
970.91	227.61
971.20	227.58
971.49	227.64
971.79	227.64
972.08	227.54
972.38	227.61
972.67	227.63
972.96	227.76
973.26	227.80
973.55	227.94
973.85	227.90
974.14	227.81
974.43	227.77
974.73	227.79
975.02	227.82
975.31	227.81
975.61	227.83
975.90	227.83
976.19	227.82
976.49	227.81
976.78	227.83
977.07	227.90
977.37	227.80
977.66	227.92
977.95	227.89
978.24	228.01
978.54	228.08
978.83	228.02
979.12	228.03
979.42	227.99
979.71	227.90
980.00	227.90
980.29	228.03
980.59	228.09
980.88	228.14
981.17	228.05
981.46	228.09
981.76	228.09
982.05	228.09
982.34	228.14
982.63	228.08
982.93	228.17
983.22	228.21
983.51	228.33
983.80	228.33
984.09	228.44
984.39	228.40
984.68	228.47
984.97	228.45
985.26	228.38
985.55	228.43
985.85	228.32
986.14	228.42
986.43	228.48
986.72	228.40
987.01	228.36
987.30	228.47
987.59	228.45
987.89	228.45
988.18	228.44
988.47	228.50
988.76	228.57
989.05	228.50
989.34	228.47
989.63	228.54
989.92	228.48
990.22	228.45
990.51	228.50
990.80	228.40
991.09	228.35
991.38	228.45
991.67	228.44
991.96	228.60
992.25	228.57
992.54	228.50
992.83	228.52
993.12	228.59
993.41	228.57
993.70	228.66
993.99	228.74
994.28	228.72
994.58	228.77
994.87	228.83
995.16	228.81
995.45	228.85
995.74	228.73
996.03	228.67
996.32	228.70
996.61	228.70
996.90	228.66
997.19	228.70
997.48	228.58
997.77	228.57
998.06	228.49
998.34	228.54
998.63	228.51
998.92	228.44
999.21	228.37
999.50	228.34
999.79	228.20
1000.08	228.10
1000.37	228.05
1000.66	227.94
1000.95	227.95
1001.24	227.96
1001.53	227.93
1001.82	227.94
1002.11	227.94
1002.40	227.82
1002.68	227.77
1002.97	227.96
1003.26	228.00
1003.55	227.88
1003.84	227.78
1004.13	227.90
1004.42	227.71
1004.71	227.70
1004.99	227.66
1005.28	227.74
1005.57	227.72
1005.86	227.69
1006.15	227.62
1006.44	227.69
1006.72	227.63
1007.01	227.53
1007.30	227.60
1007.59	227.55
1007.88	227.50
1008.17	227.53
1008.45	227.50
1008.74	227.42
1009.03	227.28
1009.32	227.21
1009.60	227.24
1009.89	227.29
1010.18	227.10
1010.47	227.09
1010.76	227.10
1011.04	227.20
1011.33	227.12
1011.62	227.08
1011.91	227.05
1012.19	227.15
1012.48	227.19
1012.77	227.30
1013.05	227.35
1013.34	227.32
1013.63	227.34
1013.92	227.40
1014.20	227.38
1014.49	227.43
1014.78	227.50
1015.06	227.44
1015.35	227.49
1015.64	227.59
1015.92	227.61
1016.21	227.63
1016.50	227.74
1016.78	227.88
1017.07	227.91
1017.36	227.98
1017.64	228.08
1017.93	228.20
1018.22	228.18
1018.50	228.20
1018.79	228.16
1019.08	228.15
1019.36	228.24
1019.65	228.26
1019.93	228.30
1020.22	228.32
1020.51	228.48
1020.79	228.59
1021.08	228.00
1021.36	229.30
1021.65	228.10
1021.94	227.30
1022.22	230.30
1022.51	228.60
1022.79	228.60
1023.08	227.60
1023.36	230.50
1023.65	230.40
>>>>>End Processed Spectral Data<<<<<
