SpectraSuite Data File
++++++++++++++++++++++++++++++++++++
Date: Fri Feb 01 14:38:46 EST 2013
User: group
Dark Spectrum Present: No
Reference Spectrum Present: No
Number of Sampled Component Spectra: 1
Spectrometers: USB2E7196
Integration Time (usec): 70000 (USB2E7196)
Spectra Averaged: 10 (USB2E7196)
Boxcar Smoothing: 10 (USB2E7196)
Correct for Electrical Dark: No (USB2E7196)
Strobe/Lamp Enabled: No (USB2E7196)
Correct for Detector Non-linearity: No (USB2E7196)
Correct for Stray Light: No (USB2E7196)
Number of Pixels in Processed Spectrum: 2048
>>>>>Begin Processed Spectral Data<<<<<
339.09	0.00
339.48	214.60
339.86	217.30
340.24	217.80
340.63	219.90
341.01	222.30
341.39	223.40
341.78	223.40
342.16	226.70
342.54	227.50
342.93	213.76
343.31	224.58
343.69	225.19
344.07	225.54
344.46	226.05
344.84	226.39
345.22	226.60
345.60	226.74
345.99	226.86
346.37	226.96
346.75	226.95
347.13	227.00
347.52	227.02
347.90	227.27
348.28	227.24
348.66	227.38
349.05	227.28
349.43	227.36
349.81	227.47
350.19	227.62
350.57	227.69
350.96	227.67
351.34	227.80
351.72	227.85
352.10	227.99
352.48	228.05
352.87	228.20
353.25	228.22
353.63	228.39
354.01	228.48
354.39	228.58
354.77	228.73
355.15	228.89
355.54	228.97
355.92	228.93
356.30	229.03
356.68	229.21
357.06	229.40
357.44	229.50
357.82	229.50
358.20	229.70
358.58	229.74
358.97	229.97
359.35	230.06
359.73	230.19
360.11	230.25
360.49	230.31
360.87	230.33
361.25	230.49
361.63	230.51
362.01	230.61
362.39	230.55
362.77	230.56
363.15	230.56
363.53	230.62
363.91	230.53
364.29	230.63
364.67	230.46
365.05	230.50
365.43	230.44
365.81	230.51
366.19	230.41
366.57	230.54
366.95	230.55
367.33	230.39
367.71	230.34
368.09	230.45
368.47	230.41
368.85	230.32
369.23	230.37
369.61	230.20
369.99	230.24
370.37	230.22
370.75	230.17
371.13	230.07
371.51	229.96
371.89	229.96
372.27	229.86
372.65	229.77
373.03	229.61
373.41	229.52
373.78	229.37
374.16	229.33
374.54	229.12
374.92	229.07
375.30	229.08
375.68	228.97
376.06	228.91
376.44	228.79
376.82	228.75
377.19	228.59
377.57	228.61
377.95	228.49
378.33	228.36
378.71	228.26
379.09	228.20
379.47	228.17
379.84	228.12
380.22	228.03
380.60	228.02
380.98	228.00
381.36	227.78
381.73	227.58
382.11	227.47
382.49	227.47
382.87	227.20
383.25	227.14
383.62	227.33
384.00	227.20
384.38	227.23
384.76	227.20
385.13	227.14
385.51	227.10
385.89	227.00
386.27	227.02
386.64	226.97
387.02	226.97
387.40	226.83
387.78	226.88
388.15	226.77
388.53	226.76
388.91	226.65
389.29	226.78
389.66	226.96
390.04	226.86
390.42	226.90
390.79	226.98
391.17	226.96
391.55	226.66
391.92	226.64
392.30	226.50
392.68	226.50
393.05	226.58
393.43	226.59
393.81	226.62
394.18	226.62
394.56	226.74
394.94	226.82
395.31	226.90
395.69	226.97
396.06	227.08
396.44	227.19
396.82	227.28
397.19	227.52
397.57	227.41
397.95	227.50
398.32	227.45
398.70	227.58
399.07	227.75
399.45	227.91
399.82	227.99
400.20	228.14
400.58	228.22
400.95	228.25
401.33	228.40
401.70	228.59
402.08	228.78
402.45	228.78
402.83	228.94
403.20	229.12
403.58	229.20
403.95	229.33
404.33	229.33
404.71	229.53
405.08	229.57
405.46	229.84
405.83	230.10
406.21	230.31
406.58	230.48
406.96	230.58
407.33	230.80
407.70	230.99
408.08	231.38
408.45	231.60
408.83	231.75
409.20	231.93
409.58	232.18
409.95	232.44
410.33	232.71
410.70	232.87
411.08	233.16
411.45	233.47
411.82	233.75
412.20	234.20
412.57	234.65
412.95	235.05
413.32	235.49
413.69	236.00
414.07	236.53
414.44	236.97
414.82	237.47
415.19	238.10
415.56	238.68
415.94	239.15
416.31	239.85
416.68	240.69
417.06	241.53
417.43	242.33
417.81	243.17
418.18	244.04
418.55	245.06
418.93	246.09
419.30	247.06
419.67	248.29
420.04	249.32
420.42	250.44
420.79	251.72
421.16	253.14
421.54	254.52
421.91	255.86
422.28	257.39
422.66	258.99
423.03	260.60
423.40	262.29
423.77	263.98
424.15	265.72
424.52	267.57
424.89	269.41
425.26	271.17
425.64	272.99
426.01	275.07
426.38	277.06
426.75	279.08
427.13	281.28
427.50	283.61
427.87	285.76
428.24	287.97
428.61	290.12
428.99	292.50
429.36	295.03
429.73	297.60
430.10	300.19
430.47	302.90
430.85	305.43
431.22	308.28
431.59	311.36
431.96	314.19
432.33	317.35
432.70	320.45
433.08	324.16
433.45	327.54
433.82	330.89
434.19	334.72
434.56	338.44
434.93	341.87
435.30	345.11
435.68	349.19
436.05	353.12
436.42	356.76
436.79	360.10
437.16	363.80
437.53	367.45
437.90	371.30
438.27	375.03
438.64	378.95
439.01	382.59
439.38	385.79
439.75	388.92
440.13	392.40
440.50	395.62
440.87	398.28
441.24	401.06
441.61	404.15
441.98	406.30
442.35	409.04
442.72	411.71
443.09	414.49
443.46	416.15
443.83	417.16
444.20	418.32
444.57	419.83
444.94	420.51
445.31	421.53
445.68	422.51
446.05	422.88
446.42	422.73
446.79	422.49
447.16	422.21
447.53	422.22
447.90	421.07
448.27	420.02
448.64	418.27
449.01	417.22
449.37	414.90
449.74	412.81
450.11	410.11
450.48	407.34
450.85	404.13
451.22	401.52
451.59	399.10
451.96	396.76
452.33	393.43
452.70	390.51
453.07	386.98
453.43	383.15
453.80	379.67
454.17	376.29
454.54	373.10
454.91	369.59
455.28	366.00
455.65	362.86
456.02	359.91
456.38	357.27
456.75	353.77
457.12	351.03
457.49	348.29
457.86	345.39
458.23	342.85
458.59	340.33
458.96	337.67
459.33	335.38
459.70	333.00
460.07	331.15
460.43	328.98
460.80	326.85
461.17	325.00
461.54	323.05
461.91	321.17
462.27	319.12
462.64	317.55
463.01	315.76
463.38	313.96
463.74	311.92
464.11	310.25
464.48	308.90
464.85	307.34
465.21	306.13
465.58	304.84
465.95	303.39
466.32	302.14
466.68	300.92
467.05	299.57
467.42	298.33
467.78	297.03
468.15	295.68
468.52	294.77
468.88	293.47
469.25	292.28
469.62	291.29
469.98	290.39
470.35	289.39
470.72	288.59
471.08	287.51
471.45	286.74
471.82	285.86
472.18	284.70
472.55	283.87
472.92	282.96
473.28	282.21
473.65	281.42
474.02	280.68
474.38	279.95
474.75	279.38
475.11	278.72
475.48	278.06
475.85	277.63
476.21	277.00
476.58	276.61
476.94	276.20
477.31	275.72
477.67	275.18
478.04	274.75
478.41	274.21
478.77	273.98
479.14	273.51
479.50	273.17
479.87	273.02
480.23	272.84
480.60	272.50
480.96	272.29
481.33	272.16
481.69	271.84
482.06	271.63
482.42	271.37
482.79	271.07
483.15	270.90
483.52	270.84
483.88	270.70
484.25	270.53
484.61	270.46
484.98	270.39
485.34	270.45
485.71	270.40
486.07	270.48
486.44	270.30
486.80	270.30
487.17	270.40
487.53	270.57
487.90	270.58
488.26	270.70
488.62	270.76
488.99	270.83
489.35	271.03
489.72	271.16
490.08	271.37
490.44	271.55
490.81	271.79
491.17	271.98
491.54	272.27
491.90	272.41
492.26	272.62
492.63	272.86
492.99	273.04
493.36	273.35
493.72	273.70
494.08	274.01
494.45	274.39
494.81	274.69
495.17	274.82
495.54	275.12
495.90	275.43
496.26	275.79
496.63	276.14
496.99	276.53
497.35	276.98
497.72	277.27
498.08	277.60
498.44	277.96
498.80	278.26
499.17	278.64
499.53	279.05
499.89	279.52
500.26	280.03
500.62	280.42
500.98	280.89
501.34	281.15
501.71	281.70
502.07	282.07
502.43	282.41
502.79	282.90
503.16	283.33
503.52	283.72
503.88	284.12
504.24	284.70
504.60	284.98
504.97	285.36
505.33	285.92
505.69	286.56
506.05	287.19
506.41	287.87
506.78	288.45
507.14	289.09
507.50	289.61
507.86	290.20
508.22	290.86
508.59	291.40
508.95	292.22
509.31	292.95
509.67	293.67
510.03	294.52
510.39	295.35
510.75	296.24
511.12	297.13
511.48	298.02
511.84	298.71
512.20	299.81
512.56	300.89
512.92	301.94
513.28	302.97
513.64	304.13
514.00	305.19
514.37	306.38
514.73	307.62
515.09	309.00
515.45	310.37
515.81	311.95
516.17	313.56
516.53	315.10
516.89	316.75
517.25	318.47
517.61	320.33
517.97	322.17
518.33	324.18
518.69	326.20
519.05	328.55
519.41	330.91
519.77	333.26
520.13	335.56
520.49	337.80
520.85	340.40
521.21	343.01
521.57	345.98
521.93	348.83
522.29	351.78
522.65	354.57
523.01	357.63
523.37	360.69
523.73	363.83
524.09	367.03
524.45	370.30
524.81	373.73
525.17	377.14
525.53	380.80
525.89	384.28
526.25	388.19
526.61	391.69
526.97	395.67
527.33	399.54
527.68	403.86
528.04	408.30
528.40	412.59
528.76	417.00
529.12	421.28
529.48	425.79
529.84	430.18
530.20	435.01
530.56	439.97
530.91	444.86
531.27	449.86
531.63	454.94
531.99	460.03
532.35	465.19
532.71	470.57
533.07	475.84
533.42	481.50
533.78	486.73
534.14	492.32
534.50	497.65
534.86	503.44
535.21	508.99
535.57	514.70
535.93	520.47
536.29	526.34
536.65	532.13
537.00	537.98
537.36	544.15
537.72	550.07
538.08	555.91
538.44	561.77
538.79	567.79
539.15	573.99
539.51	580.49
539.87	587.03
540.22	593.23
540.58	599.67
540.94	605.88
541.29	612.50
541.65	618.88
542.01	625.42
542.37	631.86
542.72	638.39
543.08	644.76
543.44	651.30
543.79	657.47
544.15	664.17
544.51	670.80
544.87	677.31
545.22	683.90
545.58	690.23
545.94	696.70
546.29	703.08
546.65	709.32
547.01	715.39
547.36	721.39
547.72	727.70
548.07	734.00
548.43	740.29
548.79	746.42
549.14	752.70
549.50	758.75
549.86	764.77
550.21	770.74
550.57	776.87
550.92	782.77
551.28	788.90
551.64	794.72
551.99	800.50
552.35	806.36
552.70	812.32
553.06	818.25
553.41	824.19
553.77	830.07
554.13	835.89
554.48	841.78
554.84	847.50
555.19	853.16
555.55	858.87
555.90	864.22
556.26	869.85
556.61	875.30
556.97	880.84
557.32	886.30
557.68	891.60
558.03	896.97
558.39	902.19
558.74	907.75
559.10	913.08
559.45	918.40
559.81	923.90
560.16	929.00
560.52	934.45
560.87	939.66
561.23	944.29
561.58	949.38
561.94	954.21
562.29	958.73
562.64	963.54
563.00	967.93
563.35	972.81
563.71	977.37
564.06	982.05
564.42	986.75
564.77	991.12
565.12	995.73
565.48	1000.20
565.83	1004.28
566.19	1008.13
566.54	1012.09
566.89	1016.00
567.25	1019.62
567.60	1023.60
567.96	1027.03
568.31	1030.85
568.66	1034.81
569.02	1038.39
569.37	1041.83
569.72	1045.63
570.08	1048.39
570.43	1051.55
570.78	1054.56
571.14	1057.36
571.49	1060.22
571.84	1063.18
572.20	1065.93
572.55	1068.34
572.90	1070.66
573.26	1073.58
573.61	1075.84
573.96	1078.17
574.31	1079.87
574.67	1081.30
575.02	1082.76
575.37	1084.52
575.72	1085.30
576.08	1087.03
576.43	1088.05
576.78	1089.39
577.13	1090.71
577.49	1092.30
577.84	1093.78
578.19	1094.87
578.54	1096.01
578.90	1096.72
579.25	1096.91
579.60	1097.37
579.95	1097.76
580.30	1097.94
580.66	1097.93
581.01	1098.03
581.36	1098.51
581.71	1099.18
582.06	1099.87
582.42	1100.16
582.77	1099.86
583.12	1100.10
583.47	1099.94
583.82	1100.51
584.17	1100.44
584.53	1100.28
584.88	1100.28
585.23	1099.95
585.58	1099.68
585.93	1099.31
586.28	1099.26
586.63	1099.40
586.98	1099.11
587.34	1098.77
587.69	1098.68
588.04	1098.35
588.39	1098.28
588.74	1097.10
589.09	1096.09
589.44	1094.95
589.79	1094.12
590.14	1093.55
590.49	1092.80
590.84	1091.85
591.19	1090.66
591.54	1089.15
591.89	1087.20
592.25	1085.69
592.60	1083.85
592.95	1082.32
593.30	1080.54
593.65	1078.50
594.00	1076.21
594.35	1075.00
594.70	1072.81
595.05	1071.03
595.40	1069.07
595.75	1067.01
596.10	1065.30
596.45	1063.87
596.80	1062.48
597.15	1060.77
597.50	1058.72
597.85	1057.28
598.19	1055.20
598.54	1053.43
598.89	1051.86
599.24	1050.76
599.59	1049.05
599.94	1047.32
600.29	1045.36
600.64	1043.36
600.99	1041.25
601.34	1039.62
601.69	1037.17
602.04	1035.67
602.39	1033.37
602.74	1031.54
603.08	1029.52
603.43	1027.66
603.78	1025.23
604.13	1022.96
604.48	1020.48
604.83	1018.45
605.18	1016.09
605.53	1013.63
605.87	1010.56
606.22	1007.93
606.57	1005.17
606.92	1002.60
607.27	1000.19
607.62	997.73
607.96	995.32
608.31	993.04
608.66	990.02
609.01	987.21
609.36	984.05
609.70	981.03
610.05	977.90
610.40	974.74
610.75	971.48
611.10	968.46
611.44	964.72
611.79	961.70
612.14	958.66
612.49	955.10
612.83	951.89
613.18	948.66
613.53	945.31
613.88	941.59
614.22	937.97
614.57	934.26
614.92	930.71
615.27	927.10
615.61	923.62
615.96	920.47
616.31	917.17
616.65	914.55
617.00	911.40
617.35	908.04
617.70	904.63
618.04	900.80
618.39	897.34
618.74	894.47
619.08	890.94
619.43	887.47
619.78	884.10
620.12	880.66
620.47	877.54
620.82	874.22
621.16	871.23
621.51	868.11
621.85	865.04
622.20	861.61
622.55	858.26
622.89	855.08
623.24	851.65
623.59	848.40
623.93	844.69
624.28	841.13
624.62	837.77
624.97	834.75
625.32	831.98
625.66	828.84
626.01	825.46
626.35	822.13
626.70	818.79
627.04	815.53
627.39	812.26
627.73	808.76
628.08	805.64
628.43	802.12
628.77	798.72
629.12	795.20
629.46	791.73
629.81	788.32
630.15	784.54
630.50	781.14
630.84	777.32
631.19	773.54
631.53	770.11
631.88	766.28
632.22	762.31
632.57	758.74
632.91	754.75
633.26	751.02
633.60	747.40
633.95	743.71
634.29	740.38
634.64	736.89
634.98	733.32
635.32	729.93
635.67	727.03
636.01	723.63
636.36	720.26
636.70	717.10
637.05	713.87
637.39	710.76
637.73	707.59
638.08	704.69
638.42	701.87
638.77	698.75
639.11	695.74
639.45	692.82
639.80	689.59
640.14	686.67
640.49	683.78
640.83	680.74
641.17	677.83
641.52	674.54
641.86	671.53
642.20	668.70
642.55	665.39
642.89	662.10
643.23	658.99
643.58	656.10
643.92	652.96
644.26	649.96
644.61	647.08
644.95	644.05
645.29	640.71
645.64	637.11
645.98	634.06
646.32	631.25
646.66	628.08
647.01	624.96
647.35	622.01
647.69	618.86
648.04	615.96
648.38	612.55
648.72	609.11
649.06	605.89
649.41	602.60
649.75	599.27
650.09	595.92
650.43	592.64
650.78	589.06
651.12	585.73
651.46	582.64
651.80	579.32
652.14	576.30
652.49	573.10
652.83	570.26
653.17	567.10
653.51	563.66
653.85	560.48
654.20	557.24
654.54	554.01
654.88	551.00
655.22	547.72
655.56	544.76
655.90	542.12
656.25	539.17
656.59	536.32
656.93	533.68
657.27	530.91
657.61	527.94
657.95	525.66
658.29	522.95
658.64	520.10
658.98	517.41
659.32	514.41
659.66	511.72
660.00	509.16
660.34	506.57
660.68	503.85
661.02	501.26
661.36	498.91
661.70	496.40
662.05	493.80
662.39	491.38
662.73	488.95
663.07	486.49
663.41	484.19
663.75	481.92
664.09	479.52
664.43	477.17
664.77	474.92
665.11	472.49
665.45	470.39
665.79	468.28
666.13	465.94
666.47	463.64
666.81	461.57
667.15	459.03
667.49	456.74
667.83	454.92
668.17	452.73
668.51	450.62
668.85	448.64
669.19	446.75
669.53	444.71
669.87	442.67
670.21	440.58
670.55	438.51
670.89	436.50
671.23	434.46
671.57	432.46
671.91	430.78
672.25	428.74
672.58	426.80
672.92	424.76
673.26	423.01
673.60	421.37
673.94	419.64
674.28	418.15
674.62	416.56
674.96	414.75
675.30	413.18
675.64	411.39
675.97	409.64
676.31	407.98
676.65	406.28
676.99	404.79
677.33	403.23
677.67	401.56
678.01	399.93
678.34	398.37
678.68	396.73
679.02	394.95
679.36	393.51
679.70	391.85
680.04	390.34
680.37	388.69
680.71	386.94
681.05	385.50
681.39	384.00
681.73	382.56
682.06	381.22
682.40	379.86
682.74	378.53
683.08	377.09
683.42	375.62
683.75	374.25
684.09	372.77
684.43	371.22
684.77	370.00
685.10	368.48
685.44	367.08
685.78	365.69
686.12	364.37
686.45	362.86
686.79	361.57
687.13	360.25
687.46	358.81
687.80	357.55
688.14	355.93
688.48	354.75
688.81	353.20
689.15	351.83
689.49	350.39
689.82	348.99
690.16	347.61
690.50	346.20
690.83	344.81
691.17	343.45
691.51	342.25
691.84	340.90
692.18	339.70
692.52	338.40
692.85	337.28
693.19	335.99
693.52	334.87
693.86	333.52
694.20	332.27
694.53	331.15
694.87	329.96
695.21	328.78
695.54	327.55
695.88	326.47
696.21	325.14
696.55	323.96
696.88	322.83
697.22	321.80
697.56	320.74
697.89	319.67
698.23	318.65
698.56	317.49
698.90	316.39
699.23	315.28
699.57	314.20
699.90	313.14
700.24	312.22
700.58	311.24
700.91	310.46
701.25	309.63
701.58	308.73
701.92	307.89
702.25	307.17
702.59	306.17
702.92	305.34
703.26	304.55
703.59	303.73
703.93	303.00
704.26	302.24
704.60	301.50
704.93	300.76
705.26	299.98
705.60	299.34
705.93	298.68
706.27	298.09
706.60	297.51
706.94	296.95
707.27	296.16
707.61	295.40
707.94	294.53
708.27	293.75
708.61	293.05
708.94	292.31
709.28	291.51
709.61	290.93
709.94	290.26
710.28	289.64
710.61	289.10
710.95	288.32
711.28	287.73
711.61	287.14
711.95	286.49
712.28	285.75
712.61	285.11
712.95	284.45
713.28	283.78
713.61	282.98
713.95	282.27
714.28	281.79
714.61	281.15
714.95	280.74
715.28	280.14
715.61	279.55
715.95	279.05
716.28	278.50
716.61	277.80
716.95	277.24
717.28	276.80
717.61	276.13
717.94	275.65
718.28	275.08
718.61	274.48
718.94	274.03
719.27	273.67
719.61	273.29
719.94	272.70
720.27	272.20
720.60	271.85
720.94	271.36
721.27	270.86
721.60	270.48
721.93	269.97
722.27	269.58
722.60	269.24
722.93	268.80
723.26	268.49
723.59	268.06
723.93	267.75
724.26	267.31
724.59	266.90
724.92	266.46
725.25	266.09
725.59	265.72
725.92	265.21
726.25	264.83
726.58	264.30
726.91	264.00
727.24	263.60
727.57	263.30
727.91	262.83
728.24	262.43
728.57	262.09
728.90	261.80
729.23	261.43
729.56	261.04
729.89	260.69
730.22	260.20
730.55	259.84
730.89	259.45
731.22	259.01
731.55	258.70
731.88	258.38
732.21	257.92
732.54	257.55
732.87	257.18
733.20	256.78
733.53	256.54
733.86	256.25
734.19	255.96
734.52	255.53
734.85	255.44
735.18	255.10
735.51	254.80
735.84	254.40
736.17	254.02
736.50	253.62
736.83	253.49
737.16	253.34
737.49	253.20
737.82	252.89
738.15	252.69
738.48	252.40
738.81	252.15
739.14	251.86
739.47	251.48
739.80	251.35
740.13	251.19
740.46	250.94
740.79	250.69
741.12	250.43
741.45	250.20
741.78	249.88
742.11	249.71
742.44	249.45
742.77	249.30
743.10	249.12
743.43	248.93
743.75	248.54
744.08	248.60
744.41	248.33
744.74	248.25
745.07	248.03
745.40	247.89
745.73	247.76
746.06	247.60
746.39	247.54
746.71	247.36
747.04	247.11
747.37	246.76
747.70	246.55
748.03	246.25
748.36	246.06
748.68	245.82
749.01	245.57
749.34	245.42
749.67	245.20
750.00	245.06
750.33	245.07
750.65	244.98
750.98	244.47
751.31	244.37
751.64	244.12
751.97	243.98
752.29	243.78
752.62	243.53
752.95	243.42
753.28	243.29
753.60	243.09
753.93	242.98
754.26	242.87
754.59	242.73
754.91	242.62
755.24	242.50
755.57	242.33
755.90	242.18
756.22	242.00
756.55	241.84
756.88	241.60
757.20	241.30
757.53	241.09
757.86	241.02
758.19	240.86
758.51	240.68
758.84	240.50
759.17	240.44
759.49	240.33
759.82	240.19
760.15	240.06
760.47	240.01
760.80	239.77
761.13	239.79
761.45	239.63
761.78	239.56
762.11	239.46
762.43	239.34
762.76	239.17
763.08	239.08
763.41	238.98
763.74	238.94
764.06	238.83
764.39	238.73
764.71	238.60
765.04	238.45
765.37	238.24
765.69	238.14
766.02	237.95
766.34	237.93
766.67	237.75
767.00	237.60
767.32	237.50
767.65	237.53
767.97	237.34
768.30	237.27
768.62	237.24
768.95	237.00
769.27	236.88
769.60	236.84
769.92	236.63
770.25	236.45
770.57	236.27
770.90	236.08
771.22	235.93
771.55	235.79
771.87	235.70
772.20	235.62
772.52	235.66
772.85	235.73
773.17	235.43
773.50	235.27
773.82	235.27
774.15	235.02
774.47	234.77
774.80	234.64
775.12	234.46
775.45	234.26
775.77	234.25
776.09	234.17
776.42	234.11
776.74	234.15
777.07	234.18
777.39	234.14
777.72	233.98
778.04	233.92
778.36	233.80
778.69	233.71
779.01	233.72
779.33	233.45
779.66	233.25
779.98	233.27
780.31	233.42
780.63	233.34
780.95	233.32
781.28	233.26
781.60	233.22
781.92	233.20
782.25	233.17
782.57	233.17
782.89	233.17
783.22	233.00
783.54	232.91
783.86	232.84
784.19	232.81
784.51	232.92
784.83	232.94
785.16	232.96
785.48	233.00
785.80	232.93
786.12	233.00
786.45	233.00
786.77	233.01
787.09	232.88
787.42	232.78
787.74	232.80
788.06	232.81
788.38	232.80
788.71	232.87
789.03	232.83
789.35	232.85
789.67	232.79
789.99	232.93
790.32	232.88
790.64	232.88
790.96	233.05
791.28	233.09
791.61	233.05
791.93	233.01
792.25	233.04
792.57	233.18
792.89	233.09
793.21	233.12
793.54	233.05
793.86	232.96
794.18	233.01
794.50	232.99
794.82	233.00
795.14	232.97
795.47	232.98
795.79	232.96
796.11	232.87
796.43	232.92
796.75	232.85
797.07	232.87
797.39	232.79
797.71	232.60
798.04	232.56
798.36	232.45
798.68	232.41
799.00	232.42
799.32	232.27
799.64	232.30
799.96	232.18
800.28	232.20
800.60	232.34
800.92	232.35
801.24	232.29
801.56	232.30
801.89	232.27
802.21	232.27
802.53	232.31
802.85	232.28
803.17	232.24
803.49	232.12
803.81	231.98
804.13	231.98
804.45	231.90
804.77	231.80
805.09	231.87
805.41	231.79
805.73	231.58
806.05	231.47
806.37	231.37
806.69	231.29
807.01	231.21
807.33	231.02
807.65	230.85
807.97	230.85
808.28	230.73
808.60	230.68
808.92	230.59
809.24	230.50
809.56	230.44
809.88	230.35
810.20	230.41
810.52	230.48
810.84	230.40
811.16	230.28
811.48	230.22
811.80	230.06
812.12	230.07
812.43	230.10
812.75	230.10
813.07	230.06
813.39	230.10
813.71	230.08
814.03	230.01
814.35	229.92
814.67	229.73
814.98	229.69
815.30	229.61
815.62	229.45
815.94	229.30
816.26	229.40
816.58	229.29
816.89	229.20
817.21	229.04
817.53	229.06
817.85	228.99
818.17	228.90
818.48	228.86
818.80	228.78
819.12	228.69
819.44	228.63
819.76	228.62
820.07	228.45
820.39	228.36
820.71	228.45
821.03	228.45
821.34	228.57
821.66	228.59
821.98	228.74
822.30	228.80
822.61	228.95
822.93	228.83
823.25	228.85
823.57	228.92
823.88	229.03
824.20	229.09
824.52	229.21
824.83	229.29
825.15	229.26
825.47	229.30
825.79	229.30
826.10	229.32
826.42	229.28
826.74	229.32
827.05	229.39
827.37	229.37
827.69	229.46
828.00	229.45
828.32	229.50
828.64	229.34
828.95	229.43
829.27	229.41
829.58	229.48
829.90	229.52
830.22	229.49
830.53	229.38
830.85	229.19
831.17	229.10
831.48	229.21
831.80	229.35
832.11	229.43
832.43	229.42
832.75	229.43
833.06	229.56
833.38	229.66
833.69	229.64
834.01	229.60
834.32	229.75
834.64	229.76
834.96	229.81
835.27	229.91
835.59	229.88
835.90	229.91
836.22	229.85
836.53	229.87
836.85	229.82
837.16	230.04
837.48	230.19
837.79	230.25
838.11	230.13
838.42	230.14
838.74	230.13
839.05	230.06
839.37	230.01
839.68	229.99
840.00	229.99
840.31	229.98
840.63	229.89
840.94	229.75
841.26	229.67
841.57	229.59
841.88	229.70
842.20	229.67
842.51	229.65
842.83	229.62
843.14	229.72
843.46	229.68
843.77	229.61
844.08	229.53
844.40	229.44
844.71	229.46
845.03	229.35
845.34	229.36
845.65	229.45
845.97	229.45
846.28	229.38
846.60	229.32
846.91	229.22
847.22	229.21
847.54	229.17
847.85	229.16
848.16	229.13
848.48	229.02
848.79	229.08
849.10	228.92
849.42	229.01
849.73	228.89
850.04	228.96
850.36	228.94
850.67	228.86
850.98	228.91
851.30	228.94
851.61	228.98
851.92	228.90
852.23	228.95
852.55	228.96
852.86	228.96
853.17	228.90
853.49	228.96
853.80	228.97
854.11	229.06
854.42	229.11
854.74	229.02
855.05	229.01
855.36	228.85
855.67	228.92
855.99	228.82
856.30	228.95
856.61	228.90
856.92	228.99
857.23	228.96
857.55	228.95
857.86	228.86
858.17	228.91
858.48	228.90
858.79	228.94
859.11	228.99
859.42	229.00
859.73	229.00
860.04	229.00
860.35	229.09
860.66	229.01
860.98	228.97
861.29	228.97
861.60	228.81
861.91	228.87
862.22	228.83
862.53	228.84
862.84	228.69
863.16	228.79
863.47	228.61
863.78	228.72
864.09	228.76
864.40	228.87
864.71	228.85
865.02	228.82
865.33	228.68
865.64	228.62
865.95	228.59
866.27	228.74
866.58	228.77
866.89	228.68
867.20	228.57
867.51	228.52
867.82	228.55
868.13	228.64
868.44	228.59
868.75	228.70
869.06	228.70
869.37	228.58
869.68	228.46
869.99	228.46
870.30	228.44
870.61	228.36
870.92	228.20
871.23	228.25
871.54	228.18
871.85	228.22
872.16	228.16
872.47	228.20
872.78	228.10
873.09	228.12
873.40	228.25
873.71	228.40
874.02	228.46
874.33	228.40
874.64	228.44
874.95	228.48
875.26	228.36
875.56	228.33
875.87	228.43
876.18	228.36
876.49	228.55
876.80	228.53
877.11	228.61
877.42	228.73
877.73	228.61
878.04	228.69
878.35	228.62
878.66	228.69
878.96	228.55
879.27	228.59
879.58	228.54
879.89	228.36
880.20	228.39
880.51	228.33
880.82	228.34
881.12	228.31
881.43	228.20
881.74	228.24
882.05	228.21
882.36	228.22
882.67	228.38
882.97	228.18
883.28	228.22
883.59	228.09
883.90	227.99
884.21	228.02
884.51	228.05
884.82	228.19
885.13	228.24
885.44	228.36
885.74	228.24
886.05	228.26
886.36	228.31
886.67	228.20
886.98	228.33
887.28	228.41
887.59	228.36
887.90	228.50
888.20	228.38
888.51	228.50
888.82	228.49
889.13	228.47
889.43	228.63
889.74	228.60
890.05	228.63
890.35	228.75
890.66	228.81
890.97	228.79
891.28	228.68
891.58	228.69
891.89	228.57
892.20	228.54
892.50	228.56
892.81	228.50
893.12	228.54
893.42	228.45
893.73	228.46
894.04	228.53
894.34	228.50
894.65	228.65
894.95	228.58
895.26	228.51
895.57	228.46
895.87	228.20
896.18	228.24
896.48	228.20
896.79	228.14
897.10	228.14
897.40	228.12
897.71	228.11
898.01	228.01
898.32	228.12
898.63	228.13
898.93	228.18
899.24	228.32
899.54	228.29
899.85	228.24
900.15	228.12
900.46	228.06
900.76	228.07
901.07	227.93
901.38	227.90
901.68	227.96
901.99	227.89
902.29	227.96
902.60	227.98
902.90	228.08
903.21	228.10
903.51	228.04
903.82	228.07
904.12	228.08
904.43	228.10
904.73	228.02
905.03	228.12
905.34	228.26
905.64	228.16
905.95	228.06
906.25	228.16
906.56	228.32
906.86	228.40
907.17	228.30
907.47	228.36
907.77	228.40
908.08	228.36
908.38	228.47
908.69	228.56
908.99	228.66
909.30	228.65
909.60	228.63
909.90	228.60
910.21	228.65
910.51	228.60
910.81	228.67
911.12	228.75
911.42	228.66
911.73	228.43
912.03	228.41
912.33	228.50
912.64	228.47
912.94	228.32
913.24	228.32
913.55	228.37
913.85	228.35
914.15	228.42
914.46	228.42
914.76	228.32
915.06	228.35
915.37	228.17
915.67	228.20
915.97	228.26
916.27	228.24
916.58	228.10
916.88	228.09
917.18	228.04
917.49	228.20
917.79	228.30
918.09	228.39
918.39	228.44
918.70	228.47
919.00	228.44
919.30	228.52
919.60	228.42
919.91	228.44
920.21	228.50
920.51	228.40
920.81	228.42
921.12	228.50
921.42	228.42
921.72	228.46
922.02	228.47
922.32	228.38
922.63	228.53
922.93	228.72
923.23	228.78
923.53	228.88
923.83	228.70
924.13	228.63
924.44	228.58
924.74	228.68
925.04	228.76
925.34	228.74
925.64	228.77
925.94	228.83
926.24	228.92
926.55	228.93
926.85	229.06
927.15	229.03
927.45	229.03
927.75	229.03
928.05	229.06
928.35	228.94
928.65	229.02
928.95	228.89
929.26	228.80
929.56	228.80
929.86	228.72
930.16	228.74
930.46	228.81
930.76	228.81
931.06	228.70
931.36	228.70
931.66	228.87
931.96	228.87
932.26	228.82
932.56	228.77
932.86	228.85
933.16	228.83
933.46	228.89
933.76	228.94
934.06	228.99
934.36	229.09
934.66	229.18
934.96	229.19
935.26	229.20
935.56	229.26
935.86	229.17
936.16	229.15
936.46	229.13
936.76	229.10
937.06	229.11
937.36	229.15
937.66	229.10
937.96	229.03
938.26	228.94
938.56	229.00
938.86	228.98
939.16	228.92
939.46	228.90
939.76	228.90
940.06	228.93
940.35	228.94
940.65	228.82
940.95	228.95
941.25	228.95
941.55	228.96
941.85	228.98
942.15	229.09
942.45	229.21
942.75	229.27
943.04	229.30
943.34	229.33
943.64	229.33
943.94	229.31
944.24	229.36
944.54	229.49
944.84	229.45
945.13	229.36
945.43	229.40
945.73	229.43
946.03	229.40
946.33	229.29
946.62	229.22
946.92	229.20
947.22	229.10
947.52	229.00
947.82	229.11
948.11	229.12
948.41	229.11
948.71	228.99
949.01	228.95
949.31	228.88
949.60	228.82
949.90	228.89
950.20	228.93
950.50	228.82
950.79	228.71
951.09	228.74
951.39	228.68
951.69	228.58
951.98	228.53
952.28	228.50
952.58	228.48
952.87	228.46
953.17	228.43
953.47	228.40
953.76	228.38
954.06	228.26
954.36	228.13
954.66	228.03
954.95	228.04
955.25	228.02
955.55	228.08
955.84	228.13
956.14	228.06
956.44	228.00
956.73	227.89
957.03	227.86
957.32	227.80
957.62	227.86
957.92	227.92
958.21	227.96
958.51	228.18
958.81	228.23
959.10	228.31
959.40	228.46
959.69	228.44
959.99	228.61
960.29	228.58
960.58	228.62
960.88	228.77
961.17	228.74
961.47	228.79
961.76	228.69
962.06	228.70
962.36	228.71
962.65	228.66
962.95	228.75
963.24	228.74
963.54	228.85
963.83	228.97
964.13	228.89
964.42	228.77
964.72	228.61
965.01	228.68
965.31	228.56
965.60	228.40
965.90	228.62
966.19	228.51
966.49	228.56
966.78	228.49
967.08	228.46
967.37	228.56
967.67	228.47
967.96	228.49
968.26	228.36
968.55	228.36
968.85	228.42
969.14	228.36
969.43	228.31
969.73	228.35
970.02	228.25
970.32	228.35
970.61	228.34
970.91	228.38
971.20	228.27
971.49	228.26
971.79	228.39
972.08	228.19
972.38	228.18
972.67	228.21
972.96	228.21
973.26	228.20
973.55	228.17
973.85	228.24
974.14	228.28
974.43	228.37
974.73	228.39
975.02	228.40
975.31	228.46
975.61	228.53
975.90	228.46
976.19	228.51
976.49	228.50
976.78	228.48
977.07	228.40
977.37	228.48
977.66	228.47
977.95	228.40
978.24	228.46
978.54	228.48
978.83	228.36
979.12	228.38
979.42	228.28
979.71	228.36
980.00	228.34
980.29	228.39
980.59	228.30
980.88	228.36
981.17	228.23
981.46	228.20
981.76	228.19
982.05	228.25
982.34	228.26
982.63	228.22
982.93	228.27
983.22	228.28
983.51	228.22
983.80	228.30
984.09	228.30
984.39	228.22
984.68	228.21
984.97	228.23
985.26	228.30
985.55	228.37
985.85	228.17
986.14	228.11
986.43	228.17
986.72	228.11
987.01	228.02
987.30	228.03
987.59	228.00
987.89	228.09
988.18	228.09
988.47	228.03
988.76	228.02
989.05	228.07
989.34	228.12
989.63	228.08
989.92	228.09
990.22	228.08
990.51	228.09
990.80	228.00
991.09	228.10
991.38	227.98
991.67	228.02
991.96	228.00
992.25	228.06
992.54	227.94
992.83	228.07
993.12	228.04
993.41	228.09
993.70	228.25
993.99	228.22
994.28	228.10
994.58	228.11
994.87	228.07
995.16	228.04
995.45	227.90
995.74	227.87
996.03	227.89
996.32	227.88
996.61	227.92
996.90	228.00
997.19	228.01
997.48	228.12
997.77	228.03
998.06	228.08
998.34	228.12
998.63	228.13
998.92	227.98
999.21	228.05
999.50	228.15
999.79	228.07
1000.08	228.01
1000.37	228.03
1000.66	228.03
1000.95	228.08
1001.24	228.08
1001.53	228.14
1001.82	228.19
1002.11	228.15
1002.40	228.21
1002.68	228.26
1002.97	228.40
1003.26	228.31
1003.55	228.25
1003.84	228.22
1004.13	228.38
1004.42	228.26
1004.71	228.26
1004.99	228.33
1005.28	228.36
1005.57	228.31
1005.86	228.36
1006.15	228.42
1006.44	228.45
1006.72	228.45
1007.01	228.52
1007.30	228.44
1007.59	228.54
1007.88	228.59
1008.17	228.66
1008.45	228.60
1008.74	228.45
1009.03	228.32
1009.32	228.44
1009.60	228.37
1009.89	228.42
1010.18	228.32
1010.47	228.43
1010.76	228.36
1011.04	228.41
1011.33	228.44
1011.62	228.45
1011.91	228.39
1012.19	228.38
1012.48	228.34
1012.77	228.50
1013.05	228.60
1013.34	228.68
1013.63	228.59
1013.92	228.57
1014.20	228.54
1014.49	228.53
1014.78	228.64
1015.06	228.60
1015.35	228.54
1015.64	228.74
1015.92	228.77
1016.21	228.70
1016.50	228.63
1016.78	228.75
1017.07	228.68
1017.36	228.63
1017.64	228.67
1017.93	228.71
1018.22	228.63
1018.50	228.66
1018.79	228.55
1019.08	228.39
1019.36	228.39
1019.65	228.39
1019.93	228.42
1020.22	228.43
1020.51	228.66
1020.79	228.59
1021.08	226.80
1021.36	228.20
1021.65	228.90
1021.94	228.10
1022.22	228.70
1022.51	228.50
1022.79	228.70
1023.08	229.20
1023.36	232.60
1023.65	227.60
>>>>>End Processed Spectral Data<<<<<
