SpectraSuite Data File
++++++++++++++++++++++++++++++++++++
Date: Fri Feb 01 14:35:23 EST 2013
User: group
Dark Spectrum Present: No
Reference Spectrum Present: No
Number of Sampled Component Spectra: 1
Spectrometers: USB2E7196
Integration Time (usec): 70000 (USB2E7196)
Spectra Averaged: 10 (USB2E7196)
Boxcar Smoothing: 10 (USB2E7196)
Correct for Electrical Dark: No (USB2E7196)
Strobe/Lamp Enabled: No (USB2E7196)
Correct for Detector Non-linearity: No (USB2E7196)
Correct for Stray Light: No (USB2E7196)
Number of Pixels in Processed Spectrum: 2048
>>>>>Begin Processed Spectral Data<<<<<
339.09	0.00
339.48	215.50
339.86	216.80
340.24	218.30
340.63	220.80
341.01	223.00
341.39	223.00
341.78	224.70
342.16	224.70
342.54	225.70
342.93	214.30
343.31	225.15
343.69	225.62
344.07	226.14
344.46	226.52
344.84	226.77
345.22	226.95
345.60	227.16
345.99	227.40
346.37	227.58
346.75	227.58
347.13	227.54
347.52	227.70
347.90	227.84
348.28	227.82
348.66	227.91
349.05	227.91
349.43	227.92
349.81	228.00
350.19	227.97
350.57	228.05
350.96	228.02
351.34	228.01
351.72	228.24
352.10	228.34
352.48	228.50
352.87	228.67
353.25	228.78
353.63	228.82
354.01	228.80
354.39	228.84
354.77	229.08
355.15	229.25
355.54	229.24
355.92	229.16
356.30	229.24
356.68	229.46
357.06	229.50
357.44	229.47
357.82	229.46
358.20	229.59
358.58	229.66
358.97	229.81
359.35	230.00
359.73	230.05
360.11	230.02
360.49	230.01
360.87	230.04
361.25	229.98
361.63	230.07
362.01	230.08
362.39	230.11
362.77	230.08
363.15	230.18
363.53	230.28
363.91	230.48
364.29	230.52
364.67	230.32
365.05	230.36
365.43	230.35
365.81	230.43
366.19	230.52
366.57	230.53
366.95	230.51
367.33	230.37
367.71	230.33
368.09	230.36
368.47	230.41
368.85	230.38
369.23	230.46
369.61	230.38
369.99	230.44
370.37	230.41
370.75	230.49
371.13	230.28
371.51	230.06
371.89	229.90
372.27	229.86
372.65	229.84
373.03	229.75
373.41	229.70
373.78	229.63
374.16	229.49
374.54	229.32
374.92	229.18
375.30	229.15
375.68	229.03
376.06	229.05
376.44	228.98
376.82	228.87
377.19	228.87
377.57	228.88
377.95	228.76
378.33	228.65
378.71	228.44
379.09	228.46
379.47	228.41
379.84	228.40
380.22	228.20
380.60	228.10
380.98	228.01
381.36	227.99
381.73	227.80
382.11	227.73
382.49	227.78
382.87	227.75
383.25	227.68
383.62	227.92
384.00	227.66
384.38	227.54
384.76	227.56
385.13	227.57
385.51	227.49
385.89	227.39
386.27	227.37
386.64	227.38
387.02	227.25
387.40	227.23
387.78	227.17
388.15	227.20
388.53	227.16
388.91	227.15
389.29	227.11
389.66	227.16
390.04	227.08
390.42	227.01
390.79	227.01
391.17	226.98
391.55	226.58
391.92	226.64
392.30	226.68
392.68	226.70
393.05	226.59
393.43	226.60
393.81	226.53
394.18	226.36
394.56	226.36
394.94	226.47
395.31	226.52
395.69	226.50
396.06	226.63
396.44	226.65
396.82	226.67
397.19	226.85
397.57	226.96
397.95	227.08
398.32	227.14
398.70	227.18
399.07	227.33
399.45	227.52
399.82	227.67
400.20	227.70
400.58	227.87
400.95	227.98
401.33	228.10
401.70	228.43
402.08	228.76
402.45	228.92
402.83	229.03
403.20	229.25
403.58	229.51
403.95	229.76
404.33	229.97
404.71	230.20
405.08	230.56
405.46	230.86
405.83	231.06
406.21	231.27
406.58	231.63
406.96	231.97
407.33	232.32
407.70	232.79
408.08	233.41
408.45	233.78
408.83	234.30
409.20	234.90
409.58	235.35
409.95	235.97
410.33	236.55
410.70	237.31
411.08	238.05
411.45	238.78
411.82	239.41
412.20	240.36
412.57	241.30
412.95	242.00
413.32	242.93
413.69	244.13
414.07	245.34
414.44	246.53
414.82	247.73
415.19	249.22
415.56	250.57
415.94	251.98
416.31	253.71
416.68	255.35
417.06	257.10
417.43	258.83
417.81	260.91
418.18	263.14
418.55	265.29
418.93	267.58
419.30	269.98
419.67	272.52
420.04	275.03
420.42	277.89
420.79	281.19
421.16	284.22
421.54	287.48
421.91	290.80
422.28	294.34
422.66	298.10
423.03	301.65
423.40	305.37
423.77	309.36
424.15	313.37
424.52	317.71
424.89	322.35
425.26	327.08
425.64	331.19
426.01	335.81
426.38	340.66
426.75	345.54
427.13	350.72
427.50	356.15
427.87	361.70
428.24	367.21
428.61	372.28
428.99	378.28
429.36	384.59
429.73	390.89
430.10	397.02
430.47	403.27
430.85	409.69
431.22	416.49
431.59	423.60
431.96	430.56
432.33	438.13
432.70	445.55
433.08	454.08
433.45	462.26
433.82	470.29
434.19	479.41
434.56	488.16
434.93	496.44
435.30	504.73
435.68	514.08
436.05	523.23
436.42	532.50
436.79	540.71
437.16	549.50
437.53	558.73
437.90	568.09
438.27	577.44
438.64	587.12
439.01	595.95
439.38	603.99
439.75	611.56
440.13	620.28
440.50	628.63
440.87	635.43
441.24	642.78
441.61	650.62
441.98	656.41
442.35	663.47
442.72	670.68
443.09	677.61
443.46	682.09
443.83	685.00
444.20	687.79
444.57	691.81
444.94	694.30
445.31	696.79
445.68	699.24
446.05	700.66
446.42	700.70
446.79	700.86
447.16	700.86
447.53	701.20
447.90	698.75
448.27	696.48
448.64	692.70
449.01	690.31
449.37	685.21
449.74	680.26
450.11	674.03
450.48	667.01
450.85	660.08
451.22	654.03
451.59	648.64
451.96	643.54
452.33	636.11
452.70	629.07
453.07	620.57
453.43	611.99
453.80	603.70
454.17	595.69
454.54	588.18
454.91	579.85
455.28	571.79
455.65	564.47
456.02	556.60
456.38	550.20
456.75	542.07
457.12	535.48
457.49	528.73
457.86	522.06
458.23	516.56
458.59	510.27
458.96	503.98
459.33	498.37
459.70	492.45
460.07	487.63
460.43	482.58
460.80	477.62
461.17	473.05
461.54	468.49
461.91	464.10
462.27	459.58
462.64	455.82
463.01	451.38
463.38	447.19
463.74	443.20
464.11	439.42
464.48	436.04
464.85	432.27
465.21	429.52
465.58	426.75
465.95	423.22
466.32	420.42
466.68	417.51
467.05	414.52
467.42	411.58
467.78	408.70
468.15	405.74
468.52	403.71
468.88	400.96
469.25	398.40
469.62	396.43
469.98	394.17
470.35	392.07
470.72	390.17
471.08	388.08
471.45	386.16
471.82	384.29
472.18	382.14
472.55	380.60
472.92	378.93
473.28	377.33
473.65	375.86
474.02	374.25
474.38	372.93
474.75	371.78
475.11	370.70
475.48	369.67
475.85	368.79
476.21	367.83
476.58	367.07
476.94	366.52
477.31	365.82
477.67	364.94
478.04	364.28
478.41	364.07
478.77	363.69
479.14	363.07
479.50	362.80
479.87	362.80
480.23	362.70
480.60	362.32
480.96	361.99
481.33	361.93
481.69	361.86
482.06	361.86
482.42	361.82
482.79	361.66
483.15	361.90
483.52	362.34
483.88	362.61
484.25	363.05
484.61	363.35
484.98	363.60
485.34	364.44
485.71	365.10
486.07	365.68
486.44	366.45
486.80	367.47
487.17	368.45
487.53	369.42
487.90	370.58
488.26	371.83
488.62	373.24
488.99	374.58
489.35	375.83
489.72	377.42
490.08	378.89
490.44	380.57
490.81	382.15
491.17	383.62
491.54	385.46
491.90	387.24
492.26	389.18
492.63	391.24
492.99	393.20
493.36	395.27
493.72	397.47
494.08	399.59
494.45	401.82
494.81	404.06
495.17	406.38
495.54	408.79
495.90	411.33
496.26	413.74
496.63	416.28
496.99	419.32
497.35	421.83
497.72	424.74
498.08	427.41
498.44	430.22
498.80	433.23
499.17	436.11
499.53	438.97
499.89	441.72
500.26	444.64
500.62	447.40
500.98	450.35
501.34	453.16
501.71	456.12
502.07	459.06
502.43	461.84
502.79	464.73
503.16	467.69
503.52	470.46
503.88	473.20
504.24	476.03
504.60	478.64
504.97	481.52
505.33	484.28
505.69	487.53
506.05	490.34
506.41	492.91
506.78	495.44
507.14	498.08
507.50	500.78
507.86	503.33
508.22	505.80
508.59	508.20
508.95	510.53
509.31	512.99
509.67	515.39
510.03	517.75
510.39	519.99
510.75	522.05
511.12	524.19
511.48	526.41
511.84	528.52
512.20	530.41
512.56	532.39
512.92	534.22
513.28	535.74
513.64	537.49
514.00	539.26
514.37	540.96
514.73	542.46
515.09	543.92
515.45	545.42
515.81	546.92
516.17	548.21
516.53	549.77
516.89	550.92
517.25	552.06
517.61	553.43
517.97	554.61
518.33	555.70
518.69	556.93
519.05	558.02
519.41	559.02
519.77	560.22
520.13	561.20
520.49	562.13
520.85	563.10
521.21	563.92
521.57	564.95
521.93	565.92
522.29	567.30
522.65	568.07
523.01	568.98
523.37	569.77
523.73	570.88
524.09	571.61
524.45	572.54
524.81	573.60
525.17	574.66
525.53	575.79
525.89	577.04
526.25	578.13
526.61	579.05
526.97	580.16
527.33	581.12
527.68	582.39
528.04	583.61
528.40	584.77
528.76	586.11
529.12	587.56
529.48	589.05
529.84	590.20
530.20	592.05
530.56	593.64
530.91	595.68
531.27	597.50
531.63	599.33
531.99	600.91
532.35	602.52
532.71	603.90
533.07	605.81
533.42	607.57
533.78	609.47
534.14	611.59
534.50	613.38
534.86	615.62
535.21	617.51
535.57	619.75
535.93	622.05
536.29	624.49
536.65	626.53
537.00	628.47
537.36	630.69
537.72	632.82
538.08	635.14
538.44	637.46
538.79	639.88
539.15	642.15
539.51	644.92
539.87	647.77
540.22	650.71
540.58	653.56
540.94	656.24
541.29	658.80
541.65	661.55
542.01	664.78
542.37	667.59
542.72	670.45
543.08	673.36
543.44	676.30
543.79	678.97
544.15	682.19
544.51	685.61
544.87	688.80
545.22	692.09
545.58	695.45
545.94	698.31
546.29	701.47
546.65	704.82
547.01	708.04
547.36	710.88
547.72	714.10
548.07	717.15
548.43	720.42
548.79	723.48
549.14	726.79
549.50	729.89
549.86	733.04
550.21	736.51
550.57	740.00
550.92	743.27
551.28	746.78
551.64	749.90
551.99	753.10
552.35	756.52
552.70	759.84
553.06	763.36
553.41	766.95
553.77	770.37
554.13	773.69
554.48	777.06
554.84	780.71
555.19	784.15
555.55	787.79
555.90	790.89
556.26	794.54
556.61	797.81
556.97	800.99
557.32	804.39
557.68	807.78
558.03	810.88
558.39	813.97
558.74	817.32
559.10	820.58
559.45	823.83
559.81	827.32
560.16	830.65
560.52	833.48
560.87	836.84
561.23	839.64
561.58	842.94
561.94	846.07
562.29	848.80
562.64	851.60
563.00	854.16
563.35	857.77
563.71	861.08
564.06	864.19
564.42	867.28
564.77	870.38
565.12	873.00
565.48	876.07
565.83	878.99
566.19	881.72
566.54	884.51
566.89	887.16
567.25	889.45
567.60	892.12
567.96	894.62
568.31	896.83
568.66	899.45
569.02	901.94
569.37	903.93
569.72	906.50
570.08	908.71
570.43	910.85
570.78	912.43
571.14	913.99
571.49	915.99
571.84	918.17
572.20	919.73
572.55	921.45
572.90	922.70
573.26	924.49
573.61	925.78
573.96	927.22
574.31	928.39
574.67	929.04
575.02	929.47
575.37	930.54
575.72	931.18
576.08	931.97
576.43	932.40
576.78	932.99
577.13	933.89
577.49	934.80
577.84	935.50
578.19	936.18
578.54	936.65
578.90	936.89
579.25	936.50
579.60	936.48
579.95	936.67
580.30	936.83
580.66	936.73
581.01	936.52
581.36	936.26
581.71	936.31
582.06	936.68
582.42	937.26
582.77	937.21
583.12	937.26
583.47	937.11
583.82	937.18
584.17	937.26
584.53	936.57
584.88	935.94
585.23	935.45
585.58	934.95
585.93	934.37
586.28	933.79
586.63	933.84
586.98	933.70
587.34	933.04
587.69	932.57
588.04	932.03
588.39	931.65
588.74	930.77
589.09	930.00
589.44	929.22
589.79	928.20
590.14	927.27
590.49	926.17
590.84	924.92
591.19	923.86
591.54	922.40
591.89	920.78
592.25	919.81
592.60	918.24
592.95	916.70
593.30	915.29
593.65	913.86
594.00	912.03
594.35	910.66
594.70	908.87
595.05	907.28
595.40	905.23
595.75	903.36
596.10	901.82
596.45	900.13
596.80	898.46
597.15	896.65
597.50	894.66
597.85	893.08
598.19	891.72
598.54	889.63
598.89	888.02
599.24	886.70
599.59	884.71
599.94	883.32
600.29	881.51
600.64	879.80
600.99	877.54
601.34	875.43
601.69	873.02
602.04	871.33
602.39	869.28
602.74	867.64
603.08	865.95
603.43	864.07
603.78	861.97
604.13	859.77
604.48	857.48
604.83	855.62
605.18	853.48
605.53	850.94
605.87	848.40
606.22	846.18
606.57	843.76
606.92	841.56
607.27	839.10
607.62	837.28
607.96	834.95
608.31	833.19
608.66	830.97
609.01	828.54
609.36	825.89
609.70	823.01
610.05	820.08
610.40	817.60
610.75	814.93
611.10	812.29
611.44	809.42
611.79	806.88
612.14	803.94
612.49	800.67
612.83	797.43
613.18	794.73
613.53	792.03
613.88	789.08
614.22	786.34
614.57	783.18
614.92	779.94
615.27	776.97
615.61	773.72
615.96	770.83
616.31	767.95
616.65	765.31
617.00	762.78
617.35	760.04
617.70	756.62
618.04	753.55
618.39	750.62
618.74	747.88
619.08	744.65
619.43	741.86
619.78	739.57
620.12	737.11
620.47	734.49
620.82	731.53
621.16	728.78
621.51	725.71
621.85	723.27
622.20	720.47
622.55	717.70
622.89	714.90
623.24	712.13
623.59	709.81
623.93	707.17
624.28	704.36
624.62	702.03
624.97	699.85
625.32	697.33
625.66	694.84
626.01	692.18
626.35	689.72
626.70	687.00
627.04	684.17
627.39	681.38
627.73	678.71
628.08	676.03
628.43	673.42
628.77	670.88
629.12	667.97
629.46	665.23
629.81	662.36
630.15	659.58
630.50	656.85
630.84	653.80
631.19	650.72
631.53	648.06
631.88	644.82
632.22	641.53
632.57	638.88
632.91	635.96
633.26	633.26
633.60	630.56
633.95	627.83
634.29	625.11
634.64	622.90
634.98	620.12
635.32	617.77
635.67	615.19
636.01	612.48
636.36	609.84
636.70	607.22
637.05	604.92
637.39	602.58
637.73	600.18
638.08	597.92
638.42	595.75
638.77	593.21
639.11	590.78
639.45	588.48
639.80	585.94
640.14	583.43
640.49	580.83
640.83	578.26
641.17	575.83
641.52	573.33
641.86	570.60
642.20	568.33
642.55	565.71
642.89	563.33
643.23	560.94
643.58	558.78
643.92	556.24
644.26	553.76
644.61	551.51
644.95	549.04
645.29	545.90
645.64	543.20
645.98	540.82
646.32	538.55
646.66	536.06
647.01	533.49
647.35	531.16
647.69	528.75
648.04	526.69
648.38	524.22
648.72	521.78
649.06	519.29
649.41	516.96
649.75	514.38
650.09	512.08
650.43	509.55
650.78	507.01
651.12	504.71
651.46	502.31
651.80	499.90
652.14	497.59
652.49	495.74
652.83	493.44
653.17	490.98
653.51	488.63
653.85	486.39
654.20	484.03
654.54	481.70
654.88	479.47
655.22	476.87
655.56	474.59
655.90	472.53
656.25	470.40
656.59	467.95
656.93	465.84
657.27	463.60
657.61	461.38
657.95	459.37
658.29	457.27
658.64	455.05
658.98	452.78
659.32	450.61
659.66	448.39
660.00	446.30
660.34	444.22
660.68	442.22
661.02	440.24
661.36	438.45
661.70	436.41
662.05	434.57
662.39	433.00
662.73	431.24
663.07	429.40
663.41	427.70
663.75	425.93
664.09	424.13
664.43	422.35
664.77	420.75
665.11	418.96
665.45	417.09
665.79	415.34
666.13	413.66
666.47	411.96
666.81	410.40
667.15	408.81
667.49	407.20
667.83	405.62
668.17	403.99
668.51	402.27
668.85	400.64
669.19	399.03
669.53	397.21
669.87	395.54
670.21	393.98
670.55	392.36
670.89	391.11
671.23	389.81
671.57	388.31
671.91	386.76
672.25	385.21
672.58	384.03
672.92	382.78
673.26	381.42
673.60	380.10
673.94	378.78
674.28	377.62
674.62	376.57
674.96	375.08
675.30	373.93
675.64	372.85
675.97	371.62
676.31	370.31
676.65	369.07
676.99	368.10
677.33	366.81
677.67	365.49
678.01	364.03
678.34	362.73
678.68	361.66
679.02	360.42
679.36	359.26
679.70	358.05
680.04	356.82
680.37	355.63
680.71	354.37
681.05	353.18
681.39	352.06
681.73	350.80
682.06	349.83
682.40	348.66
682.74	347.49
683.08	346.47
683.42	345.36
683.75	344.33
684.09	343.01
684.43	342.00
684.77	341.04
685.10	340.16
685.44	339.04
685.78	337.88
686.12	336.99
686.45	336.00
686.79	334.76
687.13	333.79
687.46	332.81
687.80	332.00
688.14	330.92
688.48	329.86
688.81	328.67
689.15	327.63
689.49	326.64
689.82	325.52
690.16	324.54
690.50	323.68
690.83	322.73
691.17	321.80
691.51	320.78
691.84	319.86
692.18	318.94
692.52	317.98
692.85	317.03
693.19	316.04
693.52	315.00
693.86	314.18
694.20	313.27
694.53	312.30
694.87	311.32
695.21	310.46
695.54	309.46
695.88	308.58
696.21	307.67
696.55	306.70
696.88	306.00
697.22	305.15
697.56	304.29
697.89	303.43
698.23	302.57
698.56	301.78
698.90	300.84
699.23	299.72
699.57	298.87
699.90	298.01
700.24	297.17
700.58	296.43
700.91	295.59
701.25	294.92
701.58	294.28
701.92	293.51
702.25	292.72
702.59	292.03
702.92	291.52
703.26	290.94
703.59	290.37
703.93	289.82
704.26	289.10
704.60	288.45
704.93	287.85
705.26	287.21
705.60	286.75
705.93	286.21
706.27	285.82
706.60	285.37
706.94	284.92
707.27	284.35
707.61	283.73
707.94	283.25
708.27	282.61
708.61	281.97
708.94	281.30
709.28	280.80
709.61	280.27
709.94	279.67
710.28	279.02
710.61	278.45
710.95	277.79
711.28	277.37
711.61	276.86
711.95	276.27
712.28	275.82
712.61	275.18
712.95	274.77
713.28	274.27
713.61	273.77
713.95	273.17
714.28	272.81
714.61	272.44
714.95	272.01
715.28	271.43
715.61	270.95
715.95	270.65
716.28	270.32
716.61	269.82
716.95	269.27
717.28	268.96
717.61	268.57
717.94	268.12
718.28	267.66
718.61	267.27
718.94	266.86
719.27	266.43
719.61	266.05
719.94	265.56
720.27	265.13
720.60	264.75
720.94	264.43
721.27	264.06
721.60	263.78
721.93	263.39
722.27	263.19
722.60	262.82
722.93	262.51
723.26	262.07
723.59	261.79
723.93	261.63
724.26	261.27
724.59	260.94
724.92	260.60
725.25	260.35
725.59	260.07
725.92	259.78
726.25	259.51
726.58	259.17
726.91	258.90
727.24	258.73
727.57	258.33
727.91	258.02
728.24	257.75
728.57	257.34
728.90	257.11
729.23	256.82
729.56	256.70
729.89	256.31
730.22	256.02
730.55	255.69
730.89	255.35
731.22	255.04
731.55	254.74
731.88	254.49
732.21	254.14
732.54	253.82
732.87	253.58
733.20	253.25
733.53	252.94
733.86	252.71
734.19	252.36
734.52	252.23
734.85	252.07
735.18	251.73
735.51	251.45
735.84	251.13
736.17	250.84
736.50	250.39
736.83	250.39
737.16	250.15
737.49	249.91
737.82	249.71
738.15	249.59
738.48	249.38
738.81	249.16
739.14	248.90
739.47	248.69
739.80	248.44
740.13	248.28
740.46	248.08
740.79	247.86
741.12	247.53
741.45	247.30
741.78	247.10
742.11	246.99
742.44	246.81
742.77	246.59
743.10	246.35
743.43	246.20
743.75	245.78
744.08	245.81
744.41	245.64
744.74	245.44
745.07	245.11
745.40	244.95
745.73	244.81
746.06	244.62
746.39	244.33
746.71	244.22
747.04	243.98
747.37	243.83
747.70	243.67
748.03	243.58
748.36	243.36
748.68	243.06
749.01	242.80
749.34	242.62
749.67	242.55
750.00	242.30
750.33	242.28
750.65	242.14
750.98	241.76
751.31	241.68
751.64	241.48
751.97	241.46
752.29	241.31
752.62	241.00
752.95	240.97
753.28	240.75
753.60	240.53
753.93	240.47
754.26	240.33
754.59	240.02
754.91	239.89
755.24	239.82
755.57	239.70
755.90	239.52
756.22	239.27
756.55	239.15
756.88	239.08
757.20	238.81
757.53	238.63
757.86	238.59
758.19	238.43
758.51	238.33
758.84	238.10
759.17	238.02
759.49	238.00
759.82	237.88
760.15	237.90
760.47	237.90
760.80	237.73
761.13	237.72
761.45	237.70
761.78	237.56
762.11	237.40
762.43	237.35
762.76	237.28
763.08	237.29
763.41	237.26
763.74	237.23
764.06	237.21
764.39	237.27
764.71	237.17
765.04	237.08
765.37	237.02
765.69	236.97
766.02	236.87
766.34	236.85
766.67	236.74
767.00	236.70
767.32	236.61
767.65	236.70
767.97	236.58
768.30	236.52
768.62	236.46
768.95	236.40
769.27	236.31
769.60	236.28
769.92	236.27
770.25	236.04
770.57	235.89
770.90	235.77
771.22	235.62
771.55	235.53
771.87	235.51
772.20	235.44
772.52	235.53
772.85	235.58
773.17	235.48
773.50	235.35
773.82	235.22
774.15	235.06
774.47	234.80
774.80	234.66
775.12	234.60
775.45	234.56
775.77	234.50
776.09	234.44
776.42	234.34
776.74	234.37
777.07	234.45
777.39	234.43
777.72	234.33
778.04	234.23
778.36	234.09
778.69	233.97
779.01	233.88
779.33	233.65
779.66	233.38
779.98	233.28
780.31	233.26
780.63	233.30
780.95	233.18
781.28	233.20
781.60	233.11
781.92	233.06
782.25	233.05
782.57	232.95
782.89	232.97
783.22	232.80
783.54	232.58
783.86	232.45
784.19	232.31
784.51	232.28
784.83	232.13
785.16	232.18
785.48	232.11
785.80	232.07
786.12	231.97
786.45	231.88
786.77	231.85
787.09	231.82
787.42	231.64
787.74	231.68
788.06	231.58
788.38	231.56
788.71	231.40
789.03	231.32
789.35	231.26
789.67	231.06
789.99	231.15
790.32	231.21
790.64	231.17
790.96	231.35
791.28	231.33
791.61	231.33
791.93	231.26
792.25	231.20
792.57	231.20
792.89	231.13
793.21	231.19
793.54	231.03
793.86	230.95
794.18	230.92
794.50	230.96
794.82	230.97
795.14	231.04
795.47	231.13
795.79	231.10
796.11	231.13
796.43	231.11
796.75	231.08
797.07	230.89
797.39	230.86
797.71	230.69
798.04	230.61
798.36	230.64
798.68	230.64
799.00	230.65
799.32	230.71
799.64	230.88
799.96	230.86
800.28	230.97
800.60	230.99
800.92	231.03
801.24	230.90
801.56	230.83
801.89	230.81
802.21	230.74
802.53	230.72
802.85	230.76
803.17	230.91
803.49	230.89
803.81	230.88
804.13	230.85
804.45	230.89
804.77	230.93
805.09	230.92
805.41	230.90
805.73	230.87
806.05	230.67
806.37	230.65
806.69	230.63
807.01	230.63
807.33	230.64
807.65	230.54
807.97	230.70
808.28	230.72
808.60	230.63
808.92	230.63
809.24	230.69
809.56	230.73
809.88	230.62
810.20	230.76
810.52	230.87
810.84	230.88
811.16	230.83
811.48	230.80
811.80	230.90
812.12	230.87
812.43	230.90
812.75	231.08
813.07	231.02
813.39	231.00
813.71	230.81
814.03	230.78
814.35	230.85
814.67	230.76
814.98	230.75
815.30	230.81
815.62	230.82
815.94	230.65
816.26	230.63
816.58	230.56
816.89	230.50
817.21	230.42
817.53	230.47
817.85	230.50
818.17	230.55
818.48	230.45
818.80	230.41
819.12	230.32
819.44	230.22
819.76	230.08
820.07	230.10
820.39	230.16
820.71	230.07
821.03	230.05
821.34	229.96
821.66	229.96
821.98	229.94
822.30	229.89
822.61	230.08
822.93	229.87
823.25	229.89
823.57	229.87
823.88	229.91
824.20	229.82
824.52	229.88
824.83	229.73
825.15	229.70
825.47	229.60
825.79	229.60
826.10	229.49
826.42	229.54
826.74	229.53
827.05	229.57
827.37	229.63
827.69	229.58
828.00	229.55
828.32	229.51
828.64	229.46
828.95	229.62
829.27	229.50
829.58	229.56
829.90	229.50
830.22	229.51
830.53	229.41
830.85	229.35
831.17	229.19
831.48	229.22
831.80	229.16
832.11	229.22
832.43	229.26
832.75	229.34
833.06	229.40
833.38	229.24
833.69	229.14
834.01	229.15
834.32	229.20
834.64	229.13
834.96	229.14
835.27	229.08
835.59	228.92
835.90	228.81
836.22	228.79
836.53	228.77
836.85	228.65
837.16	228.89
837.48	228.94
837.79	228.99
838.11	229.02
838.42	229.04
838.74	228.99
839.05	229.01
839.37	228.88
839.68	228.76
840.00	228.80
840.31	228.85
840.63	228.86
840.94	228.76
841.26	228.89
841.57	228.86
841.88	228.92
842.20	228.96
842.51	229.05
842.83	229.02
843.14	229.24
843.46	229.24
843.77	229.20
844.08	229.14
844.40	229.14
844.71	229.11
845.03	229.10
845.34	229.13
845.65	229.05
845.97	229.22
846.28	229.27
846.60	229.27
846.91	229.41
847.22	229.37
847.54	229.41
847.85	229.41
848.16	229.39
848.48	229.22
848.79	229.18
849.10	229.11
849.42	229.20
849.73	228.94
850.04	228.94
850.36	228.82
850.67	228.91
850.98	228.90
851.30	228.93
851.61	228.91
851.92	228.98
852.23	228.99
852.55	228.94
852.86	228.99
853.17	229.03
853.49	228.97
853.80	229.04
854.11	229.15
854.42	229.09
854.74	229.12
855.05	229.20
855.36	229.09
855.67	229.16
855.99	229.11
856.30	229.42
856.61	229.38
856.92	229.48
857.23	229.44
857.55	229.45
857.86	229.43
858.17	229.46
858.48	229.41
858.79	229.41
859.11	229.35
859.42	229.32
859.73	229.37
860.04	229.24
860.35	229.22
860.66	229.14
860.98	229.22
861.29	229.21
861.60	229.24
861.91	229.37
862.22	229.43
862.53	229.44
862.84	229.14
863.16	229.19
863.47	229.06
863.78	229.06
864.09	229.05
864.40	229.03
864.71	229.02
865.02	228.94
865.33	228.91
865.64	228.94
865.95	228.90
866.27	228.91
866.58	228.98
866.89	228.87
867.20	228.77
867.51	228.66
867.82	228.64
868.13	228.71
868.44	228.62
868.75	228.51
869.06	228.48
869.37	228.48
869.68	228.39
869.99	228.41
870.30	228.42
870.61	228.41
870.92	228.41
871.23	228.40
871.54	228.47
871.85	228.54
872.16	228.46
872.47	228.40
872.78	228.27
873.09	228.22
873.40	228.23
873.71	228.31
874.02	228.37
874.33	228.25
874.64	228.18
874.95	228.32
875.26	228.28
875.56	228.24
875.87	228.27
876.18	228.36
876.49	228.40
876.80	228.40
877.11	228.34
877.42	228.44
877.73	228.43
878.04	228.42
878.35	228.33
878.66	228.46
878.96	228.44
879.27	228.42
879.58	228.49
879.89	228.56
880.20	228.57
880.51	228.50
880.82	228.55
881.12	228.61
881.43	228.35
881.74	228.33
882.05	228.38
882.36	228.38
882.67	228.32
882.97	228.23
883.28	228.16
883.59	228.13
883.90	228.05
884.21	228.01
884.51	227.97
884.82	228.00
885.13	227.93
885.44	227.98
885.74	227.97
886.05	227.97
886.36	227.90
886.67	227.87
886.98	228.03
887.28	228.04
887.59	228.02
887.90	228.20
888.20	228.23
888.51	228.24
888.82	228.26
889.13	228.24
889.43	228.42
889.74	228.41
890.05	228.46
890.35	228.40
890.66	228.39
890.97	228.42
891.28	228.40
891.58	228.39
891.89	228.40
892.20	228.44
892.50	228.37
892.81	228.33
893.12	228.27
893.42	228.09
893.73	228.16
894.04	228.14
894.34	228.10
894.65	228.16
894.95	228.11
895.26	228.11
895.57	228.36
895.87	228.23
896.18	228.27
896.48	228.22
896.79	228.30
897.10	228.41
897.40	228.39
897.71	228.39
898.01	228.45
898.32	228.56
898.63	228.61
898.93	228.64
899.24	228.68
899.54	228.79
899.85	228.77
900.15	228.76
900.46	228.80
900.76	228.84
901.07	228.77
901.38	228.82
901.68	228.85
901.99	228.74
902.29	228.64
902.60	228.68
902.90	228.69
903.21	228.68
903.51	228.63
903.82	228.73
904.12	228.77
904.43	228.68
904.73	228.58
905.03	228.52
905.34	228.75
905.64	228.69
905.95	228.56
906.25	228.51
906.56	228.44
906.86	228.41
907.17	228.33
907.47	228.31
907.77	228.27
908.08	228.21
908.38	228.16
908.69	228.22
908.99	228.20
909.30	228.22
909.60	228.14
909.90	228.25
910.21	228.19
910.51	228.10
910.81	228.15
911.12	228.21
911.42	228.31
911.73	228.05
912.03	228.20
912.33	228.35
912.64	228.43
912.94	228.50
913.24	228.53
913.55	228.56
913.85	228.59
914.15	228.59
914.46	228.66
914.76	228.60
915.06	228.65
915.37	228.66
915.67	228.63
915.97	228.62
916.27	228.52
916.58	228.44
916.88	228.54
917.18	228.47
917.49	228.57
917.79	228.52
918.09	228.58
918.39	228.50
918.70	228.50
919.00	228.52
919.30	228.61
919.60	228.58
919.91	228.56
920.21	228.53
920.51	228.51
920.81	228.39
921.12	228.53
921.42	228.43
921.72	228.38
922.02	228.40
922.32	228.43
922.63	228.37
922.93	228.55
923.23	228.48
923.53	228.47
923.83	228.36
924.13	228.40
924.44	228.43
924.74	228.46
925.04	228.44
925.34	228.50
925.64	228.35
925.94	228.38
926.24	228.49
926.55	228.52
926.85	228.57
927.15	228.60
927.45	228.62
927.75	228.66
928.05	228.70
928.35	228.78
928.65	228.85
928.95	228.87
929.26	228.83
929.56	228.85
929.86	228.98
930.16	228.94
930.46	228.95
930.76	228.90
931.06	228.88
931.36	228.87
931.66	228.90
931.96	229.02
932.26	228.92
932.56	228.94
932.86	229.01
933.16	229.04
933.46	229.11
933.76	229.00
934.06	229.04
934.36	229.17
934.66	229.13
934.96	229.15
935.26	229.30
935.56	229.34
935.86	229.30
936.16	229.23
936.46	229.15
936.76	229.13
937.06	229.15
937.36	229.17
937.66	229.09
937.96	228.98
938.26	228.90
938.56	228.94
938.86	228.82
939.16	228.77
939.46	228.78
939.76	228.84
940.06	228.82
940.35	228.80
940.65	228.60
940.95	228.60
941.25	228.50
941.55	228.40
941.85	228.33
942.15	228.40
942.45	228.40
942.75	228.52
943.04	228.54
943.34	228.50
943.64	228.46
943.94	228.50
944.24	228.42
944.54	228.42
944.84	228.49
945.13	228.42
945.43	228.39
945.73	228.37
946.03	228.33
946.33	228.33
946.62	228.24
946.92	228.25
947.22	228.25
947.52	228.28
947.82	228.24
948.11	228.14
948.41	228.11
948.71	228.10
949.01	228.10
949.31	228.01
949.60	227.98
949.90	227.94
950.20	227.80
950.50	227.87
950.79	227.83
951.09	227.89
951.39	227.88
951.69	227.83
951.98	227.86
952.28	227.84
952.58	227.72
952.87	227.73
953.17	227.76
953.47	227.76
953.76	227.77
954.06	227.81
954.36	227.78
954.66	227.70
954.95	227.71
955.25	227.68
955.55	227.67
955.84	227.70
956.14	227.80
956.44	227.90
956.73	227.88
957.03	227.80
957.32	227.66
957.62	227.70
957.92	227.82
958.21	227.87
958.51	228.02
958.81	228.25
959.10	228.25
959.40	228.36
959.69	228.31
959.99	228.31
960.29	228.25
960.58	228.27
960.88	228.33
961.17	228.42
961.47	228.39
961.76	228.47
962.06	228.45
962.36	228.45
962.65	228.46
962.95	228.60
963.24	228.67
963.54	228.69
963.83	228.73
964.13	228.74
964.42	228.60
964.72	228.41
965.01	228.32
965.31	228.35
965.60	228.19
965.90	228.41
966.19	228.38
966.49	228.49
966.78	228.56
967.08	228.60
967.37	228.55
967.67	228.57
967.96	228.44
968.26	228.45
968.55	228.42
968.85	228.42
969.14	228.33
969.43	228.43
969.73	228.43
970.02	228.46
970.32	228.42
970.61	228.55
970.91	228.52
971.20	228.56
971.49	228.64
971.79	228.74
972.08	228.59
972.38	228.64
972.67	228.68
972.96	228.70
973.26	228.68
973.55	228.87
973.85	228.96
974.14	228.97
974.43	229.00
974.73	228.94
975.02	228.94
975.31	228.94
975.61	228.97
975.90	228.94
976.19	228.88
976.49	228.94
976.78	228.90
977.07	228.94
977.37	228.83
977.66	228.82
977.95	228.81
978.24	228.89
978.54	228.86
978.83	228.65
979.12	228.60
979.42	228.63
979.71	228.40
980.00	228.34
980.29	228.47
980.59	228.40
980.88	228.45
981.17	228.58
981.46	228.58
981.76	228.46
982.05	228.47
982.34	228.46
982.63	228.38
982.93	228.29
983.22	228.30
983.51	228.28
983.80	228.22
984.09	228.24
984.39	228.17
984.68	228.19
984.97	228.24
985.26	228.23
985.55	228.15
985.85	228.12
986.14	228.07
986.43	227.99
986.72	228.02
987.01	228.03
987.30	227.85
987.59	227.94
987.89	227.90
988.18	227.88
988.47	227.83
988.76	227.75
989.05	227.76
989.34	227.67
989.63	227.84
989.92	227.87
990.22	227.79
990.51	227.76
990.80	227.72
991.09	227.76
991.38	227.76
991.67	227.73
991.96	227.79
992.25	227.69
992.54	227.60
992.83	227.51
993.12	227.50
993.41	227.56
993.70	227.46
993.99	227.53
994.28	227.54
994.58	227.64
994.87	227.63
995.16	227.68
995.45	227.76
995.74	227.59
996.03	227.56
996.32	227.59
996.61	227.54
996.90	227.56
997.19	227.60
997.48	227.63
997.77	227.74
998.06	227.75
998.34	227.88
998.63	227.91
998.92	228.06
999.21	228.10
999.50	228.13
999.79	228.12
1000.08	228.16
1000.37	228.22
1000.66	228.25
1000.95	228.40
1001.24	228.49
1001.53	228.47
1001.82	228.50
1002.11	228.46
1002.40	228.44
1002.68	228.49
1002.97	228.58
1003.26	228.54
1003.55	228.55
1003.84	228.52
1004.13	228.62
1004.42	228.67
1004.71	228.76
1004.99	228.79
1005.28	228.84
1005.57	228.80
1005.86	228.73
1006.15	228.66
1006.44	228.68
1006.72	228.64
1007.01	228.69
1007.30	228.57
1007.59	228.60
1007.88	228.70
1008.17	228.75
1008.45	228.79
1008.74	228.83
1009.03	228.85
1009.32	228.81
1009.60	228.83
1009.89	228.73
1010.18	228.59
1010.47	228.50
1010.76	228.54
1011.04	228.48
1011.33	228.55
1011.62	228.61
1011.91	228.80
1012.19	228.80
1012.48	228.77
1012.77	228.75
1013.05	228.75
1013.34	228.82
1013.63	228.88
1013.92	228.88
1014.20	228.86
1014.49	228.89
1014.78	228.85
1015.06	228.76
1015.35	228.72
1015.64	228.79
1015.92	228.85
1016.21	228.90
1016.50	228.94
1016.78	228.80
1017.07	228.79
1017.36	228.72
1017.64	228.69
1017.93	228.54
1018.22	228.56
1018.50	228.57
1018.79	228.52
1019.08	228.40
1019.36	228.31
1019.65	228.22
1019.93	228.16
1020.22	228.17
1020.51	228.25
1020.79	228.19
1021.08	228.30
1021.36	228.00
1021.65	227.30
1021.94	227.80
1022.22	227.50
1022.51	227.70
1022.79	228.50
1023.08	228.70
1023.36	231.00
1023.65	227.10
>>>>>End Processed Spectral Data<<<<<
