SpectraSuite Data File
++++++++++++++++++++++++++++++++++++
Date: Fri Feb 01 14:35:45 EST 2013
User: group
Dark Spectrum Present: No
Reference Spectrum Present: No
Number of Sampled Component Spectra: 1
Spectrometers: USB2E7196
Integration Time (usec): 70000 (USB2E7196)
Spectra Averaged: 10 (USB2E7196)
Boxcar Smoothing: 10 (USB2E7196)
Correct for Electrical Dark: No (USB2E7196)
Strobe/Lamp Enabled: No (USB2E7196)
Correct for Detector Non-linearity: No (USB2E7196)
Correct for Stray Light: No (USB2E7196)
Number of Pixels in Processed Spectrum: 2048
>>>>>Begin Processed Spectral Data<<<<<
339.09	0.00
339.48	215.60
339.86	217.70
340.24	218.90
340.63	220.70
341.01	224.10
341.39	223.30
341.78	224.00
342.16	225.00
342.54	224.90
342.93	214.51
343.31	225.30
343.69	225.80
344.07	226.20
344.46	226.67
344.84	226.99
345.22	227.10
345.60	227.39
345.99	227.61
346.37	227.81
346.75	227.95
347.13	228.01
347.52	228.08
347.90	228.23
348.28	228.24
348.66	228.32
349.05	228.37
349.43	228.43
349.81	228.39
350.19	228.38
350.57	228.47
350.96	228.56
351.34	228.78
351.72	228.94
352.10	229.06
352.48	229.17
352.87	229.20
353.25	229.37
353.63	229.39
354.01	229.55
354.39	229.55
354.77	229.62
355.15	229.81
355.54	229.85
355.92	229.72
356.30	229.75
356.68	229.96
357.06	229.88
357.44	229.87
357.82	229.91
358.20	230.06
358.58	230.10
358.97	230.07
359.35	230.16
359.73	230.23
360.11	230.32
360.49	230.28
360.87	230.28
361.25	230.30
361.63	230.37
362.01	230.32
362.39	230.33
362.77	230.40
363.15	230.39
363.53	230.40
363.91	230.45
364.29	230.50
364.67	230.30
365.05	230.30
365.43	230.35
365.81	230.31
366.19	230.40
366.57	230.34
366.95	230.33
367.33	230.12
367.71	230.10
368.09	230.11
368.47	230.02
368.85	230.04
369.23	229.98
369.61	229.78
369.99	229.73
370.37	229.75
370.75	229.80
371.13	229.65
371.51	229.56
371.89	229.53
372.27	229.45
372.65	229.34
373.03	229.36
373.41	229.20
373.78	229.25
374.16	229.02
374.54	228.94
374.92	228.90
375.30	228.92
375.68	228.84
376.06	228.76
376.44	228.70
376.82	228.65
377.19	228.61
377.57	228.55
377.95	228.43
378.33	228.35
378.71	228.12
379.09	228.14
379.47	228.11
379.84	228.05
380.22	227.91
380.60	227.86
380.98	227.73
381.36	227.68
381.73	227.56
382.11	227.46
382.49	227.45
382.87	227.31
383.25	227.13
383.62	227.23
384.00	227.08
384.38	227.00
384.76	227.01
385.13	227.02
385.51	227.05
385.89	227.00
386.27	226.84
386.64	226.73
387.02	226.70
387.40	226.64
387.78	226.56
388.15	226.64
388.53	226.61
388.91	226.60
389.29	226.58
389.66	226.57
390.04	226.58
390.42	226.56
390.79	226.59
391.17	226.63
391.55	226.46
391.92	226.45
392.30	226.57
392.68	226.53
393.05	226.56
393.43	226.64
393.81	226.69
394.18	226.75
394.56	226.85
394.94	226.94
395.31	226.94
395.69	227.10
396.06	227.18
396.44	227.32
396.82	227.44
397.19	227.63
397.57	227.76
397.95	227.92
398.32	228.03
398.70	228.18
399.07	228.39
399.45	228.47
399.82	228.53
400.20	228.60
400.58	228.69
400.95	228.77
401.33	228.90
401.70	229.18
402.08	229.37
402.45	229.51
402.83	229.74
403.20	229.97
403.58	230.11
403.95	230.40
404.33	230.59
404.71	230.84
405.08	231.09
405.46	231.29
405.83	231.56
406.21	231.78
406.58	232.08
406.96	232.31
407.33	232.70
407.70	233.13
408.08	233.70
408.45	234.18
408.83	234.57
409.20	234.94
409.58	235.28
409.95	235.83
410.33	236.48
410.70	236.96
411.08	237.55
411.45	238.09
411.82	238.73
412.20	239.49
412.57	240.37
412.95	241.07
413.32	241.87
413.69	242.69
414.07	243.77
414.44	244.80
414.82	245.97
415.19	247.22
415.56	248.56
415.94	249.74
416.31	251.15
416.68	252.68
417.06	254.46
417.43	256.20
417.81	258.04
418.18	259.87
418.55	261.90
418.93	264.08
419.30	266.35
419.67	268.64
420.04	271.06
420.42	273.46
420.79	276.39
421.16	279.23
421.54	282.39
421.91	285.37
422.28	288.55
422.66	291.87
423.03	295.17
423.40	298.58
423.77	302.25
424.15	306.11
424.52	309.95
424.89	314.11
425.26	317.94
425.64	321.78
426.01	325.98
426.38	330.47
426.75	334.99
427.13	339.67
427.50	344.60
427.87	349.59
428.24	354.64
428.61	359.34
428.99	364.74
429.36	370.48
429.73	376.13
430.10	381.80
430.47	387.40
430.85	393.31
431.22	399.56
431.59	406.35
431.96	412.62
432.33	419.74
432.70	426.55
433.08	434.77
433.45	442.20
433.82	449.63
434.19	457.79
434.56	465.87
434.93	473.53
435.30	481.16
435.68	489.62
436.05	498.01
436.42	506.30
436.79	513.99
437.16	522.11
437.53	530.57
437.90	538.90
438.27	547.25
438.64	556.12
439.01	564.24
439.38	571.31
439.75	578.15
440.13	585.99
440.50	593.72
440.87	599.90
441.24	606.48
441.61	613.58
441.98	618.82
442.35	625.01
442.72	631.55
443.09	637.60
443.46	641.85
443.83	644.60
444.20	647.46
444.57	650.91
444.94	652.90
445.31	655.18
445.68	657.62
446.05	659.20
446.42	658.91
446.79	658.73
447.16	658.76
447.53	659.27
447.90	657.17
448.27	655.11
448.64	651.47
449.01	649.33
449.37	644.75
449.74	640.38
450.11	634.83
450.48	628.45
450.85	622.16
451.22	616.73
451.59	611.89
451.96	606.81
452.33	599.86
452.70	593.84
453.07	586.26
453.43	578.40
453.80	570.95
454.17	564.02
454.54	557.32
454.91	549.69
455.28	542.15
455.65	535.45
456.02	528.13
456.38	522.28
456.75	514.81
457.12	508.88
457.49	502.69
457.86	496.82
458.23	491.86
458.59	486.21
458.96	479.99
459.33	474.80
459.70	469.60
460.07	465.46
460.43	460.39
460.80	455.73
461.17	451.67
461.54	447.37
461.91	443.29
462.27	439.10
462.64	435.51
463.01	431.58
463.38	427.68
463.74	423.92
464.11	420.76
464.48	417.71
464.85	414.33
465.21	411.85
465.58	409.08
465.95	405.61
466.32	402.90
466.68	400.42
467.05	397.71
467.42	395.09
467.78	392.45
468.15	389.77
468.52	387.77
468.88	385.13
469.25	382.79
469.62	380.74
469.98	378.61
470.35	376.74
470.72	374.92
471.08	372.87
471.45	371.11
471.82	369.21
472.18	367.37
472.55	365.96
472.92	364.18
473.28	362.64
473.65	361.39
474.02	359.91
474.38	358.81
474.75	357.50
475.11	356.35
475.48	355.30
475.85	354.56
476.21	353.84
476.58	353.20
476.94	352.53
477.31	351.83
477.67	351.26
478.04	350.59
478.41	350.25
478.77	349.98
479.14	349.50
479.50	349.22
479.87	349.00
480.23	348.70
480.60	348.39
480.96	348.25
481.33	348.12
481.69	348.09
482.06	347.96
482.42	347.93
482.79	347.97
483.15	348.25
483.52	348.65
483.88	348.75
484.25	348.92
484.61	349.23
484.98	349.68
485.34	350.26
485.71	350.97
486.07	351.49
486.44	352.02
486.80	352.88
487.17	353.60
487.53	354.53
487.90	355.43
488.26	356.63
488.62	357.78
488.99	358.87
489.35	360.01
489.72	361.26
490.08	362.63
490.44	363.91
490.81	365.27
491.17	366.63
491.54	368.31
491.90	369.99
492.26	371.70
492.63	373.41
492.99	374.95
493.36	376.50
493.72	378.28
494.08	380.04
494.45	381.93
494.81	383.94
495.17	385.78
495.54	387.82
495.90	389.73
496.26	391.63
496.63	393.72
496.99	395.95
497.35	398.10
497.72	400.36
498.08	402.53
498.44	404.73
498.80	407.12
499.17	409.34
499.53	411.58
499.89	413.77
500.26	415.99
500.62	418.30
500.98	420.77
501.34	423.35
501.71	425.74
502.07	428.11
502.43	430.20
502.79	432.55
503.16	434.80
503.52	437.34
503.88	439.60
504.24	441.88
504.60	444.06
504.97	446.24
505.33	448.40
505.69	450.71
506.05	452.96
506.41	454.89
506.78	456.80
507.14	458.65
507.50	460.77
507.86	462.73
508.22	464.66
508.59	466.30
508.95	467.72
509.31	469.54
509.67	471.16
510.03	472.87
510.39	474.54
510.75	476.17
511.12	477.37
511.48	478.65
511.84	480.20
512.20	481.55
512.56	482.92
512.92	484.12
513.28	485.33
513.64	486.30
514.00	487.30
514.37	488.44
514.73	489.56
515.09	490.33
515.45	491.14
515.81	491.85
516.17	492.90
516.53	493.91
516.89	494.60
517.25	495.32
517.61	496.01
517.97	496.55
518.33	497.14
518.69	497.81
519.05	498.42
519.41	498.72
519.77	499.49
520.13	500.03
520.49	500.56
520.85	501.20
521.21	501.80
521.57	502.61
521.93	503.04
522.29	503.63
522.65	504.28
523.01	504.87
523.37	505.38
523.73	506.05
524.09	506.52
524.45	507.01
524.81	507.71
525.17	508.70
525.53	509.60
525.89	510.27
526.25	511.21
526.61	512.18
526.97	513.17
527.33	513.93
527.68	515.19
528.04	516.40
528.40	517.41
528.76	518.68
529.12	519.79
529.48	521.19
529.84	522.34
530.20	523.72
530.56	525.30
530.91	527.01
531.27	528.39
531.63	530.13
531.99	532.06
532.35	533.69
532.71	535.19
533.07	537.12
533.42	539.31
533.78	541.18
534.14	543.33
534.50	545.41
534.86	547.76
535.21	549.46
535.57	551.48
535.93	553.66
536.29	556.00
536.65	558.35
537.00	560.66
537.36	563.20
537.72	565.76
538.08	568.33
538.44	570.62
538.79	573.38
539.15	575.88
539.51	578.52
539.87	581.37
540.22	584.25
540.58	587.23
540.94	589.88
541.29	592.83
541.65	595.71
542.01	598.71
542.37	601.70
542.72	604.90
543.08	608.22
543.44	611.63
543.79	614.54
544.15	617.68
544.51	621.33
544.87	624.90
545.22	628.14
545.58	631.44
545.94	635.03
546.29	638.38
546.65	641.95
547.01	645.22
547.36	648.82
547.72	652.40
548.07	655.61
548.43	659.18
548.79	662.78
549.14	666.32
549.50	669.95
549.86	673.38
550.21	677.10
550.57	680.73
550.92	684.22
551.28	687.80
551.64	691.54
551.99	695.01
552.35	698.60
552.70	702.18
553.06	705.75
553.41	709.56
553.77	713.39
554.13	717.16
554.48	721.10
554.84	724.86
555.19	728.38
555.55	732.30
555.90	735.85
556.26	739.29
556.61	742.80
556.97	746.22
557.32	749.68
557.68	753.23
558.03	756.49
558.39	759.99
558.74	763.73
559.10	766.96
559.45	770.44
559.81	773.96
560.16	777.64
560.52	781.05
560.87	784.50
561.23	787.49
561.58	790.95
561.94	794.28
562.29	797.23
562.64	800.66
563.00	803.65
563.35	807.14
563.71	810.68
564.06	813.93
564.42	817.43
564.77	821.00
565.12	824.28
565.48	827.86
565.83	831.02
566.19	834.13
566.54	837.30
566.89	840.07
567.25	843.04
567.60	846.23
567.96	849.28
568.31	852.00
568.66	854.97
569.02	857.20
569.37	859.42
569.72	861.98
570.08	864.41
570.43	866.97
570.78	869.09
571.14	871.02
571.49	873.22
571.84	875.57
572.20	877.39
572.55	879.13
572.90	880.57
573.26	882.53
573.61	884.22
573.96	885.95
574.31	887.41
574.67	888.49
575.02	889.37
575.37	890.57
575.72	891.54
576.08	892.78
576.43	894.04
576.78	895.60
577.13	897.02
577.49	898.11
577.84	898.94
578.19	899.98
578.54	900.99
578.90	901.68
579.25	901.82
579.60	902.38
579.95	902.94
580.30	903.49
580.66	903.55
581.01	903.84
581.36	904.17
581.71	904.64
582.06	904.97
582.42	904.95
582.77	905.19
583.12	905.45
583.47	905.63
583.82	905.81
584.17	905.48
584.53	905.15
584.88	905.13
585.23	904.93
585.58	904.76
585.93	904.60
586.28	904.40
586.63	904.48
586.98	904.43
587.34	904.25
587.69	904.06
588.04	903.82
588.39	903.72
588.74	902.90
589.09	902.42
589.44	901.67
589.79	901.64
590.14	901.19
590.49	900.48
590.84	899.60
591.19	898.81
591.54	898.01
591.89	896.85
592.25	895.75
592.60	894.58
592.95	893.22
593.30	891.70
593.65	890.39
594.00	888.87
594.35	887.95
594.70	886.40
595.05	885.05
595.40	883.62
595.75	881.76
596.10	880.76
596.45	879.47
596.80	878.31
597.15	876.62
597.50	874.83
597.85	873.63
598.19	872.30
598.54	871.07
598.89	869.64
599.24	868.54
599.59	867.05
599.94	865.84
600.29	864.35
600.64	862.70
600.99	860.88
601.34	859.26
601.69	856.94
602.04	855.19
602.39	853.49
602.74	851.78
603.08	850.39
603.43	848.57
603.78	846.66
604.13	844.73
604.48	842.87
604.83	841.11
605.18	839.23
605.53	836.88
605.87	834.20
606.22	832.18
606.57	829.80
606.92	827.83
607.27	825.99
607.62	824.18
607.96	822.53
608.31	820.70
608.66	818.31
609.01	815.80
609.36	813.39
609.70	810.57
610.05	808.08
610.40	805.41
610.75	803.00
611.10	800.50
611.44	797.85
611.79	795.40
612.14	792.61
612.49	789.47
612.83	787.12
613.18	784.76
613.53	782.06
613.88	779.19
614.22	776.45
614.57	773.32
614.92	770.37
615.27	767.55
615.61	764.60
615.96	762.08
616.31	759.54
616.65	757.19
617.00	754.99
617.35	752.38
617.70	749.56
618.04	746.63
618.39	743.72
618.74	741.19
619.08	738.35
619.43	735.73
619.78	733.46
620.12	730.65
620.47	728.04
620.82	725.03
621.16	722.44
621.51	719.64
621.85	716.86
622.20	714.14
622.55	711.42
622.89	708.91
623.24	706.42
623.59	704.03
623.93	701.63
624.28	699.08
624.62	696.57
624.97	694.12
625.32	691.73
625.66	689.38
626.01	686.85
626.35	684.40
626.70	681.94
627.04	679.32
627.39	676.61
627.73	673.96
628.08	671.76
628.43	669.50
628.77	666.92
629.12	664.35
629.46	661.90
629.81	659.01
630.15	656.31
630.50	653.36
630.84	650.29
631.19	647.03
631.53	643.87
631.88	640.80
632.22	637.81
632.57	634.99
632.91	632.06
633.26	629.33
633.60	626.41
633.95	623.70
634.29	621.00
634.64	618.72
634.98	616.13
635.32	613.50
635.67	610.92
636.01	608.32
636.36	605.78
636.70	603.18
637.05	601.05
637.39	598.85
637.73	596.63
638.08	594.64
638.42	592.61
638.77	590.40
639.11	588.17
639.45	585.93
639.80	583.59
640.14	581.26
640.49	578.77
640.83	576.42
641.17	573.86
641.52	571.56
641.86	568.87
642.20	566.72
642.55	564.24
642.89	561.83
643.23	559.41
643.58	557.29
643.92	554.86
644.26	552.32
644.61	550.05
644.95	547.57
645.29	544.87
645.64	542.42
645.98	540.17
646.32	537.81
646.66	535.60
647.01	533.24
647.35	531.11
647.69	528.89
648.04	526.70
648.38	524.33
648.72	521.69
649.06	519.43
649.41	516.98
649.75	514.46
650.09	512.14
650.43	509.81
650.78	507.19
651.12	504.85
651.46	502.57
651.80	500.09
652.14	497.97
652.49	495.78
652.83	493.54
653.17	491.20
653.51	488.73
653.85	486.44
654.20	484.14
654.54	481.70
654.88	479.16
655.22	476.77
655.56	474.70
655.90	472.57
656.25	470.21
656.59	467.84
656.93	465.87
657.27	463.79
657.61	461.57
657.95	459.59
658.29	457.56
658.64	455.45
658.98	453.23
659.32	450.89
659.66	448.94
660.00	446.75
660.34	444.74
660.68	442.84
661.02	440.77
661.36	438.85
661.70	436.92
662.05	435.20
662.39	433.55
662.73	431.51
663.07	429.78
663.41	428.17
663.75	426.46
664.09	424.59
664.43	422.45
664.77	420.82
665.11	419.04
665.45	417.20
665.79	415.62
666.13	414.03
666.47	412.38
666.81	410.48
667.15	408.84
667.49	407.16
667.83	405.70
668.17	404.00
668.51	402.36
668.85	400.73
669.19	399.27
669.53	397.53
669.87	396.05
670.21	394.60
670.55	393.04
670.89	391.63
671.23	390.35
671.57	388.90
671.91	387.30
672.25	385.83
672.58	384.42
672.92	382.89
673.26	381.43
673.60	380.13
673.94	378.90
674.28	377.63
674.62	376.49
674.96	375.06
675.30	373.99
675.64	372.56
675.97	371.37
676.31	370.10
676.65	369.00
676.99	367.89
677.33	366.50
677.67	365.12
678.01	363.65
678.34	362.24
678.68	361.24
679.02	360.05
679.36	358.89
679.70	357.74
680.04	356.58
680.37	355.32
680.71	354.17
681.05	352.99
681.39	351.80
681.73	350.54
682.06	349.43
682.40	348.26
682.74	347.30
683.08	346.15
683.42	344.95
683.75	343.75
684.09	342.59
684.43	341.54
684.77	340.47
685.10	339.50
685.44	338.50
685.78	337.36
686.12	336.39
686.45	335.29
686.79	334.30
687.13	333.34
687.46	332.40
687.80	331.32
688.14	330.38
688.48	329.34
688.81	328.26
689.15	327.20
689.49	326.14
689.82	325.09
690.16	324.04
690.50	323.12
690.83	322.22
691.17	321.11
691.51	320.21
691.84	319.35
692.18	318.41
692.52	317.51
692.85	316.55
693.19	315.62
693.52	314.76
693.86	313.75
694.20	312.80
694.53	311.78
694.87	310.93
695.21	310.02
695.54	309.21
695.88	308.42
696.21	307.58
696.55	306.70
696.88	305.93
697.22	305.05
697.56	304.25
697.89	303.43
698.23	302.80
698.56	301.94
698.90	301.17
699.23	300.18
699.57	299.31
699.90	298.56
700.24	297.76
700.58	296.94
700.91	296.26
701.25	295.68
701.58	295.14
701.92	294.47
702.25	293.84
702.59	293.08
702.92	292.46
703.26	291.80
703.59	291.27
703.93	290.82
704.26	290.17
704.60	289.41
704.93	288.61
705.26	287.98
705.60	287.42
705.93	286.92
706.27	286.46
706.60	285.95
706.94	285.39
707.27	284.76
707.61	284.26
707.94	283.69
708.27	282.91
708.61	282.24
708.94	281.64
709.28	281.05
709.61	280.51
709.94	279.97
710.28	279.51
710.61	278.89
710.95	278.10
711.28	277.84
711.61	277.45
711.95	276.99
712.28	276.40
712.61	275.81
712.95	275.30
713.28	274.89
713.61	274.29
713.95	273.81
714.28	273.36
714.61	272.81
714.95	272.30
715.28	271.79
715.61	271.29
715.95	270.90
716.28	270.32
716.61	269.77
716.95	269.18
717.28	268.63
717.61	268.21
717.94	267.74
718.28	267.08
718.61	266.61
718.94	266.10
719.27	265.64
719.61	265.16
719.94	264.53
720.27	264.01
720.60	263.67
720.94	263.28
721.27	262.82
721.60	262.51
721.93	262.11
722.27	261.85
722.60	261.60
722.93	261.14
723.26	260.86
723.59	260.52
723.93	260.15
724.26	259.83
724.59	259.38
724.92	259.12
725.25	258.85
725.59	258.49
725.92	258.30
726.25	258.06
726.58	257.82
726.91	257.47
727.24	257.32
727.57	256.99
727.91	256.61
728.24	256.35
728.57	255.88
728.90	255.69
729.23	255.30
729.56	254.96
729.89	254.70
730.22	254.48
730.55	254.34
730.89	254.09
731.22	253.95
731.55	253.73
731.88	253.44
732.21	253.14
732.54	252.85
732.87	252.61
733.20	252.30
733.53	252.07
733.86	252.00
734.19	251.58
734.52	251.37
734.85	251.31
735.18	251.13
735.51	251.05
735.84	250.71
736.17	250.64
736.50	250.39
736.83	250.39
737.16	250.10
737.49	249.84
737.82	249.61
738.15	249.26
738.48	249.09
738.81	248.83
739.14	248.62
739.47	248.43
739.80	248.14
740.13	248.08
740.46	247.81
740.79	247.57
741.12	247.37
741.45	247.20
741.78	246.93
742.11	246.80
742.44	246.65
742.77	246.63
743.10	246.28
743.43	246.07
743.75	245.65
744.08	245.68
744.41	245.52
744.74	245.38
745.07	245.12
745.40	245.06
745.73	245.00
746.06	244.81
746.39	244.71
746.71	244.53
747.04	244.32
747.37	244.10
747.70	244.10
748.03	244.02
748.36	243.86
748.68	243.59
749.01	243.35
749.34	243.09
749.67	242.91
750.00	242.83
750.33	242.83
750.65	242.69
750.98	242.33
751.31	242.18
751.64	242.02
751.97	242.10
752.29	241.81
752.62	241.60
752.95	241.41
753.28	241.18
753.60	241.08
753.93	240.96
754.26	240.93
754.59	240.58
754.91	240.43
755.24	240.18
755.57	240.13
755.90	240.00
756.22	239.86
756.55	239.62
756.88	239.38
757.20	239.12
757.53	238.94
757.86	238.74
758.19	238.64
758.51	238.53
758.84	238.19
759.17	238.21
759.49	238.02
759.82	238.08
760.15	237.97
760.47	237.81
760.80	237.57
761.13	237.58
761.45	237.52
761.78	237.33
762.11	237.38
762.43	237.15
762.76	237.07
763.08	236.98
763.41	236.84
763.74	236.84
764.06	236.72
764.39	236.67
764.71	236.61
765.04	236.45
765.37	236.36
765.69	236.29
766.02	236.14
766.34	236.06
766.67	235.86
767.00	235.82
767.32	235.96
767.65	236.10
767.97	235.86
768.30	235.81
768.62	235.88
768.95	235.70
769.27	235.71
769.60	235.62
769.92	235.51
770.25	235.44
770.57	235.30
770.90	235.27
771.22	235.26
771.55	235.27
771.87	235.20
772.20	235.20
772.52	235.43
772.85	235.55
773.17	235.58
773.50	235.53
773.82	235.50
774.15	235.28
774.47	235.07
774.80	235.04
775.12	235.05
775.45	235.01
775.77	235.05
776.09	235.02
776.42	234.95
776.74	235.01
777.07	234.99
777.39	234.89
777.72	234.78
778.04	234.65
778.36	234.49
778.69	234.49
779.01	234.40
779.33	234.18
779.66	233.83
779.98	233.67
780.31	233.65
780.63	233.66
780.95	233.70
781.28	233.60
781.60	233.55
781.92	233.34
782.25	233.23
782.57	233.10
782.89	233.03
783.22	232.98
783.54	232.96
783.86	232.87
784.19	232.88
784.51	232.92
784.83	232.89
785.16	232.87
785.48	232.78
785.80	232.78
786.12	232.70
786.45	232.80
786.77	232.82
787.09	232.70
787.42	232.61
787.74	232.54
788.06	232.48
788.38	232.43
788.71	232.40
789.03	232.29
789.35	232.32
789.67	232.23
789.99	232.20
790.32	232.09
790.64	232.10
790.96	232.18
791.28	232.06
791.61	232.03
791.93	232.01
792.25	231.96
792.57	231.93
792.89	231.90
793.21	231.80
793.54	231.65
793.86	231.67
794.18	231.63
794.50	231.50
794.82	231.46
795.14	231.45
795.47	231.57
795.79	231.56
796.11	231.46
796.43	231.44
796.75	231.38
797.07	231.23
797.39	231.18
797.71	231.03
798.04	230.98
798.36	230.90
798.68	230.86
799.00	230.90
799.32	230.89
799.64	230.81
799.96	230.80
800.28	230.90
800.60	230.88
800.92	230.86
801.24	230.88
801.56	230.92
801.89	230.90
802.21	230.83
802.53	230.76
802.85	230.78
803.17	230.80
803.49	230.76
803.81	230.82
804.13	230.79
804.45	230.77
804.77	230.75
805.09	230.79
805.41	230.79
805.73	230.67
806.05	230.55
806.37	230.53
806.69	230.52
807.01	230.51
807.33	230.44
807.65	230.38
807.97	230.48
808.28	230.38
808.60	230.33
808.92	230.27
809.24	230.34
809.56	230.37
809.88	230.34
810.20	230.37
810.52	230.41
810.84	230.35
811.16	230.24
811.48	230.28
811.80	230.32
812.12	230.25
812.43	230.33
812.75	230.39
813.07	230.40
813.39	230.30
813.71	230.24
814.03	230.24
814.35	230.07
814.67	229.89
814.98	229.88
815.30	229.84
815.62	229.87
815.94	229.77
816.26	229.69
816.58	229.68
816.89	229.64
817.21	229.54
817.53	229.61
817.85	229.67
818.17	229.65
818.48	229.56
818.80	229.63
819.12	229.57
819.44	229.53
819.76	229.53
820.07	229.67
820.39	229.56
820.71	229.53
821.03	229.63
821.34	229.74
821.66	229.78
821.98	229.75
822.30	229.73
822.61	229.83
822.93	229.86
823.25	229.81
823.57	229.83
823.88	229.80
824.20	229.84
824.52	229.87
824.83	229.85
825.15	229.86
825.47	229.84
825.79	229.91
826.10	229.81
826.42	229.80
826.74	229.71
827.05	229.74
827.37	229.72
827.69	229.70
828.00	229.62
828.32	229.59
828.64	229.61
828.95	229.59
829.27	229.60
829.58	229.58
829.90	229.63
830.22	229.66
830.53	229.66
830.85	229.51
831.17	229.44
831.48	229.40
831.80	229.30
832.11	229.35
832.43	229.31
832.75	229.39
833.06	229.42
833.38	229.40
833.69	229.41
834.01	229.44
834.32	229.31
834.64	229.31
834.96	229.34
835.27	229.31
835.59	229.23
835.90	229.12
836.22	229.07
836.53	229.00
836.85	228.95
837.16	229.15
837.48	229.16
837.79	229.12
838.11	229.16
838.42	229.18
838.74	229.05
839.05	229.00
839.37	229.00
839.68	228.88
840.00	228.78
840.31	228.77
840.63	228.86
840.94	228.97
841.26	228.90
841.57	228.79
841.88	228.83
842.20	228.88
842.51	228.83
842.83	228.84
843.14	228.95
843.46	228.94
843.77	228.92
844.08	228.96
844.40	229.05
844.71	228.97
845.03	228.97
845.34	228.97
845.65	228.94
845.97	229.03
846.28	229.11
846.60	229.19
846.91	229.20
847.22	229.11
847.54	229.16
847.85	229.23
848.16	229.31
848.48	229.23
848.79	229.30
849.10	229.31
849.42	229.33
849.73	229.13
850.04	229.11
850.36	229.00
850.67	229.03
850.98	229.00
851.30	229.12
851.61	229.21
851.92	229.23
852.23	229.30
852.55	229.30
852.86	229.28
853.17	229.33
853.49	229.36
853.80	229.41
854.11	229.49
854.42	229.49
854.74	229.56
855.05	229.63
855.36	229.50
855.67	229.55
855.99	229.50
856.30	229.91
856.61	229.89
856.92	229.92
857.23	229.88
857.55	229.93
857.86	229.92
858.17	229.88
858.48	229.85
858.79	229.88
859.11	229.83
859.42	229.80
859.73	229.68
860.04	229.65
860.35	229.63
860.66	229.59
860.98	229.60
861.29	229.62
861.60	229.55
861.91	229.62
862.22	229.66
862.53	229.69
862.84	229.39
863.16	229.50
863.47	229.50
863.78	229.55
864.09	229.40
864.40	229.39
864.71	229.37
865.02	229.41
865.33	229.33
865.64	229.20
865.95	229.23
866.27	229.47
866.58	229.48
866.89	229.41
867.20	229.34
867.51	229.23
867.82	229.11
868.13	229.27
868.44	229.24
868.75	229.22
869.06	229.21
869.37	229.09
869.68	228.99
869.99	228.90
870.30	228.86
870.61	228.94
870.92	228.84
871.23	228.76
871.54	228.77
871.85	228.82
872.16	228.85
872.47	228.70
872.78	228.49
873.09	228.41
873.40	228.32
873.71	228.47
874.02	228.45
874.33	228.40
874.64	228.25
874.95	228.25
875.26	228.24
875.56	228.23
875.87	228.40
876.18	228.28
876.49	228.39
876.80	228.28
877.11	228.16
877.42	228.24
877.73	228.31
878.04	228.24
878.35	228.19
878.66	228.19
878.96	228.31
879.27	228.29
879.58	228.36
879.89	228.37
880.20	228.36
880.51	228.34
880.82	228.30
881.12	228.34
881.43	228.30
881.74	228.13
882.05	228.08
882.36	228.04
882.67	228.18
882.97	228.03
883.28	228.10
883.59	228.23
883.90	228.22
884.21	228.26
884.51	228.37
884.82	228.36
885.13	228.38
885.44	228.34
885.74	228.35
886.05	228.35
886.36	228.45
886.67	228.22
886.98	228.37
887.28	228.56
887.59	228.59
887.90	228.63
888.20	228.80
888.51	228.89
888.82	228.88
889.13	228.91
889.43	229.11
889.74	229.10
890.05	229.11
890.35	229.17
890.66	229.13
890.97	229.03
891.28	228.99
891.58	229.17
891.89	229.24
892.20	229.33
892.50	229.40
892.81	229.42
893.12	229.55
893.42	229.48
893.73	229.39
894.04	229.40
894.34	229.35
894.65	229.29
894.95	229.25
895.26	229.25
895.57	229.31
895.87	229.20
896.18	229.29
896.48	229.29
896.79	229.28
897.10	229.32
897.40	229.40
897.71	229.39
898.01	229.23
898.32	229.20
898.63	229.14
898.93	229.11
899.24	229.11
899.54	229.09
899.85	229.06
900.15	228.98
900.46	228.93
900.76	228.98
901.07	228.96
901.38	229.05
901.68	229.00
901.99	228.91
902.29	228.79
902.60	228.75
902.90	228.81
903.21	228.84
903.51	228.79
903.82	228.73
904.12	228.80
904.43	228.68
904.73	228.61
905.03	228.54
905.34	228.63
905.64	228.62
905.95	228.62
906.25	228.58
906.56	228.64
906.86	228.60
907.17	228.55
907.47	228.53
907.77	228.38
908.08	228.31
908.38	228.30
908.69	228.37
908.99	228.43
909.30	228.30
909.60	228.27
909.90	228.18
910.21	228.07
910.51	227.93
910.81	227.96
911.12	228.00
911.42	228.04
911.73	227.90
912.03	227.84
912.33	227.80
912.64	227.77
912.94	227.70
913.24	227.67
913.55	227.67
913.85	227.58
914.15	227.56
914.46	227.67
914.76	227.60
915.06	227.60
915.37	227.45
915.67	227.39
915.97	227.20
916.27	227.20
916.58	227.22
916.88	227.21
917.18	227.28
917.49	227.40
917.79	227.31
918.09	227.23
918.39	227.28
918.70	227.26
919.00	227.26
919.30	227.41
919.60	227.38
919.91	227.37
920.21	227.48
920.51	227.44
920.81	227.40
921.12	227.44
921.42	227.35
921.72	227.41
922.02	227.39
922.32	227.49
922.63	227.57
922.93	227.74
923.23	227.81
923.53	227.69
923.83	227.62
924.13	227.67
924.44	227.75
924.74	227.86
925.04	227.88
925.34	227.92
925.64	227.87
925.94	228.08
926.24	228.22
926.55	228.20
926.85	228.35
927.15	228.43
927.45	228.46
927.75	228.45
928.05	228.48
928.35	228.62
928.65	228.68
928.95	228.61
929.26	228.49
929.56	228.58
929.86	228.71
930.16	228.57
930.46	228.64
930.76	228.60
931.06	228.43
931.36	228.41
931.66	228.60
931.96	228.52
932.26	228.44
932.56	228.38
932.86	228.41
933.16	228.41
933.46	228.36
933.76	228.37
934.06	228.45
934.36	228.42
934.66	228.35
934.96	228.35
935.26	228.42
935.56	228.55
935.86	228.55
936.16	228.50
936.46	228.62
936.76	228.58
937.06	228.71
937.36	228.80
937.66	228.77
937.96	228.70
938.26	228.72
938.56	228.66
938.86	228.65
939.16	228.70
939.46	228.67
939.76	228.62
940.06	228.60
940.35	228.62
940.65	228.60
940.95	228.66
941.25	228.67
941.55	228.60
941.85	228.54
942.15	228.50
942.45	228.58
942.75	228.43
943.04	228.45
943.34	228.39
943.64	228.37
943.94	228.38
944.24	228.26
944.54	228.30
944.84	228.26
945.13	228.29
945.43	228.22
945.73	228.23
946.03	228.22
946.33	228.12
946.62	227.98
946.92	228.00
947.22	227.92
947.52	227.85
947.82	227.92
948.11	227.80
948.41	227.74
948.71	227.67
949.01	227.73
949.31	227.67
949.60	227.60
949.90	227.53
950.20	227.51
950.50	227.50
950.79	227.40
951.09	227.41
951.39	227.39
951.69	227.36
951.98	227.35
952.28	227.29
952.58	227.34
952.87	227.39
953.17	227.31
953.47	227.30
953.76	227.29
954.06	227.26
954.36	227.21
954.66	227.17
954.95	227.22
955.25	227.31
955.55	227.37
955.84	227.30
956.14	227.38
956.44	227.33
956.73	227.38
957.03	227.38
957.32	227.29
957.62	227.26
957.92	227.32
958.21	227.29
958.51	227.57
958.81	227.51
959.10	227.68
959.40	227.79
959.69	227.83
959.99	227.86
960.29	227.79
960.58	227.87
960.88	228.02
961.17	228.10
961.47	228.06
961.76	228.05
962.06	228.17
962.36	228.10
962.65	228.20
962.95	228.15
963.24	228.22
963.54	228.36
963.83	228.36
964.13	228.40
964.42	228.36
964.72	228.22
965.01	228.24
965.31	228.16
965.60	228.14
965.90	228.29
966.19	228.27
966.49	228.38
966.78	228.36
967.08	228.45
967.37	228.33
967.67	228.37
967.96	228.41
968.26	228.34
968.55	228.34
968.85	228.36
969.14	228.48
969.43	228.48
969.73	228.52
970.02	228.53
970.32	228.44
970.61	228.50
970.91	228.48
971.20	228.56
971.49	228.53
971.79	228.55
972.08	228.40
972.38	228.46
972.67	228.48
972.96	228.60
973.26	228.56
973.55	228.69
973.85	228.70
974.14	228.76
974.43	228.82
974.73	228.80
975.02	228.84
975.31	228.77
975.61	228.80
975.90	228.77
976.19	228.60
976.49	228.62
976.78	228.67
977.07	228.71
977.37	228.78
977.66	228.81
977.95	228.81
978.24	228.84
978.54	228.88
978.83	228.90
979.12	228.92
979.42	228.78
979.71	228.68
980.00	228.66
980.29	228.61
980.59	228.61
980.88	228.73
981.17	228.63
981.46	228.65
981.76	228.70
982.05	228.71
982.34	228.88
982.63	228.91
982.93	228.91
983.22	228.90
983.51	228.80
983.80	228.79
984.09	228.82
984.39	228.83
984.68	228.80
984.97	228.69
985.26	228.57
985.55	228.54
985.85	228.56
986.14	228.45
986.43	228.46
986.72	228.41
987.01	228.27
987.30	228.23
987.59	228.21
987.89	228.12
988.18	228.03
988.47	227.98
988.76	227.99
989.05	227.90
989.34	227.86
989.63	227.90
989.92	227.89
990.22	227.81
990.51	227.68
990.80	227.71
991.09	227.76
991.38	227.80
991.67	227.87
991.96	227.80
992.25	227.91
992.54	227.85
992.83	227.74
993.12	227.75
993.41	227.90
993.70	227.98
993.99	228.05
994.28	228.03
994.58	228.09
994.87	228.16
995.16	228.21
995.45	228.21
995.74	228.26
996.03	228.29
996.32	228.32
996.61	228.50
996.90	228.32
997.19	228.34
997.48	228.34
997.77	228.36
998.06	228.40
998.34	228.38
998.63	228.46
998.92	228.57
999.21	228.66
999.50	228.60
999.79	228.47
1000.08	228.47
1000.37	228.68
1000.66	228.64
1000.95	228.65
1001.24	228.56
1001.53	228.58
1001.82	228.49
1002.11	228.40
1002.40	228.54
1002.68	228.59
1002.97	228.82
1003.26	228.83
1003.55	228.88
1003.84	228.88
1004.13	228.94
1004.42	228.90
1004.71	228.89
1004.99	228.95
1005.28	229.06
1005.57	229.10
1005.86	229.26
1006.15	229.25
1006.44	229.13
1006.72	229.17
1007.01	229.15
1007.30	229.27
1007.59	229.22
1007.88	229.18
1008.17	229.24
1008.45	229.19
1008.74	229.12
1009.03	229.01
1009.32	229.00
1009.60	228.99
1009.89	228.96
1010.18	228.82
1010.47	228.86
1010.76	228.76
1011.04	228.62
1011.33	228.54
1011.62	228.56
1011.91	228.42
1012.19	228.44
1012.48	228.48
1012.77	228.47
1013.05	228.52
1013.34	228.49
1013.63	228.59
1013.92	228.68
1014.20	228.64
1014.49	228.56
1014.78	228.51
1015.06	228.53
1015.35	228.45
1015.64	228.44
1015.92	228.50
1016.21	228.60
1016.50	228.59
1016.78	228.67
1017.07	228.75
1017.36	228.76
1017.64	228.65
1017.93	228.69
1018.22	228.64
1018.50	228.60
1018.79	228.55
1019.08	228.45
1019.36	228.41
1019.65	228.29
1019.93	228.26
1020.22	228.21
1020.51	228.26
1020.79	228.16
1021.08	228.30
1021.36	228.30
1021.65	227.80
1021.94	228.60
1022.22	228.20
1022.51	227.10
1022.79	228.20
1023.08	226.70
1023.36	229.20
1023.65	226.30
>>>>>End Processed Spectral Data<<<<<
