SpectraSuite Data File
++++++++++++++++++++++++++++++++++++
Date: Fri Feb 01 14:38:43 EST 2013
User: group
Dark Spectrum Present: No
Reference Spectrum Present: No
Number of Sampled Component Spectra: 1
Spectrometers: USB2E7196
Integration Time (usec): 70000 (USB2E7196)
Spectra Averaged: 10 (USB2E7196)
Boxcar Smoothing: 10 (USB2E7196)
Correct for Electrical Dark: No (USB2E7196)
Strobe/Lamp Enabled: No (USB2E7196)
Correct for Detector Non-linearity: No (USB2E7196)
Correct for Stray Light: No (USB2E7196)
Number of Pixels in Processed Spectrum: 2048
>>>>>Begin Processed Spectral Data<<<<<
339.09	0.00
339.48	214.60
339.86	217.80
340.24	220.80
340.63	218.40
341.01	224.20
341.39	222.00
341.78	225.30
342.16	226.40
342.54	225.70
342.93	214.35
343.31	225.22
343.69	225.87
344.07	226.30
344.46	226.64
344.84	227.01
345.22	227.15
345.60	227.45
345.99	227.64
346.37	227.67
346.75	227.70
347.13	227.75
347.52	227.80
347.90	227.87
348.28	227.82
348.66	227.89
349.05	227.86
349.43	227.87
349.81	227.89
350.19	227.94
350.57	228.02
350.96	228.10
351.34	228.10
351.72	228.10
352.10	228.14
352.48	228.15
352.87	228.33
353.25	228.41
353.63	228.48
354.01	228.54
354.39	228.64
354.77	228.80
355.15	228.87
355.54	228.94
355.92	228.84
356.30	228.90
356.68	229.16
357.06	229.22
357.44	229.40
357.82	229.40
358.20	229.50
358.58	229.53
358.97	229.63
359.35	229.73
359.73	229.87
360.11	229.99
360.49	230.09
360.87	230.05
361.25	230.13
361.63	230.35
362.01	230.33
362.39	230.36
362.77	230.35
363.15	230.41
363.53	230.43
363.91	230.57
364.29	230.57
364.67	230.38
365.05	230.52
365.43	230.50
365.81	230.63
366.19	230.74
366.57	230.73
366.95	230.62
367.33	230.57
367.71	230.45
368.09	230.47
368.47	230.41
368.85	230.48
369.23	230.49
369.61	230.28
369.99	230.29
370.37	230.26
370.75	230.32
371.13	230.21
371.51	230.12
371.89	230.10
372.27	230.11
372.65	230.13
373.03	230.01
373.41	229.98
373.78	229.95
374.16	229.71
374.54	229.68
374.92	229.68
375.30	229.65
375.68	229.66
376.06	229.47
376.44	229.31
376.82	229.12
377.19	229.06
377.57	229.01
377.95	228.89
378.33	228.75
378.71	228.61
379.09	228.56
379.47	228.49
379.84	228.34
380.22	228.17
380.60	228.00
380.98	227.88
381.36	227.70
381.73	227.50
382.11	227.54
382.49	227.54
382.87	227.35
383.25	227.29
383.62	227.33
384.00	227.31
384.38	227.32
384.76	227.34
385.13	227.32
385.51	227.18
385.89	227.10
386.27	227.14
386.64	227.17
387.02	227.15
387.40	227.09
387.78	227.00
388.15	226.90
388.53	226.82
388.91	226.69
389.29	226.64
389.66	226.63
390.04	226.52
390.42	226.41
390.79	226.38
391.17	226.35
391.55	226.22
391.92	226.20
392.30	226.30
392.68	226.34
393.05	226.35
393.43	226.34
393.81	226.35
394.18	226.28
394.56	226.23
394.94	226.17
395.31	226.20
395.69	226.26
396.06	226.40
396.44	226.47
396.82	226.48
397.19	226.67
397.57	226.64
397.95	226.70
398.32	226.69
398.70	226.77
399.07	226.92
399.45	226.84
399.82	226.97
400.20	226.93
400.58	226.95
400.95	226.90
401.33	227.06
401.70	227.35
402.08	227.58
402.45	227.71
402.83	227.99
403.20	228.11
403.58	228.28
403.95	228.40
404.33	228.56
404.71	228.82
405.08	229.08
405.46	229.30
405.83	229.40
406.21	229.63
406.58	229.90
406.96	230.03
407.33	230.43
407.70	230.64
408.08	231.07
408.45	231.42
408.83	231.69
409.20	231.98
409.58	232.13
409.95	232.45
410.33	232.78
410.70	233.04
411.08	233.32
411.45	233.67
411.82	234.02
412.20	234.47
412.57	234.99
412.95	235.22
413.32	235.68
413.69	236.26
414.07	236.68
414.44	237.24
414.82	237.74
415.19	238.32
415.56	238.83
415.94	239.40
416.31	240.10
416.68	240.89
417.06	241.71
417.43	242.39
417.81	243.30
418.18	244.13
418.55	245.03
418.93	246.18
419.30	247.24
419.67	248.43
420.04	249.55
420.42	250.60
420.79	252.00
421.16	253.50
421.54	255.04
421.91	256.56
422.28	257.98
422.66	259.49
423.03	261.13
423.40	262.91
423.77	264.68
424.15	266.43
424.52	268.18
424.89	270.09
425.26	272.00
425.64	273.70
426.01	275.78
426.38	277.93
426.75	280.07
427.13	282.30
427.50	284.56
427.87	286.89
428.24	289.31
428.61	291.56
428.99	293.90
429.36	296.50
429.73	299.28
430.10	302.02
430.47	304.82
430.85	307.50
431.22	310.24
431.59	313.29
431.96	316.21
432.33	319.42
432.70	322.67
433.08	326.31
433.45	329.85
433.82	333.12
434.19	336.80
434.56	340.40
434.93	343.95
435.30	347.29
435.68	351.15
436.05	355.07
436.42	358.82
436.79	362.22
437.16	365.93
437.53	369.59
437.90	373.36
438.27	377.15
438.64	381.10
439.01	384.88
439.38	388.10
439.75	391.14
440.13	394.79
440.50	398.02
440.87	400.80
441.24	403.65
441.61	406.93
441.98	409.39
442.35	412.04
442.72	414.67
443.09	417.63
443.46	419.29
443.83	420.26
444.20	421.26
444.57	422.70
444.94	423.25
445.31	424.10
445.68	425.17
446.05	425.67
446.42	425.46
446.79	425.16
447.16	424.72
447.53	424.65
447.90	423.44
448.27	422.12
448.64	420.34
449.01	419.20
449.37	416.83
449.74	414.49
450.11	411.81
450.48	408.91
450.85	405.67
451.22	403.13
451.59	400.67
451.96	398.36
452.33	395.12
452.70	392.29
453.07	388.70
453.43	384.72
453.80	381.12
454.17	377.72
454.54	374.49
454.91	371.06
455.28	367.64
455.65	364.37
456.02	361.45
456.38	358.64
456.75	355.00
457.12	352.18
457.49	349.22
457.86	346.51
458.23	344.12
458.59	341.45
458.96	338.66
459.33	336.23
459.70	333.76
460.07	331.72
460.43	329.39
460.80	327.26
461.17	325.46
461.54	323.44
461.91	321.61
462.27	319.60
462.64	317.98
463.01	316.13
463.38	314.48
463.74	312.57
464.11	311.12
464.48	309.70
464.85	308.04
465.21	306.90
465.58	305.61
465.95	304.01
466.32	302.75
466.68	301.50
467.05	300.25
467.42	298.98
467.78	297.82
468.15	296.54
468.52	295.67
468.88	294.39
469.25	293.28
469.62	292.22
469.98	291.32
470.35	290.18
470.72	289.18
471.08	288.09
471.45	287.12
471.82	286.15
472.18	285.22
472.55	284.58
472.92	283.73
473.28	282.81
473.65	282.09
474.02	281.34
474.38	280.64
474.75	280.05
475.11	279.39
475.48	278.85
475.85	278.36
476.21	277.70
476.58	277.11
476.94	276.69
477.31	276.19
477.67	275.75
478.04	275.45
478.41	275.26
478.77	275.01
479.14	274.70
479.50	274.30
479.87	273.98
480.23	273.58
480.60	273.28
480.96	273.01
481.33	272.77
481.69	272.57
482.06	272.36
482.42	272.15
482.79	271.93
483.15	271.74
483.52	271.75
483.88	271.64
484.25	271.71
484.61	271.51
484.98	271.40
485.34	271.32
485.71	271.40
486.07	271.20
486.44	271.09
486.80	271.15
487.17	271.21
487.53	271.37
487.90	271.45
488.26	271.55
488.62	271.77
488.99	271.91
489.35	272.04
489.72	272.12
490.08	272.20
490.44	272.39
490.81	272.45
491.17	272.51
491.54	272.66
491.90	272.70
492.26	273.04
492.63	273.40
492.99	273.68
493.36	273.89
493.72	274.26
494.08	274.51
494.45	274.77
494.81	275.13
495.17	275.41
495.54	275.76
495.90	276.02
496.26	276.32
496.63	276.60
496.99	276.84
497.35	277.31
497.72	277.73
498.08	278.06
498.44	278.47
498.80	279.04
499.17	279.48
499.53	279.96
499.89	280.41
500.26	280.80
500.62	281.14
500.98	281.57
501.34	281.86
501.71	282.36
502.07	282.73
502.43	283.13
502.79	283.47
503.16	283.88
503.52	284.41
503.88	284.82
504.24	285.23
504.60	285.81
504.97	286.16
505.33	286.63
505.69	287.32
506.05	287.90
506.41	288.22
506.78	288.70
507.14	289.18
507.50	289.67
507.86	290.21
508.22	290.73
508.59	291.19
508.95	291.82
509.31	292.41
509.67	293.08
510.03	293.78
510.39	294.60
510.75	295.39
511.12	296.20
511.48	297.05
511.84	298.04
512.20	298.85
512.56	299.92
512.92	300.92
513.28	301.88
513.64	302.87
514.00	304.11
514.37	305.43
514.73	306.68
515.09	308.01
515.45	309.20
515.81	310.68
516.17	312.20
516.53	313.81
516.89	315.38
517.25	317.04
517.61	318.87
517.97	320.67
518.33	322.52
518.69	324.44
519.05	326.48
519.41	328.55
519.77	330.75
520.13	332.88
520.49	335.22
520.85	337.58
521.21	340.07
521.57	342.71
521.93	345.21
522.29	347.88
522.65	350.53
523.01	353.65
523.37	356.54
523.73	359.66
524.09	362.63
524.45	365.82
524.81	369.07
525.17	372.48
525.53	376.08
525.89	379.76
526.25	383.43
526.61	386.81
526.97	390.60
527.33	394.43
527.68	398.66
528.04	402.78
528.40	406.95
528.76	411.38
529.12	415.57
529.48	420.05
529.84	424.62
530.20	429.41
530.56	434.02
530.91	438.82
531.27	443.63
531.63	448.70
531.99	453.73
532.35	458.69
532.71	463.65
533.07	468.81
533.42	474.19
533.78	479.46
534.14	485.02
534.50	490.38
534.86	496.12
535.21	501.40
535.57	507.10
535.93	512.80
536.29	518.60
536.65	524.41
537.00	530.07
537.36	535.95
537.72	541.84
538.08	547.81
538.44	553.66
538.79	559.66
539.15	565.68
539.51	571.84
539.87	578.29
540.22	584.60
540.58	590.78
540.94	596.64
541.29	603.11
541.65	609.70
542.01	616.20
542.37	622.61
542.72	628.90
543.08	635.10
543.44	641.33
543.79	647.31
544.15	653.70
544.51	660.26
544.87	666.48
545.22	672.75
545.58	678.96
545.94	685.26
546.29	691.67
546.65	697.96
547.01	704.01
547.36	710.08
547.72	716.17
548.07	722.38
548.43	728.63
548.79	734.38
549.14	740.19
549.50	746.12
549.86	751.98
550.21	758.27
550.57	764.48
550.92	770.32
551.28	776.29
551.64	782.15
551.99	788.08
552.35	794.16
552.70	799.90
553.06	805.86
553.41	811.94
553.77	817.59
554.13	823.47
554.48	829.50
554.84	835.35
555.19	841.09
555.55	846.95
555.90	852.64
556.26	858.22
556.61	863.81
556.97	869.32
557.32	874.73
557.68	879.88
558.03	885.12
558.39	890.64
558.74	896.18
559.10	901.40
559.45	906.58
559.81	911.99
560.16	917.24
560.52	922.32
560.87	927.27
561.23	932.17
561.58	937.05
561.94	941.51
562.29	945.87
562.64	950.52
563.00	954.60
563.35	959.49
563.71	964.54
564.06	969.01
564.42	973.18
564.77	977.42
565.12	982.10
565.48	986.51
565.83	990.78
566.19	994.89
566.54	998.93
566.89	1003.12
567.25	1006.87
567.60	1011.09
567.96	1014.89
568.31	1018.64
568.66	1022.34
569.02	1025.85
569.37	1029.56
569.72	1033.02
570.08	1036.11
570.43	1039.59
570.78	1042.36
571.14	1044.84
571.49	1047.80
571.84	1051.21
572.20	1054.18
572.55	1056.58
572.90	1058.58
573.26	1061.17
573.61	1063.52
573.96	1065.65
574.31	1067.10
574.67	1068.43
575.02	1069.67
575.37	1071.18
575.72	1072.41
576.08	1074.10
576.43	1075.30
576.78	1076.76
577.13	1078.39
577.49	1080.01
577.84	1081.10
578.19	1082.40
578.54	1083.47
578.90	1084.18
579.25	1084.49
579.60	1084.91
579.95	1085.32
580.30	1086.06
580.66	1086.28
581.01	1086.46
581.36	1087.08
581.71	1087.87
582.06	1088.47
582.42	1088.85
582.77	1088.85
583.12	1088.97
583.47	1089.15
583.82	1089.60
584.17	1089.47
584.53	1089.62
584.88	1089.48
585.23	1089.36
585.58	1089.13
585.93	1089.21
586.28	1089.17
586.63	1089.16
586.98	1088.73
587.34	1088.67
587.69	1088.49
588.04	1088.13
588.39	1088.10
588.74	1086.87
589.09	1085.85
589.44	1084.78
589.79	1083.93
590.14	1083.83
590.49	1083.12
590.84	1081.82
591.19	1080.70
591.54	1079.07
591.89	1077.01
592.25	1075.36
592.60	1073.51
592.95	1071.70
593.30	1069.92
593.65	1068.18
594.00	1066.67
594.35	1065.49
594.70	1063.30
595.05	1061.33
595.40	1059.45
595.75	1057.28
596.10	1056.03
596.45	1054.72
596.80	1053.81
597.15	1052.30
597.50	1050.12
597.85	1048.46
598.19	1046.82
598.54	1044.91
598.89	1043.52
599.24	1042.19
599.59	1040.51
599.94	1039.16
600.29	1037.46
600.64	1035.55
600.99	1033.13
601.34	1030.99
601.69	1028.67
602.04	1026.98
602.39	1025.09
602.74	1023.02
603.08	1020.91
603.43	1019.00
603.78	1016.65
604.13	1014.00
604.48	1011.74
604.83	1009.48
605.18	1007.44
605.53	1004.94
605.87	1001.99
606.22	999.56
606.57	996.96
606.92	994.63
607.27	992.24
607.62	989.75
607.96	987.54
608.31	985.69
608.66	983.16
609.01	980.55
609.36	977.59
609.70	974.21
610.05	971.10
610.40	968.19
610.75	965.04
611.10	961.92
611.44	958.51
611.79	955.33
612.14	951.97
612.49	947.98
612.83	944.52
613.18	941.73
613.53	938.73
613.88	935.20
614.22	931.54
614.57	927.93
614.92	924.50
615.27	920.86
615.61	917.26
615.96	913.78
616.31	910.33
616.65	907.36
617.00	904.38
617.35	901.34
617.70	897.79
618.04	894.12
618.39	890.69
618.74	887.66
619.08	884.12
619.43	880.80
619.78	878.04
620.12	874.83
620.47	871.43
620.82	867.41
621.16	864.32
621.51	861.39
621.85	857.95
622.20	854.40
622.55	851.02
622.89	847.79
623.24	844.42
623.59	841.36
623.93	838.11
624.28	834.79
624.62	831.51
624.97	828.61
625.32	825.32
625.66	822.40
626.01	818.93
626.35	815.62
626.70	812.31
627.04	808.94
627.39	805.56
627.73	802.14
628.08	799.11
628.43	795.82
628.77	792.27
629.12	788.98
629.46	785.73
629.81	782.14
630.15	778.39
630.50	774.90
630.84	770.90
631.19	767.11
631.53	763.51
631.88	759.67
632.22	755.90
632.57	752.62
632.91	748.67
633.26	745.15
633.60	741.68
633.95	738.35
634.29	734.88
634.64	731.70
634.98	728.39
635.32	725.27
635.67	721.96
636.01	718.66
636.36	715.28
636.70	712.28
637.05	709.10
637.39	706.39
637.73	703.23
638.08	700.67
638.42	697.77
638.77	694.86
639.11	691.88
639.45	688.69
639.80	685.61
640.14	682.70
640.49	679.78
640.83	676.48
641.17	673.38
641.52	670.40
641.86	667.14
642.20	663.96
642.55	660.70
642.89	657.61
643.23	654.60
643.58	651.72
643.92	648.30
644.26	645.28
644.61	642.13
644.95	639.22
645.29	635.78
645.64	632.46
645.98	629.44
646.32	626.60
646.66	623.48
647.01	620.40
647.35	617.41
647.69	614.49
648.04	611.89
648.38	608.86
648.72	605.46
649.06	602.30
649.41	599.31
649.75	596.14
650.09	592.93
650.43	589.79
650.78	586.51
651.12	583.41
651.46	580.42
651.80	577.42
652.14	574.48
652.49	571.63
652.83	568.77
653.17	565.75
653.51	562.43
653.85	559.59
654.20	556.69
654.54	553.39
654.88	550.07
655.22	546.79
655.56	543.52
655.90	540.71
656.25	537.97
656.59	535.20
656.93	532.46
657.27	529.73
657.61	526.80
657.95	524.24
658.29	521.53
658.64	518.61
658.98	515.67
659.32	512.62
659.66	509.83
660.00	507.19
660.34	504.49
660.68	502.00
661.02	499.31
661.36	496.54
661.70	494.23
662.05	491.95
662.39	489.71
662.73	487.56
663.07	485.30
663.41	482.96
663.75	480.78
664.09	478.39
664.43	475.87
664.77	473.60
665.11	471.33
665.45	469.15
665.79	467.08
666.13	464.75
666.47	462.49
666.81	460.14
667.15	457.78
667.49	455.50
667.83	453.30
668.17	451.19
668.51	449.07
668.85	446.93
669.19	444.97
669.53	442.80
669.87	440.59
670.21	438.54
670.55	436.50
670.89	434.46
671.23	432.49
671.57	430.82
671.91	428.93
672.25	426.80
672.58	424.99
672.92	422.96
673.26	421.37
673.60	419.59
673.94	417.89
674.28	416.19
674.62	414.69
674.96	413.01
675.30	411.41
675.64	409.70
675.97	408.05
676.31	406.31
676.65	404.77
676.99	403.32
677.33	401.70
677.67	400.04
678.01	398.12
678.34	396.50
678.68	394.91
679.02	393.35
679.36	391.86
679.70	390.16
680.04	388.68
680.37	386.90
680.71	385.40
681.05	384.09
681.39	382.71
681.73	381.13
682.06	379.72
682.40	378.35
682.74	377.00
683.08	375.63
683.42	374.20
683.75	372.58
684.09	371.09
684.43	369.61
684.77	368.30
685.10	367.00
685.44	365.52
685.78	364.10
686.12	362.64
686.45	361.35
686.79	360.04
687.13	358.90
687.46	357.72
687.80	356.45
688.14	355.00
688.48	353.53
688.81	352.08
689.15	350.84
689.49	349.32
689.82	347.91
690.16	346.53
690.50	345.30
690.83	344.15
691.17	342.77
691.51	341.56
691.84	340.23
692.18	339.13
692.52	338.04
692.85	336.79
693.19	335.73
693.52	334.69
693.86	333.47
694.20	332.28
694.53	331.00
694.87	329.76
695.21	328.65
695.54	327.49
695.88	326.43
696.21	325.26
696.55	324.25
696.88	323.32
697.22	322.26
697.56	321.21
697.89	320.21
698.23	319.25
698.56	318.21
698.90	317.26
699.23	316.18
699.57	315.08
699.90	314.05
700.24	313.00
700.58	311.88
700.91	311.03
701.25	310.05
701.58	309.23
701.92	308.40
702.25	307.40
702.59	306.52
702.92	305.69
703.26	304.78
703.59	303.85
703.93	303.10
704.26	302.26
704.60	301.30
704.93	300.48
705.26	299.69
705.60	298.96
705.93	298.11
706.27	297.26
706.60	296.72
706.94	296.00
707.27	295.15
707.61	294.34
707.94	293.63
708.27	292.78
708.61	292.00
708.94	291.23
709.28	290.61
709.61	289.94
709.94	289.18
710.28	288.50
710.61	287.83
710.95	286.99
711.28	286.48
711.61	285.88
711.95	285.13
712.28	284.45
712.61	283.70
712.95	283.26
713.28	282.86
713.61	282.15
713.95	281.52
714.28	280.97
714.61	280.30
714.95	279.70
715.28	279.16
715.61	278.54
715.95	278.05
716.28	277.56
716.61	277.04
716.95	276.45
717.28	276.00
717.61	275.60
717.94	275.16
718.28	274.53
718.61	274.02
718.94	273.58
719.27	273.14
719.61	272.64
719.94	272.10
720.27	271.58
720.60	271.06
720.94	270.65
721.27	270.22
721.60	269.87
721.93	269.51
722.27	269.11
722.60	268.88
722.93	268.42
723.26	267.82
723.59	267.34
723.93	267.13
724.26	266.70
724.59	266.21
724.92	265.75
725.25	265.50
725.59	265.18
725.92	264.88
726.25	264.53
726.58	264.22
726.91	263.79
727.24	263.45
727.57	263.20
727.91	262.90
728.24	262.60
728.57	262.47
728.90	262.09
729.23	261.79
729.56	261.41
729.89	261.09
730.22	260.76
730.55	260.62
730.89	260.33
731.22	259.95
731.55	259.65
731.88	259.36
732.21	258.97
732.54	258.65
732.87	258.22
733.20	257.96
733.53	257.73
733.86	257.66
734.19	257.31
734.52	256.98
734.85	256.84
735.18	256.48
735.51	256.10
735.84	255.75
736.17	255.54
736.50	255.15
736.83	255.09
737.16	254.93
737.49	254.45
737.82	254.07
738.15	253.90
738.48	253.60
738.81	253.45
739.14	253.22
739.47	252.84
739.80	252.64
740.13	252.31
740.46	251.98
740.79	251.53
741.12	251.29
741.45	251.06
741.78	250.64
742.11	250.49
742.44	250.17
742.77	250.06
743.10	249.73
743.43	249.55
743.75	249.04
744.08	249.09
744.41	248.87
744.74	248.63
745.07	248.32
745.40	248.20
745.73	247.91
746.06	247.72
746.39	247.52
746.71	247.31
747.04	247.00
747.37	246.77
747.70	246.56
748.03	246.27
748.36	245.99
748.68	245.83
749.01	245.61
749.34	245.40
749.67	245.13
750.00	244.96
750.33	244.86
750.65	244.84
750.98	244.27
751.31	244.22
751.64	244.07
751.97	243.96
752.29	243.69
752.62	243.40
752.95	243.09
753.28	242.95
753.60	242.71
753.93	242.68
754.26	242.54
754.59	242.31
754.91	242.20
755.24	242.09
755.57	241.88
755.90	241.60
756.22	241.46
756.55	241.29
756.88	241.05
757.20	240.78
757.53	240.50
757.86	240.57
758.19	240.28
758.51	240.02
758.84	239.91
759.17	239.84
759.49	239.74
759.82	239.75
760.15	239.55
760.47	239.37
760.80	239.24
761.13	239.05
761.45	238.95
761.78	238.74
762.11	238.53
762.43	238.34
762.76	238.28
763.08	238.16
763.41	238.07
763.74	238.07
764.06	237.92
764.39	237.80
764.71	237.50
765.04	237.49
765.37	237.49
765.69	237.20
766.02	237.04
766.34	236.90
766.67	236.64
767.00	236.63
767.32	236.69
767.65	236.62
767.97	236.52
768.30	236.40
768.62	236.41
768.95	236.26
769.27	236.21
769.60	236.20
769.92	236.11
770.25	235.90
770.57	235.69
770.90	235.69
771.22	235.60
771.55	235.52
771.87	235.40
772.20	235.27
772.52	235.45
772.85	235.54
773.17	235.47
773.50	235.43
773.82	235.34
774.15	235.15
774.47	234.95
774.80	234.91
775.12	234.89
775.45	234.84
775.77	234.87
776.09	234.86
776.42	234.78
776.74	234.80
777.07	234.79
777.39	234.70
777.72	234.53
778.04	234.57
778.36	234.51
778.69	234.49
779.01	234.42
779.33	234.15
779.66	233.84
779.98	233.79
780.31	233.73
780.63	233.71
780.95	233.72
781.28	233.60
781.60	233.58
781.92	233.47
782.25	233.36
782.57	233.27
782.89	233.16
783.22	233.08
783.54	232.91
783.86	232.92
784.19	232.94
784.51	232.98
784.83	232.77
785.16	232.73
785.48	232.68
785.80	232.59
786.12	232.65
786.45	232.75
786.77	232.70
787.09	232.60
787.42	232.52
787.74	232.48
788.06	232.53
788.38	232.50
788.71	232.44
789.03	232.27
789.35	232.34
789.67	232.22
789.99	232.18
790.32	232.13
790.64	232.12
790.96	232.15
791.28	232.01
791.61	232.03
791.93	231.99
792.25	231.97
792.57	232.15
792.89	231.98
793.21	231.90
793.54	231.85
793.86	231.82
794.18	231.81
794.50	231.77
794.82	231.80
795.14	231.64
795.47	231.66
795.79	231.70
796.11	231.57
796.43	231.58
796.75	231.56
797.07	231.67
797.39	231.56
797.71	231.46
798.04	231.50
798.36	231.45
798.68	231.49
799.00	231.41
799.32	231.31
799.64	231.31
799.96	231.33
800.28	231.42
800.60	231.45
800.92	231.42
801.24	231.22
801.56	231.19
801.89	231.28
802.21	231.23
802.53	231.26
802.85	231.30
803.17	231.45
803.49	231.46
803.81	231.38
804.13	231.35
804.45	231.30
804.77	231.32
805.09	231.40
805.41	231.22
805.73	231.28
806.05	231.21
806.37	231.25
806.69	231.14
807.01	231.03
807.33	231.02
807.65	230.95
807.97	231.05
808.28	230.99
808.60	230.93
808.92	230.96
809.24	231.02
809.56	230.98
809.88	230.79
810.20	230.77
810.52	230.78
810.84	230.74
811.16	230.66
811.48	230.59
811.80	230.63
812.12	230.67
812.43	230.70
812.75	230.64
813.07	230.63
813.39	230.64
813.71	230.57
814.03	230.51
814.35	230.51
814.67	230.58
814.98	230.54
815.30	230.64
815.62	230.67
815.94	230.49
816.26	230.59
816.58	230.53
816.89	230.54
817.21	230.40
817.53	230.42
817.85	230.43
818.17	230.47
818.48	230.34
818.80	230.35
819.12	230.24
819.44	230.18
819.76	230.22
820.07	230.31
820.39	230.29
820.71	230.26
821.03	230.30
821.34	230.24
821.66	230.24
821.98	230.30
822.30	230.26
822.61	230.40
822.93	230.31
823.25	230.30
823.57	230.20
823.88	230.21
824.20	230.27
824.52	230.40
824.83	230.37
825.15	230.29
825.47	230.32
825.79	230.32
826.10	230.34
826.42	230.22
826.74	230.10
827.05	230.09
827.37	230.10
827.69	229.95
828.00	229.89
828.32	229.87
828.64	229.70
828.95	229.68
829.27	229.67
829.58	229.55
829.90	229.56
830.22	229.67
830.53	229.68
830.85	229.46
831.17	229.34
831.48	229.26
831.80	229.36
832.11	229.23
832.43	229.22
832.75	229.19
833.06	229.27
833.38	229.17
833.69	229.15
834.01	229.14
834.32	229.17
834.64	229.11
834.96	229.09
835.27	229.07
835.59	229.00
835.90	228.91
836.22	228.99
836.53	228.99
836.85	228.86
837.16	228.96
837.48	229.08
837.79	229.02
838.11	229.01
838.42	228.90
838.74	229.03
839.05	228.86
839.37	228.88
839.68	228.80
840.00	228.91
840.31	228.91
840.63	228.90
840.94	228.95
841.26	228.97
841.57	229.01
841.88	229.01
842.20	228.89
842.51	228.82
842.83	228.85
843.14	228.96
843.46	229.00
843.77	228.97
844.08	229.09
844.40	229.23
844.71	229.23
845.03	229.14
845.34	229.12
845.65	229.16
845.97	229.12
846.28	229.15
846.60	229.17
846.91	229.13
847.22	229.19
847.54	229.28
847.85	229.32
848.16	229.26
848.48	229.20
848.79	229.41
849.10	229.54
849.42	229.39
849.73	229.31
850.04	229.24
850.36	229.15
850.67	228.99
850.98	228.90
851.30	228.92
851.61	229.02
851.92	229.06
852.23	229.15
852.55	229.19
852.86	229.20
853.17	229.14
853.49	229.30
853.80	229.30
854.11	229.26
854.42	229.24
854.74	229.35
855.05	229.33
855.36	229.17
855.67	229.11
855.99	229.25
856.30	229.41
856.61	229.36
856.92	229.35
857.23	229.41
857.55	229.50
857.86	229.55
858.17	229.47
858.48	229.34
858.79	229.37
859.11	229.40
859.42	229.34
859.73	229.33
860.04	229.25
860.35	229.19
860.66	229.18
860.98	229.12
861.29	229.00
861.60	229.04
861.91	229.11
862.22	229.05
862.53	228.96
862.84	228.71
863.16	228.82
863.47	228.82
863.78	228.80
864.09	228.70
864.40	228.58
864.71	228.63
865.02	228.69
865.33	228.62
865.64	228.57
865.95	228.56
866.27	228.69
866.58	228.65
866.89	228.61
867.20	228.50
867.51	228.48
867.82	228.42
868.13	228.37
868.44	228.33
868.75	228.35
869.06	228.36
869.37	228.36
869.68	228.27
869.99	228.31
870.30	228.20
870.61	228.20
870.92	228.25
871.23	228.26
871.54	228.31
871.85	228.31
872.16	228.41
872.47	228.40
872.78	228.22
873.09	228.17
873.40	228.21
873.71	228.22
874.02	228.28
874.33	228.33
874.64	228.25
874.95	228.28
875.26	228.25
875.56	228.18
875.87	228.10
876.18	228.05
876.49	228.18
876.80	228.21
877.11	228.07
877.42	228.01
877.73	228.00
878.04	227.90
878.35	227.90
878.66	227.79
878.96	227.74
879.27	227.70
879.58	227.70
879.89	227.66
880.20	227.71
880.51	227.76
880.82	227.64
881.12	227.75
881.43	227.69
881.74	227.72
882.05	227.79
882.36	227.90
882.67	227.93
882.97	227.68
883.28	227.76
883.59	227.91
883.90	227.90
884.21	227.94
884.51	227.93
884.82	227.84
885.13	227.86
885.44	227.87
885.74	228.00
886.05	228.10
886.36	228.16
886.67	228.12
886.98	228.19
887.28	228.22
887.59	228.23
887.90	228.30
888.20	228.22
888.51	228.28
888.82	228.28
889.13	228.36
889.43	228.64
889.74	228.56
890.05	228.46
890.35	228.58
890.66	228.50
890.97	228.51
891.28	228.54
891.58	228.63
891.89	228.70
892.20	228.62
892.50	228.60
892.81	228.56
893.12	228.63
893.42	228.44
893.73	228.53
894.04	228.55
894.34	228.55
894.65	228.63
894.95	228.57
895.26	228.57
895.57	228.70
895.87	228.48
896.18	228.57
896.48	228.55
896.79	228.43
897.10	228.48
897.40	228.56
897.71	228.64
898.01	228.53
898.32	228.53
898.63	228.57
898.93	228.49
899.24	228.55
899.54	228.52
899.85	228.62
900.15	228.67
900.46	228.70
900.76	228.67
901.07	228.70
901.38	228.73
901.68	228.71
901.99	228.54
902.29	228.53
902.60	228.44
902.90	228.50
903.21	228.56
903.51	228.49
903.82	228.45
904.12	228.54
904.43	228.61
904.73	228.58
905.03	228.54
905.34	228.79
905.64	228.73
905.95	228.70
906.25	228.65
906.56	228.56
906.86	228.55
907.17	228.57
907.47	228.42
907.77	228.36
908.08	228.26
908.38	228.19
908.69	228.21
908.99	228.30
909.30	228.30
909.60	228.31
909.90	228.40
910.21	228.37
910.51	228.22
910.81	228.21
911.12	228.25
911.42	228.34
911.73	228.10
912.03	228.03
912.33	228.04
912.64	227.98
912.94	228.03
913.24	227.90
913.55	227.82
913.85	227.97
914.15	228.03
914.46	228.15
914.76	228.16
915.06	228.20
915.37	228.17
915.67	228.12
915.97	228.02
916.27	227.90
916.58	227.93
916.88	227.90
917.18	227.82
917.49	228.00
917.79	227.97
918.09	227.99
918.39	228.15
918.70	228.21
919.00	228.32
919.30	228.32
919.60	228.39
919.91	228.44
920.21	228.36
920.51	228.33
920.81	228.25
921.12	228.38
921.42	228.33
921.72	228.29
922.02	228.37
922.32	228.42
922.63	228.44
922.93	228.55
923.23	228.70
923.53	228.79
923.83	228.62
924.13	228.58
924.44	228.61
924.74	228.54
925.04	228.55
925.34	228.56
925.64	228.52
925.94	228.56
926.24	228.60
926.55	228.64
926.85	228.63
927.15	228.66
927.45	228.67
927.75	228.59
928.05	228.51
928.35	228.46
928.65	228.60
928.95	228.65
929.26	228.62
929.56	228.57
929.86	228.47
930.16	228.45
930.46	228.44
930.76	228.44
931.06	228.39
931.36	228.30
931.66	228.21
931.96	228.19
932.26	228.15
932.56	228.10
932.86	228.08
933.16	228.12
933.46	228.07
933.76	227.97
934.06	228.06
934.36	228.20
934.66	228.20
934.96	228.06
935.26	228.00
935.56	227.92
935.86	227.81
936.16	227.93
936.46	227.90
936.76	227.83
937.06	227.82
937.36	227.79
937.66	227.81
937.96	227.80
938.26	227.77
938.56	227.70
938.86	227.66
939.16	227.60
939.46	227.53
939.76	227.60
940.06	227.59
940.35	227.55
940.65	227.45
940.95	227.56
941.25	227.59
941.55	227.64
941.85	227.59
942.15	227.70
942.45	227.67
942.75	227.62
943.04	227.61
943.34	227.56
943.64	227.54
943.94	227.52
944.24	227.59
944.54	227.62
944.84	227.65
945.13	227.71
945.43	227.82
945.73	227.98
946.03	227.99
946.33	227.96
946.62	228.00
946.92	227.95
947.22	227.96
947.52	227.95
947.82	227.99
948.11	228.08
948.41	227.98
948.71	227.96
949.01	228.00
949.31	228.09
949.60	228.10
949.90	228.11
950.20	228.16
950.50	228.11
950.79	228.07
951.09	228.23
951.39	228.18
951.69	228.15
951.98	228.11
952.28	228.06
952.58	228.17
952.87	228.04
953.17	228.24
953.47	228.16
953.76	228.19
954.06	228.18
954.36	228.16
954.66	228.17
954.95	228.26
955.25	228.30
955.55	228.36
955.84	228.37
956.14	228.45
956.44	228.42
956.73	228.42
957.03	228.59
957.32	228.45
957.62	228.48
957.92	228.48
958.21	228.49
958.51	228.80
958.81	228.77
959.10	228.87
959.40	228.71
959.69	228.75
959.99	228.86
960.29	228.82
960.58	228.85
960.88	229.00
961.17	228.93
961.47	228.94
961.76	228.89
962.06	228.93
962.36	228.96
962.65	229.00
962.95	229.05
963.24	229.06
963.54	229.06
963.83	229.14
964.13	229.17
964.42	229.03
964.72	228.83
965.01	228.86
965.31	228.87
965.60	228.92
965.90	229.06
966.19	228.90
966.49	228.97
966.78	228.82
967.08	228.72
967.37	228.72
967.67	228.74
967.96	228.76
968.26	228.63
968.55	228.63
968.85	228.66
969.14	228.58
969.43	228.44
969.73	228.47
970.02	228.35
970.32	228.27
970.61	228.35
970.91	228.32
971.20	228.34
971.49	228.31
971.79	228.27
972.08	228.05
972.38	228.10
972.67	228.14
972.96	228.19
973.26	228.14
973.55	228.24
973.85	228.20
974.14	228.15
974.43	228.30
974.73	228.17
975.02	228.05
975.31	228.08
975.61	228.07
975.90	228.08
976.19	228.02
976.49	228.09
976.78	228.00
977.07	227.93
977.37	227.90
977.66	227.88
977.95	227.87
978.24	227.82
978.54	227.91
978.83	227.82
979.12	227.80
979.42	227.86
979.71	227.75
980.00	227.75
980.29	227.85
980.59	227.80
980.88	227.86
981.17	227.99
981.46	227.93
981.76	228.02
982.05	227.99
982.34	228.10
982.63	228.07
982.93	228.10
983.22	228.20
983.51	228.16
983.80	228.25
984.09	228.28
984.39	228.37
984.68	228.19
984.97	228.26
985.26	228.29
985.55	228.29
985.85	228.14
986.14	228.27
986.43	228.21
986.72	228.25
987.01	228.27
987.30	228.09
987.59	228.12
987.89	228.11
988.18	228.16
988.47	228.11
988.76	228.18
989.05	228.23
989.34	228.19
989.63	228.33
989.92	228.39
990.22	228.37
990.51	228.35
990.80	228.46
991.09	228.49
991.38	228.55
991.67	228.62
991.96	228.71
992.25	228.60
992.54	228.61
992.83	228.55
993.12	228.54
993.41	228.68
993.70	228.86
993.99	228.90
994.28	228.91
994.58	228.95
994.87	228.90
995.16	228.83
995.45	228.76
995.74	228.54
996.03	228.51
996.32	228.61
996.61	228.74
996.90	228.68
997.19	228.63
997.48	228.56
997.77	228.47
998.06	228.49
998.34	228.57
998.63	228.50
998.92	228.52
999.21	228.52
999.50	228.51
999.79	228.32
1000.08	228.27
1000.37	228.19
1000.66	228.25
1000.95	228.23
1001.24	228.27
1001.53	228.36
1001.82	228.49
1002.11	228.39
1002.40	228.40
1002.68	228.36
1002.97	228.50
1003.26	228.42
1003.55	228.39
1003.84	228.45
1004.13	228.46
1004.42	228.41
1004.71	228.41
1004.99	228.45
1005.28	228.55
1005.57	228.46
1005.86	228.49
1006.15	228.49
1006.44	228.52
1006.72	228.43
1007.01	228.49
1007.30	228.57
1007.59	228.53
1007.88	228.47
1008.17	228.49
1008.45	228.36
1008.74	228.27
1009.03	228.17
1009.32	228.20
1009.60	228.24
1009.89	228.15
1010.18	227.99
1010.47	228.00
1010.76	228.01
1011.04	227.87
1011.33	227.80
1011.62	227.73
1011.91	227.78
1012.19	227.79
1012.48	227.84
1012.77	227.93
1013.05	227.94
1013.34	227.86
1013.63	227.83
1013.92	227.80
1014.20	227.80
1014.49	227.87
1014.78	227.89
1015.06	227.83
1015.35	227.81
1015.64	227.85
1015.92	227.91
1016.21	228.10
1016.50	228.02
1016.78	227.98
1017.07	228.12
1017.36	228.14
1017.64	228.29
1017.93	228.29
1018.22	228.23
1018.50	228.17
1018.79	228.11
1019.08	227.97
1019.36	227.92
1019.65	227.96
1019.93	228.08
1020.22	228.12
1020.51	228.17
1020.79	228.17
1021.08	227.20
1021.36	227.40
1021.65	228.50
1021.94	226.20
1022.22	226.80
1022.51	228.50
1022.79	230.00
1023.08	228.40
1023.36	229.50
1023.65	227.90
>>>>>End Processed Spectral Data<<<<<
