SpectraSuite Data File
++++++++++++++++++++++++++++++++++++
Date: Fri Feb 01 14:38:15 EST 2013
User: group
Dark Spectrum Present: No
Reference Spectrum Present: No
Number of Sampled Component Spectra: 1
Spectrometers: USB2E7196
Integration Time (usec): 70000 (USB2E7196)
Spectra Averaged: 10 (USB2E7196)
Boxcar Smoothing: 10 (USB2E7196)
Correct for Electrical Dark: No (USB2E7196)
Strobe/Lamp Enabled: No (USB2E7196)
Correct for Detector Non-linearity: No (USB2E7196)
Correct for Stray Light: No (USB2E7196)
Number of Pixels in Processed Spectrum: 2048
>>>>>Begin Processed Spectral Data<<<<<
339.09	0.00
339.48	218.60
339.86	217.30
340.24	219.50
340.63	221.30
341.01	222.70
341.39	223.60
341.78	224.90
342.16	226.50
342.54	227.00
342.93	214.94
343.31	225.79
343.69	226.20
344.07	226.65
344.46	227.03
344.84	227.41
345.22	227.64
345.60	227.83
345.99	227.94
346.37	227.98
346.75	227.96
347.13	228.00
347.52	228.07
347.90	228.22
348.28	228.29
348.66	228.30
349.05	228.19
349.43	228.20
349.81	228.13
350.19	228.11
350.57	228.17
350.96	228.22
351.34	228.23
351.72	228.28
352.10	228.38
352.48	228.44
352.87	228.49
353.25	228.46
353.63	228.55
354.01	228.61
354.39	228.80
354.77	228.95
355.15	229.13
355.54	229.12
355.92	229.13
356.30	229.18
356.68	229.36
357.06	229.41
357.44	229.39
357.82	229.49
358.20	229.62
358.58	229.69
358.97	229.61
359.35	229.70
359.73	229.79
360.11	229.87
360.49	230.02
360.87	229.97
361.25	230.09
361.63	230.18
362.01	230.18
362.39	230.08
362.77	230.12
363.15	229.99
363.53	229.97
363.91	230.01
364.29	230.05
364.67	229.80
365.05	229.79
365.43	229.87
365.81	229.86
366.19	230.00
366.57	230.02
366.95	230.13
367.33	230.10
367.71	230.13
368.09	230.11
368.47	230.01
368.85	229.95
369.23	230.01
369.61	229.92
369.99	230.01
370.37	230.06
370.75	230.02
371.13	229.96
371.51	229.91
371.89	229.90
372.27	229.77
372.65	229.69
373.03	229.69
373.41	229.62
373.78	229.50
374.16	229.29
374.54	229.15
374.92	229.00
375.30	228.95
375.68	228.83
376.06	228.80
376.44	228.64
376.82	228.64
377.19	228.52
377.57	228.46
377.95	228.25
378.33	228.11
378.71	228.04
379.09	228.07
379.47	227.96
379.84	227.73
380.22	227.64
380.60	227.64
380.98	227.53
381.36	227.36
381.73	227.34
382.11	227.22
382.49	227.22
382.87	227.18
383.25	227.10
383.62	227.18
384.00	226.99
384.38	226.95
384.76	226.89
385.13	226.88
385.51	226.82
385.89	226.85
386.27	226.78
386.64	226.60
387.02	226.47
387.40	226.43
387.78	226.38
388.15	226.40
388.53	226.26
388.91	226.28
389.29	226.23
389.66	226.15
390.04	226.04
390.42	225.98
390.79	225.97
391.17	225.95
391.55	225.89
391.92	225.94
392.30	226.08
392.68	225.99
393.05	226.07
393.43	226.08
393.81	226.06
394.18	226.03
394.56	226.09
394.94	226.24
395.31	226.34
395.69	226.49
396.06	226.50
396.44	226.59
396.82	226.60
397.19	226.79
397.57	226.94
397.95	227.08
398.32	227.16
398.70	227.22
399.07	227.28
399.45	227.18
399.82	227.26
400.20	227.30
400.58	227.44
400.95	227.35
401.33	227.44
401.70	227.72
402.08	228.00
402.45	228.15
402.83	228.24
403.20	228.36
403.58	228.51
403.95	228.75
404.33	228.96
404.71	229.07
405.08	229.31
405.46	229.43
405.83	229.68
406.21	230.00
406.58	230.23
406.96	230.42
407.33	230.71
407.70	230.96
408.08	231.35
408.45	231.65
408.83	231.90
409.20	232.22
409.58	232.41
409.95	232.80
410.33	233.13
410.70	233.50
411.08	233.87
411.45	234.24
411.82	234.57
412.20	235.09
412.57	235.64
412.95	235.99
413.32	236.60
413.69	237.09
414.07	237.45
414.44	238.00
414.82	238.64
415.19	239.39
415.56	240.08
415.94	240.60
416.31	241.31
416.68	242.28
417.06	243.20
417.43	244.10
417.81	244.90
418.18	245.92
418.55	247.00
418.93	248.13
419.30	249.37
419.67	250.63
420.04	251.87
420.42	253.19
420.79	254.74
421.16	256.21
421.54	257.79
421.91	259.52
422.28	261.22
422.66	263.07
423.03	264.84
423.40	266.70
423.77	268.72
424.15	270.78
424.52	272.75
424.89	274.92
425.26	277.04
425.64	279.11
426.01	281.35
426.38	283.53
426.75	285.92
427.13	288.24
427.50	290.86
427.87	293.45
428.24	296.18
428.61	298.65
428.99	301.47
429.36	304.57
429.73	307.54
430.10	310.62
430.47	313.69
430.85	316.64
431.22	319.90
431.59	323.35
431.96	326.67
432.33	330.40
432.70	333.86
433.08	338.02
433.45	341.89
433.82	345.79
434.19	350.25
434.56	354.46
434.93	358.57
435.30	362.49
435.68	366.90
436.05	371.09
436.42	375.41
436.79	379.30
437.16	383.49
437.53	387.96
437.90	392.33
438.27	396.59
438.64	401.29
439.01	405.31
439.38	409.07
439.75	412.76
440.13	416.80
440.50	420.78
440.87	424.03
441.24	427.56
441.61	431.42
441.98	434.07
442.35	437.26
442.72	440.52
443.09	443.59
443.46	445.68
443.83	447.16
444.20	448.41
444.57	450.27
444.94	451.17
445.31	452.18
445.68	453.19
446.05	453.78
446.42	453.60
446.79	453.63
447.16	453.47
447.53	453.39
447.90	452.23
448.27	450.98
448.64	448.87
449.01	447.64
449.37	444.97
449.74	442.56
450.11	439.50
450.48	436.00
450.85	432.70
451.22	429.80
451.59	427.20
451.96	424.48
452.33	420.72
452.70	417.40
453.07	413.30
453.43	409.19
453.80	405.23
454.17	401.44
454.54	397.59
454.91	393.60
455.28	389.73
455.65	386.13
456.02	382.65
456.38	379.68
456.75	375.55
457.12	372.15
457.49	368.85
457.86	365.69
458.23	363.17
458.59	360.02
458.96	356.82
459.33	353.95
459.70	351.33
460.07	349.11
460.43	346.51
460.80	344.02
461.17	341.76
461.54	339.50
461.91	337.27
462.27	335.24
462.64	333.16
463.01	330.98
463.38	328.80
463.74	326.57
464.11	324.60
464.48	323.00
464.85	321.29
465.21	319.80
465.58	318.34
465.95	316.51
466.32	315.17
466.68	313.82
467.05	312.34
467.42	310.80
467.78	309.25
468.15	307.82
468.52	306.89
468.88	305.40
469.25	304.10
469.62	303.11
469.98	301.87
470.35	300.89
470.72	299.81
471.08	298.67
471.45	297.69
471.82	296.75
472.18	295.69
472.55	294.85
472.92	293.89
473.28	292.87
473.65	291.92
474.02	291.02
474.38	290.19
474.75	289.43
475.11	288.67
475.48	287.96
475.85	287.42
476.21	286.67
476.58	286.18
476.94	285.54
477.31	284.87
477.67	284.51
478.04	283.97
478.41	283.66
478.77	283.40
479.14	282.92
479.50	282.57
479.87	282.24
480.23	281.86
480.60	281.52
480.96	281.21
481.33	281.16
481.69	280.95
482.06	280.77
482.42	280.57
482.79	280.45
483.15	280.43
483.52	280.47
483.88	280.43
484.25	280.39
484.61	280.47
484.98	280.47
485.34	280.48
485.71	280.53
486.07	280.51
486.44	280.50
486.80	280.65
487.17	280.71
487.53	280.89
487.90	281.12
488.26	281.41
488.62	281.87
488.99	282.06
489.35	282.34
489.72	282.47
490.08	282.78
490.44	283.11
490.81	283.37
491.17	283.66
491.54	284.05
491.90	284.37
492.26	284.80
492.63	285.26
492.99	285.49
493.36	285.98
493.72	286.41
494.08	286.82
494.45	287.30
494.81	287.81
495.17	288.26
495.54	288.75
495.90	289.14
496.26	289.52
496.63	289.92
496.99	290.31
497.35	290.79
497.72	291.27
498.08	291.59
498.44	292.10
498.80	292.55
499.17	292.85
499.53	293.29
499.89	293.61
500.26	293.95
500.62	294.27
500.98	294.65
501.34	295.10
501.71	295.56
502.07	295.81
502.43	296.00
502.79	296.31
503.16	296.57
503.52	296.83
503.88	297.01
504.24	297.23
504.60	297.46
504.97	297.70
505.33	297.87
505.69	298.32
506.05	298.46
506.41	298.64
506.78	298.90
507.14	299.12
507.50	299.40
507.86	299.64
508.22	300.01
508.59	300.10
508.95	300.20
509.31	300.41
509.67	300.68
510.03	300.97
510.39	301.20
510.75	301.56
511.12	301.85
511.48	302.19
511.84	302.49
512.20	302.95
512.56	303.41
512.92	303.74
513.28	304.09
513.64	304.57
514.00	304.97
514.37	305.43
514.73	305.96
515.09	306.46
515.45	307.01
515.81	307.62
516.17	308.34
516.53	309.17
516.89	309.93
517.25	310.74
517.61	311.76
517.97	312.66
518.33	313.59
518.69	314.66
519.05	315.85
519.41	317.12
519.77	318.45
520.13	319.80
520.49	321.22
520.85	322.57
521.21	324.22
521.57	325.80
521.93	327.60
522.29	329.36
522.65	331.14
523.01	333.19
523.37	335.09
523.73	337.19
524.09	339.27
524.45	341.23
524.81	343.49
525.17	345.91
525.53	348.40
525.89	350.90
526.25	353.46
526.61	356.01
526.97	358.80
527.33	361.44
527.68	364.51
528.04	367.51
528.40	370.64
528.76	373.60
529.12	376.84
529.48	380.05
529.84	383.48
530.20	387.00
530.56	390.41
530.91	394.11
531.27	397.79
531.63	401.47
531.99	405.43
532.35	409.31
532.71	413.24
533.07	417.33
533.42	421.70
533.78	426.02
534.14	430.21
534.50	434.42
534.86	438.96
535.21	443.28
535.57	448.02
535.93	452.70
536.29	457.57
536.65	462.46
537.00	467.20
537.36	472.18
537.72	477.08
538.08	482.14
538.44	487.17
538.79	492.37
539.15	497.53
539.51	502.84
539.87	508.16
540.22	513.42
540.58	518.73
540.94	523.93
541.29	529.18
541.65	534.80
542.01	540.50
542.37	545.88
542.72	551.39
543.08	556.80
543.44	562.33
543.79	567.48
544.15	573.14
544.51	578.94
544.87	584.49
545.22	589.96
545.58	595.47
545.94	601.10
546.29	606.62
546.65	612.36
547.01	617.82
547.36	623.49
547.72	628.99
548.07	634.62
548.43	639.98
548.79	645.34
549.14	650.60
549.50	656.03
549.86	661.34
550.21	666.78
550.57	672.19
550.92	677.70
551.28	683.33
551.64	688.74
551.99	694.33
552.35	699.44
552.70	705.16
553.06	710.81
553.41	716.22
553.77	721.59
554.13	726.89
554.48	732.34
554.84	737.59
555.19	742.76
555.55	747.98
555.90	753.16
556.26	758.37
556.61	763.56
556.97	768.27
557.32	773.17
557.68	778.16
558.03	783.33
558.39	788.26
558.74	793.49
559.10	798.42
559.45	803.11
559.81	808.52
560.16	813.13
560.52	817.70
560.87	822.41
561.23	827.08
561.58	831.95
561.94	836.32
562.29	840.64
562.64	845.04
563.00	849.41
563.35	854.22
563.71	859.13
564.06	863.76
564.42	868.41
564.77	872.91
565.12	877.33
565.48	881.46
565.83	885.43
566.19	889.43
566.54	893.23
566.89	897.18
567.25	900.86
567.60	904.90
567.96	908.69
568.31	912.45
568.66	916.13
569.02	919.81
569.37	923.46
569.72	927.13
570.08	930.67
570.43	933.88
570.78	937.09
571.14	939.90
571.49	942.52
571.84	945.60
572.20	948.37
572.55	950.88
572.90	953.54
573.26	956.45
573.61	958.99
573.96	961.31
574.31	963.32
574.67	965.20
575.02	967.03
575.37	969.02
575.72	970.55
576.08	972.30
576.43	973.60
576.78	975.02
577.13	976.54
577.49	978.20
577.84	979.65
578.19	980.99
578.54	982.39
578.90	983.80
579.25	984.93
579.60	986.17
579.95	987.05
580.30	987.57
580.66	988.00
581.01	988.47
581.36	989.26
581.71	990.05
582.06	990.92
582.42	991.52
582.77	991.68
583.12	992.39
583.47	992.88
583.82	993.35
584.17	993.78
584.53	994.33
584.88	994.35
585.23	994.67
585.58	994.29
585.93	994.27
586.28	994.50
586.63	994.61
586.98	994.53
587.34	994.76
587.69	995.13
588.04	995.30
588.39	995.30
588.74	994.73
589.09	994.35
589.44	993.45
589.79	993.28
590.14	993.22
590.49	992.33
590.84	991.44
591.19	990.93
591.54	989.71
591.89	987.97
592.25	987.29
592.60	986.18
592.95	985.02
593.30	983.99
593.65	982.27
594.00	980.49
594.35	979.74
594.70	978.22
595.05	976.62
595.40	975.02
595.75	973.20
596.10	972.03
596.45	970.82
596.80	969.85
597.15	968.19
597.50	966.50
597.85	965.44
598.19	964.40
598.54	962.85
598.89	961.64
599.24	960.80
599.59	959.15
599.94	957.63
600.29	956.26
600.64	954.39
600.99	952.81
601.34	951.31
601.69	949.10
602.04	947.44
602.39	945.69
602.74	944.37
603.08	943.20
603.43	941.52
603.78	939.81
604.13	937.61
604.48	935.77
604.83	933.94
605.18	932.08
605.53	929.70
605.87	927.28
606.22	925.60
606.57	923.45
606.92	921.39
607.27	919.49
607.62	917.64
607.96	915.83
608.31	914.00
608.66	911.63
609.01	909.35
609.36	906.65
609.70	904.04
610.05	901.00
610.40	898.53
610.75	895.70
611.10	892.70
611.44	889.78
611.79	887.03
612.14	884.40
612.49	881.36
612.83	878.33
613.18	875.73
613.53	872.67
613.88	869.60
614.22	866.49
614.57	863.11
614.92	860.11
615.27	856.88
615.61	853.75
615.96	850.81
616.31	848.10
616.65	845.60
617.00	843.00
617.35	840.22
617.70	836.83
618.04	833.97
618.39	831.29
618.74	828.77
619.08	825.77
619.43	822.80
619.78	819.93
620.12	817.20
620.47	814.22
620.82	811.21
621.16	808.44
621.51	805.87
621.85	802.97
622.20	799.91
622.55	797.12
622.89	794.10
623.24	791.49
623.59	788.39
623.93	785.59
624.28	782.70
624.62	779.69
624.97	776.98
625.32	774.36
625.66	771.57
626.01	768.69
626.35	765.84
626.70	762.77
627.04	759.94
627.39	756.86
627.73	753.71
628.08	750.79
628.43	747.56
628.77	744.40
629.12	741.34
629.46	738.13
629.81	734.72
630.15	731.59
630.50	728.21
630.84	724.90
631.19	721.41
631.53	717.87
631.88	714.53
632.22	711.10
632.57	707.92
632.91	704.61
633.26	701.40
633.60	698.08
633.95	694.96
634.29	692.00
634.64	689.25
634.98	686.16
635.32	683.42
635.67	680.69
636.01	677.64
636.36	674.99
636.70	672.35
637.05	669.75
637.39	667.16
637.73	664.40
638.08	661.99
638.42	659.48
638.77	657.10
639.11	654.46
639.45	651.85
639.80	648.70
640.14	645.73
640.49	643.03
640.83	640.22
641.17	637.51
641.52	634.52
641.86	631.61
642.20	629.02
642.55	626.13
642.89	623.30
643.23	620.54
643.58	617.78
643.92	614.78
644.26	612.16
644.61	609.33
644.95	606.81
645.29	603.51
645.64	600.39
645.98	597.55
646.32	594.91
646.66	592.19
647.01	589.53
647.35	586.74
647.69	583.93
648.04	581.43
648.38	578.47
648.72	575.36
649.06	572.38
649.41	569.37
649.75	566.35
650.09	563.39
650.43	560.50
650.78	557.45
651.12	554.92
651.46	552.05
651.80	549.61
652.14	546.74
652.49	544.32
652.83	541.81
653.17	538.91
653.51	536.07
653.85	533.24
654.20	530.50
654.54	527.72
654.88	524.83
655.22	521.75
655.56	519.07
655.90	516.70
656.25	514.28
656.59	511.85
656.93	509.40
657.27	506.99
657.61	504.26
657.95	501.93
658.29	499.29
658.64	496.74
658.98	494.02
659.32	491.45
659.66	489.01
660.00	486.65
660.34	484.28
660.68	482.00
661.02	479.48
661.36	477.29
661.70	475.20
662.05	473.24
662.39	471.26
662.73	469.12
663.07	467.03
663.41	464.71
663.75	462.53
664.09	460.21
664.43	457.90
664.77	455.90
665.11	453.78
665.45	451.74
665.79	449.63
666.13	447.43
666.47	445.20
666.81	442.89
667.15	440.48
667.49	438.44
667.83	436.54
668.17	434.59
668.51	432.44
668.85	430.40
669.19	428.43
669.53	426.63
669.87	424.67
670.21	422.73
670.55	420.87
670.89	419.22
671.23	417.46
671.57	415.90
671.91	414.20
672.25	412.38
672.58	410.63
672.92	408.88
673.26	407.39
673.60	405.86
673.94	404.52
674.28	403.19
674.62	401.70
674.96	400.04
675.30	398.67
675.64	397.14
675.97	395.57
676.31	394.02
676.65	392.41
676.99	391.10
677.33	389.45
677.67	387.86
678.01	386.20
678.34	384.83
678.68	383.22
679.02	381.82
679.36	380.45
679.70	378.90
680.04	377.51
680.37	375.82
680.71	374.45
681.05	372.96
681.39	371.68
681.73	370.27
682.06	368.96
682.40	367.53
682.74	366.33
683.08	365.10
683.42	363.72
683.75	362.36
684.09	360.97
684.43	359.82
684.77	358.66
685.10	357.42
685.44	356.03
685.78	354.83
686.12	353.50
686.45	352.20
686.79	350.99
687.13	349.82
687.46	348.67
687.80	347.36
688.14	346.08
688.48	344.74
688.81	343.48
689.15	342.23
689.49	341.09
689.82	339.91
690.16	338.62
690.50	337.38
690.83	336.23
691.17	334.93
691.51	333.69
691.84	332.76
692.18	331.58
692.52	330.50
692.85	329.47
693.19	328.42
693.52	327.32
693.86	326.17
694.20	325.03
694.53	324.07
694.87	323.14
695.21	322.15
695.54	321.12
695.88	320.05
696.21	319.02
696.55	318.02
696.88	316.93
697.22	316.01
697.56	315.12
697.89	313.99
698.23	313.16
698.56	312.24
698.90	311.29
699.23	310.44
699.57	309.55
699.90	308.55
700.24	307.57
700.58	306.72
700.91	305.98
701.25	305.13
701.58	304.34
701.92	303.48
702.25	302.64
702.59	301.79
702.92	301.12
703.26	300.36
703.59	299.50
703.93	298.84
704.26	298.17
704.60	297.49
704.93	296.84
705.26	296.11
705.60	295.38
705.93	294.63
706.27	294.01
706.60	293.43
706.94	292.85
707.27	292.11
707.61	291.45
707.94	290.76
708.27	290.11
708.61	289.44
708.94	288.80
709.28	288.18
709.61	287.60
709.94	286.90
710.28	286.20
710.61	285.62
710.95	284.93
711.28	284.36
711.61	283.65
711.95	283.15
712.28	282.51
712.61	281.98
712.95	281.51
713.28	280.80
713.61	280.10
713.95	279.48
714.28	278.96
714.61	278.33
714.95	277.75
715.28	277.10
715.61	276.41
715.95	275.86
716.28	275.35
716.61	274.86
716.95	274.32
717.28	273.72
717.61	273.25
717.94	272.80
718.28	272.22
718.61	271.83
718.94	271.40
719.27	270.90
719.61	270.41
719.94	269.89
720.27	269.38
720.60	268.96
720.94	268.47
721.27	268.16
721.60	267.72
721.93	267.33
722.27	267.12
722.60	266.81
722.93	266.47
723.26	265.98
723.59	265.54
723.93	265.19
724.26	264.89
724.59	264.51
724.92	264.12
725.25	263.71
725.59	263.30
725.92	262.90
726.25	262.58
726.58	262.24
726.91	261.90
727.24	261.67
727.57	261.38
727.91	261.03
728.24	260.64
728.57	260.46
728.90	260.11
729.23	259.71
729.56	259.38
729.89	258.90
730.22	258.59
730.55	258.25
730.89	258.00
731.22	257.76
731.55	257.44
731.88	257.06
732.21	256.81
732.54	256.42
732.87	256.09
733.20	255.72
733.53	255.40
733.86	255.06
734.19	254.82
734.52	254.49
734.85	254.45
735.18	254.17
735.51	253.85
735.84	253.63
736.17	253.43
736.50	253.16
736.83	253.22
737.16	253.03
737.49	252.72
737.82	252.40
738.15	252.17
738.48	251.90
738.81	251.79
739.14	251.56
739.47	251.40
739.80	251.29
740.13	251.13
740.46	250.84
740.79	250.54
741.12	250.30
741.45	250.10
741.78	249.63
742.11	249.47
742.44	249.12
742.77	248.92
743.10	248.68
743.43	248.46
743.75	248.07
744.08	248.09
744.41	247.84
744.74	247.55
745.07	247.33
745.40	247.26
745.73	247.00
746.06	246.72
746.39	246.50
746.71	246.17
747.04	245.90
747.37	245.71
747.70	245.60
748.03	245.31
748.36	245.09
748.68	244.88
749.01	244.51
749.34	244.40
749.67	244.23
750.00	243.90
750.33	243.80
750.65	243.50
750.98	243.07
751.31	243.07
751.64	242.98
751.97	242.88
752.29	242.53
752.62	242.29
752.95	242.12
753.28	241.91
753.60	241.79
753.93	241.78
754.26	241.61
754.59	241.37
754.91	241.25
755.24	241.08
755.57	240.98
755.90	240.93
756.22	240.73
756.55	240.55
756.88	240.38
757.20	240.12
757.53	240.06
757.86	239.84
758.19	239.73
758.51	239.55
758.84	239.27
759.17	239.20
759.49	239.09
759.82	238.98
760.15	238.93
760.47	238.80
760.80	238.59
761.13	238.58
761.45	238.52
761.78	238.36
762.11	238.19
762.43	238.11
762.76	237.94
763.08	237.89
763.41	237.78
763.74	237.72
764.06	237.68
764.39	237.58
764.71	237.51
765.04	237.33
765.37	237.22
765.69	237.11
766.02	237.02
766.34	236.81
766.67	236.71
767.00	236.57
767.32	236.56
767.65	236.59
767.97	236.43
768.30	236.27
768.62	236.22
768.95	236.19
769.27	236.07
769.60	236.03
769.92	235.94
770.25	235.80
770.57	235.74
770.90	235.58
771.22	235.40
771.55	235.30
771.87	235.20
772.20	235.15
772.52	235.26
772.85	235.38
773.17	235.40
773.50	235.29
773.82	235.25
774.15	235.11
774.47	234.90
774.80	234.88
775.12	234.88
775.45	234.69
775.77	234.70
776.09	234.61
776.42	234.53
776.74	234.46
777.07	234.34
777.39	234.28
777.72	234.19
778.04	234.22
778.36	234.20
778.69	234.27
779.01	234.27
779.33	234.07
779.66	233.78
779.98	233.78
780.31	233.76
780.63	233.82
780.95	233.75
781.28	233.66
781.60	233.54
781.92	233.46
782.25	233.50
782.57	233.36
782.89	233.28
783.22	233.26
783.54	233.16
783.86	233.20
784.19	233.06
784.51	233.10
784.83	232.95
785.16	232.82
785.48	232.70
785.80	232.65
786.12	232.69
786.45	232.64
786.77	232.52
787.09	232.46
787.42	232.36
787.74	232.36
788.06	232.34
788.38	232.30
788.71	232.27
789.03	232.20
789.35	232.25
789.67	232.23
789.99	232.26
790.32	232.25
790.64	232.18
790.96	232.41
791.28	232.31
791.61	232.33
791.93	232.41
792.25	232.35
792.57	232.41
792.89	232.21
793.21	232.21
793.54	232.21
793.86	232.25
794.18	232.20
794.50	232.11
794.82	232.10
795.14	232.05
795.47	232.05
795.79	232.15
796.11	232.00
796.43	231.93
796.75	231.75
797.07	231.74
797.39	231.79
797.71	231.61
798.04	231.62
798.36	231.55
798.68	231.44
799.00	231.40
799.32	231.33
799.64	231.36
799.96	231.35
800.28	231.31
800.60	231.23
800.92	231.19
801.24	231.12
801.56	231.09
801.89	231.11
802.21	231.06
802.53	230.95
802.85	231.05
803.17	231.27
803.49	231.23
803.81	231.17
804.13	231.09
804.45	231.02
804.77	230.93
805.09	231.04
805.41	231.08
805.73	231.01
806.05	230.80
806.37	230.93
806.69	230.87
807.01	230.85
807.33	230.85
807.65	230.80
807.97	230.90
808.28	230.84
808.60	230.78
808.92	230.81
809.24	230.88
809.56	230.72
809.88	230.56
810.20	230.58
810.52	230.64
810.84	230.61
811.16	230.57
811.48	230.62
811.80	230.68
812.12	230.63
812.43	230.70
812.75	230.83
813.07	230.74
813.39	230.72
813.71	230.68
814.03	230.65
814.35	230.56
814.67	230.41
814.98	230.34
815.30	230.35
815.62	230.19
815.94	230.06
816.26	230.27
816.58	230.20
816.89	230.30
817.21	230.24
817.53	230.19
817.85	230.08
818.17	230.02
818.48	229.94
818.80	229.95
819.12	229.93
819.44	229.79
819.76	229.76
820.07	229.80
820.39	229.79
820.71	229.68
821.03	229.68
821.34	229.70
821.66	229.75
821.98	229.76
822.30	229.86
822.61	230.04
822.93	229.84
823.25	229.89
823.57	229.79
823.88	229.76
824.20	229.70
824.52	229.89
824.83	229.90
825.15	229.80
825.47	229.75
825.79	229.81
826.10	229.86
826.42	229.88
826.74	229.93
827.05	229.94
827.37	230.04
827.69	230.01
828.00	229.97
828.32	230.01
828.64	230.10
828.95	230.04
829.27	229.86
829.58	229.91
829.90	229.87
830.22	229.87
830.53	229.81
830.85	229.89
831.17	229.80
831.48	229.75
831.80	229.76
832.11	229.81
832.43	229.70
832.75	229.68
833.06	229.70
833.38	229.59
833.69	229.58
834.01	229.57
834.32	229.61
834.64	229.61
834.96	229.58
835.27	229.50
835.59	229.56
835.90	229.66
836.22	229.66
836.53	229.70
836.85	229.71
837.16	229.91
837.48	229.90
837.79	229.92
838.11	229.93
838.42	229.90
838.74	229.79
839.05	229.71
839.37	229.74
839.68	229.56
840.00	229.56
840.31	229.48
840.63	229.42
840.94	229.46
841.26	229.50
841.57	229.53
841.88	229.53
842.20	229.46
842.51	229.40
842.83	229.40
843.14	229.52
843.46	229.49
843.77	229.36
844.08	229.40
844.40	229.30
844.71	229.24
845.03	229.25
845.34	229.35
845.65	229.40
845.97	229.41
846.28	229.51
846.60	229.47
846.91	229.60
847.22	229.58
847.54	229.57
847.85	229.53
848.16	229.47
848.48	229.38
848.79	229.42
849.10	229.40
849.42	229.41
849.73	229.29
850.04	229.26
850.36	229.20
850.67	229.08
850.98	229.17
851.30	229.28
851.61	229.27
851.92	229.28
852.23	229.33
852.55	229.27
852.86	229.22
853.17	229.20
853.49	229.15
853.80	229.30
854.11	229.24
854.42	229.18
854.74	229.11
855.05	229.12
855.36	229.05
855.67	229.01
855.99	228.79
856.30	228.93
856.61	228.92
856.92	229.03
857.23	229.07
857.55	228.94
857.86	228.84
858.17	228.87
858.48	228.81
858.79	228.80
859.11	228.85
859.42	228.83
859.73	228.81
860.04	228.70
860.35	228.59
860.66	228.51
860.98	228.55
861.29	228.60
861.60	228.52
861.91	228.50
862.22	228.47
862.53	228.57
862.84	228.29
863.16	228.42
863.47	228.23
863.78	228.23
864.09	228.20
864.40	228.20
864.71	228.15
865.02	228.01
865.33	227.93
865.64	227.84
865.95	227.82
866.27	228.02
866.58	228.12
866.89	228.08
867.20	228.16
867.51	228.03
867.82	228.04
868.13	228.06
868.44	228.10
868.75	228.10
869.06	228.00
869.37	228.10
869.68	227.89
869.99	227.95
870.30	227.89
870.61	227.92
870.92	227.90
871.23	227.96
871.54	227.96
871.85	227.86
872.16	227.86
872.47	227.89
872.78	227.65
873.09	227.56
873.40	227.56
873.71	227.47
874.02	227.61
874.33	227.58
874.64	227.60
874.95	227.50
875.26	227.54
875.56	227.63
875.87	227.55
876.18	227.55
876.49	227.80
876.80	227.83
877.11	227.75
877.42	227.79
877.73	227.74
878.04	227.79
878.35	227.95
878.66	227.89
878.96	227.80
879.27	227.84
879.58	227.90
879.89	227.82
880.20	227.89
880.51	227.91
880.82	227.97
881.12	227.98
881.43	228.05
881.74	227.97
882.05	227.95
882.36	227.97
882.67	228.07
882.97	227.82
883.28	227.81
883.59	227.80
883.90	227.82
884.21	227.77
884.51	227.75
884.82	227.76
885.13	227.89
885.44	227.97
885.74	228.07
886.05	228.04
886.36	228.13
886.67	228.02
886.98	228.16
887.28	228.16
887.59	228.14
887.90	228.06
888.20	228.10
888.51	228.20
888.82	228.17
889.13	228.14
889.43	228.34
889.74	228.35
890.05	228.44
890.35	228.45
890.66	228.54
890.97	228.54
891.28	228.53
891.58	228.57
891.89	228.54
892.20	228.40
892.50	228.52
892.81	228.59
893.12	228.69
893.42	228.51
893.73	228.59
894.04	228.67
894.34	228.80
894.65	228.83
894.95	228.80
895.26	228.88
895.57	228.96
895.87	228.83
896.18	228.89
896.48	228.97
896.79	229.01
897.10	229.08
897.40	229.17
897.71	229.13
898.01	229.05
898.32	229.16
898.63	229.24
898.93	229.15
899.24	229.14
899.54	229.19
899.85	229.32
900.15	229.28
900.46	229.23
900.76	229.12
901.07	229.03
901.38	228.99
901.68	228.95
901.99	228.90
902.29	228.71
902.60	228.65
902.90	228.53
903.21	228.35
903.51	228.19
903.82	228.18
904.12	228.13
904.43	228.20
904.73	228.08
905.03	227.98
905.34	228.16
905.64	228.10
905.95	227.94
906.25	227.75
906.56	227.71
906.86	227.71
907.17	227.76
907.47	227.79
907.77	227.68
908.08	227.70
908.38	227.62
908.69	227.75
908.99	227.81
909.30	227.85
909.60	227.90
909.90	227.99
910.21	227.90
910.51	227.97
910.81	227.90
911.12	227.93
911.42	228.05
911.73	227.90
912.03	227.80
912.33	227.84
912.64	227.92
912.94	227.92
913.24	227.89
913.55	227.76
913.85	227.74
914.15	227.89
914.46	227.82
914.76	227.82
915.06	227.82
915.37	227.76
915.67	227.77
915.97	227.79
916.27	227.71
916.58	227.80
916.88	227.80
917.18	227.83
917.49	227.94
917.79	227.94
918.09	227.90
918.39	228.05
918.70	228.05
919.00	227.96
919.30	228.02
919.60	227.99
919.91	228.04
920.21	228.02
920.51	228.05
920.81	228.03
921.12	228.15
921.42	228.14
921.72	228.23
922.02	228.22
922.32	228.39
922.63	228.46
922.93	228.37
923.23	228.37
923.53	228.32
923.83	228.17
924.13	228.17
924.44	228.21
924.74	228.24
925.04	228.35
925.34	228.28
925.64	228.21
925.94	228.27
926.24	228.44
926.55	228.60
926.85	228.48
927.15	228.56
927.45	228.54
927.75	228.51
928.05	228.41
928.35	228.40
928.65	228.33
928.95	228.34
929.26	228.45
929.56	228.42
929.86	228.58
930.16	228.59
930.46	228.57
930.76	228.57
931.06	228.45
931.36	228.35
931.66	228.49
931.96	228.48
932.26	228.46
932.56	228.38
932.86	228.30
933.16	228.40
933.46	228.35
933.76	228.31
934.06	228.31
934.36	228.45
934.66	228.45
934.96	228.39
935.26	228.38
935.56	228.48
935.86	228.48
936.16	228.34
936.46	228.34
936.76	228.34
937.06	228.33
937.36	228.45
937.66	228.47
937.96	228.52
938.26	228.59
938.56	228.58
938.86	228.57
939.16	228.59
939.46	228.54
939.76	228.49
940.06	228.52
940.35	228.50
940.65	228.45
940.95	228.47
941.25	228.39
941.55	228.34
941.85	228.27
942.15	228.31
942.45	228.37
942.75	228.47
943.04	228.48
943.34	228.55
943.64	228.57
943.94	228.64
944.24	228.59
944.54	228.57
944.84	228.53
945.13	228.54
945.43	228.46
945.73	228.61
946.03	228.70
946.33	228.70
946.62	228.73
946.92	228.75
947.22	228.80
947.52	228.93
947.82	228.97
948.11	228.95
948.41	228.95
948.71	228.90
949.01	228.82
949.31	228.74
949.60	228.62
949.90	228.55
950.20	228.50
950.50	228.33
950.79	228.31
951.09	228.39
951.39	228.38
951.69	228.46
951.98	228.47
952.28	228.46
952.58	228.45
952.87	228.38
953.17	228.37
953.47	228.27
953.76	228.20
954.06	228.17
954.36	228.13
954.66	228.03
954.95	228.08
955.25	227.99
955.55	228.06
955.84	228.00
956.14	227.98
956.44	227.93
956.73	228.09
957.03	228.00
957.32	227.96
957.62	227.96
957.92	227.92
958.21	227.82
958.51	228.10
958.81	228.01
959.10	228.09
959.40	228.02
959.69	228.09
959.99	228.11
960.29	227.98
960.58	227.91
960.88	228.01
961.17	227.96
961.47	228.01
961.76	227.88
962.06	228.00
962.36	228.00
962.65	228.07
962.95	228.08
963.24	228.20
963.54	228.28
963.83	228.22
964.13	228.23
964.42	228.18
964.72	227.95
965.01	228.04
965.31	228.15
965.60	228.11
965.90	228.21
966.19	228.21
966.49	228.38
966.78	228.42
967.08	228.40
967.37	228.50
967.67	228.58
967.96	228.72
968.26	228.71
968.55	228.70
968.85	228.64
969.14	228.56
969.43	228.48
969.73	228.47
970.02	228.66
970.32	228.62
970.61	228.68
970.91	228.65
971.20	228.64
971.49	228.58
971.79	228.68
972.08	228.54
972.38	228.61
972.67	228.60
972.96	228.60
973.26	228.66
973.55	228.65
973.85	228.55
974.14	228.54
974.43	228.57
974.73	228.55
975.02	228.49
975.31	228.54
975.61	228.54
975.90	228.44
976.19	228.30
976.49	228.38
976.78	228.30
977.07	228.24
977.37	228.18
977.66	228.16
977.95	228.11
978.24	228.10
978.54	228.06
978.83	227.97
979.12	227.91
979.42	227.77
979.71	227.80
980.00	227.82
980.29	227.87
980.59	227.80
980.88	227.88
981.17	227.97
981.46	227.95
981.76	227.87
982.05	227.98
982.34	228.01
982.63	227.94
982.93	227.89
983.22	228.01
983.51	227.98
983.80	227.95
984.09	227.97
984.39	227.94
984.68	227.89
984.97	227.86
985.26	227.81
985.55	227.92
985.85	227.84
986.14	227.83
986.43	227.78
986.72	227.73
987.01	227.64
987.30	227.56
987.59	227.41
987.89	227.46
988.18	227.47
988.47	227.48
988.76	227.50
989.05	227.54
989.34	227.41
989.63	227.57
989.92	227.53
990.22	227.47
990.51	227.52
990.80	227.53
991.09	227.60
991.38	227.76
991.67	227.71
991.96	227.63
992.25	227.67
992.54	227.65
992.83	227.68
993.12	227.68
993.41	227.75
993.70	227.90
993.99	227.95
994.28	227.79
994.58	227.73
994.87	227.65
995.16	227.70
995.45	227.69
995.74	227.56
996.03	227.56
996.32	227.66
996.61	227.68
996.90	227.77
997.19	227.79
997.48	227.66
997.77	227.67
998.06	227.80
998.34	227.67
998.63	227.62
998.92	227.66
999.21	227.74
999.50	227.66
999.79	227.71
1000.08	227.70
1000.37	227.87
1000.66	227.92
1000.95	227.99
1001.24	227.88
1001.53	228.06
1001.82	228.09
1002.11	228.03
1002.40	227.98
1002.68	228.08
1002.97	228.21
1003.26	228.24
1003.55	228.27
1003.84	228.28
1004.13	228.25
1004.42	228.46
1004.71	228.50
1004.99	228.52
1005.28	228.49
1005.57	228.62
1005.86	228.59
1006.15	228.61
1006.44	228.57
1006.72	228.61
1007.01	228.69
1007.30	228.84
1007.59	228.72
1007.88	228.73
1008.17	228.88
1008.45	228.85
1008.74	228.68
1009.03	228.57
1009.32	228.57
1009.60	228.67
1009.89	228.63
1010.18	228.69
1010.47	228.59
1010.76	228.60
1011.04	228.60
1011.33	228.70
1011.62	228.74
1011.91	228.71
1012.19	228.72
1012.48	228.68
1012.77	228.61
1013.05	228.76
1013.34	228.73
1013.63	228.70
1013.92	228.71
1014.20	228.67
1014.49	228.82
1014.78	228.89
1015.06	228.80
1015.35	228.81
1015.64	228.76
1015.92	228.79
1016.21	228.73
1016.50	228.71
1016.78	228.75
1017.07	228.67
1017.36	228.48
1017.64	228.33
1017.93	228.36
1018.22	228.34
1018.50	228.36
1018.79	228.34
1019.08	228.10
1019.36	228.10
1019.65	228.16
1019.93	228.11
1020.22	228.09
1020.51	228.07
1020.79	228.04
1021.08	228.20
1021.36	227.90
1021.65	228.00
1021.94	227.50
1022.22	228.60
1022.51	228.90
1022.79	227.40
1023.08	227.60
1023.36	230.30
1023.65	228.30
>>>>>End Processed Spectral Data<<<<<
