SpectraSuite Data File
++++++++++++++++++++++++++++++++++++
Date: Fri Feb 01 14:38:43 EST 2013
User: group
Dark Spectrum Present: No
Reference Spectrum Present: No
Number of Sampled Component Spectra: 1
Spectrometers: USB2E7196
Integration Time (usec): 70000 (USB2E7196)
Spectra Averaged: 10 (USB2E7196)
Boxcar Smoothing: 10 (USB2E7196)
Correct for Electrical Dark: No (USB2E7196)
Strobe/Lamp Enabled: No (USB2E7196)
Correct for Detector Non-linearity: No (USB2E7196)
Correct for Stray Light: No (USB2E7196)
Number of Pixels in Processed Spectrum: 2048
>>>>>Begin Processed Spectral Data<<<<<
339.09	0.00
339.48	216.40
339.86	217.40
340.24	220.20
340.63	220.70
341.01	223.90
341.39	223.60
341.78	225.10
342.16	225.80
342.54	225.40
342.93	214.50
343.31	225.35
343.69	225.83
344.07	226.38
344.46	226.76
344.84	227.14
345.22	227.30
345.60	227.51
345.99	227.66
346.37	227.80
346.75	227.85
347.13	227.92
347.52	227.96
347.90	228.03
348.28	227.97
348.66	227.99
349.05	227.94
349.43	227.86
349.81	227.78
350.19	227.80
350.57	227.90
350.96	227.89
351.34	227.91
351.72	227.89
352.10	227.89
352.48	227.87
352.87	227.90
353.25	228.01
353.63	228.07
354.01	228.05
354.39	228.11
354.77	228.22
355.15	228.38
355.54	228.50
355.92	228.54
356.30	228.69
356.68	228.93
357.06	228.95
357.44	229.03
357.82	229.14
358.20	229.26
358.58	229.29
358.97	229.35
359.35	229.48
359.73	229.73
360.11	229.71
360.49	229.80
360.87	229.82
361.25	229.77
361.63	229.86
362.01	229.95
362.39	229.89
362.77	229.96
363.15	229.90
363.53	229.84
363.91	229.83
364.29	229.87
364.67	229.61
365.05	229.72
365.43	229.88
365.81	229.88
366.19	229.94
366.57	229.96
366.95	229.95
367.33	229.77
367.71	229.72
368.09	229.83
368.47	229.91
368.85	229.90
369.23	229.97
369.61	229.87
369.99	229.92
370.37	229.96
370.75	230.02
371.13	230.00
371.51	230.03
371.89	230.04
372.27	230.06
372.65	230.01
373.03	229.92
373.41	229.84
373.78	229.88
374.16	229.62
374.54	229.56
374.92	229.52
375.30	229.52
375.68	229.40
376.06	229.23
376.44	229.10
376.82	229.02
377.19	228.86
377.57	228.75
377.95	228.57
378.33	228.40
378.71	228.23
379.09	228.03
379.47	227.92
379.84	227.89
380.22	227.70
380.60	227.56
380.98	227.50
381.36	227.41
381.73	227.32
382.11	227.40
382.49	227.23
382.87	227.08
383.25	227.10
383.62	227.28
384.00	227.30
384.38	227.19
384.76	227.19
385.13	227.35
385.51	227.39
385.89	227.38
386.27	227.39
386.64	227.41
387.02	227.48
387.40	227.35
387.78	227.24
388.15	227.21
388.53	227.17
388.91	227.09
389.29	227.06
389.66	227.05
390.04	226.95
390.42	227.01
390.79	227.09
391.17	227.02
391.55	226.83
391.92	226.72
392.30	226.80
392.68	226.79
393.05	226.60
393.43	226.51
393.81	226.50
394.18	226.54
394.56	226.46
394.94	226.48
395.31	226.54
395.69	226.60
396.06	226.76
396.44	226.97
396.82	226.98
397.19	227.07
397.57	227.07
397.95	227.20
398.32	227.28
398.70	227.38
399.07	227.50
399.45	227.56
399.82	227.68
400.20	227.71
400.58	227.74
400.95	227.89
401.33	228.09
401.70	228.37
402.08	228.41
402.45	228.57
402.83	228.70
403.20	228.71
403.58	228.90
403.95	228.97
404.33	229.02
404.71	229.23
405.08	229.53
405.46	229.67
405.83	229.73
406.21	229.85
406.58	229.99
406.96	230.19
407.33	230.34
407.70	230.48
408.08	230.81
408.45	231.17
408.83	231.43
409.20	231.66
409.58	231.66
409.95	231.99
410.33	232.31
410.70	232.60
411.08	233.04
411.45	233.35
411.82	233.70
412.20	234.21
412.57	234.76
412.95	234.94
413.32	235.37
413.69	235.90
414.07	236.41
414.44	236.91
414.82	237.43
415.19	238.06
415.56	238.77
415.94	239.36
416.31	240.01
416.68	240.70
417.06	241.55
417.43	242.42
417.81	243.27
418.18	244.15
418.55	245.13
418.93	246.14
419.30	247.16
419.67	248.29
420.04	249.39
420.42	250.52
420.79	251.98
421.16	253.37
421.54	254.92
421.91	256.37
422.28	257.87
422.66	259.40
423.03	260.96
423.40	262.59
423.77	264.29
424.15	265.98
424.52	267.93
424.89	269.89
425.26	271.78
425.64	273.71
426.01	275.76
426.38	277.91
426.75	279.98
427.13	282.10
427.50	284.41
427.87	286.71
428.24	288.97
428.61	291.07
428.99	293.70
429.36	296.38
429.73	298.98
430.10	301.72
430.47	304.48
430.85	307.23
431.22	310.01
431.59	313.17
431.96	316.09
432.33	319.16
432.70	322.41
433.08	326.19
433.45	329.57
433.82	332.89
434.19	336.69
434.56	340.40
434.93	344.04
435.30	347.44
435.68	351.35
436.05	355.14
436.42	359.01
436.79	362.31
437.16	365.88
437.53	369.66
437.90	373.58
438.27	377.33
438.64	381.25
439.01	384.90
439.38	388.00
439.75	391.11
440.13	394.64
440.50	397.83
440.87	400.49
441.24	403.37
441.61	406.42
441.98	408.63
442.35	411.50
442.72	414.31
443.09	417.10
443.46	418.76
443.83	419.91
444.20	420.98
444.57	422.52
444.94	423.33
445.31	424.21
445.68	425.01
446.05	425.55
446.42	425.43
446.79	425.32
447.16	425.15
447.53	425.13
447.90	424.11
448.27	423.00
448.64	421.26
449.01	420.19
449.37	418.09
449.74	415.84
450.11	413.14
450.48	410.14
450.85	407.08
451.22	404.58
451.59	402.17
451.96	399.78
452.33	396.51
452.70	393.56
453.07	390.11
453.43	386.36
453.80	382.89
454.17	379.51
454.54	376.27
454.91	372.75
455.28	369.32
455.65	366.14
456.02	363.02
456.38	360.21
456.75	356.63
457.12	353.58
457.49	350.80
457.86	347.89
458.23	345.36
458.59	342.58
458.96	339.64
459.33	337.11
459.70	334.68
460.07	332.63
460.43	330.41
460.80	328.16
461.17	326.34
461.54	324.22
461.91	322.36
462.27	320.35
462.64	318.62
463.01	316.74
463.38	314.90
463.74	312.98
464.11	311.40
464.48	309.95
464.85	308.54
465.21	307.35
465.58	306.06
465.95	304.59
466.32	303.26
466.68	302.09
467.05	300.92
467.42	299.72
467.78	298.38
468.15	296.99
468.52	296.01
468.88	294.60
469.25	293.44
469.62	292.50
469.98	291.46
470.35	290.46
470.72	289.46
471.08	288.44
471.45	287.51
471.82	286.70
472.18	285.67
472.55	284.86
472.92	283.91
473.28	283.10
473.65	282.24
474.02	281.61
474.38	280.94
474.75	280.34
475.11	279.60
475.48	279.08
475.85	278.57
476.21	278.17
476.58	277.79
476.94	277.40
477.31	276.83
477.67	276.42
478.04	276.06
478.41	275.91
478.77	275.63
479.14	275.24
479.50	274.85
479.87	274.72
480.23	274.43
480.60	273.98
480.96	273.69
481.33	273.64
481.69	273.42
482.06	273.16
482.42	272.92
482.79	272.70
483.15	272.42
483.52	272.38
483.88	271.98
484.25	271.80
484.61	271.72
484.98	271.63
485.34	271.65
485.71	271.68
486.07	271.52
486.44	271.40
486.80	271.43
487.17	271.46
487.53	271.47
487.90	271.66
488.26	271.91
488.62	272.20
488.99	272.21
489.35	272.37
489.72	272.55
490.08	272.70
490.44	272.94
490.81	273.23
491.17	273.41
491.54	273.88
491.90	274.07
492.26	274.39
492.63	274.65
492.99	274.80
493.36	275.08
493.72	275.45
494.08	275.74
494.45	276.02
494.81	276.24
495.17	276.61
495.54	276.77
495.90	277.18
496.26	277.30
496.63	277.76
496.99	278.07
497.35	278.37
497.72	278.77
498.08	279.03
498.44	279.43
498.80	279.71
499.17	280.00
499.53	280.43
499.89	280.76
500.26	281.00
500.62	281.44
500.98	281.74
501.34	282.14
501.71	282.62
502.07	283.01
502.43	283.41
502.79	283.70
503.16	284.11
503.52	284.36
503.88	284.89
504.24	285.16
504.60	285.60
504.97	286.10
505.33	286.53
505.69	287.11
506.05	287.56
506.41	288.12
506.78	288.58
507.14	289.16
507.50	289.60
507.86	290.25
508.22	290.85
508.59	291.47
508.95	291.95
509.31	292.67
509.67	293.38
510.03	294.23
510.39	294.93
510.75	295.86
511.12	296.76
511.48	297.59
511.84	298.40
512.20	299.34
512.56	300.29
512.92	301.19
513.28	302.19
513.64	303.23
514.00	304.32
514.37	305.71
514.73	307.00
515.09	308.31
515.45	309.66
515.81	311.00
516.17	312.45
516.53	313.99
516.89	315.36
517.25	317.02
517.61	318.63
517.97	320.42
518.33	322.21
518.69	323.97
519.05	325.97
519.41	328.17
519.77	330.40
520.13	332.61
520.49	334.87
520.85	337.27
521.21	339.79
521.57	342.33
521.93	344.60
522.29	347.20
522.65	349.90
523.01	352.74
523.37	355.62
523.73	358.63
524.09	361.76
524.45	364.96
524.81	368.28
525.17	371.74
525.53	375.30
525.89	378.71
526.25	382.67
526.61	386.10
526.97	389.92
527.33	393.72
527.68	397.80
528.04	401.90
528.40	406.01
528.76	410.26
529.12	414.57
529.48	419.13
529.84	423.32
530.20	427.92
530.56	432.54
530.91	437.51
531.27	442.33
531.63	447.29
531.99	452.34
532.35	457.10
532.71	461.97
533.07	467.00
533.42	472.36
533.78	477.50
534.14	483.06
534.50	488.22
534.86	493.78
535.21	498.92
535.57	504.65
535.93	510.32
536.29	515.93
536.65	521.55
537.00	527.24
537.36	533.21
537.72	539.06
538.08	544.91
538.44	550.80
538.79	556.88
539.15	562.78
539.51	568.85
539.87	575.05
540.22	581.23
540.58	587.61
540.94	593.77
541.29	599.83
541.65	606.10
542.01	612.80
542.37	619.10
542.72	625.59
543.08	631.67
543.44	638.14
543.79	644.40
544.15	651.02
544.51	657.73
544.87	664.44
545.22	670.92
545.58	677.37
545.94	683.60
546.29	689.93
546.65	696.18
547.01	702.33
547.36	708.62
547.72	714.79
548.07	720.91
548.43	726.81
548.79	733.06
549.14	739.13
549.50	744.78
549.86	750.42
550.21	756.29
550.57	762.50
550.92	768.15
551.28	774.01
551.64	779.87
551.99	785.51
552.35	790.98
552.70	796.53
553.06	802.43
553.41	808.08
553.77	813.81
554.13	819.29
554.48	825.11
554.84	830.76
555.19	836.37
555.55	842.01
555.90	847.52
556.26	853.08
556.61	858.56
556.97	864.09
557.32	869.76
557.68	875.34
558.03	880.72
558.39	885.94
558.74	891.37
559.10	896.51
559.45	901.56
559.81	907.13
560.16	912.14
560.52	917.13
560.87	922.39
561.23	927.26
561.58	932.45
561.94	937.43
562.29	942.08
562.64	946.60
563.00	950.98
563.35	955.93
563.71	960.55
564.06	965.34
564.42	969.89
564.77	974.18
565.12	978.52
565.48	983.05
565.83	987.42
566.19	991.64
566.54	995.69
566.89	999.66
567.25	1003.20
567.60	1007.37
567.96	1011.41
568.31	1015.03
568.66	1018.51
569.02	1022.10
569.37	1025.36
569.72	1028.71
570.08	1032.00
570.43	1035.60
570.78	1038.44
571.14	1041.04
571.49	1043.54
571.84	1046.71
572.20	1049.36
572.55	1051.94
572.90	1053.63
573.26	1056.29
573.61	1058.56
573.96	1060.56
574.31	1062.55
574.67	1064.20
575.02	1066.00
575.37	1067.76
575.72	1069.04
576.08	1070.60
576.43	1071.78
576.78	1073.05
577.13	1074.66
577.49	1076.24
577.84	1077.13
578.19	1078.26
578.54	1079.50
578.90	1080.29
579.25	1080.77
579.60	1081.59
579.95	1082.17
580.30	1082.88
580.66	1083.06
581.01	1083.29
581.36	1083.79
581.71	1084.29
582.06	1085.04
582.42	1085.24
582.77	1085.09
583.12	1085.27
583.47	1085.39
583.82	1085.73
584.17	1085.56
584.53	1085.07
584.88	1085.15
585.23	1084.88
585.58	1084.93
585.93	1084.62
586.28	1084.65
586.63	1084.31
586.98	1084.19
587.34	1083.92
587.69	1083.71
588.04	1083.40
588.39	1083.14
588.74	1082.00
589.09	1080.91
589.44	1079.69
589.79	1078.77
590.14	1078.10
590.49	1077.22
590.84	1076.17
591.19	1075.18
591.54	1074.05
591.89	1072.70
592.25	1071.07
592.60	1069.63
592.95	1067.60
593.30	1066.07
593.65	1064.17
594.00	1062.36
594.35	1060.94
594.70	1059.00
595.05	1057.26
595.40	1055.45
595.75	1053.43
596.10	1052.26
596.45	1051.10
596.80	1049.94
597.15	1048.41
597.50	1046.36
597.85	1044.96
598.19	1043.30
598.54	1041.78
598.89	1040.01
599.24	1039.12
599.59	1037.45
599.94	1036.04
600.29	1034.80
600.64	1032.91
600.99	1031.08
601.34	1029.38
601.69	1027.10
602.04	1025.16
602.39	1023.06
602.74	1021.42
603.08	1019.84
603.43	1017.88
603.78	1015.79
604.13	1013.40
604.48	1011.03
604.83	1009.16
605.18	1006.90
605.53	1004.78
605.87	1001.94
606.22	999.61
606.57	996.50
606.92	994.11
607.27	991.61
607.62	989.08
607.96	986.86
608.31	984.59
608.66	981.89
609.01	979.02
609.36	975.99
609.70	973.00
610.05	969.52
610.40	966.56
610.75	963.12
611.10	959.70
611.44	956.45
611.79	953.48
612.14	949.90
612.49	946.07
612.83	942.42
613.18	939.25
613.53	936.22
613.88	932.67
614.22	929.14
614.57	925.21
614.92	921.60
615.27	918.05
615.61	914.39
615.96	910.85
616.31	907.87
616.65	905.38
617.00	902.36
617.35	899.41
617.70	895.67
618.04	892.29
618.39	889.16
618.74	885.95
619.08	882.54
619.43	879.27
619.78	876.36
620.12	873.07
620.47	869.78
620.82	865.98
621.16	862.79
621.51	859.75
621.85	856.47
622.20	853.26
622.55	849.87
622.89	846.62
623.24	843.53
623.59	839.95
623.93	836.47
624.28	833.29
624.62	829.75
624.97	826.65
625.32	823.76
625.66	820.50
626.01	817.07
626.35	813.49
626.70	810.28
627.04	807.16
627.39	803.75
627.73	800.29
628.08	797.22
628.43	793.92
628.77	790.19
629.12	787.23
629.46	783.70
629.81	780.01
630.15	776.53
630.50	773.00
630.84	769.26
631.19	765.40
631.53	761.82
631.88	757.94
632.22	754.02
632.57	750.40
632.91	746.82
633.26	743.50
633.60	740.12
633.95	736.67
634.29	733.20
634.64	729.99
634.98	726.65
635.32	723.42
635.67	720.40
636.01	717.50
636.36	714.03
636.70	711.12
637.05	708.19
637.39	705.13
637.73	702.09
638.08	699.56
638.42	696.67
638.77	693.51
639.11	690.56
639.45	687.62
639.80	684.48
640.14	681.56
640.49	678.51
640.83	675.57
641.17	672.49
641.52	669.18
641.86	666.00
642.20	663.05
642.55	659.76
642.89	656.72
643.23	653.22
643.58	650.51
643.92	647.29
644.26	644.27
644.61	641.44
644.95	638.38
645.29	634.69
645.64	631.34
645.98	628.20
646.32	625.47
646.66	622.62
647.01	619.66
647.35	616.57
647.69	613.55
648.04	610.71
648.38	607.75
648.72	604.70
649.06	601.45
649.41	598.34
649.75	595.40
650.09	592.20
650.43	589.33
650.78	585.86
651.12	582.70
651.46	579.62
651.80	576.50
652.14	573.45
652.49	570.81
652.83	568.21
653.17	565.22
653.51	562.00
653.85	559.15
654.20	556.16
654.54	552.91
654.88	549.70
655.22	546.33
655.56	543.09
655.90	540.30
656.25	537.61
656.59	534.60
656.93	531.76
657.27	528.87
657.61	525.98
657.95	523.49
658.29	520.79
658.64	517.97
658.98	515.03
659.32	512.05
659.66	509.37
660.00	506.48
660.34	503.83
660.68	501.31
661.02	498.21
661.36	495.74
661.70	493.44
662.05	491.13
662.39	489.06
662.73	486.81
663.07	484.43
663.41	482.26
663.75	479.94
664.09	477.62
664.43	475.35
664.77	473.14
665.11	470.84
665.45	468.55
665.79	466.34
666.13	464.12
666.47	462.04
666.81	459.70
667.15	457.16
667.49	455.01
667.83	452.89
668.17	450.96
668.51	448.69
668.85	446.37
669.19	444.38
669.53	442.15
669.87	439.92
670.21	437.79
670.55	435.62
670.89	433.91
671.23	432.00
671.57	430.08
671.91	428.13
672.25	426.02
672.58	424.34
672.92	422.45
673.26	420.56
673.60	418.77
673.94	416.90
674.28	415.44
674.62	413.77
674.96	412.08
675.30	410.32
675.64	408.64
675.97	407.01
676.31	405.22
676.65	403.57
676.99	402.22
677.33	400.50
677.67	398.82
678.01	396.87
678.34	395.11
678.68	393.46
679.02	391.82
679.36	390.34
679.70	388.61
680.04	387.07
680.37	385.71
680.71	384.27
681.05	382.93
681.39	381.47
681.73	380.06
682.06	378.74
682.40	377.37
682.74	376.07
683.08	374.90
683.42	373.63
683.75	372.20
684.09	370.73
684.43	369.41
684.77	368.00
685.10	366.80
685.44	365.54
685.78	364.31
686.12	362.99
686.45	361.60
686.79	360.31
687.13	359.08
687.46	357.70
687.80	356.38
688.14	355.05
688.48	353.87
688.81	352.58
689.15	351.19
689.49	349.87
689.82	348.64
690.16	347.30
690.50	345.88
690.83	344.71
691.17	343.35
691.51	342.16
691.84	341.04
692.18	339.79
692.52	338.59
692.85	337.30
693.19	336.20
693.52	335.03
693.86	333.88
694.20	332.70
694.53	331.50
694.87	330.41
695.21	329.26
695.54	327.94
695.88	326.68
696.21	325.47
696.55	324.42
696.88	323.24
697.22	322.02
697.56	321.12
697.89	320.06
698.23	319.06
698.56	318.01
698.90	316.95
699.23	315.80
699.57	314.74
699.90	313.82
700.24	312.80
700.58	311.92
700.91	310.83
701.25	309.98
701.58	309.13
701.92	308.26
702.25	307.33
702.59	306.60
702.92	305.71
703.26	304.87
703.59	304.05
703.93	303.32
704.26	302.64
704.60	301.72
704.93	300.71
705.26	299.95
705.60	299.21
705.93	298.46
706.27	297.75
706.60	296.97
706.94	296.29
707.27	295.50
707.61	294.54
707.94	293.90
708.27	293.10
708.61	292.22
708.94	291.54
709.28	290.77
709.61	289.93
709.94	289.32
710.28	288.63
710.61	287.91
710.95	286.98
711.28	286.25
711.61	285.62
711.95	285.06
712.28	284.38
712.61	283.62
712.95	283.00
713.28	282.49
713.61	281.83
713.95	281.08
714.28	280.47
714.61	279.94
714.95	279.30
715.28	278.67
715.61	278.12
715.95	277.46
716.28	276.89
716.61	276.46
716.95	275.84
717.28	275.23
717.61	274.73
717.94	274.26
718.28	273.64
718.61	273.03
718.94	272.53
719.27	272.04
719.61	271.65
719.94	271.17
720.27	270.58
720.60	270.19
720.94	269.77
721.27	269.30
721.60	268.98
721.93	268.65
722.27	268.31
722.60	267.98
722.93	267.50
723.26	267.21
723.59	266.76
723.93	266.39
724.26	266.18
724.59	265.77
724.92	265.46
725.25	265.16
725.59	264.73
725.92	264.47
726.25	264.15
726.58	263.87
726.91	263.57
727.24	263.30
727.57	263.00
727.91	262.66
728.24	262.47
728.57	262.10
728.90	261.79
729.23	261.39
729.56	261.20
729.89	260.87
730.22	260.45
730.55	260.09
730.89	259.77
731.22	259.40
731.55	259.12
731.88	258.84
732.21	258.71
732.54	258.45
732.87	258.10
733.20	257.78
733.53	257.46
733.86	257.18
734.19	256.87
734.52	256.60
734.85	256.40
735.18	256.11
735.51	255.91
735.84	255.64
736.17	255.50
736.50	255.13
736.83	255.13
737.16	254.85
737.49	254.70
737.82	254.48
738.15	254.16
738.48	253.92
738.81	253.64
739.14	253.11
739.47	252.86
739.80	252.49
740.13	252.17
740.46	251.82
740.79	251.48
741.12	251.27
741.45	251.01
741.78	250.71
742.11	250.43
742.44	250.14
742.77	249.77
743.10	249.36
743.43	248.93
743.75	248.47
744.08	248.45
744.41	248.11
744.74	247.89
745.07	247.70
745.40	247.45
745.73	247.26
746.06	247.09
746.39	246.96
746.71	246.80
747.04	246.62
747.37	246.36
747.70	246.30
748.03	246.06
748.36	245.85
748.68	245.53
749.01	245.24
749.34	244.95
749.67	244.70
750.00	244.64
750.33	244.72
750.65	244.59
750.98	244.30
751.31	244.10
751.64	243.88
751.97	243.80
752.29	243.68
752.62	243.50
752.95	243.30
753.28	243.07
753.60	242.95
753.93	242.80
754.26	242.64
754.59	242.37
754.91	242.18
755.24	241.93
755.57	241.90
755.90	241.79
756.22	241.70
756.55	241.65
756.88	241.33
757.20	241.00
757.53	240.78
757.86	240.58
758.19	240.42
758.51	240.29
758.84	240.06
759.17	239.92
759.49	239.73
759.82	239.74
760.15	239.68
760.47	239.62
760.80	239.53
761.13	239.41
761.45	239.24
761.78	239.08
762.11	239.05
762.43	239.00
762.76	238.89
763.08	238.79
763.41	238.68
763.74	238.70
764.06	238.71
764.39	238.52
764.71	238.34
765.04	238.30
765.37	238.16
765.69	238.05
766.02	237.88
766.34	237.79
766.67	237.61
767.00	237.62
767.32	237.50
767.65	237.47
767.97	237.40
768.30	237.50
768.62	237.46
768.95	237.31
769.27	237.14
769.60	237.07
769.92	237.00
770.25	236.86
770.57	236.70
770.90	236.54
771.22	236.52
771.55	236.57
771.87	236.48
772.20	236.51
772.52	236.57
772.85	236.86
773.17	236.80
773.50	236.69
773.82	236.47
774.15	236.38
774.47	236.18
774.80	236.08
775.12	235.82
775.45	235.71
775.77	235.74
776.09	235.66
776.42	235.56
776.74	235.55
777.07	235.47
777.39	235.49
777.72	235.36
778.04	235.42
778.36	235.30
778.69	235.27
779.01	235.13
779.33	234.88
779.66	234.55
779.98	234.45
780.31	234.38
780.63	234.43
780.95	234.34
781.28	234.26
781.60	234.27
781.92	234.29
782.25	234.25
782.57	234.11
782.89	233.98
783.22	234.00
783.54	233.90
783.86	233.95
784.19	233.88
784.51	233.88
784.83	233.76
785.16	233.68
785.48	233.55
785.80	233.50
786.12	233.54
786.45	233.41
786.77	233.43
787.09	233.25
787.42	233.08
787.74	233.08
788.06	233.02
788.38	232.90
788.71	232.77
789.03	232.72
789.35	232.70
789.67	232.62
789.99	232.52
790.32	232.45
790.64	232.31
790.96	232.30
791.28	232.25
791.61	232.04
791.93	232.05
792.25	232.11
792.57	232.12
792.89	231.94
793.21	231.85
793.54	231.71
793.86	231.70
794.18	231.60
794.50	231.43
794.82	231.39
795.14	231.34
795.47	231.40
795.79	231.33
796.11	231.19
796.43	231.23
796.75	231.16
797.07	231.10
797.39	231.13
797.71	230.97
798.04	230.81
798.36	230.87
798.68	230.77
799.00	230.66
799.32	230.50
799.64	230.56
799.96	230.55
800.28	230.56
800.60	230.56
800.92	230.61
801.24	230.65
801.56	230.68
801.89	230.73
802.21	230.65
802.53	230.66
802.85	230.64
803.17	230.71
803.49	230.73
803.81	230.75
804.13	230.72
804.45	230.78
804.77	230.83
805.09	230.87
805.41	230.84
805.73	230.84
806.05	230.94
806.37	230.92
806.69	231.04
807.01	231.03
807.33	231.09
807.65	231.11
807.97	231.24
808.28	231.21
808.60	231.26
808.92	231.26
809.24	231.29
809.56	231.35
809.88	231.17
810.20	231.19
810.52	231.13
810.84	231.28
811.16	231.29
811.48	231.21
811.80	231.18
812.12	231.15
812.43	231.21
812.75	231.12
813.07	231.13
813.39	230.98
813.71	230.94
814.03	230.89
814.35	230.88
814.67	230.80
814.98	230.79
815.30	230.73
815.62	230.77
815.94	230.65
816.26	230.84
816.58	230.83
816.89	230.77
817.21	230.72
817.53	230.47
817.85	230.38
818.17	230.45
818.48	230.43
818.80	230.50
819.12	230.45
819.44	230.48
819.76	230.40
820.07	230.39
820.39	230.45
820.71	230.53
821.03	230.46
821.34	230.32
821.66	230.35
821.98	230.39
822.30	230.32
822.61	230.53
822.93	230.29
823.25	230.30
823.57	230.23
823.88	230.33
824.20	230.37
824.52	230.37
824.83	230.31
825.15	230.22
825.47	230.07
825.79	229.98
826.10	229.92
826.42	229.87
826.74	229.88
827.05	229.92
827.37	229.83
827.69	229.86
828.00	229.89
828.32	229.82
828.64	229.67
828.95	229.61
829.27	229.42
829.58	229.42
829.90	229.45
830.22	229.39
830.53	229.34
830.85	229.31
831.17	229.25
831.48	229.19
831.80	229.18
832.11	229.17
832.43	229.13
832.75	229.14
833.06	229.15
833.38	228.99
833.69	228.73
834.01	228.75
834.32	228.70
834.64	228.72
834.96	228.62
835.27	228.60
835.59	228.59
835.90	228.58
836.22	228.50
836.53	228.43
836.85	228.55
837.16	228.60
837.48	228.59
837.79	228.61
838.11	228.62
838.42	228.63
838.74	228.65
839.05	228.64
839.37	228.57
839.68	228.64
840.00	228.69
840.31	228.83
840.63	228.76
840.94	228.72
841.26	228.63
841.57	228.67
841.88	228.73
842.20	228.75
842.51	228.70
842.83	228.80
843.14	229.01
843.46	228.98
843.77	228.99
844.08	228.95
844.40	229.01
844.71	229.00
845.03	229.08
845.34	229.18
845.65	229.34
845.97	229.45
846.28	229.45
846.60	229.47
846.91	229.52
847.22	229.50
847.54	229.52
847.85	229.59
848.16	229.62
848.48	229.60
848.79	229.56
849.10	229.60
849.42	229.59
849.73	229.39
850.04	229.37
850.36	229.33
850.67	229.50
850.98	229.48
851.30	229.57
851.61	229.56
851.92	229.51
852.23	229.42
852.55	229.30
852.86	229.27
853.17	229.35
853.49	229.30
853.80	229.45
854.11	229.51
854.42	229.56
854.74	229.54
855.05	229.58
855.36	229.56
855.67	229.61
855.99	229.54
856.30	229.80
856.61	229.77
856.92	229.70
857.23	229.63
857.55	229.52
857.86	229.48
858.17	229.49
858.48	229.46
858.79	229.38
859.11	229.47
859.42	229.40
859.73	229.40
860.04	229.40
860.35	229.24
860.66	229.24
860.98	229.16
861.29	229.20
861.60	229.24
861.91	229.35
862.22	229.29
862.53	229.23
862.84	228.99
863.16	228.97
863.47	228.85
863.78	228.75
864.09	228.74
864.40	228.75
864.71	228.74
865.02	228.80
865.33	228.80
865.64	228.73
865.95	228.72
866.27	228.80
866.58	228.80
866.89	228.86
867.20	228.77
867.51	228.76
867.82	228.66
868.13	228.59
868.44	228.48
868.75	228.45
869.06	228.43
869.37	228.44
869.68	228.43
869.99	228.57
870.30	228.62
870.61	228.65
870.92	228.54
871.23	228.42
871.54	228.39
871.85	228.45
872.16	228.44
872.47	228.44
872.78	228.29
873.09	228.14
873.40	228.04
873.71	228.02
874.02	227.95
874.33	227.92
874.64	227.89
874.95	227.86
875.26	227.87
875.56	227.95
875.87	227.84
876.18	227.82
876.49	227.90
876.80	227.84
877.11	227.82
877.42	227.79
877.73	227.79
878.04	227.75
878.35	227.64
878.66	227.65
878.96	227.62
879.27	227.60
879.58	227.67
879.89	227.69
880.20	227.70
880.51	227.70
880.82	227.70
881.12	227.69
881.43	227.67
881.74	227.59
882.05	227.51
882.36	227.53
882.67	227.61
882.97	227.45
883.28	227.44
883.59	227.50
883.90	227.61
884.21	227.76
884.51	227.78
884.82	227.78
885.13	227.78
885.44	227.84
885.74	227.99
886.05	228.00
886.36	228.06
886.67	228.13
886.98	228.31
887.28	228.34
887.59	228.40
887.90	228.40
888.20	228.43
888.51	228.52
888.82	228.57
889.13	228.60
889.43	228.82
889.74	228.85
890.05	228.88
890.35	228.96
890.66	228.89
890.97	228.94
891.28	229.01
891.58	229.13
891.89	229.16
892.20	229.00
892.50	229.03
892.81	229.10
893.12	229.01
893.42	229.00
893.73	229.09
894.04	229.13
894.34	229.17
894.65	229.21
894.95	229.32
895.26	229.32
895.57	229.42
895.87	229.35
896.18	229.41
896.48	229.36
896.79	229.40
897.10	229.60
897.40	229.58
897.71	229.64
898.01	229.60
898.32	229.60
898.63	229.71
898.93	229.75
899.24	229.76
899.54	229.81
899.85	229.73
900.15	229.71
900.46	229.63
900.76	229.72
901.07	229.70
901.38	229.59
901.68	229.60
901.99	229.49
902.29	229.35
902.60	229.27
902.90	229.22
903.21	229.14
903.51	228.98
903.82	228.99
904.12	228.90
904.43	228.91
904.73	228.87
905.03	228.80
905.34	228.94
905.64	228.87
905.95	228.89
906.25	228.82
906.56	228.73
906.86	228.72
907.17	228.70
907.47	228.76
907.77	228.78
908.08	228.79
908.38	228.67
908.69	228.69
908.99	228.71
909.30	228.80
909.60	228.79
909.90	228.65
910.21	228.53
910.51	228.45
910.81	228.39
911.12	228.34
911.42	228.32
911.73	228.02
912.03	227.97
912.33	227.90
912.64	227.90
912.94	227.91
913.24	227.92
913.55	227.80
913.85	227.75
914.15	227.74
914.46	227.67
914.76	227.65
915.06	227.64
915.37	227.57
915.67	227.51
915.97	227.40
916.27	227.45
916.58	227.44
916.88	227.50
917.18	227.49
917.49	227.63
917.79	227.61
918.09	227.69
918.39	227.80
918.70	227.83
919.00	227.81
919.30	227.90
919.60	227.92
919.91	227.96
920.21	228.09
920.51	228.00
920.81	227.98
921.12	228.14
921.42	228.12
921.72	228.14
922.02	228.13
922.32	228.24
922.63	228.32
922.93	228.51
923.23	228.55
923.53	228.57
923.83	228.48
924.13	228.44
924.44	228.47
924.74	228.50
925.04	228.52
925.34	228.59
925.64	228.55
925.94	228.54
926.24	228.74
926.55	228.60
926.85	228.71
927.15	228.76
927.45	228.71
927.75	228.70
928.05	228.80
928.35	228.83
928.65	228.89
928.95	228.92
929.26	228.75
929.56	228.80
929.86	228.83
930.16	228.90
930.46	228.98
930.76	228.98
931.06	228.90
931.36	228.82
931.66	228.86
931.96	228.87
932.26	228.94
932.56	228.75
932.86	228.78
933.16	228.68
933.46	228.71
933.76	228.62
934.06	228.72
934.36	228.78
934.66	228.72
934.96	228.68
935.26	228.69
935.56	228.77
935.86	228.70
936.16	228.60
936.46	228.54
936.76	228.53
937.06	228.51
937.36	228.48
937.66	228.54
937.96	228.51
938.26	228.40
938.56	228.26
938.86	228.27
939.16	228.30
939.46	228.30
939.76	228.33
940.06	228.43
940.35	228.37
940.65	228.22
940.95	228.22
941.25	228.13
941.55	228.06
941.85	228.04
942.15	228.12
942.45	228.18
942.75	228.20
943.04	228.18
943.34	228.26
943.64	228.20
943.94	228.09
944.24	228.08
944.54	228.13
944.84	228.03
945.13	227.99
945.43	227.83
945.73	227.83
946.03	227.67
946.33	227.72
946.62	227.68
946.92	227.71
947.22	227.73
947.52	227.67
947.82	227.70
948.11	227.68
948.41	227.59
948.71	227.43
949.01	227.26
949.31	227.30
949.60	227.19
949.90	227.13
950.20	227.21
950.50	227.12
950.79	227.13
951.09	227.30
951.39	227.33
951.69	227.43
951.98	227.50
952.28	227.45
952.58	227.28
952.87	227.28
953.17	227.29
953.47	227.24
953.76	227.30
954.06	227.27
954.36	227.22
954.66	227.13
954.95	227.30
955.25	227.46
955.55	227.55
955.84	227.51
956.14	227.60
956.44	227.64
956.73	227.69
957.03	227.72
957.32	227.75
957.62	227.71
957.92	227.69
958.21	227.73
958.51	228.08
958.81	228.13
959.10	228.05
959.40	228.10
959.69	228.17
959.99	228.29
960.29	228.31
960.58	228.34
960.88	228.50
961.17	228.44
961.47	228.55
961.76	228.44
962.06	228.57
962.36	228.58
962.65	228.60
962.95	228.62
963.24	228.60
963.54	228.57
963.83	228.62
964.13	228.76
964.42	228.61
964.72	228.56
965.01	228.50
965.31	228.65
965.60	228.65
965.90	228.73
966.19	228.57
966.49	228.58
966.78	228.66
967.08	228.63
967.37	228.61
967.67	228.49
967.96	228.56
968.26	228.53
968.55	228.54
968.85	228.45
969.14	228.46
969.43	228.37
969.73	228.41
970.02	228.37
970.32	228.22
970.61	228.21
970.91	227.98
971.20	228.08
971.49	228.06
971.79	228.00
972.08	227.98
972.38	228.03
972.67	227.99
972.96	227.94
973.26	227.92
973.55	227.99
973.85	227.95
974.14	227.85
974.43	227.82
974.73	227.83
975.02	227.85
975.31	227.83
975.61	227.83
975.90	227.83
976.19	227.84
976.49	227.94
976.78	228.00
977.07	228.15
977.37	228.06
977.66	228.06
977.95	228.01
978.24	227.97
978.54	227.90
978.83	227.94
979.12	227.93
979.42	227.87
979.71	227.84
980.00	227.82
980.29	227.80
980.59	227.77
980.88	227.81
981.17	227.80
981.46	227.80
981.76	227.78
982.05	227.82
982.34	227.79
982.63	227.78
982.93	227.83
983.22	227.74
983.51	227.79
983.80	227.81
984.09	227.87
984.39	227.83
984.68	227.85
984.97	227.92
985.26	227.92
985.55	227.98
985.85	227.99
986.14	228.08
986.43	228.16
986.72	228.19
987.01	228.13
987.30	228.20
987.59	228.19
987.89	228.28
988.18	228.20
988.47	228.31
988.76	228.22
989.05	228.25
989.34	228.23
989.63	228.37
989.92	228.30
990.22	228.30
990.51	228.29
990.80	228.36
991.09	228.32
991.38	228.25
991.67	228.31
991.96	228.31
992.25	228.30
992.54	228.27
992.83	228.29
993.12	228.28
993.41	228.31
993.70	228.38
993.99	228.47
994.28	228.49
994.58	228.42
994.87	228.49
995.16	228.48
995.45	228.56
995.74	228.40
996.03	228.47
996.32	228.54
996.61	228.62
996.90	228.69
997.19	228.67
997.48	228.80
997.77	228.71
998.06	228.69
998.34	228.70
998.63	228.71
998.92	228.72
999.21	228.80
999.50	228.83
999.79	228.77
1000.08	228.63
1000.37	228.64
1000.66	228.63
1000.95	228.70
1001.24	228.71
1001.53	228.65
1001.82	228.71
1002.11	228.68
1002.40	228.69
1002.68	228.79
1002.97	228.87
1003.26	228.84
1003.55	228.82
1003.84	228.87
1004.13	228.98
1004.42	228.98
1004.71	228.98
1004.99	229.03
1005.28	229.06
1005.57	228.97
1005.86	228.94
1006.15	229.00
1006.44	228.99
1006.72	229.00
1007.01	228.97
1007.30	228.92
1007.59	228.95
1007.88	228.87
1008.17	228.84
1008.45	228.76
1008.74	228.60
1009.03	228.54
1009.32	228.54
1009.60	228.50
1009.89	228.41
1010.18	228.33
1010.47	228.32
1010.76	228.35
1011.04	228.28
1011.33	228.20
1011.62	228.21
1011.91	228.25
1012.19	228.28
1012.48	228.25
1012.77	228.20
1013.05	228.27
1013.34	228.21
1013.63	228.13
1013.92	228.20
1014.20	228.19
1014.49	228.10
1014.78	228.10
1015.06	227.99
1015.35	227.88
1015.64	227.90
1015.92	227.91
1016.21	227.82
1016.50	227.64
1016.78	227.60
1017.07	227.51
1017.36	227.47
1017.64	227.47
1017.93	227.43
1018.22	227.44
1018.50	227.42
1018.79	227.46
1019.08	227.37
1019.36	227.35
1019.65	227.39
1019.93	227.38
1020.22	227.42
1020.51	227.54
1020.79	227.50
1021.08	228.70
1021.36	227.10
1021.65	228.30
1021.94	228.40
1022.22	226.50
1022.51	227.70
1022.79	228.20
1023.08	228.10
1023.36	229.10
1023.65	227.00
>>>>>End Processed Spectral Data<<<<<
