SpectraSuite Data File
++++++++++++++++++++++++++++++++++++
Date: Fri Feb 01 14:41:37 EST 2013
User: group
Dark Spectrum Present: No
Reference Spectrum Present: No
Number of Sampled Component Spectra: 1
Spectrometers: USB2E7196
Integration Time (usec): 70000 (USB2E7196)
Spectra Averaged: 10 (USB2E7196)
Boxcar Smoothing: 10 (USB2E7196)
Correct for Electrical Dark: No (USB2E7196)
Strobe/Lamp Enabled: No (USB2E7196)
Correct for Detector Non-linearity: No (USB2E7196)
Correct for Stray Light: No (USB2E7196)
Number of Pixels in Processed Spectrum: 2048
>>>>>Begin Processed Spectral Data<<<<<
339.09	0.00
339.48	214.30
339.86	217.40
340.24	220.00
340.63	218.40
341.01	226.40
341.39	223.30
341.78	224.10
342.16	227.10
342.54	226.30
342.93	214.51
343.31	225.36
343.69	225.94
344.07	226.43
344.46	226.85
344.84	227.37
345.22	227.42
345.60	227.65
345.99	227.95
346.37	228.00
346.75	228.16
347.13	228.13
347.52	228.18
347.90	228.44
348.28	228.43
348.66	228.62
349.05	228.55
349.43	228.49
349.81	228.67
350.19	228.64
350.57	228.74
350.96	229.02
351.34	229.12
351.72	229.27
352.10	229.42
352.48	229.38
352.87	229.31
353.25	229.32
353.63	229.45
354.01	229.48
354.39	229.58
354.77	229.48
355.15	229.61
355.54	229.64
355.92	229.60
356.30	229.72
356.68	229.96
357.06	230.11
357.44	230.26
357.82	230.28
358.20	230.33
358.58	230.40
358.97	230.42
359.35	230.54
359.73	230.65
360.11	230.65
360.49	230.76
360.87	230.91
361.25	231.10
361.63	231.20
362.01	231.30
362.39	231.33
362.77	231.45
363.15	231.45
363.53	231.47
363.91	231.52
364.29	231.57
364.67	231.35
365.05	231.39
365.43	231.46
365.81	231.49
366.19	231.64
366.57	231.75
366.95	231.65
367.33	231.61
367.71	231.57
368.09	231.60
368.47	231.59
368.85	231.53
369.23	231.50
369.61	231.43
369.99	231.40
370.37	231.38
370.75	231.43
371.13	231.29
371.51	231.12
371.89	231.02
372.27	230.94
372.65	230.81
373.03	230.68
373.41	230.55
373.78	230.41
374.16	230.19
374.54	230.05
374.92	229.96
375.30	229.84
375.68	229.75
376.06	229.61
376.44	229.57
376.82	229.49
377.19	229.34
377.57	229.22
377.95	228.95
378.33	228.85
378.71	228.72
379.09	228.77
379.47	228.77
379.84	228.62
380.22	228.50
380.60	228.46
380.98	228.39
381.36	228.29
381.73	228.18
382.11	228.19
382.49	227.99
382.87	227.88
383.25	227.83
383.62	228.01
384.00	227.97
384.38	227.84
384.76	227.90
385.13	227.98
385.51	228.01
385.89	228.01
386.27	228.01
386.64	227.99
387.02	227.84
387.40	227.86
387.78	227.91
388.15	227.97
388.53	227.86
388.91	227.88
389.29	227.87
389.66	227.95
390.04	227.81
390.42	227.90
390.79	228.02
391.17	227.96
391.55	227.75
391.92	227.79
392.30	227.91
392.68	227.88
393.05	227.93
393.43	227.84
393.81	227.91
394.18	227.83
394.56	227.90
394.94	228.06
395.31	228.10
395.69	228.11
396.06	228.14
396.44	228.31
396.82	228.40
397.19	228.51
397.57	228.61
397.95	228.72
398.32	228.71
398.70	228.80
399.07	229.01
399.45	229.08
399.82	229.14
400.20	229.23
400.58	229.33
400.95	229.44
401.33	229.57
401.70	229.85
402.08	230.03
402.45	230.15
402.83	230.40
403.20	230.63
403.58	230.81
403.95	231.04
404.33	231.19
404.71	231.34
405.08	231.65
405.46	231.75
405.83	232.06
406.21	232.29
406.58	232.49
406.96	232.66
407.33	232.88
407.70	233.20
408.08	233.56
408.45	233.86
408.83	234.10
409.20	234.47
409.58	234.60
409.95	234.92
410.33	235.30
410.70	235.50
411.08	235.81
411.45	236.17
411.82	236.55
412.20	236.93
412.57	237.61
412.95	237.79
413.32	238.36
413.69	238.88
414.07	239.56
414.44	240.11
414.82	240.80
415.19	241.54
415.56	242.16
415.94	242.86
416.31	243.78
416.68	244.47
417.06	245.30
417.43	246.24
417.81	247.26
418.18	248.34
418.55	249.30
418.93	250.44
419.30	251.63
419.67	252.84
420.04	254.09
420.42	255.17
420.79	256.90
421.16	258.56
421.54	260.15
421.91	261.63
422.28	263.39
422.66	265.11
423.03	266.87
423.40	268.62
423.77	270.50
424.15	272.30
424.52	274.38
424.89	276.58
425.26	278.69
425.64	280.58
426.01	282.67
426.38	285.06
426.75	287.30
427.13	289.63
427.50	292.07
427.87	294.66
428.24	297.29
428.61	299.66
428.99	302.19
429.36	305.01
429.73	307.81
430.10	310.40
430.47	313.04
430.85	315.82
431.22	318.98
431.59	322.14
431.96	324.97
432.33	328.21
432.70	331.30
433.08	335.04
433.45	338.61
433.82	341.91
434.19	345.70
434.56	349.52
434.93	353.10
435.30	356.43
435.68	360.18
436.05	363.84
436.42	367.47
436.79	370.76
437.16	374.15
437.53	377.94
437.90	381.75
438.27	385.40
438.64	389.18
439.01	392.60
439.38	395.63
439.75	398.62
440.13	401.89
440.50	404.90
440.87	407.22
441.24	409.73
441.61	412.59
441.98	414.54
442.35	416.69
442.72	419.02
443.09	421.57
443.46	422.94
443.83	423.76
444.20	424.31
444.57	425.36
444.94	425.77
445.31	426.08
445.68	426.56
446.05	426.69
446.42	426.01
446.79	425.22
447.16	424.50
447.53	424.06
447.90	422.68
448.27	421.18
448.64	419.19
449.01	417.69
449.37	415.18
449.74	412.67
450.11	409.83
450.48	406.40
450.85	402.91
451.22	399.96
451.59	397.31
451.96	394.75
452.33	391.29
452.70	388.12
453.07	384.40
453.43	380.44
453.80	376.85
454.17	373.44
454.54	370.20
454.91	366.60
455.28	363.06
455.65	359.59
456.02	356.55
456.38	353.71
456.75	350.19
457.12	347.08
457.49	343.92
457.86	341.01
458.23	338.65
458.59	335.93
458.96	333.16
459.33	330.55
459.70	328.13
460.07	326.10
460.43	323.86
460.80	321.67
461.17	319.71
461.54	317.66
461.91	315.68
462.27	313.66
462.64	311.90
463.01	310.00
463.38	308.32
463.74	306.30
464.11	304.60
464.48	303.12
464.85	301.74
465.21	300.65
465.58	299.31
465.95	297.86
466.32	296.68
466.68	295.37
467.05	294.08
467.42	292.81
467.78	291.43
468.15	290.19
468.52	289.18
468.88	287.96
469.25	286.81
469.62	286.00
469.98	285.05
470.35	284.12
470.72	283.27
471.08	282.27
471.45	281.42
471.82	280.61
472.18	279.78
472.55	279.00
472.92	278.27
473.28	277.58
473.65	276.69
474.02	276.11
474.38	275.64
474.75	275.10
475.11	274.57
475.48	274.18
475.85	273.80
476.21	273.43
476.58	273.12
476.94	272.75
477.31	272.32
477.67	271.99
478.04	271.73
478.41	271.54
478.77	271.54
479.14	271.43
479.50	271.20
479.87	271.13
480.23	271.10
480.60	270.91
480.96	270.94
481.33	271.16
481.69	271.15
482.06	271.25
482.42	271.43
482.79	271.57
483.15	271.80
483.52	272.13
483.88	272.36
484.25	272.49
484.61	272.73
484.98	273.07
485.34	273.49
485.71	273.92
486.07	274.36
486.44	274.68
486.80	275.21
487.17	275.72
487.53	276.46
487.90	277.22
488.26	278.22
488.62	279.09
488.99	279.99
489.35	280.94
489.72	282.00
490.08	283.14
490.44	284.28
490.81	285.56
491.17	286.71
491.54	288.24
491.90	289.89
492.26	291.64
492.63	293.35
492.99	295.23
493.36	297.17
493.72	299.32
494.08	301.52
494.45	303.90
494.81	306.81
495.17	309.16
495.54	311.91
495.90	314.63
496.26	317.51
496.63	320.66
496.99	323.88
497.35	327.36
497.72	331.07
498.08	334.90
498.44	338.91
498.80	343.17
499.17	347.48
499.53	352.04
499.89	356.74
500.26	361.74
500.62	366.72
500.98	372.31
501.34	377.93
501.71	383.81
502.07	389.66
502.43	395.72
502.79	402.51
503.16	409.10
503.52	416.08
503.88	423.29
504.24	430.75
504.60	438.51
504.97	446.48
505.33	454.66
505.69	463.38
506.05	472.22
506.41	481.21
506.78	490.54
507.14	500.13
507.50	510.33
507.86	520.69
508.22	531.48
508.59	542.11
508.95	553.03
509.31	564.62
509.67	576.60
510.03	588.85
510.39	600.96
510.75	613.95
511.12	627.03
511.48	640.33
511.84	653.79
512.20	667.42
512.56	681.61
512.92	696.12
513.28	710.66
513.64	725.65
514.00	741.21
514.37	757.10
514.73	773.14
515.09	788.79
515.45	804.90
515.81	821.29
516.17	838.31
516.53	855.47
516.89	872.73
517.25	890.30
517.61	908.00
517.97	925.86
518.33	943.62
518.69	961.90
519.05	980.67
519.41	999.80
519.77	1019.35
520.13	1038.97
520.49	1058.38
520.85	1078.05
521.21	1097.64
521.57	1117.82
521.93	1137.40
522.29	1157.67
522.65	1177.78
523.01	1198.20
523.37	1218.31
523.73	1238.64
524.09	1259.16
524.45	1279.90
524.81	1301.12
525.17	1322.49
525.53	1344.32
525.89	1365.93
526.25	1387.52
526.61	1408.53
526.97	1430.30
527.33	1451.60
527.68	1473.01
528.04	1494.53
528.40	1515.89
528.76	1538.07
529.12	1559.82
529.48	1581.65
529.84	1602.96
530.20	1625.40
530.56	1648.08
530.91	1670.99
531.27	1693.54
531.63	1715.64
531.99	1737.41
532.35	1758.50
532.71	1779.37
533.07	1800.57
533.42	1822.00
533.78	1842.88
534.14	1864.89
534.50	1884.77
534.86	1906.07
535.21	1926.38
535.57	1947.65
535.93	1968.95
536.29	1989.63
536.65	2009.89
537.00	2030.20
537.36	2050.90
537.72	2070.53
538.08	2089.35
538.44	2107.91
538.79	2127.07
539.15	2145.73
539.51	2164.85
539.87	2184.37
540.22	2203.26
540.58	2222.72
540.94	2241.05
541.29	2259.12
541.65	2276.57
542.01	2295.63
542.37	2313.07
542.72	2330.57
543.08	2346.88
543.44	2363.48
543.79	2378.58
544.15	2394.70
544.51	2411.22
544.87	2426.68
545.22	2442.10
545.58	2457.50
545.94	2472.19
546.29	2486.12
546.65	2500.39
547.01	2514.34
547.36	2527.51
547.72	2540.17
548.07	2552.00
548.43	2564.42
548.79	2577.48
549.14	2588.98
549.50	2599.62
549.86	2610.71
550.21	2621.21
550.57	2632.79
550.92	2643.51
551.28	2654.29
551.64	2663.86
551.99	2673.55
552.35	2683.48
552.70	2693.34
553.06	2702.79
553.41	2712.80
553.77	2722.30
554.13	2732.10
554.48	2740.78
554.84	2748.84
555.19	2757.53
555.55	2766.06
555.90	2773.28
556.26	2780.84
556.61	2788.86
556.97	2796.21
557.32	2803.28
557.68	2810.89
558.03	2817.78
558.39	2824.70
558.74	2832.60
559.10	2840.03
559.45	2846.49
559.81	2853.90
560.16	2859.52
560.52	2865.40
560.87	2870.90
561.23	2875.77
561.58	2880.60
561.94	2885.40
562.29	2890.29
562.64	2894.58
563.00	2898.76
563.35	2904.49
563.71	2909.69
564.06	2914.56
564.42	2918.79
564.77	2923.13
565.12	2927.43
565.48	2931.01
565.83	2933.37
566.19	2935.80
566.54	2937.90
566.89	2940.36
567.25	2942.10
567.60	2944.86
567.96	2946.79
568.31	2948.56
568.66	2950.54
569.02	2951.90
569.37	2952.36
569.72	2953.50
570.08	2954.14
570.43	2954.45
570.78	2954.24
571.14	2952.67
571.49	2952.29
571.84	2952.82
572.20	2951.60
572.55	2950.23
572.90	2948.33
573.26	2947.50
573.61	2945.78
573.96	2943.93
574.31	2940.57
574.67	2936.21
575.02	2932.42
575.37	2929.41
575.72	2925.00
576.08	2921.05
576.43	2917.25
576.78	2914.03
577.13	2910.47
577.49	2906.83
577.84	2902.37
578.19	2897.46
578.54	2892.26
578.90	2886.30
579.25	2879.80
579.60	2873.85
579.95	2867.65
580.30	2861.10
580.66	2854.66
581.01	2848.20
581.36	2842.40
581.71	2837.35
582.06	2832.09
582.42	2825.76
582.77	2818.53
583.12	2812.28
583.47	2806.41
583.82	2800.30
584.17	2793.58
584.53	2787.20
584.88	2780.97
585.23	2774.14
585.58	2767.82
585.93	2761.85
586.28	2755.62
586.63	2749.54
586.98	2743.40
587.34	2737.35
587.69	2731.30
588.04	2724.67
588.39	2717.43
588.74	2708.94
589.09	2700.50
589.44	2691.88
589.79	2684.88
590.14	2678.20
590.49	2670.84
590.84	2662.52
591.19	2654.59
591.54	2645.16
591.89	2634.74
592.25	2625.95
592.60	2616.84
592.95	2607.32
593.30	2597.98
593.65	2588.53
594.00	2578.91
594.35	2570.34
594.70	2559.70
595.05	2550.47
595.40	2540.89
595.75	2531.21
596.10	2522.98
596.45	2515.18
596.80	2507.78
597.15	2499.01
597.50	2490.09
597.85	2481.54
598.19	2472.99
598.54	2463.78
598.89	2456.18
599.24	2449.43
599.59	2440.72
599.94	2432.71
600.29	2424.01
600.64	2415.60
600.99	2406.11
601.34	2397.54
601.69	2388.00
602.04	2380.16
602.39	2371.03
602.74	2362.75
603.08	2355.23
603.43	2346.59
603.78	2337.01
604.13	2327.21
604.48	2317.79
604.83	2308.53
605.18	2299.43
605.53	2289.46
605.87	2279.20
606.22	2270.17
606.57	2259.91
606.92	2250.40
607.27	2241.38
607.62	2232.63
607.96	2223.23
608.31	2214.96
608.66	2205.18
609.01	2195.21
609.36	2184.65
609.70	2173.94
610.05	2162.88
610.40	2152.20
610.75	2141.45
611.10	2130.81
611.44	2119.49
611.79	2109.40
612.14	2098.50
612.49	2086.81
612.83	2075.99
613.18	2065.46
613.53	2054.31
613.88	2043.17
614.22	2032.05
614.57	2020.58
614.92	2009.33
615.27	1998.62
615.61	1987.03
615.96	1976.38
616.31	1966.36
616.65	1956.98
617.00	1947.40
617.35	1937.73
617.70	1926.83
618.04	1916.09
618.39	1906.07
618.74	1896.39
619.08	1885.39
619.43	1875.43
619.78	1866.23
620.12	1856.51
620.47	1846.64
620.82	1836.29
621.16	1826.14
621.51	1816.15
621.85	1806.27
622.20	1795.84
622.55	1785.68
622.89	1776.63
623.24	1766.91
623.59	1757.15
623.93	1746.94
624.28	1737.18
624.62	1726.90
624.97	1717.56
625.32	1708.60
625.66	1699.30
626.01	1689.90
626.35	1680.34
626.70	1670.98
627.04	1661.20
627.39	1651.11
627.73	1641.54
628.08	1632.19
628.43	1622.70
628.77	1613.17
629.12	1603.21
629.46	1593.45
629.81	1583.17
630.15	1572.20
630.50	1562.10
630.84	1551.40
631.19	1540.72
631.53	1530.59
631.88	1520.60
632.22	1510.06
632.57	1500.14
632.91	1489.57
633.26	1479.60
633.60	1469.55
633.95	1459.25
634.29	1449.65
634.64	1440.88
634.98	1431.13
635.32	1422.07
635.67	1413.52
636.01	1404.55
636.36	1395.66
636.70	1387.17
637.05	1378.95
637.39	1370.76
637.73	1362.18
638.08	1354.65
638.42	1346.92
638.77	1338.66
639.11	1330.04
639.45	1322.22
639.80	1313.37
640.14	1304.94
640.49	1296.43
640.83	1288.16
641.17	1279.82
641.52	1271.28
641.86	1262.37
642.20	1254.54
642.55	1245.88
642.89	1237.29
643.23	1228.60
643.58	1220.51
643.92	1211.80
644.26	1203.00
644.61	1194.86
644.95	1186.80
645.29	1177.33
645.64	1168.27
645.98	1159.81
646.32	1151.86
646.66	1143.35
647.01	1135.26
647.35	1127.41
647.69	1119.58
648.04	1112.24
648.38	1104.17
648.72	1095.81
649.06	1087.51
649.41	1079.30
649.75	1070.96
650.09	1062.79
650.43	1055.06
650.78	1046.54
651.12	1038.70
651.46	1030.93
651.80	1023.14
652.14	1015.33
652.49	1008.24
652.83	1001.19
653.17	993.43
653.51	985.69
653.85	978.03
654.20	970.44
654.54	962.43
654.88	954.52
655.22	946.09
655.56	938.26
655.90	931.05
656.25	923.90
656.59	916.65
656.93	910.00
657.27	903.06
657.61	895.39
657.95	888.88
658.29	882.05
658.64	875.12
658.98	868.05
659.32	860.88
659.66	853.82
660.00	846.83
660.34	840.09
660.68	833.52
661.02	827.07
661.36	820.67
661.70	814.87
662.05	808.86
662.39	803.21
662.73	797.47
663.07	791.66
663.41	786.06
663.75	780.23
664.09	774.01
664.43	767.91
664.77	762.41
665.11	756.56
665.45	751.05
665.79	745.65
666.13	740.01
666.47	734.44
666.81	728.82
667.15	723.25
667.49	717.99
667.83	712.87
668.17	707.50
668.51	702.18
668.85	696.62
669.19	691.64
669.53	686.42
669.87	681.19
670.21	676.19
670.55	671.34
670.89	666.45
671.23	661.90
671.57	657.33
671.91	652.70
672.25	648.05
672.58	643.52
672.92	638.78
673.26	634.62
673.60	630.49
673.94	626.40
674.28	622.40
674.62	618.50
674.96	614.11
675.30	610.38
675.64	606.56
675.97	602.95
676.31	599.00
676.65	595.03
676.99	591.53
677.33	587.59
677.67	583.52
678.01	579.63
678.34	575.99
678.68	572.21
679.02	568.67
679.36	565.13
679.70	561.42
680.04	557.92
680.37	553.99
680.71	550.29
681.05	546.96
681.39	543.74
681.73	540.32
682.06	537.28
682.40	534.05
682.74	530.73
683.08	527.33
683.42	523.99
683.75	520.98
684.09	517.43
684.43	514.25
684.77	511.17
685.10	508.18
685.44	504.82
685.78	501.76
686.12	498.71
686.45	495.50
686.79	492.47
687.13	489.51
687.46	486.64
687.80	483.76
688.14	480.42
688.48	477.43
688.81	474.29
689.15	471.34
689.49	468.24
689.82	465.35
690.16	462.58
690.50	459.89
690.83	457.15
691.17	454.40
691.51	451.80
691.84	449.27
692.18	446.38
692.52	443.70
692.85	441.06
693.19	438.48
693.52	435.96
693.86	433.36
694.20	431.00
694.53	428.48
694.87	425.94
695.21	423.68
695.54	421.18
695.88	418.92
696.21	416.48
696.55	414.19
696.88	411.80
697.22	409.33
697.56	407.05
697.89	404.69
698.23	402.54
698.56	400.30
698.90	398.00
699.23	395.77
699.57	393.75
699.90	391.73
700.24	389.49
700.58	387.42
700.91	385.52
701.25	383.63
701.58	381.90
701.92	380.09
702.25	378.23
702.59	376.31
702.92	374.43
703.26	372.67
703.59	370.85
703.93	369.37
704.26	367.85
704.60	366.07
704.93	364.24
705.26	362.45
705.60	360.81
705.93	359.34
706.27	358.13
706.60	356.52
706.94	355.00
707.27	353.48
707.61	351.95
707.94	350.45
708.27	348.77
708.61	347.20
708.94	345.82
709.28	344.40
709.61	343.03
709.94	341.74
710.28	340.43
710.61	339.15
710.95	337.60
711.28	336.37
711.61	335.18
711.95	334.01
712.28	332.89
712.61	331.63
712.95	330.35
713.28	328.93
713.61	327.69
713.95	326.36
714.28	325.35
714.61	324.21
714.95	322.96
715.28	321.68
715.61	320.50
715.95	319.33
716.28	318.25
716.61	317.30
716.95	316.27
717.28	315.16
717.61	314.10
717.94	313.11
718.28	311.87
718.61	310.81
718.94	309.94
719.27	308.94
719.61	308.18
719.94	307.21
720.27	306.34
720.60	305.46
720.94	304.56
721.27	303.61
721.60	302.81
721.93	302.02
722.27	301.36
722.60	300.55
722.93	299.74
723.26	298.84
723.59	297.89
723.93	297.03
724.26	296.18
724.59	295.41
724.92	294.68
725.25	293.92
725.59	293.22
725.92	292.45
726.25	291.69
726.58	290.88
726.91	290.29
727.24	289.55
727.57	288.90
727.91	288.28
728.24	287.71
728.57	287.03
728.90	286.28
729.23	285.64
729.56	285.16
729.89	284.48
730.22	283.94
730.55	283.48
730.89	282.78
731.22	282.28
731.55	281.54
731.88	280.90
732.21	280.41
732.54	279.77
732.87	279.21
733.20	278.68
733.53	278.05
733.86	277.42
734.19	276.89
734.52	276.33
734.85	275.88
735.18	275.26
735.51	274.66
735.84	274.19
736.17	273.69
736.50	273.13
736.83	272.88
737.16	272.31
737.49	271.75
737.82	271.30
738.15	270.71
738.48	270.31
738.81	269.80
739.14	269.26
739.47	268.79
739.80	268.21
740.13	267.74
740.46	267.20
740.79	266.76
741.12	266.14
741.45	265.71
741.78	265.23
742.11	264.79
742.44	264.20
742.77	263.88
743.10	263.46
743.43	262.93
743.75	262.35
744.08	262.21
744.41	261.73
744.74	261.31
745.07	260.97
745.40	260.57
745.73	260.28
746.06	259.91
746.39	259.51
746.71	259.19
747.04	258.76
747.37	258.39
747.70	257.95
748.03	257.70
748.36	257.23
748.68	256.81
749.01	256.38
749.34	256.24
749.67	255.97
750.00	255.63
750.33	255.42
750.65	255.06
750.98	254.50
751.31	254.29
751.64	253.95
751.97	253.72
752.29	253.36
752.62	253.01
752.95	252.76
753.28	252.34
753.60	252.02
753.93	251.86
754.26	251.66
754.59	251.36
754.91	251.18
755.24	251.06
755.57	250.90
755.90	250.69
756.22	250.42
756.55	250.08
756.88	249.82
757.20	249.41
757.53	249.14
757.86	248.92
758.19	248.71
758.51	248.59
758.84	248.32
759.17	248.08
759.49	247.86
759.82	247.74
760.15	247.63
760.47	247.54
760.80	247.28
761.13	247.11
761.45	246.98
761.78	246.78
762.11	246.49
762.43	246.22
762.76	246.09
763.08	245.95
763.41	245.77
763.74	245.58
764.06	245.55
764.39	245.30
764.71	245.20
765.04	244.91
765.37	244.69
765.69	244.48
766.02	244.42
766.34	244.24
766.67	243.97
767.00	243.88
767.32	243.77
767.65	243.76
767.97	243.60
768.30	243.45
768.62	243.25
768.95	243.19
769.27	243.05
769.60	242.84
769.92	242.64
770.25	242.38
770.57	242.11
770.90	241.82
771.22	241.77
771.55	241.53
771.87	241.48
772.20	241.30
772.52	241.35
772.85	241.37
773.17	241.23
773.50	241.13
773.82	241.01
774.15	240.75
774.47	240.43
774.80	240.21
775.12	240.00
775.45	239.89
775.77	239.70
776.09	239.54
776.42	239.47
776.74	239.36
777.07	239.25
777.39	239.08
777.72	238.95
778.04	238.78
778.36	238.75
778.69	238.53
779.01	238.45
779.33	238.19
779.66	237.91
779.98	237.69
780.31	237.59
780.63	237.50
780.95	237.42
781.28	237.31
781.60	237.15
781.92	236.96
782.25	236.79
782.57	236.70
782.89	236.49
783.22	236.33
783.54	236.13
783.86	235.98
784.19	235.98
784.51	235.94
784.83	235.74
785.16	235.57
785.48	235.47
785.80	235.30
786.12	235.13
786.45	234.94
786.77	234.93
787.09	234.81
787.42	234.63
787.74	234.50
788.06	234.57
788.38	234.57
788.71	234.54
789.03	234.48
789.35	234.38
789.67	234.33
789.99	234.25
790.32	234.28
790.64	234.38
790.96	234.40
791.28	234.22
791.61	234.14
791.93	234.05
792.25	234.02
792.57	234.19
792.89	234.03
793.21	234.13
793.54	233.97
793.86	233.90
794.18	233.93
794.50	233.90
794.82	233.72
795.14	233.66
795.47	233.66
795.79	233.70
796.11	233.64
796.43	233.70
796.75	233.58
797.07	233.41
797.39	233.31
797.71	233.15
798.04	233.19
798.36	233.32
798.68	233.32
799.00	233.34
799.32	233.27
799.64	233.43
799.96	233.34
800.28	233.39
800.60	233.32
800.92	233.29
801.24	233.20
801.56	233.19
801.89	233.13
802.21	233.10
802.53	233.10
802.85	233.18
803.17	233.23
803.49	233.30
803.81	233.31
804.13	233.28
804.45	233.35
804.77	233.33
805.09	233.21
805.41	233.15
805.73	233.06
806.05	233.00
806.37	232.90
806.69	232.89
807.01	232.99
807.33	233.10
807.65	232.90
807.97	233.04
808.28	233.05
808.60	233.13
808.92	233.16
809.24	233.24
809.56	233.12
809.88	233.10
810.20	233.13
810.52	233.21
810.84	233.26
811.16	233.20
811.48	233.08
811.80	233.19
812.12	233.25
812.43	233.35
812.75	233.29
813.07	233.17
813.39	233.10
813.71	232.99
814.03	232.87
814.35	232.91
814.67	232.84
814.98	232.68
815.30	232.54
815.62	232.36
815.94	232.10
816.26	232.16
816.58	231.88
816.89	231.76
817.21	231.54
817.53	231.46
817.85	231.41
818.17	231.36
818.48	231.31
818.80	231.27
819.12	231.09
819.44	231.00
819.76	231.07
820.07	231.00
820.39	231.00
820.71	231.03
821.03	230.92
821.34	230.83
821.66	230.78
821.98	230.80
822.30	230.83
822.61	230.89
822.93	230.75
823.25	230.83
823.57	230.76
823.88	230.89
824.20	230.78
824.52	230.73
824.83	230.72
825.15	230.53
825.47	230.52
825.79	230.46
826.10	230.34
826.42	230.26
826.74	230.30
827.05	230.15
827.37	230.01
827.69	230.03
828.00	229.94
828.32	229.90
828.64	229.88
828.95	229.93
829.27	229.82
829.58	229.72
829.90	229.74
830.22	229.73
830.53	229.68
830.85	229.66
831.17	229.52
831.48	229.51
831.80	229.59
832.11	229.50
832.43	229.43
832.75	229.46
833.06	229.53
833.38	229.49
833.69	229.41
834.01	229.48
834.32	229.46
834.64	229.45
834.96	229.49
835.27	229.47
835.59	229.41
835.90	229.41
836.22	229.48
836.53	229.49
836.85	229.52
837.16	229.64
837.48	229.65
837.79	229.67
838.11	229.70
838.42	229.69
838.74	229.66
839.05	229.80
839.37	229.75
839.68	229.55
840.00	229.55
840.31	229.68
840.63	229.65
840.94	229.69
841.26	229.66
841.57	229.69
841.88	229.67
842.20	229.59
842.51	229.54
842.83	229.50
843.14	229.60
843.46	229.57
843.77	229.49
844.08	229.50
844.40	229.59
844.71	229.61
845.03	229.53
845.34	229.51
845.65	229.46
845.97	229.54
846.28	229.64
846.60	229.66
846.91	229.60
847.22	229.65
847.54	229.65
847.85	229.69
848.16	229.66
848.48	229.63
848.79	229.77
849.10	229.88
849.42	230.01
849.73	229.76
850.04	229.87
850.36	229.89
850.67	229.91
850.98	229.95
851.30	229.93
851.61	230.02
851.92	230.13
852.23	230.24
852.55	230.24
852.86	230.25
853.17	230.28
853.49	230.29
853.80	230.24
854.11	230.23
854.42	230.27
854.74	230.24
855.05	230.19
855.36	230.10
855.67	230.10
855.99	229.91
856.30	230.32
856.61	230.26
856.92	230.22
857.23	230.25
857.55	230.10
857.86	230.12
858.17	230.15
858.48	230.06
858.79	229.99
859.11	229.95
859.42	229.89
859.73	229.80
860.04	229.83
860.35	229.85
860.66	229.77
860.98	229.81
861.29	229.83
861.60	229.92
861.91	229.85
862.22	229.78
862.53	229.92
862.84	229.58
863.16	229.56
863.47	229.44
863.78	229.37
864.09	229.44
864.40	229.47
864.71	229.40
865.02	229.41
865.33	229.42
865.64	229.43
865.95	229.45
866.27	229.51
866.58	229.52
866.89	229.41
867.20	229.35
867.51	229.14
867.82	229.18
868.13	229.25
868.44	229.38
868.75	229.31
869.06	229.25
869.37	229.30
869.68	229.23
869.99	229.29
870.30	229.39
870.61	229.24
870.92	229.17
871.23	229.06
871.54	229.06
871.85	228.98
872.16	228.93
872.47	228.86
872.78	228.80
873.09	228.75
873.40	228.70
873.71	228.76
874.02	228.83
874.33	228.73
874.64	228.60
874.95	228.48
875.26	228.46
875.56	228.44
875.87	228.48
876.18	228.51
876.49	228.60
876.80	228.40
877.11	228.54
877.42	228.52
877.73	228.51
878.04	228.49
878.35	228.51
878.66	228.60
878.96	228.72
879.27	228.67
879.58	228.62
879.89	228.63
880.20	228.75
880.51	228.77
880.82	228.82
881.12	228.75
881.43	228.81
881.74	228.81
882.05	228.80
882.36	228.70
882.67	228.65
882.97	228.44
883.28	228.55
883.59	228.53
883.90	228.54
884.21	228.56
884.51	228.59
884.82	228.59
885.13	228.49
885.44	228.42
885.74	228.49
886.05	228.59
886.36	228.59
886.67	228.51
886.98	228.62
887.28	228.62
887.59	228.68
887.90	228.71
888.20	228.77
888.51	228.89
888.82	228.83
889.13	228.97
889.43	229.22
889.74	229.26
890.05	229.28
890.35	229.25
890.66	229.29
890.97	229.26
891.28	229.22
891.58	229.29
891.89	229.31
892.20	229.27
892.50	229.23
892.81	229.31
893.12	229.28
893.42	229.21
893.73	229.26
894.04	229.30
894.34	229.32
894.65	229.34
894.95	229.33
895.26	229.36
895.57	229.48
895.87	229.30
896.18	229.31
896.48	229.41
896.79	229.44
897.10	229.52
897.40	229.51
897.71	229.50
898.01	229.55
898.32	229.67
898.63	229.70
898.93	229.70
899.24	229.75
899.54	229.86
899.85	229.91
900.15	229.88
900.46	229.92
900.76	229.99
901.07	229.90
901.38	229.90
901.68	230.00
901.99	229.83
902.29	229.89
902.60	229.86
902.90	229.73
903.21	229.80
903.51	229.79
903.82	229.81
904.12	229.92
904.43	229.90
904.73	229.76
905.03	229.80
905.34	229.98
905.64	229.80
905.95	229.74
906.25	229.64
906.56	229.60
906.86	229.53
907.17	229.43
907.47	229.43
907.77	229.34
908.08	229.30
908.38	229.20
908.69	229.21
908.99	229.10
909.30	229.00
909.60	228.96
909.90	228.88
910.21	228.83
910.51	228.70
910.81	228.58
911.12	228.57
911.42	228.50
911.73	228.20
912.03	228.16
912.33	228.02
912.64	228.00
912.94	228.00
913.24	228.00
913.55	227.83
913.85	227.82
914.15	227.85
914.46	227.79
914.76	227.71
915.06	227.58
915.37	227.50
915.67	227.66
915.97	227.57
916.27	227.51
916.58	227.50
916.88	227.49
917.18	227.54
917.49	227.68
917.79	227.67
918.09	227.70
918.39	227.79
918.70	227.86
919.00	227.85
919.30	227.88
919.60	227.80
919.91	227.88
920.21	227.80
920.51	227.70
920.81	227.74
921.12	227.88
921.42	227.88
921.72	227.99
922.02	227.86
922.32	227.92
922.63	227.97
922.93	228.03
923.23	228.01
923.53	228.05
923.83	227.89
924.13	227.91
924.44	227.94
924.74	228.04
925.04	228.10
925.34	228.16
925.64	228.13
925.94	228.18
926.24	228.33
926.55	228.51
926.85	228.57
927.15	228.49
927.45	228.43
927.75	228.50
928.05	228.54
928.35	228.59
928.65	228.54
928.95	228.58
929.26	228.53
929.56	228.62
929.86	228.60
930.16	228.56
930.46	228.50
930.76	228.53
931.06	228.44
931.36	228.43
931.66	228.44
931.96	228.46
932.26	228.49
932.56	228.29
932.86	228.22
933.16	228.28
933.46	228.28
933.76	228.29
934.06	228.30
934.36	228.39
934.66	228.45
934.96	228.51
935.26	228.47
935.56	228.51
935.86	228.44
936.16	228.32
936.46	228.37
936.76	228.38
937.06	228.40
937.36	228.55
937.66	228.60
937.96	228.58
938.26	228.46
938.56	228.45
938.86	228.55
939.16	228.53
939.46	228.49
939.76	228.54
940.06	228.58
940.35	228.66
940.65	228.57
940.95	228.53
941.25	228.51
941.55	228.58
941.85	228.61
942.15	228.62
942.45	228.72
942.75	228.78
943.04	228.74
943.34	228.82
943.64	228.60
943.94	228.52
944.24	228.56
944.54	228.64
944.84	228.59
945.13	228.67
945.43	228.66
945.73	228.73
946.03	228.63
946.33	228.54
946.62	228.45
946.92	228.40
947.22	228.37
947.52	228.29
947.82	228.37
948.11	228.25
948.41	228.20
948.71	228.18
949.01	228.13
949.31	228.13
949.60	227.96
949.90	228.08
950.20	228.08
950.50	227.99
950.79	227.91
951.09	227.98
951.39	227.91
951.69	227.86
951.98	227.80
952.28	227.85
952.58	227.91
952.87	227.96
953.17	228.01
953.47	228.03
953.76	228.08
954.06	227.90
954.36	227.95
954.66	227.90
954.95	228.03
955.25	228.04
955.55	228.06
955.84	227.99
956.14	227.96
956.44	228.01
956.73	227.98
957.03	228.00
957.32	227.96
957.62	227.95
957.92	228.02
958.21	227.94
958.51	228.13
958.81	228.13
959.10	228.05
959.40	228.05
959.69	227.94
959.99	228.02
960.29	228.09
960.58	228.13
960.88	228.30
961.17	228.18
961.47	228.18
961.76	228.20
962.06	228.26
962.36	228.20
962.65	228.12
962.95	228.16
963.24	228.18
963.54	228.21
963.83	228.18
964.13	228.20
964.42	228.27
964.72	228.21
965.01	228.23
965.31	228.25
965.60	228.29
965.90	228.47
966.19	228.38
966.49	228.39
966.78	228.32
967.08	228.30
967.37	228.43
967.67	228.47
967.96	228.53
968.26	228.62
968.55	228.70
968.85	228.75
969.14	228.81
969.43	228.80
969.73	228.81
970.02	229.00
970.32	228.96
970.61	228.94
970.91	228.92
971.20	228.88
971.49	228.87
971.79	228.82
972.08	228.71
972.38	228.73
972.67	228.77
972.96	228.89
973.26	228.95
973.55	229.02
973.85	228.92
974.14	228.91
974.43	229.00
974.73	229.00
975.02	229.01
975.31	229.02
975.61	229.07
975.90	229.09
976.19	228.83
976.49	228.85
976.78	228.87
977.07	228.79
977.37	228.92
977.66	228.86
977.95	228.91
978.24	228.97
978.54	229.01
978.83	228.92
979.12	228.81
979.42	228.77
979.71	228.58
980.00	228.60
980.29	228.53
980.59	228.50
980.88	228.60
981.17	228.57
981.46	228.55
981.76	228.53
982.05	228.55
982.34	228.62
982.63	228.59
982.93	228.57
983.22	228.65
983.51	228.50
983.80	228.62
984.09	228.60
984.39	228.53
984.68	228.45
984.97	228.49
985.26	228.49
985.55	228.45
985.85	228.46
986.14	228.52
986.43	228.54
986.72	228.42
987.01	228.20
987.30	228.24
987.59	228.15
987.89	228.19
988.18	228.14
988.47	228.10
988.76	228.10
989.05	228.03
989.34	227.96
989.63	228.04
989.92	227.96
990.22	227.92
990.51	227.92
990.80	227.93
991.09	227.95
991.38	227.92
991.67	227.88
991.96	227.88
992.25	227.90
992.54	227.91
992.83	227.90
993.12	227.90
993.41	227.87
993.70	227.96
993.99	227.90
994.28	227.81
994.58	227.86
994.87	227.81
995.16	227.86
995.45	227.81
995.74	227.67
996.03	227.66
996.32	227.80
996.61	227.81
996.90	227.83
997.19	227.79
997.48	227.85
997.77	227.79
998.06	227.77
998.34	227.65
998.63	227.64
998.92	227.62
999.21	227.70
999.50	227.73
999.79	227.67
1000.08	227.69
1000.37	227.70
1000.66	227.65
1000.95	227.79
1001.24	227.73
1001.53	227.78
1001.82	227.85
1002.11	227.90
1002.40	227.79
1002.68	227.85
1002.97	228.02
1003.26	228.04
1003.55	228.03
1003.84	228.12
1004.13	228.35
1004.42	228.39
1004.71	228.39
1004.99	228.49
1005.28	228.53
1005.57	228.45
1005.86	228.51
1006.15	228.50
1006.44	228.48
1006.72	228.47
1007.01	228.37
1007.30	228.44
1007.59	228.38
1007.88	228.40
1008.17	228.33
1008.45	228.28
1008.74	228.26
1009.03	228.10
1009.32	228.10
1009.60	228.08
1009.89	228.02
1010.18	227.84
1010.47	227.80
1010.76	227.81
1011.04	227.80
1011.33	227.81
1011.62	227.86
1011.91	227.87
1012.19	227.89
1012.48	228.00
1012.77	228.06
1013.05	228.23
1013.34	228.32
1013.63	228.47
1013.92	228.47
1014.20	228.47
1014.49	228.56
1014.78	228.47
1015.06	228.40
1015.35	228.43
1015.64	228.44
1015.92	228.58
1016.21	228.53
1016.50	228.56
1016.78	228.58
1017.07	228.58
1017.36	228.57
1017.64	228.57
1017.93	228.49
1018.22	228.53
1018.50	228.40
1018.79	228.42
1019.08	228.31
1019.36	228.25
1019.65	228.21
1019.93	228.28
1020.22	228.36
1020.51	228.42
1020.79	228.41
1021.08	228.80
1021.36	226.20
1021.65	229.00
1021.94	228.90
1022.22	228.70
1022.51	229.00
1022.79	229.40
1023.08	228.60
1023.36	230.80
1023.65	226.50
>>>>>End Processed Spectral Data<<<<<
