SpectraSuite Data File
++++++++++++++++++++++++++++++++++++
Date: Fri Feb 01 14:37:14 EST 2013
User: group
Dark Spectrum Present: No
Reference Spectrum Present: No
Number of Sampled Component Spectra: 1
Spectrometers: USB2E7196
Integration Time (usec): 70000 (USB2E7196)
Spectra Averaged: 10 (USB2E7196)
Boxcar Smoothing: 10 (USB2E7196)
Correct for Electrical Dark: No (USB2E7196)
Strobe/Lamp Enabled: No (USB2E7196)
Correct for Detector Non-linearity: No (USB2E7196)
Correct for Stray Light: No (USB2E7196)
Number of Pixels in Processed Spectrum: 2048
>>>>>Begin Processed Spectral Data<<<<<
339.09	0.00
339.48	215.60
339.86	215.60
340.24	219.20
340.63	219.60
341.01	225.60
341.39	221.30
341.78	224.90
342.16	224.70
342.54	225.10
342.93	214.38
343.31	225.21
343.69	225.73
344.07	226.33
344.46	226.76
344.84	227.10
345.22	227.34
345.60	227.62
345.99	227.75
346.37	227.88
346.75	228.05
347.13	228.12
347.52	228.10
347.90	228.16
348.28	228.26
348.66	228.32
349.05	228.17
349.43	228.12
349.81	228.20
350.19	228.33
350.57	228.34
350.96	228.36
351.34	228.43
351.72	228.51
352.10	228.56
352.48	228.55
352.87	228.67
353.25	228.50
353.63	228.63
354.01	228.65
354.39	228.74
354.77	228.73
355.15	228.83
355.54	228.92
355.92	228.88
356.30	228.84
356.68	229.00
357.06	229.05
357.44	229.15
357.82	229.25
358.20	229.32
358.58	229.38
358.97	229.41
359.35	229.50
359.73	229.69
360.11	229.73
360.49	229.80
360.87	229.86
361.25	229.98
361.63	230.03
362.01	230.09
362.39	230.17
362.77	230.18
363.15	230.14
363.53	230.20
363.91	230.34
364.29	230.38
364.67	230.20
365.05	230.29
365.43	230.28
365.81	230.23
366.19	230.19
366.57	230.32
366.95	230.43
367.33	230.31
367.71	230.21
368.09	230.16
368.47	230.23
368.85	230.22
369.23	230.27
369.61	230.15
369.99	230.20
370.37	230.07
370.75	230.17
371.13	230.10
371.51	229.91
371.89	229.77
372.27	229.82
372.65	229.77
373.03	229.70
373.41	229.67
373.78	229.57
374.16	229.55
374.54	229.43
374.92	229.26
375.30	229.20
375.68	229.09
376.06	228.99
376.44	228.82
376.82	228.77
377.19	228.64
377.57	228.55
377.95	228.48
378.33	228.48
378.71	228.28
379.09	228.25
379.47	228.25
379.84	228.14
380.22	227.99
380.60	227.87
380.98	227.69
381.36	227.53
381.73	227.37
382.11	227.24
382.49	227.10
382.87	227.02
383.25	226.92
383.62	227.04
384.00	227.02
384.38	226.94
384.76	226.90
385.13	226.99
385.51	227.00
385.89	226.86
386.27	226.75
386.64	226.71
387.02	226.66
387.40	226.56
387.78	226.53
388.15	226.46
388.53	226.42
388.91	226.48
389.29	226.44
389.66	226.53
390.04	226.53
390.42	226.55
390.79	226.48
391.17	226.62
391.55	226.52
391.92	226.57
392.30	226.63
392.68	226.60
393.05	226.52
393.43	226.53
393.81	226.59
394.18	226.64
394.56	226.75
394.94	226.82
395.31	226.93
395.69	227.08
396.06	227.19
396.44	227.33
396.82	227.38
397.19	227.58
397.57	227.60
397.95	227.73
398.32	227.80
398.70	227.85
399.07	227.90
399.45	227.97
399.82	227.98
400.20	228.03
400.58	228.10
400.95	228.16
401.33	228.32
401.70	228.56
402.08	228.73
402.45	228.81
402.83	228.97
403.20	229.09
403.58	229.19
403.95	229.46
404.33	229.60
404.71	229.82
405.08	230.05
405.46	230.28
405.83	230.43
406.21	230.59
406.58	230.91
406.96	231.19
407.33	231.39
407.70	231.72
408.08	232.23
408.45	232.67
408.83	232.99
409.20	233.25
409.58	233.51
409.95	233.98
410.33	234.49
410.70	234.88
411.08	235.34
411.45	235.84
411.82	236.34
412.20	236.86
412.57	237.61
412.95	238.04
413.32	238.59
413.69	239.29
414.07	240.05
414.44	240.90
414.82	241.69
415.19	242.59
415.56	243.51
415.94	244.46
416.31	245.51
416.68	246.56
417.06	247.88
417.43	249.08
417.81	250.22
418.18	251.54
418.55	252.99
418.93	254.57
419.30	256.16
419.67	257.66
420.04	259.35
420.42	260.99
420.79	263.09
421.16	265.26
421.54	267.40
421.91	269.70
422.28	272.01
422.66	274.44
423.03	276.97
423.40	279.35
423.77	281.87
424.15	284.45
424.52	287.20
424.89	290.10
425.26	292.90
425.64	295.64
426.01	298.61
426.38	301.72
426.75	304.96
427.13	308.18
427.50	311.50
427.87	315.05
428.24	318.68
428.61	322.08
428.99	325.80
429.36	329.66
429.73	333.68
430.10	337.47
430.47	341.43
430.85	345.42
431.22	350.02
431.59	354.71
431.96	359.05
432.33	363.98
432.70	368.68
433.08	374.37
433.45	379.63
433.82	384.75
434.19	390.55
434.56	396.07
434.93	401.44
435.30	407.08
435.68	413.02
436.05	418.89
436.42	424.70
436.79	429.96
437.16	435.87
437.53	441.81
437.90	447.86
438.27	453.76
438.64	459.80
439.01	465.16
439.38	469.95
439.75	474.93
440.13	480.43
440.50	485.69
440.87	490.03
441.24	494.58
441.61	499.50
441.98	503.02
442.35	507.45
442.72	512.06
443.09	516.15
443.46	518.86
443.83	520.61
444.20	522.41
444.57	524.93
444.94	526.44
445.31	528.03
445.68	529.57
446.05	530.61
446.42	530.57
446.79	530.67
447.16	530.64
447.53	530.77
447.90	529.40
448.27	527.99
448.64	525.43
449.01	523.96
449.37	520.82
449.74	517.81
450.11	513.82
450.48	509.26
450.85	504.66
451.22	500.91
451.59	497.44
451.96	493.89
452.33	489.01
452.70	484.50
453.07	478.99
453.43	473.37
453.80	467.91
454.17	462.82
454.54	457.81
454.91	452.52
455.28	447.28
455.65	442.21
456.02	437.24
456.38	433.00
456.75	427.63
457.12	423.30
457.49	418.73
457.86	414.42
458.23	410.83
458.59	406.91
458.96	402.72
459.33	398.93
459.70	395.25
460.07	392.19
460.43	388.56
460.80	385.10
461.17	382.22
461.54	379.27
461.91	376.43
462.27	373.62
462.64	371.17
463.01	368.25
463.38	365.71
463.74	362.94
464.11	360.60
464.48	358.48
464.85	356.02
465.21	354.31
465.58	352.39
465.95	350.08
466.32	348.34
466.68	346.51
467.05	344.74
467.42	342.91
467.78	341.09
468.15	339.27
468.52	337.86
468.88	335.99
469.25	334.19
469.62	332.75
469.98	331.16
470.35	329.71
470.72	328.49
471.08	326.99
471.45	325.80
471.82	324.53
472.18	323.21
472.55	322.24
472.92	321.01
473.28	319.94
473.65	318.87
474.02	317.76
474.38	316.79
474.75	315.90
475.11	314.87
475.48	314.00
475.85	313.41
476.21	312.87
476.58	312.21
476.94	311.77
477.31	311.22
477.67	310.64
478.04	310.10
478.41	309.58
478.77	309.25
479.14	308.66
479.50	308.30
479.87	307.98
480.23	307.71
480.60	307.40
480.96	307.09
481.33	306.99
481.69	306.75
482.06	306.58
482.42	306.40
482.79	306.42
483.15	306.38
483.52	306.35
483.88	306.33
484.25	306.37
484.61	306.36
484.98	306.38
485.34	306.58
485.71	306.78
486.07	307.10
486.44	307.27
486.80	307.67
487.17	308.00
487.53	308.44
487.90	308.83
488.26	309.33
488.62	309.91
488.99	310.36
489.35	310.85
489.72	311.34
490.08	311.79
490.44	312.34
490.81	312.99
491.17	313.62
491.54	314.19
491.90	314.95
492.26	315.58
492.63	316.39
492.99	316.99
493.36	317.82
493.72	318.64
494.08	319.47
494.45	320.16
494.81	320.99
495.17	321.77
495.54	322.57
495.90	323.47
496.26	324.18
496.63	325.01
496.99	325.88
497.35	326.75
497.72	327.67
498.08	328.49
498.44	329.56
498.80	330.47
499.17	331.42
499.53	332.35
499.89	333.43
500.26	334.24
500.62	335.21
500.98	336.00
501.34	336.76
501.71	337.64
502.07	338.49
502.43	339.26
502.79	339.94
503.16	340.60
503.52	341.29
503.88	341.99
504.24	342.59
504.60	343.22
504.97	343.91
505.33	344.53
505.69	345.35
506.05	345.75
506.41	346.29
506.78	346.88
507.14	347.15
507.50	347.61
507.86	348.08
508.22	348.61
508.59	348.95
508.95	349.27
509.31	349.65
509.67	349.95
510.03	350.30
510.39	350.51
510.75	351.00
511.12	351.21
511.48	351.45
511.84	351.76
512.20	351.91
512.56	352.01
512.92	352.14
513.28	352.20
513.64	352.21
514.00	352.29
514.37	352.16
514.73	352.16
515.09	352.23
515.45	352.17
515.81	352.11
516.17	352.11
516.53	352.14
516.89	352.09
517.25	352.14
517.61	352.15
517.97	352.32
518.33	352.22
518.69	352.33
519.05	352.52
519.41	352.52
519.77	352.90
520.13	353.22
520.49	353.62
520.85	353.79
521.21	354.04
521.57	354.43
521.93	354.88
522.29	355.49
522.65	355.96
523.01	356.60
523.37	357.15
523.73	357.92
524.09	358.70
524.45	359.53
524.81	360.37
525.17	361.25
525.53	362.14
525.89	363.15
526.25	364.32
526.61	365.40
526.97	366.88
527.33	367.98
527.68	369.47
528.04	370.90
528.40	372.42
528.76	374.23
529.12	375.87
529.48	377.76
529.84	379.52
530.20	381.20
530.56	383.14
530.91	385.22
531.27	387.36
531.63	389.55
531.99	391.68
532.35	394.13
532.71	396.56
533.07	399.19
533.42	402.05
533.78	404.70
534.14	407.50
534.50	409.97
534.86	412.99
535.21	415.71
535.57	418.74
535.93	421.94
536.29	425.16
536.65	428.38
537.00	431.75
537.36	435.11
537.72	438.65
538.08	442.30
538.44	445.80
538.79	449.29
539.15	452.89
539.51	456.54
539.87	460.39
540.22	464.35
540.58	468.30
540.94	472.04
541.29	475.90
541.65	479.82
542.01	484.35
542.37	488.40
542.72	492.53
543.08	496.60
543.44	500.76
543.79	504.69
544.15	508.97
544.51	513.24
544.87	517.67
545.22	522.03
545.58	526.17
545.94	530.60
546.29	535.17
546.65	539.66
547.01	544.19
547.36	548.50
547.72	552.72
548.07	557.34
548.43	561.70
548.79	566.12
549.14	570.62
549.50	574.93
549.86	579.59
550.21	584.12
550.57	588.92
550.92	593.66
551.28	598.53
551.64	603.21
551.99	607.79
552.35	612.44
552.70	617.30
553.06	622.03
553.41	626.85
553.77	631.46
554.13	636.22
554.48	641.04
554.84	645.61
555.19	650.57
555.55	655.09
555.90	659.84
556.26	664.54
556.61	669.30
556.97	673.80
557.32	678.28
557.68	682.85
558.03	687.23
558.39	691.52
558.74	696.08
559.10	700.50
559.45	704.96
559.81	709.51
560.16	713.57
560.52	718.06
560.87	722.43
561.23	726.58
561.58	730.81
561.94	734.89
562.29	739.15
562.64	742.86
563.00	746.87
563.35	750.93
563.71	755.26
564.06	759.32
564.42	763.29
564.77	767.50
565.12	771.66
565.48	775.79
565.83	779.66
566.19	783.57
566.54	787.22
566.89	790.86
567.25	794.41
567.60	798.40
567.96	802.02
568.31	805.50
568.66	809.13
569.02	812.39
569.37	815.62
569.72	819.04
570.08	822.37
570.43	825.40
570.78	828.48
571.14	831.14
571.49	834.01
571.84	837.07
572.20	839.42
572.55	841.90
572.90	844.55
573.26	847.06
573.61	849.38
573.96	851.84
574.31	853.85
574.67	855.79
575.02	857.48
575.37	859.38
575.72	860.74
576.08	862.48
576.43	864.24
576.78	865.82
577.13	867.47
577.49	869.21
577.84	870.89
578.19	872.31
578.54	873.90
578.90	875.13
579.25	876.08
579.60	877.50
579.95	878.51
580.30	879.02
580.66	879.97
581.01	880.75
581.36	881.63
581.71	882.78
582.06	883.71
582.42	884.45
582.77	885.16
583.12	886.12
583.47	886.83
583.82	887.53
584.17	888.14
584.53	888.41
584.88	888.84
585.23	889.22
585.58	889.29
585.93	889.56
586.28	889.69
586.63	890.08
586.98	890.23
587.34	890.63
587.69	891.06
588.04	891.33
588.39	891.46
588.74	891.07
589.09	890.76
589.44	890.38
589.79	890.44
590.14	890.43
590.49	890.28
590.84	889.86
591.19	889.30
591.54	888.52
591.89	887.85
592.25	887.26
592.60	886.32
592.95	885.63
593.30	884.60
593.65	883.91
594.00	882.60
594.35	882.01
594.70	880.69
595.05	879.77
595.40	878.62
595.75	877.24
596.10	876.57
596.45	875.66
596.80	875.28
597.15	874.11
597.50	872.70
597.85	871.74
598.19	870.53
598.54	869.55
598.89	868.91
599.24	868.16
599.59	866.87
599.94	865.89
600.29	864.82
600.64	863.71
600.99	862.09
601.34	861.24
601.69	859.35
602.04	858.14
602.39	856.61
602.74	855.44
603.08	854.27
603.43	853.02
603.78	851.82
604.13	850.05
604.48	848.80
604.83	847.47
605.18	845.84
605.53	844.30
605.87	842.53
606.22	840.85
606.57	838.70
606.92	837.10
607.27	835.51
607.62	834.00
607.96	832.30
608.31	830.96
608.66	828.85
609.01	826.82
609.36	824.58
609.70	822.21
610.05	819.70
610.40	817.50
610.75	815.00
611.10	812.48
611.44	809.66
611.79	807.11
612.14	804.60
612.49	801.81
612.83	799.06
613.18	796.54
613.53	794.00
613.88	791.89
614.22	789.34
614.57	786.61
614.92	783.69
615.27	781.33
615.61	778.58
615.96	776.09
616.31	773.88
616.65	771.81
617.00	769.65
617.35	767.34
617.70	764.80
618.04	761.93
618.39	759.25
618.74	756.96
619.08	754.39
619.43	751.97
619.78	749.88
620.12	747.50
620.47	744.84
620.82	741.93
621.16	739.08
621.51	736.59
621.85	733.98
622.20	731.40
622.55	728.58
622.89	725.86
623.24	723.42
623.59	721.10
623.93	718.44
624.28	715.74
624.62	713.18
624.97	710.78
625.32	708.58
625.66	706.04
626.01	703.49
626.35	700.71
626.70	697.95
627.04	695.23
627.39	692.57
627.73	690.13
628.08	687.69
628.43	684.91
628.77	682.05
629.12	679.31
629.46	676.97
629.81	674.06
630.15	671.44
630.50	668.72
630.84	665.44
631.19	662.48
631.53	659.70
631.88	656.81
632.22	653.92
632.57	651.27
632.91	648.62
633.26	645.88
633.60	643.04
633.95	640.40
634.29	637.62
634.64	635.33
634.98	632.69
635.32	630.50
635.67	628.17
636.01	625.74
636.36	623.10
636.70	620.45
637.05	618.16
637.39	615.78
637.73	613.19
638.08	611.26
638.42	609.15
638.77	607.03
639.11	604.66
639.45	602.36
639.80	599.70
640.14	597.43
640.49	595.01
640.83	592.78
641.17	590.40
641.52	588.08
641.86	585.69
642.20	583.34
642.55	580.52
642.89	578.14
643.23	575.75
643.58	573.61
643.92	571.09
644.26	568.77
644.61	566.59
644.95	564.29
645.29	561.60
645.64	559.02
645.98	556.62
646.32	554.20
646.66	551.70
647.01	549.50
647.35	547.02
647.69	544.75
648.04	542.55
648.38	540.20
648.72	537.52
649.06	534.93
649.41	532.49
649.75	530.02
650.09	527.65
650.43	525.24
650.78	522.93
651.12	520.50
651.46	518.05
651.80	515.50
652.14	513.28
652.49	510.97
652.83	508.77
653.17	506.15
653.51	503.76
653.85	501.51
654.20	499.03
654.54	496.66
654.88	494.30
655.22	491.77
655.56	489.25
655.90	487.09
656.25	484.94
656.59	482.71
656.93	480.78
657.27	478.60
657.61	476.19
657.95	473.94
658.29	471.88
658.64	469.76
658.98	467.41
659.32	465.02
659.66	462.94
660.00	460.59
660.34	458.56
660.68	456.51
661.02	454.12
661.36	452.15
661.70	450.16
662.05	448.24
662.39	446.40
662.73	444.55
663.07	442.69
663.41	440.60
663.75	438.72
664.09	436.61
664.43	434.66
664.77	433.00
665.11	431.10
665.45	429.19
665.79	427.36
666.13	425.70
666.47	423.92
666.81	421.70
667.15	419.81
667.49	418.03
667.83	416.33
668.17	414.71
668.51	412.86
668.85	410.93
669.19	409.27
669.53	407.40
669.87	405.57
670.21	403.79
670.55	402.04
670.89	400.39
671.23	398.87
671.57	397.33
671.91	395.55
672.25	393.81
672.58	392.34
672.92	390.74
673.26	389.26
673.60	387.85
673.94	386.69
674.28	385.44
674.62	384.04
674.96	382.60
675.30	381.21
675.64	379.86
675.97	378.61
676.31	377.26
676.65	376.03
676.99	374.85
677.33	373.52
677.67	372.29
678.01	370.90
678.34	369.62
678.68	368.24
679.02	367.13
679.36	365.99
679.70	364.79
680.04	363.43
680.37	362.08
680.71	360.81
681.05	359.63
681.39	358.39
681.73	357.20
682.06	356.05
682.40	354.90
682.74	353.69
683.08	352.60
683.42	351.37
683.75	350.30
684.09	349.14
684.43	348.21
684.77	347.11
685.10	345.99
685.44	344.78
685.78	343.73
686.12	342.71
686.45	341.55
686.79	340.32
687.13	339.47
687.46	338.40
687.80	337.30
688.14	336.13
688.48	335.09
688.81	333.91
689.15	332.87
689.49	331.80
689.82	331.00
690.16	329.84
690.50	328.74
690.83	327.70
691.17	326.50
691.51	325.39
691.84	324.36
692.18	323.34
692.52	322.46
692.85	321.42
693.19	320.37
693.52	319.33
693.86	318.43
694.20	317.46
694.53	316.53
694.87	315.46
695.21	314.53
695.54	313.49
695.88	312.53
696.21	311.48
696.55	310.59
696.88	309.60
697.22	308.81
697.56	307.86
697.89	306.83
698.23	306.20
698.56	305.32
698.90	304.54
699.23	303.59
699.57	302.66
699.90	301.83
700.24	300.88
700.58	300.11
700.91	299.26
701.25	298.51
701.58	297.89
701.92	297.25
702.25	296.54
702.59	295.86
702.92	295.24
703.26	294.55
703.59	293.80
703.93	293.11
704.26	292.30
704.60	291.64
704.93	290.98
705.26	290.06
705.60	289.31
705.93	288.63
706.27	288.22
706.60	287.60
706.94	286.93
707.27	286.26
707.61	285.78
707.94	285.17
708.27	284.25
708.61	283.45
708.94	282.77
709.28	282.21
709.61	281.62
709.94	280.99
710.28	280.47
710.61	279.92
710.95	279.31
711.28	278.92
711.61	278.46
711.95	278.01
712.28	277.49
712.61	276.98
712.95	276.40
713.28	275.83
713.61	275.30
713.95	274.84
714.28	274.39
714.61	273.74
714.95	273.12
715.28	272.70
715.61	272.12
715.95	271.74
716.28	271.15
716.61	270.72
716.95	270.12
717.28	269.63
717.61	269.16
717.94	268.61
718.28	268.00
718.61	267.50
718.94	267.00
719.27	266.59
719.61	266.14
719.94	265.70
720.27	265.20
720.60	264.84
720.94	264.36
721.27	264.06
721.60	263.80
721.93	263.47
722.27	263.19
722.60	262.97
722.93	262.59
723.26	262.37
723.59	261.97
723.93	261.80
724.26	261.48
724.59	261.19
724.92	260.92
725.25	260.68
725.59	260.39
725.92	260.08
726.25	259.83
726.58	259.52
726.91	259.27
727.24	259.09
727.57	258.78
727.91	258.55
728.24	258.15
728.57	257.76
728.90	257.63
729.23	257.28
729.56	257.07
729.89	256.78
730.22	256.32
730.55	256.11
730.89	255.82
731.22	255.58
731.55	255.35
731.88	255.11
732.21	254.83
732.54	254.45
732.87	254.23
733.20	254.01
733.53	253.90
733.86	253.64
734.19	253.30
734.52	253.04
734.85	252.88
735.18	252.82
735.51	252.68
735.84	252.47
736.17	252.44
736.50	252.18
736.83	252.12
737.16	252.00
737.49	251.75
737.82	251.60
738.15	251.23
738.48	250.97
738.81	250.72
739.14	250.47
739.47	250.35
739.80	250.11
740.13	249.81
740.46	249.53
740.79	249.20
741.12	248.87
741.45	248.62
741.78	248.44
742.11	248.13
742.44	247.86
742.77	247.58
743.10	247.17
743.43	246.83
743.75	246.45
744.08	246.48
744.41	246.28
744.74	246.04
745.07	245.92
745.40	245.81
745.73	245.65
746.06	245.43
746.39	245.29
746.71	245.11
747.04	244.90
747.37	244.56
747.70	244.45
748.03	244.37
748.36	244.20
748.68	243.87
749.01	243.60
749.34	243.48
749.67	243.31
750.00	243.07
750.33	243.13
750.65	242.94
750.98	242.47
751.31	242.24
751.64	242.02
751.97	241.95
752.29	241.66
752.62	241.41
752.95	241.32
753.28	241.01
753.60	240.75
753.93	240.75
754.26	240.68
754.59	240.46
754.91	240.30
755.24	240.12
755.57	239.90
755.90	239.78
756.22	239.46
756.55	239.27
756.88	239.23
757.20	238.81
757.53	238.62
757.86	238.56
758.19	238.47
758.51	238.31
758.84	238.08
759.17	237.98
759.49	237.90
759.82	237.84
760.15	237.82
760.47	237.72
760.80	237.51
761.13	237.46
761.45	237.46
761.78	237.33
762.11	237.17
762.43	237.17
762.76	237.04
763.08	237.04
763.41	236.92
763.74	236.80
764.06	236.71
764.39	236.66
764.71	236.52
765.04	236.42
765.37	236.33
765.69	236.19
766.02	236.10
766.34	236.00
766.67	235.86
767.00	235.76
767.32	235.89
767.65	235.86
767.97	235.71
768.30	235.57
768.62	235.58
768.95	235.64
769.27	235.58
769.60	235.52
769.92	235.51
770.25	235.39
770.57	235.29
770.90	235.28
771.22	235.25
771.55	235.14
771.87	235.05
772.20	235.08
772.52	235.26
772.85	235.47
773.17	235.40
773.50	235.27
773.82	235.32
774.15	235.10
774.47	235.03
774.80	234.91
775.12	234.85
775.45	234.79
775.77	234.80
776.09	234.70
776.42	234.72
776.74	234.65
777.07	234.65
777.39	234.66
777.72	234.65
778.04	234.65
778.36	234.62
778.69	234.62
779.01	234.52
779.33	234.31
779.66	234.13
779.98	234.17
780.31	234.20
780.63	234.16
780.95	234.06
781.28	234.01
781.60	234.03
781.92	234.04
782.25	233.97
782.57	233.85
782.89	233.84
783.22	233.75
783.54	233.61
783.86	233.71
784.19	233.63
784.51	233.72
784.83	233.59
785.16	233.60
785.48	233.60
785.80	233.59
786.12	233.55
786.45	233.41
786.77	233.32
787.09	233.25
787.42	233.11
787.74	233.19
788.06	233.07
788.38	233.03
788.71	232.96
789.03	232.87
789.35	232.83
789.67	232.76
789.99	232.73
790.32	232.71
790.64	232.66
790.96	232.81
791.28	232.52
791.61	232.50
791.93	232.49
792.25	232.40
792.57	232.51
792.89	232.40
793.21	232.36
793.54	232.28
793.86	232.15
794.18	232.09
794.50	232.04
794.82	232.09
795.14	232.11
795.47	232.13
795.79	232.06
796.11	231.94
796.43	231.87
796.75	231.80
797.07	231.75
797.39	231.59
797.71	231.38
798.04	231.33
798.36	231.37
798.68	231.34
799.00	231.25
799.32	231.06
799.64	231.10
799.96	231.12
800.28	231.10
800.60	231.10
800.92	231.13
801.24	231.03
801.56	230.99
801.89	230.92
802.21	230.80
802.53	230.82
802.85	230.83
803.17	230.93
803.49	230.86
803.81	230.86
804.13	230.86
804.45	230.80
804.77	230.82
805.09	230.67
805.41	230.57
805.73	230.54
806.05	230.50
806.37	230.49
806.69	230.41
807.01	230.36
807.33	230.41
807.65	230.30
807.97	230.47
808.28	230.45
808.60	230.40
808.92	230.47
809.24	230.49
809.56	230.60
809.88	230.47
810.20	230.50
810.52	230.53
810.84	230.52
811.16	230.54
811.48	230.54
811.80	230.58
812.12	230.62
812.43	230.61
812.75	230.60
813.07	230.47
813.39	230.46
813.71	230.44
814.03	230.36
814.35	230.35
814.67	230.21
814.98	230.15
815.30	230.18
815.62	230.18
815.94	230.12
816.26	230.05
816.58	230.04
816.89	230.00
817.21	229.90
817.53	229.85
817.85	229.80
818.17	229.85
818.48	229.83
818.80	229.74
819.12	229.84
819.44	229.84
819.76	229.78
820.07	229.64
820.39	229.64
820.71	229.67
821.03	229.70
821.34	229.73
821.66	229.69
821.98	229.67
822.30	229.50
822.61	229.59
822.93	229.51
823.25	229.47
823.57	229.38
823.88	229.39
824.20	229.39
824.52	229.43
824.83	229.38
825.15	229.32
825.47	229.31
825.79	229.19
826.10	229.10
826.42	229.16
826.74	229.20
827.05	229.27
827.37	229.25
827.69	229.12
828.00	229.08
828.32	229.11
828.64	229.03
828.95	229.25
829.27	229.20
829.58	229.18
829.90	229.23
830.22	229.27
830.53	229.30
830.85	229.25
831.17	229.20
831.48	229.26
831.80	229.25
832.11	229.25
832.43	229.30
832.75	229.30
833.06	229.32
833.38	229.32
833.69	229.22
834.01	229.25
834.32	229.26
834.64	229.20
834.96	229.13
835.27	229.10
835.59	228.94
835.90	228.85
836.22	228.84
836.53	228.83
836.85	228.85
837.16	228.99
837.48	228.97
837.79	229.03
838.11	228.94
838.42	229.02
838.74	229.05
839.05	228.98
839.37	228.95
839.68	228.94
840.00	228.96
840.31	228.99
840.63	228.98
840.94	229.03
841.26	229.05
841.57	229.10
841.88	229.14
842.20	229.16
842.51	229.10
842.83	229.02
843.14	229.31
843.46	229.29
843.77	229.25
844.08	229.35
844.40	229.32
844.71	229.38
845.03	229.37
845.34	229.32
845.65	229.27
845.97	229.34
846.28	229.26
846.60	229.29
846.91	229.30
847.22	229.23
847.54	229.26
847.85	229.24
848.16	229.32
848.48	229.25
848.79	229.31
849.10	229.46
849.42	229.50
849.73	229.25
850.04	229.24
850.36	229.17
850.67	229.11
850.98	229.01
851.30	229.04
851.61	228.99
851.92	228.94
852.23	229.13
852.55	229.10
852.86	229.14
853.17	229.14
853.49	229.07
853.80	229.24
854.11	229.30
854.42	229.26
854.74	229.14
855.05	229.09
855.36	229.07
855.67	229.10
855.99	229.16
856.30	229.33
856.61	229.37
856.92	229.34
857.23	229.36
857.55	229.32
857.86	229.24
858.17	229.22
858.48	229.30
858.79	229.17
859.11	229.11
859.42	229.05
859.73	228.95
860.04	229.01
860.35	228.77
860.66	228.68
860.98	228.65
861.29	228.68
861.60	228.75
861.91	228.68
862.22	228.52
862.53	228.50
862.84	228.18
863.16	228.30
863.47	228.26
863.78	228.19
864.09	228.30
864.40	228.34
864.71	228.32
865.02	228.37
865.33	228.30
865.64	228.41
865.95	228.49
866.27	228.73
866.58	228.69
866.89	228.66
867.20	228.75
867.51	228.84
867.82	228.81
868.13	228.88
868.44	228.91
868.75	229.00
869.06	229.02
869.37	229.25
869.68	229.14
869.99	229.15
870.30	229.21
870.61	229.21
870.92	229.20
871.23	229.22
871.54	229.15
871.85	229.23
872.16	229.23
872.47	229.17
872.78	229.06
873.09	229.12
873.40	229.25
873.71	229.24
874.02	229.29
874.33	229.27
874.64	229.19
874.95	229.21
875.26	229.15
875.56	229.13
875.87	229.00
876.18	229.01
876.49	229.30
876.80	229.24
877.11	229.19
877.42	229.17
877.73	229.18
878.04	229.22
878.35	229.26
878.66	229.24
878.96	229.23
879.27	229.22
879.58	229.16
879.89	229.19
880.20	229.23
880.51	229.19
880.82	229.20
881.12	229.33
881.43	229.24
881.74	229.27
882.05	229.23
882.36	229.24
882.67	229.30
882.97	229.06
883.28	229.06
883.59	229.07
883.90	229.18
884.21	229.23
884.51	229.23
884.82	229.20
885.13	229.09
885.44	229.07
885.74	228.98
886.05	228.99
886.36	228.93
886.67	228.76
886.98	228.78
887.28	228.82
887.59	228.63
887.90	228.70
888.20	228.69
888.51	228.62
888.82	228.52
889.13	228.43
889.43	228.51
889.74	228.55
890.05	228.56
890.35	228.41
890.66	228.30
890.97	228.21
891.28	228.14
891.58	228.18
891.89	228.15
892.20	228.15
892.50	228.08
892.81	227.92
893.12	227.90
893.42	227.88
893.73	227.81
894.04	227.85
894.34	227.82
894.65	227.75
894.95	227.71
895.26	227.72
895.57	227.77
895.87	227.60
896.18	227.56
896.48	227.53
896.79	227.43
897.10	227.40
897.40	227.40
897.71	227.43
898.01	227.46
898.32	227.49
898.63	227.50
898.93	227.59
899.24	227.63
899.54	227.60
899.85	227.52
900.15	227.51
900.46	227.49
900.76	227.39
901.07	227.37
901.38	227.38
901.68	227.46
901.99	227.21
902.29	227.21
902.60	227.22
902.90	227.22
903.21	227.23
903.51	227.36
903.82	227.42
904.12	227.49
904.43	227.41
904.73	227.45
905.03	227.43
905.34	227.57
905.64	227.60
905.95	227.67
906.25	227.69
906.56	227.70
906.86	227.79
907.17	227.88
907.47	227.94
907.77	227.96
908.08	227.93
908.38	228.19
908.69	228.20
908.99	228.25
909.30	228.29
909.60	228.39
909.90	228.30
910.21	228.29
910.51	228.23
910.81	228.28
911.12	228.39
911.42	228.43
911.73	228.24
912.03	228.26
912.33	228.38
912.64	228.37
912.94	228.42
913.24	228.32
913.55	228.40
913.85	228.51
914.15	228.67
914.46	228.71
914.76	228.66
915.06	228.74
915.37	228.73
915.67	228.70
915.97	228.77
916.27	228.73
916.58	228.79
916.88	228.81
917.18	228.80
917.49	228.97
917.79	228.98
918.09	229.02
918.39	229.05
918.70	228.92
919.00	228.95
919.30	228.99
919.60	229.00
919.91	228.93
920.21	228.88
920.51	228.82
920.81	228.73
921.12	228.70
921.42	228.64
921.72	228.71
922.02	228.62
922.32	228.53
922.63	228.71
922.93	228.71
923.23	228.72
923.53	228.75
923.83	228.48
924.13	228.47
924.44	228.50
924.74	228.49
925.04	228.60
925.34	228.60
925.64	228.56
925.94	228.59
926.24	228.65
926.55	228.62
926.85	228.60
927.15	228.60
927.45	228.54
927.75	228.47
928.05	228.40
928.35	228.40
928.65	228.50
928.95	228.37
929.26	228.23
929.56	228.17
929.86	228.16
930.16	228.07
930.46	227.99
930.76	227.93
931.06	227.86
931.36	227.73
931.66	227.73
931.96	227.78
932.26	227.84
932.56	227.78
932.86	227.72
933.16	227.68
933.46	227.59
933.76	227.55
934.06	227.59
934.36	227.61
934.66	227.62
934.96	227.57
935.26	227.60
935.56	227.75
935.86	227.67
936.16	227.62
936.46	227.65
936.76	227.69
937.06	227.60
937.36	227.55
937.66	227.59
937.96	227.57
938.26	227.41
938.56	227.28
938.86	227.19
939.16	227.24
939.46	227.26
939.76	227.41
940.06	227.46
940.35	227.37
940.65	227.28
940.95	227.23
941.25	227.19
941.55	227.17
941.85	227.03
942.15	227.20
942.45	227.32
942.75	227.35
943.04	227.40
943.34	227.45
943.64	227.50
943.94	227.52
944.24	227.55
944.54	227.55
944.84	227.59
945.13	227.66
945.43	227.72
945.73	227.68
946.03	227.57
946.33	227.65
946.62	227.70
946.92	227.84
947.22	227.90
947.52	227.94
947.82	227.96
948.11	228.11
948.41	228.01
948.71	227.96
949.01	228.01
949.31	228.06
949.60	228.06
949.90	228.20
950.20	228.20
950.50	228.33
950.79	228.31
951.09	228.38
951.39	228.35
951.69	228.31
951.98	228.56
952.28	228.62
952.58	228.64
952.87	228.77
953.17	228.68
953.47	228.75
953.76	228.73
954.06	228.76
954.36	228.65
954.66	228.79
954.95	228.89
955.25	228.91
955.55	228.93
955.84	228.97
956.14	229.03
956.44	229.02
956.73	228.90
957.03	229.02
957.32	229.08
957.62	229.15
957.92	229.16
958.21	228.98
958.51	229.29
958.81	229.29
959.10	229.27
959.40	229.31
959.69	229.23
959.99	229.30
960.29	229.29
960.58	229.28
960.88	229.26
961.17	229.16
961.47	229.14
961.76	229.09
962.06	229.11
962.36	229.01
962.65	228.93
962.95	228.95
963.24	228.93
963.54	228.81
963.83	228.75
964.13	228.76
964.42	228.71
964.72	228.55
965.01	228.45
965.31	228.36
965.60	228.30
965.90	228.42
966.19	228.37
966.49	228.31
966.78	228.22
967.08	228.23
967.37	228.22
967.67	228.16
967.96	228.10
968.26	228.08
968.55	228.03
968.85	228.00
969.14	227.98
969.43	227.88
969.73	227.89
970.02	227.83
970.32	227.78
970.61	227.65
970.91	227.44
971.20	227.39
971.49	227.37
971.79	227.39
972.08	227.21
972.38	227.23
972.67	227.24
972.96	227.37
973.26	227.22
973.55	227.30
973.85	227.23
974.14	227.25
974.43	227.21
974.73	227.15
975.02	227.17
975.31	227.09
975.61	227.05
975.90	226.99
976.19	227.04
976.49	227.09
976.78	227.21
977.07	227.29
977.37	227.33
977.66	227.40
977.95	227.35
978.24	227.38
978.54	227.35
978.83	227.30
979.12	227.17
979.42	227.30
979.71	227.19
980.00	227.25
980.29	227.21
980.59	227.25
980.88	227.33
981.17	227.30
981.46	227.29
981.76	227.31
982.05	227.42
982.34	227.45
982.63	227.40
982.93	227.42
983.22	227.50
983.51	227.59
983.80	227.59
984.09	227.71
984.39	227.77
984.68	227.80
984.97	227.91
985.26	228.05
985.55	228.02
985.85	228.08
986.14	228.15
986.43	228.21
986.72	228.20
987.01	228.20
987.30	228.41
987.59	228.52
987.89	228.66
988.18	228.70
988.47	228.70
988.76	228.83
989.05	228.88
989.34	228.82
989.63	228.82
989.92	228.84
990.22	228.87
990.51	228.87
990.80	228.89
991.09	228.89
991.38	228.90
991.67	228.91
991.96	228.85
992.25	228.97
992.54	228.95
992.83	228.95
993.12	228.96
993.41	228.91
993.70	228.96
993.99	229.00
994.28	228.98
994.58	229.00
994.87	228.88
995.16	228.86
995.45	228.96
995.74	228.87
996.03	228.97
996.32	228.99
996.61	228.97
996.90	228.92
997.19	228.85
997.48	228.78
997.77	228.73
998.06	228.65
998.34	228.57
998.63	228.61
998.92	228.67
999.21	228.71
999.50	228.79
999.79	228.70
1000.08	228.63
1000.37	228.72
1000.66	228.66
1000.95	228.70
1001.24	228.68
1001.53	228.53
1001.82	228.56
1002.11	228.43
1002.40	228.44
1002.68	228.45
1002.97	228.54
1003.26	228.53
1003.55	228.51
1003.84	228.47
1004.13	228.55
1004.42	228.63
1004.71	228.54
1004.99	228.56
1005.28	228.51
1005.57	228.42
1005.86	228.36
1006.15	228.30
1006.44	228.11
1006.72	228.09
1007.01	228.06
1007.30	227.97
1007.59	228.03
1007.88	227.95
1008.17	228.02
1008.45	227.98
1008.74	227.99
1009.03	227.91
1009.32	227.86
1009.60	227.80
1009.89	227.88
1010.18	227.87
1010.47	227.70
1010.76	227.70
1011.04	227.62
1011.33	227.71
1011.62	227.63
1011.91	227.69
1012.19	227.69
1012.48	227.68
1012.77	227.60
1013.05	227.65
1013.34	227.67
1013.63	227.59
1013.92	227.63
1014.20	227.54
1014.49	227.42
1014.78	227.40
1015.06	227.34
1015.35	227.41
1015.64	227.57
1015.92	227.60
1016.21	227.60
1016.50	227.56
1016.78	227.64
1017.07	227.69
1017.36	227.66
1017.64	227.68
1017.93	227.70
1018.22	227.72
1018.50	227.79
1018.79	227.97
1019.08	227.96
1019.36	228.03
1019.65	228.06
1019.93	228.19
1020.22	228.16
1020.51	228.26
1020.79	228.35
1021.08	227.40
1021.36	228.10
1021.65	229.00
1021.94	229.00
1022.22	227.90
1022.51	227.40
1022.79	230.10
1023.08	226.90
1023.36	229.10
1023.65	229.20
>>>>>End Processed Spectral Data<<<<<
