SpectraSuite Data File
++++++++++++++++++++++++++++++++++++
Date: Fri Feb 01 14:38:58 EST 2013
User: group
Dark Spectrum Present: No
Reference Spectrum Present: No
Number of Sampled Component Spectra: 1
Spectrometers: USB2E7196
Integration Time (usec): 70000 (USB2E7196)
Spectra Averaged: 10 (USB2E7196)
Boxcar Smoothing: 10 (USB2E7196)
Correct for Electrical Dark: No (USB2E7196)
Strobe/Lamp Enabled: No (USB2E7196)
Correct for Detector Non-linearity: No (USB2E7196)
Correct for Stray Light: No (USB2E7196)
Number of Pixels in Processed Spectrum: 2048
>>>>>Begin Processed Spectral Data<<<<<
339.09	0.00
339.48	215.40
339.86	216.80
340.24	219.40
340.63	218.40
341.01	225.20
341.39	222.50
341.78	223.20
342.16	223.40
342.54	225.70
342.93	214.07
343.31	224.87
343.69	225.46
344.07	225.93
344.46	226.38
344.84	226.80
345.22	226.88
345.60	227.07
345.99	227.21
346.37	227.40
346.75	227.43
347.13	227.54
347.52	227.60
347.90	227.72
348.28	227.64
348.66	227.73
349.05	227.67
349.43	227.63
349.81	227.68
350.19	227.75
350.57	227.86
350.96	227.85
351.34	227.95
351.72	227.96
352.10	228.06
352.48	228.11
352.87	228.17
353.25	228.20
353.63	228.34
354.01	228.41
354.39	228.53
354.77	228.63
355.15	228.63
355.54	228.74
355.92	228.79
356.30	228.84
356.68	229.00
357.06	229.10
357.44	229.27
357.82	229.22
358.20	229.39
358.58	229.36
358.97	229.40
359.35	229.43
359.73	229.58
360.11	229.62
360.49	229.64
360.87	229.69
361.25	229.84
361.63	229.96
362.01	230.11
362.39	230.08
362.77	230.14
363.15	230.20
363.53	230.07
363.91	230.00
364.29	230.08
364.67	229.94
365.05	229.89
365.43	229.81
365.81	229.95
366.19	229.99
366.57	230.08
366.95	230.10
367.33	230.17
367.71	230.15
368.09	230.16
368.47	230.14
368.85	230.13
369.23	230.04
369.61	229.86
369.99	229.79
370.37	229.77
370.75	229.80
371.13	229.72
371.51	229.71
371.89	229.58
372.27	229.58
372.65	229.47
373.03	229.35
373.41	229.23
373.78	229.08
374.16	228.87
374.54	228.74
374.92	228.68
375.30	228.49
375.68	228.29
376.06	228.20
376.44	228.11
376.82	228.09
377.19	228.00
377.57	228.00
377.95	227.91
378.33	227.88
378.71	227.68
379.09	227.63
379.47	227.67
379.84	227.65
380.22	227.51
380.60	227.49
380.98	227.47
381.36	227.49
381.73	227.33
382.11	227.21
382.49	227.18
382.87	227.01
383.25	226.95
383.62	227.22
384.00	227.19
384.38	227.11
384.76	227.07
385.13	227.15
385.51	227.19
385.89	227.10
386.27	227.01
386.64	227.08
387.02	227.05
387.40	226.93
387.78	226.89
388.15	226.97
388.53	226.92
388.91	226.87
389.29	226.85
389.66	226.92
390.04	227.03
390.42	226.96
390.79	226.95
391.17	227.02
391.55	226.73
391.92	226.61
392.30	226.62
392.68	226.60
393.05	226.61
393.43	226.51
393.81	226.51
394.18	226.50
394.56	226.56
394.94	226.69
395.31	226.81
395.69	227.00
396.06	227.01
396.44	227.09
396.82	227.10
397.19	227.20
397.57	227.29
397.95	227.30
398.32	227.34
398.70	227.66
399.07	227.76
399.45	227.84
399.82	228.00
400.20	227.98
400.58	228.04
400.95	228.09
401.33	228.20
401.70	228.47
402.08	228.57
402.45	228.56
402.83	228.68
403.20	228.64
403.58	228.60
403.95	228.72
404.33	228.87
404.71	229.14
405.08	229.34
405.46	229.50
405.83	229.65
406.21	229.83
406.58	229.85
406.96	229.95
407.33	230.11
407.70	230.28
408.08	230.63
408.45	230.90
408.83	231.14
409.20	231.38
409.58	231.50
409.95	231.81
410.33	232.07
410.70	232.23
411.08	232.71
411.45	233.13
411.82	233.43
412.20	233.83
412.57	234.21
412.95	234.48
413.32	234.86
413.69	235.30
414.07	235.81
414.44	236.23
414.82	236.70
415.19	237.40
415.56	238.11
415.94	238.77
416.31	239.48
416.68	240.04
417.06	240.82
417.43	241.45
417.81	242.20
418.18	243.11
418.55	244.07
418.93	245.01
419.30	245.97
419.67	246.95
420.04	248.06
420.42	249.16
420.79	250.58
421.16	251.95
421.54	253.32
421.91	254.71
422.28	256.25
422.66	257.88
423.03	259.36
423.40	260.79
423.77	262.25
424.15	263.89
424.52	265.70
424.89	267.45
425.26	269.48
425.64	271.21
426.01	273.25
426.38	275.21
426.75	277.09
427.13	279.15
427.50	281.32
427.87	283.45
428.24	285.63
428.61	287.59
428.99	289.95
429.36	292.50
429.73	295.00
430.10	297.44
430.47	300.05
430.85	302.56
431.22	305.39
431.59	308.50
431.96	311.20
432.33	314.25
432.70	317.25
433.08	320.65
433.45	323.86
433.82	327.00
434.19	330.57
434.56	334.17
434.93	337.49
435.30	340.75
435.68	344.41
436.05	348.13
436.42	351.83
436.79	355.10
437.16	358.61
437.53	362.29
437.90	365.92
438.27	369.42
438.64	373.06
439.01	376.33
439.38	379.14
439.75	381.98
440.13	385.20
440.50	388.46
440.87	391.00
441.24	393.86
441.61	396.80
441.98	398.93
442.35	401.48
442.72	404.25
443.09	406.96
443.46	408.55
443.83	409.50
444.20	410.36
444.57	411.66
444.94	412.28
445.31	413.05
445.68	413.95
446.05	414.16
446.42	413.91
446.79	413.79
447.16	413.62
447.53	413.68
447.90	412.70
448.27	411.41
448.64	409.75
449.01	408.52
449.37	406.18
449.74	403.96
450.11	401.37
450.48	398.42
450.85	395.50
451.22	392.97
451.59	390.73
451.96	388.54
452.33	385.40
452.70	382.60
453.07	379.17
453.43	375.50
453.80	372.20
454.17	369.10
454.54	365.94
454.91	362.72
455.28	359.39
455.65	356.30
456.02	353.50
456.38	350.75
456.75	347.49
457.12	345.00
457.49	342.35
457.86	339.64
458.23	337.30
458.59	334.58
458.96	331.98
459.33	329.62
459.70	327.30
460.07	325.42
460.43	323.18
460.80	321.07
461.17	319.42
461.54	317.56
461.91	315.66
462.27	313.73
462.64	312.03
463.01	310.28
463.38	308.60
463.74	306.61
464.11	305.18
464.48	303.85
464.85	302.26
465.21	301.13
465.58	299.85
465.95	298.43
466.32	297.29
466.68	296.06
467.05	294.76
467.42	293.57
467.78	292.37
468.15	291.22
468.52	290.33
468.88	289.03
469.25	287.96
469.62	287.21
469.98	286.42
470.35	285.55
470.72	284.66
471.08	283.70
471.45	282.94
471.82	282.08
472.18	281.23
472.55	280.43
472.92	279.54
473.28	278.92
473.65	278.10
474.02	277.38
474.38	276.75
474.75	276.29
475.11	275.59
475.48	275.02
475.85	274.60
476.21	274.14
476.58	273.64
476.94	273.30
477.31	272.85
477.67	272.40
478.04	271.99
478.41	271.67
478.77	271.50
479.14	271.15
479.50	271.01
479.87	270.71
480.23	270.61
480.60	270.37
480.96	269.94
481.33	269.89
481.69	269.78
482.06	269.59
482.42	269.38
482.79	269.23
483.15	269.02
483.52	268.94
483.88	268.69
484.25	268.64
484.61	268.57
484.98	268.54
485.34	268.62
485.71	268.55
486.07	268.54
486.44	268.40
486.80	268.48
487.17	268.38
487.53	268.52
487.90	268.56
488.26	268.78
488.62	268.99
488.99	269.05
489.35	269.06
489.72	269.11
490.08	269.22
490.44	269.39
490.81	269.73
491.17	269.75
491.54	269.95
491.90	270.22
492.26	270.34
492.63	270.49
492.99	270.61
493.36	270.95
493.72	271.25
494.08	271.54
494.45	271.77
494.81	272.07
495.17	272.24
495.54	272.49
495.90	272.75
496.26	273.06
496.63	273.25
496.99	273.54
497.35	273.99
497.72	274.29
498.08	274.62
498.44	274.90
498.80	275.44
499.17	275.79
499.53	275.98
499.89	276.45
500.26	276.86
500.62	277.21
500.98	277.67
501.34	278.06
501.71	278.45
502.07	278.82
502.43	279.25
502.79	279.74
503.16	280.16
503.52	280.64
503.88	281.15
504.24	281.82
504.60	282.45
504.97	283.16
505.33	283.77
505.69	284.45
506.05	285.16
506.41	285.73
506.78	286.48
507.14	287.33
507.50	288.06
507.86	288.98
508.22	289.89
508.59	290.71
508.95	291.57
509.31	292.64
509.67	293.67
510.03	294.68
510.39	295.73
510.75	296.86
511.12	298.00
511.48	299.13
511.84	300.41
512.20	301.62
512.56	302.76
512.92	304.13
513.28	305.62
513.64	307.21
514.00	308.82
514.37	310.51
514.73	312.15
515.09	313.78
515.45	315.38
515.81	317.08
516.17	319.02
516.53	321.04
516.89	322.88
517.25	325.13
517.61	327.46
517.97	329.74
518.33	332.20
518.69	334.63
519.05	337.34
519.41	339.95
519.77	342.83
520.13	345.76
520.49	348.63
520.85	351.56
521.21	354.47
521.57	357.66
521.93	360.78
522.29	364.19
522.65	367.65
523.01	371.11
523.37	374.90
523.73	378.46
524.09	382.30
524.45	386.25
524.81	390.18
525.17	394.14
525.53	398.34
525.89	402.45
526.25	406.79
526.61	410.88
526.97	415.36
527.33	419.83
527.68	424.70
528.04	429.47
528.40	434.14
528.76	438.92
529.12	444.01
529.48	449.19
529.84	454.28
530.20	459.53
530.56	465.10
530.91	470.61
531.27	476.26
531.63	481.74
531.99	487.51
532.35	493.05
532.71	498.59
533.07	504.31
533.42	510.37
533.78	516.42
534.14	522.53
534.50	528.47
534.86	534.72
535.21	540.72
535.57	547.15
535.93	553.51
536.29	559.87
536.65	566.21
537.00	572.30
537.36	578.68
537.72	585.32
538.08	591.78
538.44	597.98
538.79	604.29
539.15	610.85
539.51	617.42
539.87	624.25
540.22	631.21
540.58	638.03
540.94	644.73
541.29	651.25
541.65	657.91
542.01	664.99
542.37	671.83
542.72	678.62
543.08	685.36
543.44	692.34
543.79	699.06
544.15	705.74
544.51	712.94
544.87	719.76
545.22	726.40
545.58	733.05
545.94	739.84
546.29	746.76
546.65	753.17
547.01	759.68
547.36	766.30
547.72	772.58
548.07	779.03
548.43	785.24
548.79	791.68
549.14	797.97
549.50	803.95
549.86	810.16
550.21	816.23
550.57	822.48
550.92	828.52
551.28	834.70
551.64	840.84
551.99	847.09
552.35	853.20
552.70	859.23
553.06	865.20
553.41	871.28
553.77	877.42
554.13	883.95
554.48	890.05
554.84	895.95
555.19	902.05
555.55	908.03
555.90	913.93
556.26	919.68
556.61	925.71
556.97	931.43
557.32	936.85
557.68	942.45
558.03	948.04
558.39	953.22
558.74	958.87
559.10	964.17
559.45	969.21
559.81	974.90
560.16	979.92
560.52	985.18
560.87	990.41
561.23	994.85
561.58	999.80
561.94	1004.66
562.29	1009.20
562.64	1013.63
563.00	1018.24
563.35	1023.33
563.71	1028.32
564.06	1032.92
564.42	1037.51
564.77	1042.22
565.12	1046.73
565.48	1050.99
565.83	1055.44
566.19	1059.71
566.54	1063.93
566.89	1068.17
567.25	1071.85
567.60	1076.10
567.96	1080.26
568.31	1083.90
568.66	1087.99
569.02	1091.11
569.37	1094.39
569.72	1097.77
570.08	1101.09
570.43	1104.33
570.78	1106.87
571.14	1109.51
571.49	1112.20
571.84	1115.40
572.20	1118.00
572.55	1120.66
572.90	1122.92
573.26	1125.45
573.61	1127.69
573.96	1129.68
574.31	1131.13
574.67	1132.40
575.02	1133.60
575.37	1134.80
575.72	1136.08
576.08	1137.46
576.43	1138.88
576.78	1140.10
577.13	1141.62
577.49	1142.80
577.84	1143.78
578.19	1144.77
578.54	1145.50
578.90	1145.81
579.25	1145.84
579.60	1145.74
579.95	1145.90
580.30	1145.89
580.66	1145.70
581.01	1145.44
581.36	1145.59
581.71	1145.77
582.06	1145.86
582.42	1146.15
582.77	1145.90
583.12	1145.77
583.47	1145.66
583.82	1145.65
584.17	1145.31
584.53	1145.05
584.88	1144.95
585.23	1144.52
585.58	1144.04
585.93	1143.24
586.28	1143.39
586.63	1143.04
586.98	1142.97
587.34	1142.22
587.69	1142.14
588.04	1141.75
588.39	1141.49
588.74	1140.28
589.09	1139.52
589.44	1138.55
589.79	1137.56
590.14	1137.02
590.49	1135.62
590.84	1134.30
591.19	1132.98
591.54	1131.60
591.89	1129.52
592.25	1128.10
592.60	1125.87
592.95	1123.97
593.30	1122.45
593.65	1120.40
594.00	1118.12
594.35	1116.57
594.70	1114.51
595.05	1112.45
595.40	1110.35
595.75	1107.93
596.10	1106.30
596.45	1104.28
596.80	1102.89
597.15	1101.04
597.50	1098.65
597.85	1097.37
598.19	1095.37
598.54	1093.59
598.89	1091.34
599.24	1089.69
599.59	1087.31
599.94	1085.81
600.29	1084.15
600.64	1082.10
600.99	1079.55
601.34	1077.58
601.69	1075.00
602.04	1073.17
602.39	1070.63
602.74	1068.57
603.08	1066.57
603.43	1064.73
603.78	1062.34
604.13	1059.88
604.48	1057.41
604.83	1054.93
605.18	1052.41
605.53	1049.61
605.87	1046.27
606.22	1044.06
606.57	1041.48
606.92	1038.94
607.27	1036.46
607.62	1033.62
607.96	1031.17
608.31	1028.92
608.66	1026.09
609.01	1023.29
609.36	1019.92
609.70	1016.73
610.05	1013.26
610.40	1009.80
610.75	1006.21
611.10	1002.97
611.44	999.09
611.79	995.89
612.14	992.46
612.49	988.20
612.83	984.61
613.18	981.56
613.53	977.91
613.88	973.90
614.22	970.22
614.57	966.25
614.92	962.37
615.27	958.79
615.61	954.79
615.96	951.31
616.31	947.69
616.65	944.53
617.00	941.22
617.35	938.18
617.70	934.65
618.04	930.76
618.39	927.14
618.74	923.90
619.08	919.70
619.43	916.17
619.78	912.96
620.12	909.41
620.47	905.75
620.82	901.78
621.16	898.37
621.51	894.93
621.85	891.39
622.20	887.90
622.55	884.00
622.89	880.58
623.24	877.09
623.59	873.34
623.93	869.75
624.28	866.15
624.62	862.31
624.97	859.19
625.32	855.79
625.66	852.37
626.01	848.80
626.35	845.46
626.70	841.86
627.04	838.74
627.39	835.02
627.73	831.18
628.08	827.96
628.43	824.40
628.77	820.70
629.12	816.95
629.46	813.47
629.81	809.61
630.15	806.02
630.50	802.20
630.84	798.27
631.19	794.06
631.53	790.26
631.88	786.35
632.22	781.99
632.57	778.60
632.91	774.64
633.26	770.81
633.60	766.99
633.95	763.27
634.29	759.16
634.64	755.94
634.98	752.61
635.32	748.99
635.67	745.72
636.01	742.17
636.36	738.66
636.70	735.08
637.05	731.97
637.39	728.56
637.73	725.09
638.08	722.13
638.42	719.19
638.77	715.88
639.11	712.55
639.45	709.53
639.80	705.88
640.14	702.71
640.49	699.43
640.83	696.09
641.17	692.87
641.52	689.74
641.86	686.21
642.20	682.91
642.55	679.60
642.89	676.34
643.23	672.95
643.58	670.22
643.92	666.85
644.26	663.60
644.61	660.41
644.95	657.39
645.29	654.00
645.64	650.66
645.98	647.49
646.32	644.50
646.66	641.14
647.01	638.08
647.35	635.06
647.69	632.08
648.04	629.28
648.38	626.03
648.72	622.64
649.06	619.46
649.41	616.18
649.75	612.96
650.09	609.57
650.43	606.42
650.78	602.74
651.12	599.59
651.46	596.50
651.80	593.31
652.14	590.15
652.49	587.05
652.83	584.04
653.17	580.89
653.51	577.65
653.85	574.71
654.20	571.42
654.54	567.91
654.88	564.61
655.22	561.23
655.56	558.00
655.90	555.04
656.25	552.25
656.59	549.37
656.93	546.55
657.27	543.47
657.61	540.30
657.95	537.57
658.29	534.88
658.64	531.70
658.98	528.81
659.32	525.77
659.66	522.96
660.00	520.08
660.34	517.27
660.68	514.50
661.02	511.55
661.36	508.80
661.70	506.36
662.05	503.94
662.39	501.43
662.73	499.06
663.07	496.61
663.41	494.10
663.75	491.41
664.09	488.80
664.43	486.58
664.77	484.49
665.11	481.94
665.45	479.60
665.79	477.29
666.13	474.66
666.47	472.40
666.81	469.94
667.15	467.50
667.49	465.16
667.83	462.91
668.17	460.64
668.51	458.40
668.85	456.09
669.19	453.81
669.53	451.64
669.87	449.30
670.21	446.96
670.55	444.76
670.89	442.93
671.23	441.00
671.57	438.87
671.91	436.98
672.25	434.93
672.58	432.84
672.92	430.93
673.26	429.27
673.60	427.27
673.94	425.42
674.28	423.81
674.62	422.31
674.96	420.45
675.30	418.73
675.64	416.93
675.97	415.23
676.31	413.52
676.65	411.90
676.99	410.42
677.33	408.84
677.67	406.99
678.01	405.14
678.34	403.24
678.68	401.54
679.02	399.48
679.36	397.88
679.70	396.13
680.04	394.36
680.37	392.50
680.71	390.86
681.05	389.36
681.39	387.63
681.73	385.90
682.06	384.41
682.40	383.01
682.74	381.52
683.08	380.05
683.42	378.40
683.75	376.74
684.09	375.15
684.43	373.57
684.77	372.23
685.10	370.70
685.44	369.21
685.78	367.72
686.12	366.43
686.45	364.93
686.79	363.52
687.13	362.24
687.46	360.90
687.80	359.55
688.14	358.09
688.48	356.72
688.81	355.27
689.15	353.94
689.49	352.47
689.82	351.36
690.16	349.92
690.50	348.76
690.83	347.50
691.17	346.17
691.51	345.02
691.84	343.68
692.18	342.46
692.52	341.26
692.85	340.04
693.19	338.84
693.52	337.71
693.86	336.53
694.20	335.37
694.53	334.27
694.87	333.21
695.21	332.11
695.54	330.91
695.88	329.70
696.21	328.36
696.55	327.35
696.88	326.06
697.22	325.05
697.56	323.95
697.89	322.87
698.23	321.80
698.56	320.62
698.90	319.52
699.23	318.44
699.57	317.48
699.90	316.54
700.24	315.52
700.58	314.56
700.91	313.57
701.25	312.57
701.58	311.71
701.92	310.74
702.25	309.74
702.59	308.91
702.92	308.02
703.26	307.26
703.59	306.25
703.93	305.57
704.26	304.75
704.60	303.86
704.93	303.04
705.26	302.08
705.60	301.42
705.93	300.67
706.27	299.92
706.60	299.19
706.94	298.35
707.27	297.56
707.61	296.75
707.94	296.07
708.27	295.39
708.61	294.47
708.94	293.60
709.28	293.01
709.61	292.26
709.94	291.64
710.28	290.98
710.61	290.25
710.95	289.40
711.28	288.73
711.61	287.92
711.95	287.12
712.28	286.42
712.61	285.64
712.95	285.13
713.28	284.42
713.61	283.72
713.95	283.07
714.28	282.41
714.61	281.81
714.95	281.17
715.28	280.37
715.61	279.83
715.95	279.25
716.28	278.54
716.61	278.01
716.95	277.34
717.28	276.73
717.61	276.19
717.94	275.54
718.28	274.98
718.61	274.61
718.94	274.13
719.27	273.78
719.61	273.33
719.94	272.84
720.27	272.44
720.60	272.02
720.94	271.60
721.27	271.11
721.60	270.70
721.93	270.35
722.27	270.16
722.60	269.79
722.93	269.39
723.26	268.98
723.59	268.48
723.93	268.14
724.26	267.73
724.59	267.39
724.92	266.93
725.25	266.48
725.59	265.94
725.92	265.60
726.25	265.10
726.58	264.78
726.91	264.28
727.24	264.00
727.57	263.62
727.91	263.23
728.24	262.83
728.57	262.35
728.90	261.93
729.23	261.39
729.56	261.10
729.89	260.77
730.22	260.41
730.55	260.07
730.89	259.75
731.22	259.47
731.55	259.04
731.88	258.88
732.21	258.60
732.54	258.36
732.87	258.10
733.20	257.81
733.53	257.49
733.86	257.29
734.19	256.82
734.52	256.58
734.85	256.49
735.18	256.28
735.51	256.07
735.84	255.77
736.17	255.57
736.50	255.24
736.83	255.22
737.16	255.02
737.49	254.76
737.82	254.45
738.15	254.16
738.48	254.07
738.81	253.73
739.14	253.47
739.47	253.27
739.80	252.95
740.13	252.74
740.46	252.42
740.79	252.19
741.12	251.95
741.45	251.68
741.78	251.20
742.11	250.98
742.44	250.70
742.77	250.48
743.10	250.24
743.43	249.87
743.75	249.42
744.08	249.37
744.41	249.13
744.74	248.94
745.07	248.67
745.40	248.44
745.73	248.30
746.06	248.12
746.39	247.84
746.71	247.60
747.04	247.35
747.37	247.03
747.70	246.78
748.03	246.65
748.36	246.46
748.68	246.38
749.01	246.09
749.34	245.95
749.67	245.74
750.00	245.51
750.33	245.51
750.65	245.28
750.98	244.85
751.31	244.65
751.64	244.47
751.97	244.37
752.29	244.12
752.62	243.93
752.95	243.74
753.28	243.54
753.60	243.33
753.93	243.26
754.26	243.12
754.59	242.90
754.91	242.62
755.24	242.47
755.57	242.24
755.90	242.02
756.22	241.75
756.55	241.56
756.88	241.45
757.20	241.23
757.53	241.04
757.86	240.83
758.19	240.68
758.51	240.48
758.84	240.21
759.17	240.04
759.49	239.83
759.82	239.80
760.15	239.70
760.47	239.52
760.80	239.31
761.13	239.33
761.45	239.13
761.78	239.06
762.11	238.84
762.43	238.66
762.76	238.58
763.08	238.51
763.41	238.42
763.74	238.26
764.06	238.08
764.39	237.96
764.71	237.82
765.04	237.69
765.37	237.59
765.69	237.55
766.02	237.33
766.34	237.21
766.67	236.94
767.00	236.87
767.32	236.98
767.65	236.95
767.97	236.72
768.30	236.74
768.62	236.61
768.95	236.50
769.27	236.38
769.60	236.41
769.92	236.26
770.25	236.13
770.57	236.01
770.90	235.85
771.22	235.82
771.55	235.79
771.87	235.79
772.20	235.65
772.52	235.70
772.85	236.01
773.17	236.00
773.50	235.82
773.82	235.74
774.15	235.52
774.47	235.46
774.80	235.45
775.12	235.27
775.45	235.25
775.77	235.21
776.09	235.20
776.42	235.11
776.74	235.06
777.07	235.00
777.39	234.95
777.72	234.98
778.04	234.88
778.36	234.79
778.69	234.72
779.01	234.68
779.33	234.54
779.66	234.19
779.98	234.13
780.31	234.10
780.63	233.99
780.95	234.07
781.28	234.00
781.60	233.86
781.92	233.90
782.25	233.80
782.57	233.74
782.89	233.67
783.22	233.59
783.54	233.60
783.86	233.52
784.19	233.45
784.51	233.44
784.83	233.35
785.16	233.31
785.48	233.19
785.80	233.21
786.12	233.16
786.45	233.13
786.77	233.05
787.09	233.08
787.42	233.02
787.74	232.89
788.06	232.67
788.38	232.78
788.71	232.75
789.03	232.74
789.35	232.70
789.67	232.58
789.99	232.51
790.32	232.44
790.64	232.49
790.96	232.56
791.28	232.40
791.61	232.42
791.93	232.37
792.25	232.32
792.57	232.31
792.89	232.19
793.21	232.17
793.54	232.11
793.86	232.00
794.18	232.04
794.50	231.96
794.82	232.06
795.14	231.90
795.47	231.81
795.79	231.81
796.11	231.74
796.43	231.77
796.75	231.78
797.07	231.68
797.39	231.60
797.71	231.42
798.04	231.45
798.36	231.31
798.68	231.33
799.00	231.33
799.32	231.28
799.64	231.31
799.96	231.27
800.28	231.23
800.60	231.30
800.92	231.22
801.24	231.17
801.56	231.24
801.89	231.24
802.21	231.24
802.53	231.02
802.85	231.07
803.17	231.12
803.49	231.03
803.81	231.09
804.13	231.01
804.45	231.05
804.77	231.02
805.09	231.14
805.41	231.09
805.73	231.06
806.05	230.94
806.37	230.87
806.69	230.83
807.01	230.79
807.33	230.86
807.65	230.75
807.97	230.89
808.28	230.72
808.60	230.65
808.92	230.59
809.24	230.72
809.56	230.72
809.88	230.68
810.20	230.63
810.52	230.58
810.84	230.55
811.16	230.52
811.48	230.49
811.80	230.46
812.12	230.47
812.43	230.57
812.75	230.60
813.07	230.66
813.39	230.63
813.71	230.62
814.03	230.49
814.35	230.61
814.67	230.51
814.98	230.55
815.30	230.62
815.62	230.62
815.94	230.51
816.26	230.60
816.58	230.50
816.89	230.57
817.21	230.62
817.53	230.68
817.85	230.74
818.17	230.70
818.48	230.68
818.80	230.68
819.12	230.54
819.44	230.61
819.76	230.56
820.07	230.57
820.39	230.60
820.71	230.53
821.03	230.42
821.34	230.36
821.66	230.34
821.98	230.28
822.30	230.21
822.61	230.34
822.93	230.16
823.25	230.14
823.57	230.11
823.88	230.05
824.20	229.98
824.52	229.85
824.83	229.90
825.15	229.78
825.47	229.65
825.79	229.70
826.10	229.71
826.42	229.67
826.74	229.71
827.05	229.64
827.37	229.68
827.69	229.69
828.00	229.66
828.32	229.50
828.64	229.52
828.95	229.70
829.27	229.65
829.58	229.62
829.90	229.78
830.22	229.75
830.53	229.64
830.85	229.69
831.17	229.59
831.48	229.55
831.80	229.69
832.11	229.80
832.43	229.70
832.75	229.53
833.06	229.47
833.38	229.28
833.69	229.22
834.01	229.18
834.32	229.16
834.64	229.12
834.96	229.18
835.27	229.11
835.59	228.88
835.90	228.76
836.22	228.77
836.53	228.52
836.85	228.54
837.16	228.69
837.48	228.61
837.79	228.79
838.11	228.76
838.42	228.61
838.74	228.63
839.05	228.62
839.37	228.63
839.68	228.58
840.00	228.63
840.31	228.67
840.63	228.71
840.94	228.64
841.26	228.61
841.57	228.58
841.88	228.58
842.20	228.55
842.51	228.60
842.83	228.60
843.14	228.78
843.46	228.75
843.77	228.66
844.08	228.65
844.40	228.53
844.71	228.46
845.03	228.57
845.34	228.46
845.65	228.35
845.97	228.30
846.28	228.32
846.60	228.17
846.91	228.06
847.22	228.02
847.54	228.10
847.85	228.20
848.16	228.26
848.48	228.33
848.79	228.49
849.10	228.50
849.42	228.50
849.73	228.33
850.04	228.23
850.36	228.18
850.67	228.17
850.98	228.13
851.30	228.22
851.61	228.17
851.92	228.16
852.23	228.30
852.55	228.34
852.86	228.47
853.17	228.62
853.49	228.70
853.80	228.71
854.11	228.70
854.42	228.70
854.74	228.62
855.05	228.55
855.36	228.43
855.67	228.50
855.99	228.50
856.30	228.72
856.61	228.77
856.92	228.88
857.23	228.98
857.55	229.05
857.86	229.06
858.17	229.02
858.48	229.04
858.79	229.06
859.11	229.05
859.42	228.90
859.73	228.99
860.04	229.04
860.35	229.01
860.66	228.98
860.98	228.92
861.29	228.97
861.60	228.90
861.91	228.96
862.22	228.95
862.53	229.00
862.84	228.78
863.16	228.92
863.47	228.85
863.78	228.87
864.09	228.84
864.40	228.79
864.71	228.88
865.02	228.87
865.33	228.86
865.64	228.86
865.95	228.92
866.27	228.98
866.58	229.05
866.89	229.06
867.20	229.04
867.51	229.05
867.82	229.09
868.13	229.17
868.44	229.07
868.75	229.02
869.06	229.00
869.37	229.04
869.68	228.90
869.99	228.97
870.30	228.90
870.61	228.94
870.92	229.00
871.23	228.90
871.54	228.91
871.85	228.92
872.16	228.89
872.47	228.89
872.78	228.78
873.09	228.65
873.40	228.58
873.71	228.54
874.02	228.45
874.33	228.39
874.64	228.36
874.95	228.44
875.26	228.41
875.56	228.39
875.87	228.37
876.18	228.31
876.49	228.43
876.80	228.34
877.11	228.29
877.42	228.26
877.73	228.24
878.04	228.13
878.35	228.09
878.66	228.13
878.96	228.07
879.27	228.00
879.58	228.06
879.89	228.17
880.20	228.30
880.51	228.30
880.82	228.33
881.12	228.38
881.43	228.33
881.74	228.25
882.05	228.18
882.36	228.18
882.67	228.17
882.97	227.92
883.28	227.94
883.59	227.97
883.90	227.89
884.21	227.97
884.51	228.08
884.82	228.02
885.13	228.09
885.44	228.04
885.74	228.10
886.05	227.97
886.36	227.80
886.67	227.63
886.98	227.73
887.28	227.70
887.59	227.65
887.90	227.64
888.20	227.68
888.51	227.76
888.82	227.76
889.13	227.88
889.43	228.05
889.74	227.95
890.05	227.91
890.35	227.93
890.66	227.89
890.97	227.91
891.28	227.97
891.58	227.93
891.89	227.97
892.20	227.98
892.50	228.04
892.81	228.25
893.12	228.32
893.42	228.33
893.73	228.38
894.04	228.44
894.34	228.47
894.65	228.46
894.95	228.44
895.26	228.41
895.57	228.46
895.87	228.37
896.18	228.53
896.48	228.60
896.79	228.59
897.10	228.68
897.40	228.64
897.71	228.67
898.01	228.68
898.32	228.80
898.63	228.82
898.93	228.93
899.24	228.96
899.54	229.00
899.85	229.01
900.15	229.04
900.46	229.05
900.76	229.08
901.07	229.02
901.38	229.06
901.68	229.17
901.99	229.14
902.29	229.20
902.60	229.14
902.90	229.10
903.21	229.14
903.51	229.16
903.82	229.25
904.12	229.32
904.43	229.26
904.73	229.24
905.03	229.21
905.34	229.30
905.64	229.20
905.95	229.18
906.25	229.21
906.56	229.26
906.86	229.20
907.17	229.11
907.47	229.25
907.77	229.21
908.08	229.18
908.38	229.16
908.69	229.05
908.99	229.15
909.30	229.16
909.60	229.15
909.90	229.09
910.21	228.92
910.51	228.87
910.81	228.94
911.12	228.97
911.42	228.96
911.73	228.79
912.03	228.80
912.33	228.79
912.64	228.80
912.94	228.70
913.24	228.61
913.55	228.71
913.85	228.59
914.15	228.52
914.46	228.50
914.76	228.37
915.06	228.39
915.37	228.31
915.67	228.20
915.97	228.19
916.27	228.20
916.58	228.30
916.88	228.20
917.18	228.18
917.49	228.31
917.79	228.27
918.09	228.25
918.39	228.33
918.70	228.27
919.00	228.22
919.30	228.29
919.60	228.41
919.91	228.30
920.21	228.33
920.51	228.32
920.81	228.31
921.12	228.42
921.42	228.32
921.72	228.38
922.02	228.52
922.32	228.51
922.63	228.47
922.93	228.52
923.23	228.60
923.53	228.53
923.83	228.39
924.13	228.50
924.44	228.55
924.74	228.60
925.04	228.64
925.34	228.63
925.64	228.56
925.94	228.57
926.24	228.70
926.55	228.68
926.85	228.78
927.15	228.77
927.45	228.75
927.75	228.88
928.05	228.88
928.35	228.78
928.65	228.85
928.95	228.87
929.26	228.78
929.56	228.71
929.86	228.72
930.16	228.68
930.46	228.64
930.76	228.63
931.06	228.56
931.36	228.62
931.66	228.57
931.96	228.56
932.26	228.63
932.56	228.54
932.86	228.62
933.16	228.70
933.46	228.65
933.76	228.66
934.06	228.61
934.36	228.76
934.66	228.80
934.96	228.72
935.26	228.63
935.56	228.67
935.86	228.71
936.16	228.72
936.46	228.69
936.76	228.68
937.06	228.66
937.36	228.62
937.66	228.65
937.96	228.81
938.26	228.84
938.56	228.72
938.86	228.83
939.16	228.79
939.46	228.84
939.76	228.75
940.06	228.78
940.35	228.84
940.65	228.67
940.95	228.69
941.25	228.69
941.55	228.75
941.85	228.78
942.15	228.83
942.45	228.94
942.75	228.99
943.04	228.94
943.34	228.94
943.64	228.94
943.94	228.89
944.24	228.85
944.54	228.85
944.84	228.92
945.13	228.77
945.43	228.70
945.73	228.54
946.03	228.59
946.33	228.57
946.62	228.51
946.92	228.51
947.22	228.48
947.52	228.54
947.82	228.51
948.11	228.38
948.41	228.28
948.71	228.20
949.01	228.15
949.31	228.15
949.60	228.16
949.90	228.14
950.20	228.00
950.50	227.96
950.79	227.96
951.09	227.86
951.39	227.90
951.69	227.92
951.98	227.92
952.28	228.02
952.58	227.93
952.87	227.81
953.17	227.71
953.47	227.70
953.76	227.60
954.06	227.66
954.36	227.63
954.66	227.60
954.95	227.54
955.25	227.53
955.55	227.50
955.84	227.37
956.14	227.29
956.44	227.36
956.73	227.19
957.03	227.08
957.32	227.04
957.62	227.10
957.92	227.18
958.21	227.13
958.51	227.32
958.81	227.31
959.10	227.41
959.40	227.50
959.69	227.51
959.99	227.60
960.29	227.54
960.58	227.56
960.88	227.74
961.17	227.72
961.47	227.83
961.76	227.83
962.06	227.89
962.36	227.96
962.65	227.94
962.95	227.96
963.24	228.05
963.54	228.12
963.83	228.00
964.13	228.03
964.42	228.08
964.72	227.88
965.01	227.94
965.31	227.85
965.60	227.75
965.90	227.92
966.19	227.85
966.49	227.84
966.78	227.92
967.08	227.78
967.37	227.77
967.67	227.71
967.96	227.75
968.26	227.85
968.55	227.83
968.85	227.90
969.14	227.94
969.43	227.88
969.73	227.87
970.02	227.88
970.32	227.89
970.61	227.81
970.91	227.83
971.20	227.78
971.49	227.90
971.79	227.98
972.08	227.79
972.38	227.76
972.67	227.75
972.96	227.72
973.26	227.72
973.55	227.86
973.85	227.92
974.14	227.87
974.43	227.78
974.73	227.79
975.02	227.73
975.31	227.82
975.61	227.85
975.90	227.88
976.19	227.79
976.49	227.73
976.78	227.73
977.07	227.63
977.37	227.71
977.66	227.68
977.95	227.65
978.24	227.68
978.54	227.80
978.83	227.89
979.12	227.88
979.42	227.94
979.71	227.81
980.00	227.77
980.29	227.88
980.59	227.88
980.88	227.91
981.17	227.97
981.46	227.91
981.76	227.90
982.05	227.86
982.34	228.09
982.63	228.13
982.93	228.07
983.22	228.23
983.51	228.32
983.80	228.42
984.09	228.52
984.39	228.53
984.68	228.42
984.97	228.40
985.26	228.46
985.55	228.44
985.85	228.47
986.14	228.46
986.43	228.42
986.72	228.41
987.01	228.37
987.30	228.21
987.59	228.23
987.89	228.27
988.18	228.28
988.47	228.20
988.76	228.24
989.05	228.30
989.34	228.08
989.63	228.00
989.92	227.85
990.22	227.87
990.51	227.73
990.80	227.75
991.09	227.84
991.38	227.80
991.67	227.81
991.96	227.82
992.25	227.76
992.54	227.65
992.83	227.61
993.12	227.55
993.41	227.67
993.70	227.73
993.99	227.77
994.28	227.79
994.58	227.83
994.87	227.72
995.16	227.72
995.45	227.87
995.74	227.74
996.03	227.82
996.32	227.80
996.61	227.88
996.90	228.04
997.19	227.94
997.48	227.97
997.77	227.96
998.06	227.94
998.34	228.01
998.63	228.10
998.92	228.12
999.21	228.20
999.50	228.13
999.79	228.07
1000.08	228.09
1000.37	227.98
1000.66	227.83
1000.95	228.00
1001.24	228.03
1001.53	228.06
1001.82	228.05
1002.11	227.94
1002.40	227.89
1002.68	227.95
1002.97	227.98
1003.26	227.95
1003.55	227.92
1003.84	227.93
1004.13	228.10
1004.42	228.00
1004.71	228.01
1004.99	227.97
1005.28	227.94
1005.57	227.98
1005.86	227.99
1006.15	227.95
1006.44	227.98
1006.72	228.13
1007.01	227.95
1007.30	228.03
1007.59	227.97
1007.88	228.07
1008.17	228.12
1008.45	228.15
1008.74	228.07
1009.03	227.96
1009.32	228.01
1009.60	227.99
1009.89	227.94
1010.18	227.81
1010.47	227.88
1010.76	227.89
1011.04	227.89
1011.33	228.03
1011.62	228.09
1011.91	228.06
1012.19	228.01
1012.48	228.05
1012.77	228.03
1013.05	228.18
1013.34	228.13
1013.63	228.16
1013.92	228.20
1014.20	228.20
1014.49	228.10
1014.78	228.14
1015.06	228.10
1015.35	227.98
1015.64	228.07
1015.92	228.07
1016.21	227.98
1016.50	227.96
1016.78	227.94
1017.07	227.99
1017.36	227.84
1017.64	227.83
1017.93	227.90
1018.22	227.83
1018.50	227.80
1018.79	227.79
1019.08	227.71
1019.36	227.70
1019.65	227.63
1019.93	227.68
1020.22	227.71
1020.51	227.87
1020.79	227.88
1021.08	226.40
1021.36	226.70
1021.65	228.30
1021.94	228.70
1022.22	227.70
1022.51	227.20
1022.79	229.60
1023.08	228.00
1023.36	230.20
1023.65	228.00
>>>>>End Processed Spectral Data<<<<<
