SpectraSuite Data File
++++++++++++++++++++++++++++++++++++
Date: Fri Feb 01 14:34:23 EST 2013
User: group
Dark Spectrum Present: No
Reference Spectrum Present: No
Number of Sampled Component Spectra: 1
Spectrometers: USB2E7196
Integration Time (usec): 70000 (USB2E7196)
Spectra Averaged: 10 (USB2E7196)
Boxcar Smoothing: 10 (USB2E7196)
Correct for Electrical Dark: No (USB2E7196)
Strobe/Lamp Enabled: No (USB2E7196)
Correct for Detector Non-linearity: No (USB2E7196)
Correct for Stray Light: No (USB2E7196)
Number of Pixels in Processed Spectrum: 2048
>>>>>Begin Processed Spectral Data<<<<<
339.09	0.00
339.48	215.20
339.86	218.30
340.24	218.00
340.63	219.00
341.01	225.20
341.39	223.80
341.78	226.40
342.16	224.70
342.54	227.10
342.93	214.57
343.31	225.48
343.69	226.01
344.07	226.52
344.46	227.08
344.84	227.54
345.22	227.71
345.60	227.88
345.99	228.04
346.37	228.24
346.75	228.36
347.13	228.45
347.52	228.56
347.90	228.76
348.28	228.90
348.66	229.01
349.05	228.89
349.43	228.92
349.81	229.10
350.19	229.23
350.57	229.29
350.96	229.36
351.34	229.40
351.72	229.50
352.10	229.43
352.48	229.41
352.87	229.50
353.25	229.50
353.63	229.67
354.01	229.76
354.39	229.86
354.77	229.81
355.15	229.95
355.54	229.89
355.92	229.83
356.30	229.83
356.68	230.00
357.06	230.08
357.44	230.10
357.82	230.11
358.20	230.11
358.58	230.22
358.97	230.26
359.35	230.30
359.73	230.38
360.11	230.54
360.49	230.60
360.87	230.65
361.25	230.79
361.63	230.84
362.01	230.80
362.39	230.81
362.77	230.95
363.15	230.99
363.53	231.00
363.91	231.08
364.29	231.21
364.67	230.95
365.05	231.02
365.43	231.09
365.81	231.16
366.19	231.32
366.57	231.33
366.95	231.29
367.33	231.29
367.71	231.23
368.09	231.21
368.47	231.25
368.85	231.09
369.23	231.07
369.61	231.02
369.99	231.00
370.37	230.91
370.75	230.85
371.13	230.72
371.51	230.71
371.89	230.66
372.27	230.50
372.65	230.43
373.03	230.29
373.41	230.10
373.78	229.97
374.16	229.75
374.54	229.56
374.92	229.50
375.30	229.33
375.68	229.28
376.06	229.17
376.44	228.96
376.82	228.88
377.19	228.76
377.57	228.61
377.95	228.47
378.33	228.41
378.71	228.22
379.09	228.22
379.47	228.08
379.84	227.96
380.22	227.88
380.60	227.86
380.98	227.85
381.36	227.89
381.73	227.69
382.11	227.66
382.49	227.61
382.87	227.54
383.25	227.46
383.62	227.59
384.00	227.51
384.38	227.49
384.76	227.53
385.13	227.50
385.51	227.55
385.89	227.49
386.27	227.40
386.64	227.49
387.02	227.29
387.40	227.13
387.78	227.12
388.15	227.07
388.53	226.94
388.91	226.91
389.29	226.84
389.66	226.90
390.04	226.92
390.42	227.00
390.79	227.00
391.17	227.00
391.55	226.83
391.92	226.90
392.30	226.94
392.68	226.98
393.05	227.00
393.43	226.96
393.81	227.03
394.18	227.10
394.56	227.20
394.94	227.38
395.31	227.54
395.69	227.73
396.06	227.89
396.44	228.07
396.82	228.14
397.19	228.40
397.57	228.57
397.95	228.64
398.32	228.68
398.70	228.81
399.07	229.08
399.45	229.20
399.82	229.40
400.20	229.66
400.58	229.82
400.95	229.93
401.33	230.15
401.70	230.48
402.08	230.68
402.45	230.81
402.83	231.12
403.20	231.36
403.58	231.51
403.95	231.83
404.33	232.16
404.71	232.42
405.08	232.69
405.46	232.94
405.83	233.29
406.21	233.74
406.58	234.09
406.96	234.50
407.33	235.03
407.70	235.43
408.08	236.04
408.45	236.62
408.83	237.23
409.20	237.80
409.58	238.26
409.95	239.01
410.33	239.74
410.70	240.36
411.08	241.21
411.45	242.14
411.82	243.06
412.20	243.99
412.57	245.13
412.95	246.19
413.32	247.56
413.69	248.85
414.07	250.17
414.44	251.61
414.82	253.01
415.19	254.62
415.56	256.33
415.94	257.96
416.31	259.99
416.68	262.01
417.06	264.29
417.43	266.50
417.81	268.91
418.18	271.45
418.55	274.32
418.93	277.12
419.30	279.99
419.67	283.06
420.04	286.25
420.42	289.59
420.79	293.37
421.16	297.07
421.54	300.93
421.91	304.93
422.28	309.29
422.66	313.93
423.03	318.32
423.40	322.81
423.77	327.81
424.15	332.77
424.52	337.88
424.89	343.61
425.26	349.07
425.64	354.25
426.01	360.00
426.38	365.89
426.75	371.92
427.13	378.11
427.50	384.67
427.87	391.54
428.24	398.48
428.61	405.02
428.99	412.11
429.36	420.00
429.73	427.73
430.10	435.17
430.47	442.67
430.85	450.71
431.22	459.20
431.59	468.02
431.96	476.66
432.33	486.28
432.70	495.32
433.08	506.20
433.45	516.41
433.82	526.38
434.19	537.54
434.56	548.46
434.93	558.95
435.30	569.24
435.68	580.63
436.05	592.10
436.42	603.31
436.79	613.40
437.16	624.47
437.53	636.21
437.90	647.86
438.27	659.35
438.64	671.31
439.01	682.36
439.38	692.22
439.75	701.74
440.13	712.58
440.50	722.71
440.87	731.33
441.24	740.07
441.61	749.98
441.98	757.32
442.35	765.92
442.72	774.63
443.09	783.32
443.46	789.18
443.83	792.82
444.20	796.47
444.57	801.69
444.94	804.49
445.31	807.28
445.68	810.26
446.05	812.30
446.42	812.49
446.79	812.45
447.16	812.17
447.53	812.41
447.90	809.49
448.27	806.64
448.64	801.53
449.01	798.79
449.37	792.24
449.74	785.95
450.11	778.36
450.48	770.08
450.85	761.38
451.22	754.08
451.59	747.38
451.96	740.91
452.33	731.56
452.70	723.34
453.07	713.10
453.43	702.56
453.80	692.25
454.17	682.26
454.54	673.00
454.91	663.09
455.28	653.02
455.65	643.70
456.02	634.30
456.38	626.61
456.75	616.29
457.12	608.00
457.49	599.81
457.86	591.83
458.23	584.66
458.59	576.75
458.96	568.66
459.33	561.39
459.70	554.35
460.07	548.73
460.43	542.01
460.80	535.82
461.17	530.08
461.54	524.44
461.91	518.95
462.27	513.32
462.64	508.48
463.01	503.29
463.38	498.16
463.74	493.18
464.11	488.67
464.48	484.86
464.85	480.58
465.21	477.11
465.58	473.49
465.95	469.22
466.32	465.90
466.68	462.34
467.05	458.91
467.42	455.14
467.78	451.52
468.15	448.07
468.52	445.48
468.88	442.42
469.25	439.42
469.62	437.00
469.98	434.39
470.35	431.88
470.72	429.47
471.08	427.00
471.45	424.65
471.82	422.20
472.18	419.67
472.55	417.80
472.92	415.81
473.28	413.83
473.65	412.09
474.02	410.08
474.38	408.42
474.75	407.07
475.11	405.65
475.48	404.47
475.85	403.50
476.21	402.60
476.58	401.74
476.94	400.92
477.31	400.15
477.67	399.57
478.04	399.04
478.41	398.52
478.77	398.21
479.14	397.86
479.50	397.76
479.87	397.71
480.23	397.73
480.60	397.38
480.96	397.40
481.33	397.67
481.69	397.90
482.06	398.00
482.42	398.14
482.79	398.57
483.15	399.00
483.52	399.55
483.88	400.02
484.25	400.56
484.61	401.49
484.98	402.17
485.34	403.04
485.71	404.04
486.07	405.39
486.44	406.39
486.80	407.73
487.17	409.00
487.53	410.67
487.90	412.12
488.26	414.08
488.62	415.97
488.99	417.73
489.35	419.60
489.72	421.80
490.08	424.06
490.44	426.32
490.81	428.73
491.17	431.32
491.54	433.90
491.90	436.56
492.26	439.18
492.63	442.25
492.99	444.99
493.36	447.92
493.72	451.10
494.08	454.38
494.45	457.75
494.81	461.46
495.17	465.12
495.54	468.89
495.90	472.66
496.26	476.35
496.63	480.30
496.99	484.41
497.35	488.56
497.72	492.69
498.08	497.06
498.44	501.33
498.80	505.88
499.17	510.31
499.53	514.88
499.89	519.50
500.26	523.99
500.62	528.58
500.98	533.49
501.34	538.15
501.71	543.14
502.07	547.78
502.43	552.27
502.79	556.60
503.16	561.35
503.52	565.98
503.88	570.81
504.24	575.70
504.60	580.70
504.97	585.65
505.33	590.70
505.69	595.67
506.05	600.37
506.41	604.85
506.78	609.47
507.14	614.20
507.50	618.75
507.86	623.28
508.22	628.09
508.59	632.49
508.95	637.13
509.31	641.78
509.67	646.50
510.03	651.12
510.39	655.84
510.75	660.33
511.12	664.60
511.48	668.68
511.84	672.76
512.20	676.76
512.56	680.85
512.92	684.80
513.28	688.58
513.64	692.56
514.00	696.47
514.37	700.47
514.73	704.01
515.09	707.83
515.45	711.59
515.81	714.99
516.17	718.49
516.53	721.75
516.89	724.54
517.25	727.56
517.61	730.71
517.97	733.49
518.33	736.17
518.69	739.09
519.05	742.22
519.41	745.18
519.77	748.18
520.13	750.70
520.49	753.41
520.85	756.13
521.21	758.72
521.57	761.33
521.93	763.50
522.29	766.17
522.65	768.46
523.01	770.63
523.37	772.69
523.73	775.11
524.09	777.00
524.45	779.46
524.81	781.65
525.17	783.70
525.53	786.26
525.89	788.73
526.25	791.27
526.61	793.13
526.97	795.25
527.33	797.17
527.68	799.71
528.04	801.49
528.40	803.38
528.76	805.66
529.12	807.89
529.48	810.45
529.84	812.47
530.20	814.66
530.56	817.33
530.91	820.07
531.27	822.47
531.63	824.89
531.99	827.00
532.35	829.35
532.71	831.60
533.07	833.85
533.42	836.18
533.78	838.46
534.14	841.03
534.50	843.35
534.86	845.93
535.21	847.91
535.57	850.55
535.93	853.31
536.29	855.65
536.65	857.98
537.00	859.83
537.36	862.30
537.72	864.89
538.08	866.99
538.44	869.27
538.79	871.42
539.15	873.60
539.51	876.18
539.87	878.82
540.22	881.43
540.58	884.10
540.94	886.42
541.29	888.53
541.65	891.08
542.01	893.58
542.37	896.07
542.72	898.80
543.08	901.14
543.44	903.38
543.79	905.50
544.15	907.95
544.51	911.02
544.87	913.59
545.22	916.10
545.58	918.50
545.94	920.69
546.29	923.00
546.65	925.87
547.01	928.28
547.36	930.55
547.72	932.90
548.07	935.12
548.43	937.55
548.79	939.88
549.14	942.17
549.50	944.54
549.86	946.46
550.21	948.39
550.57	950.91
550.92	953.49
551.28	956.02
551.64	958.42
551.99	960.50
552.35	962.64
552.70	964.91
553.06	967.75
553.41	970.46
553.77	972.99
554.13	975.48
554.48	977.86
554.84	980.05
555.19	982.18
555.55	984.50
555.90	986.72
556.26	989.38
556.61	991.53
556.97	993.71
557.32	996.21
557.68	998.28
558.03	1000.52
558.39	1002.32
558.74	1004.87
559.10	1006.87
559.45	1009.42
559.81	1012.23
560.16	1014.39
560.52	1016.18
560.87	1018.20
561.23	1019.93
561.58	1022.06
561.94	1024.05
562.29	1025.93
562.64	1027.97
563.00	1029.56
563.35	1031.68
563.71	1033.87
564.06	1036.04
564.42	1038.18
564.77	1040.19
565.12	1042.80
565.48	1044.57
565.83	1046.55
566.19	1048.10
566.54	1049.79
566.89	1051.17
567.25	1052.33
567.60	1054.16
567.96	1055.52
568.31	1057.01
568.66	1058.61
569.02	1059.36
569.37	1060.48
569.72	1061.68
570.08	1063.00
570.43	1064.41
570.78	1065.16
571.14	1065.82
571.49	1066.38
571.84	1067.35
572.20	1067.73
572.55	1068.15
572.90	1068.46
573.26	1068.98
573.61	1069.20
573.96	1069.58
574.31	1069.45
574.67	1069.42
575.02	1068.92
575.37	1068.68
575.72	1068.13
576.08	1067.94
576.43	1067.96
576.78	1067.51
577.13	1067.44
577.49	1067.13
577.84	1066.70
578.19	1066.44
578.54	1065.75
578.90	1065.42
579.25	1063.92
579.60	1063.15
579.95	1061.69
580.30	1061.00
580.66	1060.00
581.01	1058.80
581.36	1057.61
581.71	1056.62
582.06	1055.52
582.42	1054.38
582.77	1053.09
583.12	1051.91
583.47	1050.84
583.82	1049.62
584.17	1048.30
584.53	1046.89
584.88	1045.27
585.23	1043.84
585.58	1042.23
585.93	1040.62
586.28	1039.17
586.63	1038.00
586.98	1036.80
587.34	1035.82
587.69	1034.41
588.04	1032.87
588.39	1031.53
588.74	1029.52
589.09	1027.61
589.44	1025.68
589.79	1023.99
590.14	1022.61
590.49	1020.67
590.84	1018.60
591.19	1016.54
591.54	1014.46
591.89	1011.76
592.25	1009.69
592.60	1007.09
592.95	1004.50
593.30	1001.99
593.65	999.20
594.00	996.54
594.35	994.28
594.70	991.41
595.05	988.38
595.40	985.44
595.75	982.60
596.10	980.21
596.45	977.86
596.80	975.44
597.15	972.88
597.50	970.03
597.85	967.70
598.19	965.00
598.54	962.63
598.89	960.13
599.24	958.16
599.59	955.96
599.94	953.64
600.29	951.46
600.64	948.80
600.99	946.06
601.34	943.68
601.69	940.46
602.04	937.90
602.39	935.30
602.74	933.01
603.08	930.60
603.43	928.11
603.78	925.74
604.13	923.09
604.48	920.31
604.83	917.68
605.18	915.07
605.53	912.17
605.87	908.93
606.22	906.24
606.57	903.32
606.92	900.06
607.27	897.22
607.62	894.65
607.96	892.37
608.31	889.72
608.66	886.60
609.01	883.48
609.36	879.99
609.70	876.52
610.05	872.76
610.40	869.60
610.75	866.21
611.10	862.52
611.44	858.85
611.79	855.56
612.14	852.08
612.49	848.24
612.83	844.91
613.18	841.45
613.53	837.69
613.88	834.07
614.22	830.58
614.57	826.85
614.92	822.86
615.27	819.01
615.61	815.25
615.96	811.59
616.31	808.10
616.65	805.24
617.00	802.37
617.35	799.30
617.70	795.59
618.04	792.11
618.39	788.60
618.74	785.43
619.08	781.76
619.43	778.37
619.78	775.15
620.12	771.90
620.47	768.40
620.82	765.00
621.16	761.74
621.51	758.33
621.85	755.14
622.20	751.54
622.55	748.29
622.89	745.03
623.24	741.98
623.59	739.08
623.93	735.96
624.28	732.88
624.62	729.84
624.97	726.93
625.32	723.98
625.66	721.15
626.01	718.15
626.35	715.18
626.70	712.15
627.04	709.26
627.39	705.99
627.73	703.07
628.08	700.33
628.43	697.27
628.77	694.28
629.12	691.06
629.46	688.17
629.81	684.84
630.15	681.67
630.50	678.48
630.84	674.99
631.19	671.32
631.53	667.93
631.88	664.50
632.22	661.14
632.57	658.01
632.91	654.74
633.26	651.59
633.60	648.47
633.95	645.35
634.29	642.40
634.64	639.96
634.98	637.06
635.32	634.11
635.67	631.32
636.01	628.40
636.36	625.60
636.70	623.04
637.05	620.33
637.39	617.77
637.73	615.21
638.08	612.96
638.42	610.74
638.77	608.16
639.11	605.52
639.45	602.98
639.80	600.18
640.14	597.63
640.49	594.80
640.83	592.31
641.17	589.73
641.52	586.90
641.86	583.83
642.20	581.33
642.55	578.82
642.89	576.15
643.23	573.56
643.58	571.24
643.92	568.59
644.26	566.07
644.61	563.69
644.95	561.15
645.29	558.27
645.64	555.40
645.98	552.70
646.32	550.33
646.66	547.84
647.01	545.54
647.35	543.11
647.69	540.92
648.04	538.64
648.38	536.07
648.72	533.56
649.06	531.05
649.41	528.49
649.75	525.60
650.09	523.03
650.43	520.59
650.78	517.72
651.12	515.10
651.46	512.60
651.80	509.97
652.14	507.50
652.49	505.26
652.83	503.02
653.17	500.48
653.51	498.03
653.85	495.56
654.20	493.11
654.54	490.58
654.88	487.89
655.22	485.16
655.56	482.79
655.90	480.48
656.25	478.17
656.59	475.90
656.93	473.77
657.27	471.41
657.61	469.00
657.95	466.90
658.29	464.86
658.64	462.90
658.98	460.59
659.32	458.26
659.66	456.04
660.00	453.74
660.34	451.80
660.68	449.53
661.02	447.40
661.36	445.22
661.70	443.07
662.05	441.11
662.39	439.39
662.73	437.48
663.07	435.50
663.41	433.62
663.75	431.74
664.09	429.97
664.43	428.20
664.77	426.44
665.11	424.58
665.45	422.60
665.79	420.64
666.13	418.74
666.47	416.91
666.81	415.14
667.15	413.28
667.49	411.57
667.83	410.00
668.17	408.14
668.51	406.44
668.85	404.81
669.19	403.25
669.53	401.39
669.87	399.59
670.21	397.90
670.55	396.23
670.89	394.62
671.23	393.12
671.57	391.56
671.91	390.01
672.25	388.40
672.58	386.92
672.92	385.34
673.26	384.10
673.60	382.80
673.94	381.40
674.28	380.36
674.62	378.97
674.96	377.47
675.30	376.26
675.64	374.92
675.97	373.60
676.31	372.24
676.65	371.09
676.99	370.05
677.33	368.85
677.67	367.60
678.01	366.28
678.34	364.80
678.68	363.62
679.02	362.34
679.36	361.26
679.70	360.15
680.04	359.02
680.37	357.68
680.71	356.39
681.05	355.24
681.39	353.91
681.73	352.85
682.06	351.84
682.40	350.66
682.74	349.52
683.08	348.49
683.42	347.48
683.75	346.28
684.09	345.00
684.43	343.90
684.77	342.72
685.10	341.64
685.44	340.61
685.78	339.50
686.12	338.45
686.45	337.28
686.79	336.10
687.13	334.98
687.46	333.97
687.80	333.10
688.14	331.95
688.48	330.77
688.81	329.59
689.15	328.53
689.49	327.51
689.82	326.59
690.16	325.50
690.50	324.39
690.83	323.39
691.17	322.39
691.51	321.40
691.84	320.49
692.18	319.57
692.52	318.62
692.85	317.67
693.19	316.78
693.52	315.90
693.86	315.00
694.20	314.08
694.53	313.23
694.87	312.19
695.21	311.23
695.54	310.49
695.88	309.46
696.21	308.39
696.55	307.57
696.88	306.72
697.22	305.89
697.56	305.03
697.89	304.08
698.23	303.25
698.56	302.50
698.90	301.74
699.23	300.90
699.57	300.10
699.90	299.27
700.24	298.44
700.58	297.64
700.91	296.84
701.25	296.18
701.58	295.57
701.92	294.87
702.25	294.31
702.59	293.71
702.92	293.11
703.26	292.60
703.59	291.93
703.93	291.38
704.26	290.71
704.60	290.02
704.93	289.47
705.26	288.80
705.60	288.14
705.93	287.52
706.27	287.00
706.60	286.39
706.94	285.80
707.27	285.08
707.61	284.51
707.94	283.90
708.27	283.19
708.61	282.49
708.94	281.86
709.28	281.28
709.61	280.62
709.94	280.14
710.28	279.50
710.61	278.90
710.95	278.14
711.28	277.63
711.61	277.18
711.95	276.62
712.28	276.05
712.61	275.45
712.95	274.94
713.28	274.30
713.61	273.80
713.95	273.28
714.28	272.87
714.61	272.40
714.95	271.96
715.28	271.50
715.61	271.09
715.95	270.65
716.28	270.14
716.61	269.66
716.95	269.18
717.28	268.77
717.61	268.32
717.94	267.93
718.28	267.49
718.61	267.06
718.94	266.77
719.27	266.45
719.61	266.12
719.94	265.70
720.27	265.38
720.60	264.99
720.94	264.71
721.27	264.37
721.60	263.98
721.93	263.65
722.27	263.40
722.60	262.93
722.93	262.69
723.26	262.29
723.59	261.93
723.93	261.61
724.26	261.31
724.59	261.09
724.92	260.74
725.25	260.44
725.59	260.02
725.92	259.67
726.25	259.33
726.58	259.02
726.91	258.69
727.24	258.34
727.57	258.02
727.91	257.73
728.24	257.52
728.57	257.20
728.90	256.92
729.23	256.51
729.56	256.41
729.89	256.07
730.22	255.85
730.55	255.67
730.89	255.34
731.22	255.19
731.55	254.86
731.88	254.56
732.21	254.22
732.54	254.06
732.87	253.73
733.20	253.55
733.53	253.28
733.86	253.06
734.19	252.86
734.52	252.60
734.85	252.40
735.18	252.01
735.51	251.89
735.84	251.66
736.17	251.50
736.50	251.15
736.83	251.08
737.16	250.83
737.49	250.47
737.82	250.31
738.15	250.05
738.48	249.82
738.81	249.66
739.14	249.46
739.47	249.26
739.80	249.04
740.13	248.87
740.46	248.66
740.79	248.43
741.12	248.27
741.45	248.05
741.78	247.78
742.11	247.70
742.44	247.47
742.77	247.35
743.10	247.11
743.43	246.82
743.75	246.45
744.08	246.42
744.41	246.24
744.74	246.04
745.07	245.79
745.40	245.73
745.73	245.63
746.06	245.52
746.39	245.30
746.71	245.12
747.04	244.80
747.37	244.58
747.70	244.47
748.03	244.25
748.36	244.15
748.68	243.92
749.01	243.72
749.34	243.57
749.67	243.29
750.00	243.20
750.33	243.18
750.65	243.04
750.98	242.71
751.31	242.59
751.64	242.42
751.97	242.35
752.29	242.05
752.62	241.81
752.95	241.52
753.28	241.39
753.60	241.21
753.93	241.16
754.26	241.02
754.59	240.68
754.91	240.52
755.24	240.37
755.57	240.31
755.90	240.06
756.22	239.92
756.55	239.74
756.88	239.50
757.20	239.30
757.53	239.10
757.86	239.01
758.19	238.87
758.51	238.85
758.84	238.66
759.17	238.65
759.49	238.50
759.82	238.48
760.15	238.37
760.47	238.25
760.80	238.06
761.13	237.98
761.45	237.98
761.78	237.86
762.11	237.77
762.43	237.62
762.76	237.63
763.08	237.50
763.41	237.39
763.74	237.30
764.06	237.23
764.39	237.11
764.71	236.92
765.04	236.80
765.37	236.56
765.69	236.43
766.02	236.26
766.34	236.20
766.67	236.20
767.00	236.22
767.32	236.23
767.65	236.37
767.97	236.30
768.30	236.19
768.62	236.04
768.95	236.02
769.27	235.93
769.60	235.92
769.92	235.87
770.25	235.92
770.57	235.89
770.90	235.83
771.22	235.88
771.55	235.92
771.87	235.89
772.20	235.86
772.52	236.04
772.85	236.23
773.17	236.17
773.50	236.02
773.82	235.93
774.15	235.87
774.47	235.62
774.80	235.58
775.12	235.54
775.45	235.53
775.77	235.37
776.09	235.30
776.42	235.25
776.74	235.14
777.07	234.98
777.39	234.89
777.72	234.83
778.04	234.72
778.36	234.62
778.69	234.60
779.01	234.56
779.33	234.23
779.66	233.99
779.98	233.90
780.31	233.83
780.63	233.74
780.95	233.61
781.28	233.54
781.60	233.42
781.92	233.41
782.25	233.38
782.57	233.40
782.89	233.30
783.22	233.15
783.54	233.05
783.86	233.00
784.19	232.90
784.51	232.79
784.83	232.72
785.16	232.62
785.48	232.57
785.80	232.45
786.12	232.50
786.45	232.31
786.77	232.26
787.09	232.23
787.42	232.11
787.74	232.14
788.06	232.16
788.38	232.07
788.71	231.91
789.03	231.84
789.35	231.75
789.67	231.70
789.99	231.53
790.32	231.51
790.64	231.45
790.96	231.59
791.28	231.54
791.61	231.41
791.93	231.33
792.25	231.30
792.57	231.43
792.89	231.37
793.21	231.45
793.54	231.42
793.86	231.31
794.18	231.28
794.50	231.10
794.82	231.04
795.14	231.10
795.47	231.20
795.79	231.24
796.11	231.14
796.43	231.05
796.75	231.05
797.07	231.06
797.39	231.10
797.71	230.87
798.04	230.79
798.36	230.82
798.68	230.77
799.00	230.73
799.32	230.68
799.64	230.58
799.96	230.59
800.28	230.53
800.60	230.52
800.92	230.52
801.24	230.58
801.56	230.61
801.89	230.60
802.21	230.60
802.53	230.50
802.85	230.59
803.17	230.76
803.49	230.77
803.81	230.74
804.13	230.70
804.45	230.71
804.77	230.83
805.09	230.86
805.41	230.90
805.73	230.84
806.05	230.76
806.37	230.86
806.69	230.68
807.01	230.67
807.33	230.70
807.65	230.60
807.97	230.68
808.28	230.53
808.60	230.44
808.92	230.32
809.24	230.49
809.56	230.40
809.88	230.27
810.20	230.36
810.52	230.30
810.84	230.20
811.16	230.16
811.48	230.11
811.80	230.13
812.12	230.19
812.43	230.30
812.75	230.20
813.07	230.08
813.39	230.18
813.71	230.07
814.03	230.01
814.35	230.03
814.67	229.88
814.98	229.93
815.30	229.87
815.62	229.83
815.94	229.66
816.26	229.76
816.58	229.68
816.89	229.60
817.21	229.62
817.53	229.62
817.85	229.69
818.17	229.61
818.48	229.51
818.80	229.46
819.12	229.38
819.44	229.41
819.76	229.45
820.07	229.48
820.39	229.59
820.71	229.55
821.03	229.51
821.34	229.44
821.66	229.42
821.98	229.53
822.30	229.60
822.61	229.62
822.93	229.53
823.25	229.61
823.57	229.66
823.88	229.71
824.20	229.82
824.52	229.85
824.83	229.81
825.15	229.83
825.47	229.95
825.79	229.95
826.10	229.85
826.42	229.80
826.74	229.77
827.05	229.79
827.37	229.80
827.69	229.83
828.00	229.99
828.32	230.07
828.64	229.93
828.95	230.00
829.27	230.04
829.58	230.00
829.90	229.94
830.22	229.90
830.53	229.74
830.85	229.74
831.17	229.67
831.48	229.70
831.80	229.75
832.11	229.66
832.43	229.69
832.75	229.77
833.06	229.88
833.38	229.86
833.69	229.90
834.01	229.84
834.32	229.84
834.64	229.67
834.96	229.63
835.27	229.71
835.59	229.59
835.90	229.52
836.22	229.53
836.53	229.65
836.85	229.70
837.16	230.05
837.48	229.99
837.79	230.05
838.11	230.05
838.42	229.96
838.74	229.97
839.05	229.88
839.37	229.84
839.68	229.64
840.00	229.64
840.31	229.56
840.63	229.62
840.94	229.62
841.26	229.73
841.57	229.73
841.88	229.76
842.20	229.76
842.51	229.81
842.83	229.89
843.14	230.02
843.46	229.94
843.77	229.66
844.08	229.62
844.40	229.53
844.71	229.47
845.03	229.44
845.34	229.38
845.65	229.36
845.97	229.33
846.28	229.40
846.60	229.40
846.91	229.42
847.22	229.38
847.54	229.40
847.85	229.38
848.16	229.35
848.48	229.22
848.79	229.20
849.10	229.22
849.42	229.22
849.73	228.99
850.04	228.93
850.36	228.94
850.67	228.93
850.98	228.93
851.30	229.05
851.61	229.06
851.92	229.09
852.23	229.22
852.55	229.15
852.86	229.15
853.17	229.13
853.49	229.03
853.80	229.08
854.11	229.10
854.42	229.01
854.74	228.92
855.05	228.99
855.36	228.92
855.67	228.83
855.99	228.80
856.30	229.11
856.61	229.11
856.92	229.10
857.23	229.18
857.55	229.09
857.86	229.01
858.17	229.11
858.48	229.05
858.79	228.95
859.11	229.17
859.42	229.20
859.73	229.10
860.04	229.14
860.35	229.09
860.66	229.05
860.98	229.16
861.29	229.19
861.60	229.13
861.91	229.27
862.22	229.20
862.53	229.16
862.84	228.77
863.16	228.82
863.47	228.78
863.78	228.76
864.09	228.85
864.40	228.89
864.71	228.89
865.02	228.95
865.33	229.01
865.64	228.85
865.95	228.79
866.27	229.02
866.58	228.97
866.89	228.95
867.20	228.96
867.51	228.86
867.82	228.90
868.13	229.03
868.44	228.95
868.75	229.02
869.06	229.05
869.37	229.20
869.68	229.15
869.99	229.21
870.30	229.17
870.61	229.28
870.92	229.25
871.23	229.18
871.54	229.14
871.85	229.17
872.16	229.27
872.47	229.29
872.78	229.12
873.09	229.27
873.40	229.39
873.71	229.43
874.02	229.43
874.33	229.39
874.64	229.33
874.95	229.33
875.26	229.30
875.56	229.29
875.87	229.24
876.18	229.22
876.49	229.50
876.80	229.58
877.11	229.43
877.42	229.44
877.73	229.48
878.04	229.40
878.35	229.34
878.66	229.35
878.96	229.33
879.27	229.40
879.58	229.40
879.89	229.28
880.20	229.22
880.51	229.26
880.82	229.24
881.12	229.29
881.43	229.33
881.74	229.28
882.05	229.25
882.36	229.16
882.67	229.17
882.97	228.87
883.28	228.68
883.59	228.64
883.90	228.66
884.21	228.63
884.51	228.69
884.82	228.60
885.13	228.55
885.44	228.59
885.74	228.53
886.05	228.52
886.36	228.57
886.67	228.56
886.98	228.73
887.28	228.75
887.59	228.73
887.90	228.63
888.20	228.59
888.51	228.55
888.82	228.61
889.13	228.61
889.43	228.75
889.74	228.74
890.05	228.73
890.35	228.68
890.66	228.72
890.97	228.69
891.28	228.71
891.58	228.73
891.89	228.76
892.20	228.76
892.50	228.65
892.81	228.59
893.12	228.53
893.42	228.40
893.73	228.36
894.04	228.30
894.34	228.31
894.65	228.45
894.95	228.49
895.26	228.48
895.57	228.58
895.87	228.47
896.18	228.51
896.48	228.51
896.79	228.41
897.10	228.35
897.40	228.33
897.71	228.27
898.01	228.21
898.32	228.21
898.63	228.13
898.93	228.20
899.24	228.26
899.54	228.26
899.85	228.14
900.15	228.25
900.46	228.32
900.76	228.36
901.07	228.37
901.38	228.32
901.68	228.42
901.99	228.29
902.29	228.15
902.60	228.29
902.90	228.38
903.21	228.54
903.51	228.59
903.82	228.66
904.12	228.78
904.43	228.73
904.73	228.75
905.03	228.77
905.34	228.88
905.64	228.91
905.95	228.98
906.25	229.13
906.56	229.00
906.86	229.01
907.17	229.05
907.47	229.02
907.77	229.02
908.08	228.98
908.38	229.10
908.69	229.19
908.99	229.25
909.30	229.23
909.60	229.20
909.90	229.19
910.21	229.09
910.51	229.02
910.81	229.13
911.12	229.06
911.42	229.08
911.73	228.99
912.03	228.89
912.33	228.95
912.64	228.91
912.94	228.88
913.24	228.78
913.55	228.68
913.85	228.61
914.15	228.66
914.46	228.65
914.76	228.56
915.06	228.57
915.37	228.46
915.67	228.43
915.97	228.40
916.27	228.37
916.58	228.42
916.88	228.45
917.18	228.40
917.49	228.43
917.79	228.47
918.09	228.40
918.39	228.49
918.70	228.45
919.00	228.50
919.30	228.60
919.60	228.64
919.91	228.66
920.21	228.65
920.51	228.55
920.81	228.48
921.12	228.43
921.42	228.35
921.72	228.31
922.02	228.40
922.32	228.42
922.63	228.39
922.93	228.51
923.23	228.49
923.53	228.44
923.83	228.40
924.13	228.37
924.44	228.39
924.74	228.39
925.04	228.40
925.34	228.35
925.64	228.35
925.94	228.34
926.24	228.31
926.55	228.37
926.85	228.45
927.15	228.50
927.45	228.61
927.75	228.63
928.05	228.63
928.35	228.46
928.65	228.48
928.95	228.54
929.26	228.39
929.56	228.38
929.86	228.44
930.16	228.40
930.46	228.35
930.76	228.35
931.06	228.25
931.36	228.19
931.66	228.18
931.96	228.17
932.26	228.10
932.56	228.16
932.86	228.13
933.16	228.17
933.46	228.08
933.76	228.06
934.06	228.09
934.36	228.16
934.66	228.17
934.96	228.20
935.26	228.24
935.56	228.32
935.86	228.24
936.16	228.26
936.46	228.20
936.76	228.23
937.06	228.24
937.36	228.36
937.66	228.32
937.96	228.32
938.26	228.30
938.56	228.39
938.86	228.42
939.16	228.45
939.46	228.48
939.76	228.48
940.06	228.41
940.35	228.36
940.65	228.30
940.95	228.36
941.25	228.24
941.55	228.20
941.85	228.21
942.15	228.40
942.45	228.40
942.75	228.51
943.04	228.53
943.34	228.52
943.64	228.40
943.94	228.36
944.24	228.43
944.54	228.47
944.84	228.52
945.13	228.52
945.43	228.43
945.73	228.43
946.03	228.47
946.33	228.44
946.62	228.49
946.92	228.45
947.22	228.40
947.52	228.46
947.82	228.37
948.11	228.33
948.41	228.33
948.71	228.30
949.01	228.24
949.31	228.20
949.60	228.19
949.90	228.35
950.20	228.40
950.50	228.31
950.79	228.21
951.09	228.24
951.39	228.15
951.69	228.20
951.98	228.25
952.28	228.26
952.58	228.30
952.87	228.36
953.17	228.36
953.47	228.42
953.76	228.47
954.06	228.50
954.36	228.45
954.66	228.37
954.95	228.33
955.25	228.30
955.55	228.32
955.84	228.30
956.14	228.19
956.44	228.20
956.73	228.17
957.03	228.22
957.32	228.13
957.62	228.21
957.92	228.26
958.21	228.17
958.51	228.37
958.81	228.46
959.10	228.48
959.40	228.58
959.69	228.49
959.99	228.48
960.29	228.44
960.58	228.49
960.88	228.64
961.17	228.71
961.47	228.86
961.76	228.85
962.06	228.87
962.36	228.81
962.65	228.84
962.95	228.88
963.24	228.89
963.54	228.91
963.83	228.88
964.13	228.88
964.42	228.83
964.72	228.71
965.01	228.61
965.31	228.63
965.60	228.62
965.90	228.90
966.19	228.84
966.49	229.00
966.78	228.94
967.08	228.83
967.37	228.78
967.67	228.69
967.96	228.78
968.26	228.78
968.55	228.90
968.85	228.81
969.14	228.75
969.43	228.82
969.73	228.71
970.02	228.71
970.32	228.71
970.61	228.71
970.91	228.59
971.20	228.60
971.49	228.51
971.79	228.43
972.08	228.29
972.38	228.33
972.67	228.19
972.96	228.19
973.26	228.13
973.55	228.17
973.85	228.12
974.14	228.06
974.43	228.10
974.73	228.06
975.02	228.15
975.31	228.24
975.61	228.22
975.90	228.36
976.19	228.28
976.49	228.23
976.78	228.20
977.07	228.26
977.37	228.27
977.66	228.35
977.95	228.35
978.24	228.29
978.54	228.37
978.83	228.37
979.12	228.41
979.42	228.36
979.71	228.37
980.00	228.45
980.29	228.43
980.59	228.39
980.88	228.45
981.17	228.41
981.46	228.34
981.76	228.30
982.05	228.22
982.34	228.28
982.63	228.30
982.93	228.37
983.22	228.48
983.51	228.52
983.80	228.44
984.09	228.49
984.39	228.46
984.68	228.32
984.97	228.34
985.26	228.36
985.55	228.42
985.85	228.35
986.14	228.34
986.43	228.43
986.72	228.48
987.01	228.46
987.30	228.47
987.59	228.54
987.89	228.61
988.18	228.60
988.47	228.56
988.76	228.58
989.05	228.53
989.34	228.37
989.63	228.39
989.92	228.35
990.22	228.30
990.51	228.31
990.80	228.25
991.09	228.20
991.38	228.15
991.67	228.11
991.96	228.15
992.25	228.12
992.54	228.08
992.83	227.95
993.12	227.87
993.41	227.90
993.70	227.96
993.99	227.90
994.28	227.90
994.58	227.91
994.87	227.93
995.16	227.90
995.45	228.06
995.74	227.88
996.03	227.97
996.32	228.04
996.61	228.13
996.90	228.29
997.19	228.28
997.48	228.34
997.77	228.40
998.06	228.51
998.34	228.47
998.63	228.56
998.92	228.68
999.21	228.74
999.50	228.69
999.79	228.74
1000.08	228.76
1000.37	228.85
1000.66	228.91
1000.95	228.88
1001.24	228.97
1001.53	228.90
1001.82	229.08
1002.11	229.00
1002.40	228.99
1002.68	229.04
1002.97	229.09
1003.26	229.16
1003.55	229.02
1003.84	228.94
1004.13	228.88
1004.42	228.92
1004.71	228.87
1004.99	228.75
1005.28	228.75
1005.57	228.75
1005.86	228.60
1006.15	228.61
1006.44	228.58
1006.72	228.65
1007.01	228.63
1007.30	228.60
1007.59	228.49
1007.88	228.47
1008.17	228.64
1008.45	228.64
1008.74	228.47
1009.03	228.39
1009.32	228.35
1009.60	228.46
1009.89	228.48
1010.18	228.45
1010.47	228.46
1010.76	228.40
1011.04	228.53
1011.33	228.57
1011.62	228.59
1011.91	228.63
1012.19	228.57
1012.48	228.54
1012.77	228.49
1013.05	228.58
1013.34	228.54
1013.63	228.65
1013.92	228.59
1014.20	228.41
1014.49	228.43
1014.78	228.46
1015.06	228.41
1015.35	228.46
1015.64	228.43
1015.92	228.54
1016.21	228.52
1016.50	228.55
1016.78	228.57
1017.07	228.52
1017.36	228.55
1017.64	228.49
1017.93	228.43
1018.22	228.50
1018.50	228.56
1018.79	228.56
1019.08	228.47
1019.36	228.55
1019.65	228.56
1019.93	228.71
1020.22	228.83
1020.51	228.78
1020.79	228.85
1021.08	229.10
1021.36	229.50
1021.65	229.00
1021.94	228.40
1022.22	229.10
1022.51	228.90
1022.79	230.80
1023.08	229.40
1023.36	228.40
1023.65	228.90
>>>>>End Processed Spectral Data<<<<<
