SpectraSuite Data File
++++++++++++++++++++++++++++++++++++
Date: Fri Feb 01 14:33:58 EST 2013
User: group
Dark Spectrum Present: No
Reference Spectrum Present: No
Number of Sampled Component Spectra: 1
Spectrometers: USB2E7196
Integration Time (usec): 70000 (USB2E7196)
Spectra Averaged: 10 (USB2E7196)
Boxcar Smoothing: 10 (USB2E7196)
Correct for Electrical Dark: No (USB2E7196)
Strobe/Lamp Enabled: No (USB2E7196)
Correct for Detector Non-linearity: No (USB2E7196)
Correct for Stray Light: No (USB2E7196)
Number of Pixels in Processed Spectrum: 2048
>>>>>Begin Processed Spectral Data<<<<<
339.09	0.00
339.48	217.60
339.86	218.10
340.24	219.80
340.63	220.60
341.01	222.30
341.39	224.90
341.78	224.10
342.16	224.20
342.54	226.80
342.93	214.76
343.31	225.62
343.69	226.14
344.07	226.62
344.46	227.07
344.84	227.40
345.22	227.71
345.60	227.96
345.99	228.19
346.37	228.36
346.75	228.55
347.13	228.65
347.52	228.78
347.90	228.77
348.28	228.88
348.66	228.98
349.05	228.90
349.43	228.91
349.81	228.94
350.19	228.98
350.57	229.06
350.96	229.09
351.34	229.13
351.72	229.12
352.10	229.18
352.48	229.17
352.87	229.22
353.25	229.26
353.63	229.27
354.01	229.28
354.39	229.40
354.77	229.32
355.15	229.43
355.54	229.43
355.92	229.50
356.30	229.60
356.68	229.70
357.06	229.82
357.44	229.82
357.82	229.77
358.20	229.80
358.58	229.86
358.97	229.90
359.35	230.01
359.73	230.15
360.11	230.22
360.49	230.25
360.87	230.30
361.25	230.37
361.63	230.47
362.01	230.57
362.39	230.58
362.77	230.67
363.15	230.58
363.53	230.63
363.91	230.65
364.29	230.63
364.67	230.43
365.05	230.43
365.43	230.53
365.81	230.63
366.19	230.68
366.57	230.70
366.95	230.72
367.33	230.53
367.71	230.45
368.09	230.48
368.47	230.52
368.85	230.56
369.23	230.63
369.61	230.41
369.99	230.44
370.37	230.37
370.75	230.38
371.13	230.39
371.51	230.33
371.89	230.39
372.27	230.28
372.65	230.21
373.03	230.12
373.41	230.03
373.78	229.97
374.16	229.88
374.54	229.80
374.92	229.67
375.30	229.67
375.68	229.57
376.06	229.48
376.44	229.38
376.82	229.26
377.19	229.05
377.57	228.97
377.95	228.73
378.33	228.69
378.71	228.40
379.09	228.37
379.47	228.28
379.84	228.10
380.22	228.04
380.60	227.99
380.98	227.94
381.36	227.92
381.73	227.85
382.11	227.80
382.49	227.81
382.87	227.75
383.25	227.75
383.62	227.89
384.00	227.76
384.38	227.73
384.76	227.67
385.13	227.69
385.51	227.70
385.89	227.71
386.27	227.66
386.64	227.74
387.02	227.73
387.40	227.70
387.78	227.70
388.15	227.60
388.53	227.62
388.91	227.58
389.29	227.47
389.66	227.44
390.04	227.41
390.42	227.36
390.79	227.30
391.17	227.26
391.55	227.08
391.92	227.10
392.30	227.19
392.68	227.10
393.05	227.04
393.43	227.14
393.81	227.18
394.18	227.24
394.56	227.35
394.94	227.37
395.31	227.43
395.69	227.49
396.06	227.56
396.44	227.59
396.82	227.54
397.19	227.72
397.57	227.87
397.95	227.97
398.32	227.96
398.70	228.10
399.07	228.23
399.45	228.37
399.82	228.48
400.20	228.46
400.58	228.74
400.95	228.88
401.33	229.02
401.70	229.30
402.08	229.34
402.45	229.47
402.83	229.80
403.20	230.04
403.58	230.35
403.95	230.64
404.33	230.96
404.71	231.28
405.08	231.80
405.46	232.14
405.83	232.50
406.21	233.04
406.58	233.55
406.96	234.00
407.33	234.59
407.70	235.04
408.08	235.80
408.45	236.50
408.83	237.24
409.20	237.94
409.58	238.63
409.95	239.50
410.33	240.32
410.70	241.10
411.08	242.09
411.45	243.03
411.82	244.07
412.20	245.19
412.57	246.46
412.95	247.35
413.32	248.63
413.69	249.98
414.07	251.37
414.44	252.91
414.82	254.53
415.19	256.35
415.56	258.26
415.94	260.15
416.31	262.30
416.68	264.38
417.06	266.86
417.43	269.17
417.81	271.89
418.18	274.70
418.55	277.70
418.93	280.81
419.30	283.94
419.67	287.38
420.04	290.83
420.42	294.65
420.79	298.91
421.16	303.23
421.54	307.55
421.91	311.86
422.28	316.51
422.66	321.43
423.03	326.08
423.40	331.19
423.77	336.44
424.15	341.78
424.52	347.50
424.89	353.61
425.26	359.60
425.64	365.33
426.01	371.41
426.38	377.81
426.75	384.07
427.13	390.92
427.50	398.02
427.87	405.43
428.24	412.75
428.61	419.80
428.99	427.37
429.36	436.05
429.73	444.41
430.10	452.64
430.47	460.81
430.85	469.49
431.22	478.50
431.59	488.21
431.96	497.48
432.33	507.69
432.70	517.47
433.08	529.08
433.45	539.82
433.82	550.85
434.19	562.92
434.56	574.98
434.93	586.36
435.30	597.76
435.68	610.29
436.05	622.56
436.42	634.94
436.79	646.21
437.16	658.04
437.53	670.88
437.90	683.42
438.27	696.16
438.64	709.20
439.01	721.06
439.38	731.68
439.75	741.86
440.13	753.82
440.50	765.22
440.87	774.60
441.24	784.51
441.61	795.19
441.98	803.14
442.35	812.43
442.72	821.82
443.09	830.90
443.46	836.79
443.83	840.94
444.20	844.59
444.57	849.91
444.94	853.04
445.31	856.25
445.68	859.11
446.05	861.27
446.42	861.53
446.79	861.52
447.16	861.40
447.53	861.84
447.90	858.65
448.27	855.45
448.64	849.93
449.01	846.84
449.37	839.70
449.74	833.00
450.11	824.65
450.48	815.43
450.85	806.05
451.22	798.16
451.59	790.84
451.96	783.80
452.33	773.65
452.70	764.40
453.07	753.07
453.43	741.90
453.80	730.72
454.17	720.04
454.54	710.12
454.91	699.14
455.28	688.48
455.65	678.38
456.02	667.70
456.38	659.20
456.75	647.93
457.12	639.06
457.49	630.06
457.86	621.54
458.23	614.02
458.59	605.39
458.96	596.93
459.33	589.19
459.70	581.49
460.07	575.43
460.43	568.38
460.80	561.66
461.17	555.90
461.54	549.76
461.91	543.68
462.27	537.55
462.64	532.48
463.01	526.67
463.38	521.00
463.74	515.92
464.11	511.17
464.48	507.07
464.85	502.36
465.21	498.70
465.58	494.50
465.95	489.81
466.32	486.20
466.68	482.35
467.05	478.65
467.42	474.98
467.78	470.84
468.15	467.00
468.52	464.24
468.88	460.61
469.25	457.36
469.62	454.72
469.98	451.99
470.35	449.27
470.72	446.76
471.08	444.20
471.45	441.94
471.82	439.49
472.18	436.87
472.55	434.85
472.92	432.71
473.28	430.90
473.65	428.97
474.02	427.12
474.38	425.38
474.75	423.90
475.11	422.19
475.48	421.06
475.85	420.09
476.21	418.97
476.58	418.03
476.94	417.20
477.31	416.45
477.67	415.67
478.04	414.96
478.41	414.49
478.77	414.00
479.14	413.42
479.50	413.30
479.87	413.19
480.23	413.29
480.60	412.98
480.96	412.89
481.33	413.25
481.69	413.65
482.06	413.87
482.42	413.97
482.79	414.42
483.15	414.98
483.52	415.68
483.88	416.40
484.25	416.96
484.61	417.76
484.98	418.58
485.34	419.78
485.71	421.04
486.07	422.51
486.44	423.85
486.80	425.29
487.17	426.70
487.53	428.66
487.90	430.47
488.26	432.60
488.62	434.78
488.99	436.85
489.35	438.80
489.72	441.25
490.08	443.92
490.44	446.55
490.81	449.34
491.17	452.06
491.54	454.97
491.90	458.09
492.26	461.34
492.63	464.72
492.99	467.90
493.36	471.51
493.72	475.17
494.08	478.84
494.45	482.71
494.81	486.92
495.17	490.80
495.54	494.85
495.90	499.19
496.26	503.59
496.63	508.16
496.99	513.06
497.35	517.80
497.72	522.62
498.08	527.82
498.44	532.94
498.80	538.42
499.17	543.57
499.53	548.74
499.89	554.12
500.26	559.25
500.62	564.67
500.98	570.29
501.34	575.64
501.71	581.36
502.07	586.98
502.43	592.56
502.79	598.11
503.16	603.98
503.52	609.65
503.88	615.34
504.24	621.08
504.60	626.95
504.97	632.83
505.33	638.90
505.69	644.78
506.05	650.58
506.41	655.94
506.78	661.87
507.14	667.74
507.50	673.56
507.86	679.61
508.22	685.46
508.59	691.19
508.95	696.93
509.31	702.78
509.67	708.71
510.03	714.41
510.39	720.07
510.75	725.59
511.12	731.13
511.48	736.59
511.84	742.22
512.20	747.41
512.56	753.06
512.92	758.30
513.28	763.17
513.64	768.26
514.00	773.39
514.37	778.26
514.73	783.28
515.09	787.70
515.45	792.28
515.81	797.08
516.17	801.50
516.53	806.21
516.89	810.74
517.25	814.91
517.61	819.07
517.97	823.33
518.33	827.09
518.69	831.34
519.05	835.43
519.41	839.06
519.77	842.70
520.13	846.12
520.49	849.30
520.85	852.90
521.21	856.06
521.57	859.83
521.93	862.98
522.29	866.55
522.65	869.96
523.01	872.86
523.37	875.29
523.73	878.10
524.09	880.79
524.45	883.35
524.81	886.25
525.17	889.37
525.53	892.23
525.89	895.43
526.25	898.16
526.61	900.55
526.97	903.42
527.33	906.21
527.68	908.98
528.04	911.76
528.40	914.44
528.76	917.32
529.12	919.98
529.48	923.00
529.84	925.11
530.20	928.13
530.56	931.30
530.91	934.72
531.27	937.79
531.63	940.58
531.99	943.32
532.35	945.58
532.71	947.94
533.07	950.67
533.42	953.21
533.78	955.54
534.14	958.21
534.50	960.41
534.86	963.15
535.21	965.31
535.57	968.05
535.93	970.66
536.29	973.20
536.65	975.42
537.00	977.59
537.36	980.13
537.72	982.53
538.08	984.80
538.44	986.91
538.79	989.05
539.15	991.21
539.51	993.62
539.87	996.53
540.22	998.92
540.58	1001.34
540.94	1003.44
541.29	1005.86
541.65	1008.14
542.01	1010.91
542.37	1013.11
542.72	1015.59
543.08	1017.61
543.44	1020.02
543.79	1022.21
544.15	1024.66
544.51	1027.37
544.87	1029.89
545.22	1032.03
545.58	1034.06
545.94	1036.14
546.29	1038.46
546.65	1040.59
547.01	1042.58
547.36	1044.47
547.72	1046.59
548.07	1048.68
548.43	1050.88
548.79	1052.53
549.14	1054.39
549.50	1056.08
549.86	1057.92
550.21	1059.69
550.57	1061.98
550.92	1063.71
551.28	1065.50
551.64	1067.24
551.99	1069.06
552.35	1070.73
552.70	1072.44
553.06	1074.70
553.41	1076.60
553.77	1078.28
554.13	1080.10
554.48	1082.30
554.84	1084.07
555.19	1085.50
555.55	1087.29
555.90	1089.02
556.26	1091.13
556.61	1092.95
556.97	1094.46
557.32	1096.10
557.68	1097.71
558.03	1099.13
558.39	1100.57
558.74	1102.63
559.10	1104.15
559.45	1105.49
559.81	1107.37
560.16	1108.73
560.52	1110.00
560.87	1111.82
561.23	1113.01
561.58	1114.78
561.94	1116.05
562.29	1117.46
562.64	1118.79
563.00	1119.74
563.35	1121.30
563.71	1122.94
564.06	1124.50
564.42	1125.88
564.77	1127.12
565.12	1128.68
565.48	1130.44
565.83	1131.53
566.19	1132.61
566.54	1133.84
566.89	1134.99
567.25	1135.96
567.60	1137.60
567.96	1138.56
568.31	1139.18
568.66	1140.22
569.02	1140.66
569.37	1141.19
569.72	1141.73
570.08	1142.22
570.43	1142.81
570.78	1142.80
571.14	1142.88
571.49	1142.94
571.84	1143.50
572.20	1143.57
572.55	1143.20
572.90	1142.62
573.26	1142.97
573.61	1142.76
573.96	1142.47
574.31	1141.65
574.67	1140.75
575.02	1139.51
575.37	1138.56
575.72	1137.34
576.08	1136.50
576.43	1135.50
576.78	1134.63
577.13	1134.00
577.49	1133.38
577.84	1132.14
578.19	1131.36
578.54	1129.80
578.90	1128.30
579.25	1126.75
579.60	1125.23
579.95	1123.92
580.30	1122.17
580.66	1120.33
581.01	1118.29
581.36	1116.57
581.71	1115.29
582.06	1113.35
582.42	1111.58
582.77	1109.88
583.12	1108.14
583.47	1106.61
583.82	1105.19
584.17	1103.20
584.53	1100.99
584.88	1098.97
585.23	1097.10
585.58	1095.02
585.93	1093.21
586.28	1091.69
586.63	1089.70
586.98	1087.97
587.34	1086.00
587.69	1084.08
588.04	1081.84
588.39	1080.24
588.74	1077.41
589.09	1075.19
589.44	1073.19
589.79	1070.98
590.14	1069.19
590.49	1066.90
590.84	1064.30
591.19	1061.80
591.54	1058.94
591.89	1056.00
592.25	1053.65
592.60	1050.73
592.95	1047.66
593.30	1044.70
593.65	1041.45
594.00	1038.43
594.35	1035.92
594.70	1032.73
595.05	1029.89
595.40	1026.76
595.75	1023.27
596.10	1020.88
596.45	1017.75
596.80	1015.10
597.15	1012.18
597.50	1008.69
597.85	1006.03
598.19	1003.39
598.54	1000.50
598.89	997.73
599.24	995.40
599.59	992.50
599.94	989.68
600.29	986.94
600.64	983.90
600.99	980.83
601.34	977.70
601.69	974.07
602.04	971.46
602.39	968.51
602.74	966.02
603.08	963.64
603.43	960.86
603.78	957.80
604.13	954.51
604.48	951.41
604.83	948.50
605.18	945.76
605.53	942.20
605.87	938.62
606.22	935.80
606.57	932.20
606.92	928.75
607.27	925.86
607.62	922.75
607.96	919.94
608.31	917.32
608.66	914.18
609.01	910.81
609.36	906.95
609.70	902.92
610.05	899.20
610.40	895.20
610.75	891.26
611.10	887.89
611.44	883.84
611.79	880.40
612.14	876.67
612.49	872.14
612.83	868.19
613.18	864.51
613.53	860.53
613.88	856.58
614.22	852.71
614.57	848.88
614.92	844.82
615.27	840.94
615.61	836.68
615.96	832.96
616.31	829.57
616.65	826.52
617.00	823.34
617.35	819.74
617.70	815.74
618.04	811.93
618.39	808.01
618.74	804.83
619.08	800.94
619.43	797.33
619.78	794.10
620.12	790.92
620.47	787.58
620.82	783.96
621.16	780.61
621.51	777.18
621.85	773.55
622.20	770.12
622.55	766.71
622.89	763.47
623.24	760.13
623.59	756.67
623.93	753.25
624.28	749.78
624.62	746.46
624.97	743.57
625.32	740.62
625.66	737.42
626.01	734.01
626.35	730.82
626.70	727.65
627.04	724.56
627.39	720.99
627.73	717.47
628.08	714.17
628.43	711.03
628.77	707.84
629.12	704.34
629.46	701.16
629.81	697.56
630.15	694.17
630.50	690.84
630.84	687.18
631.19	683.58
631.53	680.26
631.88	676.80
632.22	673.39
632.57	670.13
632.91	666.96
633.26	663.79
633.60	660.48
633.95	657.02
634.29	653.83
634.64	651.04
634.98	648.10
635.32	645.14
635.67	642.20
636.01	639.18
636.36	636.08
636.70	633.25
637.05	630.59
637.39	627.72
637.73	624.94
638.08	622.52
638.42	619.80
638.77	617.11
639.11	614.13
639.45	611.26
639.80	608.36
640.14	605.70
640.49	602.88
640.83	600.19
641.17	597.58
641.52	594.40
641.86	591.50
642.20	588.86
642.55	586.15
642.89	583.43
643.23	580.70
643.58	578.50
643.92	575.67
644.26	573.01
644.61	570.40
644.95	567.60
645.29	564.58
645.64	561.73
645.98	559.02
646.32	556.51
646.66	553.92
647.01	551.16
647.35	548.46
647.69	545.89
648.04	543.43
648.38	540.88
648.72	538.22
649.06	535.62
649.41	533.00
649.75	530.32
650.09	527.67
650.43	524.96
650.78	522.07
651.12	519.39
651.46	516.82
651.80	514.29
652.14	511.82
652.49	509.47
652.83	507.09
653.17	504.46
653.51	502.10
653.85	499.61
654.20	497.09
654.54	494.40
654.88	491.87
655.22	489.10
655.56	486.48
655.90	484.39
656.25	482.16
656.59	479.72
656.93	477.52
657.27	475.22
657.61	472.90
657.95	470.78
658.29	468.66
658.64	466.42
658.98	464.06
659.32	461.71
659.66	459.33
660.00	457.12
660.34	455.23
660.68	452.95
661.02	450.67
661.36	448.67
661.70	446.62
662.05	444.64
662.39	442.91
662.73	440.85
663.07	438.93
663.41	436.90
663.75	434.96
664.09	432.96
664.43	431.00
664.77	429.08
665.11	427.15
665.45	425.43
665.79	423.50
666.13	421.79
666.47	420.14
666.81	418.30
667.15	416.38
667.49	414.50
667.83	412.81
668.17	411.13
668.51	409.34
668.85	407.66
669.19	405.96
669.53	404.07
669.87	402.63
670.21	401.00
670.55	399.43
670.89	398.12
671.23	396.70
671.57	395.18
671.91	393.77
672.25	392.21
672.58	390.65
672.92	389.03
673.26	387.65
673.60	386.10
673.94	384.91
674.28	383.63
674.62	382.28
674.96	380.97
675.30	379.74
675.64	378.47
675.97	377.21
676.31	376.00
676.65	374.77
676.99	373.38
677.33	371.96
677.67	370.46
678.01	368.75
678.34	367.32
678.68	365.94
679.02	364.62
679.36	363.40
679.70	362.02
680.04	360.89
680.37	359.50
680.71	358.18
681.05	356.94
681.39	355.83
681.73	354.51
682.06	353.20
682.40	351.99
682.74	350.81
683.08	349.60
683.42	348.35
683.75	347.12
684.09	345.96
684.43	344.88
684.77	343.68
685.10	342.57
685.44	341.43
685.78	340.42
686.12	339.29
686.45	338.07
686.79	336.99
687.13	335.98
687.46	334.76
687.80	333.79
688.14	332.52
688.48	331.38
688.81	330.26
689.15	329.20
689.49	328.24
689.82	327.26
690.16	326.10
690.50	325.12
690.83	324.26
691.17	323.23
691.51	322.04
691.84	321.10
692.18	320.25
692.52	319.25
692.85	318.27
693.19	317.42
693.52	316.56
693.86	315.53
694.20	314.48
694.53	313.54
694.87	312.59
695.21	311.82
695.54	310.86
695.88	310.06
696.21	309.08
696.55	308.09
696.88	307.18
697.22	306.41
697.56	305.48
697.89	304.55
698.23	303.80
698.56	303.10
698.90	302.40
699.23	301.45
699.57	300.64
699.90	299.84
700.24	298.95
700.58	298.10
700.91	297.37
701.25	296.80
701.58	296.24
701.92	295.54
702.25	294.79
702.59	294.06
702.92	293.28
703.26	292.75
703.59	292.08
703.93	291.62
704.26	291.00
704.60	290.45
704.93	289.93
705.26	289.24
705.60	288.80
705.93	288.25
706.27	287.87
706.60	287.36
706.94	286.80
707.27	286.30
707.61	285.82
707.94	285.42
708.27	284.78
708.61	284.06
708.94	283.50
709.28	282.96
709.61	282.53
709.94	282.03
710.28	281.46
710.61	280.95
710.95	280.17
711.28	279.69
711.61	279.06
711.95	278.46
712.28	277.85
712.61	277.15
712.95	276.57
713.28	275.97
713.61	275.35
713.95	274.67
714.28	274.18
714.61	273.67
714.95	273.08
715.28	272.60
715.61	272.12
715.95	271.69
716.28	271.20
716.61	270.71
716.95	270.12
717.28	269.68
717.61	269.13
717.94	268.66
718.28	268.10
718.61	267.84
718.94	267.38
719.27	267.08
719.61	266.69
719.94	266.16
720.27	265.61
720.60	265.35
720.94	265.03
721.27	264.51
721.60	264.17
721.93	263.73
722.27	263.33
722.60	263.06
722.93	262.72
723.26	262.35
723.59	261.93
723.93	261.70
724.26	261.29
724.59	261.01
724.92	260.70
725.25	260.51
725.59	260.03
725.92	259.67
726.25	259.19
726.58	258.87
726.91	258.65
727.24	258.43
727.57	257.93
727.91	257.54
728.24	257.24
728.57	256.91
728.90	256.73
729.23	256.26
729.56	256.02
729.89	255.67
730.22	255.42
730.55	255.15
730.89	254.75
731.22	254.55
731.55	254.24
731.88	254.00
732.21	253.70
732.54	253.30
732.87	253.16
733.20	252.93
733.53	252.74
733.86	252.52
734.19	252.21
734.52	251.99
734.85	251.91
735.18	251.67
735.51	251.38
735.84	251.00
736.17	250.90
736.50	250.54
736.83	250.58
737.16	250.37
737.49	250.13
737.82	250.04
738.15	249.82
738.48	249.61
738.81	249.55
739.14	249.21
739.47	249.10
739.80	248.88
740.13	248.77
740.46	248.52
740.79	248.20
741.12	248.12
741.45	247.98
741.78	247.70
742.11	247.63
742.44	247.48
742.77	247.35
743.10	247.06
743.43	246.99
743.75	246.60
744.08	246.64
744.41	246.54
744.74	246.35
745.07	246.08
745.40	245.99
745.73	245.76
746.06	245.69
746.39	245.60
746.71	245.41
747.04	245.23
747.37	244.99
747.70	244.96
748.03	244.72
748.36	244.69
748.68	244.51
749.01	244.23
749.34	244.07
749.67	243.83
750.00	243.79
750.33	243.73
750.65	243.53
750.98	243.15
751.31	242.81
751.64	242.60
751.97	242.54
752.29	242.38
752.62	242.20
752.95	242.01
753.28	241.80
753.60	241.60
753.93	241.48
754.26	241.48
754.59	241.33
754.91	241.20
755.24	240.94
755.57	240.71
755.90	240.60
756.22	240.36
756.55	240.30
756.88	240.08
757.20	239.82
757.53	239.65
757.86	239.60
758.19	239.62
758.51	239.48
758.84	239.29
759.17	239.21
759.49	239.04
759.82	239.10
760.15	239.04
760.47	238.96
760.80	238.76
761.13	238.62
761.45	238.40
761.78	238.32
762.11	238.31
762.43	238.28
762.76	238.30
763.08	238.30
763.41	238.28
763.74	238.20
764.06	238.07
764.39	237.97
764.71	237.79
765.04	237.63
765.37	237.56
765.69	237.40
766.02	237.14
766.34	236.94
766.67	236.72
767.00	236.53
767.32	236.45
767.65	236.52
767.97	236.50
768.30	236.44
768.62	236.24
768.95	236.12
769.27	236.05
769.60	235.86
769.92	235.79
770.25	235.60
770.57	235.53
770.90	235.46
771.22	235.38
771.55	235.35
771.87	235.30
772.20	235.24
772.52	235.30
772.85	235.51
773.17	235.46
773.50	235.30
773.82	235.36
774.15	235.19
774.47	235.00
774.80	234.82
775.12	234.68
775.45	234.62
775.77	234.51
776.09	234.40
776.42	234.34
776.74	234.24
777.07	234.19
777.39	234.09
777.72	234.06
778.04	234.00
778.36	233.83
778.69	233.84
779.01	233.84
779.33	233.72
779.66	233.55
779.98	233.54
780.31	233.47
780.63	233.38
780.95	233.43
781.28	233.37
781.60	233.32
781.92	233.27
782.25	233.28
782.57	233.29
782.89	233.28
783.22	233.08
783.54	233.11
783.86	232.98
784.19	232.95
784.51	232.90
784.83	232.85
785.16	232.86
785.48	232.76
785.80	232.67
786.12	232.72
786.45	232.64
786.77	232.66
787.09	232.65
787.42	232.63
787.74	232.65
788.06	232.64
788.38	232.67
788.71	232.73
789.03	232.64
789.35	232.61
789.67	232.55
789.99	232.72
790.32	232.63
790.64	232.76
790.96	232.91
791.28	232.88
791.61	232.95
791.93	232.90
792.25	232.87
792.57	232.93
792.89	232.80
793.21	232.79
793.54	232.66
793.86	232.73
794.18	232.64
794.50	232.59
794.82	232.60
795.14	232.53
795.47	232.53
795.79	232.57
796.11	232.52
796.43	232.57
796.75	232.49
797.07	232.45
797.39	232.52
797.71	232.41
798.04	232.25
798.36	232.13
798.68	232.15
799.00	232.12
799.32	232.04
799.64	232.00
799.96	231.92
800.28	231.88
800.60	231.77
800.92	231.74
801.24	231.65
801.56	231.61
801.89	231.55
802.21	231.51
802.53	231.44
802.85	231.35
803.17	231.36
803.49	231.30
803.81	231.17
804.13	230.95
804.45	230.74
804.77	230.82
805.09	230.80
805.41	230.76
805.73	230.67
806.05	230.50
806.37	230.49
806.69	230.43
807.01	230.40
807.33	230.39
807.65	230.32
807.97	230.38
808.28	230.34
808.60	230.30
808.92	230.24
809.24	230.33
809.56	230.28
809.88	230.23
810.20	230.20
810.52	230.30
810.84	230.23
811.16	230.31
811.48	230.20
811.80	230.20
812.12	230.15
812.43	230.12
812.75	230.24
813.07	230.28
813.39	230.32
813.71	230.25
814.03	230.19
814.35	230.21
814.67	230.13
814.98	230.03
815.30	230.04
815.62	230.01
815.94	229.94
816.26	230.07
816.58	230.01
816.89	230.06
817.21	229.89
817.53	229.94
817.85	229.88
818.17	229.89
818.48	229.91
818.80	229.91
819.12	229.97
819.44	229.86
819.76	229.79
820.07	229.74
820.39	229.74
820.71	229.69
821.03	229.70
821.34	229.62
821.66	229.65
821.98	229.68
822.30	229.69
822.61	229.81
822.93	229.71
823.25	229.71
823.57	229.70
823.88	229.89
824.20	229.91
824.52	229.95
824.83	229.96
825.15	229.82
825.47	229.86
825.79	229.86
826.10	229.91
826.42	229.84
826.74	229.83
827.05	229.95
827.37	230.03
827.69	230.00
828.00	230.10
828.32	230.08
828.64	230.00
828.95	230.06
829.27	229.88
829.58	229.92
829.90	230.00
830.22	229.96
830.53	229.84
830.85	229.81
831.17	229.78
831.48	229.80
831.80	229.87
832.11	229.83
832.43	229.80
832.75	229.75
833.06	229.84
833.38	229.72
833.69	229.76
834.01	229.86
834.32	229.86
834.64	229.71
834.96	229.73
835.27	229.77
835.59	229.75
835.90	229.80
836.22	229.71
836.53	229.66
836.85	229.65
837.16	229.92
837.48	229.92
837.79	229.97
838.11	229.90
838.42	229.89
838.74	229.82
839.05	229.73
839.37	229.70
839.68	229.69
840.00	229.70
840.31	229.57
840.63	229.35
840.94	229.27
841.26	229.30
841.57	229.35
841.88	229.36
842.20	229.27
842.51	229.19
842.83	229.12
843.14	229.15
843.46	229.09
843.77	228.90
844.08	228.71
844.40	228.63
844.71	228.68
845.03	228.66
845.34	228.67
845.65	228.63
845.97	228.60
846.28	228.50
846.60	228.54
846.91	228.52
847.22	228.49
847.54	228.50
847.85	228.50
848.16	228.44
848.48	228.34
848.79	228.40
849.10	228.39
849.42	228.45
849.73	228.21
850.04	228.26
850.36	228.14
850.67	228.30
850.98	228.32
851.30	228.27
851.61	228.22
851.92	228.20
852.23	228.38
852.55	228.40
852.86	228.41
853.17	228.44
853.49	228.57
853.80	228.63
854.11	228.68
854.42	228.68
854.74	228.58
855.05	228.56
855.36	228.40
855.67	228.34
855.99	228.27
856.30	228.57
856.61	228.53
856.92	228.61
857.23	228.60
857.55	228.52
857.86	228.58
858.17	228.57
858.48	228.56
858.79	228.46
859.11	228.51
859.42	228.52
859.73	228.50
860.04	228.49
860.35	228.40
860.66	228.25
860.98	228.30
861.29	228.43
861.60	228.53
861.91	228.67
862.22	228.67
862.53	228.77
862.84	228.62
863.16	228.61
863.47	228.55
863.78	228.53
864.09	228.61
864.40	228.55
864.71	228.53
865.02	228.54
865.33	228.56
865.64	228.53
865.95	228.56
866.27	228.60
866.58	228.49
866.89	228.62
867.20	228.83
867.51	228.79
867.82	228.72
868.13	228.71
868.44	228.63
868.75	228.78
869.06	228.78
869.37	228.80
869.68	228.80
869.99	228.82
870.30	228.81
870.61	228.83
870.92	228.90
871.23	228.97
871.54	229.00
871.85	229.04
872.16	229.07
872.47	229.06
872.78	229.03
873.09	229.08
873.40	228.92
873.71	228.85
874.02	228.86
874.33	228.86
874.64	228.89
874.95	228.99
875.26	228.90
875.56	228.89
875.87	228.79
876.18	228.75
876.49	228.89
876.80	228.94
877.11	228.86
877.42	228.79
877.73	228.80
878.04	228.77
878.35	228.77
878.66	228.68
878.96	228.69
879.27	228.63
879.58	228.64
879.89	228.77
880.20	228.77
880.51	228.69
880.82	228.68
881.12	228.61
881.43	228.46
881.74	228.50
882.05	228.48
882.36	228.61
882.67	228.73
882.97	228.56
883.28	228.43
883.59	228.42
883.90	228.44
884.21	228.39
884.51	228.40
884.82	228.34
885.13	228.44
885.44	228.44
885.74	228.40
886.05	228.34
886.36	228.33
886.67	228.28
886.98	228.41
887.28	228.44
887.59	228.44
887.90	228.50
888.20	228.43
888.51	228.47
888.82	228.33
889.13	228.30
889.43	228.49
889.74	228.50
890.05	228.57
890.35	228.58
890.66	228.63
890.97	228.60
891.28	228.66
891.58	228.65
891.89	228.63
892.20	228.63
892.50	228.65
892.81	228.64
893.12	228.65
893.42	228.67
893.73	228.64
894.04	228.63
894.34	228.65
894.65	228.74
894.95	228.70
895.26	228.72
895.57	228.84
895.87	228.65
896.18	228.67
896.48	228.55
896.79	228.47
897.10	228.44
897.40	228.50
897.71	228.36
898.01	228.28
898.32	228.39
898.63	228.38
898.93	228.42
899.24	228.49
899.54	228.53
899.85	228.51
900.15	228.55
900.46	228.61
900.76	228.57
901.07	228.55
901.38	228.46
901.68	228.41
901.99	228.27
902.29	228.20
902.60	228.24
902.90	228.30
903.21	228.36
903.51	228.38
903.82	228.43
904.12	228.42
904.43	228.44
904.73	228.35
905.03	228.40
905.34	228.55
905.64	228.47
905.95	228.43
906.25	228.39
906.56	228.35
906.86	228.28
907.17	228.31
907.47	228.26
907.77	228.35
908.08	228.39
908.38	228.37
908.69	228.42
908.99	228.49
909.30	228.50
909.60	228.48
909.90	228.42
910.21	228.33
910.51	228.48
910.81	228.47
911.12	228.59
911.42	228.59
911.73	228.45
912.03	228.41
912.33	228.50
912.64	228.41
912.94	228.39
913.24	228.32
913.55	228.32
913.85	228.37
914.15	228.36
914.46	228.36
914.76	228.36
915.06	228.41
915.37	228.37
915.67	228.32
915.97	228.38
916.27	228.37
916.58	228.33
916.88	228.17
917.18	228.21
917.49	228.20
917.79	228.25
918.09	228.17
918.39	228.22
918.70	228.15
919.00	228.26
919.30	228.41
919.60	228.46
919.91	228.39
920.21	228.30
920.51	228.31
920.81	228.44
921.12	228.45
921.42	228.42
921.72	228.49
922.02	228.60
922.32	228.65
922.63	228.67
922.93	228.89
923.23	229.02
923.53	228.95
923.83	228.86
924.13	228.88
924.44	228.99
924.74	229.03
925.04	229.04
925.34	228.96
925.64	228.86
925.94	228.88
926.24	228.96
926.55	228.99
926.85	228.93
927.15	228.85
927.45	228.87
927.75	228.84
928.05	228.79
928.35	228.74
928.65	228.74
928.95	228.73
929.26	228.57
929.56	228.59
929.86	228.58
930.16	228.60
930.46	228.65
930.76	228.57
931.06	228.48
931.36	228.39
931.66	228.49
931.96	228.48
932.26	228.47
932.56	228.47
932.86	228.41
933.16	228.48
933.46	228.48
933.76	228.50
934.06	228.61
934.36	228.72
934.66	228.68
934.96	228.56
935.26	228.58
935.56	228.62
935.86	228.52
936.16	228.56
936.46	228.47
936.76	228.35
937.06	228.42
937.36	228.47
937.66	228.54
937.96	228.54
938.26	228.46
938.56	228.48
938.86	228.40
939.16	228.52
939.46	228.51
939.76	228.59
940.06	228.64
940.35	228.57
940.65	228.46
940.95	228.45
941.25	228.51
941.55	228.50
941.85	228.51
942.15	228.58
942.45	228.60
942.75	228.60
943.04	228.66
943.34	228.61
943.64	228.57
943.94	228.50
944.24	228.43
944.54	228.54
944.84	228.49
945.13	228.50
945.43	228.45
945.73	228.35
946.03	228.18
946.33	228.03
946.62	227.93
946.92	227.84
947.22	227.90
947.52	227.86
947.82	227.88
948.11	227.82
948.41	227.74
948.71	227.70
949.01	227.69
949.31	227.53
949.60	227.45
949.90	227.43
950.20	227.43
950.50	227.42
950.79	227.30
951.09	227.31
951.39	227.30
951.69	227.23
951.98	227.30
952.28	227.35
952.58	227.40
952.87	227.43
953.17	227.51
953.47	227.50
953.76	227.49
954.06	227.42
954.36	227.34
954.66	227.33
954.95	227.28
955.25	227.29
955.55	227.37
955.84	227.36
956.14	227.32
956.44	227.39
956.73	227.33
957.03	227.40
957.32	227.34
957.62	227.37
957.92	227.35
958.21	227.36
958.51	227.54
958.81	227.48
959.10	227.58
959.40	227.67
959.69	227.60
959.99	227.54
960.29	227.60
960.58	227.64
960.88	227.71
961.17	227.75
961.47	227.75
961.76	227.75
962.06	227.93
962.36	227.98
962.65	227.91
962.95	227.89
963.24	227.85
963.54	227.92
963.83	227.95
964.13	228.10
964.42	228.02
964.72	227.91
965.01	228.01
965.31	227.98
965.60	227.84
965.90	228.11
966.19	228.18
966.49	228.22
966.78	228.20
967.08	228.19
967.37	228.33
967.67	228.34
967.96	228.40
968.26	228.36
968.55	228.45
968.85	228.50
969.14	228.58
969.43	228.63
969.73	228.69
970.02	228.75
970.32	228.73
970.61	228.84
970.91	228.87
971.20	228.79
971.49	228.79
971.79	228.93
972.08	228.68
972.38	228.70
972.67	228.74
972.96	228.90
973.26	228.85
973.55	228.80
973.85	228.83
974.14	228.84
974.43	228.80
974.73	228.74
975.02	228.78
975.31	228.78
975.61	228.83
975.90	228.77
976.19	228.63
976.49	228.62
976.78	228.54
977.07	228.55
977.37	228.60
977.66	228.60
977.95	228.56
978.24	228.59
978.54	228.59
978.83	228.49
979.12	228.46
979.42	228.52
979.71	228.54
980.00	228.54
980.29	228.67
980.59	228.56
980.88	228.69
981.17	228.62
981.46	228.62
981.76	228.57
982.05	228.67
982.34	228.72
982.63	228.71
982.93	228.84
983.22	228.86
983.51	228.89
983.80	228.88
984.09	228.91
984.39	228.87
984.68	228.84
984.97	228.87
985.26	228.87
985.55	228.84
985.85	228.81
986.14	228.81
986.43	228.70
986.72	228.77
987.01	228.65
987.30	228.72
987.59	228.77
987.89	228.73
988.18	228.71
988.47	228.68
988.76	228.71
989.05	228.57
989.34	228.49
989.63	228.49
989.92	228.50
990.22	228.38
990.51	228.42
990.80	228.36
991.09	228.29
991.38	228.25
991.67	228.21
991.96	228.13
992.25	228.14
992.54	228.19
992.83	228.14
993.12	228.07
993.41	228.08
993.70	228.05
993.99	228.18
994.28	228.13
994.58	228.15
994.87	228.05
995.16	228.00
995.45	227.98
995.74	227.92
996.03	227.98
996.32	228.05
996.61	228.13
996.90	228.14
997.19	228.20
997.48	228.18
997.77	228.24
998.06	228.38
998.34	228.42
998.63	228.30
998.92	228.32
999.21	228.41
999.50	228.46
999.79	228.40
1000.08	228.29
1000.37	228.30
1000.66	228.32
1000.95	228.42
1001.24	228.52
1001.53	228.57
1001.82	228.49
1002.11	228.48
1002.40	228.37
1002.68	228.35
1002.97	228.57
1003.26	228.60
1003.55	228.55
1003.84	228.53
1004.13	228.53
1004.42	228.54
1004.71	228.50
1004.99	228.53
1005.28	228.60
1005.57	228.52
1005.86	228.61
1006.15	228.60
1006.44	228.50
1006.72	228.46
1007.01	228.36
1007.30	228.31
1007.59	228.22
1007.88	228.35
1008.17	228.28
1008.45	228.29
1008.74	228.24
1009.03	228.13
1009.32	228.14
1009.60	228.12
1009.89	228.09
1010.18	227.97
1010.47	227.95
1010.76	228.04
1011.04	228.06
1011.33	228.01
1011.62	228.09
1011.91	228.04
1012.19	228.11
1012.48	228.17
1012.77	228.14
1013.05	228.26
1013.34	228.20
1013.63	228.33
1013.92	228.34
1014.20	228.41
1014.49	228.55
1014.78	228.61
1015.06	228.50
1015.35	228.55
1015.64	228.66
1015.92	228.71
1016.21	228.78
1016.50	228.69
1016.78	228.72
1017.07	228.66
1017.36	228.68
1017.64	228.57
1017.93	228.56
1018.22	228.51
1018.50	228.51
1018.79	228.60
1019.08	228.46
1019.36	228.60
1019.65	228.46
1019.93	228.43
1020.22	228.36
1020.51	228.41
1020.79	228.33
1021.08	228.00
1021.36	227.90
1021.65	228.90
1021.94	226.70
1022.22	229.00
1022.51	227.10
1022.79	228.40
1023.08	228.00
1023.36	231.00
1023.65	227.70
>>>>>End Processed Spectral Data<<<<<
