SpectraSuite Data File
++++++++++++++++++++++++++++++++++++
Date: Fri Feb 01 14:38:45 EST 2013
User: group
Dark Spectrum Present: No
Reference Spectrum Present: No
Number of Sampled Component Spectra: 1
Spectrometers: USB2E7196
Integration Time (usec): 70000 (USB2E7196)
Spectra Averaged: 10 (USB2E7196)
Boxcar Smoothing: 10 (USB2E7196)
Correct for Electrical Dark: No (USB2E7196)
Strobe/Lamp Enabled: No (USB2E7196)
Correct for Detector Non-linearity: No (USB2E7196)
Correct for Stray Light: No (USB2E7196)
Number of Pixels in Processed Spectrum: 2048
>>>>>Begin Processed Spectral Data<<<<<
339.09	0.00
339.48	216.60
339.86	217.50
340.24	219.90
340.63	221.10
341.01	224.00
341.39	224.40
341.78	224.90
342.16	225.50
342.54	225.20
342.93	214.74
343.31	225.63
343.69	226.12
344.07	226.68
344.46	227.06
344.84	227.38
345.22	227.38
345.60	227.53
345.99	227.67
346.37	227.87
346.75	228.00
347.13	227.97
347.52	228.11
347.90	228.11
348.28	228.12
348.66	228.11
349.05	228.05
349.43	228.04
349.81	228.02
350.19	227.91
350.57	227.90
350.96	227.91
351.34	227.90
351.72	228.03
352.10	228.01
352.48	228.04
352.87	228.00
353.25	228.20
353.63	228.20
354.01	228.31
354.39	228.28
354.77	228.28
355.15	228.32
355.54	228.33
355.92	228.28
356.30	228.29
356.68	228.48
357.06	228.60
357.44	228.59
357.82	228.73
358.20	228.90
358.58	229.04
358.97	229.12
359.35	229.19
359.73	229.28
360.11	229.29
360.49	229.38
360.87	229.48
361.25	229.55
361.63	229.60
362.01	229.55
362.39	229.60
362.77	229.70
363.15	229.87
363.53	229.83
363.91	229.90
364.29	229.97
364.67	229.90
365.05	229.93
365.43	229.99
365.81	229.98
366.19	230.01
366.57	230.02
366.95	230.08
367.33	230.05
367.71	229.99
368.09	230.10
368.47	230.07
368.85	230.07
369.23	230.15
369.61	230.17
369.99	230.37
370.37	230.28
370.75	230.26
371.13	230.09
371.51	230.13
371.89	230.15
372.27	230.03
372.65	229.88
373.03	229.83
373.41	229.78
373.78	229.70
374.16	229.54
374.54	229.45
374.92	229.36
375.30	229.39
375.68	229.38
376.06	229.30
376.44	229.20
376.82	229.15
377.19	229.21
377.57	229.17
377.95	228.95
378.33	228.97
378.71	228.87
379.09	228.85
379.47	228.80
379.84	228.56
380.22	228.50
380.60	228.47
380.98	228.39
381.36	228.29
381.73	228.18
382.11	228.26
382.49	228.16
382.87	228.08
383.25	227.97
383.62	227.94
384.00	227.82
384.38	227.74
384.76	227.68
385.13	227.44
385.51	227.30
385.89	227.25
386.27	227.13
386.64	226.98
387.02	226.90
387.40	226.72
387.78	226.84
388.15	226.89
388.53	226.85
388.91	226.74
389.29	226.73
389.66	226.79
390.04	226.60
390.42	226.74
390.79	226.73
391.17	226.72
391.55	226.64
391.92	226.57
392.30	226.63
392.68	226.64
393.05	226.61
393.43	226.71
393.81	226.71
394.18	226.62
394.56	226.76
394.94	226.79
395.31	226.88
395.69	226.79
396.06	226.79
396.44	226.83
396.82	226.81
397.19	226.97
397.57	227.11
397.95	227.29
398.32	227.24
398.70	227.38
399.07	227.52
399.45	227.53
399.82	227.74
400.20	227.77
400.58	227.90
400.95	228.06
401.33	228.18
401.70	228.43
402.08	228.63
402.45	228.80
402.83	228.99
403.20	229.08
403.58	229.31
403.95	229.48
404.33	229.65
404.71	229.84
405.08	230.08
405.46	230.12
405.83	230.32
406.21	230.51
406.58	230.65
406.96	230.83
407.33	231.00
407.70	231.16
408.08	231.57
408.45	231.80
408.83	232.00
409.20	232.27
409.58	232.38
409.95	232.70
410.33	232.91
410.70	233.11
411.08	233.61
411.45	233.95
411.82	234.19
412.20	234.53
412.57	235.08
412.95	235.25
413.32	235.66
413.69	236.04
414.07	236.41
414.44	236.98
414.82	237.43
415.19	238.10
415.56	238.71
415.94	239.18
416.31	239.81
416.68	240.40
417.06	241.23
417.43	242.04
417.81	242.96
418.18	243.89
418.55	244.85
418.93	245.67
419.30	246.69
419.67	247.78
420.04	248.93
420.42	250.07
420.79	251.53
421.16	252.83
421.54	254.25
421.91	255.77
422.28	257.15
422.66	258.72
423.03	260.33
423.40	261.90
423.77	263.57
424.15	265.44
424.52	267.25
424.89	269.05
425.26	270.88
425.64	272.70
426.01	274.60
426.38	276.62
426.75	278.84
427.13	280.93
427.50	283.23
427.87	285.47
428.24	287.72
428.61	289.82
428.99	292.33
429.36	294.89
429.73	297.42
430.10	299.99
430.47	302.61
430.85	305.26
431.22	308.04
431.59	311.17
431.96	313.84
432.33	317.15
432.70	320.38
433.08	324.00
433.45	327.40
433.82	330.88
434.19	334.81
434.56	338.59
434.93	342.25
435.30	345.72
435.68	349.70
436.05	353.54
436.42	357.33
436.79	360.82
437.16	364.60
437.53	368.43
437.90	372.33
438.27	376.06
438.64	380.09
439.01	383.73
439.38	386.87
439.75	390.04
440.13	393.38
440.50	396.71
440.87	399.42
441.24	402.30
441.61	405.43
441.98	407.57
442.35	410.26
442.72	412.96
443.09	415.77
443.46	417.47
443.83	418.65
444.20	419.64
444.57	421.21
444.94	421.92
445.31	422.98
445.68	423.81
446.05	424.31
446.42	424.00
446.79	423.98
447.16	423.66
447.53	423.56
447.90	422.70
448.27	421.48
448.64	419.84
449.01	418.57
449.37	416.21
449.74	414.20
450.11	411.41
450.48	408.44
450.85	405.45
451.22	402.76
451.59	400.26
451.96	398.07
452.33	394.73
452.70	391.88
453.07	388.19
453.43	384.46
453.80	381.10
454.17	377.65
454.54	374.31
454.91	370.95
455.28	367.59
455.65	364.30
456.02	361.22
456.38	358.38
456.75	355.05
457.12	352.07
457.49	349.09
457.86	346.19
458.23	343.74
458.59	340.94
458.96	338.21
459.33	335.79
459.70	333.20
460.07	331.16
460.43	328.84
460.80	326.57
461.17	324.70
461.54	322.61
461.91	320.89
462.27	318.83
462.64	317.17
463.01	315.39
463.38	313.69
463.74	311.72
464.11	310.13
464.48	308.60
464.85	307.10
465.21	305.76
465.58	304.61
465.95	303.08
466.32	301.80
466.68	300.57
467.05	299.29
467.42	298.10
467.78	296.81
468.15	295.52
468.52	294.61
468.88	293.34
469.25	292.25
469.62	291.24
469.98	290.30
470.35	289.46
470.72	288.49
471.08	287.43
471.45	286.61
471.82	285.80
472.18	284.82
472.55	284.19
472.92	283.35
473.28	282.44
473.65	281.74
474.02	281.04
474.38	280.41
474.75	279.81
475.11	279.06
475.48	278.50
475.85	278.09
476.21	277.60
476.58	277.11
476.94	276.66
477.31	276.16
477.67	275.75
478.04	275.17
478.41	274.80
478.77	274.60
479.14	274.14
479.50	273.81
479.87	273.53
480.23	273.26
480.60	273.15
480.96	272.96
481.33	272.77
481.69	272.58
482.06	272.35
482.42	272.19
482.79	272.02
483.15	271.91
483.52	271.78
483.88	271.60
484.25	271.58
484.61	271.45
484.98	271.35
485.34	271.41
485.71	271.49
486.07	271.60
486.44	271.48
486.80	271.59
487.17	271.62
487.53	271.76
487.90	271.86
488.26	271.93
488.62	272.12
488.99	272.14
489.35	272.23
489.72	272.31
490.08	272.46
490.44	272.71
490.81	272.87
491.17	272.90
491.54	273.15
491.90	273.30
492.26	273.53
492.63	273.79
492.99	273.98
493.36	274.27
493.72	274.45
494.08	274.71
494.45	274.93
494.81	275.34
495.17	275.68
495.54	275.94
495.90	276.20
496.26	276.42
496.63	276.92
496.99	277.18
497.35	277.61
497.72	277.90
498.08	278.14
498.44	278.50
498.80	278.97
499.17	279.26
499.53	279.61
499.89	280.02
500.26	280.45
500.62	280.83
500.98	281.12
501.34	281.39
501.71	281.80
502.07	282.17
502.43	282.27
502.79	282.63
503.16	283.12
503.52	283.39
503.88	283.72
504.24	284.01
504.60	284.57
504.97	284.97
505.33	285.34
505.69	285.93
506.05	286.51
506.41	287.03
506.78	287.55
507.14	288.03
507.50	288.62
507.86	289.18
508.22	289.81
508.59	290.47
508.95	291.10
509.31	291.84
509.67	292.56
510.03	293.34
510.39	294.14
510.75	294.87
511.12	295.65
511.48	296.59
511.84	297.52
512.20	298.39
512.56	299.48
512.92	300.76
513.28	301.78
513.64	302.88
514.00	304.12
514.37	305.39
514.73	306.72
515.09	308.05
515.45	309.37
515.81	310.70
516.17	312.23
516.53	314.02
516.89	315.62
517.25	317.33
517.61	319.45
517.97	321.35
518.33	323.27
518.69	325.38
519.05	327.45
519.41	329.56
519.77	331.90
520.13	334.13
520.49	336.44
520.85	338.94
521.21	341.48
521.57	344.10
521.93	346.69
522.29	349.51
522.65	352.19
523.01	355.08
523.37	358.03
523.73	361.01
524.09	363.98
524.45	367.17
524.81	370.54
525.17	373.65
525.53	377.23
525.89	380.76
526.25	384.55
526.61	388.35
526.97	392.24
527.33	396.07
527.68	400.26
528.04	404.43
528.40	408.68
528.76	412.96
529.12	417.35
529.48	421.87
529.84	426.52
530.20	431.25
530.56	436.16
530.91	441.29
531.27	446.32
531.63	451.49
531.99	456.50
532.35	461.67
532.71	466.89
533.07	472.06
533.42	477.63
533.78	483.00
534.14	488.37
534.50	493.90
534.86	499.66
535.21	505.04
535.57	510.93
535.93	516.60
536.29	522.46
536.65	528.52
537.00	534.48
537.36	540.34
537.72	546.17
538.08	552.17
538.44	558.18
538.79	564.23
539.15	570.08
539.51	576.30
539.87	582.46
540.22	588.80
540.58	595.13
540.94	601.26
541.29	607.47
541.65	613.74
542.01	620.20
542.37	626.53
542.72	633.12
543.08	639.27
543.44	645.81
543.79	651.84
544.15	658.19
544.51	664.75
544.87	671.20
545.22	677.83
545.58	683.83
545.94	689.99
546.29	696.31
546.65	702.76
547.01	709.13
547.36	715.51
547.72	721.61
548.07	727.78
548.43	733.99
548.79	740.19
549.14	746.24
549.50	752.22
549.86	758.09
550.21	763.81
550.57	769.93
550.92	775.86
551.28	782.17
551.64	787.77
551.99	793.56
552.35	799.38
552.70	804.99
553.06	811.29
553.41	817.16
553.77	823.03
554.13	828.95
554.48	834.54
554.84	840.10
555.19	845.75
555.55	851.59
555.90	857.11
556.26	862.79
556.61	868.61
556.97	874.17
557.32	879.64
557.68	885.19
558.03	890.38
558.39	895.87
558.74	901.40
559.10	906.68
559.45	912.30
559.81	917.73
560.16	923.11
560.52	928.03
560.87	933.18
561.23	938.02
561.58	942.86
561.94	947.61
562.29	952.21
562.64	956.82
563.00	961.02
563.35	965.94
563.71	970.72
564.06	975.28
564.42	979.48
564.77	984.24
565.12	988.76
565.48	993.35
565.83	997.35
566.19	1001.31
566.54	1005.64
566.89	1009.34
567.25	1013.15
567.60	1017.45
567.96	1021.28
568.31	1024.90
568.66	1028.40
569.02	1032.04
569.37	1035.57
569.72	1039.23
570.08	1042.73
570.43	1046.02
570.78	1048.78
571.14	1051.18
571.49	1054.11
571.84	1057.50
572.20	1059.87
572.55	1062.34
572.90	1064.89
573.26	1067.11
573.61	1069.42
573.96	1071.44
574.31	1073.11
574.67	1074.78
575.02	1075.92
575.37	1077.67
575.72	1078.92
576.08	1080.57
576.43	1081.85
576.78	1083.29
577.13	1084.42
577.49	1085.69
577.84	1087.08
578.19	1088.29
578.54	1089.61
578.90	1090.28
579.25	1090.44
579.60	1090.87
579.95	1091.39
580.30	1091.50
580.66	1091.84
581.01	1092.11
581.36	1092.59
581.71	1093.21
582.06	1093.60
582.42	1093.76
582.77	1093.57
583.12	1093.68
583.47	1094.08
583.82	1094.37
584.17	1094.29
584.53	1094.57
584.88	1094.37
585.23	1094.20
585.58	1093.98
585.93	1093.72
586.28	1093.48
586.63	1093.51
586.98	1093.52
587.34	1093.32
587.69	1093.12
588.04	1093.04
588.39	1092.60
588.74	1091.41
589.09	1090.23
589.44	1089.20
589.79	1088.65
590.14	1088.18
590.49	1087.38
590.84	1086.06
591.19	1084.66
591.54	1083.22
591.89	1081.23
592.25	1080.07
592.60	1077.80
592.95	1076.05
593.30	1074.23
593.65	1072.60
594.00	1070.60
594.35	1069.06
594.70	1067.03
595.05	1065.09
595.40	1062.89
595.75	1060.89
596.10	1059.50
596.45	1058.01
596.80	1056.48
597.15	1054.78
597.50	1052.90
597.85	1051.30
598.19	1049.39
598.54	1047.84
598.89	1046.35
599.24	1044.90
599.59	1042.80
599.94	1041.62
600.29	1040.01
600.64	1038.31
600.99	1036.05
601.34	1034.34
601.69	1031.87
602.04	1029.82
602.39	1027.88
602.74	1025.95
603.08	1024.22
603.43	1022.29
603.78	1020.17
604.13	1017.80
604.48	1015.21
604.83	1012.89
605.18	1010.71
605.53	1008.21
605.87	1005.23
606.22	1002.58
606.57	999.82
606.92	997.24
607.27	994.94
607.62	992.56
607.96	990.02
608.31	987.80
608.66	984.80
609.01	982.32
609.36	979.45
609.70	975.98
610.05	973.14
610.40	969.83
610.75	966.37
611.10	963.41
611.44	960.16
611.79	957.17
612.14	953.87
612.49	950.17
612.83	946.82
613.18	943.92
613.53	940.90
613.88	937.76
614.22	934.60
614.57	930.85
614.92	927.34
615.27	924.25
615.61	920.81
615.96	917.65
616.31	914.32
616.65	911.64
617.00	908.82
617.35	905.62
617.70	902.25
618.04	898.96
618.39	895.42
618.74	892.40
619.08	888.95
619.43	885.66
619.78	882.34
620.12	879.30
620.47	875.79
620.82	872.18
621.16	868.99
621.51	865.67
621.85	862.48
622.20	858.81
622.55	855.32
622.89	852.03
623.24	848.92
623.59	845.79
623.93	842.13
624.28	838.73
624.62	835.23
624.97	832.06
625.32	829.00
625.66	825.89
626.01	822.47
626.35	819.32
626.70	816.09
627.04	812.95
627.39	809.73
627.73	806.43
628.08	803.46
628.43	799.90
628.77	796.36
629.12	792.89
629.46	789.65
629.81	785.80
630.15	782.13
630.50	778.47
630.84	774.59
631.19	770.92
631.53	767.30
631.88	763.58
632.22	759.74
632.57	756.24
632.91	752.71
633.26	749.02
633.60	745.36
633.95	741.74
634.29	738.13
634.64	734.47
634.98	730.99
635.32	727.30
635.67	724.27
636.01	720.92
636.36	717.61
636.70	714.34
637.05	711.19
637.39	708.20
637.73	704.89
638.08	701.98
638.42	699.10
638.77	696.20
639.11	693.26
639.45	690.21
639.80	686.89
640.14	683.60
640.49	680.61
640.83	677.21
641.17	674.12
641.52	671.23
641.86	668.26
642.20	665.25
642.55	662.09
642.89	658.85
643.23	655.90
643.58	653.06
643.92	649.84
644.26	646.77
644.61	643.89
644.95	640.99
645.29	637.48
645.64	634.14
645.98	630.89
646.32	627.90
646.66	624.72
647.01	621.68
647.35	618.61
647.69	615.65
648.04	613.04
648.38	609.86
648.72	606.48
649.06	603.22
649.41	600.09
649.75	596.85
650.09	593.60
650.43	590.60
650.78	587.03
651.12	584.08
651.46	581.18
651.80	577.97
652.14	575.01
652.49	572.36
652.83	569.48
653.17	566.47
653.51	563.48
653.85	560.52
654.20	557.53
654.54	554.54
654.88	551.35
655.22	548.17
655.56	545.24
655.90	542.54
656.25	539.79
656.59	537.12
656.93	534.48
657.27	531.76
657.61	528.67
657.95	526.18
658.29	523.39
658.64	520.61
658.98	517.76
659.32	514.78
659.66	512.07
660.00	509.22
660.34	506.60
660.68	503.85
661.02	501.29
661.36	498.63
661.70	496.10
662.05	493.79
662.39	491.43
662.73	489.16
663.07	486.91
663.41	484.50
663.75	482.01
664.09	479.61
664.43	477.32
664.77	475.22
665.11	472.95
665.45	470.71
665.79	468.30
666.13	466.09
666.47	463.95
666.81	461.57
667.15	459.31
667.49	456.98
667.83	454.94
668.17	452.78
668.51	450.79
668.85	448.71
669.19	446.72
669.53	444.68
669.87	442.48
670.21	440.41
670.55	438.31
670.89	436.38
671.23	434.52
671.57	432.50
671.91	430.54
672.25	428.49
672.58	426.57
672.92	424.77
673.26	422.90
673.60	421.15
673.94	419.40
674.28	417.58
674.62	416.17
674.96	414.30
675.30	412.59
675.64	410.83
675.97	409.14
676.31	407.36
676.65	405.62
676.99	404.06
677.33	402.11
677.67	400.45
678.01	398.69
678.34	397.03
678.68	395.44
679.02	393.60
679.36	392.03
679.70	390.40
680.04	388.81
680.37	387.09
680.71	385.31
681.05	383.84
681.39	382.39
681.73	380.73
682.06	379.30
682.40	377.81
682.74	376.27
683.08	374.82
683.42	373.29
683.75	371.81
684.09	370.23
684.43	368.96
684.77	367.35
685.10	365.94
685.44	364.53
685.78	363.10
686.12	361.86
686.45	360.47
686.79	359.02
687.13	357.74
687.46	356.43
687.80	355.10
688.14	353.55
688.48	352.36
688.81	350.94
689.15	349.60
689.49	348.36
689.82	347.24
690.16	345.83
690.50	344.59
690.83	343.36
691.17	342.16
691.51	340.97
691.84	340.02
692.18	338.82
692.52	337.56
692.85	336.41
693.19	335.27
693.52	334.17
693.86	332.96
694.20	331.77
694.53	330.63
694.87	329.60
695.21	328.65
695.54	327.45
695.88	326.32
696.21	325.28
696.55	324.27
696.88	323.10
697.22	322.07
697.56	321.18
697.89	320.10
698.23	319.09
698.56	318.08
698.90	316.95
699.23	315.96
699.57	314.95
699.90	314.01
700.24	312.92
700.58	311.94
700.91	311.20
701.25	310.43
701.58	309.66
701.92	308.75
702.25	307.90
702.59	307.00
702.92	306.22
703.26	305.39
703.59	304.59
703.93	303.89
704.26	303.24
704.60	302.29
704.93	301.58
705.26	300.91
705.60	300.21
705.93	299.61
706.27	298.93
706.60	298.22
706.94	297.54
707.27	296.93
707.61	296.30
707.94	295.53
708.27	294.77
708.61	293.93
708.94	293.25
709.28	292.57
709.61	291.95
709.94	291.35
710.28	290.66
710.61	289.94
710.95	289.10
711.28	288.40
711.61	287.71
711.95	287.01
712.28	286.22
712.61	285.46
712.95	284.75
713.28	284.16
713.61	283.58
713.95	282.80
714.28	282.15
714.61	281.50
714.95	280.88
715.28	280.17
715.61	279.47
715.95	278.85
716.28	278.21
716.61	277.66
716.95	276.99
717.28	276.42
717.61	275.83
717.94	275.35
718.28	274.71
718.61	274.24
718.94	273.67
719.27	273.27
719.61	272.81
719.94	272.29
720.27	271.64
720.60	271.06
720.94	270.60
721.27	270.15
721.60	269.72
721.93	269.24
722.27	268.79
722.60	268.38
722.93	267.93
723.26	267.49
723.59	266.98
723.93	266.53
724.26	266.04
724.59	265.63
724.92	265.26
725.25	264.87
725.59	264.40
725.92	264.03
726.25	263.56
726.58	263.14
726.91	262.76
727.24	262.50
727.57	262.19
727.91	261.77
728.24	261.36
728.57	260.90
728.90	260.57
729.23	260.29
729.56	260.11
729.89	259.81
730.22	259.42
730.55	259.09
730.89	258.96
731.22	258.59
731.55	258.32
731.88	257.92
732.21	257.62
732.54	257.33
732.87	257.12
733.20	256.93
733.53	256.66
733.86	256.39
734.19	255.99
734.52	255.72
734.85	255.52
735.18	255.35
735.51	255.20
735.84	254.98
736.17	254.70
736.50	254.33
736.83	254.35
737.16	254.13
737.49	253.97
737.82	253.56
738.15	253.45
738.48	253.26
738.81	253.08
739.14	252.86
739.47	252.70
739.80	252.51
740.13	252.20
740.46	251.94
740.79	251.84
741.12	251.60
741.45	251.50
741.78	251.28
742.11	251.09
742.44	250.80
742.77	250.63
743.10	250.36
743.43	250.22
743.75	249.77
744.08	249.84
744.41	249.66
744.74	249.47
745.07	249.20
745.40	249.04
745.73	248.87
746.06	248.70
746.39	248.49
746.71	248.19
747.04	248.01
747.37	247.93
747.70	247.79
748.03	247.71
748.36	247.40
748.68	247.16
749.01	246.92
749.34	246.81
749.67	246.58
750.00	246.46
750.33	246.40
750.65	246.20
750.98	245.78
751.31	245.52
751.64	245.31
751.97	245.31
752.29	244.97
752.62	244.80
752.95	244.41
753.28	244.17
753.60	244.04
753.93	243.84
754.26	243.61
754.59	243.24
754.91	242.95
755.24	242.73
755.57	242.58
755.90	242.31
756.22	242.02
756.55	241.80
756.88	241.57
757.20	241.21
757.53	240.99
757.86	240.82
758.19	240.61
758.51	240.42
758.84	239.99
759.17	239.76
759.49	239.49
759.82	239.54
760.15	239.42
760.47	239.16
760.80	238.93
761.13	238.73
761.45	238.60
761.78	238.50
762.11	238.36
762.43	238.25
762.76	238.19
763.08	238.05
763.41	237.90
763.74	237.83
764.06	237.66
764.39	237.55
764.71	237.40
765.04	237.35
765.37	237.26
765.69	237.20
766.02	237.12
766.34	237.00
766.67	236.79
767.00	236.68
767.32	236.61
767.65	236.62
767.97	236.51
768.30	236.26
768.62	236.10
768.95	235.98
769.27	235.79
769.60	235.65
769.92	235.50
770.25	235.36
770.57	235.12
770.90	235.05
771.22	234.95
771.55	234.85
771.87	234.68
772.20	234.65
772.52	234.72
772.85	234.93
773.17	234.91
773.50	234.83
773.82	234.71
774.15	234.55
774.47	234.39
774.80	234.27
775.12	234.35
775.45	234.42
775.77	234.41
776.09	234.39
776.42	234.29
776.74	234.43
777.07	234.38
777.39	234.41
777.72	234.35
778.04	234.33
778.36	234.33
778.69	234.31
779.01	234.29
779.33	234.10
779.66	233.76
779.98	233.70
780.31	233.71
780.63	233.76
780.95	233.83
781.28	233.80
781.60	233.77
781.92	233.75
782.25	233.58
782.57	233.58
782.89	233.61
783.22	233.63
783.54	233.48
783.86	233.49
784.19	233.39
784.51	233.46
784.83	233.36
785.16	233.27
785.48	233.25
785.80	233.22
786.12	233.34
786.45	233.41
786.77	233.32
787.09	233.35
787.42	233.28
787.74	233.20
788.06	233.13
788.38	233.18
788.71	233.13
789.03	233.20
789.35	233.14
789.67	233.07
789.99	233.10
790.32	233.09
790.64	233.04
790.96	233.18
791.28	233.06
791.61	233.11
791.93	233.09
792.25	233.00
792.57	233.12
792.89	232.87
793.21	232.84
793.54	232.85
793.86	232.63
794.18	232.60
794.50	232.64
794.82	232.62
795.14	232.59
795.47	232.61
795.79	232.57
796.11	232.43
796.43	232.33
796.75	232.27
797.07	232.31
797.39	232.30
797.71	232.17
798.04	232.18
798.36	232.11
798.68	232.02
799.00	232.02
799.32	231.84
799.64	231.90
799.96	231.89
800.28	231.79
800.60	231.72
800.92	231.68
801.24	231.56
801.56	231.56
801.89	231.35
802.21	231.36
802.53	231.14
802.85	231.23
803.17	231.24
803.49	231.20
803.81	231.11
804.13	231.03
804.45	230.86
804.77	230.76
805.09	230.69
805.41	230.66
805.73	230.53
806.05	230.32
806.37	230.24
806.69	230.09
807.01	230.16
807.33	230.18
807.65	230.13
807.97	230.17
808.28	230.02
808.60	230.01
808.92	229.83
809.24	230.01
809.56	229.88
809.88	229.80
810.20	229.63
810.52	229.58
810.84	229.52
811.16	229.50
811.48	229.52
811.80	229.57
812.12	229.53
812.43	229.52
812.75	229.62
813.07	229.52
813.39	229.59
813.71	229.47
814.03	229.53
814.35	229.40
814.67	229.37
814.98	229.43
815.30	229.46
815.62	229.35
815.94	229.21
816.26	229.29
816.58	229.25
816.89	229.23
817.21	229.21
817.53	229.21
817.85	229.26
818.17	229.27
818.48	229.20
818.80	229.21
819.12	229.29
819.44	229.27
819.76	229.35
820.07	229.37
820.39	229.40
820.71	229.48
821.03	229.48
821.34	229.51
821.66	229.51
821.98	229.60
822.30	229.73
822.61	229.97
822.93	229.86
823.25	229.92
823.57	230.02
823.88	230.09
824.20	230.18
824.52	230.30
824.83	230.26
825.15	230.27
825.47	230.29
825.79	230.42
826.10	230.48
826.42	230.45
826.74	230.40
827.05	230.49
827.37	230.46
827.69	230.54
828.00	230.44
828.32	230.47
828.64	230.41
828.95	230.52
829.27	230.41
829.58	230.53
829.90	230.59
830.22	230.68
830.53	230.65
830.85	230.59
831.17	230.47
831.48	230.48
831.80	230.41
832.11	230.48
832.43	230.43
832.75	230.35
833.06	230.49
833.38	230.53
833.69	230.48
834.01	230.39
834.32	230.45
834.64	230.49
834.96	230.57
835.27	230.64
835.59	230.58
835.90	230.41
836.22	230.40
836.53	230.30
836.85	230.19
837.16	230.28
837.48	230.18
837.79	230.09
838.11	230.05
838.42	230.10
838.74	230.10
839.05	230.02
839.37	229.98
839.68	229.96
840.00	229.77
840.31	229.74
840.63	229.76
840.94	229.56
841.26	229.48
841.57	229.47
841.88	229.43
842.20	229.23
842.51	229.28
842.83	229.21
843.14	229.35
843.46	229.30
843.77	229.22
844.08	229.30
844.40	229.41
844.71	229.46
845.03	229.46
845.34	229.23
845.65	229.12
845.97	229.13
846.28	229.03
846.60	228.97
846.91	228.87
847.22	228.85
847.54	228.83
847.85	228.78
848.16	228.61
848.48	228.45
848.79	228.56
849.10	228.49
849.42	228.45
849.73	228.26
850.04	228.30
850.36	228.17
850.67	228.13
850.98	228.06
851.30	227.98
851.61	227.93
851.92	228.02
852.23	228.12
852.55	228.14
852.86	228.10
853.17	228.21
853.49	228.23
853.80	228.30
854.11	228.41
854.42	228.44
854.74	228.44
855.05	228.51
855.36	228.46
855.67	228.47
855.99	228.52
856.30	228.86
856.61	228.84
856.92	228.81
857.23	228.87
857.55	228.87
857.86	228.86
858.17	228.88
858.48	228.91
858.79	228.93
859.11	228.96
859.42	228.94
859.73	228.94
860.04	229.01
860.35	228.95
860.66	228.87
860.98	228.85
861.29	228.93
861.60	228.88
861.91	228.92
862.22	228.96
862.53	228.98
862.84	228.74
863.16	228.79
863.47	228.82
863.78	228.80
864.09	228.95
864.40	229.00
864.71	229.04
865.02	229.08
865.33	229.02
865.64	228.97
865.95	229.05
866.27	229.22
866.58	229.16
866.89	229.11
867.20	229.26
867.51	229.28
867.82	229.21
868.13	229.35
868.44	229.33
868.75	229.37
869.06	229.35
869.37	229.36
869.68	229.36
869.99	229.38
870.30	229.39
870.61	229.26
870.92	229.11
871.23	229.10
871.54	229.12
871.85	229.09
872.16	229.23
872.47	229.21
872.78	229.08
873.09	229.10
873.40	229.14
873.71	229.08
874.02	229.11
874.33	229.18
874.64	229.11
874.95	229.18
875.26	229.04
875.56	229.02
875.87	228.96
876.18	228.87
876.49	229.08
876.80	229.09
877.11	229.01
877.42	229.10
877.73	229.04
878.04	229.01
878.35	229.09
878.66	228.99
878.96	229.06
879.27	228.96
879.58	228.97
879.89	228.95
880.20	229.06
880.51	229.09
880.82	229.12
881.12	229.06
881.43	229.04
881.74	229.05
882.05	229.03
882.36	228.98
882.67	229.05
882.97	228.81
883.28	228.71
883.59	228.79
883.90	228.81
884.21	228.84
884.51	228.77
884.82	228.70
885.13	228.72
885.44	228.62
885.74	228.68
886.05	228.62
886.36	228.61
886.67	228.50
886.98	228.48
887.28	228.32
887.59	228.35
887.90	228.30
888.20	228.31
888.51	228.32
888.82	228.29
889.13	228.28
889.43	228.40
889.74	228.46
890.05	228.38
890.35	228.25
890.66	228.17
890.97	228.19
891.28	228.17
891.58	228.10
891.89	228.03
892.20	227.99
892.50	228.03
892.81	228.01
893.12	227.96
893.42	227.88
893.73	227.96
894.04	227.98
894.34	227.96
894.65	227.98
894.95	227.97
895.26	228.06
895.57	228.08
895.87	227.94
896.18	228.03
896.48	228.03
896.79	228.12
897.10	228.20
897.40	228.20
897.71	228.30
898.01	228.33
898.32	228.36
898.63	228.38
898.93	228.36
899.24	228.47
899.54	228.50
899.85	228.56
900.15	228.56
900.46	228.51
900.76	228.58
901.07	228.58
901.38	228.61
901.68	228.53
901.99	228.50
902.29	228.52
902.60	228.49
902.90	228.57
903.21	228.60
903.51	228.67
903.82	228.83
904.12	228.82
904.43	228.84
904.73	228.84
905.03	228.80
905.34	229.15
905.64	229.04
905.95	229.03
906.25	229.02
906.56	229.07
906.86	229.12
907.17	229.07
907.47	229.11
907.77	229.00
908.08	229.04
908.38	229.14
908.69	229.15
908.99	229.07
909.30	229.10
909.60	229.09
909.90	228.99
910.21	228.87
910.51	228.81
910.81	228.69
911.12	228.74
911.42	228.80
911.73	228.44
912.03	228.49
912.33	228.49
912.64	228.53
912.94	228.51
913.24	228.47
913.55	228.51
913.85	228.43
914.15	228.60
914.46	228.60
914.76	228.52
915.06	228.65
915.37	228.67
915.67	228.65
915.97	228.61
916.27	228.69
916.58	228.59
916.88	228.56
917.18	228.59
917.49	228.66
917.79	228.61
918.09	228.70
918.39	228.74
918.70	228.72
919.00	228.70
919.30	228.64
919.60	228.63
919.91	228.58
920.21	228.64
920.51	228.53
920.81	228.51
921.12	228.48
921.42	228.30
921.72	228.26
922.02	228.18
922.32	228.23
922.63	228.05
922.93	228.13
923.23	228.08
923.53	228.12
923.83	228.00
924.13	228.03
924.44	227.99
924.74	228.02
925.04	228.04
925.34	228.01
925.64	228.05
925.94	228.07
926.24	228.05
926.55	228.04
926.85	228.01
927.15	227.99
927.45	227.99
927.75	227.95
928.05	227.98
928.35	227.91
928.65	227.97
928.95	228.05
929.26	228.04
929.56	228.09
929.86	228.08
930.16	228.09
930.46	228.04
930.76	228.04
931.06	227.94
931.36	228.02
931.66	228.02
931.96	228.07
932.26	227.99
932.56	228.12
932.86	228.01
933.16	227.93
933.46	227.90
933.76	227.95
934.06	228.05
934.36	228.04
934.66	228.10
934.96	228.05
935.26	228.08
935.56	228.14
935.86	228.10
936.16	228.12
936.46	228.08
936.76	228.15
937.06	228.12
937.36	228.25
937.66	228.18
937.96	228.16
938.26	228.17
938.56	228.22
938.86	228.15
939.16	228.37
939.46	228.45
939.76	228.55
940.06	228.53
940.35	228.40
940.65	228.47
940.95	228.53
941.25	228.49
941.55	228.54
941.85	228.60
942.15	228.68
942.45	228.85
942.75	228.81
943.04	228.78
943.34	228.85
943.64	228.73
943.94	228.79
944.24	228.82
944.54	228.75
944.84	228.82
945.13	228.82
945.43	228.74
945.73	228.70
946.03	228.71
946.33	228.73
946.62	228.78
946.92	228.75
947.22	228.76
947.52	228.71
947.82	228.63
948.11	228.56
948.41	228.53
948.71	228.44
949.01	228.55
949.31	228.53
949.60	228.54
949.90	228.59
950.20	228.51
950.50	228.50
950.79	228.58
951.09	228.57
951.39	228.49
951.69	228.44
951.98	228.58
952.28	228.56
952.58	228.41
952.87	228.45
953.17	228.45
953.47	228.43
953.76	228.45
954.06	228.45
954.36	228.38
954.66	228.39
954.95	228.35
955.25	228.37
955.55	228.32
955.84	228.19
956.14	228.20
956.44	228.19
956.73	228.21
957.03	228.21
957.32	228.16
957.62	228.12
957.92	228.13
958.21	228.05
958.51	228.28
958.81	228.42
959.10	228.33
959.40	228.36
959.69	228.38
959.99	228.43
960.29	228.42
960.58	228.40
960.88	228.43
961.17	228.34
961.47	228.28
961.76	228.32
962.06	228.40
962.36	228.27
962.65	228.28
962.95	228.20
963.24	228.04
963.54	228.07
963.83	228.06
964.13	228.11
964.42	228.10
964.72	227.88
965.01	227.87
965.31	227.86
965.60	227.79
965.90	227.91
966.19	227.90
966.49	227.87
966.78	227.88
967.08	227.91
967.37	227.95
967.67	227.88
967.96	227.91
968.26	227.91
968.55	228.02
968.85	228.08
969.14	228.10
969.43	228.13
969.73	228.13
970.02	228.22
970.32	228.11
970.61	228.03
970.91	228.04
971.20	227.97
971.49	228.00
971.79	228.03
972.08	227.88
972.38	227.86
972.67	227.93
972.96	227.97
973.26	227.94
973.55	227.98
973.85	227.99
974.14	227.99
974.43	228.01
974.73	227.92
975.02	227.87
975.31	227.86
975.61	227.90
975.90	227.89
976.19	227.86
976.49	227.99
976.78	228.09
977.07	228.05
977.37	228.22
977.66	228.36
977.95	228.34
978.24	228.43
978.54	228.49
978.83	228.46
979.12	228.50
979.42	228.50
979.71	228.47
980.00	228.55
980.29	228.60
980.59	228.56
980.88	228.79
981.17	228.74
981.46	228.83
981.76	228.78
982.05	228.90
982.34	228.96
982.63	228.95
982.93	228.97
983.22	228.93
983.51	228.79
983.80	228.82
984.09	228.85
984.39	228.83
984.68	228.83
984.97	228.87
985.26	228.83
985.55	228.76
985.85	228.73
986.14	228.80
986.43	228.79
986.72	228.82
987.01	228.68
987.30	228.65
987.59	228.66
987.89	228.78
988.18	228.70
988.47	228.69
988.76	228.65
989.05	228.62
989.34	228.64
989.63	228.61
989.92	228.49
990.22	228.45
990.51	228.27
990.80	228.25
991.09	228.24
991.38	228.33
991.67	228.33
991.96	228.29
992.25	228.26
992.54	228.20
992.83	228.10
993.12	228.04
993.41	228.07
993.70	228.07
993.99	228.05
994.28	228.04
994.58	228.00
994.87	227.90
995.16	227.85
995.45	227.80
995.74	227.81
996.03	227.80
996.32	227.82
996.61	227.97
996.90	227.89
997.19	227.76
997.48	227.66
997.77	227.65
998.06	227.68
998.34	227.60
998.63	227.59
998.92	227.68
999.21	227.61
999.50	227.67
999.79	227.54
1000.08	227.57
1000.37	227.50
1000.66	227.47
1000.95	227.59
1001.24	227.59
1001.53	227.70
1001.82	227.67
1002.11	227.60
1002.40	227.71
1002.68	227.68
1002.97	227.78
1003.26	227.81
1003.55	227.80
1003.84	227.77
1004.13	227.83
1004.42	227.84
1004.71	227.76
1004.99	227.69
1005.28	227.76
1005.57	227.74
1005.86	227.75
1006.15	227.70
1006.44	227.75
1006.72	227.80
1007.01	227.78
1007.30	227.80
1007.59	227.90
1007.88	227.92
1008.17	227.98
1008.45	227.93
1008.74	227.99
1009.03	227.98
1009.32	228.00
1009.60	228.00
1009.89	228.09
1010.18	228.04
1010.47	228.05
1010.76	228.05
1011.04	228.12
1011.33	228.22
1011.62	228.21
1011.91	228.24
1012.19	228.28
1012.48	228.29
1012.77	228.35
1013.05	228.50
1013.34	228.52
1013.63	228.38
1013.92	228.43
1014.20	228.47
1014.49	228.53
1014.78	228.46
1015.06	228.43
1015.35	228.39
1015.64	228.53
1015.92	228.54
1016.21	228.62
1016.50	228.60
1016.78	228.70
1017.07	228.61
1017.36	228.44
1017.64	228.45
1017.93	228.52
1018.22	228.47
1018.50	228.48
1018.79	228.40
1019.08	228.20
1019.36	228.28
1019.65	228.30
1019.93	228.34
1020.22	228.42
1020.51	228.49
1020.79	228.49
1021.08	227.90
1021.36	228.60
1021.65	228.10
1021.94	226.90
1022.22	230.20
1022.51	228.20
1022.79	229.10
1023.08	230.00
1023.36	232.10
1023.65	227.40
>>>>>End Processed Spectral Data<<<<<
