SpectraSuite Data File
++++++++++++++++++++++++++++++++++++
Date: Fri Feb 01 14:41:54 EST 2013
User: group
Dark Spectrum Present: No
Reference Spectrum Present: No
Number of Sampled Component Spectra: 1
Spectrometers: USB2E7196
Integration Time (usec): 70000 (USB2E7196)
Spectra Averaged: 10 (USB2E7196)
Boxcar Smoothing: 10 (USB2E7196)
Correct for Electrical Dark: No (USB2E7196)
Strobe/Lamp Enabled: No (USB2E7196)
Correct for Detector Non-linearity: No (USB2E7196)
Correct for Stray Light: No (USB2E7196)
Number of Pixels in Processed Spectrum: 2048
>>>>>Begin Processed Spectral Data<<<<<
339.09	0.00
339.48	215.30
339.86	217.80
340.24	220.50
340.63	220.10
341.01	225.30
341.39	224.10
341.78	223.50
342.16	225.50
342.54	226.60
342.93	214.83
343.31	225.69
343.69	226.24
344.07	226.76
344.46	227.14
344.84	227.44
345.22	227.66
345.60	227.87
345.99	228.12
346.37	228.35
346.75	228.48
347.13	228.62
347.52	228.67
347.90	228.76
348.28	228.84
348.66	229.03
349.05	229.04
349.43	229.11
349.81	229.21
350.19	229.29
350.57	229.31
350.96	229.37
351.34	229.38
351.72	229.55
352.10	229.59
352.48	229.60
352.87	229.74
353.25	229.77
353.63	229.81
354.01	229.81
354.39	229.82
354.77	229.80
355.15	229.86
355.54	229.93
355.92	229.99
356.30	229.98
356.68	230.03
357.06	230.08
357.44	230.01
357.82	229.96
358.20	229.92
358.58	229.94
358.97	229.93
359.35	230.08
359.73	230.09
360.11	230.10
360.49	230.18
360.87	230.19
361.25	230.10
361.63	230.16
362.01	230.21
362.39	230.22
362.77	230.31
363.15	230.28
363.53	230.25
363.91	230.31
364.29	230.38
364.67	230.27
365.05	230.28
365.43	230.44
365.81	230.38
366.19	230.52
366.57	230.64
366.95	230.69
367.33	230.63
367.71	230.60
368.09	230.68
368.47	230.60
368.85	230.57
369.23	230.60
369.61	230.54
369.99	230.66
370.37	230.67
370.75	230.65
371.13	230.60
371.51	230.70
371.89	230.61
372.27	230.42
372.65	230.30
373.03	230.23
373.41	230.19
373.78	230.17
374.16	229.92
374.54	229.87
374.92	229.82
375.30	229.82
375.68	229.75
376.06	229.68
376.44	229.67
376.82	229.64
377.19	229.63
377.57	229.56
377.95	229.41
378.33	229.29
378.71	229.23
379.09	229.20
379.47	229.11
379.84	229.00
380.22	229.02
380.60	228.96
380.98	228.92
381.36	228.73
381.73	228.79
382.11	228.86
382.49	228.81
382.87	228.70
383.25	228.58
383.62	228.71
384.00	228.64
384.38	228.64
384.76	228.70
385.13	228.80
385.51	228.79
385.89	228.77
386.27	228.82
386.64	228.75
387.02	228.78
387.40	228.75
387.78	228.81
388.15	228.81
388.53	228.79
388.91	228.69
389.29	228.77
389.66	228.77
390.04	228.69
390.42	228.67
390.79	228.60
391.17	228.63
391.55	228.47
391.92	228.51
392.30	228.59
392.68	228.60
393.05	228.51
393.43	228.57
393.81	228.58
394.18	228.60
394.56	228.64
394.94	228.70
395.31	228.74
395.69	228.78
396.06	228.85
396.44	228.93
396.82	229.07
397.19	229.12
397.57	229.08
397.95	229.21
398.32	229.20
398.70	229.37
399.07	229.45
399.45	229.50
399.82	229.60
400.20	229.61
400.58	229.59
400.95	229.68
401.33	229.79
401.70	229.98
402.08	230.01
402.45	230.13
402.83	230.25
403.20	230.33
403.58	230.45
403.95	230.55
404.33	230.78
404.71	230.95
405.08	231.34
405.46	231.52
405.83	231.78
406.21	231.95
406.58	232.22
406.96	232.50
407.33	232.71
407.70	232.97
408.08	233.40
408.45	233.80
408.83	234.11
409.20	234.37
409.58	234.63
409.95	235.01
410.33	235.46
410.70	235.80
411.08	236.20
411.45	236.66
411.82	237.15
412.20	237.56
412.57	238.05
412.95	238.36
413.32	238.94
413.69	239.57
414.07	240.18
414.44	240.85
414.82	241.63
415.19	242.53
415.56	243.33
415.94	244.04
416.31	244.95
416.68	245.86
417.06	246.90
417.43	247.92
417.81	248.99
418.18	250.11
418.55	251.30
418.93	252.62
419.30	253.90
419.67	255.24
420.04	256.69
420.42	258.24
420.79	260.02
421.16	261.82
421.54	263.56
421.91	265.39
422.28	267.32
422.66	269.18
423.03	271.24
423.40	273.23
423.77	275.35
424.15	277.48
424.52	279.67
424.89	282.16
425.26	284.37
425.64	286.59
426.01	288.95
426.38	291.48
426.75	294.05
427.13	296.62
427.50	299.31
427.87	301.99
428.24	304.75
428.61	307.35
428.99	310.21
429.36	313.22
429.73	316.29
430.10	319.27
430.47	322.27
430.85	325.32
431.22	328.58
431.59	332.13
431.96	335.36
432.33	339.06
432.70	342.34
433.08	346.47
433.45	350.27
433.82	354.23
434.19	358.50
434.56	362.60
434.93	366.52
435.30	370.42
435.68	374.73
436.05	378.92
436.42	382.91
436.79	386.63
437.16	390.56
437.53	394.75
437.90	398.72
438.27	402.60
438.64	406.59
439.01	410.31
439.38	413.48
439.75	416.73
440.13	420.23
440.50	423.71
440.87	426.37
441.24	429.23
441.61	432.20
441.98	434.44
442.35	437.01
442.72	439.60
443.09	442.14
443.46	443.41
443.83	443.96
444.20	444.59
444.57	445.61
444.94	445.88
445.31	446.12
445.68	446.67
446.05	446.88
446.42	446.20
446.79	445.63
447.16	444.86
447.53	444.27
447.90	442.60
448.27	440.87
448.64	438.50
449.01	436.78
449.37	433.91
449.74	430.95
450.11	427.56
450.48	423.94
450.85	420.27
451.22	417.33
451.59	414.42
451.96	411.68
452.33	407.96
452.70	404.48
453.07	400.43
453.43	396.08
453.80	391.91
454.17	388.05
454.54	384.10
454.91	380.19
455.28	376.28
455.65	372.67
456.02	369.18
456.38	366.05
456.75	362.13
457.12	358.65
457.49	355.46
457.86	352.31
458.23	349.57
458.59	346.29
458.96	343.15
459.33	340.46
459.70	337.63
460.07	335.19
460.43	332.78
460.80	330.40
461.17	328.26
461.54	326.05
461.91	323.92
462.27	321.89
462.64	319.89
463.01	317.81
463.38	315.82
463.74	313.72
464.11	311.98
464.48	310.35
464.85	308.78
465.21	307.41
465.58	306.00
465.95	304.38
466.32	303.29
466.68	301.90
467.05	300.63
467.42	299.30
467.78	298.04
468.15	296.76
468.52	295.71
468.88	294.44
469.25	293.44
469.62	292.53
469.98	291.50
470.35	290.64
470.72	289.70
471.08	288.76
471.45	287.94
471.82	287.18
472.18	286.35
472.55	285.63
472.92	284.79
473.28	284.10
473.65	283.44
474.02	282.64
474.38	282.12
474.75	281.52
475.11	281.02
475.48	280.52
475.85	280.11
476.21	279.78
476.58	279.48
476.94	279.07
477.31	278.77
477.67	278.58
478.04	278.46
478.41	278.30
478.77	278.18
479.14	277.97
479.50	277.75
479.87	277.72
480.23	277.69
480.60	277.58
480.96	277.42
481.33	277.55
481.69	277.69
482.06	277.80
482.42	278.00
482.79	278.18
483.15	278.47
483.52	278.79
483.88	279.01
484.25	279.36
484.61	279.80
484.98	280.23
485.34	280.73
485.71	281.28
486.07	281.91
486.44	282.35
486.80	283.09
487.17	283.88
487.53	284.93
487.90	285.96
488.26	286.97
488.62	288.17
488.99	289.18
489.35	290.26
489.72	291.48
490.08	292.78
490.44	294.15
490.81	295.60
491.17	297.17
491.54	299.05
491.90	300.91
492.26	302.78
492.63	304.82
492.99	306.96
493.36	309.12
493.72	311.71
494.08	314.42
494.45	317.19
494.81	320.17
495.17	323.06
495.54	326.22
495.90	329.67
496.26	333.14
496.63	336.68
496.99	340.76
497.35	344.90
497.72	349.28
498.08	353.70
498.44	358.51
498.80	363.44
499.17	368.41
499.53	373.46
499.89	379.16
500.26	384.89
500.62	390.78
500.98	397.01
501.34	403.49
501.71	410.28
502.07	417.30
502.43	424.50
502.79	431.99
503.16	439.94
503.52	447.92
503.88	456.40
504.24	465.24
504.60	474.38
504.97	483.67
505.33	493.20
505.69	503.37
506.05	513.58
506.41	524.00
506.78	534.88
507.14	546.16
507.50	557.88
507.86	569.83
508.22	582.06
508.59	594.66
508.95	607.60
509.31	620.91
509.67	634.57
510.03	648.63
510.39	663.09
510.75	677.58
511.12	692.63
511.48	707.91
511.84	723.64
512.20	739.22
512.56	755.78
512.92	772.56
513.28	789.52
513.64	806.66
514.00	824.43
514.37	842.40
514.73	860.30
515.09	878.29
515.45	896.99
515.81	916.11
516.17	935.40
516.53	954.76
516.89	974.73
517.25	994.59
517.61	1014.71
517.97	1034.89
518.33	1055.24
518.69	1075.81
519.05	1097.09
519.41	1118.85
519.77	1140.74
520.13	1162.55
520.49	1184.21
520.85	1206.30
521.21	1228.70
521.57	1251.86
521.93	1273.84
522.29	1297.69
522.65	1320.48
523.01	1343.03
523.37	1365.41
523.73	1388.39
524.09	1411.43
524.45	1434.59
524.81	1458.15
525.17	1482.00
525.53	1506.04
525.89	1530.11
526.25	1554.63
526.61	1577.71
526.97	1601.55
527.33	1625.37
527.68	1649.10
528.04	1673.23
528.40	1697.16
528.76	1721.94
529.12	1745.61
529.48	1770.24
529.84	1792.96
530.20	1817.30
530.56	1842.29
530.91	1867.68
531.27	1892.43
531.63	1916.62
531.99	1940.57
532.35	1963.98
532.71	1986.93
533.07	2010.83
533.42	2034.45
533.78	2057.79
534.14	2081.45
534.50	2103.87
534.86	2126.59
535.21	2148.95
535.57	2172.23
535.93	2194.79
536.29	2216.30
536.65	2238.31
537.00	2260.02
537.36	2282.47
537.72	2304.26
538.08	2325.13
538.44	2345.38
538.79	2366.11
539.15	2386.22
539.51	2407.00
539.87	2428.04
540.22	2448.79
540.58	2469.04
540.94	2488.60
541.29	2507.56
541.65	2526.84
542.01	2546.45
542.37	2565.90
542.72	2584.75
543.08	2602.32
543.44	2619.87
543.79	2636.64
544.15	2653.76
544.51	2671.75
544.87	2689.05
545.22	2705.41
545.58	2720.98
545.94	2736.20
546.29	2751.17
546.65	2766.73
547.01	2781.28
547.36	2795.28
547.72	2808.86
548.07	2821.84
548.43	2835.44
548.79	2848.38
549.14	2860.65
549.50	2872.29
549.86	2883.49
550.21	2895.01
550.57	2906.58
550.92	2918.22
551.28	2929.01
551.64	2939.54
551.99	2949.40
552.35	2958.81
552.70	2968.57
553.06	2979.02
553.41	2989.40
553.77	2999.24
554.13	3009.10
554.48	3018.71
554.84	3027.32
555.19	3036.43
555.55	3044.60
555.90	3052.29
556.26	3060.33
556.61	3068.40
556.97	3075.96
557.32	3083.62
557.68	3090.75
558.03	3098.22
558.39	3105.41
558.74	3113.74
559.10	3120.35
559.45	3126.69
559.81	3134.80
560.16	3140.80
560.52	3146.63
560.87	3152.48
561.23	3156.66
561.58	3161.58
561.94	3166.10
562.29	3170.17
562.64	3174.08
563.00	3178.22
563.35	3183.47
563.71	3188.62
564.06	3193.41
564.42	3197.99
564.77	3202.25
565.12	3206.39
565.48	3209.73
565.83	3212.14
566.19	3214.70
566.54	3217.12
566.89	3218.79
567.25	3219.55
567.60	3222.12
567.96	3223.56
568.31	3225.22
568.66	3226.91
569.02	3227.93
569.37	3227.76
569.72	3229.06
570.08	3229.06
570.43	3229.35
570.78	3228.00
571.14	3226.10
571.49	3224.51
571.84	3223.97
572.20	3221.85
572.55	3219.40
572.90	3216.58
573.26	3214.83
573.61	3212.38
573.96	3209.14
574.31	3205.83
574.67	3200.95
575.02	3196.27
575.37	3192.41
575.72	3186.67
576.08	3182.70
576.43	3177.95
576.78	3173.62
577.13	3169.29
577.49	3165.30
577.84	3159.90
578.19	3154.89
578.54	3149.48
578.90	3143.20
579.25	3135.48
579.60	3129.04
579.95	3122.22
580.30	3115.59
580.66	3107.91
581.01	3100.22
581.36	3093.70
581.71	3087.32
582.06	3081.34
582.42	3073.95
582.77	3066.07
583.12	3058.42
583.47	3051.20
583.82	3043.87
584.17	3036.11
584.53	3028.22
584.88	3020.37
585.23	3012.57
585.58	3004.86
585.93	2997.44
586.28	2990.31
586.63	2983.53
586.98	2976.20
587.34	2969.28
587.69	2961.23
588.04	2953.92
588.39	2946.71
588.74	2937.35
589.09	2928.31
589.44	2918.85
589.79	2911.04
590.14	2903.42
590.49	2896.15
590.84	2887.27
591.19	2878.60
591.54	2868.84
591.89	2858.02
592.25	2847.90
592.60	2837.54
592.95	2826.77
593.30	2816.16
593.65	2805.70
594.00	2794.98
594.35	2785.15
594.70	2773.65
595.05	2764.12
595.40	2753.59
595.75	2742.32
596.10	2733.07
596.45	2723.95
596.80	2715.32
597.15	2705.83
597.50	2695.65
597.85	2685.63
598.19	2676.16
598.54	2666.56
598.89	2657.93
599.24	2649.94
599.59	2641.16
599.94	2633.06
600.29	2623.81
600.64	2614.26
600.99	2604.22
601.34	2594.82
601.69	2584.14
602.04	2575.38
602.39	2565.44
602.74	2556.07
603.08	2547.55
603.43	2538.37
603.78	2528.73
604.13	2518.22
604.48	2507.51
604.83	2497.54
605.18	2487.87
605.53	2476.59
605.87	2464.63
606.22	2453.49
606.57	2442.01
606.92	2431.32
607.27	2420.25
607.62	2410.72
607.96	2400.78
608.31	2390.67
608.66	2379.50
609.01	2368.61
609.36	2357.11
609.70	2344.71
610.05	2332.94
610.40	2320.96
610.75	2308.75
611.10	2296.75
611.44	2284.42
611.79	2273.04
612.14	2261.24
612.49	2248.15
612.83	2236.17
613.18	2224.79
613.53	2213.47
613.88	2201.43
614.22	2188.90
614.57	2177.13
614.92	2164.64
615.27	2152.52
615.61	2140.56
615.96	2128.69
616.31	2117.88
616.65	2107.28
617.00	2097.39
617.35	2086.54
617.70	2075.09
618.04	2063.63
618.39	2052.20
618.74	2041.97
619.08	2030.24
619.43	2019.09
619.78	2008.71
620.12	1998.30
620.47	1987.51
620.82	1975.98
621.16	1965.11
621.51	1954.40
621.85	1943.50
622.20	1932.04
622.55	1921.13
622.89	1910.72
623.24	1900.53
623.59	1889.68
623.93	1879.04
624.28	1867.85
624.62	1856.79
624.97	1846.40
625.32	1836.17
625.66	1825.91
626.01	1815.17
626.35	1804.75
626.70	1794.22
627.04	1784.14
627.39	1773.52
627.73	1762.97
628.08	1752.62
628.43	1742.47
628.77	1732.44
629.12	1721.26
629.46	1711.26
629.81	1700.13
630.15	1688.95
630.50	1677.89
630.84	1666.48
631.19	1654.86
631.53	1644.15
631.88	1632.87
632.22	1621.66
632.57	1611.17
632.91	1600.62
633.26	1589.75
633.60	1578.72
633.95	1568.10
634.29	1557.40
634.64	1547.42
634.98	1536.70
635.32	1527.06
635.67	1517.30
636.01	1506.99
636.36	1497.40
636.70	1487.71
637.05	1479.10
637.39	1470.07
637.73	1460.75
638.08	1452.23
638.42	1443.95
638.77	1434.81
639.11	1426.02
639.45	1416.93
639.80	1407.44
640.14	1397.97
640.49	1388.79
640.83	1380.02
641.17	1370.87
641.52	1361.39
641.86	1351.73
642.20	1343.22
642.55	1333.80
642.89	1324.74
643.23	1315.46
643.58	1307.17
643.92	1297.81
644.26	1287.90
644.61	1278.99
644.95	1270.27
645.29	1260.43
645.64	1250.24
645.98	1241.26
646.32	1232.51
646.66	1223.70
647.01	1215.17
647.35	1206.50
647.69	1197.71
648.04	1189.40
648.38	1180.57
648.72	1171.62
649.06	1162.67
649.41	1154.02
649.75	1145.15
650.09	1136.35
650.43	1127.78
650.78	1118.07
651.12	1109.26
651.46	1101.12
651.80	1092.50
652.14	1084.24
652.49	1076.23
652.83	1068.38
653.17	1059.78
653.51	1051.17
653.85	1042.94
654.20	1034.45
654.54	1025.83
654.88	1017.62
655.22	1008.93
655.56	1000.54
655.90	992.67
656.25	984.94
656.59	976.98
656.93	969.40
657.27	961.80
657.61	953.61
657.95	946.40
658.29	939.01
658.64	931.22
658.98	923.35
659.32	915.25
659.66	907.71
660.00	900.11
660.34	892.79
660.68	885.58
661.02	877.93
661.36	870.93
661.70	864.19
662.05	857.60
662.39	851.09
662.73	844.45
663.07	838.22
663.41	831.83
663.75	825.23
664.09	818.80
664.43	812.18
664.77	806.42
665.11	800.27
665.45	794.15
665.79	788.14
666.13	782.09
666.47	776.20
666.81	769.95
667.15	763.93
667.49	758.10
667.83	752.46
668.17	746.92
668.51	741.09
668.85	735.27
669.19	729.69
669.53	724.18
669.87	718.55
670.21	713.14
670.55	707.82
670.89	702.79
671.23	697.66
671.57	692.40
671.91	687.31
672.25	682.04
672.58	676.88
672.92	671.99
673.26	667.28
673.60	662.69
673.94	658.26
674.28	653.87
674.62	649.39
674.96	644.71
675.30	640.43
675.64	636.01
675.97	632.02
676.31	627.64
676.65	623.30
676.99	619.37
677.33	614.93
677.67	610.56
678.01	606.11
678.34	601.84
678.68	597.90
679.02	593.75
679.36	589.87
679.70	586.06
680.04	582.05
680.37	578.19
680.71	574.32
681.05	570.71
681.39	566.96
681.73	563.20
682.06	559.86
682.40	556.46
682.74	553.14
683.08	549.34
683.42	545.74
683.75	542.26
684.09	538.51
684.43	534.90
684.77	531.60
685.10	528.41
685.44	525.24
685.78	521.99
686.12	518.78
686.45	515.49
686.79	512.37
687.13	509.39
687.46	506.20
687.80	503.04
688.14	499.73
688.48	496.86
688.81	493.63
689.15	490.52
689.49	487.24
689.82	484.15
690.16	481.01
690.50	478.24
690.83	475.33
691.17	472.79
691.51	470.16
691.84	467.27
692.18	464.39
692.52	461.30
692.85	458.50
693.19	455.73
693.52	452.98
693.86	449.98
694.20	447.19
694.53	444.59
694.87	442.00
695.21	439.28
695.54	436.58
695.88	434.24
696.21	431.53
696.55	428.96
696.88	426.31
697.22	424.05
697.56	421.60
697.89	419.20
698.23	416.65
698.56	414.31
698.90	411.97
699.23	409.40
699.57	407.27
699.90	404.94
700.24	402.72
700.58	400.55
700.91	398.34
701.25	396.24
701.58	394.18
701.92	392.00
702.25	390.03
702.59	388.00
702.92	385.94
703.26	384.10
703.59	382.21
703.93	380.61
704.26	378.61
704.60	376.64
704.93	374.82
705.26	372.98
705.60	371.18
705.93	369.48
706.27	367.98
706.60	366.29
706.94	364.65
707.27	362.82
707.61	361.26
707.94	359.81
708.27	358.13
708.61	356.53
708.94	354.97
709.28	353.48
709.61	351.89
709.94	350.47
710.28	349.00
710.61	347.63
710.95	345.96
711.28	344.70
711.61	343.29
711.95	341.75
712.28	340.29
712.61	338.83
712.95	337.69
713.28	336.36
713.61	334.93
713.95	333.63
714.28	332.36
714.61	330.99
714.95	329.74
715.28	328.39
715.61	327.03
715.95	325.73
716.28	324.50
716.61	323.46
716.95	322.16
717.28	321.01
717.61	319.83
717.94	318.83
718.28	317.48
718.61	316.41
718.94	315.47
719.27	314.49
719.61	313.62
719.94	312.46
720.27	311.32
720.60	310.40
720.94	309.51
721.27	308.66
721.60	307.76
721.93	306.94
722.27	306.21
722.60	305.40
722.93	304.55
723.26	303.60
723.59	302.51
723.93	301.67
724.26	300.80
724.59	299.94
724.92	299.09
725.25	298.57
725.59	297.77
725.92	296.93
726.25	296.20
726.58	295.33
726.91	294.64
727.24	294.06
727.57	293.36
727.91	292.51
728.24	291.83
728.57	291.03
728.90	290.33
729.23	289.59
729.56	288.93
729.89	288.23
730.22	287.63
730.55	287.00
730.89	286.40
731.22	285.76
731.55	285.09
731.88	284.42
732.21	283.72
732.54	283.02
732.87	282.42
733.20	281.83
733.53	281.23
733.86	280.63
734.19	279.92
734.52	279.30
734.85	278.77
735.18	278.15
735.51	277.63
735.84	277.02
736.17	276.57
736.50	275.96
736.83	275.73
737.16	275.20
737.49	274.78
737.82	274.21
738.15	273.66
738.48	273.18
738.81	272.76
739.14	272.19
739.47	271.79
739.80	271.30
740.13	270.83
740.46	270.27
740.79	269.73
741.12	269.19
741.45	268.77
741.78	268.28
742.11	267.81
742.44	267.46
742.77	267.06
743.10	266.56
743.43	266.01
743.75	265.35
744.08	265.19
744.41	264.70
744.74	264.30
745.07	263.84
745.40	263.40
745.73	263.01
746.06	262.56
746.39	262.17
746.71	261.58
747.04	261.15
747.37	260.81
747.70	260.45
748.03	260.03
748.36	259.60
748.68	259.15
749.01	258.64
749.34	258.23
749.67	257.79
750.00	257.40
750.33	257.18
750.65	256.71
750.98	256.10
751.31	255.72
751.64	255.28
751.97	255.06
752.29	254.70
752.62	254.25
752.95	253.83
753.28	253.37
753.60	253.17
753.93	252.84
754.26	252.41
754.59	251.94
754.91	251.69
755.24	251.39
755.57	251.20
755.90	250.94
756.22	250.57
756.55	250.40
756.88	249.95
757.20	249.51
757.53	249.20
757.86	248.99
758.19	248.88
758.51	248.75
758.84	248.40
759.17	248.17
759.49	248.02
759.82	247.98
760.15	247.80
760.47	247.50
760.80	247.20
761.13	247.15
761.45	246.97
761.78	246.80
762.11	246.62
762.43	246.34
762.76	246.26
763.08	246.05
763.41	245.84
763.74	245.79
764.06	245.66
764.39	245.51
764.71	245.24
765.04	244.93
765.37	244.74
765.69	244.60
766.02	244.42
766.34	244.27
766.67	244.07
767.00	243.91
767.32	243.85
767.65	243.86
767.97	243.71
768.30	243.54
768.62	243.39
768.95	243.16
769.27	243.09
769.60	242.82
769.92	242.67
770.25	242.48
770.57	242.21
770.90	242.14
771.22	241.91
771.55	241.73
771.87	241.63
772.20	241.50
772.52	241.50
772.85	241.62
773.17	241.47
773.50	241.33
773.82	241.27
774.15	241.13
774.47	240.86
774.80	240.64
775.12	240.56
775.45	240.47
775.77	240.50
776.09	240.33
776.42	240.40
776.74	240.37
777.07	240.12
777.39	240.06
777.72	239.88
778.04	239.94
778.36	239.82
778.69	239.77
779.01	239.64
779.33	239.37
779.66	239.10
779.98	238.98
780.31	238.74
780.63	238.73
780.95	238.70
781.28	238.58
781.60	238.48
781.92	238.42
782.25	238.34
782.57	238.24
782.89	238.25
783.22	238.06
783.54	237.94
783.86	237.91
784.19	237.85
784.51	237.81
784.83	237.72
785.16	237.63
785.48	237.52
785.80	237.43
786.12	237.34
786.45	237.18
786.77	236.97
787.09	236.95
787.42	236.72
787.74	236.64
788.06	236.54
788.38	236.46
788.71	236.34
789.03	236.18
789.35	236.00
789.67	235.75
789.99	235.63
790.32	235.59
790.64	235.55
790.96	235.60
791.28	235.57
791.61	235.46
791.93	235.40
792.25	235.32
792.57	235.30
792.89	235.22
793.21	235.14
793.54	235.18
793.86	235.06
794.18	234.99
794.50	234.79
794.82	234.69
795.14	234.66
795.47	234.62
795.79	234.61
796.11	234.60
796.43	234.53
796.75	234.45
797.07	234.35
797.39	234.23
797.71	234.05
798.04	233.88
798.36	233.82
798.68	233.87
799.00	233.72
799.32	233.68
799.64	233.60
799.96	233.59
800.28	233.48
800.60	233.45
800.92	233.34
801.24	233.24
801.56	233.30
801.89	233.21
802.21	233.20
802.53	233.02
802.85	232.97
803.17	233.05
803.49	233.03
803.81	232.88
804.13	232.85
804.45	232.81
804.77	232.84
805.09	232.78
805.41	232.68
805.73	232.64
806.05	232.47
806.37	232.46
806.69	232.41
807.01	232.36
807.33	232.37
807.65	232.23
807.97	232.40
808.28	232.29
808.60	232.35
808.92	232.29
809.24	232.39
809.56	232.29
809.88	232.25
810.20	232.17
810.52	232.23
810.84	232.17
811.16	232.07
811.48	232.13
811.80	232.18
812.12	232.13
812.43	232.16
812.75	232.24
813.07	232.17
813.39	232.15
813.71	232.18
814.03	232.10
814.35	232.20
814.67	232.05
814.98	232.08
815.30	232.03
815.62	231.95
815.94	231.83
816.26	231.95
816.58	231.80
816.89	231.75
817.21	231.63
817.53	231.66
817.85	231.72
818.17	231.59
818.48	231.46
818.80	231.50
819.12	231.40
819.44	231.31
819.76	231.36
820.07	231.37
820.39	231.36
820.71	231.44
821.03	231.38
821.34	231.42
821.66	231.35
821.98	231.21
822.30	231.22
822.61	231.34
822.93	231.11
823.25	231.07
823.57	231.05
823.88	231.08
824.20	230.98
824.52	230.93
824.83	230.84
825.15	230.78
825.47	230.62
825.79	230.61
826.10	230.60
826.42	230.40
826.74	230.27
827.05	230.10
827.37	229.93
827.69	229.86
828.00	229.81
828.32	229.69
828.64	229.67
828.95	229.67
829.27	229.56
829.58	229.58
829.90	229.64
830.22	229.63
830.53	229.65
830.85	229.62
831.17	229.51
831.48	229.43
831.80	229.48
832.11	229.52
832.43	229.42
832.75	229.32
833.06	229.44
833.38	229.38
833.69	229.43
834.01	229.39
834.32	229.39
834.64	229.25
834.96	229.37
835.27	229.37
835.59	229.27
835.90	229.30
836.22	229.31
836.53	229.20
836.85	229.27
837.16	229.50
837.48	229.49
837.79	229.59
838.11	229.68
838.42	229.63
838.74	229.58
839.05	229.65
839.37	229.66
839.68	229.60
840.00	229.71
840.31	229.72
840.63	229.80
840.94	229.86
841.26	229.83
841.57	229.82
841.88	229.83
842.20	229.86
842.51	229.80
842.83	229.85
843.14	230.15
843.46	230.07
843.77	229.90
844.08	229.93
844.40	229.89
844.71	229.86
845.03	229.89
845.34	229.97
845.65	229.94
845.97	230.02
846.28	230.11
846.60	230.05
846.91	230.05
847.22	230.06
847.54	230.11
847.85	230.19
848.16	230.14
848.48	230.17
848.79	230.21
849.10	230.14
849.42	230.17
849.73	230.01
850.04	230.07
850.36	230.04
850.67	230.00
850.98	229.98
851.30	230.01
851.61	230.03
851.92	230.06
852.23	230.21
852.55	230.27
852.86	230.18
853.17	230.27
853.49	230.35
853.80	230.44
854.11	230.38
854.42	230.45
854.74	230.40
855.05	230.37
855.36	230.25
855.67	230.25
855.99	230.30
856.30	230.40
856.61	230.34
856.92	230.31
857.23	230.37
857.55	230.36
857.86	230.35
858.17	230.34
858.48	230.21
858.79	230.20
859.11	230.19
859.42	230.25
859.73	230.20
860.04	230.11
860.35	229.95
860.66	229.88
860.98	229.90
861.29	229.97
861.60	229.94
861.91	229.99
862.22	230.00
862.53	229.85
862.84	229.61
863.16	229.61
863.47	229.49
863.78	229.38
864.09	229.37
864.40	229.38
864.71	229.39
865.02	229.38
865.33	229.20
865.64	229.12
865.95	229.01
866.27	229.07
866.58	229.03
866.89	228.99
867.20	229.01
867.51	228.92
867.82	228.83
868.13	228.88
868.44	228.80
868.75	228.80
869.06	228.63
869.37	228.58
869.68	228.51
869.99	228.50
870.30	228.55
870.61	228.45
870.92	228.34
871.23	228.19
871.54	228.21
871.85	228.28
872.16	228.22
872.47	228.21
872.78	228.06
873.09	228.08
873.40	228.11
873.71	228.10
874.02	228.16
874.33	228.07
874.64	228.01
874.95	228.05
875.26	228.10
875.56	228.37
875.87	228.39
876.18	228.38
876.49	228.59
876.80	228.64
877.11	228.72
877.42	228.74
877.73	228.82
878.04	228.79
878.35	228.80
878.66	228.87
878.96	228.92
879.27	228.92
879.58	228.94
879.89	228.81
880.20	228.94
880.51	228.93
880.82	229.08
881.12	229.11
881.43	229.08
881.74	229.03
882.05	228.88
882.36	228.90
882.67	228.95
882.97	228.91
883.28	228.87
883.59	228.84
883.90	228.90
884.21	228.98
884.51	228.98
884.82	229.00
885.13	228.91
885.44	228.86
885.74	228.85
886.05	228.91
886.36	228.94
886.67	228.78
886.98	228.87
887.28	228.75
887.59	228.71
887.90	228.80
888.20	228.71
888.51	228.80
888.82	228.87
889.13	228.86
889.43	228.95
889.74	228.89
890.05	228.90
890.35	228.88
890.66	228.77
890.97	228.89
891.28	228.82
891.58	228.85
891.89	228.82
892.20	228.89
892.50	228.82
892.81	228.93
893.12	228.98
893.42	228.93
893.73	229.06
894.04	229.13
894.34	229.05
894.65	229.09
894.95	229.00
895.26	228.97
895.57	229.05
895.87	228.87
896.18	228.97
896.48	228.98
896.79	228.98
897.10	228.96
897.40	228.89
897.71	228.94
898.01	228.89
898.32	228.97
898.63	229.00
898.93	228.93
899.24	228.95
899.54	228.89
899.85	228.78
900.15	228.79
900.46	228.74
900.76	228.84
901.07	228.90
901.38	228.93
901.68	228.90
901.99	228.84
902.29	228.80
902.60	228.73
902.90	228.72
903.21	228.70
903.51	228.80
903.82	228.80
904.12	228.73
904.43	228.77
904.73	228.74
905.03	228.64
905.34	228.89
905.64	228.88
905.95	228.86
906.25	228.98
906.56	228.89
906.86	228.95
907.17	228.87
907.47	228.79
907.77	228.67
908.08	228.65
908.38	228.64
908.69	228.62
908.99	228.63
909.30	228.60
909.60	228.52
909.90	228.41
910.21	228.38
910.51	228.34
910.81	228.35
911.12	228.37
911.42	228.39
911.73	228.15
912.03	228.05
912.33	228.03
912.64	227.86
912.94	227.82
913.24	227.64
913.55	227.61
913.85	227.62
914.15	227.75
914.46	227.72
914.76	227.69
915.06	227.76
915.37	227.81
915.67	227.78
915.97	227.83
916.27	227.91
916.58	227.81
916.88	227.91
917.18	227.88
917.49	227.97
917.79	227.96
918.09	227.94
918.39	227.98
918.70	228.03
919.00	228.19
919.30	228.33
919.60	228.42
919.91	228.38
920.21	228.47
920.51	228.47
920.81	228.53
921.12	228.57
921.42	228.52
921.72	228.48
922.02	228.53
922.32	228.45
922.63	228.42
922.93	228.59
923.23	228.51
923.53	228.50
923.83	228.38
924.13	228.47
924.44	228.59
924.74	228.58
925.04	228.64
925.34	228.55
925.64	228.43
925.94	228.46
926.24	228.70
926.55	228.67
926.85	228.64
927.15	228.68
927.45	228.72
927.75	228.69
928.05	228.67
928.35	228.70
928.65	228.84
928.95	228.90
929.26	228.82
929.56	228.90
929.86	229.00
930.16	229.00
930.46	228.96
930.76	228.97
931.06	229.02
931.36	229.02
931.66	229.05
931.96	229.17
932.26	229.16
932.56	229.01
932.86	228.99
933.16	229.00
933.46	228.95
933.76	228.89
934.06	229.10
934.36	229.13
934.66	229.15
934.96	229.04
935.26	229.04
935.56	229.10
935.86	229.09
936.16	229.00
936.46	228.97
936.76	228.97
937.06	228.91
937.36	228.84
937.66	228.77
937.96	228.68
938.26	228.57
938.56	228.48
938.86	228.47
939.16	228.55
939.46	228.64
939.76	228.64
940.06	228.69
940.35	228.48
940.65	228.46
940.95	228.43
941.25	228.48
941.55	228.36
941.85	228.43
942.15	228.36
942.45	228.44
942.75	228.41
943.04	228.29
943.34	228.30
943.64	228.32
943.94	228.32
944.24	228.35
944.54	228.42
944.84	228.50
945.13	228.39
945.43	228.30
945.73	228.17
946.03	228.23
946.33	228.16
946.62	228.18
946.92	228.06
947.22	228.06
947.52	228.12
947.82	228.15
948.11	228.09
948.41	228.09
948.71	227.96
949.01	228.02
949.31	228.11
949.60	228.03
949.90	228.14
950.20	228.24
950.50	228.24
950.79	228.11
951.09	228.09
951.39	228.09
951.69	228.05
951.98	228.07
952.28	227.92
952.58	227.83
952.87	227.83
953.17	227.91
953.47	227.86
953.76	227.79
954.06	227.81
954.36	227.78
954.66	227.87
954.95	228.03
955.25	228.10
955.55	228.11
955.84	228.14
956.14	228.04
956.44	228.01
956.73	228.00
957.03	228.09
957.32	228.20
957.62	228.27
957.92	228.32
958.21	228.33
958.51	228.61
958.81	228.74
959.10	228.74
959.40	228.83
959.69	228.86
959.99	228.91
960.29	228.95
960.58	228.94
960.88	228.91
961.17	228.85
961.47	228.78
961.76	228.82
962.06	228.82
962.36	228.84
962.65	228.88
962.95	228.96
963.24	228.94
963.54	228.89
963.83	229.00
964.13	229.07
964.42	229.17
964.72	229.01
965.01	229.07
965.31	229.07
965.60	228.95
965.90	229.13
966.19	229.11
966.49	229.04
966.78	229.02
967.08	229.12
967.37	229.34
967.67	229.36
967.96	229.36
968.26	229.43
968.55	229.38
968.85	229.34
969.14	229.29
969.43	229.35
969.73	229.36
970.02	229.30
970.32	229.21
970.61	229.10
970.91	229.13
971.20	229.09
971.49	228.99
971.79	229.11
972.08	228.90
972.38	229.01
972.67	229.02
972.96	229.01
973.26	228.89
973.55	228.75
973.85	228.76
974.14	228.79
974.43	228.84
974.73	228.84
975.02	228.81
975.31	228.86
975.61	228.76
975.90	228.69
976.19	228.60
976.49	228.70
976.78	228.80
977.07	228.69
977.37	228.66
977.66	228.86
977.95	228.85
978.24	228.88
978.54	228.75
978.83	228.81
979.12	228.80
979.42	228.82
979.71	228.78
980.00	228.77
980.29	228.74
980.59	228.63
980.88	228.76
981.17	228.73
981.46	228.60
981.76	228.72
982.05	228.88
982.34	228.97
982.63	228.90
982.93	228.85
983.22	229.02
983.51	229.07
983.80	229.02
984.09	229.06
984.39	229.00
984.68	229.00
984.97	228.87
985.26	228.85
985.55	228.83
985.85	228.76
986.14	228.73
986.43	228.68
986.72	228.68
987.01	228.52
987.30	228.50
987.59	228.54
987.89	228.45
988.18	228.20
988.47	228.02
988.76	228.04
989.05	228.01
989.34	227.79
989.63	227.84
989.92	227.80
990.22	227.72
990.51	227.78
990.80	227.77
991.09	227.83
991.38	227.85
991.67	227.80
991.96	227.80
992.25	227.87
992.54	227.82
992.83	227.75
993.12	227.69
993.41	227.74
993.70	227.83
993.99	227.96
994.28	228.05
994.58	228.17
994.87	228.04
995.16	228.01
995.45	228.04
995.74	227.99
996.03	227.94
996.32	228.02
996.61	228.14
996.90	228.12
997.19	228.06
997.48	228.09
997.77	228.18
998.06	228.16
998.34	228.11
998.63	228.17
998.92	228.22
999.21	228.35
999.50	228.32
999.79	228.21
1000.08	228.12
1000.37	228.14
1000.66	228.18
1000.95	228.32
1001.24	228.24
1001.53	228.29
1001.82	228.31
1002.11	228.29
1002.40	228.18
1002.68	228.09
1002.97	228.23
1003.26	228.35
1003.55	228.38
1003.84	228.32
1004.13	228.44
1004.42	228.41
1004.71	228.32
1004.99	228.27
1005.28	228.31
1005.57	228.27
1005.86	228.23
1006.15	228.29
1006.44	228.20
1006.72	228.25
1007.01	228.14
1007.30	228.19
1007.59	228.23
1007.88	228.20
1008.17	228.30
1008.45	228.30
1008.74	228.24
1009.03	228.14
1009.32	228.00
1009.60	227.96
1009.89	227.95
1010.18	227.78
1010.47	227.80
1010.76	227.90
1011.04	228.12
1011.33	228.16
1011.62	228.22
1011.91	228.30
1012.19	228.25
1012.48	228.35
1012.77	228.26
1013.05	228.38
1013.34	228.31
1013.63	228.24
1013.92	228.23
1014.20	228.15
1014.49	228.34
1014.78	228.36
1015.06	228.33
1015.35	228.37
1015.64	228.38
1015.92	228.39
1016.21	228.46
1016.50	228.36
1016.78	228.30
1017.07	228.23
1017.36	228.04
1017.64	227.98
1017.93	228.03
1018.22	228.01
1018.50	228.00
1018.79	228.03
1019.08	227.97
1019.36	228.00
1019.65	228.05
1019.93	228.05
1020.22	228.15
1020.51	228.07
1020.79	228.06
1021.08	228.10
1021.36	228.60
1021.65	228.50
1021.94	228.20
1022.22	226.60
1022.51	228.80
1022.79	228.20
1023.08	229.40
1023.36	230.10
1023.65	227.50
>>>>>End Processed Spectral Data<<<<<
