SpectraSuite Data File
++++++++++++++++++++++++++++++++++++
Date: Fri Feb 01 14:38:21 EST 2013
User: group
Dark Spectrum Present: No
Reference Spectrum Present: No
Number of Sampled Component Spectra: 1
Spectrometers: USB2E7196
Integration Time (usec): 70000 (USB2E7196)
Spectra Averaged: 10 (USB2E7196)
Boxcar Smoothing: 10 (USB2E7196)
Correct for Electrical Dark: No (USB2E7196)
Strobe/Lamp Enabled: No (USB2E7196)
Correct for Detector Non-linearity: No (USB2E7196)
Correct for Stray Light: No (USB2E7196)
Number of Pixels in Processed Spectrum: 2048
>>>>>Begin Processed Spectral Data<<<<<
339.09	0.00
339.48	216.60
339.86	217.10
340.24	219.70
340.63	221.80
341.01	226.80
341.39	223.60
341.78	224.90
342.16	227.10
342.54	226.00
342.93	215.00
343.31	225.88
343.69	226.42
344.07	226.85
344.46	227.29
344.84	227.57
345.22	227.70
345.60	227.98
345.99	228.17
346.37	228.26
346.75	228.36
347.13	228.35
347.52	228.46
347.90	228.55
348.28	228.72
348.66	228.74
349.05	228.62
349.43	228.70
349.81	228.73
350.19	228.74
350.57	228.80
350.96	228.90
351.34	229.01
351.72	229.08
352.10	229.32
352.48	229.26
352.87	229.33
353.25	229.30
353.63	229.20
354.01	229.23
354.39	229.27
354.77	229.30
355.15	229.43
355.54	229.55
355.92	229.53
356.30	229.58
356.68	229.86
357.06	229.90
357.44	229.91
357.82	229.94
358.20	230.09
358.58	230.02
358.97	230.08
359.35	230.07
359.73	230.17
360.11	230.13
360.49	230.23
360.87	230.28
361.25	230.33
361.63	230.60
362.01	230.57
362.39	230.62
362.77	230.62
363.15	230.57
363.53	230.56
363.91	230.59
364.29	230.59
364.67	230.23
365.05	230.23
365.43	230.16
365.81	230.14
366.19	230.13
366.57	230.26
366.95	230.24
367.33	230.24
367.71	230.13
368.09	230.07
368.47	230.04
368.85	229.95
369.23	229.90
369.61	229.68
369.99	229.75
370.37	229.60
370.75	229.70
371.13	229.51
371.51	229.36
371.89	229.12
372.27	229.00
372.65	228.93
373.03	228.84
373.41	228.70
373.78	228.67
374.16	228.47
374.54	228.33
374.92	228.23
375.30	228.04
375.68	228.03
376.06	227.99
376.44	227.90
376.82	227.85
377.19	227.76
377.57	227.62
377.95	227.44
378.33	227.34
378.71	227.13
379.09	227.16
379.47	227.00
379.84	227.11
380.22	226.99
380.60	226.92
380.98	226.87
381.36	226.92
381.73	226.84
382.11	226.86
382.49	226.70
382.87	226.54
383.25	226.52
383.62	226.52
384.00	226.42
384.38	226.36
384.76	226.32
385.13	226.43
385.51	226.40
385.89	226.30
386.27	226.26
386.64	226.27
387.02	226.28
387.40	226.40
387.78	226.31
388.15	226.32
388.53	226.30
388.91	226.25
389.29	226.22
389.66	226.24
390.04	226.18
390.42	226.18
390.79	226.16
391.17	226.15
391.55	226.05
391.92	226.03
392.30	226.02
392.68	226.07
393.05	225.98
393.43	226.15
393.81	226.20
394.18	226.32
394.56	226.32
394.94	226.36
395.31	226.31
395.69	226.41
396.06	226.51
396.44	226.58
396.82	226.66
397.19	226.74
397.57	226.71
397.95	226.82
398.32	226.98
398.70	227.13
399.07	227.34
399.45	227.36
399.82	227.44
400.20	227.60
400.58	227.67
400.95	227.75
401.33	227.75
401.70	228.01
402.08	228.08
402.45	228.17
402.83	228.28
403.20	228.44
403.58	228.51
403.95	228.57
404.33	228.78
404.71	228.89
405.08	229.19
405.46	229.44
405.83	229.65
406.21	229.80
406.58	229.99
406.96	230.10
407.33	230.40
407.70	230.79
408.08	231.02
408.45	231.30
408.83	231.67
409.20	231.90
409.58	232.16
409.95	232.52
410.33	232.87
410.70	233.12
411.08	233.51
411.45	233.83
411.82	234.32
412.20	234.72
412.57	235.30
412.95	235.51
413.32	235.91
413.69	236.38
414.07	236.93
414.44	237.50
414.82	238.01
415.19	238.58
415.56	239.10
415.94	239.87
416.31	240.60
416.68	241.26
417.06	242.20
417.43	243.06
417.81	244.05
418.18	245.14
418.55	246.27
418.93	247.40
419.30	248.63
419.67	249.63
420.04	251.00
420.42	252.24
420.79	253.94
421.16	255.48
421.54	257.02
421.91	258.61
422.28	260.29
422.66	262.11
423.03	264.02
423.40	265.83
423.77	267.64
424.15	269.68
424.52	271.61
424.89	273.76
425.26	275.79
425.64	277.71
426.01	279.70
426.38	282.01
426.75	284.34
427.13	286.73
427.50	289.38
427.87	291.98
428.24	294.57
428.61	296.93
428.99	299.77
429.36	302.75
429.73	305.80
430.10	308.70
430.47	311.75
430.85	314.65
431.22	317.84
431.59	321.45
431.96	324.67
432.33	328.38
432.70	331.90
433.08	335.96
433.45	339.89
433.82	343.84
434.19	348.16
434.56	352.25
434.93	356.17
435.30	360.07
435.68	364.40
436.05	368.61
436.42	372.96
436.79	376.71
437.16	380.92
437.53	385.26
437.90	389.47
438.27	393.71
438.64	398.12
439.01	402.16
439.38	405.67
439.75	409.07
440.13	413.00
440.50	416.91
440.87	419.92
441.24	423.03
441.61	426.53
441.98	429.10
442.35	432.21
442.72	435.44
443.09	438.59
443.46	440.34
443.83	441.77
444.20	442.85
444.57	444.44
444.94	445.18
445.31	446.00
445.68	447.09
446.05	447.61
446.42	447.49
446.79	447.38
447.16	447.01
447.53	447.05
447.90	445.85
448.27	444.36
448.64	442.56
449.01	441.36
449.37	438.89
449.74	436.50
450.11	433.56
450.48	430.12
450.85	426.77
451.22	424.00
451.59	421.18
451.96	418.53
452.33	415.00
452.70	411.92
453.07	407.97
453.43	403.90
453.80	399.98
454.17	396.23
454.54	392.60
454.91	388.78
455.28	384.87
455.65	381.24
456.02	377.88
456.38	374.70
456.75	370.80
457.12	367.59
457.49	364.23
457.86	360.97
458.23	358.30
458.59	355.23
458.96	352.10
459.33	349.54
459.70	346.81
460.07	344.66
460.43	342.09
460.80	339.78
461.17	337.54
461.54	335.20
461.91	333.10
462.27	331.00
462.64	329.14
463.01	327.12
463.38	325.22
463.74	323.05
464.11	321.28
464.48	319.78
464.85	318.02
465.21	316.65
465.58	315.25
465.95	313.66
466.32	312.22
466.68	310.78
467.05	309.29
467.42	307.93
467.78	306.28
468.15	304.79
468.52	303.65
468.88	302.38
469.25	301.16
469.62	300.03
469.98	298.85
470.35	297.78
470.72	296.77
471.08	295.62
471.45	294.68
471.82	293.86
472.18	292.74
472.55	292.03
472.92	291.13
473.28	290.28
473.65	289.43
474.02	288.60
474.38	287.95
474.75	287.28
475.11	286.62
475.48	286.12
475.85	285.58
476.21	285.03
476.58	284.46
476.94	283.96
477.31	283.57
477.67	283.15
478.04	282.67
478.41	282.33
478.77	282.14
479.14	281.78
479.50	281.42
479.87	281.14
480.23	280.68
480.60	280.36
480.96	280.20
481.33	280.02
481.69	279.88
482.06	279.58
482.42	279.43
482.79	279.24
483.15	279.16
483.52	279.21
483.88	279.03
484.25	278.96
484.61	279.08
484.98	278.93
485.34	279.04
485.71	279.16
486.07	279.23
486.44	279.11
486.80	279.13
487.17	279.19
487.53	279.34
487.90	279.71
488.26	280.06
488.62	280.15
488.99	280.29
489.35	280.35
489.72	280.66
490.08	280.90
490.44	281.20
490.81	281.45
491.17	281.58
491.54	281.86
491.90	282.22
492.26	282.41
492.63	282.62
492.99	282.69
493.36	282.86
493.72	283.16
494.08	283.54
494.45	283.86
494.81	284.24
495.17	284.64
495.54	284.90
495.90	285.09
496.26	285.46
496.63	285.85
496.99	286.44
497.35	286.90
497.72	287.29
498.08	287.60
498.44	288.02
498.80	288.48
499.17	288.88
499.53	289.23
499.89	289.79
500.26	290.30
500.62	290.93
500.98	291.45
501.34	291.87
501.71	292.10
502.07	292.49
502.43	292.71
502.79	292.99
503.16	293.34
503.52	293.57
503.88	293.79
504.24	294.18
504.60	294.47
504.97	294.80
505.33	294.98
505.69	295.38
506.05	295.60
506.41	295.88
506.78	296.20
507.14	296.38
507.50	296.61
507.86	296.79
508.22	296.89
508.59	297.23
508.95	297.52
509.31	298.13
509.67	298.50
510.03	299.03
510.39	299.49
510.75	299.86
511.12	300.42
511.48	300.90
511.84	301.29
512.20	301.67
512.56	302.05
512.92	302.67
513.28	303.18
513.64	303.70
514.00	304.41
514.37	304.92
514.73	305.58
515.09	306.35
515.45	307.21
515.81	308.09
516.17	308.81
516.53	309.70
516.89	310.47
517.25	311.56
517.61	312.53
517.97	313.58
518.33	314.70
518.69	315.81
519.05	317.22
519.41	318.62
519.77	320.27
520.13	321.83
520.49	323.39
520.85	325.13
521.21	327.02
521.57	328.70
521.93	330.57
522.29	332.70
522.65	334.56
523.01	336.65
523.37	338.70
523.73	340.79
524.09	343.10
524.45	345.51
524.81	347.80
525.17	350.35
525.53	353.00
525.89	355.73
526.25	358.56
526.61	361.25
526.97	364.14
527.33	366.90
527.68	370.09
528.04	373.22
528.40	376.20
528.76	379.54
529.12	383.02
529.48	386.65
529.84	390.10
530.20	393.76
530.56	397.62
530.91	401.72
531.27	405.79
531.63	409.87
531.99	413.97
532.35	418.17
532.71	422.48
533.07	426.81
533.42	431.44
533.78	435.88
534.14	440.47
534.50	444.98
534.86	449.89
535.21	454.44
535.57	459.34
535.93	464.33
536.29	469.24
536.65	474.02
537.00	479.01
537.36	484.31
537.72	489.51
538.08	494.60
538.44	499.63
538.79	505.07
539.15	510.03
539.51	515.35
539.87	520.71
540.22	526.18
540.58	531.67
540.94	536.91
541.29	542.50
541.65	548.09
542.01	553.88
542.37	559.52
542.72	565.21
543.08	570.81
543.44	576.58
543.79	582.29
544.15	588.02
544.51	593.91
544.87	599.57
545.22	605.46
545.58	611.23
545.94	616.98
546.29	622.52
546.65	628.43
547.01	634.05
547.36	639.83
547.72	645.46
548.07	651.03
548.43	656.49
548.79	662.05
549.14	667.56
549.50	673.06
549.86	678.20
550.21	683.70
550.57	689.48
550.92	695.03
551.28	700.51
551.64	706.24
551.99	711.63
552.35	716.97
552.70	722.28
553.06	727.72
553.41	733.20
553.77	738.76
554.13	744.30
554.48	749.97
554.84	755.42
555.19	760.84
555.55	766.27
555.90	771.54
556.26	777.07
556.61	782.36
556.97	787.20
557.32	792.48
557.68	797.65
558.03	802.64
558.39	807.73
558.74	812.86
559.10	817.76
559.45	822.61
559.81	827.90
560.16	832.68
560.52	837.54
560.87	842.67
561.23	847.35
561.58	851.95
561.94	856.51
562.29	860.98
562.64	865.23
563.00	869.52
563.35	874.33
563.71	878.80
564.06	883.48
564.42	888.14
564.77	892.72
565.12	897.32
565.48	901.58
565.83	905.49
566.19	909.69
566.54	913.87
566.89	918.08
567.25	921.93
567.60	926.03
567.96	929.98
568.31	933.52
568.66	937.34
569.02	940.88
569.37	944.30
569.72	947.89
570.08	951.42
570.43	954.66
570.78	957.62
571.14	960.40
571.49	963.33
571.84	966.69
572.20	969.39
572.55	972.06
572.90	974.49
573.26	977.22
573.61	979.60
573.96	981.83
574.31	984.00
574.67	985.71
575.02	987.51
575.37	989.27
575.72	991.00
576.08	992.66
576.43	994.21
576.78	995.75
577.13	997.21
577.49	998.90
577.84	1000.67
578.19	1001.95
578.54	1003.28
578.90	1004.32
579.25	1004.67
579.60	1005.58
579.95	1006.28
580.30	1006.95
580.66	1007.60
581.01	1007.70
581.36	1008.43
581.71	1008.94
582.06	1009.48
582.42	1009.94
582.77	1010.39
583.12	1010.70
583.47	1011.07
583.82	1011.57
584.17	1011.73
584.53	1011.78
584.88	1011.72
585.23	1011.81
585.58	1011.94
585.93	1012.10
586.28	1012.30
586.63	1012.67
586.98	1012.75
587.34	1012.57
587.69	1012.47
588.04	1012.52
588.39	1012.82
588.74	1012.15
589.09	1011.64
589.44	1011.01
589.79	1010.67
590.14	1010.21
590.49	1009.45
590.84	1008.61
591.19	1007.85
591.54	1007.00
591.89	1005.76
592.25	1004.94
592.60	1003.26
592.95	1002.04
593.30	1000.47
593.65	998.82
594.00	997.22
594.35	995.95
594.70	994.55
595.05	993.42
595.40	991.48
595.75	989.64
596.10	988.30
596.45	987.05
596.80	985.74
597.15	983.99
597.50	982.57
597.85	981.14
598.19	979.98
598.54	978.49
598.89	977.25
599.24	976.32
599.59	974.57
599.94	973.57
600.29	971.91
600.64	970.44
600.99	968.55
601.34	966.96
601.69	965.20
602.04	963.20
602.39	961.27
602.74	959.90
603.08	958.50
603.43	956.99
603.78	954.92
604.13	953.13
604.48	951.36
604.83	949.21
605.18	947.30
605.53	944.82
605.87	942.51
606.22	940.14
606.57	937.52
606.92	935.24
607.27	933.25
607.62	931.61
607.96	929.44
608.31	927.70
608.66	925.31
609.01	922.53
609.36	920.28
609.70	917.40
610.05	914.61
610.40	912.01
610.75	909.27
611.10	906.51
611.44	903.43
611.79	900.66
612.14	897.89
612.49	894.68
612.83	891.57
613.18	888.74
613.53	885.82
613.88	882.72
614.22	879.59
614.57	876.00
614.92	872.64
615.27	869.57
615.61	866.18
615.96	863.18
616.31	860.58
616.65	857.82
617.00	854.85
617.35	851.84
617.70	848.43
618.04	844.81
618.39	841.90
618.74	839.18
619.08	836.08
619.43	833.07
619.78	830.22
620.12	827.31
620.47	824.40
620.82	821.31
621.16	818.38
621.51	815.70
621.85	812.60
622.20	809.39
622.55	806.37
622.89	803.56
623.24	800.70
623.59	797.58
623.93	794.46
624.28	791.73
624.62	788.80
624.97	786.37
625.32	783.91
625.66	780.70
626.01	777.88
626.35	774.91
626.70	771.70
627.04	768.87
627.39	765.90
627.73	762.62
628.08	759.67
628.43	756.73
628.77	753.52
629.12	750.48
629.46	747.53
629.81	744.04
630.15	740.61
630.50	737.29
630.84	733.83
631.19	730.46
631.53	727.03
631.88	723.62
632.22	719.75
632.57	716.65
632.91	713.68
633.26	710.30
633.60	707.05
633.95	703.98
634.29	700.86
634.64	697.80
634.98	694.75
635.32	691.77
635.67	689.19
636.01	686.28
636.36	683.31
636.70	680.52
637.05	678.13
637.39	675.62
637.73	672.69
638.08	670.17
638.42	667.45
638.77	664.83
639.11	661.89
639.45	659.41
639.80	656.28
640.14	653.44
640.49	650.49
640.83	647.65
641.17	644.85
641.52	641.79
641.86	638.93
642.20	636.32
642.55	633.39
642.89	630.30
643.23	627.49
643.58	625.01
643.92	621.83
644.26	618.88
644.61	615.81
644.95	613.18
645.29	609.99
645.64	606.87
645.98	604.01
646.32	601.51
646.66	598.57
647.01	595.69
647.35	592.90
647.69	590.19
648.04	587.58
648.38	584.64
648.72	581.80
649.06	578.92
649.41	575.83
649.75	572.66
650.09	569.70
650.43	566.67
650.78	563.47
651.12	560.65
651.46	557.83
651.80	555.11
652.14	552.38
652.49	549.81
652.83	547.31
653.17	544.47
653.51	541.58
653.85	538.93
654.20	536.19
654.54	533.30
654.88	530.66
655.22	527.74
655.56	524.93
655.90	522.29
656.25	519.79
656.59	517.12
656.93	514.92
657.27	512.28
657.61	509.65
657.95	507.29
658.29	504.95
658.64	502.10
658.98	499.42
659.32	496.55
659.66	494.10
660.00	491.42
660.34	489.00
660.68	486.46
661.02	483.93
661.36	481.77
661.70	479.49
662.05	477.17
662.39	474.95
662.73	472.86
663.07	470.73
663.41	468.50
663.75	466.33
664.09	463.96
664.43	461.80
664.77	459.63
665.11	457.40
665.45	455.17
665.79	453.24
666.13	451.22
666.47	449.23
666.81	447.04
667.15	444.87
667.49	442.92
667.83	441.08
668.17	439.00
668.51	436.76
668.85	434.67
669.19	432.70
669.53	430.65
669.87	428.47
670.21	426.54
670.55	424.48
670.89	422.80
671.23	421.12
671.57	419.32
671.91	417.56
672.25	415.69
672.58	413.99
672.92	412.19
673.26	410.67
673.60	409.23
673.94	407.64
674.28	406.28
674.62	404.60
674.96	402.90
675.30	401.43
675.64	400.01
675.97	398.66
676.31	397.11
676.65	395.52
676.99	394.18
677.33	392.50
677.67	391.12
678.01	389.42
678.34	387.73
678.68	386.19
679.02	384.70
679.36	383.33
679.70	381.84
680.04	380.48
680.37	378.85
680.71	377.13
681.05	375.54
681.39	374.04
681.73	372.63
682.06	371.40
682.40	370.12
682.74	368.72
683.08	367.33
683.42	365.85
683.75	364.57
684.09	363.22
684.43	361.98
684.77	360.60
685.10	359.35
685.44	358.10
685.78	356.90
686.12	355.60
686.45	354.37
686.79	353.15
687.13	351.90
687.46	350.68
687.80	349.49
688.14	348.32
688.48	347.18
688.81	345.90
689.15	344.70
689.49	343.26
689.82	342.02
690.16	340.78
690.50	339.70
690.83	338.51
691.17	337.29
691.51	336.16
691.84	335.05
692.18	333.79
692.52	332.69
692.85	331.62
693.19	330.56
693.52	329.45
693.86	328.18
694.20	326.99
694.53	325.80
694.87	324.74
695.21	323.66
695.54	322.56
695.88	321.40
696.21	320.14
696.55	319.08
696.88	317.94
697.22	316.83
697.56	315.89
697.89	314.99
698.23	313.96
698.56	312.92
698.90	312.02
699.23	311.09
699.57	310.00
699.90	309.01
700.24	308.00
700.58	306.93
700.91	306.15
701.25	305.43
701.58	304.81
701.92	304.01
702.25	303.17
702.59	302.36
702.92	301.70
703.26	300.95
703.59	300.16
703.93	299.62
704.26	298.84
704.60	297.98
704.93	297.20
705.26	296.52
705.60	295.83
705.93	295.05
706.27	294.42
706.60	293.88
706.94	293.14
707.27	292.50
707.61	291.91
707.94	291.21
708.27	290.36
708.61	289.38
708.94	288.66
709.28	288.01
709.61	287.25
709.94	286.63
710.28	285.95
710.61	285.40
710.95	284.58
711.28	284.09
711.61	283.43
711.95	282.75
712.28	282.11
712.61	281.46
712.95	280.93
713.28	280.44
713.61	279.80
713.95	279.21
714.28	278.70
714.61	278.17
714.95	277.59
715.28	277.10
715.61	276.67
715.95	276.13
716.28	275.59
716.61	275.15
716.95	274.61
717.28	274.25
717.61	273.73
717.94	273.29
718.28	272.72
718.61	272.20
718.94	271.76
719.27	271.38
719.61	270.88
719.94	270.39
720.27	269.79
720.60	269.40
720.94	269.05
721.27	268.60
721.60	268.04
721.93	267.63
722.27	267.30
722.60	266.91
722.93	266.53
723.26	266.16
723.59	265.76
723.93	265.29
724.26	264.96
724.59	264.66
724.92	264.29
725.25	264.11
725.59	263.86
725.92	263.53
726.25	263.23
726.58	263.03
726.91	262.71
727.24	262.50
727.57	262.12
727.91	261.69
728.24	261.52
728.57	261.27
728.90	260.99
729.23	260.56
729.56	260.39
729.89	260.02
730.22	259.70
730.55	259.45
730.89	259.22
731.22	258.80
731.55	258.47
731.88	258.14
732.21	257.70
732.54	257.26
732.87	256.99
733.20	256.58
733.53	256.34
733.86	255.97
734.19	255.62
734.52	255.35
734.85	255.27
735.18	254.88
735.51	254.72
735.84	254.37
736.17	254.11
736.50	253.76
736.83	253.72
737.16	253.40
737.49	253.07
737.82	252.84
738.15	252.61
738.48	252.33
738.81	252.09
739.14	251.77
739.47	251.62
739.80	251.36
740.13	251.13
740.46	250.71
740.79	250.51
741.12	250.42
741.45	250.14
741.78	249.70
742.11	249.52
742.44	249.15
742.77	249.01
743.10	248.83
743.43	248.49
743.75	248.03
744.08	248.08
744.41	247.78
744.74	247.47
745.07	247.13
745.40	246.88
745.73	246.75
746.06	246.50
746.39	246.25
746.71	245.98
747.04	245.74
747.37	245.48
747.70	245.26
748.03	244.97
748.36	244.80
748.68	244.62
749.01	244.35
749.34	244.21
749.67	243.90
750.00	243.68
750.33	243.60
750.65	243.49
750.98	243.01
751.31	242.94
751.64	242.73
751.97	242.71
752.29	242.62
752.62	242.33
752.95	242.09
753.28	241.85
753.60	241.66
753.93	241.48
754.26	241.38
754.59	241.18
754.91	240.95
755.24	240.81
755.57	240.58
755.90	240.44
756.22	240.24
756.55	240.10
756.88	239.81
757.20	239.64
757.53	239.48
757.86	239.39
758.19	239.21
758.51	239.18
758.84	238.89
759.17	238.61
759.49	238.52
759.82	238.53
760.15	238.47
760.47	238.37
760.80	238.21
761.13	238.15
761.45	238.06
761.78	237.95
762.11	237.83
762.43	237.77
762.76	237.63
763.08	237.53
763.41	237.57
763.74	237.55
764.06	237.38
764.39	237.22
764.71	237.07
765.04	236.95
765.37	236.78
765.69	236.74
766.02	236.77
766.34	236.70
766.67	236.60
767.00	236.56
767.32	236.59
767.65	236.62
767.97	236.53
768.30	236.49
768.62	236.43
768.95	236.35
769.27	236.33
769.60	236.23
769.92	236.20
770.25	236.07
770.57	235.98
770.90	235.90
771.22	235.90
771.55	235.84
771.87	235.81
772.20	235.81
772.52	235.94
772.85	236.10
773.17	235.96
773.50	235.91
773.82	235.77
774.15	235.59
774.47	235.53
774.80	235.52
775.12	235.42
775.45	235.34
775.77	235.35
776.09	235.30
776.42	235.28
776.74	235.25
777.07	235.18
777.39	235.13
777.72	235.16
778.04	235.06
778.36	234.98
778.69	234.89
779.01	234.85
779.33	234.65
779.66	234.38
779.98	234.32
780.31	234.25
780.63	234.31
780.95	234.27
781.28	234.16
781.60	233.93
781.92	233.89
782.25	233.83
782.57	233.62
782.89	233.50
783.22	233.36
783.54	233.30
783.86	233.17
784.19	233.10
784.51	232.98
784.83	232.84
785.16	232.90
785.48	232.90
785.80	232.79
786.12	232.69
786.45	232.55
786.77	232.48
787.09	232.35
787.42	232.27
787.74	232.23
788.06	232.00
788.38	231.99
788.71	231.90
789.03	231.80
789.35	231.76
789.67	231.67
789.99	231.72
790.32	231.57
790.64	231.51
790.96	231.64
791.28	231.43
791.61	231.48
791.93	231.28
792.25	231.13
792.57	231.17
792.89	231.00
793.21	230.99
793.54	231.00
793.86	230.92
794.18	230.81
794.50	230.78
794.82	230.80
795.14	230.79
795.47	230.77
795.79	230.68
796.11	230.66
796.43	230.58
796.75	230.46
797.07	230.51
797.39	230.56
797.71	230.41
798.04	230.52
798.36	230.46
798.68	230.50
799.00	230.51
799.32	230.43
799.64	230.45
799.96	230.40
800.28	230.41
800.60	230.49
800.92	230.48
801.24	230.42
801.56	230.48
801.89	230.47
802.21	230.44
802.53	230.40
802.85	230.43
803.17	230.57
803.49	230.59
803.81	230.55
804.13	230.45
804.45	230.47
804.77	230.58
805.09	230.57
805.41	230.59
805.73	230.51
806.05	230.47
806.37	230.58
806.69	230.54
807.01	230.47
807.33	230.39
807.65	230.39
807.97	230.61
808.28	230.54
808.60	230.55
808.92	230.61
809.24	230.86
809.56	230.85
809.88	230.83
810.20	230.80
810.52	230.91
810.84	230.90
811.16	230.84
811.48	230.70
811.80	230.75
812.12	230.74
812.43	230.79
812.75	230.78
813.07	230.79
813.39	230.89
813.71	230.92
814.03	230.90
814.35	230.89
814.67	230.75
814.98	230.75
815.30	230.77
815.62	230.70
815.94	230.54
816.26	230.64
816.58	230.46
816.89	230.50
817.21	230.25
817.53	230.36
817.85	230.35
818.17	230.37
818.48	230.34
818.80	230.41
819.12	230.43
819.44	230.45
819.76	230.33
820.07	230.31
820.39	230.29
820.71	230.36
821.03	230.32
821.34	230.16
821.66	230.10
821.98	230.10
822.30	229.96
822.61	230.07
822.93	229.96
823.25	230.02
823.57	230.02
823.88	230.09
824.20	229.93
824.52	230.05
824.83	230.10
825.15	230.08
825.47	229.99
825.79	229.98
826.10	229.94
826.42	229.98
826.74	229.90
827.05	229.84
827.37	229.86
827.69	229.78
828.00	229.80
828.32	229.90
828.64	229.83
828.95	230.02
829.27	229.87
829.58	229.83
829.90	229.88
830.22	229.75
830.53	229.70
830.85	229.79
831.17	229.60
831.48	229.52
831.80	229.50
832.11	229.50
832.43	229.41
832.75	229.38
833.06	229.50
833.38	229.44
833.69	229.44
834.01	229.31
834.32	229.40
834.64	229.38
834.96	229.37
835.27	229.38
835.59	229.36
835.90	229.40
836.22	229.35
836.53	229.24
836.85	229.28
837.16	229.49
837.48	229.40
837.79	229.45
838.11	229.42
838.42	229.37
838.74	229.34
839.05	229.29
839.37	229.21
839.68	229.06
840.00	229.08
840.31	229.11
840.63	229.14
840.94	229.11
841.26	229.14
841.57	229.13
841.88	229.20
842.20	229.08
842.51	229.07
842.83	229.18
843.14	229.38
843.46	229.34
843.77	229.22
844.08	229.23
844.40	229.22
844.71	229.13
845.03	229.04
845.34	229.05
845.65	229.03
845.97	229.19
846.28	229.21
846.60	229.27
846.91	229.21
847.22	229.18
847.54	229.22
847.85	229.15
848.16	229.06
848.48	228.97
848.79	229.09
849.10	229.06
849.42	229.00
849.73	228.90
850.04	228.94
850.36	228.92
850.67	228.96
850.98	228.89
851.30	228.98
851.61	229.00
851.92	228.94
852.23	228.99
852.55	228.95
852.86	228.88
853.17	228.85
853.49	228.85
853.80	228.85
854.11	228.78
854.42	228.80
854.74	228.85
855.05	228.90
855.36	228.80
855.67	228.72
855.99	228.75
856.30	228.89
856.61	228.79
856.92	228.69
857.23	228.64
857.55	228.68
857.86	228.70
858.17	228.77
858.48	228.77
858.79	228.85
859.11	228.84
859.42	228.88
859.73	228.79
860.04	228.80
860.35	228.76
860.66	228.75
860.98	228.78
861.29	228.76
861.60	228.71
861.91	228.73
862.22	228.83
862.53	228.81
862.84	228.55
863.16	228.70
863.47	228.71
863.78	228.77
864.09	228.75
864.40	228.62
864.71	228.64
865.02	228.67
865.33	228.59
865.64	228.49
865.95	228.52
866.27	228.69
866.58	228.60
866.89	228.62
867.20	228.66
867.51	228.67
867.82	228.66
868.13	228.66
868.44	228.58
868.75	228.53
869.06	228.46
869.37	228.50
869.68	228.39
869.99	228.40
870.30	228.32
870.61	228.32
870.92	228.40
871.23	228.34
871.54	228.36
871.85	228.45
872.16	228.50
872.47	228.48
872.78	228.48
873.09	228.61
873.40	228.62
873.71	228.63
874.02	228.60
874.33	228.59
874.64	228.59
874.95	228.55
875.26	228.51
875.56	228.58
875.87	228.59
876.18	228.55
876.49	228.78
876.80	228.78
877.11	228.65
877.42	228.60
877.73	228.64
878.04	228.61
878.35	228.60
878.66	228.59
878.96	228.57
879.27	228.51
879.58	228.49
879.89	228.43
880.20	228.45
880.51	228.41
880.82	228.44
881.12	228.37
881.43	228.43
881.74	228.47
882.05	228.38
882.36	228.42
882.67	228.37
882.97	228.08
883.28	228.03
883.59	228.13
883.90	228.22
884.21	228.20
884.51	228.20
884.82	228.04
885.13	228.12
885.44	228.17
885.74	228.20
886.05	228.21
886.36	228.22
886.67	228.09
886.98	228.22
887.28	228.25
887.59	228.33
887.90	228.39
888.20	228.32
888.51	228.44
888.82	228.43
889.13	228.56
889.43	228.85
889.74	228.84
890.05	228.85
890.35	228.77
890.66	228.68
890.97	228.59
891.28	228.70
891.58	228.63
891.89	228.64
892.20	228.48
892.50	228.45
892.81	228.50
893.12	228.56
893.42	228.51
893.73	228.49
894.04	228.51
894.34	228.50
894.65	228.55
894.95	228.55
895.26	228.55
895.57	228.62
895.87	228.38
896.18	228.52
896.48	228.50
896.79	228.44
897.10	228.51
897.40	228.55
897.71	228.42
898.01	228.47
898.32	228.48
898.63	228.56
898.93	228.52
899.24	228.51
899.54	228.41
899.85	228.39
900.15	228.42
900.46	228.35
900.76	228.34
901.07	228.35
901.38	228.26
901.68	228.27
901.99	228.19
902.29	228.15
902.60	228.12
902.90	228.14
903.21	228.15
903.51	228.16
903.82	228.24
904.12	228.37
904.43	228.26
904.73	228.23
905.03	228.17
905.34	228.39
905.64	228.31
905.95	228.42
906.25	228.37
906.56	228.32
906.86	228.42
907.17	228.31
907.47	228.41
907.77	228.42
908.08	228.40
908.38	228.42
908.69	228.42
908.99	228.41
909.30	228.39
909.60	228.51
909.90	228.54
910.21	228.48
910.51	228.43
910.81	228.45
911.12	228.42
911.42	228.38
911.73	228.15
912.03	228.18
912.33	228.09
912.64	228.17
912.94	228.10
913.24	228.00
913.55	227.99
913.85	227.74
914.15	227.82
914.46	227.75
914.76	227.70
915.06	227.77
915.37	227.69
915.67	227.74
915.97	227.73
916.27	227.75
916.58	227.70
916.88	227.70
917.18	227.75
917.49	227.83
917.79	227.86
918.09	227.92
918.39	228.00
918.70	228.01
919.00	228.00
919.30	228.12
919.60	228.10
919.91	228.08
920.21	228.15
920.51	228.00
920.81	228.06
921.12	228.12
921.42	228.10
921.72	228.24
922.02	228.25
922.32	228.25
922.63	228.19
922.93	228.34
923.23	228.36
923.53	228.34
923.83	228.27
924.13	228.42
924.44	228.47
924.74	228.51
925.04	228.58
925.34	228.62
925.64	228.58
925.94	228.62
926.24	228.81
926.55	228.83
926.85	228.91
927.15	228.86
927.45	228.83
927.75	228.81
928.05	228.70
928.35	228.65
928.65	228.65
928.95	228.67
929.26	228.50
929.56	228.57
929.86	228.66
930.16	228.61
930.46	228.57
930.76	228.52
931.06	228.46
931.36	228.45
931.66	228.40
931.96	228.37
932.26	228.39
932.56	228.25
932.86	228.31
933.16	228.25
933.46	228.31
933.76	228.20
934.06	228.24
934.36	228.33
934.66	228.42
934.96	228.43
935.26	228.61
935.56	228.71
935.86	228.71
936.16	228.65
936.46	228.60
936.76	228.56
937.06	228.57
937.36	228.57
937.66	228.62
937.96	228.57
938.26	228.65
938.56	228.56
938.86	228.60
939.16	228.58
939.46	228.65
939.76	228.60
940.06	228.70
940.35	228.64
940.65	228.51
940.95	228.37
941.25	228.26
941.55	228.06
941.85	228.06
942.15	227.96
942.45	228.00
942.75	227.94
943.04	227.87
943.34	227.90
943.64	227.96
943.94	227.80
944.24	227.72
944.54	227.66
944.84	227.68
945.13	227.67
945.43	227.62
945.73	227.55
946.03	227.53
946.33	227.50
946.62	227.45
946.92	227.48
947.22	227.51
947.52	227.49
947.82	227.50
948.11	227.47
948.41	227.52
948.71	227.44
949.01	227.43
949.31	227.62
949.60	227.53
949.90	227.39
950.20	227.38
950.50	227.52
950.79	227.51
951.09	227.60
951.39	227.54
951.69	227.53
951.98	227.51
952.28	227.51
952.58	227.56
952.87	227.63
953.17	227.60
953.47	227.59
953.76	227.66
954.06	227.66
954.36	227.50
954.66	227.40
954.95	227.49
955.25	227.58
955.55	227.45
955.84	227.47
956.14	227.45
956.44	227.56
956.73	227.44
957.03	227.38
957.32	227.31
957.62	227.28
957.92	227.30
958.21	227.35
958.51	227.58
958.81	227.60
959.10	227.52
959.40	227.57
959.69	227.54
959.99	227.57
960.29	227.59
960.58	227.78
960.88	227.97
961.17	227.93
961.47	227.97
961.76	227.90
962.06	228.00
962.36	228.03
962.65	228.10
962.95	228.16
963.24	228.23
963.54	228.19
963.83	228.25
964.13	228.24
964.42	228.24
964.72	228.10
965.01	228.06
965.31	228.14
965.60	228.16
965.90	228.37
966.19	228.38
966.49	228.38
966.78	228.32
967.08	228.20
967.37	228.22
967.67	228.24
967.96	228.29
968.26	228.17
968.55	228.25
968.85	228.20
969.14	228.23
969.43	228.28
969.73	228.32
970.02	228.33
970.32	228.34
970.61	228.32
970.91	228.23
971.20	228.21
971.49	228.18
971.79	228.27
972.08	228.03
972.38	227.95
972.67	227.95
972.96	227.95
973.26	227.98
973.55	228.03
973.85	228.07
974.14	228.12
974.43	228.20
974.73	228.22
975.02	228.16
975.31	228.14
975.61	228.12
975.90	228.01
976.19	227.94
976.49	227.97
976.78	227.92
977.07	228.07
977.37	228.09
977.66	228.03
977.95	227.92
978.24	227.93
978.54	227.99
978.83	227.90
979.12	227.89
979.42	227.90
979.71	227.77
980.00	227.64
980.29	227.51
980.59	227.43
980.88	227.36
981.17	227.33
981.46	227.28
981.76	227.26
982.05	227.36
982.34	227.47
982.63	227.41
982.93	227.45
983.22	227.34
983.51	227.28
983.80	227.40
984.09	227.38
984.39	227.41
984.68	227.31
984.97	227.35
985.26	227.31
985.55	227.24
985.85	227.16
986.14	227.22
986.43	227.32
986.72	227.28
987.01	227.28
987.30	227.15
987.59	227.06
987.89	227.02
988.18	226.97
988.47	226.93
988.76	226.93
989.05	226.89
989.34	226.83
989.63	226.88
989.92	226.76
990.22	226.69
990.51	226.72
990.80	226.77
991.09	226.76
991.38	226.78
991.67	226.73
991.96	226.75
992.25	226.82
992.54	226.73
992.83	226.74
993.12	226.69
993.41	226.75
993.70	226.94
993.99	227.00
994.28	227.10
994.58	227.16
994.87	227.22
995.16	227.23
995.45	227.30
995.74	227.34
996.03	227.40
996.32	227.50
996.61	227.49
996.90	227.58
997.19	227.55
997.48	227.62
997.77	227.69
998.06	227.70
998.34	227.61
998.63	227.70
998.92	227.69
999.21	227.77
999.50	227.95
999.79	227.89
1000.08	227.93
1000.37	227.94
1000.66	227.96
1000.95	228.06
1001.24	228.19
1001.53	228.26
1001.82	228.23
1002.11	228.26
1002.40	228.40
1002.68	228.55
1002.97	228.60
1003.26	228.72
1003.55	228.63
1003.84	228.75
1004.13	228.88
1004.42	228.89
1004.71	228.88
1004.99	228.95
1005.28	229.01
1005.57	228.91
1005.86	228.94
1006.15	228.90
1006.44	228.91
1006.72	228.93
1007.01	228.79
1007.30	228.68
1007.59	228.58
1007.88	228.60
1008.17	228.69
1008.45	228.61
1008.74	228.56
1009.03	228.54
1009.32	228.57
1009.60	228.65
1009.89	228.56
1010.18	228.53
1010.47	228.60
1010.76	228.60
1011.04	228.64
1011.33	228.66
1011.62	228.70
1011.91	228.66
1012.19	228.66
1012.48	228.57
1012.77	228.56
1013.05	228.63
1013.34	228.71
1013.63	228.77
1013.92	228.75
1014.20	228.71
1014.49	228.61
1014.78	228.58
1015.06	228.44
1015.35	228.37
1015.64	228.31
1015.92	228.32
1016.21	228.27
1016.50	228.20
1016.78	228.16
1017.07	228.11
1017.36	227.98
1017.64	227.97
1017.93	228.03
1018.22	227.97
1018.50	227.90
1018.79	227.78
1019.08	227.69
1019.36	227.60
1019.65	227.60
1019.93	227.65
1020.22	227.58
1020.51	227.66
1020.79	227.60
1021.08	227.20
1021.36	225.50
1021.65	226.60
1021.94	227.30
1022.22	227.20
1022.51	228.90
1022.79	229.00
1023.08	227.70
1023.36	228.70
1023.65	227.30
>>>>>End Processed Spectral Data<<<<<
