SpectraSuite Data File
++++++++++++++++++++++++++++++++++++
Date: Fri Feb 01 14:34:21 EST 2013
User: group
Dark Spectrum Present: No
Reference Spectrum Present: No
Number of Sampled Component Spectra: 1
Spectrometers: USB2E7196
Integration Time (usec): 70000 (USB2E7196)
Spectra Averaged: 10 (USB2E7196)
Boxcar Smoothing: 10 (USB2E7196)
Correct for Electrical Dark: No (USB2E7196)
Strobe/Lamp Enabled: No (USB2E7196)
Correct for Detector Non-linearity: No (USB2E7196)
Correct for Stray Light: No (USB2E7196)
Number of Pixels in Processed Spectrum: 2048
>>>>>Begin Processed Spectral Data<<<<<
339.09	0.00
339.48	217.00
339.86	218.80
340.24	218.40
340.63	220.90
341.01	226.90
341.39	223.00
341.78	224.40
342.16	226.20
342.54	226.00
342.93	215.20
343.31	226.00
343.69	226.48
344.07	226.88
344.46	227.39
344.84	227.71
345.22	227.78
345.60	228.06
345.99	228.20
346.37	228.34
346.75	228.45
347.13	228.45
347.52	228.50
347.90	228.61
348.28	228.66
348.66	228.79
349.05	228.59
349.43	228.64
349.81	228.55
350.19	228.61
350.57	228.60
350.96	228.70
351.34	228.86
351.72	228.94
352.10	229.01
352.48	229.10
352.87	229.16
353.25	229.25
353.63	229.32
354.01	229.46
354.39	229.50
354.77	229.58
355.15	229.72
355.54	229.67
355.92	229.79
356.30	229.85
356.68	230.04
357.06	230.22
357.44	230.37
357.82	230.47
358.20	230.56
358.58	230.65
358.97	230.60
359.35	230.65
359.73	230.78
360.11	230.89
360.49	230.93
360.87	230.98
361.25	231.00
361.63	231.08
362.01	231.08
362.39	231.01
362.77	231.13
363.15	231.04
363.53	231.13
363.91	231.13
364.29	231.10
364.67	230.94
365.05	230.92
365.43	230.87
365.81	230.89
366.19	230.86
366.57	230.89
366.95	230.90
367.33	230.84
367.71	230.80
368.09	230.85
368.47	230.74
368.85	230.71
369.23	230.76
369.61	230.72
369.99	230.72
370.37	230.74
370.75	230.76
371.13	230.69
371.51	230.55
371.89	230.42
372.27	230.38
372.65	230.28
373.03	230.21
373.41	230.10
373.78	230.10
374.16	229.99
374.54	229.90
374.92	229.88
375.30	229.80
375.68	229.73
376.06	229.71
376.44	229.69
376.82	229.61
377.19	229.52
377.57	229.37
377.95	229.31
378.33	229.33
378.71	229.12
379.09	229.23
379.47	229.27
379.84	229.25
380.22	229.17
380.60	229.06
380.98	229.04
381.36	228.99
381.73	228.90
382.11	228.86
382.49	228.73
382.87	228.67
383.25	228.55
383.62	228.66
384.00	228.52
384.38	228.43
384.76	228.49
385.13	228.46
385.51	228.45
385.89	228.34
386.27	228.20
386.64	228.19
387.02	228.00
387.40	227.95
387.78	227.87
388.15	227.83
388.53	227.85
388.91	227.76
389.29	227.74
389.66	227.68
390.04	227.67
390.42	227.80
390.79	227.76
391.17	227.85
391.55	227.63
391.92	227.56
392.30	227.54
392.68	227.46
393.05	227.47
393.43	227.45
393.81	227.47
394.18	227.59
394.56	227.68
394.94	227.87
395.31	227.89
395.69	228.02
396.06	228.08
396.44	228.07
396.82	228.16
397.19	228.24
397.57	228.31
397.95	228.45
398.32	228.45
398.70	228.53
399.07	228.64
399.45	228.85
399.82	229.05
400.20	229.35
400.58	229.48
400.95	229.64
401.33	229.91
401.70	230.27
402.08	230.36
402.45	230.54
402.83	230.65
403.20	230.96
403.58	231.21
403.95	231.61
404.33	232.05
404.71	232.41
405.08	232.92
405.46	233.21
405.83	233.61
406.21	233.98
406.58	234.48
406.96	235.00
407.33	235.39
407.70	235.89
408.08	236.49
408.45	237.05
408.83	237.66
409.20	238.29
409.58	238.84
409.95	239.65
410.33	240.44
410.70	241.22
411.08	242.07
411.45	242.95
411.82	243.87
412.20	244.85
412.57	245.97
412.95	246.88
413.32	248.18
413.69	249.44
414.07	250.71
414.44	252.22
414.82	253.69
415.19	255.38
415.56	257.10
415.94	258.86
416.31	260.90
416.68	262.90
417.06	265.06
417.43	267.12
417.81	269.51
418.18	271.97
418.55	274.73
418.93	277.50
419.30	280.45
419.67	283.52
420.04	286.78
420.42	290.21
420.79	294.02
421.16	297.77
421.54	301.78
421.91	305.90
422.28	310.19
422.66	314.81
423.03	319.25
423.40	323.97
423.77	328.95
424.15	334.13
424.52	339.25
424.89	344.93
425.26	350.52
425.64	355.88
426.01	361.59
426.38	367.49
426.75	373.49
427.13	379.80
427.50	386.50
427.87	393.43
428.24	400.30
428.61	407.01
428.99	414.43
429.36	422.20
429.73	429.95
430.10	437.48
430.47	445.15
430.85	453.27
431.22	461.82
431.59	470.74
431.96	479.40
432.33	489.16
432.70	498.62
433.08	509.37
433.45	519.40
433.82	529.56
434.19	540.82
434.56	552.03
434.93	562.66
435.30	573.20
435.68	584.90
436.05	596.38
436.42	607.86
436.79	618.36
437.16	629.35
437.53	641.15
437.90	652.84
438.27	664.59
438.64	676.75
439.01	687.70
439.38	697.78
439.75	707.36
440.13	718.22
440.50	728.35
440.87	737.20
441.24	746.22
441.61	756.17
441.98	763.77
442.35	772.36
442.72	781.21
443.09	789.70
443.46	795.27
443.83	799.17
444.20	802.75
444.57	807.66
444.94	810.87
445.31	814.06
445.68	816.96
446.05	818.76
446.42	818.85
446.79	819.05
447.16	818.91
447.53	819.03
447.90	816.20
448.27	813.33
448.64	808.46
449.01	805.51
449.37	798.94
449.74	792.80
450.11	784.89
450.48	776.07
450.85	767.50
451.22	759.84
451.59	752.56
451.96	746.00
452.33	736.60
452.70	727.94
453.07	717.52
453.43	706.90
453.80	696.85
454.17	686.81
454.54	677.27
454.91	667.01
455.28	657.06
455.65	647.56
456.02	637.86
456.38	629.71
456.75	619.52
457.12	611.22
457.49	602.57
457.86	594.71
458.23	587.87
458.59	579.93
458.96	572.09
459.33	565.33
459.70	558.12
460.07	552.30
460.43	545.86
460.80	539.46
461.17	534.10
461.54	528.12
461.91	522.71
462.27	517.03
462.64	512.01
463.01	506.73
463.38	501.58
463.74	496.67
464.11	492.16
464.48	488.24
464.85	483.90
465.21	480.60
465.58	476.87
465.95	472.57
466.32	468.97
466.68	465.30
467.05	461.73
467.42	458.03
467.78	454.30
468.15	450.57
468.52	447.96
468.88	444.60
469.25	441.57
469.62	439.09
469.98	436.44
470.35	434.00
470.72	431.48
471.08	428.86
471.45	426.55
471.82	424.26
472.18	421.73
472.55	419.93
472.92	417.92
473.28	416.08
473.65	414.17
474.02	412.21
474.38	410.72
474.75	409.38
475.11	407.91
475.48	406.78
475.85	406.04
476.21	405.07
476.58	404.16
476.94	403.43
477.31	402.39
477.67	401.56
478.04	400.88
478.41	400.37
478.77	400.11
479.14	399.67
479.50	399.53
479.87	399.42
480.23	399.22
480.60	398.90
480.96	398.70
481.33	399.04
481.69	399.28
482.06	399.31
482.42	399.30
482.79	399.54
483.15	400.07
483.52	400.53
483.88	401.00
484.25	401.61
484.61	402.18
484.98	403.01
485.34	404.06
485.71	405.22
486.07	406.49
486.44	407.59
486.80	408.93
487.17	410.29
487.53	412.03
487.90	413.88
488.26	415.62
488.62	417.58
488.99	419.39
489.35	421.40
489.72	423.67
490.08	425.92
490.44	428.41
490.81	430.85
491.17	433.30
491.54	435.96
491.90	438.67
492.26	441.44
492.63	444.31
492.99	447.21
493.36	450.31
493.72	453.50
494.08	456.83
494.45	460.39
494.81	463.80
495.17	467.18
495.54	470.74
495.90	474.62
496.26	478.60
496.63	482.51
496.99	486.79
497.35	491.09
497.72	495.46
498.08	499.70
498.44	504.10
498.80	508.93
499.17	513.40
499.53	517.81
499.89	522.68
500.26	527.44
500.62	532.14
500.98	536.92
501.34	541.80
501.71	546.73
502.07	551.54
502.43	556.68
502.79	561.61
503.16	566.53
503.52	571.42
503.88	576.04
504.24	580.85
504.60	585.57
504.97	590.47
505.33	595.24
505.69	600.42
506.05	605.29
506.41	609.73
506.78	614.70
507.14	619.61
507.50	624.40
507.86	629.17
508.22	633.81
508.59	638.43
508.95	643.07
509.31	647.63
509.67	652.25
510.03	656.72
510.39	661.44
510.75	666.14
511.12	670.66
511.48	675.37
511.84	679.85
512.20	684.41
512.56	688.56
512.92	692.97
513.28	696.98
513.64	701.00
514.00	705.25
514.37	709.13
514.73	712.84
515.09	716.41
515.45	720.14
515.81	723.91
516.17	727.66
516.53	731.10
516.89	734.51
517.25	737.90
517.61	741.06
517.97	743.76
518.33	746.41
518.69	749.28
519.05	752.20
519.41	755.35
519.77	758.17
520.13	760.96
520.49	763.60
520.85	766.09
521.21	768.70
521.57	771.11
521.93	773.59
522.29	776.55
522.65	779.17
523.01	781.58
523.37	783.77
523.73	785.85
524.09	788.09
524.45	790.24
524.81	792.66
525.17	795.10
525.53	797.96
525.89	800.39
526.25	802.67
526.61	804.61
526.97	806.68
527.33	808.86
527.68	811.32
528.04	813.48
528.40	815.53
528.76	817.75
529.12	820.22
529.48	822.68
529.84	824.36
530.20	826.73
530.56	829.50
530.91	832.34
531.27	835.00
531.63	837.38
531.99	839.83
532.35	841.87
532.71	844.05
533.07	846.25
533.42	848.69
533.78	850.92
534.14	853.51
534.50	855.74
534.86	857.94
535.21	859.99
535.57	862.63
535.93	865.29
536.29	867.66
536.65	869.98
537.00	872.14
537.36	875.07
537.72	877.42
538.08	879.29
538.44	881.37
538.79	883.56
539.15	886.03
539.51	888.52
539.87	891.13
540.22	893.66
540.58	896.42
540.94	898.80
541.29	901.37
541.65	903.71
542.01	906.40
542.37	908.79
542.72	911.35
543.08	913.79
543.44	916.56
543.79	918.66
544.15	921.33
544.51	924.36
544.87	926.83
545.22	929.25
545.58	931.68
545.94	934.02
546.29	936.20
546.65	938.52
547.01	940.78
547.36	943.01
547.72	945.28
548.07	947.35
548.43	949.80
548.79	952.17
549.14	954.44
549.50	956.72
549.86	959.26
550.21	961.40
550.57	964.00
550.92	965.95
551.28	968.42
551.64	970.61
551.99	972.72
552.35	974.79
552.70	977.21
553.06	979.70
553.41	982.00
553.77	984.55
554.13	986.76
554.48	989.51
554.84	991.98
555.19	994.28
555.55	996.79
555.90	998.66
556.26	1000.92
556.61	1003.10
556.97	1004.87
557.32	1006.95
557.68	1009.19
558.03	1010.72
558.39	1012.75
558.74	1015.40
559.10	1017.25
559.45	1019.20
559.81	1021.49
560.16	1023.38
560.52	1025.30
560.87	1027.43
561.23	1029.28
561.58	1031.56
561.94	1033.29
562.29	1035.11
562.64	1036.62
563.00	1038.15
563.35	1040.30
563.71	1042.38
564.06	1044.49
564.42	1046.71
564.77	1048.67
565.12	1050.90
565.48	1053.09
565.83	1054.59
566.19	1056.14
566.54	1057.70
566.89	1059.06
567.25	1060.68
567.60	1062.32
567.96	1063.99
568.31	1065.69
568.66	1067.16
569.02	1068.54
569.37	1069.55
569.72	1070.78
570.08	1072.01
570.43	1073.16
570.78	1073.87
571.14	1074.38
571.49	1075.09
571.84	1076.18
572.20	1076.54
572.55	1076.63
572.90	1076.70
573.26	1077.69
573.61	1078.04
573.96	1078.43
574.31	1078.21
574.67	1077.69
575.02	1077.34
575.37	1076.98
575.72	1075.99
576.08	1075.72
576.43	1075.03
576.78	1074.74
577.13	1074.35
577.49	1074.34
577.84	1073.58
578.19	1073.30
578.54	1072.78
578.90	1071.96
579.25	1070.36
579.60	1069.50
579.95	1068.75
580.30	1067.58
580.66	1066.13
581.01	1064.61
581.36	1063.21
581.71	1062.31
582.06	1061.33
582.42	1060.08
582.77	1058.48
583.12	1057.51
583.47	1056.08
583.82	1054.85
584.17	1053.25
584.53	1051.82
584.88	1050.15
585.23	1048.77
585.58	1047.01
585.93	1045.53
586.28	1044.07
586.63	1043.02
586.98	1041.50
587.34	1039.78
587.69	1038.50
588.04	1037.04
588.39	1035.69
588.74	1033.78
589.09	1031.81
589.44	1029.72
589.79	1027.77
590.14	1026.40
590.49	1024.50
590.84	1022.31
591.19	1020.22
591.54	1017.84
591.89	1015.13
592.25	1012.77
592.60	1010.07
592.95	1007.77
593.30	1005.18
593.65	1002.56
594.00	999.72
594.35	997.64
594.70	994.91
595.05	992.50
595.40	989.66
595.75	986.65
596.10	984.27
596.45	982.20
596.80	980.08
597.15	977.77
597.50	975.08
597.85	972.55
598.19	970.45
598.54	968.11
598.89	965.88
599.24	963.79
599.59	961.32
599.94	959.20
600.29	956.55
600.64	953.94
600.99	951.05
601.34	948.61
601.69	945.56
602.04	942.64
602.39	939.47
602.74	936.90
603.08	934.50
603.43	932.11
603.78	929.05
604.13	926.23
604.48	923.31
604.83	920.43
605.18	917.61
605.53	914.10
605.87	910.74
606.22	907.98
606.57	904.69
606.92	901.62
607.27	898.80
607.62	896.20
607.96	893.44
608.31	890.70
608.66	887.55
609.01	884.29
609.36	881.03
609.70	877.88
610.05	874.57
610.40	871.26
610.75	867.67
611.10	864.40
611.44	860.55
611.79	857.52
612.14	854.01
612.49	850.36
612.83	847.26
613.18	843.82
613.53	840.19
613.88	836.60
614.22	833.01
614.57	829.34
614.92	825.44
615.27	821.72
615.61	818.15
615.96	814.61
616.31	811.20
616.65	808.40
617.00	804.98
617.35	801.63
617.70	798.20
618.04	794.74
618.39	791.17
618.74	788.05
619.08	784.29
619.43	781.11
619.78	777.80
620.12	774.52
620.47	771.19
620.82	767.69
621.16	764.40
621.51	761.26
621.85	757.61
622.20	754.34
622.55	751.30
622.89	748.11
623.24	744.94
623.59	742.05
623.93	738.93
624.28	735.95
624.62	732.83
624.97	729.90
625.32	726.90
625.66	723.86
626.01	720.93
626.35	717.94
626.70	714.55
627.04	711.46
627.39	708.13
627.73	705.13
628.08	702.26
628.43	699.17
628.77	695.93
629.12	692.97
629.46	689.89
629.81	686.50
630.15	683.21
630.50	680.00
630.84	676.31
631.19	672.58
631.53	669.12
631.88	665.84
632.22	662.32
632.57	659.24
632.91	656.11
633.26	652.69
633.60	649.27
633.95	646.28
634.29	643.38
634.64	640.57
634.98	637.41
635.32	634.38
635.67	631.75
636.01	629.02
636.36	626.13
636.70	623.30
637.05	620.69
637.39	618.08
637.73	615.34
638.08	613.00
638.42	610.79
638.77	608.54
639.11	605.76
639.45	603.18
639.80	600.53
640.14	597.87
640.49	595.38
640.83	592.90
641.17	590.11
641.52	587.24
641.86	584.66
642.20	582.20
642.55	579.45
642.89	576.79
643.23	574.09
643.58	571.70
643.92	569.17
644.26	566.39
644.61	564.08
644.95	561.74
645.29	558.87
645.64	555.84
645.98	553.10
646.32	550.76
646.66	547.99
647.01	545.30
647.35	542.98
647.69	540.52
648.04	538.19
648.38	535.97
648.72	533.50
649.06	530.75
649.41	528.34
649.75	525.84
650.09	523.27
650.43	520.63
650.78	518.10
651.12	515.66
651.46	513.49
651.80	510.92
652.14	508.43
652.49	506.25
652.83	504.12
653.17	501.70
653.51	499.07
653.85	496.88
654.20	494.54
654.54	491.86
654.88	489.32
655.22	486.86
655.56	484.11
655.90	481.85
656.25	479.58
656.59	477.09
656.93	474.96
657.27	472.87
657.61	470.50
657.95	468.19
658.29	465.90
658.64	463.44
658.98	461.08
659.32	458.58
659.66	456.30
660.00	454.14
660.34	451.86
660.68	449.81
661.02	447.60
661.36	445.55
661.70	443.65
662.05	441.56
662.39	439.62
662.73	437.89
663.07	436.17
663.41	434.23
663.75	432.30
664.09	430.31
664.43	428.38
664.77	426.80
665.11	424.93
665.45	423.11
665.79	421.31
666.13	419.45
666.47	417.70
666.81	415.94
667.15	414.01
667.49	412.21
667.83	410.60
668.17	408.85
668.51	406.97
668.85	405.10
669.19	403.69
669.53	401.90
669.87	400.20
670.21	398.38
670.55	396.78
670.89	395.28
671.23	393.83
671.57	392.08
671.91	390.53
672.25	389.05
672.58	387.57
672.92	386.17
673.26	384.79
673.60	383.37
673.94	381.95
674.28	380.74
674.62	379.55
674.96	378.08
675.30	376.86
675.64	375.66
675.97	374.43
676.31	373.07
676.65	371.90
676.99	370.73
677.33	369.35
677.67	368.00
678.01	366.63
678.34	365.10
678.68	363.92
679.02	362.57
679.36	361.40
679.70	360.06
680.04	358.70
680.37	357.30
680.71	356.10
681.05	355.00
681.39	353.76
681.73	352.62
682.06	351.52
682.40	350.38
682.74	349.21
683.08	348.16
683.42	346.92
683.75	345.77
684.09	344.71
684.43	343.80
684.77	342.72
685.10	341.72
685.44	340.75
685.78	339.83
686.12	338.87
686.45	337.62
686.79	336.67
687.13	335.78
687.46	334.83
687.80	333.89
688.14	332.60
688.48	331.61
688.81	330.40
689.15	329.34
689.49	328.26
689.82	327.29
690.16	326.27
690.50	325.42
690.83	324.44
691.17	323.28
691.51	322.11
691.84	321.30
692.18	320.34
692.52	319.43
692.85	318.36
693.19	317.52
693.52	316.70
693.86	315.78
694.20	314.81
694.53	313.91
694.87	312.92
695.21	312.14
695.54	311.03
695.88	310.20
696.21	309.34
696.55	308.43
696.88	307.57
697.22	306.69
697.56	305.81
697.89	305.01
698.23	304.21
698.56	303.51
698.90	302.58
699.23	301.68
699.57	300.76
699.90	299.95
700.24	299.10
700.58	298.24
700.91	297.41
701.25	296.68
701.58	296.10
701.92	295.52
702.25	294.83
702.59	294.32
702.92	293.68
703.26	292.96
703.59	292.33
703.93	291.75
704.26	291.02
704.60	290.24
704.93	289.42
705.26	288.69
705.60	288.13
705.93	287.55
706.27	287.09
706.60	286.64
706.94	286.02
707.27	285.21
707.61	284.58
707.94	284.01
708.27	283.32
708.61	282.51
708.94	281.88
709.28	281.28
709.61	280.62
709.94	280.19
710.28	279.54
710.61	278.90
710.95	278.07
711.28	277.59
711.61	276.99
711.95	276.52
712.28	276.04
712.61	275.30
712.95	274.78
713.28	274.25
713.61	273.67
713.95	273.09
714.28	272.65
714.61	272.19
714.95	271.68
715.28	271.08
715.61	270.65
715.95	270.10
716.28	269.54
716.61	269.11
716.95	268.55
717.28	268.12
717.61	267.78
717.94	267.46
718.28	266.84
718.61	266.45
718.94	266.01
719.27	265.62
719.61	265.33
719.94	265.01
720.27	264.55
720.60	264.13
720.94	263.73
721.27	263.39
721.60	263.05
721.93	262.64
722.27	262.48
722.60	262.21
722.93	261.85
723.26	261.59
723.59	261.21
723.93	260.77
724.26	260.45
724.59	259.98
724.92	259.57
725.25	259.50
725.59	259.15
725.92	258.98
726.25	258.68
726.58	258.33
726.91	257.97
727.24	257.78
727.57	257.49
727.91	257.29
728.24	257.09
728.57	256.76
728.90	256.58
729.23	256.18
729.56	255.91
729.89	255.66
730.22	255.37
730.55	255.13
730.89	254.98
731.22	254.77
731.55	254.54
731.88	254.31
732.21	253.98
732.54	253.89
732.87	253.57
733.20	253.31
733.53	253.10
733.86	252.91
734.19	252.56
734.52	252.36
734.85	252.23
735.18	251.91
735.51	251.75
735.84	251.37
736.17	251.23
736.50	250.91
736.83	250.87
737.16	250.55
737.49	250.30
737.82	250.09
738.15	249.90
738.48	249.71
738.81	249.58
739.14	249.27
739.47	248.94
739.80	248.72
740.13	248.53
740.46	248.32
740.79	248.10
741.12	247.89
741.45	247.64
741.78	247.35
742.11	247.17
742.44	246.94
742.77	246.86
743.10	246.64
743.43	246.48
743.75	246.12
744.08	246.28
744.41	246.18
744.74	245.97
745.07	245.72
745.40	245.60
745.73	245.47
746.06	245.34
746.39	245.18
746.71	244.88
747.04	244.66
747.37	244.37
747.70	244.14
748.03	244.01
748.36	243.85
748.68	243.70
749.01	243.51
749.34	243.26
749.67	243.15
750.00	243.00
750.33	242.91
750.65	242.92
750.98	242.51
751.31	242.30
751.64	242.08
751.97	241.95
752.29	241.60
752.62	241.34
752.95	241.11
753.28	240.95
753.60	240.93
753.93	240.86
754.26	240.80
754.59	240.67
754.91	240.49
755.24	240.36
755.57	240.16
755.90	240.00
756.22	239.87
756.55	239.66
756.88	239.45
757.20	239.21
757.53	238.83
757.86	238.55
758.19	238.41
758.51	238.41
758.84	238.27
759.17	238.28
759.49	238.25
759.82	238.32
760.15	238.14
760.47	237.98
760.80	237.71
761.13	237.60
761.45	237.31
761.78	237.15
762.11	236.96
762.43	236.90
762.76	236.92
763.08	237.02
763.41	236.89
763.74	236.77
764.06	236.74
764.39	236.66
764.71	236.70
765.04	236.57
765.37	236.40
765.69	236.35
766.02	236.23
766.34	236.02
766.67	235.88
767.00	235.95
767.32	236.04
767.65	236.04
767.97	235.99
768.30	236.06
768.62	236.03
768.95	236.07
769.27	235.99
769.60	235.87
769.92	235.68
770.25	235.58
770.57	235.60
770.90	235.46
771.22	235.43
771.55	235.42
771.87	235.40
772.20	235.41
772.52	235.49
772.85	235.69
773.17	235.75
773.50	235.66
773.82	235.54
774.15	235.29
774.47	235.28
774.80	235.20
775.12	235.16
775.45	235.18
775.77	235.11
776.09	235.10
776.42	235.04
776.74	235.09
777.07	235.12
777.39	235.01
777.72	235.00
778.04	234.99
778.36	234.82
778.69	234.76
779.01	234.71
779.33	234.50
779.66	234.21
779.98	234.22
780.31	234.10
780.63	234.13
780.95	234.20
781.28	234.09
781.60	234.00
781.92	233.97
782.25	233.88
782.57	233.84
782.89	233.73
783.22	233.67
783.54	233.54
783.86	233.41
784.19	233.38
784.51	233.34
784.83	233.23
785.16	233.21
785.48	233.21
785.80	233.10
786.12	233.10
786.45	233.10
786.77	232.98
787.09	232.93
787.42	232.77
787.74	232.79
788.06	232.70
788.38	232.63
788.71	232.52
789.03	232.50
789.35	232.43
789.67	232.35
789.99	232.26
790.32	232.17
790.64	232.23
790.96	232.30
791.28	232.22
791.61	232.18
791.93	232.07
792.25	231.94
792.57	232.00
792.89	231.80
793.21	231.68
793.54	231.51
793.86	231.55
794.18	231.54
794.50	231.30
794.82	231.33
795.14	231.39
795.47	231.36
795.79	231.31
796.11	231.28
796.43	231.17
796.75	231.15
797.07	231.18
797.39	231.14
797.71	230.99
798.04	230.93
798.36	230.85
798.68	230.90
799.00	230.94
799.32	230.86
799.64	230.92
799.96	230.87
800.28	230.96
800.60	230.85
800.92	230.82
801.24	230.94
801.56	230.89
801.89	230.85
802.21	230.79
802.53	230.76
802.85	230.77
803.17	230.95
803.49	230.97
803.81	230.90
804.13	230.83
804.45	230.90
804.77	230.97
805.09	231.09
805.41	231.06
805.73	230.99
806.05	230.94
806.37	231.00
806.69	231.07
807.01	231.18
807.33	231.24
807.65	231.25
807.97	231.31
808.28	231.26
808.60	231.30
808.92	231.33
809.24	231.43
809.56	231.55
809.88	231.45
810.20	231.39
810.52	231.44
810.84	231.45
811.16	231.38
811.48	231.41
811.80	231.44
812.12	231.44
812.43	231.53
812.75	231.52
813.07	231.45
813.39	231.47
813.71	231.31
814.03	231.28
814.35	231.19
814.67	231.03
814.98	231.11
815.30	231.10
815.62	231.10
815.94	230.92
816.26	230.93
816.58	230.88
816.89	230.93
817.21	230.82
817.53	230.79
817.85	230.80
818.17	230.79
818.48	230.75
818.80	230.81
819.12	230.74
819.44	230.72
819.76	230.66
820.07	230.63
820.39	230.62
820.71	230.64
821.03	230.69
821.34	230.66
821.66	230.63
821.98	230.59
822.30	230.54
822.61	230.65
822.93	230.43
823.25	230.45
823.57	230.42
823.88	230.41
824.20	230.40
824.52	230.45
824.83	230.32
825.15	230.22
825.47	230.16
825.79	230.10
826.10	230.07
826.42	230.11
826.74	230.08
827.05	230.08
827.37	229.99
827.69	230.01
828.00	229.97
828.32	229.85
828.64	229.80
828.95	229.90
829.27	229.86
829.58	229.81
829.90	229.77
830.22	229.73
830.53	229.71
830.85	229.66
831.17	229.43
831.48	229.49
831.80	229.45
832.11	229.34
832.43	229.32
832.75	229.27
833.06	229.30
833.38	229.28
833.69	229.16
834.01	229.18
834.32	229.06
834.64	229.01
834.96	229.02
835.27	228.98
835.59	228.85
835.90	228.82
836.22	228.87
836.53	228.81
836.85	228.77
837.16	228.91
837.48	228.93
837.79	229.06
838.11	229.06
838.42	229.07
838.74	229.05
839.05	229.05
839.37	229.04
839.68	228.96
840.00	228.91
840.31	228.98
840.63	228.94
840.94	228.94
841.26	229.02
841.57	229.10
841.88	229.04
842.20	229.05
842.51	229.07
842.83	229.08
843.14	229.34
843.46	229.35
843.77	229.19
844.08	229.17
844.40	229.13
844.71	229.01
845.03	229.05
845.34	229.19
845.65	229.19
845.97	229.19
846.28	229.19
846.60	229.14
846.91	229.08
847.22	229.05
847.54	229.17
847.85	229.08
848.16	229.01
848.48	229.13
848.79	229.07
849.10	229.01
849.42	229.04
849.73	228.86
850.04	228.88
850.36	228.95
850.67	229.02
850.98	229.02
851.30	229.10
851.61	229.00
851.92	228.93
852.23	228.97
852.55	229.08
852.86	229.12
853.17	229.16
853.49	229.16
853.80	229.18
854.11	229.15
854.42	229.24
854.74	229.23
855.05	229.10
855.36	229.18
855.67	229.15
855.99	229.19
856.30	229.32
856.61	229.25
856.92	229.29
857.23	229.28
857.55	229.27
857.86	229.18
858.17	229.23
858.48	229.21
858.79	229.25
859.11	229.24
859.42	229.25
859.73	229.24
860.04	229.28
860.35	229.27
860.66	229.20
860.98	229.09
861.29	229.05
861.60	229.16
861.91	229.11
862.22	229.13
862.53	228.94
862.84	228.73
863.16	228.76
863.47	228.63
863.78	228.57
864.09	228.62
864.40	228.69
864.71	228.76
865.02	228.72
865.33	228.55
865.64	228.41
865.95	228.38
866.27	228.47
866.58	228.52
866.89	228.61
867.20	228.53
867.51	228.57
867.82	228.59
868.13	228.57
868.44	228.53
868.75	228.50
869.06	228.55
869.37	228.63
869.68	228.71
869.99	228.67
870.30	228.72
870.61	228.72
870.92	228.61
871.23	228.44
871.54	228.55
871.85	228.59
872.16	228.66
872.47	228.67
872.78	228.69
873.09	228.60
873.40	228.52
873.71	228.57
874.02	228.53
874.33	228.56
874.64	228.51
874.95	228.54
875.26	228.55
875.56	228.55
875.87	228.41
876.18	228.27
876.49	228.50
876.80	228.40
877.11	228.30
877.42	228.39
877.73	228.47
878.04	228.40
878.35	228.43
878.66	228.46
878.96	228.45
879.27	228.28
879.58	228.32
879.89	228.29
880.20	228.38
880.51	228.39
880.82	228.34
881.12	228.35
881.43	228.32
881.74	228.27
882.05	228.29
882.36	228.32
882.67	228.39
882.97	228.25
883.28	228.24
883.59	228.28
883.90	228.29
884.21	228.27
884.51	228.30
884.82	228.35
885.13	228.28
885.44	228.12
885.74	228.24
886.05	228.24
886.36	228.28
886.67	228.27
886.98	228.42
887.28	228.43
887.59	228.47
887.90	228.51
888.20	228.53
888.51	228.64
888.82	228.61
889.13	228.64
889.43	228.77
889.74	228.95
890.05	229.02
890.35	228.96
890.66	229.04
890.97	228.91
891.28	228.90
891.58	228.90
891.89	228.99
892.20	228.93
892.50	228.91
892.81	228.91
893.12	228.89
893.42	228.71
893.73	228.84
894.04	228.84
894.34	228.81
894.65	228.84
894.95	228.80
895.26	228.82
895.57	228.85
895.87	228.60
896.18	228.43
896.48	228.33
896.79	228.30
897.10	228.32
897.40	228.33
897.71	228.25
898.01	228.30
898.32	228.37
898.63	228.37
898.93	228.34
899.24	228.25
899.54	228.25
899.85	228.24
900.15	228.15
900.46	228.10
900.76	228.21
901.07	228.22
901.38	228.12
901.68	228.15
901.99	228.09
902.29	228.17
902.60	228.25
902.90	228.26
903.21	228.33
903.51	228.35
903.82	228.49
904.12	228.48
904.43	228.50
904.73	228.39
905.03	228.38
905.34	228.64
905.64	228.68
905.95	228.64
906.25	228.61
906.56	228.50
906.86	228.46
907.17	228.34
907.47	228.25
907.77	228.33
908.08	228.33
908.38	228.34
908.69	228.27
908.99	228.26
909.30	228.22
909.60	228.21
909.90	228.10
910.21	228.00
910.51	228.02
910.81	228.00
911.12	228.05
911.42	228.04
911.73	227.78
912.03	227.88
912.33	228.00
912.64	228.15
912.94	228.27
913.24	228.27
913.55	228.28
913.85	228.29
914.15	228.23
914.46	228.22
914.76	228.14
915.06	228.29
915.37	228.21
915.67	228.21
915.97	228.16
916.27	228.13
916.58	228.17
916.88	228.19
917.18	228.12
917.49	228.41
917.79	228.47
918.09	228.55
918.39	228.48
918.70	228.50
919.00	228.34
919.30	228.46
919.60	228.48
919.91	228.53
920.21	228.55
920.51	228.48
920.81	228.49
921.12	228.53
921.42	228.38
921.72	228.40
922.02	228.42
922.32	228.46
922.63	228.48
922.93	228.59
923.23	228.62
923.53	228.70
923.83	228.37
924.13	228.31
924.44	228.31
924.74	228.30
925.04	228.25
925.34	228.23
925.64	228.07
925.94	227.97
926.24	228.01
926.55	228.02
926.85	228.14
927.15	228.15
927.45	228.28
927.75	228.32
928.05	228.40
928.35	228.40
928.65	228.50
928.95	228.39
929.26	228.33
929.56	228.29
929.86	228.26
930.16	228.32
930.46	228.33
930.76	228.24
931.06	228.27
931.36	228.16
931.66	228.30
931.96	228.23
932.26	228.41
932.56	228.38
932.86	228.35
933.16	228.24
933.46	228.28
933.76	228.24
934.06	228.29
934.36	228.23
934.66	228.27
934.96	228.22
935.26	228.35
935.56	228.36
935.86	228.36
936.16	228.27
936.46	228.29
936.76	228.15
937.06	228.21
937.36	228.21
937.66	228.23
937.96	228.22
938.26	228.24
938.56	228.19
938.86	228.12
939.16	228.15
939.46	228.23
939.76	228.35
940.06	228.29
940.35	228.22
940.65	228.20
940.95	228.10
941.25	228.04
941.55	228.14
941.85	228.16
942.15	228.30
942.45	228.41
942.75	228.44
943.04	228.58
943.34	228.60
943.64	228.59
943.94	228.54
944.24	228.54
944.54	228.57
944.84	228.49
945.13	228.52
945.43	228.53
945.73	228.55
946.03	228.37
946.33	228.35
946.62	228.38
946.92	228.32
947.22	228.40
947.52	228.45
947.82	228.32
948.11	228.19
948.41	228.03
948.71	227.93
949.01	227.83
949.31	227.79
949.60	227.73
949.90	227.67
950.20	227.68
950.50	227.68
950.79	227.64
951.09	227.80
951.39	227.76
951.69	227.72
951.98	227.69
952.28	227.70
952.58	227.66
952.87	227.65
953.17	227.75
953.47	227.73
953.76	227.72
954.06	227.70
954.36	227.86
954.66	227.84
954.95	227.90
955.25	228.03
955.55	228.09
955.84	228.10
956.14	228.22
956.44	228.19
956.73	228.10
957.03	228.15
957.32	228.02
957.62	228.00
957.92	228.10
958.21	228.12
958.51	228.30
958.81	228.33
959.10	228.37
959.40	228.40
959.69	228.38
959.99	228.45
960.29	228.46
960.58	228.33
960.88	228.45
961.17	228.42
961.47	228.35
961.76	228.31
962.06	228.40
962.36	228.34
962.65	228.40
962.95	228.52
963.24	228.51
963.54	228.59
963.83	228.59
964.13	228.52
964.42	228.48
964.72	228.35
965.01	228.30
965.31	228.21
965.60	228.18
965.90	228.33
966.19	228.33
966.49	228.36
966.78	228.40
967.08	228.39
967.37	228.47
967.67	228.37
967.96	228.38
968.26	228.39
968.55	228.40
968.85	228.41
969.14	228.30
969.43	228.32
969.73	228.27
970.02	228.32
970.32	228.31
970.61	228.34
970.91	228.30
971.20	228.31
971.49	228.34
971.79	228.38
972.08	228.21
972.38	228.15
972.67	228.20
972.96	228.19
973.26	228.17
973.55	228.23
973.85	228.28
974.14	228.30
974.43	228.28
974.73	228.24
975.02	228.26
975.31	228.30
975.61	228.25
975.90	228.22
976.19	228.25
976.49	228.25
976.78	228.22
977.07	228.24
977.37	228.30
977.66	228.34
977.95	228.23
978.24	228.30
978.54	228.29
978.83	228.20
979.12	228.19
979.42	228.17
979.71	228.02
980.00	227.94
980.29	227.95
980.59	227.89
980.88	227.95
981.17	227.96
981.46	228.06
981.76	228.05
982.05	228.10
982.34	228.04
982.63	228.09
982.93	228.10
983.22	228.11
983.51	228.10
983.80	228.10
984.09	228.15
984.39	228.15
984.68	228.11
984.97	228.14
985.26	228.08
985.55	228.00
985.85	228.04
986.14	228.24
986.43	228.24
986.72	228.25
987.01	228.19
987.30	228.19
987.59	228.09
987.89	228.18
988.18	228.15
988.47	228.15
988.76	228.10
989.05	228.06
989.34	228.01
989.63	228.03
989.92	228.01
990.22	227.98
990.51	227.92
990.80	228.00
991.09	228.07
991.38	228.19
991.67	228.23
991.96	228.19
992.25	228.13
992.54	228.05
992.83	228.04
993.12	228.04
993.41	228.04
993.70	228.12
993.99	228.13
994.28	228.14
994.58	228.23
994.87	228.18
995.16	228.23
995.45	228.25
995.74	228.20
996.03	228.35
996.32	228.38
996.61	228.42
996.90	228.45
997.19	228.45
997.48	228.46
997.77	228.49
998.06	228.45
998.34	228.51
998.63	228.52
998.92	228.54
999.21	228.52
999.50	228.49
999.79	228.41
1000.08	228.32
1000.37	228.43
1000.66	228.37
1000.95	228.48
1001.24	228.40
1001.53	228.36
1001.82	228.40
1002.11	228.22
1002.40	228.20
1002.68	228.23
1002.97	228.32
1003.26	228.22
1003.55	228.10
1003.84	228.01
1004.13	228.16
1004.42	228.16
1004.71	228.10
1004.99	228.11
1005.28	228.10
1005.57	228.12
1005.86	228.07
1006.15	228.03
1006.44	227.96
1006.72	227.95
1007.01	227.86
1007.30	227.82
1007.59	227.79
1007.88	227.78
1008.17	227.88
1008.45	227.81
1008.74	227.77
1009.03	227.64
1009.32	227.67
1009.60	227.65
1009.89	227.66
1010.18	227.49
1010.47	227.39
1010.76	227.47
1011.04	227.43
1011.33	227.53
1011.62	227.51
1011.91	227.46
1012.19	227.60
1012.48	227.60
1012.77	227.54
1013.05	227.70
1013.34	227.72
1013.63	227.83
1013.92	227.83
1014.20	227.72
1014.49	227.80
1014.78	227.80
1015.06	227.78
1015.35	227.84
1015.64	227.96
1015.92	228.02
1016.21	228.16
1016.50	228.10
1016.78	228.15
1017.07	228.26
1017.36	228.22
1017.64	228.20
1017.93	228.28
1018.22	228.28
1018.50	228.34
1018.79	228.28
1019.08	228.19
1019.36	228.25
1019.65	228.18
1019.93	228.29
1020.22	228.37
1020.51	228.45
1020.79	228.41
1021.08	229.20
1021.36	229.20
1021.65	225.90
1021.94	228.50
1022.22	227.50
1022.51	227.80
1022.79	230.30
1023.08	228.70
1023.36	229.90
1023.65	227.40
>>>>>End Processed Spectral Data<<<<<
