SpectraSuite Data File
++++++++++++++++++++++++++++++++++++
Date: Fri Feb 01 14:33:36 EST 2013
User: group
Dark Spectrum Present: No
Reference Spectrum Present: No
Number of Sampled Component Spectra: 1
Spectrometers: USB2E7196
Integration Time (usec): 70000 (USB2E7196)
Spectra Averaged: 10 (USB2E7196)
Boxcar Smoothing: 10 (USB2E7196)
Correct for Electrical Dark: No (USB2E7196)
Strobe/Lamp Enabled: No (USB2E7196)
Correct for Detector Non-linearity: No (USB2E7196)
Correct for Stray Light: No (USB2E7196)
Number of Pixels in Processed Spectrum: 2048
>>>>>Begin Processed Spectral Data<<<<<
339.09	0.00
339.48	216.50
339.86	219.40
340.24	218.80
340.63	221.90
341.01	225.10
341.39	221.90
341.78	223.70
342.16	225.20
342.54	225.10
342.93	214.36
343.31	225.21
343.69	225.68
344.07	226.00
344.46	226.47
344.84	226.75
345.22	226.94
345.60	227.21
345.99	227.50
346.37	227.75
346.75	227.91
347.13	228.10
347.52	228.14
347.90	228.31
348.28	228.34
348.66	228.31
349.05	228.31
349.43	228.35
349.81	228.50
350.19	228.60
350.57	228.78
350.96	228.84
351.34	228.98
351.72	229.18
352.10	229.31
352.48	229.45
352.87	229.58
353.25	229.54
353.63	229.57
354.01	229.60
354.39	229.62
354.77	229.66
355.15	229.87
355.54	229.99
355.92	230.07
356.30	230.24
356.68	230.44
357.06	230.59
357.44	230.72
357.82	230.77
358.20	230.97
358.58	230.90
358.97	230.98
359.35	231.09
359.73	231.10
360.11	231.20
360.49	231.17
360.87	231.26
361.25	231.38
361.63	231.61
362.01	231.66
362.39	231.66
362.77	231.82
363.15	231.76
363.53	231.74
363.91	231.70
364.29	231.72
364.67	231.58
365.05	231.58
365.43	231.60
365.81	231.57
366.19	231.59
366.57	231.66
366.95	231.67
367.33	231.63
367.71	231.65
368.09	231.69
368.47	231.71
368.85	231.68
369.23	231.70
369.61	231.51
369.99	231.45
370.37	231.40
370.75	231.41
371.13	231.24
371.51	231.20
371.89	231.08
372.27	230.97
372.65	231.00
373.03	230.95
373.41	230.85
373.78	230.71
374.16	230.61
374.54	230.51
374.92	230.42
375.30	230.29
375.68	230.21
376.06	230.05
376.44	229.96
376.82	229.81
377.19	229.70
377.57	229.64
377.95	229.52
378.33	229.47
378.71	229.18
379.09	229.16
379.47	229.12
379.84	229.08
380.22	229.04
380.60	228.89
380.98	228.80
381.36	228.74
381.73	228.72
382.11	228.55
382.49	228.57
382.87	228.45
383.25	228.39
383.62	228.52
384.00	228.51
384.38	228.47
384.76	228.40
385.13	228.43
385.51	228.36
385.89	228.35
386.27	228.32
386.64	228.37
387.02	228.36
387.40	228.34
387.78	228.37
388.15	228.25
388.53	228.23
388.91	228.21
389.29	228.11
389.66	228.14
390.04	228.13
390.42	228.00
390.79	227.96
391.17	227.96
391.55	227.71
391.92	227.72
392.30	227.77
392.68	227.84
393.05	227.90
393.43	227.93
393.81	227.86
394.18	227.76
394.56	227.89
394.94	227.89
395.31	227.90
395.69	228.01
396.06	228.13
396.44	228.22
396.82	228.21
397.19	228.42
397.57	228.37
397.95	228.59
398.32	228.68
398.70	228.89
399.07	229.04
399.45	229.32
399.82	229.33
400.20	229.41
400.58	229.51
400.95	229.54
401.33	229.81
401.70	230.32
402.08	230.62
402.45	230.77
402.83	231.09
403.20	231.37
403.58	231.63
403.95	231.99
404.33	232.36
404.71	232.73
405.08	233.18
405.46	233.60
405.83	233.95
406.21	234.37
406.58	234.74
406.96	235.33
407.33	235.73
407.70	236.38
408.08	237.15
408.45	237.92
408.83	238.66
409.20	239.34
409.58	239.92
409.95	240.73
410.33	241.60
410.70	242.51
411.08	243.50
411.45	244.61
411.82	245.66
412.20	246.91
412.57	248.27
412.95	249.43
413.32	250.93
413.69	252.44
414.07	254.12
414.44	256.05
414.82	257.68
415.19	259.72
415.56	261.85
415.94	263.94
416.31	266.19
416.68	268.68
417.06	271.43
417.43	274.03
417.81	277.17
418.18	280.28
418.55	283.46
418.93	286.72
419.30	290.10
419.67	293.87
420.04	297.64
420.42	301.71
420.79	306.26
421.16	310.91
421.54	315.59
421.91	320.40
422.28	325.41
422.66	330.94
423.03	336.25
423.40	341.62
423.77	347.60
424.15	353.78
424.52	360.00
424.89	366.90
425.26	373.55
425.64	379.57
426.01	386.34
426.38	393.47
426.75	400.76
427.13	408.44
427.50	416.09
427.87	424.05
428.24	432.11
428.61	439.94
428.99	448.40
429.36	457.86
429.73	467.06
430.10	476.14
430.47	485.47
430.85	495.26
431.22	505.45
431.59	516.15
431.96	526.40
432.33	537.60
432.70	548.28
433.08	561.13
433.45	573.47
433.82	585.53
434.19	599.09
434.56	612.26
434.93	624.64
435.30	637.05
435.68	650.91
436.05	664.61
436.42	678.21
436.79	690.50
437.16	703.41
437.53	717.50
437.90	731.35
438.27	744.58
438.64	758.30
439.01	771.57
439.38	783.12
439.75	794.31
440.13	807.50
440.50	819.81
440.87	829.63
441.24	840.11
441.61	851.71
441.98	860.50
442.35	870.92
442.72	881.39
443.09	891.75
443.46	898.50
443.83	903.20
444.20	907.45
444.57	913.52
444.94	917.40
445.31	920.87
445.68	924.45
446.05	927.06
446.42	927.51
446.79	927.49
447.16	927.44
447.53	928.18
447.90	924.47
448.27	921.16
448.64	915.77
449.01	912.32
449.37	904.92
449.74	897.56
450.11	887.92
450.48	877.90
450.85	867.56
451.22	858.88
451.59	850.70
451.96	842.75
452.33	831.35
452.70	821.19
453.07	808.76
453.43	796.20
453.80	784.23
454.17	772.41
454.54	761.26
454.91	749.07
455.28	736.96
455.65	726.11
456.02	714.36
456.38	704.90
456.75	692.68
457.12	682.69
457.49	672.63
457.86	663.26
458.23	654.87
458.59	645.58
458.96	635.91
459.33	627.45
459.70	619.15
460.07	612.71
460.43	604.78
460.80	597.38
461.17	590.65
461.54	583.74
461.91	577.33
462.27	570.47
462.64	564.73
463.01	558.47
463.38	552.26
463.74	546.64
464.11	541.38
464.48	536.88
464.85	531.79
465.21	527.76
465.58	523.55
465.95	518.53
466.32	514.38
466.68	510.27
467.05	506.10
467.42	501.78
467.78	497.28
468.15	493.15
468.52	490.27
468.88	486.39
469.25	482.75
469.62	479.88
469.98	476.87
470.35	474.05
470.72	471.10
471.08	468.05
471.45	465.53
471.82	462.75
472.18	459.72
472.55	457.47
472.92	455.00
473.28	452.91
473.65	450.86
474.02	448.85
474.38	447.20
474.75	445.71
475.11	444.21
475.48	442.98
475.85	442.01
476.21	440.92
476.58	440.14
476.94	439.33
477.31	438.19
477.67	437.39
478.04	436.66
478.41	436.32
478.77	436.02
479.14	435.43
479.50	435.26
479.87	435.36
480.23	435.38
480.60	435.34
480.96	435.16
481.33	435.35
481.69	435.72
482.06	435.78
482.42	435.83
482.79	436.29
483.15	436.90
483.52	437.76
483.88	438.39
484.25	439.17
484.61	440.10
484.98	441.32
485.34	442.76
485.71	444.30
486.07	445.73
486.44	447.29
486.80	449.16
487.17	451.02
487.53	453.24
487.90	455.41
488.26	457.94
488.62	460.48
488.99	462.92
489.35	465.60
489.72	468.81
490.08	471.90
490.44	474.83
490.81	478.18
491.17	481.36
491.54	485.00
491.90	488.57
492.26	492.39
492.63	496.38
492.99	500.09
493.36	504.07
493.72	508.68
494.08	513.10
494.45	517.70
494.81	522.57
495.17	527.14
495.54	532.18
495.90	537.23
496.26	542.51
496.63	548.02
496.99	553.45
497.35	558.96
497.72	564.77
498.08	570.79
498.44	576.80
498.80	583.03
499.17	589.36
499.53	595.81
499.89	602.52
500.26	608.97
500.62	615.72
500.98	622.68
501.34	629.34
501.71	636.47
502.07	643.46
502.43	650.43
502.79	657.70
503.16	664.72
503.52	671.90
503.88	679.04
504.24	686.20
504.60	693.53
504.97	700.90
505.33	708.18
505.69	715.83
506.05	723.26
506.41	730.70
506.78	737.87
507.14	745.32
507.50	752.67
507.86	760.45
508.22	768.03
508.59	775.47
508.95	783.08
509.31	790.35
509.67	797.85
510.03	805.47
510.39	812.69
510.75	820.12
511.12	827.46
511.48	834.82
511.84	842.13
512.20	849.00
512.56	856.34
512.92	863.83
513.28	870.58
513.64	877.36
514.00	883.85
514.37	890.82
514.73	897.14
515.09	903.31
515.45	909.20
515.81	915.48
516.17	921.98
516.53	928.08
516.89	934.02
517.25	939.83
517.61	945.47
517.97	951.23
518.33	956.36
518.69	961.58
519.05	966.78
519.41	972.09
519.77	977.64
520.13	982.54
520.49	987.22
520.85	992.33
521.21	997.01
521.57	1002.41
521.93	1006.63
522.29	1011.59
522.65	1016.34
523.01	1020.77
523.37	1024.63
523.73	1028.41
524.09	1032.34
524.45	1036.68
524.81	1040.66
525.17	1044.73
525.53	1048.90
525.89	1053.16
526.25	1057.20
526.61	1060.86
526.97	1064.73
527.33	1068.22
527.68	1071.74
528.04	1075.40
528.40	1078.80
528.76	1082.78
529.12	1086.34
529.48	1090.38
529.84	1093.36
530.20	1096.80
530.56	1100.56
530.91	1104.85
531.27	1108.77
531.63	1111.93
531.99	1114.97
532.35	1118.05
532.71	1121.12
533.07	1124.06
533.42	1127.31
533.78	1130.57
534.14	1133.93
534.50	1136.51
534.86	1139.64
535.21	1141.95
535.57	1145.06
535.93	1147.90
536.29	1150.38
536.65	1152.75
537.00	1154.84
537.36	1157.56
537.72	1160.11
538.08	1162.68
538.44	1164.77
538.79	1166.88
539.15	1168.92
539.51	1171.48
539.87	1174.24
540.22	1176.69
540.58	1179.35
540.94	1181.35
541.29	1183.09
541.65	1184.86
542.01	1187.48
542.37	1189.51
542.72	1192.23
543.08	1194.08
543.44	1196.02
543.79	1197.65
544.15	1199.52
544.51	1202.03
544.87	1204.13
545.22	1206.20
545.58	1207.99
545.94	1209.56
546.29	1210.74
546.65	1212.90
547.01	1214.33
547.36	1215.52
547.72	1216.91
548.07	1217.79
548.43	1219.38
548.79	1220.85
549.14	1222.36
549.50	1223.50
549.86	1224.25
550.21	1225.12
550.57	1226.20
550.92	1227.40
551.28	1228.50
551.64	1229.46
551.99	1230.21
552.35	1230.88
552.70	1231.82
553.06	1232.81
553.41	1233.66
553.77	1235.02
554.13	1235.88
554.48	1237.06
554.84	1237.80
555.19	1238.60
555.55	1239.71
555.90	1240.31
556.26	1241.10
556.61	1241.82
556.97	1241.99
557.32	1243.11
557.68	1244.14
558.03	1244.74
558.39	1245.17
558.74	1246.14
559.10	1246.52
559.45	1247.09
559.81	1248.07
560.16	1248.35
560.52	1249.05
560.87	1249.80
561.23	1250.20
561.58	1251.19
561.94	1251.52
562.29	1251.94
562.64	1252.06
563.00	1251.91
563.35	1252.71
563.71	1253.20
564.06	1253.67
564.42	1254.61
564.77	1255.18
565.12	1255.66
565.48	1256.17
565.83	1256.62
566.19	1257.01
566.54	1257.33
566.89	1257.62
567.25	1258.21
567.60	1258.81
567.96	1258.61
568.31	1258.69
568.66	1258.46
569.02	1258.00
569.37	1257.22
569.72	1257.34
570.08	1257.20
570.43	1257.14
570.78	1255.86
571.14	1255.35
571.49	1254.73
571.84	1254.68
572.20	1253.70
572.55	1252.16
572.90	1250.93
573.26	1250.16
573.61	1248.61
573.96	1247.79
574.31	1245.67
574.67	1243.35
575.02	1241.24
575.37	1239.55
575.72	1237.12
576.08	1235.67
576.43	1233.75
576.78	1232.21
577.13	1230.20
577.49	1228.37
577.84	1226.47
578.19	1224.99
578.54	1222.66
578.90	1220.32
579.25	1217.04
579.60	1214.60
579.95	1212.38
580.30	1209.83
580.66	1206.93
581.01	1204.49
581.36	1201.76
581.71	1199.90
582.06	1197.56
582.42	1195.07
582.77	1192.15
583.12	1190.10
583.47	1187.50
583.82	1184.80
584.17	1182.08
584.53	1179.43
584.88	1176.40
585.23	1173.33
585.58	1170.54
585.93	1167.94
586.28	1165.39
586.63	1162.98
586.98	1160.54
587.34	1158.17
587.69	1155.74
588.04	1153.14
588.39	1150.70
588.74	1147.53
589.09	1144.48
589.44	1141.29
589.79	1138.39
590.14	1136.11
590.49	1133.17
590.84	1130.05
591.19	1127.11
591.54	1123.75
591.89	1120.24
592.25	1117.43
592.60	1113.97
592.95	1110.22
593.30	1106.55
593.65	1103.02
594.00	1099.11
594.35	1096.04
594.70	1092.07
595.05	1088.53
595.40	1084.76
595.75	1081.15
596.10	1077.82
596.45	1074.66
596.80	1071.66
597.15	1068.25
597.50	1064.17
597.85	1061.07
598.19	1057.82
598.54	1054.24
598.89	1051.10
599.24	1047.93
599.59	1044.36
599.94	1041.29
600.29	1038.14
600.64	1034.64
600.99	1030.72
601.34	1027.25
601.69	1022.90
602.04	1019.55
602.39	1015.70
602.74	1012.51
603.08	1008.99
603.43	1005.77
603.78	1001.84
604.13	998.09
604.48	994.45
604.83	991.34
605.18	987.50
605.53	983.49
605.87	979.70
606.22	976.10
606.57	972.25
606.92	968.47
607.27	964.86
607.62	961.40
607.96	958.27
608.31	955.09
608.66	951.35
609.01	947.60
609.36	943.68
609.70	939.50
610.05	935.11
610.40	931.13
610.75	926.89
611.10	922.90
611.44	918.78
611.79	914.89
612.14	910.50
612.49	905.89
612.83	901.60
613.18	897.14
613.53	892.95
613.88	888.77
614.22	884.59
614.57	880.36
614.92	875.92
615.27	871.57
615.61	867.09
615.96	863.01
616.31	859.17
616.65	855.64
617.00	852.30
617.35	848.78
617.70	844.56
618.04	840.23
618.39	836.16
618.74	832.21
619.08	828.04
619.43	824.21
619.78	820.57
620.12	816.89
620.47	813.18
620.82	809.15
621.16	805.35
621.51	801.62
621.85	797.88
622.20	793.98
622.55	790.18
622.89	786.72
623.24	783.21
623.59	779.30
623.93	775.44
624.28	771.70
624.62	768.04
624.97	764.60
625.32	761.43
625.66	758.12
626.01	754.43
626.35	750.97
626.70	747.27
627.04	743.76
627.39	739.91
627.73	736.43
628.08	733.29
628.43	729.68
628.77	726.27
629.12	722.63
629.46	719.13
629.81	715.32
630.15	711.53
630.50	707.94
630.84	704.41
631.19	700.55
631.53	696.87
631.88	692.79
632.22	689.07
632.57	685.62
632.91	682.06
633.26	678.64
633.60	674.97
633.95	671.67
634.29	668.51
634.64	665.41
634.98	662.08
635.32	658.70
635.67	655.50
636.01	652.19
636.36	649.04
636.70	646.07
637.05	643.24
637.39	640.43
637.73	637.56
638.08	634.91
638.42	632.48
638.77	629.52
639.11	626.68
639.45	623.78
639.80	620.70
640.14	617.83
640.49	615.12
640.83	612.40
641.17	609.57
641.52	606.40
641.86	603.62
642.20	601.01
642.55	598.23
642.89	595.55
643.23	592.48
643.58	589.84
643.92	586.91
644.26	584.12
644.61	581.40
644.95	578.51
645.29	575.39
645.64	572.16
645.98	569.37
646.32	566.78
646.66	563.89
647.01	561.10
647.35	558.41
647.69	555.69
648.04	553.16
648.38	550.15
648.72	547.22
649.06	544.48
649.41	541.61
649.75	538.59
650.09	535.64
650.43	532.98
650.78	530.00
651.12	527.29
651.46	524.47
651.80	521.87
652.14	519.20
652.49	516.83
652.83	514.39
653.17	511.77
653.51	509.01
653.85	506.63
654.20	503.98
654.54	501.28
654.88	498.45
655.22	495.63
655.56	493.12
655.90	490.83
656.25	488.40
656.59	486.07
656.93	483.94
657.27	481.78
657.61	479.47
657.95	477.31
658.29	475.10
658.64	472.79
658.98	470.28
659.32	467.89
659.66	465.40
660.00	462.97
660.34	460.66
660.68	458.54
661.02	456.20
661.36	454.15
661.70	451.98
662.05	450.10
662.39	448.25
662.73	446.26
663.07	444.38
663.41	442.28
663.75	440.19
664.09	438.18
664.43	436.12
664.77	434.18
665.11	432.30
665.45	430.42
665.79	428.62
666.13	426.82
666.47	424.95
666.81	423.00
667.15	421.19
667.49	419.30
667.83	417.46
668.17	415.60
668.51	413.68
668.85	411.83
669.19	410.01
669.53	408.11
669.87	406.41
670.21	404.64
670.55	403.10
670.89	401.56
671.23	399.76
671.57	398.19
671.91	396.52
672.25	394.68
672.58	393.07
672.92	391.43
673.26	389.93
673.60	388.37
673.94	386.98
674.28	385.47
674.62	384.27
674.96	382.94
675.30	381.55
675.64	380.24
675.97	378.94
676.31	377.52
676.65	376.10
676.99	374.90
677.33	373.45
677.67	371.90
678.01	370.47
678.34	369.16
678.68	367.96
679.02	366.56
679.36	365.44
679.70	364.20
680.04	362.94
680.37	361.61
680.71	360.45
681.05	359.25
681.39	358.12
681.73	356.87
682.06	355.69
682.40	354.58
682.74	353.39
683.08	352.27
683.42	351.11
683.75	350.04
684.09	348.69
684.43	347.54
684.77	346.35
685.10	345.16
685.44	343.94
685.78	342.59
686.12	341.51
686.45	340.32
686.79	339.09
687.13	337.82
687.46	336.65
687.80	335.57
688.14	334.40
688.48	333.25
688.81	332.17
689.15	331.10
689.49	329.96
689.82	328.85
690.16	327.74
690.50	326.62
690.83	325.55
691.17	324.49
691.51	323.49
691.84	322.72
692.18	321.83
692.52	320.75
692.85	319.76
693.19	318.87
693.52	318.00
693.86	316.96
694.20	316.12
694.53	315.22
694.87	314.21
695.21	313.32
695.54	312.36
695.88	311.29
696.21	310.41
696.55	309.60
696.88	308.79
697.22	307.98
697.56	307.28
697.89	306.40
698.23	305.62
698.56	304.85
698.90	304.00
699.23	303.19
699.57	302.54
699.90	301.81
700.24	300.92
700.58	299.94
700.91	299.27
701.25	298.69
701.58	298.04
701.92	297.43
702.25	296.70
702.59	295.96
702.92	295.38
703.26	294.61
703.59	293.95
703.93	293.35
704.26	292.64
704.60	291.88
704.93	291.23
705.26	290.47
705.60	289.77
705.93	289.02
706.27	288.43
706.60	287.85
706.94	287.31
707.27	286.70
707.61	286.14
707.94	285.52
708.27	284.74
708.61	283.96
708.94	283.32
709.28	282.77
709.61	282.31
709.94	281.73
710.28	281.01
710.61	280.37
710.95	279.67
711.28	279.18
711.61	278.54
711.95	278.06
712.28	277.58
712.61	277.08
712.95	276.60
713.28	275.98
713.61	275.41
713.95	274.76
714.28	274.34
714.61	273.73
714.95	273.16
715.28	272.63
715.61	272.21
715.95	271.74
716.28	271.32
716.61	270.81
716.95	270.31
717.28	269.97
717.61	269.54
717.94	269.23
718.28	268.79
718.61	268.40
718.94	267.86
719.27	267.34
719.61	266.97
719.94	266.49
720.27	266.09
720.60	265.53
720.94	265.30
721.27	265.00
721.60	264.86
721.93	264.57
722.27	264.36
722.60	264.00
722.93	263.67
723.26	263.22
723.59	262.85
723.93	262.58
724.26	262.22
724.59	261.95
724.92	261.46
725.25	261.14
725.59	260.94
725.92	260.72
726.25	260.48
726.58	260.19
726.91	259.87
727.24	259.53
727.57	259.25
727.91	258.82
728.24	258.48
728.57	258.09
728.90	257.84
729.23	257.39
729.56	257.12
729.89	256.82
730.22	256.60
730.55	256.31
730.89	256.00
731.22	255.80
731.55	255.37
731.88	255.26
732.21	254.95
732.54	254.58
732.87	254.35
733.20	254.14
733.53	253.78
733.86	253.54
734.19	253.30
734.52	253.21
734.85	253.08
735.18	252.81
735.51	252.57
735.84	252.23
736.17	252.09
736.50	251.83
736.83	251.78
737.16	251.51
737.49	251.36
737.82	251.16
738.15	250.91
738.48	250.75
738.81	250.40
739.14	250.19
739.47	249.99
739.80	249.74
740.13	249.54
740.46	249.29
740.79	249.21
741.12	248.97
741.45	248.72
741.78	248.39
742.11	248.21
742.44	248.04
742.77	247.98
743.10	247.83
743.43	247.59
743.75	247.21
744.08	247.31
744.41	247.06
744.74	246.79
745.07	246.51
745.40	246.33
745.73	246.26
746.06	246.10
746.39	245.96
746.71	245.73
747.04	245.55
747.37	245.37
747.70	245.14
748.03	245.01
748.36	244.90
748.68	244.80
749.01	244.58
749.34	244.36
749.67	244.14
750.00	243.90
750.33	243.84
750.65	243.72
750.98	243.31
751.31	243.06
751.64	242.81
751.97	242.73
752.29	242.62
752.62	242.31
752.95	242.10
753.28	241.96
753.60	241.80
753.93	241.65
754.26	241.52
754.59	241.23
754.91	241.02
755.24	240.78
755.57	240.64
755.90	240.54
756.22	240.34
756.55	240.17
756.88	240.03
757.20	239.76
757.53	239.53
757.86	239.33
758.19	239.35
758.51	239.35
758.84	239.18
759.17	239.12
759.49	239.07
759.82	239.00
760.15	238.87
760.47	238.75
760.80	238.61
761.13	238.52
761.45	238.43
761.78	238.40
762.11	238.36
762.43	238.22
762.76	238.08
763.08	238.02
763.41	237.93
763.74	237.79
764.06	237.75
764.39	237.65
764.71	237.58
765.04	237.48
765.37	237.32
765.69	237.28
766.02	237.09
766.34	237.00
766.67	236.91
767.00	236.83
767.32	236.82
767.65	236.88
767.97	236.71
768.30	236.65
768.62	236.59
768.95	236.48
769.27	236.51
769.60	236.48
769.92	236.47
770.25	236.37
770.57	236.27
770.90	236.13
771.22	236.13
771.55	236.11
771.87	236.03
772.20	236.00
772.52	236.07
772.85	236.17
773.17	236.16
773.50	235.97
773.82	235.94
774.15	235.73
774.47	235.51
774.80	235.52
775.12	235.47
775.45	235.32
775.77	235.26
776.09	235.08
776.42	235.00
776.74	234.94
777.07	234.95
777.39	234.94
777.72	234.93
778.04	234.91
778.36	234.80
778.69	234.71
779.01	234.65
779.33	234.42
779.66	234.35
779.98	234.22
780.31	234.27
780.63	234.19
780.95	234.27
781.28	234.12
781.60	234.13
781.92	234.11
782.25	234.00
782.57	233.94
782.89	233.84
783.22	233.72
783.54	233.65
783.86	233.50
784.19	233.53
784.51	233.48
784.83	233.25
785.16	233.29
785.48	233.30
785.80	233.20
786.12	233.23
786.45	233.05
786.77	233.07
787.09	233.03
787.42	232.98
787.74	232.93
788.06	233.04
788.38	232.86
788.71	232.83
789.03	232.91
789.35	232.92
789.67	232.90
789.99	232.90
790.32	232.87
790.64	232.97
790.96	232.95
791.28	232.81
791.61	232.91
791.93	232.76
792.25	232.65
792.57	232.81
792.89	232.69
793.21	232.76
793.54	232.66
793.86	232.51
794.18	232.48
794.50	232.40
794.82	232.29
795.14	232.30
795.47	232.23
795.79	232.17
796.11	232.01
796.43	231.89
796.75	231.90
797.07	231.84
797.39	231.80
797.71	231.67
798.04	231.71
798.36	231.59
798.68	231.51
799.00	231.59
799.32	231.51
799.64	231.56
799.96	231.55
800.28	231.51
800.60	231.55
800.92	231.49
801.24	231.40
801.56	231.41
801.89	231.35
802.21	231.33
802.53	231.23
802.85	231.37
803.17	231.46
803.49	231.33
803.81	231.18
804.13	231.11
804.45	231.02
804.77	230.93
805.09	231.04
805.41	231.09
805.73	231.01
806.05	230.92
806.37	230.91
806.69	230.83
807.01	230.94
807.33	230.91
807.65	230.87
807.97	230.97
808.28	231.01
808.60	231.08
808.92	230.97
809.24	231.09
809.56	230.92
809.88	230.83
810.20	230.90
810.52	231.01
810.84	230.99
811.16	231.08
811.48	231.19
811.80	231.14
812.12	230.98
812.43	231.01
812.75	231.07
813.07	230.95
813.39	230.94
813.71	230.74
814.03	230.67
814.35	230.68
814.67	230.65
814.98	230.46
815.30	230.47
815.62	230.53
815.94	230.40
816.26	230.55
816.58	230.65
816.89	230.65
817.21	230.62
817.53	230.57
817.85	230.54
818.17	230.45
818.48	230.44
818.80	230.56
819.12	230.40
819.44	230.26
819.76	230.26
820.07	230.20
820.39	230.30
820.71	230.35
821.03	230.30
821.34	230.16
821.66	230.22
821.98	230.20
822.30	230.20
822.61	230.26
822.93	230.18
823.25	230.07
823.57	230.06
823.88	230.03
824.20	230.03
824.52	230.03
824.83	229.91
825.15	229.77
825.47	229.79
825.79	229.80
826.10	229.84
826.42	229.84
826.74	229.85
827.05	229.80
827.37	229.82
827.69	229.79
828.00	229.88
828.32	229.79
828.64	229.70
828.95	229.68
829.27	229.58
829.58	229.56
829.90	229.60
830.22	229.59
830.53	229.62
830.85	229.64
831.17	229.54
831.48	229.65
831.80	229.64
832.11	229.57
832.43	229.60
832.75	229.53
833.06	229.60
833.38	229.52
833.69	229.43
834.01	229.36
834.32	229.32
834.64	229.26
834.96	229.23
835.27	229.23
835.59	229.23
835.90	229.22
836.22	229.18
836.53	229.09
836.85	229.03
837.16	229.18
837.48	229.12
837.79	229.17
838.11	229.10
838.42	229.13
838.74	229.15
839.05	229.15
839.37	229.14
839.68	229.00
840.00	229.04
840.31	229.09
840.63	229.08
840.94	229.05
841.26	229.00
841.57	229.08
841.88	229.16
842.20	229.11
842.51	229.10
842.83	229.04
843.14	229.19
843.46	229.25
843.77	229.10
844.08	229.14
844.40	229.11
844.71	229.11
845.03	229.15
845.34	229.10
845.65	229.01
845.97	229.00
846.28	228.98
846.60	228.92
846.91	228.88
847.22	228.83
847.54	228.91
847.85	228.92
848.16	228.86
848.48	228.88
848.79	228.96
849.10	228.96
849.42	229.05
849.73	228.96
850.04	228.91
850.36	228.81
850.67	228.78
850.98	228.80
851.30	228.87
851.61	228.76
851.92	228.84
852.23	228.91
852.55	228.99
852.86	229.08
853.17	229.12
853.49	229.18
853.80	229.34
854.11	229.40
854.42	229.45
854.74	229.53
855.05	229.40
855.36	229.32
855.67	229.42
855.99	229.38
856.30	229.51
856.61	229.53
856.92	229.50
857.23	229.58
857.55	229.51
857.86	229.44
858.17	229.57
858.48	229.54
858.79	229.58
859.11	229.51
859.42	229.41
859.73	229.39
860.04	229.48
860.35	229.38
860.66	229.27
860.98	229.36
861.29	229.37
861.60	229.49
861.91	229.56
862.22	229.44
862.53	229.43
862.84	229.31
863.16	229.37
863.47	229.44
863.78	229.37
864.09	229.33
864.40	229.28
864.71	229.21
865.02	229.20
865.33	229.13
865.64	229.19
865.95	229.26
866.27	229.40
866.58	229.27
866.89	229.24
867.20	229.34
867.51	229.20
867.82	229.15
868.13	229.07
868.44	228.95
868.75	229.02
869.06	229.02
869.37	228.92
869.68	228.83
869.99	228.90
870.30	228.88
870.61	228.90
870.92	228.93
871.23	228.91
871.54	228.86
871.85	228.92
872.16	228.87
872.47	228.97
872.78	228.76
873.09	228.75
873.40	228.80
873.71	228.68
874.02	228.65
874.33	228.56
874.64	228.48
874.95	228.55
875.26	228.47
875.56	228.46
875.87	228.47
876.18	228.36
876.49	228.40
876.80	228.43
877.11	228.37
877.42	228.46
877.73	228.41
878.04	228.43
878.35	228.42
878.66	228.37
878.96	228.17
879.27	228.27
879.58	228.16
879.89	228.12
880.20	228.18
880.51	228.20
880.82	228.23
881.12	228.24
881.43	228.12
881.74	228.19
882.05	228.19
882.36	228.19
882.67	228.24
882.97	228.15
883.28	228.11
883.59	228.19
883.90	228.06
884.21	228.11
884.51	228.04
884.82	227.99
885.13	228.08
885.44	228.12
885.74	228.06
886.05	228.12
886.36	228.14
886.67	228.05
886.98	228.10
887.28	228.15
887.59	228.19
887.90	228.35
888.20	228.26
888.51	228.30
888.82	228.35
889.13	228.40
889.43	228.50
889.74	228.43
890.05	228.41
890.35	228.33
890.66	228.38
890.97	228.38
891.28	228.38
891.58	228.34
891.89	228.37
892.20	228.45
892.50	228.51
892.81	228.48
893.12	228.45
893.42	228.40
893.73	228.40
894.04	228.37
894.34	228.30
894.65	228.37
894.95	228.39
895.26	228.37
895.57	228.37
895.87	228.16
896.18	228.30
896.48	228.36
896.79	228.53
897.10	228.52
897.40	228.65
897.71	228.68
898.01	228.69
898.32	228.67
898.63	228.60
898.93	228.63
899.24	228.64
899.54	228.78
899.85	228.90
900.15	228.96
900.46	229.07
900.76	229.14
901.07	229.13
901.38	229.13
901.68	229.21
901.99	229.24
902.29	229.41
902.60	229.41
902.90	229.36
903.21	229.40
903.51	229.46
903.82	229.38
904.12	229.46
904.43	229.48
904.73	229.50
905.03	229.62
905.34	229.82
905.64	229.74
905.95	229.79
906.25	229.78
906.56	229.81
906.86	229.84
907.17	229.76
907.47	229.80
907.77	229.76
908.08	229.61
908.38	229.58
908.69	229.44
908.99	229.45
909.30	229.43
909.60	229.39
909.90	229.34
910.21	229.30
910.51	229.26
910.81	229.21
911.12	229.21
911.42	229.10
911.73	228.90
912.03	228.91
912.33	228.92
912.64	228.82
912.94	228.69
913.24	228.56
913.55	228.50
913.85	228.41
914.15	228.50
914.46	228.64
914.76	228.67
915.06	228.63
915.37	228.53
915.67	228.49
915.97	228.50
916.27	228.41
916.58	228.44
916.88	228.30
917.18	228.25
917.49	228.29
917.79	228.21
918.09	228.15
918.39	228.19
918.70	228.10
919.00	228.12
919.30	228.16
919.60	228.13
919.91	228.08
920.21	228.11
920.51	227.80
920.81	227.69
921.12	227.64
921.42	227.69
921.72	227.74
922.02	227.68
922.32	227.64
922.63	227.70
922.93	227.74
923.23	227.71
923.53	227.64
923.83	227.61
924.13	227.66
924.44	227.67
924.74	227.70
925.04	227.69
925.34	227.69
925.64	227.60
925.94	227.48
926.24	227.63
926.55	227.58
926.85	227.86
927.15	227.86
927.45	227.83
927.75	227.82
928.05	227.81
928.35	227.98
928.65	228.00
928.95	227.92
929.26	227.90
929.56	227.93
929.86	228.07
930.16	227.99
930.46	227.95
930.76	228.01
931.06	227.87
931.36	227.84
931.66	227.87
931.96	227.89
932.26	228.01
932.56	228.08
932.86	228.10
933.16	227.98
933.46	227.93
933.76	227.96
934.06	228.00
934.36	228.08
934.66	228.17
934.96	228.20
935.26	228.30
935.56	228.43
935.86	228.46
936.16	228.40
936.46	228.51
936.76	228.58
937.06	228.56
937.36	228.64
937.66	228.70
937.96	228.75
938.26	228.83
938.56	228.98
938.86	228.86
939.16	228.97
939.46	228.99
939.76	229.14
940.06	229.27
940.35	229.29
940.65	229.20
940.95	229.15
941.25	229.06
941.55	229.04
941.85	229.01
942.15	229.20
942.45	229.29
942.75	229.29
943.04	229.30
943.34	229.30
943.64	229.40
943.94	229.41
944.24	229.36
944.54	229.42
944.84	229.28
945.13	229.22
945.43	229.20
945.73	229.29
946.03	229.11
946.33	229.04
946.62	229.06
946.92	229.04
947.22	228.97
947.52	229.05
947.82	229.08
948.11	229.07
948.41	228.90
948.71	228.88
949.01	228.85
949.31	228.79
949.60	228.71
949.90	228.68
950.20	228.57
950.50	228.60
950.79	228.55
951.09	228.56
951.39	228.55
951.69	228.54
951.98	228.60
952.28	228.63
952.58	228.60
952.87	228.49
953.17	228.50
953.47	228.41
953.76	228.39
954.06	228.30
954.36	228.30
954.66	228.32
954.95	228.29
955.25	228.25
955.55	228.18
955.84	228.20
956.14	228.21
956.44	228.25
956.73	228.12
957.03	228.00
957.32	228.04
957.62	228.10
957.92	228.12
958.21	228.00
958.51	228.15
958.81	228.05
959.10	228.01
959.40	228.07
959.69	228.06
959.99	228.05
960.29	228.05
960.58	228.01
960.88	227.98
961.17	227.93
961.47	227.95
961.76	228.00
962.06	228.08
962.36	228.05
962.65	228.05
962.95	228.04
963.24	228.10
963.54	228.06
963.83	228.00
964.13	227.93
964.42	227.91
964.72	227.79
965.01	227.79
965.31	227.88
965.60	227.80
965.90	227.98
966.19	227.92
966.49	227.90
966.78	227.79
967.08	227.75
967.37	227.73
967.67	227.72
967.96	227.78
968.26	227.77
968.55	227.77
968.85	227.77
969.14	227.78
969.43	227.80
969.73	227.71
970.02	227.68
970.32	227.67
970.61	227.62
970.91	227.65
971.20	227.65
971.49	227.67
971.79	227.67
972.08	227.56
972.38	227.54
972.67	227.60
972.96	227.70
973.26	227.72
973.55	227.82
973.85	227.84
974.14	227.81
974.43	227.84
974.73	227.84
975.02	227.85
975.31	227.94
975.61	227.99
975.90	228.08
976.19	228.17
976.49	228.28
976.78	228.39
977.07	228.48
977.37	228.58
977.66	228.63
977.95	228.67
978.24	228.72
978.54	228.90
978.83	228.96
979.12	228.97
979.42	229.09
979.71	229.05
980.00	229.07
980.29	229.15
980.59	229.10
980.88	229.26
981.17	229.32
981.46	229.31
981.76	229.36
982.05	229.44
982.34	229.45
982.63	229.45
982.93	229.54
983.22	229.50
983.51	229.47
983.80	229.50
984.09	229.55
984.39	229.58
984.68	229.57
984.97	229.56
985.26	229.57
985.55	229.50
985.85	229.56
986.14	229.52
986.43	229.57
986.72	229.60
987.01	229.52
987.30	229.43
987.59	229.41
987.89	229.35
988.18	229.34
988.47	229.32
988.76	229.32
989.05	229.13
989.34	229.11
989.63	229.12
989.92	229.11
990.22	229.05
990.51	229.04
990.80	228.87
991.09	228.81
991.38	228.77
991.67	228.84
991.96	228.87
992.25	228.94
992.54	228.88
992.83	228.82
993.12	228.77
993.41	228.78
993.70	228.80
993.99	228.78
994.28	228.74
994.58	228.71
994.87	228.60
995.16	228.69
995.45	228.71
995.74	228.65
996.03	228.53
996.32	228.57
996.61	228.52
996.90	228.62
997.19	228.65
997.48	228.62
997.77	228.45
998.06	228.27
998.34	228.14
998.63	228.09
998.92	228.04
999.21	228.06
999.50	228.07
999.79	228.05
1000.08	228.03
1000.37	228.10
1000.66	228.20
1000.95	228.27
1001.24	228.22
1001.53	228.24
1001.82	228.24
1002.11	228.28
1002.40	228.20
1002.68	228.20
1002.97	228.22
1003.26	228.16
1003.55	228.07
1003.84	228.22
1004.13	228.30
1004.42	228.41
1004.71	228.48
1004.99	228.53
1005.28	228.45
1005.57	228.36
1005.86	228.37
1006.15	228.31
1006.44	228.09
1006.72	228.04
1007.01	227.94
1007.30	227.90
1007.59	227.83
1007.88	227.86
1008.17	227.77
1008.45	227.70
1008.74	227.68
1009.03	227.63
1009.32	227.66
1009.60	227.72
1009.89	227.73
1010.18	227.63
1010.47	227.51
1010.76	227.32
1011.04	227.29
1011.33	227.38
1011.62	227.56
1011.91	227.45
1012.19	227.56
1012.48	227.62
1012.77	227.67
1013.05	227.79
1013.34	227.81
1013.63	227.81
1013.92	227.77
1014.20	227.87
1014.49	227.91
1014.78	227.93
1015.06	227.87
1015.35	227.82
1015.64	227.81
1015.92	227.72
1016.21	227.81
1016.50	227.96
1016.78	228.17
1017.07	228.18
1017.36	228.10
1017.64	227.98
1017.93	228.12
1018.22	228.02
1018.50	228.07
1018.79	228.07
1019.08	228.01
1019.36	228.13
1019.65	228.20
1019.93	228.30
1020.22	228.36
1020.51	228.54
1020.79	228.53
1021.08	227.50
1021.36	227.90
1021.65	229.00
1021.94	228.80
1022.22	229.90
1022.51	229.20
1022.79	229.30
1023.08	229.70
1023.36	231.30
1023.65	227.60
>>>>>End Processed Spectral Data<<<<<
