SpectraSuite Data File
++++++++++++++++++++++++++++++++++++
Date: Fri Feb 01 14:42:00 EST 2013
User: group
Dark Spectrum Present: No
Reference Spectrum Present: No
Number of Sampled Component Spectra: 1
Spectrometers: USB2E7196
Integration Time (usec): 70000 (USB2E7196)
Spectra Averaged: 10 (USB2E7196)
Boxcar Smoothing: 10 (USB2E7196)
Correct for Electrical Dark: No (USB2E7196)
Strobe/Lamp Enabled: No (USB2E7196)
Correct for Detector Non-linearity: No (USB2E7196)
Correct for Stray Light: No (USB2E7196)
Number of Pixels in Processed Spectrum: 2048
>>>>>Begin Processed Spectral Data<<<<<
339.09	0.00
339.48	217.50
339.86	217.80
340.24	219.90
340.63	221.60
341.01	224.10
341.39	223.40
341.78	226.30
342.16	226.60
342.54	225.10
342.93	214.92
343.31	225.76
343.69	226.25
344.07	226.63
344.46	226.95
344.84	227.27
345.22	227.52
345.60	227.77
345.99	227.83
346.37	228.02
346.75	228.20
347.13	228.28
347.52	228.38
347.90	228.50
348.28	228.73
348.66	228.74
349.05	228.75
349.43	228.92
349.81	229.02
350.19	229.09
350.57	229.12
350.96	229.25
351.34	229.41
351.72	229.42
352.10	229.67
352.48	229.73
352.87	229.86
353.25	229.87
353.63	230.01
354.01	230.11
354.39	230.12
354.77	230.17
355.15	230.29
355.54	230.26
355.92	230.20
356.30	230.17
356.68	230.43
357.06	230.44
357.44	230.31
357.82	230.35
358.20	230.34
358.58	230.40
358.97	230.47
359.35	230.45
359.73	230.62
360.11	230.63
360.49	230.82
360.87	230.77
361.25	230.78
361.63	230.75
362.01	230.79
362.39	230.79
362.77	230.80
363.15	230.77
363.53	230.84
363.91	230.91
364.29	230.96
364.67	230.73
365.05	230.71
365.43	230.71
365.81	230.78
366.19	230.89
366.57	230.90
366.95	230.80
367.33	230.79
367.71	230.77
368.09	230.79
368.47	230.67
368.85	230.64
369.23	230.76
369.61	230.70
369.99	230.77
370.37	230.74
370.75	230.77
371.13	230.71
371.51	230.63
371.89	230.60
372.27	230.52
372.65	230.49
373.03	230.58
373.41	230.53
373.78	230.42
374.16	230.16
374.54	230.07
374.92	230.03
375.30	229.99
375.68	229.90
376.06	229.89
376.44	229.78
376.82	229.70
377.19	229.61
377.57	229.56
377.95	229.38
378.33	229.32
378.71	229.14
379.09	229.10
379.47	229.14
379.84	229.00
380.22	228.86
380.60	228.74
380.98	228.56
381.36	228.57
381.73	228.50
382.11	228.56
382.49	228.48
382.87	228.31
383.25	228.21
383.62	228.30
384.00	228.09
384.38	228.13
384.76	228.07
385.13	228.05
385.51	228.00
385.89	227.95
386.27	227.92
386.64	227.92
387.02	227.83
387.40	227.77
387.78	227.76
388.15	227.80
388.53	227.75
388.91	227.69
389.29	227.57
389.66	227.70
390.04	227.67
390.42	227.70
390.79	227.90
391.17	227.83
391.55	227.64
391.92	227.61
392.30	227.61
392.68	227.64
393.05	227.60
393.43	227.59
393.81	227.60
394.18	227.61
394.56	227.62
394.94	227.62
395.31	227.56
395.69	227.63
396.06	227.65
396.44	227.83
396.82	227.84
397.19	228.07
397.57	227.92
397.95	228.00
398.32	227.99
398.70	228.06
399.07	228.27
399.45	228.38
399.82	228.58
400.20	228.78
400.58	228.90
400.95	228.91
401.33	229.10
401.70	229.38
402.08	229.50
402.45	229.67
402.83	229.86
403.20	230.13
403.58	230.31
403.95	230.45
404.33	230.53
404.71	230.80
405.08	231.03
405.46	231.29
405.83	231.52
406.21	231.88
406.58	232.07
406.96	232.33
407.33	232.58
407.70	232.80
408.08	233.09
408.45	233.36
408.83	233.84
409.20	234.05
409.58	234.25
409.95	234.67
410.33	235.14
410.70	235.56
411.08	235.90
411.45	236.37
411.82	236.91
412.20	237.62
412.57	238.32
412.95	238.73
413.32	239.34
413.69	239.86
414.07	240.41
414.44	241.09
414.82	241.81
415.19	242.70
415.56	243.58
415.94	244.49
416.31	245.41
416.68	246.28
417.06	247.53
417.43	248.60
417.81	249.75
418.18	250.98
418.55	252.17
418.93	253.48
419.30	254.79
419.67	256.29
420.04	257.59
420.42	258.98
420.79	260.80
421.16	262.56
421.54	264.54
421.91	266.51
422.28	268.47
422.66	270.43
423.03	272.52
423.40	274.63
423.77	276.63
424.15	278.94
424.52	281.36
424.89	283.64
425.26	285.98
425.64	288.18
426.01	290.55
426.38	293.15
426.75	295.80
427.13	298.58
427.50	301.26
427.87	304.11
428.24	307.04
428.61	309.71
428.99	312.72
429.36	315.73
429.73	318.74
430.10	321.80
430.47	324.94
430.85	328.04
431.22	331.23
431.59	334.91
431.96	338.32
432.33	342.00
432.70	345.64
433.08	349.90
433.45	353.81
433.82	357.82
434.19	362.20
434.56	366.52
434.93	370.34
435.30	374.38
435.68	378.77
436.05	382.94
436.42	387.20
436.79	390.88
437.16	394.98
437.53	399.39
437.90	403.54
438.27	407.62
438.64	411.92
439.01	415.90
439.38	419.33
439.75	422.50
440.13	426.17
440.50	429.73
440.87	432.69
441.24	435.74
441.61	439.01
441.98	441.10
442.35	443.62
442.72	446.49
443.09	449.26
443.46	450.80
443.83	451.77
444.20	452.34
444.57	453.78
444.94	454.30
445.31	454.59
445.68	455.16
446.05	455.32
446.42	454.53
446.79	453.97
447.16	453.28
447.53	452.70
447.90	450.91
448.27	449.13
448.64	446.49
449.01	444.58
449.37	441.47
449.74	438.55
450.11	435.23
450.48	431.29
450.85	427.25
451.22	423.82
451.59	420.61
451.96	417.79
452.33	413.67
452.70	410.00
453.07	405.84
453.43	401.59
453.80	397.37
454.17	393.40
454.54	389.43
454.91	385.21
455.28	381.30
455.65	377.53
456.02	374.02
456.38	370.87
456.75	366.99
457.12	363.46
457.49	360.22
457.86	356.85
458.23	354.19
458.59	351.08
458.96	348.06
459.33	345.31
459.70	342.44
460.07	340.19
460.43	337.72
460.80	335.28
461.17	332.81
461.54	330.58
461.91	328.48
462.27	326.23
462.64	324.26
463.01	322.21
463.38	320.28
463.74	317.98
464.11	316.09
464.48	314.44
464.85	312.84
465.21	311.43
465.58	310.01
465.95	308.36
466.32	307.06
466.68	305.69
467.05	304.18
467.42	302.77
467.78	301.30
468.15	299.81
468.52	298.64
468.88	297.53
469.25	296.15
469.62	295.10
469.98	294.08
470.35	293.13
470.72	292.16
471.08	291.01
471.45	290.06
471.82	289.10
472.18	288.18
472.55	287.39
472.92	286.56
473.28	285.81
473.65	285.08
474.02	284.35
474.38	283.59
474.75	283.05
475.11	282.38
475.48	281.92
475.85	281.47
476.21	281.21
476.58	280.73
476.94	280.54
477.31	280.20
477.67	279.94
478.04	279.76
478.41	279.44
478.77	279.45
479.14	279.31
479.50	279.35
479.87	279.32
480.23	279.48
480.60	279.53
480.96	279.53
481.33	279.59
481.69	279.68
482.06	279.86
482.42	280.13
482.79	280.45
483.15	280.85
483.52	281.32
483.88	281.55
484.25	281.99
484.61	282.44
484.98	282.94
485.34	283.50
485.71	283.92
486.07	284.75
486.44	285.32
486.80	286.14
487.17	286.97
487.53	287.88
487.90	288.79
488.26	289.88
488.62	291.04
488.99	292.18
489.35	293.59
489.72	294.93
490.08	296.28
490.44	297.77
490.81	299.23
491.17	300.97
491.54	302.86
491.90	304.86
492.26	306.80
492.63	308.97
492.99	311.26
493.36	313.85
493.72	316.36
494.08	319.28
494.45	322.18
494.81	325.33
495.17	328.60
495.54	332.00
495.90	335.56
496.26	339.33
496.63	343.32
496.99	347.36
497.35	351.83
497.72	356.57
498.08	361.51
498.44	366.61
498.80	371.90
499.17	377.39
499.53	382.97
499.89	389.04
500.26	395.15
500.62	401.45
500.98	408.20
501.34	415.20
501.71	422.36
502.07	429.89
502.43	437.48
502.79	445.57
503.16	453.72
503.52	462.40
503.88	471.09
504.24	480.28
504.60	489.90
504.97	499.67
505.33	509.76
505.69	520.20
506.05	530.95
506.41	541.72
506.78	553.02
507.14	564.91
507.50	577.03
507.86	589.71
508.22	602.93
508.59	616.02
508.95	629.53
509.31	643.50
509.67	657.63
510.03	672.40
510.39	687.16
510.75	702.68
511.12	718.25
511.48	734.57
511.84	751.19
512.20	767.65
512.56	785.01
512.92	802.64
513.28	820.53
513.64	838.82
514.00	857.29
514.37	876.35
514.73	895.40
515.09	914.80
515.45	934.04
515.81	953.91
516.17	973.95
516.53	994.66
516.89	1015.41
517.25	1036.61
517.61	1057.66
517.97	1078.92
518.33	1100.16
518.69	1121.69
519.05	1143.73
519.41	1166.00
519.77	1188.91
520.13	1211.76
520.49	1234.45
520.85	1257.26
521.21	1280.56
521.57	1304.42
521.93	1327.35
522.29	1351.42
522.65	1375.05
523.01	1398.77
523.37	1422.06
523.73	1446.18
524.09	1469.81
524.45	1494.27
524.81	1518.71
525.17	1544.09
525.53	1569.33
525.89	1594.51
526.25	1619.65
526.61	1643.92
526.97	1668.96
527.33	1693.44
527.68	1718.33
528.04	1743.03
528.40	1768.03
528.76	1793.28
529.12	1818.11
529.48	1843.96
529.84	1868.37
530.20	1893.71
530.56	1919.90
530.91	1946.09
531.27	1971.72
531.63	1997.04
531.99	2021.89
532.35	2046.41
532.71	2069.98
533.07	2094.26
533.42	2118.55
533.78	2143.03
534.14	2167.59
534.50	2190.13
534.86	2214.03
535.21	2236.70
535.57	2260.90
535.93	2284.16
536.29	2306.88
536.65	2329.94
537.00	2352.07
537.36	2375.33
537.72	2397.00
538.08	2418.28
538.44	2439.18
538.79	2460.76
539.15	2481.27
539.51	2502.63
539.87	2523.90
540.22	2544.83
540.58	2565.91
540.94	2586.05
541.29	2605.58
541.65	2625.50
542.01	2646.48
542.37	2666.85
542.72	2686.36
543.08	2704.84
543.44	2723.27
543.79	2740.40
544.15	2757.58
544.51	2775.53
544.87	2792.90
545.22	2810.22
545.58	2827.30
545.94	2842.98
546.29	2858.68
546.65	2874.91
547.01	2889.28
547.36	2903.58
547.72	2917.34
548.07	2931.02
548.43	2944.40
548.79	2957.50
549.14	2969.73
549.50	2981.20
549.86	2992.30
550.21	3004.32
550.57	3015.89
550.92	3027.58
551.28	3038.93
551.64	3050.16
551.99	3060.83
552.35	3070.54
552.70	3080.95
553.06	3090.53
553.41	3101.28
553.77	3110.81
554.13	3120.13
554.48	3129.74
554.84	3138.76
555.19	3148.00
555.55	3156.35
555.90	3164.31
556.26	3172.36
556.61	3180.22
556.97	3187.97
557.32	3195.23
557.68	3202.21
558.03	3209.11
558.39	3215.80
558.74	3223.70
559.10	3230.49
559.45	3237.18
559.81	3244.61
560.16	3249.96
560.52	3255.31
560.87	3261.01
561.23	3265.46
561.58	3270.54
561.94	3275.16
562.29	3279.31
562.64	3282.94
563.00	3286.64
563.35	3292.21
563.71	3297.76
564.06	3303.13
564.42	3307.54
564.77	3312.08
565.12	3316.21
565.48	3320.02
565.83	3322.11
566.19	3324.50
566.54	3326.11
566.89	3327.17
567.25	3327.88
567.60	3330.61
567.96	3332.58
568.31	3333.31
568.66	3334.56
569.02	3335.20
569.37	3335.02
569.72	3335.32
570.08	3335.46
570.43	3335.58
570.78	3334.42
571.14	3331.98
571.49	3329.94
571.84	3329.45
572.20	3326.45
572.55	3323.91
572.90	3320.71
573.26	3319.28
573.61	3316.08
573.96	3313.74
574.31	3310.09
574.67	3304.81
575.02	3299.80
575.37	3295.62
575.72	3289.67
576.08	3285.45
576.43	3280.59
576.78	3276.14
577.13	3272.26
577.49	3268.10
577.84	3262.40
578.19	3256.95
578.54	3251.07
578.90	3244.62
579.25	3236.77
579.60	3230.20
579.95	3223.06
580.30	3215.95
580.66	3208.01
581.01	3200.02
581.36	3192.39
581.71	3185.84
582.06	3179.67
582.42	3171.64
582.77	3163.35
583.12	3156.30
583.47	3148.58
583.82	3141.17
584.17	3132.87
584.53	3124.27
584.88	3115.64
585.23	3107.44
585.58	3099.02
585.93	3091.44
586.28	3083.85
586.63	3076.56
586.98	3068.91
587.34	3060.70
587.69	3052.78
588.04	3045.36
588.39	3037.92
588.74	3028.20
589.09	3018.13
589.44	3008.71
589.79	3000.34
590.14	2992.54
590.49	2984.00
590.84	2974.27
591.19	2965.39
591.54	2955.18
591.89	2943.65
592.25	2934.22
592.60	2923.72
592.95	2912.59
593.30	2901.77
593.65	2890.73
594.00	2879.60
594.35	2869.51
594.70	2858.75
595.05	2848.16
595.40	2836.43
595.75	2825.00
596.10	2815.79
596.45	2806.62
596.80	2797.40
597.15	2787.70
597.50	2776.30
597.85	2766.18
598.19	2756.78
598.54	2746.68
598.89	2737.64
599.24	2730.14
599.59	2719.84
599.94	2710.53
600.29	2701.06
600.64	2691.70
600.99	2681.20
601.34	2671.15
601.69	2660.19
602.04	2650.34
602.39	2639.97
602.74	2630.94
603.08	2621.85
603.43	2612.14
603.78	2602.37
604.13	2591.53
604.48	2580.77
604.83	2570.95
605.18	2560.68
605.53	2548.89
605.87	2536.52
606.22	2525.78
606.57	2513.75
606.92	2502.62
607.27	2492.01
607.62	2481.91
607.96	2470.63
608.31	2460.39
608.66	2448.73
609.01	2437.55
609.36	2425.70
609.70	2413.55
610.05	2400.88
610.40	2388.81
610.75	2375.94
611.10	2363.70
611.44	2350.46
611.79	2339.05
612.14	2326.46
612.49	2313.10
612.83	2301.03
613.18	2289.09
613.53	2276.91
613.88	2263.98
614.22	2251.48
614.57	2238.38
614.92	2225.58
615.27	2213.77
615.61	2200.84
615.96	2189.27
616.31	2177.50
616.65	2166.99
617.00	2155.82
617.35	2144.88
617.70	2132.93
618.04	2120.88
618.39	2108.70
618.74	2098.04
619.08	2085.54
619.43	2074.78
619.78	2064.41
620.12	2053.03
620.47	2041.93
620.82	2029.34
621.16	2018.48
621.51	2007.56
621.85	1996.34
622.20	1984.30
622.55	1972.71
622.89	1962.10
623.24	1951.36
623.59	1941.06
623.93	1929.48
624.28	1918.89
624.62	1907.59
624.97	1896.98
625.32	1887.33
625.66	1876.92
626.01	1866.08
626.35	1854.79
626.70	1843.34
627.04	1832.47
627.39	1821.65
627.73	1810.92
628.08	1801.08
628.43	1790.04
628.77	1779.26
629.12	1768.22
629.46	1757.69
629.81	1746.15
630.15	1734.79
630.50	1723.16
630.84	1711.22
631.19	1699.57
631.53	1687.92
631.88	1676.33
632.22	1664.60
632.57	1653.29
632.91	1641.76
633.26	1630.48
633.60	1619.67
633.95	1608.72
634.29	1598.03
634.64	1587.88
634.98	1576.81
635.32	1566.82
635.67	1556.92
636.01	1546.80
636.36	1536.85
636.70	1527.18
637.05	1517.71
637.39	1508.68
637.73	1499.17
638.08	1490.15
638.42	1480.96
638.77	1471.98
639.11	1462.58
639.45	1453.28
639.80	1443.40
640.14	1434.24
640.49	1424.87
640.83	1415.75
641.17	1406.33
641.52	1396.77
641.86	1386.98
642.20	1377.94
642.55	1368.00
642.89	1358.51
643.23	1348.98
643.58	1340.55
643.92	1330.70
644.26	1321.39
644.61	1312.15
644.95	1303.07
645.29	1292.78
645.64	1282.70
645.98	1272.87
646.32	1263.83
646.66	1254.59
647.01	1245.75
647.35	1236.57
647.69	1227.54
648.04	1218.60
648.38	1209.46
648.72	1199.86
649.06	1190.79
649.41	1181.79
649.75	1172.43
650.09	1163.03
650.43	1153.75
650.78	1143.63
651.12	1134.97
651.46	1126.07
651.80	1117.10
652.14	1108.51
652.49	1099.95
652.83	1092.20
653.17	1083.48
653.51	1074.82
653.85	1066.03
654.20	1056.90
654.54	1047.97
654.88	1039.51
655.22	1030.39
655.56	1021.87
655.90	1013.76
656.25	1005.70
656.59	997.40
656.93	989.80
657.27	982.05
657.61	973.86
657.95	966.41
658.29	958.48
658.64	950.58
658.98	942.39
659.32	933.97
659.66	926.37
660.00	918.40
660.34	910.70
660.68	903.39
661.02	895.90
661.36	889.05
661.70	882.35
662.05	875.71
662.39	869.35
662.73	862.60
663.07	855.89
663.41	849.08
663.75	842.60
664.09	835.57
664.43	829.13
664.77	823.22
665.11	816.95
665.45	810.69
665.79	804.56
666.13	798.37
666.47	792.48
666.81	786.45
667.15	780.12
667.49	774.47
667.83	768.44
668.17	762.71
668.51	756.61
668.85	750.45
669.19	744.56
669.53	738.78
669.87	732.99
670.21	727.62
670.55	722.20
670.89	717.04
671.23	712.00
671.57	706.97
671.91	701.71
672.25	696.41
672.58	691.22
672.92	686.07
673.26	681.21
673.60	676.26
673.94	671.50
674.28	667.08
674.62	662.51
674.96	658.00
675.30	653.61
675.64	649.10
675.97	644.82
676.31	640.38
676.65	636.07
676.99	632.05
677.33	627.70
677.67	623.19
678.01	618.49
678.34	614.40
678.68	610.10
679.02	605.86
679.36	601.72
679.70	597.70
680.04	593.64
680.37	589.43
680.71	585.62
681.05	581.68
681.39	578.01
681.73	574.37
682.06	570.87
682.40	567.14
682.74	563.61
683.08	559.92
683.42	556.21
683.75	552.52
684.09	548.75
684.43	545.05
684.77	541.47
685.10	538.20
685.44	534.60
685.78	531.14
686.12	527.85
686.45	524.46
686.79	521.26
687.13	518.02
687.46	514.79
687.80	511.32
688.14	508.02
688.48	504.61
688.81	500.94
689.15	497.55
689.49	494.46
689.82	491.22
690.16	487.96
690.50	484.84
690.83	481.90
691.17	478.75
691.51	475.80
691.84	473.00
692.18	469.97
692.52	467.02
692.85	464.01
693.19	460.97
693.52	458.09
693.86	455.00
694.20	452.26
694.53	449.50
694.87	446.76
695.21	444.05
695.54	441.40
695.88	438.68
696.21	435.94
696.55	433.14
696.88	430.51
697.22	428.04
697.56	425.75
697.89	423.29
698.23	420.88
698.56	418.49
698.90	415.95
699.23	413.35
699.57	410.90
699.90	408.49
700.24	406.00
700.58	403.59
700.91	401.40
701.25	399.16
701.58	396.94
701.92	394.81
702.25	392.85
702.59	390.62
702.92	388.79
703.26	386.68
703.59	384.89
703.93	383.14
704.26	381.20
704.60	379.06
704.93	377.02
705.26	375.19
705.60	373.45
705.93	371.81
706.27	370.28
706.60	368.74
706.94	367.16
707.27	365.60
707.61	364.03
707.94	362.41
708.27	360.67
708.61	359.14
708.94	357.61
709.28	356.09
709.61	354.65
709.94	353.14
710.28	351.77
710.61	350.19
710.95	348.60
711.28	347.23
711.61	345.86
711.95	344.57
712.28	343.06
712.61	341.56
712.95	340.07
713.28	338.83
713.61	337.34
713.95	335.93
714.28	334.66
714.61	333.47
714.95	332.24
715.28	330.89
715.61	329.51
715.95	328.28
716.28	327.03
716.61	325.94
716.95	324.85
717.28	323.69
717.61	322.70
717.94	321.56
718.28	320.43
718.61	319.47
718.94	318.40
719.27	317.40
719.61	316.32
719.94	315.51
720.27	314.40
720.60	313.41
720.94	312.50
721.27	311.60
721.60	310.73
721.93	309.80
722.27	309.08
722.60	308.27
722.93	307.50
723.26	306.50
723.59	305.50
723.93	304.46
724.26	303.59
724.59	302.56
724.92	301.63
725.25	300.72
725.59	299.80
725.92	298.89
726.25	298.12
726.58	297.41
726.91	296.49
727.24	295.65
727.57	294.86
727.91	294.03
728.24	293.26
728.57	292.40
728.90	291.62
729.23	290.79
729.56	290.11
729.89	289.30
730.22	288.69
730.55	287.99
730.89	287.43
731.22	286.80
731.55	286.16
731.88	285.59
732.21	284.98
732.54	284.32
732.87	283.71
733.20	283.14
733.53	282.47
733.86	281.92
734.19	281.36
734.52	280.77
734.85	280.30
735.18	279.66
735.51	279.07
735.84	278.62
736.17	278.05
736.50	277.43
736.83	277.05
737.16	276.41
737.49	275.88
737.82	275.25
738.15	274.62
738.48	274.04
738.81	273.45
739.14	272.82
739.47	272.20
739.80	271.71
740.13	271.12
740.46	270.57
740.79	270.00
741.12	269.45
741.45	268.97
741.78	268.38
742.11	267.85
742.44	267.37
742.77	266.75
743.10	266.28
743.43	265.71
743.75	265.00
744.08	264.84
744.41	264.40
744.74	264.01
745.07	263.58
745.40	263.15
745.73	262.82
746.06	262.45
746.39	262.11
746.71	261.68
747.04	261.23
747.37	260.85
747.70	260.45
748.03	260.10
748.36	259.68
748.68	259.30
749.01	259.00
749.34	258.51
749.67	258.25
750.00	257.86
750.33	257.67
750.65	257.46
750.98	256.85
751.31	256.44
751.64	256.17
751.97	255.99
752.29	255.76
752.62	255.36
752.95	255.13
753.28	254.85
753.60	254.46
753.93	254.28
754.26	253.99
754.59	253.62
754.91	253.20
755.24	253.01
755.57	252.63
755.90	252.43
756.22	252.30
756.55	252.05
756.88	251.84
757.20	251.54
757.53	251.28
757.86	251.02
758.19	250.94
758.51	250.68
758.84	250.30
759.17	250.08
759.49	249.85
759.82	249.67
760.15	249.52
760.47	249.42
760.80	249.08
761.13	248.98
761.45	248.86
761.78	248.68
762.11	248.49
762.43	248.42
762.76	248.22
763.08	248.08
763.41	247.82
763.74	247.63
764.06	247.40
764.39	247.06
764.71	246.91
765.04	246.62
765.37	246.29
765.69	246.10
766.02	245.91
766.34	245.76
766.67	245.41
767.00	245.09
767.32	244.92
767.65	244.92
767.97	244.67
768.30	244.48
768.62	244.44
768.95	244.23
769.27	244.07
769.60	243.84
769.92	243.57
770.25	243.30
770.57	242.98
770.90	242.78
771.22	242.79
771.55	242.57
771.87	242.40
772.20	242.25
772.52	242.23
772.85	242.35
773.17	242.21
773.50	242.21
773.82	241.96
774.15	241.75
774.47	241.47
774.80	241.33
775.12	241.09
775.45	240.87
775.77	240.61
776.09	240.36
776.42	240.14
776.74	239.92
777.07	239.86
777.39	239.86
777.72	239.74
778.04	239.51
778.36	239.34
778.69	239.16
779.01	238.97
779.33	238.62
779.66	238.11
779.98	237.90
780.31	237.67
780.63	237.71
780.95	237.62
781.28	237.39
781.60	237.23
781.92	237.15
782.25	237.01
782.57	236.87
782.89	236.80
783.22	236.67
783.54	236.61
783.86	236.49
784.19	236.26
784.51	236.20
784.83	236.06
785.16	235.99
785.48	235.81
785.80	235.84
786.12	235.82
786.45	235.79
786.77	235.62
787.09	235.55
787.42	235.38
787.74	235.28
788.06	235.25
788.38	235.18
788.71	235.08
789.03	234.97
789.35	235.01
789.67	234.94
789.99	234.90
790.32	234.79
790.64	234.80
790.96	234.93
791.28	234.83
791.61	234.75
791.93	234.64
792.25	234.73
792.57	234.66
792.89	234.45
793.21	234.41
793.54	234.45
793.86	234.40
794.18	234.49
794.50	234.34
794.82	234.26
795.14	234.21
795.47	234.27
795.79	234.31
796.11	234.20
796.43	234.16
796.75	234.17
797.07	234.20
797.39	234.12
797.71	233.96
798.04	233.95
798.36	233.91
798.68	234.00
799.00	234.01
799.32	233.93
799.64	233.96
799.96	233.98
800.28	234.04
800.60	234.02
800.92	233.93
801.24	233.92
801.56	233.93
801.89	233.91
802.21	233.93
802.53	233.85
802.85	233.82
803.17	233.96
803.49	233.86
803.81	233.84
804.13	233.82
804.45	233.85
804.77	233.82
805.09	233.75
805.41	233.72
805.73	233.60
806.05	233.62
806.37	233.62
806.69	233.52
807.01	233.39
807.33	233.30
807.65	233.21
807.97	233.24
808.28	233.31
808.60	233.30
808.92	233.25
809.24	233.29
809.56	233.26
809.88	233.12
810.20	233.15
810.52	233.13
810.84	233.08
811.16	233.03
811.48	232.88
811.80	232.93
812.12	232.74
812.43	232.75
812.75	232.64
813.07	232.66
813.39	232.62
813.71	232.55
814.03	232.46
814.35	232.35
814.67	232.22
814.98	232.06
815.30	231.96
815.62	231.83
815.94	231.69
816.26	231.77
816.58	231.57
816.89	231.57
817.21	231.41
817.53	231.35
817.85	231.25
818.17	231.32
818.48	231.22
818.80	231.21
819.12	231.09
819.44	230.99
819.76	230.80
820.07	230.72
820.39	230.72
820.71	230.82
821.03	230.81
821.34	230.75
821.66	230.73
821.98	230.73
822.30	230.63
822.61	230.62
822.93	230.41
823.25	230.42
823.57	230.26
823.88	230.24
824.20	230.10
824.52	229.97
824.83	229.84
825.15	229.84
825.47	229.88
825.79	229.93
826.10	229.87
826.42	229.89
826.74	229.90
827.05	229.87
827.37	229.74
827.69	229.68
828.00	229.72
828.32	229.65
828.64	229.53
828.95	229.59
829.27	229.61
829.58	229.59
829.90	229.62
830.22	229.69
830.53	229.63
830.85	229.62
831.17	229.67
831.48	229.68
831.80	229.60
832.11	229.55
832.43	229.45
832.75	229.55
833.06	229.67
833.38	229.60
833.69	229.60
834.01	229.61
834.32	229.65
834.64	229.59
834.96	229.66
835.27	229.70
835.59	229.70
835.90	229.66
836.22	229.70
836.53	229.71
836.85	229.64
837.16	229.86
837.48	229.95
837.79	229.96
838.11	229.94
838.42	229.92
838.74	230.01
839.05	230.05
839.37	230.05
839.68	230.04
840.00	230.07
840.31	230.22
840.63	230.24
840.94	230.20
841.26	230.33
841.57	230.30
841.88	230.29
842.20	230.26
842.51	230.25
842.83	230.35
843.14	230.51
843.46	230.64
843.77	230.54
844.08	230.47
844.40	230.52
844.71	230.65
845.03	230.63
845.34	230.57
845.65	230.58
845.97	230.59
846.28	230.56
846.60	230.69
846.91	230.57
847.22	230.53
847.54	230.65
847.85	230.60
848.16	230.64
848.48	230.63
848.79	230.69
849.10	230.61
849.42	230.50
849.73	230.33
850.04	230.20
850.36	230.13
850.67	230.22
850.98	230.16
851.30	230.01
851.61	230.03
851.92	230.04
852.23	230.05
852.55	230.06
852.86	230.04
853.17	229.94
853.49	229.87
853.80	229.83
854.11	229.77
854.42	229.66
854.74	229.58
855.05	229.61
855.36	229.44
855.67	229.42
855.99	229.38
856.30	229.47
856.61	229.51
856.92	229.49
857.23	229.45
857.55	229.48
857.86	229.51
858.17	229.48
858.48	229.28
858.79	229.19
859.11	229.14
859.42	228.99
859.73	228.88
860.04	228.85
860.35	228.78
860.66	228.60
860.98	228.56
861.29	228.52
861.60	228.43
861.91	228.47
862.22	228.49
862.53	228.40
862.84	228.21
863.16	228.07
863.47	227.99
863.78	227.95
864.09	227.82
864.40	227.89
864.71	227.88
865.02	227.92
865.33	227.94
865.64	227.81
865.95	227.95
866.27	228.11
866.58	228.15
866.89	228.13
867.20	228.15
867.51	228.23
867.82	228.20
868.13	228.28
868.44	228.34
868.75	228.36
869.06	228.39
869.37	228.36
869.68	228.40
869.99	228.48
870.30	228.50
870.61	228.52
870.92	228.41
871.23	228.42
871.54	228.50
871.85	228.56
872.16	228.72
872.47	228.65
872.78	228.58
873.09	228.62
873.40	228.71
873.71	228.84
874.02	228.87
874.33	228.99
874.64	228.90
874.95	228.95
875.26	228.97
875.56	228.96
875.87	229.10
876.18	229.17
876.49	229.39
876.80	229.41
877.11	229.51
877.42	229.58
877.73	229.61
878.04	229.74
878.35	229.78
878.66	229.80
878.96	229.87
879.27	229.80
879.58	229.74
879.89	229.78
880.20	229.94
880.51	230.01
880.82	229.96
881.12	230.07
881.43	229.98
881.74	229.98
882.05	230.05
882.36	229.99
882.67	230.00
882.97	229.81
883.28	229.84
883.59	229.80
883.90	229.89
884.21	229.97
884.51	229.92
884.82	229.92
885.13	229.93
885.44	229.84
885.74	229.87
886.05	229.94
886.36	230.00
886.67	229.85
886.98	229.87
887.28	229.86
887.59	229.77
887.90	229.83
888.20	229.75
888.51	229.80
888.82	229.67
889.13	229.65
889.43	229.79
889.74	229.72
890.05	229.64
890.35	229.60
890.66	229.46
890.97	229.29
891.28	229.10
891.58	229.01
891.89	228.99
892.20	228.85
892.50	228.80
892.81	228.62
893.12	228.56
893.42	228.40
893.73	228.46
894.04	228.44
894.34	228.35
894.65	228.27
894.95	228.17
895.26	228.27
895.57	228.30
895.87	228.01
896.18	228.01
896.48	227.95
896.79	227.84
897.10	227.90
897.40	227.87
897.71	227.85
898.01	227.82
898.32	227.89
898.63	227.93
898.93	227.78
899.24	227.74
899.54	227.65
899.85	227.64
900.15	227.51
900.46	227.55
900.76	227.57
901.07	227.60
901.38	227.54
901.68	227.47
901.99	227.38
902.29	227.42
902.60	227.45
902.90	227.55
903.21	227.50
903.51	227.45
903.82	227.48
904.12	227.58
904.43	227.70
904.73	227.64
905.03	227.71
905.34	227.96
905.64	228.05
905.95	228.06
906.25	228.02
906.56	228.06
906.86	228.00
907.17	227.88
907.47	227.91
907.77	228.01
908.08	228.08
908.38	228.03
908.69	228.01
908.99	228.07
909.30	228.11
909.60	228.24
909.90	228.25
910.21	228.38
910.51	228.37
910.81	228.22
911.12	228.26
911.42	228.27
911.73	228.23
912.03	228.26
912.33	228.43
912.64	228.47
912.94	228.47
913.24	228.55
913.55	228.70
913.85	228.74
914.15	228.81
914.46	228.89
914.76	229.04
915.06	229.14
915.37	229.17
915.67	229.17
915.97	229.10
916.27	229.12
916.58	229.05
916.88	229.12
917.18	229.15
917.49	229.32
917.79	229.31
918.09	229.25
918.39	229.38
918.70	229.29
919.00	229.30
919.30	229.43
919.60	229.39
919.91	229.44
920.21	229.43
920.51	229.43
920.81	229.36
921.12	229.33
921.42	229.33
921.72	229.25
922.02	229.32
922.32	229.28
922.63	229.34
922.93	229.48
923.23	229.41
923.53	229.46
923.83	229.29
924.13	229.28
924.44	229.37
924.74	229.30
925.04	229.31
925.34	229.35
925.64	229.30
925.94	229.27
926.24	229.24
926.55	229.23
926.85	229.19
927.15	229.21
927.45	229.09
927.75	229.07
928.05	229.05
928.35	228.94
928.65	229.04
928.95	229.01
929.26	228.88
929.56	228.90
929.86	228.87
930.16	228.90
930.46	228.83
930.76	228.78
931.06	228.61
931.36	228.54
931.66	228.52
931.96	228.47
932.26	228.52
932.56	228.52
932.86	228.45
933.16	228.34
933.46	228.24
933.76	228.21
934.06	228.25
934.36	228.29
934.66	228.28
934.96	228.24
935.26	228.22
935.56	228.23
935.86	228.15
936.16	228.16
936.46	228.00
936.76	228.01
937.06	227.95
937.36	228.01
937.66	227.98
937.96	227.90
938.26	227.90
938.56	227.95
938.86	227.90
939.16	228.00
939.46	228.00
939.76	228.03
940.06	228.11
940.35	227.99
940.65	227.82
940.95	227.82
941.25	227.76
941.55	227.64
941.85	227.59
942.15	227.64
942.45	227.67
942.75	227.82
943.04	227.83
943.34	227.90
943.64	227.89
943.94	227.90
944.24	227.94
944.54	227.94
944.84	227.82
945.13	227.87
945.43	227.84
945.73	227.85
946.03	227.90
946.33	227.93
946.62	228.03
946.92	228.09
947.22	228.12
947.52	228.23
947.82	228.34
948.11	228.42
948.41	228.46
948.71	228.52
949.01	228.50
949.31	228.53
949.60	228.45
949.90	228.50
950.20	228.60
950.50	228.60
950.79	228.71
951.09	228.81
951.39	228.70
951.69	228.74
951.98	228.87
952.28	228.80
952.58	228.83
952.87	228.82
953.17	228.96
953.47	229.00
953.76	228.95
954.06	229.02
954.36	228.99
954.66	229.04
954.95	229.14
955.25	229.12
955.55	229.19
955.84	229.24
956.14	229.32
956.44	229.27
956.73	229.26
957.03	229.11
957.32	229.10
957.62	229.17
957.92	229.24
958.21	229.30
958.51	229.65
958.81	229.73
959.10	229.76
959.40	229.72
959.69	229.65
959.99	229.69
960.29	229.62
960.58	229.60
960.88	229.61
961.17	229.40
961.47	229.32
961.76	229.27
962.06	229.26
962.36	229.11
962.65	229.14
962.95	229.15
963.24	229.30
963.54	229.24
963.83	229.24
964.13	229.19
964.42	229.08
964.72	228.82
965.01	228.70
965.31	228.62
965.60	228.57
965.90	228.65
966.19	228.60
966.49	228.58
966.78	228.58
967.08	228.46
967.37	228.54
967.67	228.63
967.96	228.70
968.26	228.67
968.55	228.73
968.85	228.67
969.14	228.63
969.43	228.48
969.73	228.50
970.02	228.38
970.32	228.24
970.61	228.19
970.91	228.07
971.20	228.03
971.49	228.01
971.79	228.04
972.08	227.87
972.38	227.80
972.67	227.72
972.96	227.76
973.26	227.72
973.55	227.61
973.85	227.63
974.14	227.56
974.43	227.61
974.73	227.49
975.02	227.50
975.31	227.43
975.61	227.41
975.90	227.40
976.19	227.47
976.49	227.61
976.78	227.61
977.07	227.67
977.37	227.58
977.66	227.65
977.95	227.61
978.24	227.60
978.54	227.64
978.83	227.66
979.12	227.58
979.42	227.64
979.71	227.72
980.00	227.70
980.29	227.78
980.59	227.68
980.88	227.75
981.17	227.81
981.46	227.94
981.76	228.00
982.05	228.02
982.34	228.05
982.63	228.06
982.93	228.10
983.22	228.16
983.51	228.36
983.80	228.41
984.09	228.48
984.39	228.53
984.68	228.59
984.97	228.63
985.26	228.72
985.55	228.77
985.85	228.83
986.14	228.87
986.43	228.83
986.72	228.89
987.01	228.92
987.30	228.95
987.59	228.92
987.89	228.91
988.18	228.93
988.47	228.95
988.76	228.91
989.05	228.91
989.34	228.92
989.63	228.90
989.92	228.89
990.22	228.89
990.51	228.97
990.80	228.93
991.09	229.04
991.38	229.01
991.67	229.01
991.96	228.96
992.25	228.86
992.54	228.74
992.83	228.77
993.12	228.71
993.41	228.64
993.70	228.68
993.99	228.73
994.28	228.73
994.58	228.78
994.87	228.71
995.16	228.68
995.45	228.55
995.74	228.45
996.03	228.43
996.32	228.53
996.61	228.53
996.90	228.53
997.19	228.38
997.48	228.40
997.77	228.26
998.06	228.30
998.34	228.32
998.63	228.42
998.92	228.40
999.21	228.39
999.50	228.42
999.79	228.31
1000.08	228.26
1000.37	228.20
1000.66	228.08
1000.95	228.11
1001.24	228.21
1001.53	228.32
1001.82	228.36
1002.11	228.30
1002.40	228.22
1002.68	228.27
1002.97	228.38
1003.26	228.36
1003.55	228.30
1003.84	228.30
1004.13	228.25
1004.42	228.27
1004.71	228.24
1004.99	228.22
1005.28	228.32
1005.57	228.24
1005.86	228.25
1006.15	228.16
1006.44	228.15
1006.72	228.16
1007.01	227.97
1007.30	227.82
1007.59	227.72
1007.88	227.70
1008.17	227.65
1008.45	227.69
1008.74	227.53
1009.03	227.40
1009.32	227.46
1009.60	227.43
1009.89	227.45
1010.18	227.42
1010.47	227.41
1010.76	227.44
1011.04	227.48
1011.33	227.69
1011.62	227.68
1011.91	227.67
1012.19	227.70
1012.48	227.74
1012.77	227.73
1013.05	228.00
1013.34	227.94
1013.63	228.00
1013.92	228.04
1014.20	228.01
1014.49	227.91
1014.78	228.01
1015.06	228.00
1015.35	228.01
1015.64	228.12
1015.92	228.19
1016.21	228.23
1016.50	228.21
1016.78	228.32
1017.07	228.33
1017.36	228.18
1017.64	228.28
1017.93	228.29
1018.22	228.38
1018.50	228.38
1018.79	228.36
1019.08	228.28
1019.36	228.45
1019.65	228.45
1019.93	228.46
1020.22	228.52
1020.51	228.64
1020.79	228.61
1021.08	229.00
1021.36	227.90
1021.65	227.20
1021.94	228.30
1022.22	229.10
1022.51	228.00
1022.79	228.80
1023.08	227.70
1023.36	230.80
1023.65	228.30
>>>>>End Processed Spectral Data<<<<<
