SpectraSuite Data File
++++++++++++++++++++++++++++++++++++
Date: Fri Feb 01 14:41:19 EST 2013
User: group
Dark Spectrum Present: No
Reference Spectrum Present: No
Number of Sampled Component Spectra: 1
Spectrometers: USB2E7196
Integration Time (usec): 70000 (USB2E7196)
Spectra Averaged: 10 (USB2E7196)
Boxcar Smoothing: 10 (USB2E7196)
Correct for Electrical Dark: No (USB2E7196)
Strobe/Lamp Enabled: No (USB2E7196)
Correct for Detector Non-linearity: No (USB2E7196)
Correct for Stray Light: No (USB2E7196)
Number of Pixels in Processed Spectrum: 2048
>>>>>Begin Processed Spectral Data<<<<<
339.09	0.00
339.48	216.90
339.86	218.90
340.24	217.90
340.63	219.60
341.01	224.10
341.39	224.40
341.78	223.10
342.16	226.70
342.54	224.50
342.93	214.70
343.31	225.61
343.69	226.12
344.07	226.50
344.46	227.02
344.84	227.50
345.22	227.78
345.60	227.91
345.99	228.16
346.37	228.30
346.75	228.44
347.13	228.49
347.52	228.61
347.90	228.65
348.28	228.64
348.66	228.60
349.05	228.57
349.43	228.74
349.81	228.87
350.19	228.95
350.57	229.00
350.96	229.12
351.34	229.15
351.72	229.24
352.10	229.30
352.48	229.35
352.87	229.34
353.25	229.36
353.63	229.45
354.01	229.64
354.39	229.70
354.77	229.90
355.15	229.97
355.54	229.93
355.92	229.93
356.30	230.12
356.68	230.30
357.06	230.35
357.44	230.35
357.82	230.37
358.20	230.46
358.58	230.52
358.97	230.58
359.35	230.66
359.73	230.79
360.11	230.88
360.49	230.92
360.87	230.98
361.25	230.93
361.63	231.03
362.01	230.91
362.39	230.92
362.77	230.92
363.15	230.99
363.53	231.05
363.91	231.03
364.29	231.00
364.67	230.90
365.05	230.91
365.43	230.90
365.81	230.86
366.19	230.95
366.57	231.03
366.95	230.96
367.33	230.87
367.71	230.82
368.09	230.90
368.47	230.86
368.85	230.84
369.23	230.94
369.61	230.85
369.99	230.96
370.37	230.96
370.75	231.01
371.13	230.89
371.51	230.79
371.89	230.85
372.27	230.76
372.65	230.74
373.03	230.73
373.41	230.75
373.78	230.71
374.16	230.49
374.54	230.27
374.92	230.22
375.30	230.22
375.68	230.08
376.06	229.95
376.44	229.88
376.82	229.83
377.19	229.74
377.57	229.67
377.95	229.41
378.33	229.29
378.71	229.10
379.09	229.17
379.47	229.08
379.84	228.93
380.22	228.92
380.60	228.69
380.98	228.50
381.36	228.44
381.73	228.26
382.11	228.32
382.49	228.39
382.87	228.20
383.25	228.08
383.62	228.32
384.00	228.20
384.38	228.22
384.76	228.20
385.13	228.21
385.51	228.11
385.89	228.10
386.27	228.04
386.64	227.92
387.02	227.80
387.40	227.77
387.78	227.75
388.15	227.55
388.53	227.51
388.91	227.55
389.29	227.39
389.66	227.43
390.04	227.30
390.42	227.23
390.79	227.30
391.17	227.31
391.55	227.13
391.92	227.18
392.30	227.22
392.68	227.18
393.05	227.18
393.43	227.23
393.81	227.33
394.18	227.36
394.56	227.41
394.94	227.52
395.31	227.48
395.69	227.64
396.06	227.87
396.44	227.94
396.82	228.05
397.19	228.20
397.57	228.23
397.95	228.34
398.32	228.38
398.70	228.52
399.07	228.56
399.45	228.52
399.82	228.58
400.20	228.53
400.58	228.58
400.95	228.54
401.33	228.60
401.70	228.87
402.08	228.93
402.45	229.01
402.83	229.02
403.20	229.19
403.58	229.17
403.95	229.28
404.33	229.49
404.71	229.50
405.08	229.76
405.46	230.01
405.83	230.18
406.21	230.38
406.58	230.64
406.96	230.89
407.33	231.06
407.70	231.24
408.08	231.65
408.45	231.90
408.83	232.16
409.20	232.56
409.58	232.59
409.95	232.94
410.33	233.40
410.70	233.69
411.08	234.00
411.45	234.50
411.82	234.88
412.20	235.29
412.57	235.79
412.95	236.00
413.32	236.50
413.69	236.96
414.07	237.45
414.44	237.81
414.82	238.34
415.19	239.10
415.56	239.70
415.94	240.27
416.31	241.08
416.68	241.90
417.06	242.70
417.43	243.63
417.81	244.48
418.18	245.35
418.55	246.37
418.93	247.51
419.30	248.49
419.67	249.58
420.04	250.69
420.42	251.79
420.79	253.37
421.16	254.77
421.54	256.23
421.91	257.64
422.28	259.26
422.66	260.94
423.03	262.62
423.40	264.36
423.77	266.08
424.15	267.80
424.52	269.52
424.89	271.54
425.26	273.38
425.64	275.17
426.01	277.10
426.38	279.13
426.75	281.22
427.13	283.36
427.50	285.56
427.87	287.94
428.24	290.26
428.61	292.28
428.99	294.76
429.36	297.39
429.73	299.92
430.10	302.43
430.47	304.92
430.85	307.31
431.22	309.95
431.59	312.83
431.96	315.56
432.33	318.55
432.70	321.37
433.08	324.70
433.45	327.96
433.82	331.01
434.19	334.44
434.56	337.90
434.93	341.02
435.30	344.05
435.68	347.41
436.05	350.85
436.42	354.05
436.79	357.01
437.16	360.25
437.53	363.76
437.90	367.06
438.27	370.34
438.64	373.81
439.01	377.06
439.38	379.79
439.75	382.32
440.13	385.40
440.50	388.10
440.87	390.39
441.24	392.74
441.61	395.42
441.98	397.20
442.35	399.13
442.72	401.43
443.09	403.64
443.46	404.98
443.83	405.67
444.20	406.48
444.57	407.27
444.94	407.44
445.31	407.64
445.68	408.23
446.05	408.39
446.42	407.75
446.79	407.00
447.16	406.53
447.53	406.12
447.90	404.74
448.27	403.32
448.64	401.36
449.01	399.83
449.37	397.41
449.74	395.12
450.11	392.46
450.48	389.41
450.85	386.48
451.22	383.80
451.59	381.40
451.96	378.92
452.33	375.80
452.70	373.01
453.07	369.59
453.43	365.85
453.80	362.34
454.17	359.22
454.54	356.37
454.91	352.88
455.28	349.65
455.65	346.59
456.02	343.76
456.38	341.19
456.75	338.10
457.12	335.36
457.49	332.68
457.86	329.95
458.23	327.70
458.59	325.07
458.96	322.45
459.33	320.14
459.70	317.85
460.07	316.02
460.43	313.89
460.80	312.04
461.17	310.36
461.54	308.59
461.91	306.84
462.27	304.88
462.64	303.33
463.01	301.69
463.38	300.01
463.74	298.24
464.11	296.66
464.48	295.27
464.85	293.76
465.21	292.67
465.58	291.69
465.95	290.35
466.32	289.28
466.68	288.13
467.05	286.97
467.42	285.98
467.78	284.86
468.15	283.84
468.52	282.92
468.88	281.71
469.25	280.68
469.62	279.84
469.98	279.05
470.35	278.25
470.72	277.47
471.08	276.66
471.45	275.90
471.82	275.26
472.18	274.56
472.55	274.17
472.92	273.42
473.28	272.63
473.65	272.01
474.02	271.34
474.38	270.83
474.75	270.34
475.11	269.76
475.48	269.26
475.85	268.72
476.21	268.33
476.58	267.94
476.94	267.61
477.31	267.26
477.67	266.94
478.04	266.74
478.41	266.50
478.77	266.46
479.14	266.28
479.50	266.11
479.87	265.85
480.23	265.65
480.60	265.51
480.96	265.39
481.33	265.31
481.69	265.28
482.06	265.27
482.42	265.19
482.79	265.34
483.15	265.44
483.52	265.78
483.88	265.86
484.25	266.00
484.61	266.32
484.98	266.52
485.34	266.95
485.71	267.25
486.07	267.66
486.44	268.02
486.80	268.39
487.17	268.80
487.53	269.49
487.90	270.09
488.26	270.93
488.62	271.88
488.99	272.73
489.35	273.65
489.72	274.50
490.08	275.66
490.44	276.50
490.81	277.62
491.17	278.65
491.54	279.91
491.90	281.39
492.26	282.64
492.63	284.01
492.99	285.46
493.36	287.02
493.72	288.57
494.08	290.13
494.45	292.12
494.81	294.27
495.17	296.38
495.54	298.70
495.90	300.99
496.26	303.36
496.63	305.90
496.99	308.66
497.35	311.52
497.72	314.36
498.08	317.49
498.44	320.73
498.80	324.20
499.17	327.72
499.53	331.39
499.89	335.30
500.26	339.48
500.62	343.51
500.98	347.85
501.34	352.55
501.71	357.42
502.07	362.25
502.43	367.23
502.79	372.55
503.16	377.99
503.52	383.58
503.88	389.37
504.24	395.60
504.60	401.79
504.97	408.41
505.33	415.28
505.69	422.58
506.05	429.85
506.41	437.41
506.78	445.12
507.14	452.93
507.50	461.24
507.86	469.63
508.22	478.53
508.59	487.68
508.95	496.95
509.31	506.45
509.67	516.50
510.03	526.48
510.39	536.73
510.75	547.15
511.12	558.04
511.48	569.12
511.84	580.37
512.20	591.90
512.56	603.92
512.92	615.88
513.28	627.98
513.64	640.45
514.00	653.18
514.37	666.45
514.73	679.86
515.09	693.38
515.45	707.20
515.81	721.30
516.17	735.50
516.53	750.10
516.89	764.79
517.25	779.39
517.61	794.56
517.97	809.66
518.33	825.11
518.69	840.91
519.05	856.86
519.41	873.02
519.77	889.80
520.13	906.30
520.49	923.35
520.85	940.45
521.21	957.51
521.57	975.03
521.93	991.70
522.29	1009.43
522.65	1026.98
523.01	1044.47
523.37	1061.52
523.73	1079.78
524.09	1097.62
524.45	1116.14
524.81	1134.65
525.17	1153.35
525.53	1172.32
525.89	1191.02
526.25	1209.70
526.61	1228.41
526.97	1247.38
527.33	1266.20
527.68	1285.25
528.04	1303.86
528.40	1322.71
528.76	1342.61
529.12	1361.82
529.48	1381.55
529.84	1400.29
530.20	1419.81
530.56	1440.02
530.91	1460.59
531.27	1479.81
531.63	1499.57
531.99	1518.71
532.35	1537.67
532.71	1556.02
533.07	1575.41
533.42	1594.55
533.78	1613.79
534.14	1632.90
534.50	1651.18
534.86	1669.98
535.21	1688.04
535.57	1706.85
535.93	1725.37
536.29	1743.19
536.65	1761.49
537.00	1779.55
537.36	1798.15
537.72	1815.72
538.08	1832.84
538.44	1849.43
538.79	1867.06
539.15	1883.69
539.51	1901.09
539.87	1918.76
540.22	1936.21
540.58	1953.40
540.94	1969.50
541.29	1985.79
541.65	2001.85
542.01	2018.98
542.37	2034.97
542.72	2050.98
543.08	2066.71
543.44	2082.33
543.79	2096.90
544.15	2111.51
544.51	2127.13
544.87	2141.86
545.22	2156.28
545.58	2170.31
545.94	2184.08
546.29	2197.31
546.65	2210.49
547.01	2222.61
547.36	2234.87
547.72	2247.30
548.07	2259.12
548.43	2271.48
548.79	2283.14
549.14	2294.01
549.50	2304.50
549.86	2315.02
550.21	2325.34
550.57	2335.93
550.92	2345.74
551.28	2355.29
551.64	2364.63
551.99	2373.97
552.35	2382.75
552.70	2391.82
553.06	2401.71
553.41	2411.08
553.77	2419.78
554.13	2428.47
554.48	2437.66
554.84	2446.09
555.19	2453.81
555.55	2461.26
555.90	2468.63
556.26	2475.74
556.61	2483.88
556.97	2490.71
557.32	2497.43
557.68	2504.72
558.03	2511.13
558.39	2517.69
558.74	2525.99
559.10	2533.13
559.45	2539.13
559.81	2546.41
560.16	2552.31
560.52	2556.90
560.87	2562.89
561.23	2567.71
561.58	2573.05
561.94	2577.94
562.29	2582.11
562.64	2586.40
563.00	2590.73
563.35	2595.87
563.71	2601.21
564.06	2606.06
564.42	2610.83
564.77	2615.27
565.12	2619.71
565.48	2623.99
565.83	2627.32
566.19	2630.30
566.54	2632.20
566.89	2635.09
567.25	2637.13
567.60	2640.28
567.96	2643.08
568.31	2644.77
568.66	2646.80
569.02	2649.00
569.37	2650.06
569.72	2651.65
570.08	2653.36
570.43	2654.61
570.78	2654.99
571.14	2654.20
571.49	2653.68
571.84	2654.26
572.20	2653.90
572.55	2652.81
572.90	2650.87
573.26	2650.60
573.61	2649.20
573.96	2648.85
574.31	2646.24
574.67	2643.19
575.02	2640.31
575.37	2637.83
575.72	2634.73
576.08	2632.65
576.43	2629.60
576.78	2627.23
577.13	2624.87
577.49	2622.10
577.84	2618.53
578.19	2615.20
578.54	2611.79
578.90	2607.75
579.25	2602.24
579.60	2597.79
579.95	2592.76
580.30	2588.11
580.66	2582.79
581.01	2577.38
581.36	2571.60
581.71	2567.32
582.06	2562.43
582.42	2556.93
582.77	2551.40
583.12	2545.77
583.47	2540.15
583.82	2534.89
584.17	2528.64
584.53	2522.92
584.88	2517.04
585.23	2511.58
585.58	2505.87
585.93	2500.02
586.28	2494.73
586.63	2489.80
586.98	2484.08
587.34	2478.97
587.69	2473.53
588.04	2467.79
588.39	2462.12
588.74	2455.41
589.09	2448.31
589.44	2441.60
589.79	2435.55
590.14	2429.47
590.49	2423.34
590.84	2417.04
591.19	2410.18
591.54	2402.40
591.89	2393.79
592.25	2386.21
592.60	2377.41
592.95	2368.86
593.30	2361.24
593.65	2352.60
594.00	2344.57
594.35	2337.33
594.70	2328.13
595.05	2320.10
595.40	2311.79
595.75	2303.22
596.10	2295.80
596.45	2288.96
596.80	2282.01
597.15	2274.29
597.50	2266.51
597.85	2259.20
598.19	2251.23
598.54	2243.27
598.89	2236.42
599.24	2230.55
599.59	2223.44
599.94	2216.87
600.29	2209.96
600.64	2201.86
600.99	2193.51
601.34	2185.40
601.69	2176.57
602.04	2169.71
602.39	2161.93
602.74	2154.78
603.08	2147.60
603.43	2140.51
603.78	2132.45
604.13	2124.54
604.48	2116.49
604.83	2108.14
605.18	2100.09
605.53	2090.79
605.87	2081.82
606.22	2073.80
606.57	2064.32
606.92	2055.58
607.27	2047.49
607.62	2039.36
607.96	2031.66
608.31	2024.59
608.66	2016.04
609.01	2007.39
609.36	1997.92
609.70	1988.37
610.05	1978.36
610.40	1968.67
610.75	1958.49
611.10	1948.42
611.44	1938.13
611.79	1928.72
612.14	1919.22
612.49	1908.46
612.83	1899.03
613.18	1889.60
613.53	1879.99
613.88	1869.80
614.22	1859.91
614.57	1849.38
614.92	1839.35
615.27	1829.74
615.61	1819.15
615.96	1809.41
616.31	1800.39
616.65	1792.00
617.00	1783.30
617.35	1774.36
617.70	1764.81
618.04	1755.80
618.39	1746.67
618.74	1737.83
619.08	1728.35
619.43	1719.11
619.78	1710.82
620.12	1702.29
620.47	1693.34
620.82	1683.90
621.16	1675.43
621.51	1666.57
621.85	1657.70
622.20	1647.93
622.55	1638.56
622.89	1629.87
623.24	1621.10
623.59	1612.55
623.93	1603.84
624.28	1595.00
624.62	1586.17
624.97	1578.21
625.32	1569.77
625.66	1561.71
626.01	1553.10
626.35	1544.30
626.70	1535.84
627.04	1527.42
627.39	1518.30
627.73	1509.52
628.08	1500.98
628.43	1492.10
628.77	1483.43
629.12	1474.69
629.46	1466.25
629.81	1456.84
630.15	1447.74
630.50	1438.77
630.84	1428.97
631.19	1419.12
631.53	1409.90
631.88	1400.41
632.22	1390.40
632.57	1381.66
632.91	1372.14
633.26	1363.20
633.60	1354.06
633.95	1345.06
634.29	1336.19
634.64	1328.45
634.98	1319.58
635.32	1311.39
635.67	1303.37
636.01	1295.50
636.36	1287.24
636.70	1279.48
637.05	1272.25
637.39	1264.95
637.73	1257.17
638.08	1250.00
638.42	1242.65
638.77	1235.13
639.11	1227.99
639.45	1220.70
639.80	1212.69
640.14	1205.23
640.49	1197.70
640.83	1190.20
641.17	1183.00
641.52	1175.31
641.86	1167.05
642.20	1160.06
642.55	1151.98
642.89	1144.43
643.23	1136.66
643.58	1129.87
643.92	1122.22
644.26	1114.51
644.61	1107.39
644.95	1099.95
645.29	1091.75
645.64	1083.77
645.98	1076.17
646.32	1068.97
646.66	1061.48
647.01	1054.07
647.35	1046.99
647.69	1039.68
648.04	1032.91
648.38	1025.29
648.72	1017.46
649.06	1010.24
649.41	1003.04
649.75	995.79
650.09	988.34
650.43	980.91
650.78	972.82
651.12	965.50
651.46	958.49
651.80	950.80
652.14	944.07
652.49	937.39
652.83	930.93
653.17	924.08
653.51	916.80
653.85	910.04
654.20	903.17
654.54	895.85
654.88	888.69
655.22	881.32
655.56	874.37
655.90	868.07
656.25	861.18
656.59	854.33
656.93	848.01
657.27	842.06
657.61	835.43
657.95	829.54
658.29	823.49
658.64	817.02
658.98	810.84
659.32	804.03
659.66	797.80
660.00	791.62
660.34	785.51
660.68	779.70
661.02	773.60
661.36	767.95
661.70	762.47
662.05	757.34
662.39	752.31
662.73	746.86
663.07	741.49
663.41	736.42
663.75	731.33
664.09	725.99
664.43	720.40
664.77	715.29
665.11	710.28
665.45	705.35
665.79	700.41
666.13	695.25
666.47	690.59
666.81	685.68
667.15	680.51
667.49	675.81
667.83	671.13
668.17	666.58
668.51	661.85
668.85	657.12
669.19	652.40
669.53	647.65
669.87	643.23
670.21	638.92
670.55	634.53
670.89	630.46
671.23	626.54
671.57	622.26
671.91	618.29
672.25	613.76
672.58	609.64
672.92	605.61
673.26	601.83
673.60	598.00
673.94	594.32
674.28	590.83
674.62	587.13
674.96	583.20
675.30	579.53
675.64	575.81
675.97	572.16
676.31	568.82
676.65	565.44
676.99	561.96
677.33	558.32
677.67	554.78
678.01	550.98
678.34	547.29
678.68	544.09
679.02	540.77
679.36	537.55
679.70	534.03
680.04	530.68
680.37	527.20
680.71	523.97
681.05	520.80
681.39	517.65
681.73	514.44
682.06	511.53
682.40	508.61
682.74	505.60
683.08	502.68
683.42	499.38
683.75	496.40
684.09	493.49
684.43	490.73
684.77	488.07
685.10	485.19
685.44	482.40
685.78	479.50
686.12	476.50
686.45	473.79
686.79	471.08
687.13	468.55
687.46	465.82
687.80	463.03
688.14	460.12
688.48	457.46
688.81	454.83
689.15	452.24
689.49	449.53
689.82	447.08
690.16	444.47
690.50	442.07
690.83	439.55
691.17	437.00
691.51	434.44
691.84	431.87
692.18	429.37
692.52	426.79
692.85	424.36
693.19	422.07
693.52	419.68
693.86	417.16
694.20	414.65
694.53	412.48
694.87	410.20
695.21	408.08
695.54	405.84
695.88	403.52
696.21	401.13
696.55	399.18
696.88	396.88
697.22	394.96
697.56	392.98
697.89	390.97
698.23	389.01
698.56	386.88
698.90	384.76
699.23	382.75
699.57	380.86
699.90	378.90
700.24	376.90
700.58	375.06
700.91	373.37
701.25	371.64
701.58	370.14
701.92	368.39
702.25	366.60
702.59	364.87
702.92	363.26
703.26	361.76
703.59	360.11
703.93	358.82
704.26	357.16
704.60	355.48
704.93	353.90
705.26	352.20
705.60	350.92
705.93	349.69
706.27	348.36
706.60	347.08
706.94	345.76
707.27	344.35
707.61	342.94
707.94	341.64
708.27	340.35
708.61	338.70
708.94	337.36
709.28	336.27
709.61	335.16
709.94	334.00
710.28	332.68
710.61	331.41
710.95	329.92
711.28	328.78
711.61	327.63
711.95	326.44
712.28	325.32
712.61	324.00
712.95	322.76
713.28	321.70
713.61	320.49
713.95	319.37
714.28	318.31
714.61	317.29
714.95	316.29
715.28	315.18
715.61	314.10
715.95	313.11
716.28	311.95
716.61	310.82
716.95	309.83
717.28	308.92
717.61	307.85
717.94	307.01
718.28	305.98
718.61	304.96
718.94	304.03
719.27	303.16
719.61	302.37
719.94	301.49
720.27	300.53
720.60	299.78
720.94	299.00
721.27	298.24
721.60	297.49
721.93	296.67
722.27	295.97
722.60	295.26
722.93	294.53
723.26	293.82
723.59	293.25
723.93	292.52
724.26	291.83
724.59	291.14
724.92	290.52
725.25	289.83
725.59	289.18
725.92	288.60
726.25	287.91
726.58	287.23
726.91	286.65
727.24	286.08
727.57	285.38
727.91	284.60
728.24	283.98
728.57	283.28
728.90	282.58
729.23	281.81
729.56	281.35
729.89	280.77
730.22	280.18
730.55	279.51
730.89	278.84
731.22	278.20
731.55	277.58
731.88	276.88
732.21	276.50
732.54	275.94
732.87	275.31
733.20	274.71
733.53	274.15
733.86	273.59
734.19	272.92
734.52	272.54
734.85	272.22
735.18	271.57
735.51	271.26
735.84	270.81
736.17	270.47
736.50	269.89
736.83	269.51
737.16	269.05
737.49	268.50
737.82	268.02
738.15	267.59
738.48	267.23
738.81	266.76
739.14	266.17
739.47	265.76
739.80	265.26
740.13	264.88
740.46	264.45
740.79	263.98
741.12	263.59
741.45	263.03
741.78	262.48
742.11	262.27
742.44	261.67
742.77	261.26
743.10	260.77
743.43	260.37
743.75	259.78
744.08	259.65
744.41	259.29
744.74	259.10
745.07	258.69
745.40	258.43
745.73	258.21
746.06	257.89
746.39	257.67
746.71	257.38
747.04	257.05
747.37	256.65
747.70	256.41
748.03	256.11
748.36	255.79
748.68	255.60
749.01	255.23
749.34	254.98
749.67	254.70
750.00	254.47
750.33	254.36
750.65	254.20
750.98	253.63
751.31	253.44
751.64	253.04
751.97	252.91
752.29	252.61
752.62	252.25
752.95	251.90
753.28	251.48
753.60	251.26
753.93	251.06
754.26	250.90
754.59	250.57
754.91	250.30
755.24	250.16
755.57	249.84
755.90	249.60
756.22	249.31
756.55	249.18
756.88	248.91
757.20	248.56
757.53	248.26
757.86	248.17
758.19	247.97
758.51	247.79
758.84	247.50
759.17	247.19
759.49	246.97
759.82	246.92
760.15	246.70
760.47	246.52
760.80	246.24
761.13	246.10
761.45	245.89
761.78	245.84
762.11	245.44
762.43	245.24
762.76	244.97
763.08	244.79
763.41	244.55
763.74	244.35
764.06	244.09
764.39	243.90
764.71	243.62
765.04	243.38
765.37	243.12
765.69	242.92
766.02	242.77
766.34	242.58
766.67	242.37
767.00	242.25
767.32	242.12
767.65	242.18
767.97	241.98
768.30	241.84
768.62	241.55
768.95	241.45
769.27	241.24
769.60	241.26
769.92	241.08
770.25	240.86
770.57	240.69
770.90	240.58
771.22	240.34
771.55	240.13
771.87	239.95
772.20	239.82
772.52	239.81
772.85	239.90
773.17	239.91
773.50	239.70
773.82	239.70
774.15	239.39
774.47	238.99
774.80	238.68
775.12	238.51
775.45	238.43
775.77	238.35
776.09	238.27
776.42	237.98
776.74	237.90
777.07	237.74
777.39	237.59
777.72	237.41
778.04	237.36
778.36	237.36
778.69	237.19
779.01	237.16
779.33	236.87
779.66	236.45
779.98	236.16
780.31	236.01
780.63	235.82
780.95	235.83
781.28	235.78
781.60	235.79
781.92	235.64
782.25	235.55
782.57	235.50
782.89	235.52
783.22	235.50
783.54	235.39
783.86	235.33
784.19	235.21
784.51	235.15
784.83	235.03
785.16	234.86
785.48	234.93
785.80	234.89
786.12	234.87
786.45	234.83
786.77	234.88
787.09	234.90
787.42	234.77
787.74	234.69
788.06	234.65
788.38	234.60
788.71	234.57
789.03	234.47
789.35	234.42
789.67	234.21
789.99	234.20
790.32	234.15
790.64	234.10
790.96	234.33
791.28	234.33
791.61	234.29
791.93	234.26
792.25	234.13
792.57	234.23
792.89	234.22
793.21	234.20
793.54	234.12
793.86	234.05
794.18	234.05
794.50	234.04
794.82	233.99
795.14	234.02
795.47	234.02
795.79	233.97
796.11	233.92
796.43	233.93
796.75	233.81
797.07	233.81
797.39	233.86
797.71	233.65
798.04	233.58
798.36	233.57
798.68	233.55
799.00	233.54
799.32	233.43
799.64	233.41
799.96	233.47
800.28	233.47
800.60	233.42
800.92	233.40
801.24	233.28
801.56	233.26
801.89	233.10
802.21	233.12
802.53	233.09
802.85	233.08
803.17	233.11
803.49	233.03
803.81	232.90
804.13	232.74
804.45	232.75
804.77	232.80
805.09	232.81
805.41	232.78
805.73	232.69
806.05	232.48
806.37	232.47
806.69	232.39
807.01	232.35
807.33	232.31
807.65	232.18
807.97	232.30
808.28	232.26
808.60	232.36
808.92	232.23
809.24	232.40
809.56	232.32
809.88	232.26
810.20	232.35
810.52	232.41
810.84	232.41
811.16	232.31
811.48	232.20
811.80	232.20
812.12	232.17
812.43	232.20
812.75	232.25
813.07	232.15
813.39	232.15
813.71	232.10
814.03	232.05
814.35	232.05
814.67	231.92
814.98	231.84
815.30	231.80
815.62	231.75
815.94	231.48
816.26	231.58
816.58	231.44
816.89	231.40
817.21	231.33
817.53	231.33
817.85	231.36
818.17	231.35
818.48	231.19
818.80	231.11
819.12	230.97
819.44	230.80
819.76	230.71
820.07	230.65
820.39	230.52
820.71	230.59
821.03	230.56
821.34	230.52
821.66	230.54
821.98	230.42
822.30	230.41
822.61	230.39
822.93	230.16
823.25	230.15
823.57	230.03
823.88	230.06
824.20	230.03
824.52	229.93
824.83	229.94
825.15	229.96
825.47	230.02
825.79	230.10
826.10	230.09
826.42	230.10
826.74	230.10
827.05	230.15
827.37	230.02
827.69	230.05
828.00	230.03
828.32	230.01
828.64	230.04
828.95	230.24
829.27	230.36
829.58	230.48
829.90	230.47
830.22	230.43
830.53	230.40
830.85	230.35
831.17	230.27
831.48	230.29
831.80	230.29
832.11	230.32
832.43	230.21
832.75	230.34
833.06	230.50
833.38	230.44
833.69	230.46
834.01	230.43
834.32	230.46
834.64	230.49
834.96	230.58
835.27	230.54
835.59	230.40
835.90	230.35
836.22	230.33
836.53	230.40
836.85	230.51
837.16	230.71
837.48	230.74
837.79	230.92
838.11	230.85
838.42	230.83
838.74	230.79
839.05	230.90
839.37	230.80
839.68	230.60
840.00	230.56
840.31	230.57
840.63	230.48
840.94	230.32
841.26	230.22
841.57	230.12
841.88	230.12
842.20	230.11
842.51	230.03
842.83	230.03
843.14	230.14
843.46	230.06
843.77	229.94
844.08	229.86
844.40	229.72
844.71	229.62
845.03	229.60
845.34	229.61
845.65	229.45
845.97	229.40
846.28	229.40
846.60	229.50
846.91	229.51
847.22	229.68
847.54	229.80
847.85	229.82
848.16	229.83
848.48	229.76
848.79	229.77
849.10	229.84
849.42	229.65
849.73	229.43
850.04	229.43
850.36	229.32
850.67	229.39
850.98	229.41
851.30	229.53
851.61	229.46
851.92	229.38
852.23	229.56
852.55	229.67
852.86	229.71
853.17	229.62
853.49	229.61
853.80	229.54
854.11	229.56
854.42	229.48
854.74	229.39
855.05	229.40
855.36	229.40
855.67	229.34
855.99	229.44
856.30	229.73
856.61	229.74
856.92	229.74
857.23	229.74
857.55	229.72
857.86	229.66
858.17	229.79
858.48	229.80
858.79	229.61
859.11	229.65
859.42	229.59
859.73	229.61
860.04	229.53
860.35	229.54
860.66	229.38
860.98	229.47
861.29	229.57
861.60	229.60
861.91	229.53
862.22	229.47
862.53	229.45
862.84	229.08
863.16	229.14
863.47	229.18
863.78	229.14
864.09	229.11
864.40	229.18
864.71	229.11
865.02	229.07
865.33	229.22
865.64	229.12
865.95	229.16
866.27	229.25
866.58	229.26
866.89	229.17
867.20	229.26
867.51	229.29
867.82	229.19
868.13	229.22
868.44	229.23
868.75	229.27
869.06	229.24
869.37	229.34
869.68	229.18
869.99	229.15
870.30	229.16
870.61	229.23
870.92	229.14
871.23	229.10
871.54	229.13
871.85	229.10
872.16	229.17
872.47	229.06
872.78	229.00
873.09	228.99
873.40	229.07
873.71	229.07
874.02	229.03
874.33	229.09
874.64	229.09
874.95	229.07
875.26	229.13
875.56	229.15
875.87	229.14
876.18	229.21
876.49	229.30
876.80	229.24
877.11	229.18
877.42	229.22
877.73	229.20
878.04	229.15
878.35	229.16
878.66	229.17
878.96	229.16
879.27	229.12
879.58	229.13
879.89	229.11
880.20	229.13
880.51	229.03
880.82	228.99
881.12	228.97
881.43	228.88
881.74	228.76
882.05	228.71
882.36	228.69
882.67	228.70
882.97	228.57
883.28	228.57
883.59	228.44
883.90	228.48
884.21	228.47
884.51	228.38
884.82	228.37
885.13	228.25
885.44	228.28
885.74	228.28
886.05	228.29
886.36	228.21
886.67	228.06
886.98	228.18
887.28	228.26
887.59	228.13
887.90	228.15
888.20	228.20
888.51	228.25
888.82	228.19
889.13	228.13
889.43	228.22
889.74	228.12
890.05	228.10
890.35	228.05
890.66	228.17
890.97	228.25
891.28	228.13
891.58	228.14
891.89	228.11
892.20	228.21
892.50	228.08
892.81	228.10
893.12	228.07
893.42	228.03
893.73	227.98
894.04	228.08
894.34	228.11
894.65	228.02
894.95	227.95
895.26	227.90
895.57	228.06
895.87	227.96
896.18	228.10
896.48	228.20
896.79	228.19
897.10	228.21
897.40	228.22
897.71	228.27
898.01	228.31
898.32	228.41
898.63	228.22
898.93	228.40
899.24	228.40
899.54	228.59
899.85	228.55
900.15	228.65
900.46	228.57
900.76	228.64
901.07	228.75
901.38	228.79
901.68	228.97
901.99	228.83
902.29	228.80
902.60	228.70
902.90	228.74
903.21	228.76
903.51	228.66
903.82	228.75
904.12	228.83
904.43	228.92
904.73	228.92
905.03	229.00
905.34	229.14
905.64	229.15
905.95	229.11
906.25	229.15
906.56	229.18
906.86	229.22
907.17	229.22
907.47	229.21
907.77	229.26
908.08	229.24
908.38	229.29
908.69	229.27
908.99	229.32
909.30	229.35
909.60	229.35
909.90	229.36
910.21	229.29
910.51	229.25
910.81	229.19
911.12	229.29
911.42	229.30
911.73	229.06
912.03	229.12
912.33	229.12
912.64	229.20
912.94	229.11
913.24	229.16
913.55	229.10
913.85	229.12
914.15	229.24
914.46	229.17
914.76	229.17
915.06	229.20
915.37	229.23
915.67	229.27
915.97	229.25
916.27	229.23
916.58	229.26
916.88	229.22
917.18	229.11
917.49	229.11
917.79	229.08
918.09	229.13
918.39	229.24
918.70	229.25
919.00	229.18
919.30	229.20
919.60	229.14
919.91	229.12
920.21	229.09
920.51	228.91
920.81	228.93
921.12	228.92
921.42	228.85
921.72	228.81
922.02	228.66
922.32	228.61
922.63	228.57
922.93	228.63
923.23	228.63
923.53	228.74
923.83	228.60
924.13	228.56
924.44	228.64
924.74	228.51
925.04	228.49
925.34	228.44
925.64	228.36
925.94	228.49
926.24	228.55
926.55	228.50
926.85	228.54
927.15	228.50
927.45	228.46
927.75	228.48
928.05	228.48
928.35	228.52
928.65	228.54
928.95	228.58
929.26	228.44
929.56	228.46
929.86	228.46
930.16	228.47
930.46	228.59
930.76	228.51
931.06	228.48
931.36	228.34
931.66	228.31
931.96	228.32
932.26	228.18
932.56	228.20
932.86	228.24
933.16	228.29
933.46	228.29
933.76	228.28
934.06	228.40
934.36	228.45
934.66	228.40
934.96	228.35
935.26	228.38
935.56	228.40
935.86	228.40
936.16	228.40
936.46	228.44
936.76	228.37
937.06	228.25
937.36	228.21
937.66	228.39
937.96	228.48
938.26	228.50
938.56	228.59
938.86	228.57
939.16	228.57
939.46	228.58
939.76	228.53
940.06	228.58
940.35	228.50
940.65	228.54
940.95	228.54
941.25	228.60
941.55	228.56
941.85	228.59
942.15	228.49
942.45	228.47
942.75	228.39
943.04	228.39
943.34	228.55
943.64	228.55
943.94	228.44
944.24	228.42
944.54	228.35
944.84	228.32
945.13	228.28
945.43	228.23
945.73	228.16
946.03	228.27
946.33	228.21
946.62	228.22
946.92	228.18
947.22	228.33
947.52	228.34
947.82	228.34
948.11	228.32
948.41	228.40
948.71	228.34
949.01	228.45
949.31	228.40
949.60	228.30
949.90	228.40
950.20	228.48
950.50	228.47
950.79	228.48
951.09	228.45
951.39	228.50
951.69	228.56
951.98	228.56
952.28	228.55
952.58	228.62
952.87	228.62
953.17	228.58
953.47	228.49
953.76	228.45
954.06	228.36
954.36	228.34
954.66	228.33
954.95	228.39
955.25	228.35
955.55	228.39
955.84	228.37
956.14	228.27
956.44	228.26
956.73	228.11
957.03	228.15
957.32	228.17
957.62	228.08
957.92	228.12
958.21	228.14
958.51	228.25
958.81	228.17
959.10	228.15
959.40	228.20
959.69	228.21
959.99	228.34
960.29	228.46
960.58	228.38
960.88	228.49
961.17	228.45
961.47	228.49
961.76	228.54
962.06	228.69
962.36	228.69
962.65	228.65
962.95	228.70
963.24	228.69
963.54	228.72
963.83	228.80
964.13	228.66
964.42	228.66
964.72	228.64
965.01	228.75
965.31	228.76
965.60	228.62
965.90	228.79
966.19	228.66
966.49	228.61
966.78	228.80
967.08	228.64
967.37	228.73
967.67	228.62
967.96	228.57
968.26	228.52
968.55	228.56
968.85	228.48
969.14	228.50
969.43	228.47
969.73	228.44
970.02	228.41
970.32	228.43
970.61	228.38
970.91	228.30
971.20	228.26
971.49	228.21
971.79	228.37
972.08	228.20
972.38	228.30
972.67	228.30
972.96	228.23
973.26	228.36
973.55	228.26
973.85	228.32
974.14	228.39
974.43	228.36
974.73	228.34
975.02	228.46
975.31	228.56
975.61	228.57
975.90	228.55
976.19	228.52
976.49	228.65
976.78	228.55
977.07	228.60
977.37	228.63
977.66	228.80
977.95	228.77
978.24	228.76
978.54	228.74
978.83	228.72
979.12	228.77
979.42	228.67
979.71	228.78
980.00	228.75
980.29	228.77
980.59	228.74
980.88	228.83
981.17	228.73
981.46	228.73
981.76	228.82
982.05	228.90
982.34	228.89
982.63	228.94
982.93	229.10
983.22	229.03
983.51	229.00
983.80	228.90
984.09	228.88
984.39	228.91
984.68	228.92
984.97	228.92
985.26	228.81
985.55	228.82
985.85	228.70
986.14	228.74
986.43	228.67
986.72	228.76
987.01	228.63
987.30	228.80
987.59	228.71
987.89	228.67
988.18	228.52
988.47	228.60
988.76	228.57
989.05	228.53
989.34	228.63
989.63	228.68
989.92	228.70
990.22	228.60
990.51	228.58
990.80	228.55
991.09	228.53
991.38	228.56
991.67	228.58
991.96	228.56
992.25	228.62
992.54	228.58
992.83	228.44
993.12	228.40
993.41	228.28
993.70	228.35
993.99	228.32
994.28	228.39
994.58	228.30
994.87	228.26
995.16	228.28
995.45	228.25
995.74	228.15
996.03	228.10
996.32	228.10
996.61	228.16
996.90	228.12
997.19	228.23
997.48	228.20
997.77	228.26
998.06	228.23
998.34	228.07
998.63	228.05
998.92	228.10
999.21	228.17
999.50	228.20
999.79	228.14
1000.08	228.20
1000.37	228.24
1000.66	228.28
1000.95	228.20
1001.24	228.13
1001.53	228.12
1001.82	228.15
1002.11	228.26
1002.40	228.35
1002.68	228.32
1002.97	228.53
1003.26	228.45
1003.55	228.50
1003.84	228.39
1004.13	228.48
1004.42	228.51
1004.71	228.58
1004.99	228.56
1005.28	228.67
1005.57	228.68
1005.86	228.68
1006.15	228.70
1006.44	228.66
1006.72	228.68
1007.01	228.68
1007.30	228.71
1007.59	228.66
1007.88	228.70
1008.17	228.67
1008.45	228.67
1008.74	228.63
1009.03	228.54
1009.32	228.54
1009.60	228.52
1009.89	228.57
1010.18	228.44
1010.47	228.50
1010.76	228.52
1011.04	228.53
1011.33	228.47
1011.62	228.47
1011.91	228.48
1012.19	228.34
1012.48	228.47
1012.77	228.50
1013.05	228.52
1013.34	228.61
1013.63	228.60
1013.92	228.70
1014.20	228.65
1014.49	228.64
1014.78	228.64
1015.06	228.52
1015.35	228.53
1015.64	228.53
1015.92	228.50
1016.21	228.60
1016.50	228.56
1016.78	228.50
1017.07	228.44
1017.36	228.44
1017.64	228.39
1017.93	228.47
1018.22	228.52
1018.50	228.42
1018.79	228.32
1019.08	228.28
1019.36	228.17
1019.65	228.10
1019.93	227.97
1020.22	227.98
1020.51	228.08
1020.79	228.03
1021.08	228.10
1021.36	228.80
1021.65	226.80
1021.94	227.60
1022.22	227.60
1022.51	226.00
1022.79	228.50
1023.08	228.60
1023.36	230.70
1023.65	227.20
>>>>>End Processed Spectral Data<<<<<
