SpectraSuite Data File
++++++++++++++++++++++++++++++++++++
Date: Fri Feb 01 14:33:42 EST 2013
User: group
Dark Spectrum Present: No
Reference Spectrum Present: No
Number of Sampled Component Spectra: 1
Spectrometers: USB2E7196
Integration Time (usec): 70000 (USB2E7196)
Spectra Averaged: 10 (USB2E7196)
Boxcar Smoothing: 10 (USB2E7196)
Correct for Electrical Dark: No (USB2E7196)
Strobe/Lamp Enabled: No (USB2E7196)
Correct for Detector Non-linearity: No (USB2E7196)
Correct for Stray Light: No (USB2E7196)
Number of Pixels in Processed Spectrum: 2048
>>>>>Begin Processed Spectral Data<<<<<
339.09	0.00
339.48	215.60
339.86	218.70
340.24	219.80
340.63	221.60
341.01	224.90
341.39	222.70
341.78	225.10
342.16	223.70
342.54	226.70
342.93	214.77
343.31	225.58
343.69	226.13
344.07	226.49
344.46	226.89
344.84	227.23
345.22	227.46
345.60	227.77
345.99	227.92
346.37	228.18
346.75	228.26
347.13	228.43
347.52	228.50
347.90	228.47
348.28	228.53
348.66	228.70
349.05	228.70
349.43	228.68
349.81	228.72
350.19	228.80
350.57	228.88
350.96	228.94
351.34	229.14
351.72	229.31
352.10	229.44
352.48	229.46
352.87	229.65
353.25	229.58
353.63	229.70
354.01	229.78
354.39	229.76
354.77	229.80
355.15	229.84
355.54	229.95
355.92	230.01
356.30	230.15
356.68	230.28
357.06	230.31
357.44	230.46
357.82	230.53
358.20	230.76
358.58	230.89
358.97	231.00
359.35	231.02
359.73	230.99
360.11	231.13
360.49	231.24
360.87	231.13
361.25	231.25
361.63	231.31
362.01	231.44
362.39	231.54
362.77	231.67
363.15	231.65
363.53	231.63
363.91	231.67
364.29	231.68
364.67	231.59
365.05	231.69
365.43	231.75
365.81	231.69
366.19	231.67
366.57	231.75
366.95	231.80
367.33	231.82
367.71	231.84
368.09	231.93
368.47	231.88
368.85	231.93
369.23	232.00
369.61	231.84
369.99	231.73
370.37	231.71
370.75	231.76
371.13	231.63
371.51	231.55
371.89	231.47
372.27	231.37
372.65	231.34
373.03	231.32
373.41	231.16
373.78	231.10
374.16	230.91
374.54	230.77
374.92	230.58
375.30	230.37
375.68	230.24
376.06	230.03
376.44	230.00
376.82	229.86
377.19	229.71
377.57	229.65
377.95	229.66
378.33	229.52
378.71	229.33
379.09	229.40
379.47	229.41
379.84	229.33
380.22	229.29
380.60	229.11
380.98	228.90
381.36	228.81
381.73	228.76
382.11	228.73
382.49	228.53
382.87	228.43
383.25	228.44
383.62	228.69
384.00	228.57
384.38	228.50
384.76	228.42
385.13	228.50
385.51	228.43
385.89	228.34
386.27	228.29
386.64	228.29
387.02	228.13
387.40	228.11
387.78	228.00
388.15	227.91
388.53	227.79
388.91	227.74
389.29	227.77
389.66	227.73
390.04	227.69
390.42	227.77
390.79	227.86
391.17	227.74
391.55	227.50
391.92	227.57
392.30	227.53
392.68	227.50
393.05	227.41
393.43	227.34
393.81	227.24
394.18	227.31
394.56	227.25
394.94	227.42
395.31	227.39
395.69	227.57
396.06	227.78
396.44	227.82
396.82	227.96
397.19	228.10
397.57	228.33
397.95	228.44
398.32	228.50
398.70	228.55
399.07	228.93
399.45	228.98
399.82	229.11
400.20	229.28
400.58	229.56
400.95	229.83
401.33	230.13
401.70	230.49
402.08	230.73
402.45	231.03
402.83	231.30
403.20	231.52
403.58	231.78
403.95	232.03
404.33	232.50
404.71	232.80
405.08	233.08
405.46	233.20
405.83	233.65
406.21	233.98
406.58	234.48
406.96	234.85
407.33	235.43
407.70	236.16
408.08	236.98
408.45	237.65
408.83	238.30
409.20	239.01
409.58	239.63
409.95	240.45
410.33	241.28
410.70	241.98
411.08	243.01
411.45	243.99
411.82	244.98
412.20	245.94
412.57	247.22
412.95	248.57
413.32	250.00
413.69	251.36
414.07	252.95
414.44	254.63
414.82	256.34
415.19	258.25
415.56	260.05
415.94	262.02
416.31	264.25
416.68	266.53
417.06	269.19
417.43	271.83
417.81	274.67
418.18	277.56
418.55	280.82
418.93	284.10
419.30	287.52
419.67	291.14
420.04	295.00
420.42	298.92
420.79	303.29
421.16	307.88
421.54	312.50
421.91	317.19
422.28	322.06
422.66	327.19
423.03	332.27
423.40	337.45
423.77	342.99
424.15	348.76
424.52	354.70
424.89	361.05
425.26	367.39
425.64	373.36
426.01	379.84
426.38	386.62
426.75	393.48
427.13	400.75
427.50	408.11
427.87	415.93
428.24	423.75
428.61	431.07
428.99	439.27
429.36	448.30
429.73	457.18
430.10	465.77
430.47	474.75
430.85	483.99
431.22	493.69
431.59	503.88
431.96	513.52
432.33	524.19
432.70	534.63
433.08	546.76
433.45	558.28
433.82	569.77
434.19	582.50
434.56	595.22
434.93	607.07
435.30	619.00
435.68	632.35
436.05	645.19
436.42	658.25
436.79	669.86
437.16	682.34
437.53	695.62
437.90	708.95
438.27	721.83
438.64	735.47
439.01	748.10
439.38	759.60
439.75	770.71
440.13	783.45
440.50	795.37
440.87	805.18
441.24	815.43
441.61	826.98
441.98	835.52
442.35	845.26
442.72	855.18
443.09	864.97
443.46	871.09
443.83	875.80
444.20	879.93
444.57	885.69
444.94	889.06
445.31	892.71
445.68	895.85
446.05	898.36
446.42	898.40
446.79	898.27
447.16	897.91
447.53	898.23
447.90	894.86
448.27	891.70
448.64	886.22
449.01	883.04
449.37	875.37
449.74	868.39
450.11	859.27
450.48	849.78
450.85	840.09
451.22	831.71
451.59	823.84
451.96	816.49
452.33	805.69
452.70	796.17
453.07	784.20
453.43	772.50
453.80	760.67
454.17	749.44
454.54	739.00
454.91	727.48
455.28	716.16
455.65	705.49
456.02	694.13
456.38	685.00
456.75	673.20
457.12	663.76
457.49	654.13
457.86	645.11
458.23	637.24
458.59	628.13
458.96	619.05
459.33	610.91
459.70	602.54
460.07	596.29
460.43	588.82
460.80	581.45
461.17	575.06
461.54	568.75
461.91	562.58
462.27	556.09
462.64	550.64
463.01	544.42
463.38	538.46
463.74	533.18
464.11	528.32
464.48	523.86
464.85	519.05
465.21	515.14
465.58	511.30
465.95	506.31
466.32	502.40
466.68	498.50
467.05	494.58
467.42	490.70
467.78	486.60
468.15	482.67
468.52	479.90
468.88	476.01
469.25	472.43
469.62	469.65
469.98	466.77
470.35	463.98
470.72	461.50
471.08	458.65
471.45	456.06
471.82	453.43
472.18	450.62
472.55	448.64
472.92	446.41
473.28	444.19
473.65	442.00
474.02	439.94
474.38	438.11
474.75	436.58
475.11	435.04
475.48	433.66
475.85	432.53
476.21	431.62
476.58	430.76
476.94	430.05
477.31	428.95
477.67	427.93
478.04	427.19
478.41	426.60
478.77	426.38
479.14	425.83
479.50	425.48
479.87	425.57
480.23	425.48
480.60	425.26
480.96	425.18
481.33	425.73
481.69	426.09
482.06	426.38
482.42	426.46
482.79	426.64
483.15	427.25
483.52	428.00
483.88	428.65
484.25	429.50
484.61	430.31
484.98	431.41
485.34	432.79
485.71	434.22
486.07	435.73
486.44	437.21
486.80	438.92
487.17	440.77
487.53	442.82
487.90	444.96
488.26	447.24
488.62	449.62
488.99	451.70
489.35	454.08
489.72	456.77
490.08	459.81
490.44	462.93
490.81	465.89
491.17	468.86
491.54	472.06
491.90	475.36
492.26	478.75
492.63	482.49
492.99	486.20
493.36	490.05
493.72	494.16
494.08	498.23
494.45	502.55
494.81	506.97
495.17	511.27
495.54	515.67
495.90	520.46
496.26	525.17
496.63	530.15
496.99	535.38
497.35	540.71
497.72	546.12
498.08	551.22
498.44	556.76
498.80	562.71
499.17	568.60
499.53	574.29
499.89	580.51
500.26	586.49
500.62	592.50
500.98	598.77
501.34	604.89
501.71	611.20
502.07	617.60
502.43	623.73
502.79	630.15
503.16	636.84
503.52	643.41
503.88	649.89
504.24	656.58
504.60	663.14
504.97	669.60
505.33	676.30
505.69	683.44
506.05	690.42
506.41	696.94
506.78	703.50
507.14	710.32
507.50	716.97
507.86	723.84
508.22	730.54
508.59	736.97
508.95	743.74
509.31	750.44
509.67	757.05
510.03	763.82
510.39	770.43
510.75	776.95
511.12	783.19
511.48	789.89
511.84	796.38
512.20	802.66
512.56	809.22
512.92	815.32
513.28	821.35
513.64	827.03
514.00	833.00
514.37	838.93
514.73	844.85
515.09	850.40
515.45	855.79
515.81	861.26
516.17	866.89
516.53	872.37
516.89	877.51
517.25	882.48
517.61	887.52
517.97	892.24
518.33	896.77
518.69	901.51
519.05	905.99
519.41	910.57
519.77	915.37
520.13	919.84
520.49	923.99
520.85	928.24
521.21	932.40
521.57	936.70
521.93	940.64
522.29	944.91
522.65	948.74
523.01	952.49
523.37	956.23
523.73	959.82
524.09	962.93
524.45	966.63
524.81	970.10
525.17	973.64
525.53	977.46
525.89	981.03
526.25	984.75
526.61	987.83
526.97	991.08
527.33	994.30
527.68	997.63
528.04	1000.74
528.40	1004.19
528.76	1008.05
529.12	1011.09
529.48	1014.53
529.84	1017.06
530.20	1020.38
530.56	1023.60
530.91	1027.29
531.27	1030.39
531.63	1033.68
531.99	1036.55
532.35	1039.63
532.71	1042.21
533.07	1045.22
533.42	1048.07
533.78	1050.47
534.14	1053.58
534.50	1055.89
534.86	1058.46
535.21	1060.43
535.57	1063.49
535.93	1066.17
536.29	1068.08
536.65	1070.62
537.00	1072.78
537.36	1075.58
537.72	1077.80
538.08	1080.54
538.44	1082.32
538.79	1084.59
539.15	1086.55
539.51	1089.00
539.87	1091.36
540.22	1094.15
540.58	1096.55
540.94	1098.87
541.29	1100.99
541.65	1103.12
542.01	1105.82
542.37	1108.07
542.72	1110.63
543.08	1112.76
543.44	1114.70
543.79	1116.69
544.15	1118.81
544.51	1121.25
544.87	1123.63
545.22	1126.10
545.58	1127.75
545.94	1129.74
546.29	1131.75
546.65	1133.92
547.01	1135.69
547.36	1137.33
547.72	1139.06
548.07	1140.41
548.43	1141.85
548.79	1143.72
549.14	1145.33
549.50	1146.54
549.86	1148.09
550.21	1149.23
550.57	1150.43
550.92	1151.62
551.28	1153.18
551.64	1154.68
551.99	1156.13
552.35	1157.06
552.70	1157.99
553.06	1159.53
553.41	1160.91
553.77	1162.36
554.13	1163.54
554.48	1165.06
554.84	1166.20
555.19	1167.43
555.55	1168.91
555.90	1170.38
556.26	1171.50
556.61	1172.56
556.97	1173.93
557.32	1175.18
557.68	1176.67
558.03	1178.18
558.39	1179.34
558.74	1180.69
559.10	1181.65
559.45	1182.48
559.81	1184.02
560.16	1185.49
560.52	1186.22
560.87	1187.80
561.23	1188.59
561.58	1190.03
561.94	1190.63
562.29	1191.62
562.64	1192.08
563.00	1192.51
563.35	1193.61
563.71	1194.88
564.06	1196.17
564.42	1196.89
564.77	1197.54
565.12	1198.40
565.48	1199.13
565.83	1199.80
566.19	1200.74
566.54	1201.27
566.89	1201.71
567.25	1202.00
567.60	1202.64
567.96	1203.23
568.31	1203.50
568.66	1203.61
569.02	1203.64
569.37	1204.15
569.72	1204.53
570.08	1204.60
570.43	1204.91
570.78	1204.58
571.14	1203.77
571.49	1203.30
571.84	1203.58
572.20	1203.19
572.55	1202.54
572.90	1201.48
573.26	1201.33
573.61	1200.33
573.96	1199.43
574.31	1198.35
574.67	1196.87
575.02	1194.97
575.37	1193.71
575.72	1191.81
576.08	1190.98
576.43	1189.44
576.78	1187.48
577.13	1186.19
577.49	1185.16
577.84	1183.53
578.19	1181.93
578.54	1180.77
578.90	1178.98
579.25	1176.47
579.60	1174.55
579.95	1172.57
580.30	1170.69
580.66	1167.96
581.01	1165.60
581.36	1163.42
581.71	1161.45
582.06	1159.69
582.42	1157.63
582.77	1155.09
583.12	1152.90
583.47	1150.52
583.82	1148.34
584.17	1146.23
584.53	1143.91
584.88	1141.44
585.23	1138.94
585.58	1136.49
585.93	1133.83
586.28	1131.71
586.63	1129.62
586.98	1127.21
587.34	1124.76
587.69	1122.78
588.04	1120.53
588.39	1118.46
588.74	1115.41
589.09	1112.61
589.44	1109.64
589.79	1107.31
590.14	1105.11
590.49	1102.59
590.84	1099.90
591.19	1097.23
591.54	1094.06
591.89	1090.53
592.25	1087.67
592.60	1084.44
592.95	1081.11
593.30	1077.81
593.65	1074.23
594.00	1070.77
594.35	1067.86
594.70	1064.65
595.05	1061.11
595.40	1057.85
595.75	1054.20
596.10	1051.50
596.45	1048.58
596.80	1045.83
597.15	1042.53
597.50	1039.21
597.85	1035.95
598.19	1032.77
598.54	1029.70
598.89	1026.75
599.24	1023.92
599.59	1020.46
599.94	1017.63
600.29	1014.62
600.64	1011.52
600.99	1008.04
601.34	1005.16
601.69	1001.49
602.04	998.20
602.39	994.93
602.74	992.11
603.08	989.19
603.43	986.21
603.78	982.92
604.13	979.63
604.48	976.34
604.83	973.00
605.18	970.04
605.53	966.38
605.87	962.36
606.22	959.06
606.57	955.47
606.92	952.30
607.27	949.01
607.62	945.64
607.96	942.50
608.31	939.45
608.66	935.66
609.01	931.82
609.36	928.19
609.70	924.27
610.05	919.92
610.40	915.89
610.75	911.73
611.10	907.64
611.44	902.93
611.79	898.92
612.14	894.96
612.49	890.21
612.83	886.04
613.18	882.12
613.53	878.21
613.88	874.09
614.22	869.86
614.57	865.51
614.92	861.30
615.27	857.31
615.61	853.21
615.96	849.36
616.31	845.75
616.65	842.06
617.00	838.46
617.35	834.86
617.70	830.90
618.04	827.01
618.39	823.33
618.74	820.10
619.08	816.18
619.43	812.41
619.78	808.91
620.12	805.37
620.47	801.74
620.82	797.61
621.16	794.13
621.51	790.53
621.85	786.90
622.20	783.22
622.55	779.47
622.89	775.87
623.24	772.48
623.59	769.00
623.93	765.36
624.28	761.68
624.62	758.23
624.97	755.01
625.32	751.66
625.66	748.37
626.01	744.77
626.35	741.60
626.70	738.24
627.04	734.99
627.39	731.43
627.73	728.13
628.08	725.27
628.43	721.88
628.77	718.53
629.12	715.16
629.46	711.82
629.81	708.22
630.15	704.49
630.50	700.79
630.84	697.11
631.19	693.59
631.53	690.21
631.88	686.56
632.22	682.83
632.57	679.61
632.91	676.00
633.26	672.60
633.60	669.16
633.95	665.72
634.29	662.32
634.64	659.49
634.98	656.12
635.32	652.83
635.67	649.87
636.01	646.64
636.36	643.23
636.70	640.42
637.05	637.51
637.39	634.98
637.73	632.12
638.08	629.70
638.42	627.14
638.77	624.46
639.11	621.52
639.45	618.62
639.80	615.64
640.14	612.97
640.49	610.26
640.83	607.41
641.17	604.63
641.52	601.87
641.86	598.50
642.20	595.79
642.55	592.88
642.89	589.90
643.23	587.18
643.58	584.97
643.92	582.03
644.26	579.23
644.61	576.45
644.95	573.84
645.29	570.67
645.64	567.60
645.98	564.59
646.32	562.16
646.66	559.57
647.01	556.88
647.35	553.97
647.69	551.40
648.04	548.93
648.38	546.15
648.72	543.47
649.06	541.12
649.41	538.55
649.75	535.83
650.09	533.11
650.43	530.37
650.78	527.43
651.12	524.82
651.46	522.31
651.80	519.80
652.14	517.09
652.49	514.75
652.83	512.35
653.17	509.81
653.51	507.18
653.85	504.65
654.20	502.16
654.54	499.68
654.88	497.06
655.22	494.24
655.56	491.86
655.90	489.30
656.25	486.90
656.59	484.43
656.93	482.21
657.27	479.92
657.61	477.35
657.95	475.09
658.29	472.83
658.64	470.45
658.98	467.97
659.32	465.40
659.66	462.90
660.00	460.43
660.34	458.23
660.68	455.85
661.02	453.61
661.36	451.58
661.70	449.59
662.05	447.54
662.39	445.70
662.73	443.50
663.07	441.66
663.41	439.48
663.75	437.48
664.09	435.38
664.43	433.32
664.77	431.56
665.11	429.80
665.45	427.98
665.79	426.25
666.13	424.32
666.47	422.65
666.81	420.84
667.15	418.91
667.49	416.97
667.83	415.40
668.17	413.54
668.51	411.56
668.85	409.69
669.19	408.00
669.53	406.13
669.87	404.53
670.21	402.70
670.55	401.25
670.89	399.77
671.23	398.30
671.57	396.83
671.91	395.24
672.25	393.48
672.58	391.85
672.92	390.20
673.26	388.69
673.60	387.11
673.94	385.60
674.28	384.39
674.62	383.28
674.96	381.69
675.30	380.41
675.64	379.12
675.97	377.78
676.31	376.38
676.65	375.02
676.99	373.74
677.33	372.38
677.67	370.96
678.01	369.54
678.34	367.94
678.68	366.56
679.02	365.14
679.36	363.78
679.70	362.45
680.04	361.14
680.37	359.91
680.71	358.75
681.05	357.69
681.39	356.39
681.73	355.02
682.06	353.97
682.40	352.78
682.74	351.62
683.08	350.58
683.42	349.35
683.75	348.35
684.09	347.21
684.43	346.05
684.77	344.85
685.10	343.57
685.44	342.66
685.78	341.62
686.12	340.62
686.45	339.62
686.79	338.52
687.13	337.52
687.46	336.42
687.80	335.46
688.14	334.31
688.48	333.20
688.81	332.10
689.15	331.00
689.49	329.92
689.82	328.83
690.16	327.72
690.50	326.80
690.83	325.71
691.17	324.64
691.51	323.76
691.84	322.78
692.18	321.96
692.52	320.90
692.85	319.83
693.19	319.01
693.52	318.14
693.86	317.10
694.20	316.05
694.53	315.24
694.87	314.19
695.21	313.31
695.54	312.48
695.88	311.55
696.21	310.64
696.55	309.70
696.88	308.80
697.22	307.91
697.56	307.13
697.89	306.21
698.23	305.41
698.56	304.60
698.90	303.84
699.23	302.87
699.57	301.94
699.90	301.22
700.24	300.28
700.58	299.23
700.91	298.56
701.25	297.84
701.58	297.15
701.92	296.55
702.25	295.80
702.59	295.02
702.92	294.34
703.26	293.56
703.59	293.07
703.93	292.44
704.26	291.87
704.60	291.18
704.93	290.51
705.26	289.83
705.60	289.23
705.93	288.46
706.27	287.90
706.60	287.38
706.94	286.78
707.27	286.20
707.61	285.75
707.94	285.24
708.27	284.69
708.61	284.01
708.94	283.27
709.28	282.78
709.61	282.30
709.94	281.83
710.28	281.16
710.61	280.48
710.95	279.78
711.28	279.23
711.61	278.52
711.95	277.98
712.28	277.38
712.61	276.79
712.95	276.41
713.28	275.86
713.61	275.45
713.95	274.87
714.28	274.47
714.61	273.90
714.95	273.25
715.28	272.68
715.61	272.05
715.95	271.69
716.28	271.13
716.61	270.65
716.95	270.16
717.28	269.85
717.61	269.50
717.94	269.19
718.28	268.59
718.61	268.14
718.94	267.81
719.27	267.31
719.61	266.85
719.94	266.40
720.27	266.06
720.60	265.56
720.94	265.13
721.27	264.72
721.60	264.40
721.93	264.15
722.27	263.80
722.60	263.55
722.93	263.07
723.26	262.74
723.59	262.39
723.93	262.07
724.26	261.63
724.59	261.20
724.92	260.76
725.25	260.40
725.59	260.11
725.92	259.74
726.25	259.59
726.58	259.39
726.91	259.05
727.24	258.76
727.57	258.44
727.91	258.17
728.24	257.90
728.57	257.62
728.90	257.31
729.23	257.01
729.56	256.80
729.89	256.56
730.22	256.20
730.55	255.96
730.89	255.62
731.22	255.48
731.55	255.25
731.88	255.02
732.21	254.81
732.54	254.49
732.87	254.30
733.20	253.89
733.53	253.60
733.86	253.41
734.19	253.08
734.52	252.81
734.85	252.65
735.18	252.33
735.51	252.11
735.84	251.86
736.17	251.69
736.50	251.35
736.83	251.36
737.16	251.17
737.49	250.87
737.82	250.64
738.15	250.35
738.48	250.10
738.81	249.82
739.14	249.59
739.47	249.47
739.80	249.14
740.13	248.95
740.46	248.60
740.79	248.27
741.12	248.09
741.45	247.91
741.78	247.68
742.11	247.42
742.44	247.19
742.77	246.99
743.10	246.68
743.43	246.46
743.75	246.04
744.08	246.15
744.41	246.00
744.74	245.80
745.07	245.66
745.40	245.54
745.73	245.48
746.06	245.43
746.39	245.24
746.71	245.09
747.04	244.93
747.37	244.87
747.70	244.76
748.03	244.62
748.36	244.43
748.68	244.18
749.01	244.05
749.34	243.76
749.67	243.67
750.00	243.59
750.33	243.61
750.65	243.55
750.98	243.00
751.31	242.93
751.64	242.77
751.97	242.67
752.29	242.53
752.62	242.36
752.95	242.10
753.28	241.91
753.60	241.82
753.93	241.77
754.26	241.60
754.59	241.44
754.91	241.33
755.24	241.18
755.57	241.04
755.90	240.87
756.22	240.79
756.55	240.50
756.88	240.32
757.20	240.04
757.53	239.76
757.86	239.73
758.19	239.53
758.51	239.51
758.84	239.41
759.17	239.21
759.49	239.11
759.82	239.09
760.15	238.98
760.47	238.84
760.80	238.66
761.13	238.61
761.45	238.56
761.78	238.47
762.11	238.37
762.43	238.24
762.76	238.26
763.08	238.20
763.41	238.21
763.74	238.18
764.06	238.07
764.39	238.06
764.71	237.87
765.04	237.72
765.37	237.57
765.69	237.30
766.02	237.27
766.34	237.10
766.67	236.87
767.00	236.81
767.32	236.77
767.65	236.76
767.97	236.68
768.30	236.57
768.62	236.43
768.95	236.39
769.27	236.38
769.60	236.15
769.92	236.03
770.25	235.81
770.57	235.65
770.90	235.47
771.22	235.38
771.55	235.34
771.87	235.41
772.20	235.28
772.52	235.44
772.85	235.55
773.17	235.45
773.50	235.37
773.82	235.26
774.15	235.11
774.47	234.91
774.80	234.86
775.12	234.61
775.45	234.51
775.77	234.43
776.09	234.37
776.42	234.38
776.74	234.34
777.07	234.35
777.39	234.34
777.72	234.39
778.04	234.30
778.36	234.28
778.69	234.08
779.01	234.05
779.33	233.76
779.66	233.50
779.98	233.48
780.31	233.45
780.63	233.47
780.95	233.49
781.28	233.39
781.60	233.28
781.92	233.34
782.25	233.24
782.57	233.17
782.89	233.07
783.22	233.04
783.54	232.92
783.86	232.93
784.19	232.82
784.51	232.80
784.83	232.73
785.16	232.68
785.48	232.72
785.80	232.62
786.12	232.70
786.45	232.64
786.77	232.67
787.09	232.69
787.42	232.61
787.74	232.60
788.06	232.59
788.38	232.51
788.71	232.48
789.03	232.52
789.35	232.58
789.67	232.58
789.99	232.59
790.32	232.63
790.64	232.53
790.96	232.57
791.28	232.53
791.61	232.62
791.93	232.63
792.25	232.60
792.57	232.71
792.89	232.62
793.21	232.54
793.54	232.42
793.86	232.38
794.18	232.31
794.50	232.26
794.82	232.34
795.14	232.29
795.47	232.49
795.79	232.47
796.11	232.41
796.43	232.30
796.75	232.21
797.07	232.16
797.39	232.13
797.71	232.03
798.04	231.93
798.36	231.81
798.68	231.85
799.00	231.83
799.32	231.81
799.64	231.88
799.96	231.96
800.28	231.93
800.60	231.87
800.92	231.90
801.24	231.85
801.56	231.84
801.89	231.91
802.21	231.71
802.53	231.59
802.85	231.58
803.17	231.73
803.49	231.76
803.81	231.69
804.13	231.66
804.45	231.68
804.77	231.65
805.09	231.60
805.41	231.47
805.73	231.29
806.05	231.16
806.37	231.08
806.69	230.95
807.01	231.00
807.33	231.00
807.65	230.90
807.97	231.02
808.28	230.90
808.60	230.72
808.92	230.61
809.24	230.78
809.56	230.74
809.88	230.61
810.20	230.55
810.52	230.70
810.84	230.67
811.16	230.63
811.48	230.60
811.80	230.68
812.12	230.63
812.43	230.78
812.75	230.68
813.07	230.64
813.39	230.62
813.71	230.57
814.03	230.51
814.35	230.49
814.67	230.32
814.98	230.31
815.30	230.41
815.62	230.40
815.94	230.21
816.26	230.22
816.58	230.08
816.89	230.04
817.21	229.96
817.53	229.99
817.85	229.88
818.17	229.79
818.48	229.60
818.80	229.69
819.12	229.61
819.44	229.58
819.76	229.49
820.07	229.50
820.39	229.48
820.71	229.48
821.03	229.43
821.34	229.44
821.66	229.40
821.98	229.27
822.30	229.30
822.61	229.39
822.93	229.41
823.25	229.48
823.57	229.52
823.88	229.39
824.20	229.32
824.52	229.42
824.83	229.49
825.15	229.49
825.47	229.45
825.79	229.43
826.10	229.51
826.42	229.52
826.74	229.48
827.05	229.47
827.37	229.52
827.69	229.58
828.00	229.59
828.32	229.69
828.64	229.79
828.95	229.93
829.27	229.95
829.58	229.87
829.90	230.02
830.22	229.99
830.53	230.18
830.85	230.15
831.17	230.13
831.48	230.21
831.80	230.33
832.11	230.31
832.43	230.38
832.75	230.42
833.06	230.50
833.38	230.48
833.69	230.39
834.01	230.34
834.32	230.34
834.64	230.30
834.96	230.28
835.27	230.26
835.59	230.13
835.90	230.06
836.22	230.10
836.53	230.01
836.85	229.97
837.16	230.06
837.48	230.12
837.79	230.21
838.11	230.12
838.42	230.05
838.74	229.97
839.05	229.92
839.37	229.83
839.68	229.83
840.00	229.80
840.31	229.89
840.63	229.93
840.94	229.87
841.26	229.90
841.57	229.84
841.88	229.90
842.20	229.99
842.51	230.02
842.83	229.94
843.14	230.09
843.46	230.08
843.77	229.89
844.08	229.89
844.40	229.86
844.71	229.86
845.03	229.91
845.34	229.99
845.65	229.96
845.97	229.97
846.28	229.92
846.60	230.04
846.91	230.01
847.22	229.96
847.54	229.99
847.85	229.88
848.16	229.82
848.48	229.71
848.79	229.63
849.10	229.55
849.42	229.57
849.73	229.27
850.04	229.26
850.36	229.10
850.67	229.10
850.98	228.98
851.30	228.99
851.61	228.93
851.92	228.89
852.23	228.87
852.55	228.88
852.86	228.91
853.17	228.78
853.49	228.80
853.80	228.72
854.11	228.76
854.42	228.82
854.74	228.84
855.05	228.86
855.36	228.80
855.67	228.81
855.99	228.84
856.30	229.05
856.61	229.04
856.92	229.08
857.23	229.10
857.55	229.05
857.86	229.01
858.17	228.99
858.48	228.97
858.79	228.98
859.11	228.97
859.42	228.88
859.73	228.85
860.04	228.91
860.35	228.92
860.66	228.88
860.98	228.86
861.29	228.86
861.60	228.88
861.91	228.92
862.22	228.93
862.53	228.79
862.84	228.64
863.16	228.58
863.47	228.60
863.78	228.62
864.09	228.64
864.40	228.70
864.71	228.68
865.02	228.77
865.33	228.78
865.64	228.80
865.95	228.85
866.27	229.06
866.58	228.99
866.89	229.03
867.20	229.04
867.51	229.00
867.82	229.02
868.13	229.10
868.44	229.12
868.75	229.19
869.06	229.36
869.37	229.42
869.68	229.56
869.99	229.66
870.30	229.66
870.61	229.74
870.92	229.69
871.23	229.79
871.54	229.76
871.85	229.81
872.16	229.81
872.47	229.84
872.78	229.78
873.09	229.84
873.40	229.90
873.71	229.90
874.02	229.98
874.33	229.99
874.64	229.80
874.95	229.72
875.26	229.61
875.56	229.60
875.87	229.57
876.18	229.53
876.49	229.65
876.80	229.60
877.11	229.64
877.42	229.74
877.73	229.69
878.04	229.61
878.35	229.54
878.66	229.51
878.96	229.42
879.27	229.32
879.58	229.29
879.89	229.20
880.20	229.30
880.51	229.22
880.82	229.26
881.12	229.34
881.43	229.40
881.74	229.44
882.05	229.44
882.36	229.50
882.67	229.53
882.97	229.35
883.28	229.32
883.59	229.15
883.90	229.16
884.21	229.21
884.51	229.15
884.82	229.21
885.13	229.22
885.44	229.30
885.74	229.29
886.05	229.24
886.36	229.17
886.67	229.06
886.98	229.17
887.28	229.08
887.59	229.07
887.90	229.01
888.20	228.88
888.51	228.76
888.82	228.66
889.13	228.60
889.43	228.72
889.74	228.64
890.05	228.65
890.35	228.58
890.66	228.53
890.97	228.56
891.28	228.53
891.58	228.48
891.89	228.37
892.20	228.34
892.50	228.23
892.81	228.18
893.12	228.19
893.42	228.11
893.73	228.17
894.04	228.12
894.34	228.10
894.65	228.12
894.95	228.08
895.26	228.09
895.57	228.14
895.87	227.96
896.18	228.01
896.48	228.03
896.79	227.90
897.10	227.82
897.40	227.80
897.71	227.78
898.01	227.73
898.32	227.77
898.63	227.75
898.93	227.93
899.24	227.99
899.54	227.88
899.85	227.88
900.15	227.97
900.46	228.05
900.76	228.08
901.07	228.12
901.38	228.18
901.68	228.24
901.99	228.21
902.29	228.24
902.60	228.26
902.90	228.25
903.21	228.35
903.51	228.36
903.82	228.38
904.12	228.38
904.43	228.33
904.73	228.35
905.03	228.46
905.34	228.50
905.64	228.57
905.95	228.67
906.25	228.65
906.56	228.61
906.86	228.51
907.17	228.59
907.47	228.55
907.77	228.60
908.08	228.49
908.38	228.51
908.69	228.51
908.99	228.46
909.30	228.54
909.60	228.52
909.90	228.66
910.21	228.69
910.51	228.67
910.81	228.80
911.12	228.89
911.42	228.90
911.73	228.80
912.03	228.82
912.33	228.96
912.64	229.09
912.94	229.05
913.24	229.12
913.55	229.13
913.85	229.18
914.15	229.33
914.46	229.51
914.76	229.55
915.06	229.66
915.37	229.68
915.67	229.66
915.97	229.72
916.27	229.63
916.58	229.56
916.88	229.61
917.18	229.61
917.49	229.64
917.79	229.61
918.09	229.63
918.39	229.73
918.70	229.70
919.00	229.67
919.30	229.85
919.60	229.88
919.91	229.87
920.21	229.94
920.51	229.76
920.81	229.66
921.12	229.68
921.42	229.67
921.72	229.84
922.02	229.76
922.32	229.71
922.63	229.73
922.93	229.97
923.23	229.98
923.53	230.02
923.83	229.90
924.13	229.98
924.44	229.93
924.74	229.92
925.04	229.90
925.34	229.77
925.64	229.64
925.94	229.60
926.24	229.71
926.55	229.61
926.85	229.70
927.15	229.64
927.45	229.59
927.75	229.47
928.05	229.36
928.35	229.42
928.65	229.48
928.95	229.47
929.26	229.33
929.56	229.38
929.86	229.36
930.16	229.33
930.46	229.22
930.76	229.20
931.06	229.04
931.36	228.98
931.66	229.01
931.96	228.86
932.26	228.74
932.56	228.57
932.86	228.59
933.16	228.50
933.46	228.48
933.76	228.46
934.06	228.60
934.36	228.60
934.66	228.69
934.96	228.70
935.26	228.66
935.56	228.62
935.86	228.51
936.16	228.42
936.46	228.41
936.76	228.38
937.06	228.24
937.36	228.28
937.66	228.25
937.96	228.25
938.26	228.21
938.56	228.30
938.86	228.22
939.16	228.20
939.46	228.11
939.76	228.10
940.06	228.13
940.35	227.97
940.65	227.88
940.95	227.81
941.25	227.72
941.55	227.74
941.85	227.72
942.15	227.72
942.45	227.73
942.75	227.72
943.04	227.79
943.34	227.93
943.64	227.87
943.94	227.89
944.24	227.80
944.54	227.84
944.84	227.83
945.13	227.93
945.43	227.94
945.73	228.08
946.03	228.15
946.33	227.99
946.62	227.99
946.92	228.10
947.22	228.13
947.52	228.13
947.82	228.21
948.11	228.25
948.41	228.25
948.71	228.31
949.01	228.40
949.31	228.40
949.60	228.37
949.90	228.47
950.20	228.37
950.50	228.48
950.79	228.53
951.09	228.57
951.39	228.59
951.69	228.57
951.98	228.60
952.28	228.62
952.58	228.67
952.87	228.76
953.17	228.65
953.47	228.60
953.76	228.65
954.06	228.61
954.36	228.67
954.66	228.66
954.95	228.63
955.25	228.62
955.55	228.67
955.84	228.71
956.14	228.80
956.44	228.85
956.73	228.91
957.03	228.93
957.32	228.99
957.62	228.91
957.92	228.97
958.21	228.91
958.51	229.07
958.81	229.13
959.10	229.16
959.40	229.23
959.69	229.32
959.99	229.33
960.29	229.37
960.58	229.24
960.88	229.32
961.17	229.25
961.47	229.24
961.76	229.11
962.06	229.21
962.36	229.05
962.65	229.01
962.95	228.83
963.24	228.79
963.54	228.66
963.83	228.70
964.13	228.67
964.42	228.59
964.72	228.50
965.01	228.51
965.31	228.46
965.60	228.43
965.90	228.47
966.19	228.40
966.49	228.30
966.78	228.28
967.08	228.30
967.37	228.35
967.67	228.37
967.96	228.40
968.26	228.32
968.55	228.35
968.85	228.40
969.14	228.46
969.43	228.48
969.73	228.57
970.02	228.59
970.32	228.54
970.61	228.50
970.91	228.37
971.20	228.21
971.49	228.10
971.79	228.14
972.08	227.94
972.38	227.91
972.67	227.88
972.96	227.94
973.26	227.86
973.55	227.87
973.85	227.82
974.14	227.76
974.43	227.70
974.73	227.66
975.02	227.55
975.31	227.57
975.61	227.60
975.90	227.55
976.19	227.51
976.49	227.46
976.78	227.49
977.07	227.44
977.37	227.58
977.66	227.67
977.95	227.57
978.24	227.66
978.54	227.67
978.83	227.68
979.12	227.68
979.42	227.62
979.71	227.59
980.00	227.52
980.29	227.68
980.59	227.59
980.88	227.58
981.17	227.60
981.46	227.47
981.76	227.39
982.05	227.47
982.34	227.40
982.63	227.50
982.93	227.47
983.22	227.52
983.51	227.46
983.80	227.45
984.09	227.49
984.39	227.46
984.68	227.40
984.97	227.41
985.26	227.34
985.55	227.40
985.85	227.36
986.14	227.45
986.43	227.31
986.72	227.39
987.01	227.42
987.30	227.53
987.59	227.62
987.89	227.68
988.18	227.55
988.47	227.47
988.76	227.37
989.05	227.53
989.34	227.53
989.63	227.70
989.92	227.64
990.22	227.60
990.51	227.58
990.80	227.67
991.09	227.73
991.38	227.77
991.67	227.72
991.96	227.74
992.25	227.71
992.54	227.82
992.83	227.80
993.12	227.82
993.41	227.74
993.70	227.82
993.99	227.85
994.28	227.90
994.58	228.02
994.87	228.10
995.16	228.00
995.45	228.00
995.74	227.82
996.03	227.86
996.32	227.86
996.61	227.91
996.90	227.86
997.19	227.94
997.48	227.99
997.77	227.97
998.06	227.99
998.34	227.99
998.63	227.96
998.92	227.99
999.21	228.00
999.50	228.10
999.79	228.05
1000.08	228.11
1000.37	228.12
1000.66	228.14
1000.95	228.15
1001.24	228.14
1001.53	228.22
1001.82	228.29
1002.11	228.29
1002.40	228.42
1002.68	228.45
1002.97	228.62
1003.26	228.51
1003.55	228.50
1003.84	228.58
1004.13	228.59
1004.42	228.60
1004.71	228.58
1004.99	228.70
1005.28	228.77
1005.57	228.80
1005.86	228.80
1006.15	228.73
1006.44	228.75
1006.72	228.70
1007.01	228.61
1007.30	228.67
1007.59	228.55
1007.88	228.57
1008.17	228.56
1008.45	228.50
1008.74	228.43
1009.03	228.35
1009.32	228.31
1009.60	228.28
1009.89	228.24
1010.18	228.30
1010.47	228.29
1010.76	228.25
1011.04	228.19
1011.33	228.14
1011.62	228.14
1011.91	228.15
1012.19	228.15
1012.48	228.15
1012.77	228.20
1013.05	228.37
1013.34	228.33
1013.63	228.34
1013.92	228.36
1014.20	228.34
1014.49	228.30
1014.78	228.38
1015.06	228.35
1015.35	228.37
1015.64	228.39
1015.92	228.45
1016.21	228.38
1016.50	228.38
1016.78	228.40
1017.07	228.31
1017.36	228.32
1017.64	228.21
1017.93	228.18
1018.22	228.24
1018.50	228.15
1018.79	228.21
1019.08	228.20
1019.36	228.22
1019.65	228.22
1019.93	228.26
1020.22	228.27
1020.51	228.42
1020.79	228.37
1021.08	229.40
1021.36	226.80
1021.65	229.40
1021.94	229.90
1022.22	228.00
1022.51	228.10
1022.79	229.60
1023.08	227.30
1023.36	231.00
1023.65	228.10
>>>>>End Processed Spectral Data<<<<<
