SpectraSuite Data File
++++++++++++++++++++++++++++++++++++
Date: Fri Feb 01 14:35:06 EST 2013
User: group
Dark Spectrum Present: No
Reference Spectrum Present: No
Number of Sampled Component Spectra: 1
Spectrometers: USB2E7196
Integration Time (usec): 70000 (USB2E7196)
Spectra Averaged: 10 (USB2E7196)
Boxcar Smoothing: 10 (USB2E7196)
Correct for Electrical Dark: No (USB2E7196)
Strobe/Lamp Enabled: No (USB2E7196)
Correct for Detector Non-linearity: No (USB2E7196)
Correct for Stray Light: No (USB2E7196)
Number of Pixels in Processed Spectrum: 2048
>>>>>Begin Processed Spectral Data<<<<<
339.09	0.00
339.48	216.40
339.86	218.20
340.24	217.70
340.63	220.50
341.01	224.20
341.39	223.80
341.78	224.60
342.16	224.20
342.54	226.70
342.93	214.58
343.31	225.39
343.69	225.84
344.07	226.26
344.46	226.70
344.84	227.13
345.22	227.23
345.60	227.45
345.99	227.65
346.37	227.92
346.75	227.98
347.13	228.03
347.52	228.11
347.90	228.09
348.28	228.18
348.66	228.13
349.05	228.17
349.43	228.23
349.81	228.33
350.19	228.28
350.57	228.17
350.96	228.15
351.34	228.24
351.72	228.33
352.10	228.55
352.48	228.67
352.87	228.64
353.25	228.77
353.63	228.84
354.01	228.95
354.39	228.94
354.77	229.08
355.15	229.13
355.54	229.15
355.92	229.16
356.30	229.09
356.68	229.43
357.06	229.60
357.44	229.62
357.82	229.88
358.20	230.00
358.58	230.15
358.97	230.23
359.35	230.38
359.73	230.65
360.11	230.66
360.49	230.61
360.87	230.60
361.25	230.70
361.63	230.79
362.01	230.75
362.39	230.81
362.77	230.81
363.15	230.94
363.53	230.97
363.91	231.06
364.29	231.20
364.67	230.98
365.05	230.90
365.43	231.02
365.81	230.93
366.19	231.07
366.57	231.17
366.95	231.19
367.33	231.19
367.71	231.01
368.09	230.99
368.47	231.09
368.85	231.16
369.23	231.17
369.61	231.08
369.99	231.04
370.37	231.00
370.75	230.95
371.13	230.68
371.51	230.62
371.89	230.51
372.27	230.42
372.65	230.36
373.03	230.34
373.41	230.19
373.78	230.09
374.16	229.93
374.54	229.83
374.92	229.77
375.30	229.63
375.68	229.55
376.06	229.44
376.44	229.25
376.82	229.15
377.19	229.07
377.57	228.95
377.95	228.79
378.33	228.60
378.71	228.50
379.09	228.57
379.47	228.50
379.84	228.37
380.22	228.26
380.60	228.11
380.98	228.12
381.36	227.98
381.73	227.85
382.11	227.88
382.49	227.67
382.87	227.56
383.25	227.42
383.62	227.58
384.00	227.45
384.38	227.45
384.76	227.43
385.13	227.38
385.51	227.33
385.89	227.31
386.27	227.30
386.64	227.37
387.02	227.30
387.40	227.13
387.78	227.13
388.15	227.04
388.53	226.98
388.91	226.79
389.29	226.78
389.66	226.78
390.04	226.58
390.42	226.71
390.79	226.62
391.17	226.69
391.55	226.39
391.92	226.44
392.30	226.51
392.68	226.47
393.05	226.49
393.43	226.60
393.81	226.70
394.18	226.79
394.56	226.66
394.94	226.71
395.31	226.79
395.69	226.95
396.06	227.11
396.44	227.23
396.82	227.27
397.19	227.50
397.57	227.51
397.95	227.70
398.32	227.82
398.70	228.01
399.07	228.13
399.45	228.25
399.82	228.40
400.20	228.44
400.58	228.63
400.95	228.72
401.33	228.80
401.70	229.11
402.08	229.24
402.45	229.39
402.83	229.67
403.20	229.96
403.58	230.11
403.95	230.31
404.33	230.59
404.71	230.91
405.08	231.23
405.46	231.57
405.83	231.93
406.21	232.19
406.58	232.57
406.96	232.97
407.33	233.44
407.70	233.78
408.08	234.36
408.45	234.74
408.83	235.29
409.20	235.79
409.58	236.24
409.95	236.94
410.33	237.72
410.70	238.24
411.08	239.04
411.45	239.84
411.82	240.64
412.20	241.53
412.57	242.62
412.95	243.42
413.32	244.51
413.69	245.56
414.07	246.73
414.44	247.98
414.82	249.34
415.19	250.76
415.56	252.36
415.94	254.01
416.31	255.88
416.68	257.60
417.06	259.60
417.43	261.39
417.81	263.49
418.18	265.57
418.55	268.07
418.93	270.59
419.30	273.09
419.67	275.73
420.04	278.45
420.42	281.26
420.79	284.69
421.16	287.96
421.54	291.33
421.91	294.80
422.28	298.47
422.66	302.36
423.03	306.31
423.40	310.29
423.77	314.53
424.15	318.96
424.52	323.46
424.89	328.41
425.26	333.21
425.64	337.66
426.01	342.59
426.38	347.70
426.75	352.70
427.13	358.21
427.50	363.96
427.87	370.01
428.24	375.87
428.61	381.55
428.99	387.88
429.36	394.76
429.73	401.40
430.10	407.77
430.47	414.43
430.85	421.32
431.22	428.62
431.59	436.18
431.96	443.47
432.33	451.62
432.70	459.60
433.08	468.86
433.45	477.58
433.82	486.48
434.19	496.10
434.56	505.63
434.93	514.51
435.30	523.52
435.68	533.41
436.05	543.30
436.42	552.93
436.79	561.69
437.16	571.10
437.53	581.25
437.90	591.39
438.27	601.20
438.64	611.20
439.01	620.43
439.38	629.22
439.75	637.30
440.13	646.72
440.50	655.46
440.87	663.05
441.24	671.04
441.61	679.63
441.98	686.04
442.35	693.23
442.72	700.81
443.09	708.35
443.46	713.09
443.83	716.48
444.20	719.26
444.57	723.79
444.94	726.46
445.31	728.89
445.68	731.47
446.05	733.26
446.42	733.53
446.79	733.61
447.16	733.08
447.53	733.60
447.90	731.08
448.27	728.78
448.64	724.40
449.01	721.66
449.37	715.99
449.74	710.65
450.11	704.18
450.48	696.91
450.85	689.34
451.22	683.06
451.59	677.19
451.96	671.66
452.33	663.31
452.70	655.93
453.07	647.28
453.43	638.28
453.80	629.49
454.17	621.09
454.54	613.27
454.91	604.75
455.28	596.09
455.65	588.09
456.02	579.87
456.38	573.17
456.75	564.30
457.12	556.97
457.49	549.69
457.86	542.72
458.23	536.71
458.59	529.95
458.96	523.06
459.33	516.83
459.70	510.91
460.07	506.16
460.43	500.53
460.80	494.94
461.17	490.12
461.54	485.11
461.91	480.23
462.27	475.33
462.64	471.00
463.01	466.31
463.38	461.85
463.74	457.33
464.11	453.49
464.48	450.07
464.85	446.23
465.21	443.33
465.58	440.30
465.95	436.55
466.32	433.31
466.68	430.20
467.05	427.25
467.42	424.17
467.78	420.97
468.15	417.97
468.52	415.79
468.88	412.83
469.25	410.27
469.62	408.27
469.98	405.71
470.35	403.62
470.72	401.79
471.08	399.61
471.45	397.76
471.82	395.67
472.18	393.52
472.55	392.01
472.92	390.16
473.28	388.55
473.65	386.97
474.02	385.43
474.38	384.07
474.75	382.81
475.11	381.60
475.48	380.61
475.85	379.70
476.21	378.79
476.58	377.97
476.94	377.10
477.31	376.13
477.67	375.54
478.04	375.01
478.41	374.29
478.77	373.88
479.14	373.26
479.50	372.90
479.87	372.65
480.23	372.56
480.60	372.33
480.96	372.03
481.33	371.98
481.69	372.05
482.06	372.09
482.42	372.05
482.79	372.03
483.15	372.23
483.52	372.68
483.88	373.07
484.25	373.59
484.61	374.24
484.98	374.98
485.34	375.75
485.71	376.50
486.07	377.39
486.44	378.20
486.80	379.19
487.17	380.27
487.53	381.49
487.90	382.76
488.26	384.19
488.62	385.71
488.99	387.16
489.35	388.72
489.72	390.32
490.08	392.11
490.44	393.88
490.81	395.62
491.17	397.33
491.54	399.36
491.90	401.33
492.26	403.50
492.63	405.65
492.99	407.78
493.36	410.16
493.72	412.63
494.08	415.14
494.45	417.78
494.81	420.48
495.17	423.26
495.54	426.02
495.90	428.84
496.26	431.69
496.63	434.80
496.99	437.69
497.35	440.87
497.72	443.93
498.08	447.08
498.44	450.44
498.80	454.02
499.17	457.14
499.53	460.41
499.89	463.59
500.26	466.88
500.62	470.29
500.98	473.85
501.34	477.34
501.71	480.74
502.07	484.23
502.43	487.66
502.79	490.97
503.16	494.26
503.52	497.65
503.88	500.91
504.24	504.20
504.60	507.82
504.97	511.34
505.33	514.83
505.69	518.50
506.05	521.88
506.41	524.79
506.78	528.11
507.14	531.43
507.50	534.60
507.86	537.81
508.22	540.97
508.59	543.83
508.95	546.68
509.31	549.93
509.67	552.99
510.03	555.83
510.39	558.87
510.75	561.84
511.12	564.65
511.48	567.48
511.84	570.32
512.20	572.73
512.56	575.11
512.92	577.50
513.28	579.80
513.64	581.93
514.00	584.35
514.37	586.64
514.73	588.80
515.09	591.12
515.45	593.09
515.81	595.24
516.17	597.32
516.53	599.41
516.89	600.95
517.25	602.62
517.61	604.34
517.97	606.01
518.33	607.39
518.69	608.90
519.05	610.45
519.41	611.76
519.77	613.46
520.13	614.80
520.49	616.37
520.85	617.67
521.21	619.14
521.57	620.63
521.93	621.77
522.29	623.34
522.65	624.63
523.01	625.88
523.37	626.85
523.73	628.09
524.09	629.11
524.45	630.59
524.81	631.98
525.17	633.41
525.53	634.66
525.89	636.28
526.25	637.61
526.61	638.62
526.97	640.19
527.33	641.60
527.68	643.24
528.04	644.59
528.40	645.93
528.76	647.47
529.12	648.91
529.48	650.53
529.84	651.87
530.20	653.35
530.56	655.23
530.91	657.47
531.27	659.25
531.63	661.04
531.99	662.91
532.35	664.50
532.71	666.10
533.07	668.13
533.42	670.17
533.78	672.06
534.14	674.61
534.50	676.49
534.86	678.34
535.21	680.34
535.57	682.52
535.93	685.01
536.29	687.26
536.65	689.61
537.00	692.01
537.36	694.52
537.72	696.90
538.08	699.24
538.44	701.47
538.79	704.10
539.15	706.61
539.51	709.11
539.87	712.07
540.22	714.77
540.58	717.49
540.94	720.16
541.29	722.78
541.65	725.33
542.01	728.53
542.37	731.34
542.72	733.96
543.08	736.82
543.44	739.72
543.79	742.39
544.15	745.26
544.51	748.21
544.87	751.02
545.22	754.11
545.58	756.98
545.94	759.70
546.29	762.44
546.65	765.64
547.01	768.44
547.36	771.25
547.72	774.44
548.07	777.25
548.43	779.98
548.79	783.15
549.14	785.94
549.50	788.41
549.86	791.44
550.21	794.59
550.57	797.62
550.92	800.89
551.28	803.89
551.64	806.57
551.99	809.67
552.35	812.67
552.70	815.62
553.06	818.88
553.41	822.19
553.77	825.17
554.13	828.15
554.48	831.24
554.84	834.32
555.19	837.34
555.55	840.50
555.90	843.36
556.26	846.20
556.61	849.35
556.97	852.34
557.32	855.43
557.68	858.33
558.03	861.25
558.39	863.56
558.74	866.86
559.10	869.87
559.45	872.58
559.81	875.86
560.16	878.58
560.52	881.49
560.87	884.20
561.23	887.03
561.58	889.88
561.94	892.69
562.29	895.14
562.64	897.51
563.00	900.10
563.35	903.13
563.71	906.43
564.06	909.32
564.42	912.08
564.77	914.70
565.12	917.43
565.48	919.91
565.83	922.50
566.19	925.01
566.54	927.75
566.89	930.22
567.25	932.33
567.60	935.14
567.96	937.50
568.31	939.88
568.66	942.14
569.02	944.11
569.37	946.03
569.72	948.12
570.08	950.13
570.43	951.75
570.78	953.40
571.14	954.48
571.49	955.84
571.84	957.87
572.20	959.21
572.55	960.64
572.90	961.99
573.26	963.38
573.61	964.71
573.96	966.00
574.31	966.78
574.67	967.23
575.02	967.60
575.37	967.71
575.72	967.64
576.08	968.20
576.43	968.86
576.78	969.48
577.13	970.10
577.49	970.65
577.84	971.30
578.19	971.43
578.54	971.79
578.90	972.15
579.25	971.55
579.60	971.48
579.95	971.09
580.30	970.53
580.66	970.36
581.01	969.51
581.36	968.74
581.71	968.61
582.06	968.49
582.42	968.16
582.77	967.78
583.12	967.64
583.47	967.03
583.82	966.55
584.17	965.71
584.53	965.10
584.88	964.40
585.23	963.73
585.58	963.25
585.93	962.52
586.28	961.53
586.63	960.90
586.98	960.26
587.34	959.60
587.69	959.15
588.04	958.49
588.39	957.58
588.74	956.36
589.09	955.17
589.44	953.81
589.79	952.67
590.14	951.84
590.49	950.41
590.84	949.06
591.19	947.70
591.54	946.19
591.89	944.07
592.25	942.49
592.60	940.59
592.95	938.40
593.30	936.42
593.65	934.43
594.00	932.56
594.35	931.05
594.70	928.88
595.05	926.90
595.40	924.49
595.75	922.59
596.10	921.01
596.45	919.24
596.80	917.63
597.15	915.59
597.50	913.63
597.85	912.02
598.19	910.23
598.54	908.30
598.89	906.61
599.24	905.19
599.59	903.13
599.94	901.25
600.29	899.43
600.64	897.61
600.99	895.41
601.34	893.23
601.69	890.52
602.04	888.49
602.39	886.20
602.74	884.19
603.08	882.18
603.43	880.21
603.78	877.97
604.13	875.82
604.48	873.55
604.83	871.21
605.18	869.19
605.53	866.54
605.87	863.72
606.22	861.44
606.57	858.81
606.92	856.43
607.27	854.05
607.62	851.91
607.96	849.60
608.31	847.53
608.66	845.23
609.01	842.61
609.36	839.84
609.70	836.82
610.05	833.70
610.40	830.93
610.75	828.00
611.10	824.89
611.44	821.56
611.79	818.80
612.14	815.87
612.49	812.27
612.83	809.12
613.18	806.07
613.53	802.94
613.88	799.98
614.22	796.94
614.57	793.70
614.92	790.34
615.27	787.05
615.61	783.51
615.96	780.36
616.31	777.55
616.65	775.25
617.00	772.57
617.35	770.17
617.70	766.93
618.04	763.74
618.39	761.01
618.74	758.30
619.08	755.28
619.43	752.44
619.78	749.90
620.12	747.17
620.47	744.47
620.82	741.21
621.16	738.22
621.51	735.32
621.85	732.42
622.20	729.40
622.55	726.45
622.89	723.70
623.24	720.80
623.59	717.83
623.93	714.81
624.28	711.94
624.62	709.04
624.97	706.51
625.32	703.65
625.66	700.80
626.01	697.91
626.35	695.01
626.70	692.07
627.04	689.23
627.39	686.44
627.73	683.52
628.08	680.86
628.43	678.28
628.77	675.61
629.12	672.68
629.46	669.80
629.81	666.72
630.15	663.98
630.50	661.10
630.84	658.16
631.19	655.07
631.53	652.09
631.88	648.71
632.22	645.35
632.57	642.75
632.91	639.83
633.26	637.10
633.60	634.28
633.95	631.51
634.29	628.67
634.64	625.95
634.98	623.15
635.32	620.59
635.67	617.77
636.01	615.04
636.36	612.52
636.70	610.20
637.05	607.84
637.39	605.31
637.73	602.86
638.08	600.60
638.42	598.08
638.77	595.87
639.11	593.49
639.45	591.12
639.80	588.46
640.14	586.06
640.49	583.40
640.83	580.89
641.17	578.33
641.52	575.61
641.86	573.04
642.20	570.88
642.55	568.21
642.89	565.76
643.23	563.20
643.58	560.93
643.92	558.33
644.26	555.98
644.61	553.70
644.95	551.15
645.29	548.40
645.64	545.80
645.98	543.27
646.32	540.97
646.66	538.54
647.01	536.04
647.35	533.56
647.69	531.20
648.04	528.98
648.38	526.50
648.72	524.37
649.06	521.93
649.41	519.40
649.75	516.98
650.09	514.38
650.43	511.89
650.78	509.20
651.12	506.74
651.46	504.18
651.80	501.84
652.14	499.53
652.49	497.28
652.83	495.18
653.17	492.81
653.51	490.50
653.85	488.40
654.20	486.00
654.54	483.53
654.88	481.05
655.22	478.49
655.56	476.11
655.90	473.68
656.25	471.36
656.59	469.09
656.93	467.05
657.27	464.88
657.61	462.63
657.95	460.53
658.29	458.52
658.64	456.38
658.98	454.01
659.32	451.70
659.66	449.62
660.00	447.45
660.34	445.35
660.68	443.22
661.02	440.97
661.36	438.97
661.70	437.09
662.05	435.39
662.39	433.61
662.73	431.89
663.07	430.31
663.41	428.66
663.75	426.80
664.09	424.80
664.43	423.17
664.77	421.47
665.11	419.80
665.45	417.97
665.79	416.45
666.13	414.77
666.47	413.11
666.81	411.32
667.15	409.40
667.49	407.69
667.83	406.16
668.17	404.49
668.51	402.80
668.85	401.09
669.19	399.40
669.53	397.76
669.87	395.95
670.21	394.18
670.55	392.48
670.89	390.99
671.23	389.63
671.57	388.01
671.91	386.56
672.25	384.92
672.58	383.63
672.92	382.13
673.26	380.74
673.60	379.50
673.94	378.11
674.28	377.03
674.62	375.98
674.96	374.61
675.30	373.42
675.64	372.36
675.97	371.17
676.31	370.08
676.65	368.95
676.99	367.88
677.33	366.63
677.67	365.46
678.01	364.24
678.34	362.88
678.68	361.68
679.02	360.31
679.36	359.22
679.70	358.04
680.04	356.85
680.37	355.66
680.71	354.39
681.05	353.47
681.39	352.19
681.73	350.84
682.06	349.81
682.40	348.78
682.74	347.62
683.08	346.58
683.42	345.37
683.75	344.28
684.09	343.19
684.43	342.11
684.77	341.06
685.10	339.95
685.44	338.94
685.78	337.90
686.12	337.07
686.45	335.98
686.79	334.77
687.13	333.69
687.46	332.69
687.80	331.73
688.14	330.40
688.48	329.51
688.81	328.50
689.15	327.46
689.49	326.34
689.82	325.30
690.16	324.11
690.50	323.17
690.83	321.99
691.17	321.04
691.51	320.01
691.84	319.22
692.18	318.19
692.52	317.26
692.85	316.44
693.19	315.43
693.52	314.55
693.86	313.65
694.20	312.80
694.53	311.92
694.87	310.97
695.21	310.10
695.54	309.06
695.88	308.04
696.21	307.04
696.55	306.24
696.88	305.44
697.22	304.66
697.56	303.73
697.89	303.00
698.23	302.18
698.56	301.38
698.90	300.38
699.23	299.55
699.57	298.73
699.90	297.79
700.24	296.99
700.58	296.19
700.91	295.46
701.25	294.73
701.58	294.05
701.92	293.38
702.25	292.84
702.59	292.20
702.92	291.67
703.26	291.00
703.59	290.30
703.93	289.78
704.26	289.22
704.60	288.64
704.93	287.90
705.26	287.20
705.60	286.60
705.93	286.00
706.27	285.43
706.60	284.83
706.94	284.28
707.27	283.51
707.61	283.07
707.94	282.41
708.27	281.62
708.61	281.00
708.94	280.42
709.28	279.77
709.61	279.24
709.94	278.64
710.28	278.11
710.61	277.61
710.95	276.94
711.28	276.48
711.61	275.94
711.95	275.52
712.28	275.00
712.61	274.48
712.95	274.05
713.28	273.58
713.61	272.99
713.95	272.49
714.28	272.27
714.61	271.72
714.95	271.29
715.28	270.97
715.61	270.41
715.95	269.88
716.28	269.46
716.61	268.97
716.95	268.55
717.28	268.17
717.61	267.70
717.94	267.19
718.28	266.56
718.61	266.07
718.94	265.65
719.27	265.27
719.61	264.86
719.94	264.43
720.27	264.07
720.60	263.79
720.94	263.35
721.27	262.94
721.60	262.51
721.93	262.23
722.27	261.92
722.60	261.59
722.93	261.21
723.26	260.86
723.59	260.44
723.93	260.11
724.26	259.73
724.59	259.39
724.92	259.10
725.25	258.86
725.59	258.62
725.92	258.32
726.25	258.02
726.58	257.77
726.91	257.57
727.24	257.30
727.57	257.00
727.91	256.73
728.24	256.52
728.57	256.22
728.90	255.94
729.23	255.64
729.56	255.52
729.89	255.37
730.22	255.05
730.55	254.88
730.89	254.63
731.22	254.38
731.55	254.19
731.88	253.96
732.21	253.82
732.54	253.63
732.87	253.37
733.20	253.08
733.53	252.91
733.86	252.52
734.19	252.22
734.52	252.08
734.85	252.02
735.18	251.69
735.51	251.51
735.84	251.31
736.17	251.03
736.50	250.59
736.83	250.68
737.16	250.58
737.49	250.48
737.82	250.27
738.15	250.12
738.48	249.94
738.81	249.71
739.14	249.36
739.47	249.05
739.80	248.89
740.13	248.74
740.46	248.54
740.79	248.43
741.12	248.21
741.45	248.02
741.78	247.71
742.11	247.49
742.44	247.26
742.77	247.00
743.10	246.87
743.43	246.80
743.75	246.25
744.08	246.16
744.41	245.87
744.74	245.67
745.07	245.46
745.40	245.29
745.73	245.18
746.06	245.13
746.39	245.03
746.71	244.80
747.04	244.57
747.37	244.34
747.70	244.05
748.03	243.97
748.36	243.80
748.68	243.63
749.01	243.39
749.34	243.32
749.67	243.21
750.00	243.02
750.33	243.02
750.65	242.89
750.98	242.56
751.31	242.46
751.64	242.34
751.97	242.30
752.29	242.09
752.62	241.88
752.95	241.65
753.28	241.43
753.60	241.30
753.93	241.22
754.26	241.00
754.59	240.90
754.91	240.78
755.24	240.51
755.57	240.41
755.90	240.35
756.22	240.08
756.55	239.78
756.88	239.57
757.20	239.24
757.53	239.12
757.86	238.99
758.19	238.80
758.51	238.58
758.84	238.31
759.17	238.17
759.49	238.13
759.82	238.11
760.15	237.98
760.47	237.82
760.80	237.55
761.13	237.51
761.45	237.39
761.78	237.23
762.11	237.19
762.43	236.98
762.76	236.89
763.08	236.91
763.41	236.90
763.74	236.84
764.06	236.68
764.39	236.56
764.71	236.40
765.04	236.41
765.37	236.29
765.69	236.24
766.02	236.12
766.34	235.95
766.67	235.84
767.00	235.88
767.32	235.97
767.65	236.03
767.97	235.95
768.30	235.91
768.62	235.86
768.95	235.77
769.27	235.69
769.60	235.59
769.92	235.43
770.25	235.31
770.57	235.25
770.90	235.36
771.22	235.16
771.55	235.18
771.87	235.16
772.20	235.24
772.52	235.31
772.85	235.52
773.17	235.48
773.50	235.32
773.82	235.27
774.15	235.08
774.47	235.05
774.80	235.00
775.12	234.98
775.45	234.91
775.77	234.87
776.09	234.89
776.42	234.83
776.74	234.84
777.07	234.84
777.39	234.89
777.72	234.70
778.04	234.75
778.36	234.63
778.69	234.48
779.01	234.40
779.33	234.20
779.66	233.90
779.98	233.88
780.31	233.89
780.63	233.90
780.95	233.83
781.28	233.74
781.60	233.71
781.92	233.58
782.25	233.41
782.57	233.40
782.89	233.45
783.22	233.47
783.54	233.50
783.86	233.48
784.19	233.34
784.51	233.35
784.83	233.37
785.16	233.40
785.48	233.36
785.80	233.20
786.12	233.24
786.45	233.28
786.77	233.18
787.09	233.17
787.42	233.07
787.74	233.08
788.06	232.96
788.38	232.83
788.71	232.77
789.03	232.82
789.35	232.80
789.67	232.58
789.99	232.55
790.32	232.34
790.64	232.26
790.96	232.27
791.28	232.18
791.61	231.96
791.93	231.87
792.25	231.80
792.57	231.93
792.89	231.72
793.21	231.57
793.54	231.44
793.86	231.23
794.18	231.10
794.50	231.00
794.82	231.00
795.14	231.01
795.47	231.10
795.79	231.04
796.11	231.01
796.43	230.99
796.75	230.81
797.07	230.78
797.39	230.73
797.71	230.60
798.04	230.52
798.36	230.64
798.68	230.57
799.00	230.56
799.32	230.41
799.64	230.47
799.96	230.43
800.28	230.58
800.60	230.63
800.92	230.59
801.24	230.51
801.56	230.41
801.89	230.38
802.21	230.19
802.53	230.09
802.85	230.00
803.17	230.05
803.49	229.99
803.81	229.92
804.13	229.81
804.45	229.80
804.77	229.85
805.09	229.80
805.41	229.80
805.73	229.57
806.05	229.49
806.37	229.40
806.69	229.40
807.01	229.32
807.33	229.22
807.65	229.10
807.97	229.21
808.28	229.31
808.60	229.20
808.92	229.19
809.24	229.22
809.56	229.16
809.88	229.03
810.20	229.07
810.52	229.06
810.84	229.01
811.16	228.93
811.48	228.89
811.80	228.84
812.12	228.71
812.43	228.89
812.75	228.90
813.07	228.87
813.39	228.84
813.71	228.83
814.03	228.83
814.35	228.95
814.67	228.76
814.98	228.69
815.30	228.78
815.62	228.80
815.94	228.78
816.26	228.83
816.58	228.94
816.89	228.98
817.21	229.06
817.53	229.24
817.85	229.35
818.17	229.36
818.48	229.42
818.80	229.58
819.12	229.56
819.44	229.56
819.76	229.59
820.07	229.66
820.39	229.68
820.71	229.79
821.03	229.80
821.34	229.95
821.66	229.99
821.98	230.09
822.30	230.05
822.61	230.13
822.93	230.15
823.25	230.23
823.57	230.15
823.88	230.19
824.20	230.10
824.52	230.10
824.83	230.12
825.15	230.17
825.47	230.23
825.79	230.32
826.10	230.29
826.42	230.30
826.74	230.34
827.05	230.37
827.37	230.41
827.69	230.36
828.00	230.35
828.32	230.37
828.64	230.27
828.95	230.40
829.27	230.43
829.58	230.35
829.90	230.29
830.22	230.34
830.53	230.34
830.85	230.28
831.17	230.27
831.48	230.23
831.80	230.22
832.11	230.11
832.43	230.06
832.75	230.24
833.06	230.33
833.38	230.23
833.69	230.12
834.01	230.04
834.32	230.02
834.64	229.97
834.96	229.93
835.27	229.84
835.59	229.77
835.90	229.67
836.22	229.68
836.53	229.65
836.85	229.56
837.16	229.61
837.48	229.76
837.79	229.79
838.11	229.75
838.42	229.64
838.74	229.61
839.05	229.48
839.37	229.31
839.68	229.27
840.00	229.31
840.31	229.36
840.63	229.27
840.94	229.22
841.26	229.12
841.57	229.04
841.88	229.16
842.20	229.07
842.51	229.04
842.83	228.99
843.14	229.10
843.46	229.22
843.77	229.17
844.08	229.06
844.40	229.00
844.71	228.97
845.03	228.85
845.34	228.84
845.65	228.89
845.97	228.86
846.28	228.72
846.60	228.60
846.91	228.54
847.22	228.53
847.54	228.61
847.85	228.63
848.16	228.62
848.48	228.50
848.79	228.51
849.10	228.41
849.42	228.45
849.73	228.26
850.04	228.20
850.36	228.14
850.67	228.18
850.98	228.12
851.30	228.14
851.61	228.25
851.92	228.29
852.23	228.34
852.55	228.33
852.86	228.31
853.17	228.35
853.49	228.40
853.80	228.45
854.11	228.48
854.42	228.52
854.74	228.53
855.05	228.55
855.36	228.45
855.67	228.59
855.99	228.49
856.30	228.67
856.61	228.63
856.92	228.54
857.23	228.53
857.55	228.47
857.86	228.45
858.17	228.48
858.48	228.42
858.79	228.39
859.11	228.44
859.42	228.46
859.73	228.51
860.04	228.48
860.35	228.42
860.66	228.40
860.98	228.36
861.29	228.37
861.60	228.43
861.91	228.52
862.22	228.41
862.53	228.52
862.84	228.38
863.16	228.50
863.47	228.60
863.78	228.50
864.09	228.62
864.40	228.70
864.71	228.67
865.02	228.69
865.33	228.71
865.64	228.67
865.95	228.70
866.27	228.78
866.58	228.77
866.89	228.86
867.20	228.92
867.51	229.02
867.82	229.07
868.13	229.06
868.44	229.06
868.75	229.25
869.06	229.29
869.37	229.28
869.68	229.21
869.99	229.23
870.30	229.36
870.61	229.34
870.92	229.26
871.23	229.30
871.54	229.33
871.85	229.30
872.16	229.40
872.47	229.40
872.78	229.33
873.09	229.42
873.40	229.34
873.71	229.21
874.02	229.20
874.33	229.10
874.64	229.04
874.95	229.05
875.26	228.94
875.56	228.86
875.87	228.84
876.18	228.79
876.49	228.90
876.80	228.94
877.11	228.96
877.42	228.90
877.73	228.85
878.04	228.71
878.35	228.74
878.66	228.56
878.96	228.59
879.27	228.53
879.58	228.43
879.89	228.49
880.20	228.46
880.51	228.32
880.82	228.30
881.12	228.41
881.43	228.40
881.74	228.41
882.05	228.35
882.36	228.35
882.67	228.33
882.97	228.12
883.28	227.97
883.59	227.86
883.90	227.86
884.21	227.87
884.51	227.90
884.82	227.90
885.13	227.97
885.44	227.85
885.74	227.89
886.05	227.81
886.36	227.72
886.67	227.78
886.98	227.86
887.28	227.91
887.59	227.82
887.90	227.74
888.20	227.63
888.51	227.77
888.82	227.79
889.13	227.72
889.43	227.85
889.74	227.87
890.05	227.86
890.35	227.84
890.66	227.81
890.97	227.74
891.28	227.69
891.58	227.70
891.89	227.78
892.20	227.64
892.50	227.76
892.81	227.73
893.12	227.62
893.42	227.58
893.73	227.55
894.04	227.57
894.34	227.63
894.65	227.65
894.95	227.47
895.26	227.46
895.57	227.52
895.87	227.44
896.18	227.48
896.48	227.56
896.79	227.60
897.10	227.66
897.40	227.76
897.71	227.79
898.01	227.82
898.32	227.84
898.63	227.91
898.93	227.85
899.24	227.99
899.54	228.01
899.85	228.05
900.15	228.08
900.46	228.06
900.76	228.10
901.07	228.14
901.38	228.27
901.68	228.20
901.99	228.26
902.29	228.20
902.60	228.18
902.90	228.12
903.21	228.20
903.51	228.21
903.82	228.20
904.12	228.18
904.43	228.20
904.73	228.20
905.03	228.23
905.34	228.36
905.64	228.31
905.95	228.44
906.25	228.45
906.56	228.45
906.86	228.47
907.17	228.45
907.47	228.52
907.77	228.42
908.08	228.41
908.38	228.32
908.69	228.38
908.99	228.39
909.30	228.46
909.60	228.35
909.90	228.32
910.21	228.29
910.51	228.30
910.81	228.26
911.12	228.32
911.42	228.31
911.73	228.11
912.03	228.13
912.33	228.12
912.64	228.09
912.94	228.05
913.24	228.05
913.55	227.98
913.85	227.82
914.15	227.94
914.46	228.09
914.76	228.08
915.06	228.04
915.37	228.08
915.67	228.00
915.97	228.03
916.27	227.99
916.58	227.98
916.88	227.94
917.18	227.94
917.49	228.10
917.79	228.03
918.09	228.04
918.39	227.97
918.70	227.91
919.00	227.90
919.30	227.98
919.60	227.89
919.91	227.96
920.21	228.00
920.51	227.89
920.81	227.70
921.12	227.73
921.42	227.71
921.72	227.61
922.02	227.59
922.32	227.53
922.63	227.56
922.93	227.69
923.23	227.71
923.53	227.63
923.83	227.38
924.13	227.47
924.44	227.56
924.74	227.60
925.04	227.63
925.34	227.70
925.64	227.55
925.94	227.49
926.24	227.57
926.55	227.51
926.85	227.61
927.15	227.68
927.45	227.74
927.75	227.81
928.05	227.85
928.35	227.89
928.65	228.00
928.95	227.92
929.26	227.78
929.56	227.80
929.86	227.80
930.16	227.84
930.46	227.74
930.76	227.76
931.06	227.72
931.36	227.64
931.66	227.68
931.96	227.69
932.26	227.86
932.56	227.80
932.86	227.88
933.16	227.84
933.46	227.90
933.76	227.84
934.06	227.77
934.36	227.72
934.66	227.73
934.96	227.66
935.26	227.71
935.56	227.84
935.86	227.80
936.16	227.89
936.46	227.80
936.76	227.92
937.06	227.90
937.36	227.88
937.66	227.93
937.96	227.87
938.26	227.93
938.56	227.85
938.86	227.84
939.16	227.93
939.46	228.06
939.76	228.10
940.06	228.10
940.35	228.13
940.65	228.24
940.95	228.20
941.25	228.21
941.55	228.21
941.85	228.20
942.15	228.27
942.45	228.33
942.75	228.51
943.04	228.49
943.34	228.43
943.64	228.52
943.94	228.60
944.24	228.56
944.54	228.64
944.84	228.74
945.13	228.70
945.43	228.69
945.73	228.54
946.03	228.48
946.33	228.41
946.62	228.49
946.92	228.40
947.22	228.50
947.52	228.53
947.82	228.53
948.11	228.50
948.41	228.50
948.71	228.46
949.01	228.40
949.31	228.35
949.60	228.46
949.90	228.33
950.20	228.29
950.50	228.27
950.79	228.08
951.09	227.97
951.39	228.04
951.69	228.03
951.98	228.09
952.28	228.10
952.58	228.21
952.87	228.10
953.17	228.24
953.47	228.15
953.76	228.21
954.06	228.16
954.36	228.15
954.66	228.02
954.95	228.00
955.25	227.94
955.55	227.98
955.84	227.85
956.14	227.88
956.44	227.84
956.73	227.87
957.03	227.98
957.32	227.90
957.62	227.77
957.92	227.73
958.21	227.68
958.51	227.80
958.81	227.70
959.10	227.70
959.40	227.64
959.69	227.65
959.99	227.66
960.29	227.60
960.58	227.50
960.88	227.56
961.17	227.50
961.47	227.53
961.76	227.49
962.06	227.60
962.36	227.69
962.65	227.63
962.95	227.61
963.24	227.65
963.54	227.66
963.83	227.73
964.13	227.61
964.42	227.50
964.72	227.38
965.01	227.37
965.31	227.31
965.60	227.29
965.90	227.41
966.19	227.31
966.49	227.41
966.78	227.49
967.08	227.58
967.37	227.69
967.67	227.69
967.96	227.80
968.26	227.72
968.55	227.73
968.85	227.77
969.14	227.76
969.43	227.73
969.73	227.77
970.02	227.80
970.32	227.91
970.61	228.07
970.91	228.03
971.20	228.05
971.49	228.14
971.79	228.13
972.08	228.02
972.38	228.08
972.67	228.09
972.96	228.02
973.26	227.93
973.55	227.97
973.85	228.00
974.14	227.90
974.43	227.97
974.73	227.95
975.02	227.97
975.31	228.00
975.61	227.98
975.90	227.96
976.19	227.92
976.49	227.90
976.78	227.92
977.07	227.95
977.37	228.02
977.66	228.05
977.95	228.05
978.24	228.15
978.54	228.16
978.83	228.12
979.12	228.15
979.42	228.08
979.71	227.97
980.00	227.94
980.29	228.00
980.59	227.92
980.88	227.90
981.17	227.94
981.46	227.92
981.76	227.96
982.05	228.15
982.34	228.18
982.63	228.16
982.93	228.13
983.22	228.23
983.51	228.18
983.80	228.21
984.09	228.29
984.39	228.25
984.68	228.26
984.97	228.40
985.26	228.46
985.55	228.63
985.85	228.70
986.14	228.77
986.43	228.78
986.72	228.75
987.01	228.78
987.30	228.70
987.59	228.77
987.89	228.86
988.18	228.72
988.47	228.75
988.76	228.80
989.05	228.85
989.34	228.76
989.63	228.82
989.92	228.78
990.22	228.79
990.51	228.77
990.80	228.80
991.09	228.73
991.38	228.74
991.67	228.75
991.96	228.73
992.25	228.70
992.54	228.63
992.83	228.69
993.12	228.66
993.41	228.62
993.70	228.61
993.99	228.48
994.28	228.57
994.58	228.56
994.87	228.47
995.16	228.41
995.45	228.40
995.74	228.38
996.03	228.39
996.32	228.30
996.61	228.30
996.90	228.27
997.19	228.26
997.48	228.22
997.77	228.09
998.06	227.95
998.34	227.90
998.63	227.96
998.92	228.00
999.21	228.09
999.50	228.14
999.79	228.20
1000.08	228.25
1000.37	228.20
1000.66	228.25
1000.95	228.36
1001.24	228.45
1001.53	228.47
1001.82	228.45
1002.11	228.41
1002.40	228.48
1002.68	228.54
1002.97	228.63
1003.26	228.60
1003.55	228.67
1003.84	228.85
1004.13	229.04
1004.42	229.08
1004.71	229.11
1004.99	229.00
1005.28	228.97
1005.57	228.95
1005.86	228.92
1006.15	228.92
1006.44	228.87
1006.72	228.85
1007.01	228.76
1007.30	228.70
1007.59	228.66
1007.88	228.64
1008.17	228.70
1008.45	228.73
1008.74	228.66
1009.03	228.46
1009.32	228.46
1009.60	228.30
1009.89	228.08
1010.18	227.93
1010.47	227.91
1010.76	227.77
1011.04	227.84
1011.33	227.85
1011.62	227.87
1011.91	227.80
1012.19	227.77
1012.48	227.76
1012.77	227.68
1013.05	227.85
1013.34	227.81
1013.63	227.74
1013.92	227.71
1014.20	227.65
1014.49	227.52
1014.78	227.53
1015.06	227.57
1015.35	227.54
1015.64	227.75
1015.92	227.84
1016.21	227.94
1016.50	227.85
1016.78	227.89
1017.07	227.89
1017.36	227.86
1017.64	227.77
1017.93	227.70
1018.22	227.71
1018.50	227.71
1018.79	227.70
1019.08	227.55
1019.36	227.52
1019.65	227.50
1019.93	227.59
1020.22	227.68
1020.51	227.83
1020.79	227.80
1021.08	227.40
1021.36	226.80
1021.65	227.20
1021.94	227.60
1022.22	227.20
1022.51	226.10
1022.79	228.90
1023.08	229.30
1023.36	230.60
1023.65	227.40
>>>>>End Processed Spectral Data<<<<<
