SpectraSuite Data File
++++++++++++++++++++++++++++++++++++
Date: Fri Feb 01 14:38:57 EST 2013
User: group
Dark Spectrum Present: No
Reference Spectrum Present: No
Number of Sampled Component Spectra: 1
Spectrometers: USB2E7196
Integration Time (usec): 70000 (USB2E7196)
Spectra Averaged: 10 (USB2E7196)
Boxcar Smoothing: 10 (USB2E7196)
Correct for Electrical Dark: No (USB2E7196)
Strobe/Lamp Enabled: No (USB2E7196)
Correct for Detector Non-linearity: No (USB2E7196)
Correct for Stray Light: No (USB2E7196)
Number of Pixels in Processed Spectrum: 2048
>>>>>Begin Processed Spectral Data<<<<<
339.09	0.00
339.48	215.90
339.86	218.40
340.24	218.90
340.63	219.90
341.01	223.70
341.39	224.10
341.78	224.30
342.16	227.40
342.54	227.90
342.93	214.52
343.31	225.34
343.69	225.94
344.07	226.41
344.46	226.82
344.84	227.19
345.22	227.37
345.60	227.49
345.99	227.61
346.37	227.67
346.75	227.64
347.13	227.67
347.52	227.77
347.90	227.77
348.28	227.73
348.66	227.77
349.05	227.68
349.43	227.76
349.81	227.67
350.19	227.70
350.57	227.74
350.96	227.72
351.34	227.74
351.72	227.74
352.10	227.72
352.48	227.80
352.87	227.92
353.25	227.92
353.63	228.00
354.01	228.07
354.39	228.02
354.77	228.13
355.15	228.20
355.54	228.24
355.92	228.27
356.30	228.34
356.68	228.55
357.06	228.65
357.44	228.63
357.82	228.76
358.20	228.80
358.58	228.87
358.97	229.00
359.35	229.08
359.73	229.15
360.11	229.29
360.49	229.30
360.87	229.28
361.25	229.37
361.63	229.50
362.01	229.52
362.39	229.62
362.77	229.66
363.15	229.74
363.53	229.77
363.91	229.88
364.29	229.92
364.67	229.70
365.05	229.79
365.43	229.90
365.81	229.97
366.19	230.03
366.57	229.99
366.95	229.97
367.33	229.86
367.71	229.86
368.09	229.88
368.47	229.91
368.85	229.89
369.23	229.85
369.61	229.78
369.99	229.78
370.37	229.77
370.75	229.79
371.13	229.71
371.51	229.59
371.89	229.50
372.27	229.46
372.65	229.47
373.03	229.46
373.41	229.31
373.78	229.23
374.16	229.20
374.54	229.11
374.92	229.05
375.30	229.02
375.68	228.93
376.06	228.82
376.44	228.76
376.82	228.67
377.19	228.57
377.57	228.40
377.95	228.29
378.33	228.16
378.71	227.96
379.09	227.93
379.47	227.90
379.84	227.80
380.22	227.73
380.60	227.55
380.98	227.44
381.36	227.40
381.73	227.27
382.11	227.25
382.49	227.22
382.87	227.12
383.25	227.12
383.62	227.15
384.00	227.10
384.38	227.04
384.76	227.04
385.13	227.18
385.51	227.19
385.89	227.14
386.27	227.14
386.64	227.10
387.02	227.00
387.40	226.92
387.78	226.87
388.15	226.81
388.53	226.75
388.91	226.70
389.29	226.59
389.66	226.76
390.04	226.59
390.42	226.61
390.79	226.64
391.17	226.74
391.55	226.62
391.92	226.60
392.30	226.51
392.68	226.43
393.05	226.41
393.43	226.46
393.81	226.54
394.18	226.50
394.56	226.53
394.94	226.54
395.31	226.57
395.69	226.66
396.06	226.75
396.44	226.92
396.82	226.90
397.19	227.11
397.57	227.08
397.95	227.22
398.32	227.27
398.70	227.36
399.07	227.33
399.45	227.48
399.82	227.53
400.20	227.62
400.58	227.84
400.95	227.81
401.33	228.01
401.70	228.22
402.08	228.38
402.45	228.57
402.83	228.84
403.20	228.99
403.58	229.07
403.95	229.22
404.33	229.38
404.71	229.60
405.08	229.96
405.46	230.12
405.83	230.34
406.21	230.50
406.58	230.73
406.96	230.97
407.33	231.10
407.70	231.32
408.08	231.85
408.45	232.02
408.83	232.34
409.20	232.52
409.58	232.71
409.95	233.10
410.33	233.34
410.70	233.54
411.08	233.86
411.45	234.26
411.82	234.62
412.20	235.01
412.57	235.41
412.95	235.60
413.32	236.04
413.69	236.32
414.07	236.86
414.44	237.29
414.82	237.73
415.19	238.44
415.56	239.00
415.94	239.50
416.31	240.25
416.68	240.90
417.06	241.70
417.43	242.47
417.81	243.24
418.18	244.19
418.55	245.07
418.93	246.16
419.30	247.10
419.67	248.21
420.04	249.23
420.42	250.32
420.79	251.70
421.16	252.98
421.54	254.48
421.91	255.85
422.28	257.27
422.66	258.84
423.03	260.31
423.40	261.98
423.77	263.61
424.15	265.18
424.52	266.94
424.89	268.80
425.26	270.52
425.64	272.24
426.01	274.02
426.38	275.97
426.75	277.89
427.13	279.90
427.50	282.10
427.87	284.39
428.24	286.59
428.61	288.47
428.99	290.81
429.36	293.33
429.73	295.84
430.10	298.24
430.47	300.75
430.85	303.23
431.22	305.89
431.59	308.87
431.96	311.62
432.33	314.60
432.70	317.41
433.08	321.12
433.45	324.27
433.82	327.65
434.19	331.24
434.56	334.74
434.93	338.05
435.30	341.21
435.68	344.89
436.05	348.56
436.42	352.17
436.79	355.40
437.16	358.84
437.53	362.36
437.90	366.06
438.27	369.65
438.64	373.36
439.01	376.80
439.38	379.63
439.75	382.42
440.13	385.82
440.50	388.96
440.87	391.31
441.24	394.00
441.61	396.77
441.98	398.77
442.35	401.20
442.72	403.83
443.09	406.50
443.46	407.90
443.83	409.01
444.20	409.77
444.57	411.13
444.94	411.74
445.31	412.55
445.68	413.43
446.05	413.82
446.42	413.45
446.79	413.22
447.16	412.94
447.53	412.95
447.90	411.68
448.27	410.65
448.64	408.90
449.01	407.87
449.37	405.82
449.74	403.85
450.11	401.44
450.48	398.62
450.85	395.60
451.22	393.15
451.59	390.75
451.96	388.75
452.33	385.68
452.70	382.95
453.07	379.52
453.43	376.07
453.80	372.71
454.17	369.68
454.54	366.67
454.91	363.39
455.28	360.11
455.65	357.16
456.02	354.22
456.38	351.70
456.75	348.36
457.12	345.48
457.49	342.81
457.86	340.07
458.23	337.83
458.59	335.42
458.96	332.91
459.33	330.52
459.70	328.14
460.07	326.30
460.43	324.11
460.80	322.10
461.17	320.17
461.54	318.31
461.91	316.48
462.27	314.60
462.64	312.90
463.01	311.20
463.38	309.53
463.74	307.64
464.11	305.98
464.48	304.69
464.85	303.15
465.21	302.00
465.58	300.85
465.95	299.34
466.32	298.01
466.68	296.77
467.05	295.62
467.42	294.43
467.78	293.13
468.15	291.91
468.52	291.01
468.88	289.85
469.25	288.79
469.62	287.97
469.98	286.97
470.35	286.12
470.72	285.38
471.08	284.44
471.45	283.60
471.82	282.94
472.18	281.98
472.55	281.39
472.92	280.49
473.28	279.69
473.65	279.09
474.02	278.21
474.38	277.68
474.75	276.96
475.11	276.31
475.48	275.81
475.85	275.34
476.21	274.74
476.58	274.19
476.94	273.70
477.31	273.20
477.67	272.70
478.04	272.33
478.41	271.87
478.77	271.69
479.14	271.33
479.50	270.94
479.87	270.65
480.23	270.38
480.60	270.09
480.96	269.79
481.33	269.43
481.69	269.34
482.06	269.01
482.42	268.93
482.79	268.78
483.15	268.57
483.52	268.48
483.88	268.37
484.25	268.35
484.61	268.34
484.98	268.20
485.34	268.22
485.71	268.18
486.07	268.22
486.44	268.09
486.80	268.09
487.17	267.96
487.53	268.01
487.90	268.10
488.26	268.22
488.62	268.36
488.99	268.39
489.35	268.49
489.72	268.69
490.08	268.90
490.44	269.09
490.81	269.35
491.17	269.48
491.54	269.62
491.90	269.67
492.26	269.80
492.63	270.09
492.99	270.26
493.36	270.36
493.72	270.53
494.08	270.73
494.45	271.08
494.81	271.55
495.17	271.80
495.54	272.09
495.90	272.30
496.26	272.57
496.63	273.01
496.99	273.36
497.35	273.68
497.72	274.00
498.08	274.31
498.44	274.68
498.80	275.12
499.17	275.57
499.53	276.09
499.89	276.62
500.26	276.98
500.62	277.38
500.98	277.93
501.34	278.36
501.71	278.86
502.07	279.23
502.43	279.63
502.79	280.20
503.16	280.68
503.52	281.32
503.88	281.79
504.24	282.36
504.60	282.90
504.97	283.51
505.33	284.06
505.69	284.70
506.05	285.21
506.41	285.87
506.78	286.56
507.14	287.25
507.50	287.93
507.86	288.68
508.22	289.64
508.59	290.50
508.95	291.33
509.31	292.31
509.67	293.39
510.03	294.28
510.39	295.20
510.75	296.30
511.12	297.39
511.48	298.54
511.84	299.71
512.20	300.92
512.56	302.14
512.92	303.43
513.28	304.92
513.64	306.40
514.00	307.80
514.37	309.50
514.73	311.20
515.09	312.88
515.45	314.62
515.81	316.30
516.17	318.21
516.53	320.27
516.89	322.18
517.25	324.17
517.61	326.46
517.97	328.78
518.33	331.17
518.69	333.57
519.05	336.10
519.41	338.69
519.77	341.52
520.13	344.21
520.49	347.06
520.85	349.88
521.21	353.03
521.57	356.10
521.93	358.96
522.29	362.09
522.65	365.34
523.01	368.71
523.37	372.20
523.73	375.65
524.09	379.17
524.45	382.97
524.81	386.85
525.17	390.92
525.53	395.08
525.89	399.16
526.25	403.35
526.61	407.59
526.97	411.85
527.33	416.24
527.68	420.99
528.04	425.73
528.40	430.37
528.76	435.18
529.12	440.26
529.48	445.43
529.84	450.50
530.20	455.79
530.56	461.09
530.91	466.58
531.27	472.21
531.63	477.87
531.99	483.53
532.35	489.16
532.71	494.65
533.07	500.35
533.42	506.20
533.78	512.16
534.14	518.24
534.50	524.06
534.86	530.19
535.21	536.23
535.57	542.61
535.93	548.92
536.29	555.23
536.65	561.51
537.00	567.88
537.36	574.26
537.72	580.53
538.08	587.02
538.44	593.16
538.79	599.60
539.15	606.13
539.51	612.62
539.87	619.25
540.22	626.15
540.58	632.74
540.94	639.16
541.29	645.76
541.65	652.26
542.01	659.41
542.37	666.15
542.72	672.88
543.08	679.50
543.44	686.38
543.79	692.82
544.15	699.65
544.51	706.70
544.87	713.67
545.22	720.57
545.58	727.45
545.94	734.35
546.29	740.93
546.65	747.42
547.01	754.14
547.36	760.57
547.72	766.91
548.07	773.73
548.43	780.31
548.79	786.90
549.14	793.40
549.50	799.43
549.86	805.47
550.21	811.74
550.57	818.12
550.92	824.55
551.28	830.62
551.64	836.65
551.99	842.85
552.35	848.82
552.70	854.66
553.06	860.79
553.41	866.64
553.77	872.59
554.13	878.58
554.48	884.58
554.84	890.67
555.19	896.55
555.55	902.16
555.90	907.80
556.26	913.54
556.61	919.16
556.97	924.90
557.32	930.51
557.68	936.10
558.03	941.30
558.39	946.62
558.74	952.25
559.10	957.76
559.45	962.79
559.81	968.21
560.16	973.69
560.52	978.95
560.87	984.40
561.23	989.20
561.58	994.38
561.94	998.80
562.29	1003.20
562.64	1007.79
563.00	1012.53
563.35	1017.61
563.71	1022.49
564.06	1027.34
564.42	1031.80
564.77	1036.49
565.12	1041.18
565.48	1045.88
565.83	1049.75
566.19	1054.13
566.54	1058.27
566.89	1062.22
567.25	1066.01
567.60	1070.20
567.96	1073.63
568.31	1077.11
568.66	1081.17
569.02	1084.53
569.37	1088.15
569.72	1091.80
570.08	1095.10
570.43	1098.14
570.78	1101.20
571.14	1103.72
571.49	1106.23
571.84	1109.87
572.20	1112.52
572.55	1114.81
572.90	1116.93
573.26	1119.67
573.61	1121.87
573.96	1123.63
574.31	1125.53
574.67	1126.84
575.02	1128.01
575.37	1129.57
575.72	1131.12
576.08	1132.55
576.43	1133.92
576.78	1135.36
577.13	1136.56
577.49	1138.17
577.84	1139.46
578.19	1140.23
578.54	1140.96
578.90	1141.90
579.25	1141.73
579.60	1142.04
579.95	1142.50
580.30	1142.71
580.66	1142.77
581.01	1142.92
581.36	1143.19
581.71	1143.67
582.06	1143.75
582.42	1143.92
582.77	1143.79
583.12	1143.57
583.47	1143.45
583.82	1143.29
584.17	1142.88
584.53	1142.96
584.88	1142.67
585.23	1142.05
585.58	1141.90
585.93	1141.55
586.28	1141.17
586.63	1140.83
586.98	1140.31
587.34	1139.92
587.69	1139.38
588.04	1139.03
588.39	1138.44
588.74	1137.41
589.09	1136.17
589.44	1135.32
589.79	1134.26
590.14	1133.70
590.49	1132.40
590.84	1131.20
591.19	1130.02
591.54	1128.40
591.89	1126.06
592.25	1124.31
592.60	1122.51
592.95	1120.19
593.30	1118.29
593.65	1116.10
594.00	1114.00
594.35	1112.65
594.70	1110.24
595.05	1108.20
595.40	1105.83
595.75	1103.48
596.10	1101.62
596.45	1099.99
596.80	1098.26
597.15	1096.37
597.50	1094.24
597.85	1092.77
598.19	1090.78
598.54	1089.06
598.89	1087.30
599.24	1085.97
599.59	1083.84
599.94	1081.86
600.29	1080.21
600.64	1078.16
600.99	1075.84
601.34	1073.75
601.69	1071.24
602.04	1069.45
602.39	1067.48
602.74	1065.51
603.08	1063.56
603.43	1061.67
603.78	1059.16
604.13	1056.72
604.48	1054.26
604.83	1051.67
605.18	1049.31
605.53	1046.46
605.87	1043.23
606.22	1041.01
606.57	1038.16
606.92	1035.58
607.27	1033.13
607.62	1030.53
607.96	1028.01
608.31	1025.67
608.66	1022.55
609.01	1019.37
609.36	1015.69
609.70	1012.01
610.05	1008.73
610.40	1005.66
610.75	1002.11
611.10	998.60
611.44	995.08
611.79	991.67
612.14	988.46
612.49	984.25
612.83	980.78
613.18	977.36
613.53	973.67
613.88	970.02
614.22	966.15
614.57	961.99
614.92	957.96
615.27	954.39
615.61	950.53
615.96	947.22
616.31	944.00
616.65	940.98
617.00	937.94
617.35	934.22
617.70	930.45
618.04	926.91
618.39	923.30
618.74	920.20
619.08	916.51
619.43	912.61
619.78	909.24
620.12	905.85
620.47	902.24
620.82	898.33
621.16	894.71
621.51	891.17
621.85	888.02
622.20	884.61
622.55	880.83
622.89	877.60
623.24	874.26
623.59	870.70
623.93	867.33
624.28	863.60
624.62	860.35
624.97	857.15
625.32	853.69
625.66	850.40
626.01	846.87
626.35	843.60
626.70	840.22
627.04	836.81
627.39	832.97
627.73	829.67
628.08	826.40
628.43	823.09
628.77	819.70
629.12	815.92
629.46	812.23
629.81	808.47
630.15	804.52
630.50	800.47
630.84	796.34
631.19	792.32
631.53	788.89
631.88	784.87
632.22	780.77
632.57	777.13
632.91	773.28
633.26	769.48
633.60	765.46
633.95	761.60
634.29	758.11
634.64	754.83
634.98	751.17
635.32	747.48
635.67	743.96
636.01	740.42
636.36	736.96
636.70	733.60
637.05	730.46
637.39	727.38
637.73	724.23
638.08	721.50
638.42	718.65
638.77	715.25
639.11	711.92
639.45	708.53
639.80	704.95
640.14	701.95
640.49	698.59
640.83	695.49
641.17	692.50
641.52	689.26
641.86	685.82
642.20	682.65
642.55	679.55
642.89	676.33
643.23	672.93
643.58	670.04
643.92	666.66
644.26	663.63
644.61	660.46
644.95	657.32
645.29	653.63
645.64	649.92
645.98	646.65
646.32	643.48
646.66	640.46
647.01	637.40
647.35	634.04
647.69	630.75
648.04	627.83
648.38	624.45
648.72	621.00
649.06	617.76
649.41	614.37
649.75	610.95
650.09	607.72
650.43	604.72
650.78	601.20
651.12	597.88
651.46	594.40
651.80	591.11
652.14	587.83
652.49	584.89
652.83	581.90
653.17	578.85
653.51	575.76
653.85	572.43
654.20	569.22
654.54	566.00
654.88	562.83
655.22	559.42
655.56	556.47
655.90	553.61
656.25	550.78
656.59	547.89
656.93	544.92
657.27	542.01
657.61	538.77
657.95	536.16
658.29	533.53
658.64	530.78
658.98	527.80
659.32	524.95
659.66	521.98
660.00	519.22
660.34	516.20
660.68	513.40
661.02	510.61
661.36	508.01
661.70	505.35
662.05	502.95
662.39	500.63
662.73	498.02
663.07	495.63
663.41	493.11
663.75	490.57
664.09	488.13
664.43	485.64
664.77	483.37
665.11	480.88
665.45	478.49
665.79	476.01
666.13	473.73
666.47	471.40
666.81	469.04
667.15	466.54
667.49	464.38
667.83	462.23
668.17	459.90
668.51	457.52
668.85	455.27
669.19	453.27
669.53	450.79
669.87	448.31
670.21	445.99
670.55	443.73
670.89	441.88
671.23	439.84
671.57	437.80
671.91	435.71
672.25	433.58
672.58	431.73
672.92	429.87
673.26	427.74
673.60	425.94
673.94	424.10
674.28	422.26
674.62	420.46
674.96	418.54
675.30	416.89
675.64	415.31
675.97	413.56
676.31	411.74
676.65	410.15
676.99	408.84
677.33	407.08
677.67	405.37
678.01	403.44
678.34	401.62
678.68	399.96
679.02	398.34
679.36	396.87
679.70	395.17
680.04	393.54
680.37	392.07
680.71	390.40
681.05	388.83
681.39	387.48
681.73	385.99
682.06	384.65
682.40	383.21
682.74	381.80
683.08	380.48
683.42	378.84
683.75	377.39
684.09	375.64
684.43	374.32
684.77	372.94
685.10	371.67
685.44	370.35
685.78	368.91
686.12	367.56
686.45	366.19
686.79	364.85
687.13	363.40
687.46	362.04
687.80	360.67
688.14	359.33
688.48	357.90
688.81	356.60
689.15	355.30
689.49	353.99
689.82	352.65
690.16	351.27
690.50	350.00
690.83	348.74
691.17	347.50
691.51	346.20
691.84	344.99
692.18	343.75
692.52	342.49
692.85	341.31
693.19	340.17
693.52	338.90
693.86	337.63
694.20	336.41
694.53	335.16
694.87	333.88
695.21	332.67
695.54	331.39
695.88	330.09
696.21	328.89
696.55	327.70
696.88	326.50
697.22	325.54
697.56	324.39
697.89	323.13
698.23	321.97
698.56	320.85
698.90	319.82
699.23	318.61
699.57	317.52
699.90	316.35
700.24	315.15
700.58	314.10
700.91	313.00
701.25	312.03
701.58	311.17
701.92	310.40
702.25	309.47
702.59	308.59
702.92	307.67
703.26	306.78
703.59	305.98
703.93	305.22
704.26	304.12
704.60	303.29
704.93	302.60
705.26	301.93
705.60	301.08
705.93	300.13
706.27	299.44
706.60	298.67
706.94	297.99
707.27	297.30
707.61	296.47
707.94	295.75
708.27	294.95
708.61	294.10
708.94	293.27
709.28	292.53
709.61	291.81
709.94	291.15
710.28	290.34
710.61	289.53
710.95	288.68
711.28	288.10
711.61	287.42
711.95	286.73
712.28	285.92
712.61	285.32
712.95	284.79
713.28	284.12
713.61	283.63
713.95	282.90
714.28	282.38
714.61	281.71
714.95	281.13
715.28	280.55
715.61	279.93
715.95	279.42
716.28	278.85
716.61	278.36
716.95	277.82
717.28	277.34
717.61	276.84
717.94	276.32
718.28	275.78
718.61	275.29
718.94	274.86
719.27	274.45
719.61	274.06
719.94	273.64
720.27	273.11
720.60	272.48
720.94	271.99
721.27	271.52
721.60	271.21
721.93	270.87
722.27	270.50
722.60	270.29
722.93	269.80
723.26	269.50
723.59	269.04
723.93	268.56
724.26	268.08
724.59	267.83
724.92	267.41
725.25	267.05
725.59	266.62
725.92	266.15
726.25	265.79
726.58	265.31
726.91	264.89
727.24	264.60
727.57	264.27
727.91	264.05
728.24	263.68
728.57	263.11
728.90	262.72
729.23	262.29
729.56	261.76
729.89	261.47
730.22	261.02
730.55	260.75
730.89	260.47
731.22	260.18
731.55	259.73
731.88	259.41
732.21	259.11
732.54	258.79
732.87	258.40
733.20	258.18
733.53	257.86
733.86	257.54
734.19	257.19
734.52	257.01
734.85	256.75
735.18	256.40
735.51	256.37
735.84	256.07
736.17	255.89
736.50	255.70
736.83	255.64
737.16	255.38
737.49	255.07
737.82	254.79
738.15	254.57
738.48	254.14
738.81	253.90
739.14	253.63
739.47	253.40
739.80	253.22
740.13	252.89
740.46	252.63
740.79	252.30
741.12	252.10
741.45	251.69
741.78	251.37
742.11	251.18
742.44	250.70
742.77	250.48
743.10	250.12
743.43	249.81
743.75	249.28
744.08	249.28
744.41	249.06
744.74	248.95
745.07	248.64
745.40	248.54
745.73	248.32
746.06	248.04
746.39	247.88
746.71	247.46
747.04	247.14
747.37	246.87
747.70	246.77
748.03	246.36
748.36	246.21
748.68	246.00
749.01	245.69
749.34	245.45
749.67	245.22
750.00	245.08
750.33	245.04
750.65	244.82
750.98	244.36
751.31	244.03
751.64	243.66
751.97	243.54
752.29	243.39
752.62	243.10
752.95	242.84
753.28	242.51
753.60	242.44
753.93	242.30
754.26	242.23
754.59	241.90
754.91	241.79
755.24	241.61
755.57	241.42
755.90	241.30
756.22	241.23
756.55	241.09
756.88	240.98
757.20	240.73
757.53	240.61
757.86	240.49
758.19	240.44
758.51	240.36
758.84	240.12
759.17	239.93
759.49	239.91
759.82	239.98
760.15	239.94
760.47	239.89
760.80	239.73
761.13	239.67
761.45	239.63
761.78	239.54
762.11	239.42
762.43	239.27
762.76	239.15
763.08	239.12
763.41	239.01
763.74	238.82
764.06	238.66
764.39	238.55
764.71	238.51
765.04	238.42
765.37	238.33
765.69	238.27
766.02	238.13
766.34	237.94
766.67	237.80
767.00	237.70
767.32	237.70
767.65	237.83
767.97	237.63
768.30	237.51
768.62	237.43
768.95	237.36
769.27	237.33
769.60	237.23
769.92	237.07
770.25	236.95
770.57	236.88
770.90	236.85
771.22	236.76
771.55	236.72
771.87	236.56
772.20	236.49
772.52	236.53
772.85	236.77
773.17	236.75
773.50	236.57
773.82	236.50
774.15	236.23
774.47	235.93
774.80	235.89
775.12	235.77
775.45	235.77
775.77	235.64
776.09	235.57
776.42	235.55
776.74	235.50
777.07	235.42
777.39	235.37
777.72	235.29
778.04	235.25
778.36	235.12
778.69	235.14
779.01	235.08
779.33	234.90
779.66	234.55
779.98	234.50
780.31	234.43
780.63	234.44
780.95	234.45
781.28	234.40
781.60	234.26
781.92	234.26
782.25	234.14
782.57	234.08
782.89	233.95
783.22	233.85
783.54	233.83
783.86	233.82
784.19	233.72
784.51	233.70
784.83	233.49
785.16	233.37
785.48	233.30
785.80	233.16
786.12	233.00
786.45	233.02
786.77	232.93
787.09	232.82
787.42	232.66
787.74	232.62
788.06	232.63
788.38	232.63
788.71	232.61
789.03	232.60
789.35	232.64
789.67	232.61
789.99	232.58
790.32	232.45
790.64	232.42
790.96	232.51
791.28	232.38
791.61	232.40
791.93	232.50
792.25	232.39
792.57	232.48
792.89	232.57
793.21	232.48
793.54	232.39
793.86	232.35
794.18	232.40
794.50	232.32
794.82	232.37
795.14	232.28
795.47	232.24
795.79	232.19
796.11	231.96
796.43	231.93
796.75	231.84
797.07	231.84
797.39	231.71
797.71	231.49
798.04	231.50
798.36	231.39
798.68	231.25
799.00	231.17
799.32	231.14
799.64	231.04
799.96	231.04
800.28	231.03
800.60	231.07
800.92	230.98
801.24	230.89
801.56	230.87
801.89	230.84
802.21	230.83
802.53	230.69
802.85	230.83
803.17	230.95
803.49	230.99
803.81	230.90
804.13	230.90
804.45	230.98
804.77	230.90
805.09	230.97
805.41	230.90
805.73	230.88
806.05	230.77
806.37	230.77
806.69	230.67
807.01	230.82
807.33	230.82
807.65	230.81
807.97	230.88
808.28	230.78
808.60	230.72
808.92	230.68
809.24	230.79
809.56	230.75
809.88	230.63
810.20	230.50
810.52	230.65
810.84	230.52
811.16	230.46
811.48	230.40
811.80	230.44
812.12	230.34
812.43	230.33
812.75	230.30
813.07	230.22
813.39	230.27
813.71	230.00
814.03	229.89
814.35	229.84
814.67	229.77
814.98	229.72
815.30	229.73
815.62	229.60
815.94	229.53
816.26	229.57
816.58	229.43
816.89	229.55
817.21	229.46
817.53	229.60
817.85	229.52
818.17	229.58
818.48	229.50
818.80	229.58
819.12	229.63
819.44	229.56
819.76	229.52
820.07	229.59
820.39	229.62
820.71	229.61
821.03	229.59
821.34	229.60
821.66	229.57
821.98	229.64
822.30	229.58
822.61	229.63
822.93	229.52
823.25	229.53
823.57	229.38
823.88	229.37
824.20	229.29
824.52	229.39
824.83	229.34
825.15	229.34
825.47	229.27
825.79	229.22
826.10	229.27
826.42	229.33
826.74	229.25
827.05	229.28
827.37	229.35
827.69	229.38
828.00	229.28
828.32	229.31
828.64	229.18
828.95	229.26
829.27	229.21
829.58	229.17
829.90	229.24
830.22	229.29
830.53	229.16
830.85	229.11
831.17	229.07
831.48	229.07
831.80	229.01
832.11	229.11
832.43	229.02
832.75	229.00
833.06	229.14
833.38	229.11
833.69	229.09
834.01	229.12
834.32	229.02
834.64	229.10
834.96	229.09
835.27	229.08
835.59	229.10
835.90	228.99
836.22	228.92
836.53	228.75
836.85	228.67
837.16	228.92
837.48	228.96
837.79	228.86
838.11	228.79
838.42	228.81
838.74	228.80
839.05	228.83
839.37	228.86
839.68	228.70
840.00	228.69
840.31	228.69
840.63	228.61
840.94	228.63
841.26	228.65
841.57	228.63
841.88	228.66
842.20	228.68
842.51	228.72
842.83	228.82
843.14	229.17
843.46	229.24
843.77	229.10
844.08	229.02
844.40	229.17
844.71	229.20
845.03	229.21
845.34	229.23
845.65	229.25
845.97	229.32
846.28	229.18
846.60	229.20
846.91	229.15
847.22	229.20
847.54	229.23
847.85	229.23
848.16	229.26
848.48	229.32
848.79	229.42
849.10	229.39
849.42	229.38
849.73	229.11
850.04	229.08
850.36	229.15
850.67	229.30
850.98	229.25
851.30	229.28
851.61	229.30
851.92	229.26
852.23	229.35
852.55	229.26
852.86	229.40
853.17	229.40
853.49	229.54
853.80	229.54
854.11	229.61
854.42	229.55
854.74	229.60
855.05	229.52
855.36	229.32
855.67	229.41
855.99	229.47
856.30	229.81
856.61	229.86
856.92	229.82
857.23	229.74
857.55	229.70
857.86	229.65
858.17	229.61
858.48	229.56
858.79	229.52
859.11	229.57
859.42	229.57
859.73	229.58
860.04	229.50
860.35	229.45
860.66	229.32
860.98	229.40
861.29	229.35
861.60	229.38
861.91	229.47
862.22	229.35
862.53	229.30
862.84	228.97
863.16	228.97
863.47	228.93
863.78	228.95
864.09	228.93
864.40	228.93
864.71	228.93
865.02	228.90
865.33	228.90
865.64	228.84
865.95	228.76
866.27	228.86
866.58	228.82
866.89	228.81
867.20	228.74
867.51	228.67
867.82	228.63
868.13	228.66
868.44	228.48
868.75	228.55
869.06	228.57
869.37	228.49
869.68	228.41
869.99	228.26
870.30	228.36
870.61	228.40
870.92	228.39
871.23	228.36
871.54	228.41
871.85	228.34
872.16	228.27
872.47	228.27
872.78	228.06
873.09	228.09
873.40	228.07
873.71	228.20
874.02	228.10
874.33	228.07
874.64	227.97
874.95	228.06
875.26	227.99
875.56	227.90
875.87	228.02
876.18	228.06
876.49	228.42
876.80	228.27
877.11	228.26
877.42	228.29
877.73	228.29
878.04	228.35
878.35	228.31
878.66	228.32
878.96	228.36
879.27	228.39
879.58	228.32
879.89	228.29
880.20	228.19
880.51	228.27
880.82	228.27
881.12	228.37
881.43	228.47
881.74	228.40
882.05	228.36
882.36	228.29
882.67	228.36
882.97	228.09
883.28	228.18
883.59	228.10
883.90	228.15
884.21	228.23
884.51	228.17
884.82	228.27
885.13	228.40
885.44	228.35
885.74	228.35
886.05	228.36
886.36	228.37
886.67	228.37
886.98	228.46
887.28	228.49
887.59	228.54
887.90	228.37
888.20	228.51
888.51	228.65
888.82	228.69
889.13	228.68
889.43	228.88
889.74	228.90
890.05	228.87
890.35	228.86
890.66	228.81
890.97	228.79
891.28	228.65
891.58	228.64
891.89	228.75
892.20	228.81
892.50	228.92
892.81	228.85
893.12	228.91
893.42	228.83
893.73	228.87
894.04	228.82
894.34	228.92
894.65	228.96
894.95	228.93
895.26	228.88
895.57	228.98
895.87	228.82
896.18	228.79
896.48	228.92
896.79	228.95
897.10	229.02
897.40	228.98
897.71	229.10
898.01	229.12
898.32	229.08
898.63	229.00
898.93	228.96
899.24	229.09
899.54	229.17
899.85	229.21
900.15	229.22
900.46	229.14
900.76	229.21
901.07	229.16
901.38	229.16
901.68	229.22
901.99	229.02
902.29	228.97
902.60	228.91
902.90	228.85
903.21	228.78
903.51	228.71
903.82	228.76
904.12	228.70
904.43	228.69
904.73	228.71
905.03	228.71
905.34	228.88
905.64	228.73
905.95	228.61
906.25	228.53
906.56	228.47
906.86	228.47
907.17	228.37
907.47	228.34
907.77	228.29
908.08	228.32
908.38	228.39
908.69	228.35
908.99	228.46
909.30	228.31
909.60	228.39
909.90	228.37
910.21	228.32
910.51	228.19
910.81	228.21
911.12	228.10
911.42	228.07
911.73	227.85
912.03	227.86
912.33	227.88
912.64	227.98
912.94	227.94
913.24	227.97
913.55	227.99
913.85	227.96
914.15	227.96
914.46	227.86
914.76	227.77
915.06	227.80
915.37	227.79
915.67	227.88
915.97	227.81
916.27	227.84
916.58	227.86
916.88	228.00
917.18	227.80
917.49	227.98
917.79	228.01
918.09	228.08
918.39	228.23
918.70	228.20
919.00	228.11
919.30	228.22
919.60	228.18
919.91	228.13
920.21	228.16
920.51	228.20
920.81	228.14
921.12	228.19
921.42	228.19
921.72	228.01
922.02	227.94
922.32	228.07
922.63	228.05
922.93	228.24
923.23	228.19
923.53	228.24
923.83	228.18
924.13	228.21
924.44	228.18
924.74	228.15
925.04	228.20
925.34	228.20
925.64	228.16
925.94	228.10
926.24	228.18
926.55	228.20
926.85	228.15
927.15	228.27
927.45	228.22
927.75	228.27
928.05	228.43
928.35	228.51
928.65	228.49
928.95	228.42
929.26	228.30
929.56	228.35
929.86	228.38
930.16	228.25
930.46	228.22
930.76	228.30
931.06	228.18
931.36	228.16
931.66	228.28
931.96	228.28
932.26	228.38
932.56	228.35
932.86	228.30
933.16	228.32
933.46	228.25
933.76	228.30
934.06	228.35
934.36	228.43
934.66	228.56
934.96	228.54
935.26	228.63
935.56	228.65
935.86	228.65
936.16	228.69
936.46	228.75
936.76	228.82
937.06	228.71
937.36	228.82
937.66	228.82
937.96	228.67
938.26	228.70
938.56	228.67
938.86	228.69
939.16	228.74
939.46	228.70
939.76	228.76
940.06	228.71
940.35	228.62
940.65	228.47
940.95	228.35
941.25	228.28
941.55	228.27
941.85	228.30
942.15	228.29
942.45	228.27
942.75	228.22
943.04	228.15
943.34	228.22
943.64	228.24
943.94	228.14
944.24	228.24
944.54	228.17
944.84	228.17
945.13	228.16
945.43	228.13
945.73	228.19
946.03	228.14
946.33	228.19
946.62	228.26
946.92	228.27
947.22	228.35
947.52	228.32
947.82	228.36
948.11	228.21
948.41	228.21
948.71	228.20
949.01	228.27
949.31	228.18
949.60	228.13
949.90	228.14
950.20	228.28
950.50	228.20
950.79	228.20
951.09	228.29
951.39	228.28
951.69	228.30
951.98	228.21
952.28	228.27
952.58	228.21
952.87	228.17
953.17	228.16
953.47	228.01
953.76	228.01
954.06	227.95
954.36	227.96
954.66	227.91
954.95	227.92
955.25	227.86
955.55	227.91
955.84	227.92
956.14	227.90
956.44	227.83
956.73	227.92
957.03	227.90
957.32	227.81
957.62	227.75
957.92	227.76
958.21	227.80
958.51	227.99
958.81	227.99
959.10	227.96
959.40	227.91
959.69	228.00
959.99	228.10
960.29	228.13
960.58	228.16
960.88	228.27
961.17	228.30
961.47	228.34
961.76	228.40
962.06	228.39
962.36	228.34
962.65	228.30
962.95	228.34
963.24	228.38
963.54	228.53
963.83	228.65
964.13	228.60
964.42	228.62
964.72	228.50
965.01	228.58
965.31	228.59
965.60	228.59
965.90	228.66
966.19	228.65
966.49	228.70
966.78	228.67
967.08	228.60
967.37	228.54
967.67	228.60
967.96	228.65
968.26	228.64
968.55	228.65
968.85	228.72
969.14	228.60
969.43	228.56
969.73	228.41
970.02	228.30
970.32	228.36
970.61	228.37
970.91	228.37
971.20	228.27
971.49	228.14
971.79	228.11
972.08	228.02
972.38	227.88
972.67	227.69
972.96	227.74
973.26	227.61
973.55	227.66
973.85	227.59
974.14	227.51
974.43	227.55
974.73	227.55
975.02	227.49
975.31	227.46
975.61	227.48
975.90	227.43
976.19	227.40
976.49	227.35
976.78	227.32
977.07	227.25
977.37	227.37
977.66	227.45
977.95	227.48
978.24	227.50
978.54	227.63
978.83	227.69
979.12	227.69
979.42	227.73
979.71	227.68
980.00	227.59
980.29	227.61
980.59	227.58
980.88	227.57
981.17	227.57
981.46	227.58
981.76	227.51
982.05	227.48
982.34	227.56
982.63	227.58
982.93	227.54
983.22	227.54
983.51	227.54
983.80	227.51
984.09	227.49
984.39	227.39
984.68	227.35
984.97	227.35
985.26	227.32
985.55	227.32
985.85	227.33
986.14	227.40
986.43	227.44
986.72	227.40
987.01	227.33
987.30	227.34
987.59	227.35
987.89	227.35
988.18	227.40
988.47	227.31
988.76	227.24
989.05	227.23
989.34	227.16
989.63	227.07
989.92	227.08
990.22	227.09
990.51	227.17
990.80	227.12
991.09	227.21
991.38	227.14
991.67	227.16
991.96	227.18
992.25	227.21
992.54	227.15
992.83	227.21
993.12	227.31
993.41	227.40
993.70	227.46
993.99	227.57
994.28	227.63
994.58	227.70
994.87	227.74
995.16	227.82
995.45	227.95
995.74	227.97
996.03	227.98
996.32	228.09
996.61	228.10
996.90	228.13
997.19	228.07
997.48	228.21
997.77	228.24
998.06	228.31
998.34	228.25
998.63	228.37
998.92	228.34
999.21	228.28
999.50	228.25
999.79	228.28
1000.08	228.28
1000.37	228.30
1000.66	228.25
1000.95	228.30
1001.24	228.26
1001.53	228.22
1001.82	228.29
1002.11	228.33
1002.40	228.35
1002.68	228.36
1002.97	228.52
1003.26	228.57
1003.55	228.51
1003.84	228.62
1004.13	228.60
1004.42	228.71
1004.71	228.61
1004.99	228.66
1005.28	228.80
1005.57	228.81
1005.86	228.80
1006.15	228.77
1006.44	228.75
1006.72	228.78
1007.01	228.84
1007.30	228.87
1007.59	228.83
1007.88	228.77
1008.17	228.72
1008.45	228.72
1008.74	228.64
1009.03	228.58
1009.32	228.60
1009.60	228.55
1009.89	228.37
1010.18	228.34
1010.47	228.25
1010.76	228.20
1011.04	228.13
1011.33	228.00
1011.62	227.95
1011.91	227.90
1012.19	227.96
1012.48	227.91
1012.77	227.90
1013.05	227.86
1013.34	227.96
1013.63	228.04
1013.92	228.11
1014.20	228.11
1014.49	228.01
1014.78	228.02
1015.06	227.89
1015.35	227.89
1015.64	227.98
1015.92	228.09
1016.21	228.02
1016.50	227.90
1016.78	227.97
1017.07	227.94
1017.36	227.90
1017.64	227.85
1017.93	227.89
1018.22	227.76
1018.50	227.75
1018.79	227.78
1019.08	227.63
1019.36	227.47
1019.65	227.38
1019.93	227.39
1020.22	227.37
1020.51	227.48
1020.79	227.41
1021.08	226.20
1021.36	227.40
1021.65	227.70
1021.94	225.90
1022.22	227.20
1022.51	227.40
1022.79	229.10
1023.08	227.20
1023.36	229.90
1023.65	225.40
>>>>>End Processed Spectral Data<<<<<
