SpectraSuite Data File
++++++++++++++++++++++++++++++++++++
Date: Fri Feb 01 14:41:52 EST 2013
User: group
Dark Spectrum Present: No
Reference Spectrum Present: No
Number of Sampled Component Spectra: 1
Spectrometers: USB2E7196
Integration Time (usec): 70000 (USB2E7196)
Spectra Averaged: 10 (USB2E7196)
Boxcar Smoothing: 10 (USB2E7196)
Correct for Electrical Dark: No (USB2E7196)
Strobe/Lamp Enabled: No (USB2E7196)
Correct for Detector Non-linearity: No (USB2E7196)
Correct for Stray Light: No (USB2E7196)
Number of Pixels in Processed Spectrum: 2048
>>>>>Begin Processed Spectral Data<<<<<
339.09	0.00
339.48	215.30
339.86	218.40
340.24	218.50
340.63	220.70
341.01	222.30
341.39	223.50
341.78	224.60
342.16	225.00
342.54	225.30
342.93	214.71
343.31	225.57
343.69	226.19
344.07	226.60
344.46	227.06
344.84	227.45
345.22	227.67
345.60	227.93
345.99	228.18
346.37	228.33
346.75	228.43
347.13	228.45
347.52	228.48
347.90	228.62
348.28	228.60
348.66	228.50
349.05	228.45
349.43	228.44
349.81	228.61
350.19	228.59
350.57	228.56
350.96	228.56
351.34	228.63
351.72	228.73
352.10	228.87
352.48	228.99
352.87	229.14
353.25	229.34
353.63	229.30
354.01	229.27
354.39	229.41
354.77	229.60
355.15	229.73
355.54	229.80
355.92	229.80
356.30	229.88
356.68	230.11
357.06	230.25
357.44	230.33
357.82	230.37
358.20	230.41
358.58	230.58
358.97	230.69
359.35	230.79
359.73	230.83
360.11	230.91
360.49	230.95
360.87	230.86
361.25	230.83
361.63	231.00
362.01	231.12
362.39	231.08
362.77	231.01
363.15	230.96
363.53	230.90
363.91	230.93
364.29	230.84
364.67	230.66
365.05	230.70
365.43	230.75
365.81	230.75
366.19	230.91
366.57	230.89
366.95	230.94
367.33	230.87
367.71	230.87
368.09	230.79
368.47	230.83
368.85	230.74
369.23	230.80
369.61	230.69
369.99	230.59
370.37	230.58
370.75	230.68
371.13	230.62
371.51	230.56
371.89	230.41
372.27	230.44
372.65	230.42
373.03	230.31
373.41	230.16
373.78	230.01
374.16	229.74
374.54	229.55
374.92	229.38
375.30	229.34
375.68	229.27
376.06	229.23
376.44	229.05
376.82	229.07
377.19	228.93
377.57	228.86
377.95	228.78
378.33	228.60
378.71	228.45
379.09	228.51
379.47	228.45
379.84	228.48
380.22	228.35
380.60	228.25
380.98	228.20
381.36	228.07
381.73	228.10
382.11	228.20
382.49	228.26
382.87	228.26
383.25	228.15
383.62	228.38
384.00	228.20
384.38	228.18
384.76	228.08
385.13	228.13
385.51	228.07
385.89	228.03
386.27	228.10
386.64	227.99
387.02	227.85
387.40	227.91
387.78	227.80
388.15	227.82
388.53	227.76
388.91	227.85
389.29	227.84
389.66	227.76
390.04	227.72
390.42	227.72
390.79	227.66
391.17	227.70
391.55	227.39
391.92	227.44
392.30	227.40
392.68	227.54
393.05	227.43
393.43	227.50
393.81	227.42
394.18	227.39
394.56	227.53
394.94	227.63
395.31	227.59
395.69	227.76
396.06	227.89
396.44	228.01
396.82	227.92
397.19	228.17
397.57	228.31
397.95	228.38
398.32	228.40
398.70	228.58
399.07	228.74
399.45	228.88
399.82	229.07
400.20	229.27
400.58	229.26
400.95	229.37
401.33	229.53
401.70	229.89
402.08	230.07
402.45	230.21
402.83	230.37
403.20	230.64
403.58	230.87
403.95	231.13
404.33	231.29
404.71	231.59
405.08	231.96
405.46	232.10
405.83	232.37
406.21	232.60
406.58	232.78
406.96	232.96
407.33	233.23
407.70	233.55
408.08	233.94
408.45	234.31
408.83	234.74
409.20	235.06
409.58	235.23
409.95	235.60
410.33	235.94
410.70	236.31
411.08	236.67
411.45	236.97
411.82	237.36
412.20	237.89
412.57	238.49
412.95	238.69
413.32	239.26
413.69	239.87
414.07	240.53
414.44	241.24
414.82	241.88
415.19	242.59
415.56	243.31
415.94	243.92
416.31	244.90
416.68	245.74
417.06	246.81
417.43	247.93
417.81	249.06
418.18	250.14
418.55	251.38
418.93	252.64
419.30	253.99
419.67	255.33
420.04	256.69
420.42	258.11
420.79	260.00
421.16	261.64
421.54	263.38
421.91	265.08
422.28	266.87
422.66	268.82
423.03	270.73
423.40	272.75
423.77	274.77
424.15	276.85
424.52	279.11
424.89	281.40
425.26	283.64
425.64	285.74
426.01	288.03
426.38	290.38
426.75	292.83
427.13	295.36
427.50	298.01
427.87	300.83
428.24	303.65
428.61	305.95
428.99	308.85
429.36	311.80
429.73	314.79
430.10	317.60
430.47	320.63
430.85	323.64
431.22	326.80
431.59	330.27
431.96	333.43
432.33	336.85
432.70	340.09
433.08	343.92
433.45	347.59
433.82	351.46
434.19	355.66
434.56	359.69
434.93	363.54
435.30	367.17
435.68	371.34
436.05	375.25
436.42	379.43
436.79	383.09
437.16	387.08
437.53	391.19
437.90	395.50
438.27	399.33
438.64	403.51
439.01	407.23
439.38	410.70
439.75	413.72
440.13	417.36
440.50	420.93
440.87	423.58
441.24	426.54
441.61	429.72
441.98	431.78
442.35	434.32
442.72	436.88
443.09	439.60
443.46	441.00
443.83	441.81
444.20	442.54
444.57	443.69
444.94	443.86
445.31	444.41
445.68	444.86
446.05	445.00
446.42	444.33
446.79	443.63
447.16	442.87
447.53	442.53
447.90	440.78
448.27	439.00
448.64	436.79
449.01	435.05
449.37	432.00
449.74	429.20
450.11	426.07
450.48	422.51
450.85	418.81
451.22	415.47
451.59	412.41
451.96	409.43
452.33	405.50
452.70	402.18
453.07	397.99
453.43	393.72
453.80	389.71
454.17	385.85
454.54	382.29
454.91	378.29
455.28	374.43
455.65	370.84
456.02	367.37
456.38	364.29
456.75	360.41
457.12	357.12
457.49	353.97
457.86	350.68
458.23	347.80
458.59	344.83
458.96	341.92
459.33	339.30
459.70	336.68
460.07	334.53
460.43	332.00
460.80	329.60
461.17	327.35
461.54	325.07
461.91	322.89
462.27	320.71
462.64	318.76
463.01	316.62
463.38	314.74
463.74	312.57
464.11	310.86
464.48	309.47
464.85	307.89
465.21	306.55
465.58	305.25
465.95	303.83
466.32	302.51
466.68	301.14
467.05	299.81
467.42	298.43
467.78	297.12
468.15	295.81
468.52	294.82
468.88	293.59
469.25	292.50
469.62	291.51
469.98	290.51
470.35	289.58
470.72	288.70
471.08	287.74
471.45	286.99
471.82	286.18
472.18	285.10
472.55	284.43
472.92	283.63
473.28	282.88
473.65	282.08
474.02	281.23
474.38	280.72
474.75	280.15
475.11	279.62
475.48	279.13
475.85	278.75
476.21	278.37
476.58	278.04
476.94	277.73
477.31	277.46
477.67	277.09
478.04	276.83
478.41	276.62
478.77	276.59
479.14	276.37
479.50	276.21
479.87	276.30
480.23	276.18
480.60	276.09
480.96	276.05
481.33	276.24
481.69	276.51
482.06	276.58
482.42	276.67
482.79	276.91
483.15	277.23
483.52	277.58
483.88	277.75
484.25	278.12
484.61	278.54
484.98	279.04
485.34	279.75
485.71	280.30
486.07	280.99
486.44	281.41
486.80	282.22
487.17	282.98
487.53	283.81
487.90	284.84
488.26	285.97
488.62	286.99
488.99	288.02
489.35	289.12
489.72	290.39
490.08	292.02
490.44	293.43
490.81	294.88
491.17	296.47
491.54	298.37
491.90	300.09
492.26	302.03
492.63	304.02
492.99	306.18
493.36	308.54
493.72	310.97
494.08	313.60
494.45	316.28
494.81	319.25
495.17	322.24
495.54	325.48
495.90	328.83
496.26	332.39
496.63	336.05
496.99	339.85
497.35	343.91
497.72	347.88
498.08	352.28
498.44	356.86
498.80	361.77
499.17	366.83
499.53	372.14
499.89	377.71
500.26	383.50
500.62	389.19
500.98	395.40
501.34	401.93
501.71	408.75
502.07	415.69
502.43	422.86
502.79	430.27
503.16	437.90
503.52	446.00
503.88	454.19
504.24	462.71
504.60	471.50
504.97	480.56
505.33	489.99
505.69	499.81
506.05	509.91
506.41	520.20
506.78	530.75
507.14	541.63
507.50	553.10
507.86	564.76
508.22	576.89
508.59	589.16
508.95	601.82
509.31	614.83
509.67	628.50
510.03	642.02
510.39	656.12
510.75	670.66
511.12	685.19
511.48	700.34
511.84	715.90
512.20	731.36
512.56	747.69
512.92	764.41
513.28	781.30
513.64	798.48
514.00	815.77
514.37	833.63
514.73	851.67
515.09	869.53
515.45	887.95
515.81	906.80
516.17	926.14
516.53	945.62
516.89	965.25
517.25	984.63
517.61	1004.94
517.97	1024.89
518.33	1044.75
518.69	1065.47
519.05	1086.73
519.41	1107.64
519.77	1129.56
520.13	1150.90
520.49	1172.25
520.85	1193.91
521.21	1215.47
521.57	1238.24
521.93	1260.19
522.29	1283.25
522.65	1305.92
523.01	1328.19
523.37	1350.23
523.73	1373.16
524.09	1395.67
524.45	1418.69
524.81	1442.02
525.17	1465.61
525.53	1489.48
525.89	1513.38
526.25	1537.19
526.61	1560.10
526.97	1584.28
527.33	1607.87
527.68	1632.07
528.04	1655.67
528.40	1679.20
528.76	1704.17
529.12	1728.07
529.48	1752.17
529.84	1774.93
530.20	1799.53
530.56	1824.62
530.91	1850.29
531.27	1874.25
531.63	1898.50
531.99	1922.49
532.35	1945.73
532.71	1968.67
533.07	1992.50
533.42	2015.68
533.78	2038.95
534.14	2062.56
534.50	2084.50
534.86	2107.30
535.21	2129.34
535.57	2152.34
535.93	2174.90
536.29	2196.25
536.65	2217.82
537.00	2239.73
537.36	2261.97
537.72	2282.65
538.08	2303.06
538.44	2322.42
538.79	2342.78
539.15	2362.26
539.51	2382.14
539.87	2403.37
540.22	2423.64
540.58	2443.53
540.94	2463.68
541.29	2482.58
541.65	2501.20
542.01	2521.51
542.37	2540.44
542.72	2559.00
543.08	2576.99
543.44	2595.38
543.79	2612.29
544.15	2629.73
544.51	2647.45
544.87	2664.45
545.22	2681.07
545.58	2697.23
545.94	2713.07
546.29	2728.53
546.65	2744.25
547.01	2759.24
547.36	2773.15
547.72	2786.74
548.07	2799.61
548.43	2812.45
548.79	2825.41
549.14	2838.04
549.50	2848.97
549.86	2860.17
550.21	2871.28
550.57	2883.07
550.92	2893.79
551.28	2904.73
551.64	2914.98
551.99	2924.95
552.35	2934.90
552.70	2944.61
553.06	2954.59
553.41	2964.92
553.77	2973.91
554.13	2983.12
554.48	2992.05
554.84	3000.68
555.19	3009.40
555.55	3018.42
555.90	3026.16
556.26	3034.61
556.61	3042.34
556.97	3049.78
557.32	3057.35
557.68	3064.91
558.03	3071.81
558.39	3078.61
558.74	3086.16
559.10	3093.04
559.45	3099.49
559.81	3107.07
560.16	3112.72
560.52	3118.29
560.87	3124.42
561.23	3129.53
561.58	3135.08
561.94	3140.06
562.29	3143.69
562.64	3147.94
563.00	3151.37
563.35	3156.95
563.71	3161.68
564.06	3166.65
564.42	3171.17
564.77	3175.24
565.12	3179.75
565.48	3183.35
565.83	3186.03
566.19	3189.26
566.54	3191.22
566.89	3192.45
567.25	3193.71
567.60	3196.62
567.96	3198.24
568.31	3198.53
568.66	3200.01
569.02	3201.09
569.37	3201.30
569.72	3202.75
570.08	3203.28
570.43	3203.67
570.78	3202.27
571.14	3200.56
571.49	3198.92
571.84	3199.38
572.20	3197.72
572.55	3195.34
572.90	3192.40
573.26	3191.18
573.61	3188.18
573.96	3185.88
574.31	3182.79
574.67	3178.02
575.02	3173.94
575.37	3170.20
575.72	3165.51
576.08	3161.63
576.43	3156.60
576.78	3152.89
577.13	3148.49
577.49	3144.10
577.84	3138.96
578.19	3133.75
578.54	3127.80
578.90	3121.48
579.25	3113.09
579.60	3106.56
579.95	3099.62
580.30	3093.00
580.66	3085.12
581.01	3077.93
581.36	3070.93
581.71	3064.58
582.06	3058.10
582.42	3050.18
582.77	3042.16
583.12	3035.41
583.47	3028.39
583.82	3021.90
584.17	3013.15
584.53	3005.58
584.88	2997.67
585.23	2990.02
585.58	2983.01
585.93	2975.70
586.28	2969.02
586.63	2962.47
586.98	2955.51
587.34	2947.86
587.69	2940.37
588.04	2932.98
588.39	2925.45
588.74	2915.92
589.09	2907.26
589.44	2898.54
589.79	2890.45
590.14	2883.21
590.49	2874.84
590.84	2865.50
591.19	2856.31
591.54	2847.04
591.89	2835.77
592.25	2825.97
592.60	2815.19
592.95	2804.08
593.30	2793.91
593.65	2783.02
594.00	2772.63
594.35	2762.71
594.70	2751.89
595.05	2742.70
595.40	2731.86
595.75	2720.61
596.10	2711.74
596.45	2702.38
596.80	2693.61
597.15	2684.07
597.50	2674.02
597.85	2664.42
598.19	2655.34
598.54	2645.82
598.89	2636.86
599.24	2629.81
599.59	2620.65
599.94	2612.58
600.29	2603.60
600.64	2594.56
600.99	2584.19
601.34	2574.55
601.69	2564.10
602.04	2554.96
602.39	2544.48
602.74	2536.12
603.08	2527.67
603.43	2518.29
603.78	2508.60
604.13	2498.42
604.48	2488.24
604.83	2478.33
605.18	2468.16
605.53	2456.69
605.87	2445.16
606.22	2435.14
606.57	2423.77
606.92	2412.89
607.27	2402.64
607.62	2392.81
607.96	2382.56
608.31	2373.41
608.66	2362.66
609.01	2351.78
609.36	2340.64
609.70	2328.49
610.05	2316.34
610.40	2304.79
610.75	2292.83
611.10	2281.13
611.44	2268.40
611.79	2257.66
612.14	2245.78
612.49	2233.34
612.83	2221.88
613.18	2210.78
613.53	2199.12
613.88	2186.94
614.22	2175.58
614.57	2162.56
614.92	2150.78
615.27	2139.37
615.61	2127.00
615.96	2115.24
616.31	2104.28
616.65	2094.22
617.00	2084.16
617.35	2073.10
617.70	2061.70
618.04	2050.20
618.39	2038.49
618.74	2028.34
619.08	2016.49
619.43	2005.75
619.78	1995.18
620.12	1984.70
620.47	1973.50
620.82	1962.00
621.16	1951.61
621.51	1940.76
621.85	1930.84
622.20	1919.30
622.55	1907.82
622.89	1897.90
623.24	1887.93
623.59	1877.43
623.93	1866.41
624.28	1855.53
624.62	1844.90
624.97	1834.82
625.32	1825.21
625.66	1815.54
626.01	1804.63
626.35	1794.00
626.70	1783.37
627.04	1772.99
627.39	1762.52
627.73	1752.03
628.08	1742.13
628.43	1731.44
628.77	1721.09
629.12	1710.10
629.46	1699.78
629.81	1689.04
630.15	1677.77
630.50	1666.85
630.84	1655.51
631.19	1644.07
631.53	1633.62
631.88	1622.63
632.22	1611.08
632.57	1600.57
632.91	1589.61
633.26	1579.19
633.60	1568.49
633.95	1557.91
634.29	1547.95
634.64	1537.85
634.98	1527.52
635.32	1517.56
635.67	1508.02
636.01	1498.32
636.36	1488.70
636.70	1479.25
637.05	1469.79
637.39	1460.81
637.73	1451.35
638.08	1443.03
638.42	1434.69
638.77	1425.37
639.11	1416.36
639.45	1407.73
639.80	1397.91
640.14	1389.03
640.49	1379.90
640.83	1370.77
641.17	1361.46
641.52	1352.06
641.86	1342.68
642.20	1334.21
642.55	1324.77
642.89	1315.55
643.23	1306.34
643.58	1297.60
643.92	1288.52
644.26	1279.49
644.61	1270.74
644.95	1261.81
645.29	1251.76
645.64	1241.97
645.98	1232.75
646.32	1224.10
646.66	1214.96
647.01	1206.47
647.35	1197.82
647.69	1189.06
648.04	1180.99
648.38	1172.20
648.72	1163.13
649.06	1154.17
649.41	1145.22
649.75	1136.28
650.09	1127.25
650.43	1118.17
650.78	1109.14
651.12	1100.31
651.46	1091.79
651.80	1083.32
652.14	1075.10
652.49	1067.16
652.83	1059.34
653.17	1051.00
653.51	1042.74
653.85	1034.72
654.20	1026.43
654.54	1017.78
654.88	1009.50
655.22	1000.67
655.56	992.45
655.90	984.82
656.25	977.07
656.59	969.27
656.93	961.89
657.27	954.38
657.61	946.60
657.95	939.52
658.29	932.06
658.64	924.82
658.98	917.19
659.32	909.21
659.66	901.88
660.00	894.37
660.34	887.30
660.68	879.96
661.02	872.59
661.36	865.98
661.70	859.08
662.05	852.85
662.39	846.72
662.73	840.45
663.07	834.00
663.41	827.81
663.75	821.50
664.09	815.05
664.43	808.96
664.77	803.09
665.11	796.81
665.45	790.98
665.79	784.97
666.13	778.82
666.47	772.99
666.81	766.80
667.15	760.80
667.49	754.89
667.83	749.44
668.17	743.84
668.51	737.73
668.85	732.24
669.19	726.44
669.53	720.94
669.87	715.27
670.21	709.85
670.55	704.48
670.89	699.56
671.23	694.62
671.57	689.46
671.91	684.60
672.25	679.38
672.58	674.34
672.92	669.22
673.26	664.58
673.60	659.91
673.94	655.42
674.28	650.95
674.62	646.69
674.96	642.27
675.30	637.98
675.64	633.68
675.97	629.41
676.31	625.22
676.65	621.01
676.99	617.15
677.33	612.80
677.67	608.60
678.01	604.03
678.34	599.79
678.68	595.70
679.02	591.49
679.36	587.68
679.70	583.70
680.04	580.08
680.37	576.12
680.71	572.35
681.05	568.67
681.39	565.02
681.73	561.22
682.06	557.55
682.40	554.07
682.74	550.54
683.08	547.01
683.42	543.49
683.75	539.97
684.09	536.28
684.43	532.77
684.77	529.38
685.10	525.98
685.44	522.55
685.78	519.29
686.12	516.13
686.45	512.82
686.79	509.54
687.13	506.31
687.46	503.04
687.80	499.77
688.14	496.53
688.48	493.53
688.81	490.42
689.15	487.22
689.49	484.13
689.82	481.02
690.16	477.91
690.50	475.09
690.83	472.11
691.17	469.14
691.51	466.46
691.84	463.78
692.18	460.88
692.52	458.13
692.85	455.37
693.19	452.68
693.52	449.95
693.86	447.17
694.20	444.46
694.53	441.93
694.87	439.31
695.21	436.74
695.54	434.10
695.88	431.42
696.21	428.91
696.55	426.35
696.88	424.11
697.22	421.83
697.56	419.45
697.89	417.05
698.23	414.81
698.56	412.55
698.90	410.14
699.23	407.84
699.57	405.67
699.90	403.50
700.24	401.15
700.58	398.93
700.91	396.90
701.25	394.77
701.58	392.63
701.92	390.70
702.25	388.71
702.59	386.72
702.92	384.89
703.26	383.04
703.59	381.31
703.93	379.54
704.26	377.58
704.60	375.55
704.93	373.69
705.26	371.93
705.60	370.18
705.93	368.50
706.27	367.01
706.60	365.31
706.94	363.62
707.27	361.77
707.61	360.29
707.94	358.75
708.27	357.15
708.61	355.67
708.94	354.16
709.28	352.70
709.61	351.27
709.94	349.79
710.28	348.42
710.61	347.02
710.95	345.29
711.28	344.04
711.61	342.64
711.95	341.47
712.28	340.06
712.61	338.82
712.95	337.53
713.28	336.27
713.61	334.84
713.95	333.64
714.28	332.60
714.61	331.31
714.95	330.12
715.28	328.80
715.61	327.41
715.95	326.15
716.28	324.88
716.61	323.68
716.95	322.55
717.28	321.33
717.61	320.09
717.94	319.10
718.28	317.84
718.61	316.75
718.94	315.57
719.27	314.49
719.61	313.30
719.94	312.20
720.27	311.12
720.60	310.31
720.94	309.26
721.27	308.29
721.60	307.35
721.93	306.41
722.27	305.78
722.60	304.98
722.93	304.07
723.26	303.24
723.59	302.30
723.93	301.45
724.26	300.62
724.59	299.66
724.92	298.88
725.25	298.24
725.59	297.36
725.92	296.56
726.25	295.86
726.58	295.08
726.91	294.27
727.24	293.48
727.57	292.56
727.91	291.76
728.24	291.06
728.57	290.33
728.90	289.66
729.23	288.76
729.56	288.11
729.89	287.60
730.22	286.97
730.55	286.33
730.89	285.70
731.22	284.99
731.55	284.41
731.88	283.70
732.21	282.95
732.54	282.37
732.87	281.78
733.20	281.09
733.53	280.54
733.86	280.03
734.19	279.48
734.52	279.03
734.85	278.60
735.18	278.01
735.51	277.37
735.84	276.80
736.17	276.26
736.50	275.64
736.83	275.30
737.16	274.66
737.49	274.13
737.82	273.57
738.15	273.07
738.48	272.59
738.81	272.16
739.14	271.60
739.47	271.16
739.80	270.76
740.13	270.33
740.46	269.83
740.79	269.43
741.12	269.00
741.45	268.54
741.78	267.95
742.11	267.50
742.44	267.09
742.77	266.65
743.10	266.21
743.43	265.74
743.75	265.01
744.08	264.82
744.41	264.40
744.74	264.09
745.07	263.64
745.40	263.27
745.73	262.95
746.06	262.68
746.39	262.36
746.71	261.89
747.04	261.37
747.37	261.06
747.70	260.63
748.03	260.29
748.36	259.87
748.68	259.57
749.01	259.32
749.34	258.93
749.67	258.61
750.00	258.27
750.33	258.13
750.65	257.70
750.98	257.22
751.31	256.92
751.64	256.55
751.97	256.39
752.29	256.09
752.62	255.56
752.95	255.15
753.28	254.75
753.60	254.43
753.93	254.19
754.26	253.86
754.59	253.50
754.91	253.12
755.24	252.81
755.57	252.44
755.90	251.97
756.22	251.71
756.55	251.40
756.88	251.03
757.20	250.63
757.53	250.38
757.86	250.04
758.19	249.79
758.51	249.53
758.84	249.16
759.17	248.82
759.49	248.60
759.82	248.42
760.15	248.18
760.47	247.99
760.80	247.68
761.13	247.39
761.45	247.10
761.78	246.90
762.11	246.70
762.43	246.41
762.76	246.15
763.08	245.95
763.41	245.70
763.74	245.53
764.06	245.33
764.39	245.10
764.71	244.79
765.04	244.60
765.37	244.25
765.69	243.98
766.02	243.76
766.34	243.60
766.67	243.26
767.00	243.07
767.32	242.96
767.65	242.97
767.97	242.70
768.30	242.62
768.62	242.41
768.95	242.16
769.27	241.98
769.60	241.84
769.92	241.67
770.25	241.51
770.57	241.37
770.90	241.14
771.22	240.99
771.55	240.91
771.87	240.68
772.20	240.65
772.52	240.71
772.85	240.82
773.17	240.64
773.50	240.50
773.82	240.35
774.15	240.12
774.47	239.92
774.80	239.86
775.12	239.64
775.45	239.52
775.77	239.52
776.09	239.52
776.42	239.41
776.74	239.30
777.07	239.12
777.39	238.97
777.72	238.86
778.04	238.82
778.36	238.84
778.69	238.78
779.01	238.66
779.33	238.37
779.66	237.99
779.98	237.92
780.31	237.83
780.63	237.88
780.95	237.76
781.28	237.59
781.60	237.53
781.92	237.44
782.25	237.35
782.57	237.24
782.89	237.11
783.22	237.09
783.54	237.04
783.86	236.97
784.19	236.95
784.51	236.90
784.83	236.81
785.16	236.60
785.48	236.47
785.80	236.34
786.12	236.32
786.45	236.44
786.77	236.27
787.09	236.27
787.42	236.11
787.74	236.15
788.06	236.08
788.38	236.10
788.71	236.12
789.03	236.10
789.35	236.09
789.67	236.00
789.99	235.92
790.32	235.75
790.64	235.77
790.96	235.81
791.28	235.76
791.61	235.69
791.93	235.67
792.25	235.65
792.57	235.65
792.89	235.66
793.21	235.48
793.54	235.49
793.86	235.48
794.18	235.40
794.50	235.32
794.82	235.30
795.14	235.20
795.47	235.14
795.79	235.12
796.11	234.90
796.43	234.89
796.75	234.79
797.07	234.81
797.39	234.73
797.71	234.62
798.04	234.60
798.36	234.53
798.68	234.46
799.00	234.42
799.32	234.37
799.64	234.21
799.96	234.20
800.28	234.13
800.60	233.97
800.92	233.96
801.24	233.76
801.56	233.70
801.89	233.69
802.21	233.53
802.53	233.34
802.85	233.44
803.17	233.45
803.49	233.44
803.81	233.34
804.13	233.31
804.45	233.11
804.77	233.00
805.09	233.03
805.41	233.05
805.73	232.92
806.05	232.81
806.37	232.78
806.69	232.72
807.01	232.62
807.33	232.59
807.65	232.39
807.97	232.50
808.28	232.33
808.60	232.20
808.92	232.17
809.24	232.29
809.56	232.14
809.88	231.98
810.20	231.84
810.52	231.83
810.84	231.70
811.16	231.70
811.48	231.58
811.80	231.54
812.12	231.44
812.43	231.45
812.75	231.47
813.07	231.31
813.39	231.29
813.71	231.38
814.03	231.38
814.35	231.38
814.67	231.28
814.98	231.39
815.30	231.30
815.62	231.24
815.94	230.98
816.26	230.96
816.58	230.82
816.89	230.82
817.21	230.77
817.53	230.72
817.85	230.73
818.17	230.80
818.48	230.68
818.80	230.74
819.12	230.72
819.44	230.66
819.76	230.78
820.07	230.70
820.39	230.61
820.71	230.56
821.03	230.55
821.34	230.46
821.66	230.40
821.98	230.39
822.30	230.35
822.61	230.50
822.93	230.51
823.25	230.58
823.57	230.60
823.88	230.61
824.20	230.65
824.52	230.66
824.83	230.59
825.15	230.68
825.47	230.61
825.79	230.56
826.10	230.51
826.42	230.35
826.74	230.40
827.05	230.39
827.37	230.40
827.69	230.40
828.00	230.43
828.32	230.38
828.64	230.43
828.95	230.55
829.27	230.43
829.58	230.32
829.90	230.28
830.22	230.31
830.53	230.13
830.85	230.10
831.17	230.03
831.48	230.02
831.80	229.84
832.11	229.72
832.43	229.61
832.75	229.61
833.06	229.73
833.38	229.73
833.69	229.76
834.01	229.73
834.32	229.78
834.64	229.77
834.96	229.76
835.27	229.74
835.59	229.69
835.90	229.75
836.22	229.80
836.53	229.92
836.85	229.85
837.16	230.05
837.48	230.11
837.79	230.16
838.11	230.15
838.42	230.09
838.74	230.18
839.05	230.23
839.37	230.23
839.68	230.15
840.00	229.99
840.31	229.92
840.63	229.88
840.94	229.75
841.26	229.68
841.57	229.67
841.88	229.62
842.20	229.61
842.51	229.55
842.83	229.51
843.14	229.63
843.46	229.62
843.77	229.50
844.08	229.39
844.40	229.36
844.71	229.38
845.03	229.34
845.34	229.29
845.65	229.26
845.97	229.27
846.28	229.22
846.60	229.23
846.91	229.16
847.22	229.16
847.54	229.22
847.85	229.20
848.16	229.20
848.48	229.24
848.79	229.29
849.10	229.25
849.42	229.32
849.73	229.05
850.04	228.98
850.36	229.00
850.67	229.02
850.98	228.89
851.30	228.92
851.61	228.99
851.92	228.89
852.23	228.99
852.55	229.00
852.86	228.94
853.17	229.00
853.49	229.05
853.80	229.04
854.11	229.02
854.42	229.14
854.74	229.10
855.05	229.06
855.36	228.95
855.67	228.94
855.99	228.90
856.30	229.10
856.61	229.20
856.92	229.30
857.23	229.34
857.55	229.48
857.86	229.34
858.17	229.43
858.48	229.46
858.79	229.37
859.11	229.35
859.42	229.46
859.73	229.42
860.04	229.38
860.35	229.36
860.66	229.32
860.98	229.26
861.29	229.29
861.60	229.20
861.91	229.28
862.22	229.31
862.53	229.30
862.84	229.13
863.16	229.10
863.47	229.02
863.78	228.96
864.09	228.86
864.40	229.00
864.71	229.03
865.02	229.14
865.33	229.14
865.64	229.16
865.95	229.17
866.27	229.32
866.58	229.34
866.89	229.46
867.20	229.45
867.51	229.37
867.82	229.42
868.13	229.54
868.44	229.38
868.75	229.47
869.06	229.41
869.37	229.46
869.68	229.54
869.99	229.48
870.30	229.50
870.61	229.56
870.92	229.47
871.23	229.36
871.54	229.33
871.85	229.44
872.16	229.42
872.47	229.35
872.78	229.30
873.09	229.42
873.40	229.41
873.71	229.49
874.02	229.59
874.33	229.55
874.64	229.57
874.95	229.67
875.26	229.56
875.56	229.57
875.87	229.57
876.18	229.51
876.49	229.67
876.80	229.75
877.11	229.71
877.42	229.64
877.73	229.74
878.04	229.68
878.35	229.69
878.66	229.70
878.96	229.74
879.27	229.70
879.58	229.54
879.89	229.42
880.20	229.40
880.51	229.38
880.82	229.33
881.12	229.28
881.43	229.29
881.74	229.29
882.05	229.35
882.36	229.37
882.67	229.28
882.97	229.13
883.28	229.04
883.59	228.95
883.90	228.97
884.21	228.96
884.51	228.99
884.82	228.88
885.13	228.88
885.44	228.80
885.74	228.80
886.05	228.87
886.36	228.87
886.67	228.76
886.98	228.84
887.28	228.88
887.59	228.94
887.90	228.89
888.20	228.89
888.51	228.93
888.82	228.86
889.13	228.91
889.43	229.01
889.74	229.01
890.05	229.06
890.35	229.17
890.66	229.14
890.97	229.12
891.28	229.09
891.58	229.09
891.89	229.18
892.20	229.15
892.50	229.12
892.81	229.05
893.12	229.14
893.42	229.09
893.73	229.04
894.04	228.96
894.34	229.01
894.65	228.98
894.95	228.93
895.26	228.94
895.57	229.15
895.87	229.00
896.18	229.06
896.48	229.08
896.79	228.99
897.10	229.06
897.40	229.04
897.71	229.22
898.01	229.18
898.32	229.18
898.63	229.06
898.93	229.09
899.24	229.21
899.54	229.25
899.85	229.27
900.15	229.28
900.46	229.23
900.76	229.20
901.07	229.28
901.38	229.24
901.68	229.34
901.99	229.12
902.29	229.09
902.60	228.99
902.90	229.04
903.21	229.13
903.51	229.00
903.82	229.02
904.12	228.99
904.43	229.02
904.73	228.93
905.03	229.01
905.34	229.17
905.64	229.10
905.95	229.03
906.25	228.94
906.56	228.83
906.86	228.92
907.17	228.92
907.47	228.89
907.77	228.84
908.08	228.70
908.38	228.76
908.69	228.77
908.99	228.84
909.30	228.80
909.60	228.73
909.90	228.72
910.21	228.68
910.51	228.54
910.81	228.49
911.12	228.57
911.42	228.53
911.73	228.26
912.03	228.31
912.33	228.43
912.64	228.47
912.94	228.57
913.24	228.48
913.55	228.47
913.85	228.34
914.15	228.35
914.46	228.35
914.76	228.25
915.06	228.23
915.37	228.19
915.67	228.06
915.97	228.09
916.27	228.04
916.58	228.15
916.88	228.15
917.18	228.15
917.49	228.29
917.79	228.32
918.09	228.38
918.39	228.53
918.70	228.41
919.00	228.46
919.30	228.55
919.60	228.54
919.91	228.47
920.21	228.44
920.51	228.48
920.81	228.47
921.12	228.61
921.42	228.62
921.72	228.62
922.02	228.65
922.32	228.60
922.63	228.70
922.93	228.66
923.23	228.70
923.53	228.72
923.83	228.56
924.13	228.65
924.44	228.64
924.74	228.58
925.04	228.70
925.34	228.59
925.64	228.50
925.94	228.53
926.24	228.64
926.55	228.73
926.85	228.75
927.15	228.87
927.45	228.87
927.75	228.85
928.05	228.84
928.35	228.89
928.65	228.94
928.95	228.89
929.26	228.95
929.56	229.09
929.86	229.20
930.16	229.29
930.46	229.29
930.76	229.41
931.06	229.37
931.36	229.34
931.66	229.37
931.96	229.44
932.26	229.47
932.56	229.42
932.86	229.46
933.16	229.48
933.46	229.43
933.76	229.43
934.06	229.57
934.36	229.71
934.66	229.73
934.96	229.82
935.26	229.95
935.56	229.91
935.86	229.78
936.16	229.66
936.46	229.55
936.76	229.50
937.06	229.38
937.36	229.36
937.66	229.30
937.96	229.38
938.26	229.27
938.56	229.32
938.86	229.36
939.16	229.38
939.46	229.37
939.76	229.42
940.06	229.34
940.35	229.32
940.65	229.25
940.95	229.25
941.25	229.08
941.55	229.00
941.85	229.00
942.15	229.10
942.45	229.11
942.75	229.10
943.04	229.13
943.34	229.24
943.64	229.21
943.94	229.20
944.24	229.11
944.54	229.14
944.84	229.02
945.13	228.99
945.43	229.03
945.73	229.01
946.03	228.90
946.33	228.83
946.62	228.71
946.92	228.65
947.22	228.72
947.52	228.89
947.82	228.90
948.11	228.79
948.41	228.72
948.71	228.66
949.01	228.63
949.31	228.66
949.60	228.55
949.90	228.55
950.20	228.53
950.50	228.50
950.79	228.47
951.09	228.54
951.39	228.45
951.69	228.32
951.98	228.35
952.28	228.32
952.58	228.32
952.87	228.39
953.17	228.43
953.47	228.37
953.76	228.21
954.06	228.17
954.36	228.27
954.66	228.21
954.95	228.28
955.25	228.31
955.55	228.19
955.84	228.11
956.14	228.16
956.44	228.08
956.73	228.12
957.03	228.13
957.32	228.19
957.62	228.24
957.92	228.34
958.21	228.37
958.51	228.57
958.81	228.72
959.10	228.75
959.40	228.70
959.69	228.80
959.99	228.88
960.29	228.89
960.58	228.73
960.88	228.88
961.17	228.85
961.47	228.92
961.76	228.93
962.06	229.00
962.36	228.93
962.65	229.02
962.95	229.07
963.24	229.10
963.54	228.98
963.83	229.05
964.13	229.04
964.42	228.84
964.72	228.74
965.01	228.63
965.31	228.49
965.60	228.53
965.90	228.61
966.19	228.54
966.49	228.50
966.78	228.65
967.08	228.59
967.37	228.63
967.67	228.56
967.96	228.57
968.26	228.55
968.55	228.61
968.85	228.61
969.14	228.57
969.43	228.52
969.73	228.56
970.02	228.52
970.32	228.45
970.61	228.53
970.91	228.47
971.20	228.49
971.49	228.58
971.79	228.54
972.08	228.31
972.38	228.37
972.67	228.37
972.96	228.32
973.26	228.26
973.55	228.15
973.85	228.18
974.14	228.20
974.43	228.27
974.73	228.08
975.02	228.04
975.31	228.04
975.61	228.04
975.90	228.03
976.19	227.99
976.49	228.05
976.78	228.05
977.07	228.10
977.37	228.01
977.66	228.02
977.95	227.95
978.24	228.03
978.54	228.02
978.83	228.07
979.12	228.06
979.42	228.00
979.71	228.02
980.00	227.98
980.29	227.94
980.59	227.82
980.88	227.93
981.17	227.86
981.46	227.80
981.76	227.83
982.05	227.87
982.34	227.85
982.63	227.81
982.93	227.87
983.22	227.80
983.51	227.87
983.80	227.86
984.09	227.86
984.39	227.88
984.68	227.81
984.97	227.78
985.26	227.77
985.55	227.81
985.85	227.80
986.14	227.86
986.43	227.97
986.72	227.95
987.01	227.84
987.30	227.96
987.59	228.00
987.89	227.99
988.18	227.92
988.47	227.92
988.76	227.97
989.05	227.92
989.34	227.90
989.63	227.92
989.92	227.94
990.22	227.98
990.51	227.89
990.80	227.92
991.09	227.94
991.38	227.94
991.67	227.86
991.96	227.82
992.25	227.84
992.54	227.70
992.83	227.70
993.12	227.82
993.41	227.84
993.70	227.89
993.99	227.92
994.28	227.94
994.58	228.04
994.87	228.01
995.16	227.92
995.45	227.91
995.74	227.89
996.03	227.91
996.32	227.95
996.61	228.03
996.90	228.08
997.19	228.10
997.48	228.15
997.77	228.15
998.06	228.27
998.34	228.17
998.63	228.26
998.92	228.30
999.21	228.35
999.50	228.36
999.79	228.34
1000.08	228.39
1000.37	228.40
1000.66	228.39
1000.95	228.38
1001.24	228.50
1001.53	228.66
1001.82	228.69
1002.11	228.59
1002.40	228.59
1002.68	228.63
1002.97	228.73
1003.26	228.72
1003.55	228.63
1003.84	228.73
1004.13	228.78
1004.42	228.82
1004.71	228.77
1004.99	228.77
1005.28	228.75
1005.57	228.69
1005.86	228.69
1006.15	228.59
1006.44	228.70
1006.72	228.71
1007.01	228.72
1007.30	228.70
1007.59	228.58
1007.88	228.54
1008.17	228.62
1008.45	228.54
1008.74	228.40
1009.03	228.31
1009.32	228.30
1009.60	228.35
1009.89	228.33
1010.18	228.22
1010.47	228.26
1010.76	228.25
1011.04	228.27
1011.33	228.26
1011.62	228.22
1011.91	228.25
1012.19	228.32
1012.48	228.13
1012.77	228.08
1013.05	228.14
1013.34	228.04
1013.63	228.09
1013.92	228.03
1014.20	227.99
1014.49	228.00
1014.78	228.00
1015.06	227.90
1015.35	227.81
1015.64	227.90
1015.92	227.90
1016.21	227.84
1016.50	227.79
1016.78	227.85
1017.07	227.79
1017.36	227.78
1017.64	227.76
1017.93	227.72
1018.22	227.70
1018.50	227.76
1018.79	227.70
1019.08	227.64
1019.36	227.75
1019.65	227.69
1019.93	227.76
1020.22	227.80
1020.51	227.91
1020.79	227.94
1021.08	228.00
1021.36	227.50
1021.65	227.20
1021.94	228.70
1022.22	228.40
1022.51	227.20
1022.79	228.50
1023.08	228.80
1023.36	229.80
1023.65	227.70
>>>>>End Processed Spectral Data<<<<<
