SpectraSuite Data File
++++++++++++++++++++++++++++++++++++
Date: Fri Feb 01 14:35:31 EST 2013
User: group
Dark Spectrum Present: No
Reference Spectrum Present: No
Number of Sampled Component Spectra: 1
Spectrometers: USB2E7196
Integration Time (usec): 70000 (USB2E7196)
Spectra Averaged: 10 (USB2E7196)
Boxcar Smoothing: 10 (USB2E7196)
Correct for Electrical Dark: No (USB2E7196)
Strobe/Lamp Enabled: No (USB2E7196)
Correct for Detector Non-linearity: No (USB2E7196)
Correct for Stray Light: No (USB2E7196)
Number of Pixels in Processed Spectrum: 2048
>>>>>Begin Processed Spectral Data<<<<<
339.09	0.00
339.48	216.10
339.86	219.60
340.24	219.10
340.63	222.00
341.01	224.70
341.39	223.20
341.78	225.00
342.16	224.30
342.54	227.80
342.93	214.85
343.31	225.69
343.69	226.21
344.07	226.61
344.46	227.08
344.84	227.33
345.22	227.48
345.60	227.73
345.99	227.93
346.37	228.15
346.75	228.20
347.13	228.24
347.52	228.28
347.90	228.45
348.28	228.53
348.66	228.54
349.05	228.40
349.43	228.34
349.81	228.33
350.19	228.36
350.57	228.44
350.96	228.49
351.34	228.55
351.72	228.68
352.10	228.78
352.48	228.71
352.87	228.70
353.25	228.75
353.63	228.79
354.01	228.82
354.39	228.88
354.77	228.89
355.15	228.98
355.54	228.98
355.92	228.95
356.30	228.92
356.68	229.15
357.06	229.33
357.44	229.36
357.82	229.39
358.20	229.50
358.58	229.48
358.97	229.48
359.35	229.59
359.73	229.62
360.11	229.61
360.49	229.75
360.87	229.92
361.25	229.94
361.63	230.09
362.01	230.17
362.39	230.10
362.77	230.11
363.15	230.15
363.53	230.18
363.91	230.06
364.29	230.09
364.67	229.79
365.05	229.76
365.43	229.82
365.81	229.84
366.19	229.90
366.57	229.95
366.95	229.98
367.33	229.96
367.71	229.90
368.09	229.90
368.47	229.94
368.85	229.83
369.23	229.88
369.61	229.77
369.99	229.79
370.37	229.95
370.75	230.06
371.13	230.01
371.51	229.88
371.89	229.99
372.27	229.98
372.65	229.90
373.03	229.76
373.41	229.64
373.78	229.59
374.16	229.38
374.54	229.29
374.92	229.26
375.30	229.15
375.68	229.05
376.06	229.07
376.44	228.94
376.82	228.87
377.19	228.80
377.57	228.67
377.95	228.50
378.33	228.30
378.71	228.01
379.09	227.90
379.47	227.93
379.84	227.88
380.22	227.78
380.60	227.74
380.98	227.68
381.36	227.62
381.73	227.39
382.11	227.43
382.49	227.30
382.87	227.11
383.25	227.10
383.62	227.21
384.00	227.05
384.38	226.93
384.76	226.96
385.13	226.87
385.51	226.83
385.89	226.71
386.27	226.58
386.64	226.63
387.02	226.63
387.40	226.59
387.78	226.55
388.15	226.66
388.53	226.66
388.91	226.74
389.29	226.68
389.66	226.83
390.04	226.67
390.42	226.74
390.79	226.75
391.17	226.65
391.55	226.42
391.92	226.44
392.30	226.51
392.68	226.43
393.05	226.44
393.43	226.42
393.81	226.50
394.18	226.55
394.56	226.57
394.94	226.59
395.31	226.67
395.69	226.67
396.06	226.71
396.44	226.76
396.82	226.74
397.19	227.09
397.57	227.13
397.95	227.30
398.32	227.41
398.70	227.61
399.07	227.83
399.45	227.96
399.82	228.08
400.20	228.20
400.58	228.45
400.95	228.57
401.33	228.80
401.70	229.13
402.08	229.37
402.45	229.51
402.83	229.72
403.20	230.00
403.58	230.23
403.95	230.31
404.33	230.76
404.71	231.05
405.08	231.29
405.46	231.59
405.83	231.88
406.21	232.18
406.58	232.56
406.96	232.82
407.33	233.31
407.70	233.70
408.08	234.25
408.45	234.71
408.83	235.27
409.20	235.77
409.58	236.14
409.95	236.62
410.33	237.32
410.70	237.91
411.08	238.45
411.45	239.21
411.82	240.01
412.20	240.69
412.57	241.65
412.95	242.34
413.32	243.34
413.69	244.36
414.07	245.40
414.44	246.46
414.82	247.58
415.19	248.84
415.56	250.14
415.94	251.48
416.31	252.97
416.68	254.56
417.06	256.35
417.43	257.95
417.81	260.04
418.18	261.90
418.55	264.06
418.93	266.39
419.30	268.60
419.67	270.90
420.04	273.37
420.42	275.92
420.79	279.01
421.16	281.96
421.54	285.05
421.91	288.24
422.28	291.56
422.66	295.29
423.03	298.77
423.40	302.54
423.77	306.23
424.15	310.06
424.52	314.08
424.89	318.48
425.26	322.90
425.64	326.83
426.01	331.40
426.38	336.07
426.75	340.86
427.13	345.81
427.50	351.02
427.87	356.41
428.24	361.75
428.61	366.77
428.99	372.40
429.36	378.56
429.73	384.65
430.10	390.60
430.47	396.59
430.85	402.82
431.22	409.35
431.59	416.47
431.96	423.32
432.33	430.65
432.70	437.78
433.08	446.03
433.45	453.91
433.82	461.67
434.19	470.37
434.56	478.61
434.93	486.59
435.30	494.70
435.68	503.67
436.05	512.72
436.42	521.50
436.79	529.58
437.16	538.09
437.53	547.34
437.90	556.32
438.27	565.12
438.64	574.38
439.01	583.10
439.38	590.86
439.75	598.34
440.13	606.71
440.50	614.81
440.87	621.68
441.24	628.74
441.61	636.31
441.98	641.93
442.35	648.63
442.72	655.70
443.09	662.38
443.46	666.80
443.83	669.72
444.20	672.61
444.57	676.29
444.94	678.54
445.31	680.70
445.68	682.96
446.05	684.69
446.42	684.92
446.79	684.73
447.16	684.65
447.53	684.87
447.90	682.79
448.27	680.41
448.64	676.64
449.01	674.44
449.37	669.42
449.74	664.84
450.11	659.05
450.48	652.39
450.85	645.76
451.22	640.03
451.59	634.60
451.96	629.53
452.33	622.21
452.70	615.61
453.07	607.61
453.43	599.75
453.80	591.86
454.17	584.10
454.54	576.71
454.91	568.71
455.28	560.80
455.65	553.66
456.02	546.39
456.38	540.25
456.75	532.10
457.12	525.58
457.49	518.95
457.86	512.73
458.23	507.15
458.59	501.08
458.96	494.73
459.33	489.21
459.70	483.58
460.07	479.37
460.43	474.40
460.80	469.37
461.17	464.95
461.54	460.42
461.91	456.15
462.27	451.93
462.64	448.12
463.01	444.00
463.38	439.75
463.74	435.66
464.11	431.79
464.48	428.79
464.85	425.52
465.21	422.97
465.58	420.05
465.95	416.69
466.32	413.73
466.68	410.92
467.05	408.17
467.42	405.49
467.78	402.44
468.15	399.63
468.52	397.62
468.88	394.84
469.25	392.31
469.62	390.25
469.98	388.11
470.35	386.15
470.72	384.40
471.08	382.47
471.45	380.74
471.82	378.99
472.18	376.90
472.55	375.50
472.92	373.69
473.28	372.12
473.65	370.68
474.02	369.09
474.38	367.95
474.75	366.90
475.11	365.58
475.48	364.67
475.85	363.71
476.21	362.80
476.58	362.05
476.94	361.32
477.31	360.65
477.67	359.84
478.04	359.20
478.41	358.54
478.77	358.11
479.14	357.56
479.50	357.25
479.87	357.05
480.23	356.73
480.60	356.28
480.96	356.02
481.33	356.10
481.69	356.24
482.06	356.06
482.42	355.80
482.79	355.74
483.15	355.96
483.52	356.26
483.88	356.49
484.25	356.73
484.61	357.02
484.98	357.58
485.34	358.19
485.71	358.84
486.07	359.59
486.44	360.22
486.80	361.10
487.17	362.01
487.53	363.26
487.90	364.36
488.26	365.59
488.62	366.85
488.99	368.00
489.35	369.21
489.72	370.55
490.08	372.04
490.44	373.71
490.81	375.23
491.17	376.74
491.54	378.51
491.90	380.25
492.26	382.12
492.63	383.60
492.99	385.45
493.36	387.29
493.72	389.31
494.08	391.42
494.45	393.52
494.81	395.67
495.17	397.66
495.54	399.81
495.90	402.03
496.26	404.31
496.63	406.70
496.99	409.25
497.35	411.68
497.72	414.21
498.08	416.60
498.44	419.27
498.80	422.10
499.17	424.69
499.53	427.38
499.89	430.13
500.26	432.92
500.62	435.55
500.98	438.36
501.34	441.18
501.71	443.83
502.07	446.59
502.43	449.34
502.79	452.12
503.16	454.81
503.52	457.59
503.88	460.06
504.24	462.70
504.60	465.28
504.97	467.95
505.33	470.53
505.69	473.19
506.05	475.50
506.41	477.90
506.78	480.15
507.14	482.35
507.50	484.72
507.86	486.95
508.22	489.41
508.59	491.60
508.95	493.61
509.31	495.90
509.67	497.86
510.03	499.85
510.39	501.77
510.75	503.82
511.12	505.77
511.48	507.74
511.84	509.55
512.20	511.17
512.56	512.87
512.92	514.47
513.28	515.90
513.64	517.44
514.00	518.73
514.37	520.11
514.73	521.67
515.09	522.72
515.45	524.07
515.81	525.12
516.17	526.10
516.53	527.32
516.89	528.49
517.25	529.42
517.61	530.37
517.97	531.21
518.33	531.96
518.69	532.79
519.05	533.80
519.41	534.72
519.77	535.95
520.13	536.93
520.49	537.92
520.85	538.90
521.21	539.70
521.57	540.64
521.93	541.51
522.29	542.21
522.65	543.16
523.01	543.96
523.37	544.60
523.73	545.62
524.09	546.33
524.45	546.84
524.81	547.84
525.17	548.94
525.53	550.09
525.89	551.06
526.25	552.21
526.61	552.99
526.97	553.98
527.33	554.74
527.68	555.89
528.04	556.94
528.40	557.92
528.76	559.18
529.12	560.57
529.48	562.08
529.84	563.35
530.20	564.77
530.56	566.51
530.91	568.16
531.27	569.70
531.63	571.25
531.99	573.19
532.35	574.82
532.71	576.40
533.07	578.18
533.42	580.07
533.78	581.65
534.14	583.71
534.50	585.66
534.86	587.82
535.21	589.41
535.57	591.69
535.93	593.94
536.29	596.21
536.65	598.39
537.00	600.40
537.36	602.96
537.72	605.40
538.08	607.72
538.44	610.26
538.79	612.83
539.15	615.26
539.51	617.91
539.87	620.69
540.22	623.39
540.58	626.34
540.94	629.01
541.29	631.88
541.65	634.74
542.01	637.69
542.37	640.69
542.72	643.83
543.08	646.91
543.44	649.82
543.79	652.90
544.15	655.91
544.51	659.33
544.87	662.56
545.22	665.78
545.58	668.80
545.94	671.74
546.29	674.97
546.65	678.29
547.01	681.30
547.36	684.67
547.72	687.87
548.07	690.90
548.43	694.25
548.79	697.65
549.14	700.84
549.50	704.15
549.86	707.41
550.21	710.68
550.57	713.93
550.92	717.45
551.28	720.58
551.64	724.15
551.99	727.53
552.35	730.69
552.70	734.16
553.06	737.87
553.41	741.64
553.77	745.31
554.13	748.91
554.48	752.51
554.84	755.92
555.19	759.39
555.55	762.89
555.90	766.42
556.26	769.90
556.61	773.43
556.97	776.82
557.32	780.34
557.68	783.87
558.03	787.09
558.39	790.44
558.74	794.10
559.10	797.27
559.45	800.81
559.81	804.50
560.16	807.88
560.52	810.98
560.87	814.40
561.23	817.00
561.58	820.29
561.94	823.39
562.29	826.28
562.64	829.30
563.00	832.35
563.35	835.75
563.71	839.01
564.06	841.90
564.42	844.92
564.77	847.71
565.12	850.94
565.48	854.22
565.83	857.00
566.19	859.85
566.54	862.92
566.89	865.44
567.25	868.07
567.60	870.82
567.96	873.74
568.31	876.12
568.66	879.09
569.02	881.70
569.37	883.87
569.72	886.52
570.08	889.11
570.43	891.50
570.78	893.30
571.14	895.15
571.49	897.24
571.84	899.61
572.20	901.63
572.55	903.24
572.90	904.71
573.26	906.71
573.61	908.27
573.96	909.54
574.31	910.57
574.67	911.50
575.02	912.28
575.37	913.06
575.72	914.07
576.08	914.86
576.43	915.53
576.78	916.66
577.13	917.60
577.49	918.55
577.84	919.44
578.19	920.20
578.54	920.90
578.90	921.50
579.25	921.41
579.60	921.58
579.95	922.11
580.30	922.33
580.66	922.18
581.01	922.33
581.36	922.54
581.71	922.99
582.06	923.52
582.42	923.76
582.77	923.81
583.12	923.79
583.47	923.68
583.82	923.84
584.17	923.64
584.53	923.38
584.88	922.94
585.23	922.47
585.58	921.98
585.93	921.68
586.28	921.33
586.63	921.38
586.98	921.28
587.34	920.80
587.69	920.33
588.04	919.89
588.39	919.46
588.74	918.36
589.09	917.58
589.44	916.44
589.79	915.73
590.14	915.17
590.49	914.39
590.84	913.64
591.19	912.50
591.54	911.29
591.89	909.83
592.25	908.74
592.60	907.07
592.95	905.55
593.30	904.00
593.65	902.50
594.00	900.58
594.35	899.50
594.70	897.70
595.05	896.40
595.40	894.82
595.75	892.63
596.10	891.67
596.45	890.14
596.80	888.96
597.15	887.26
597.50	885.34
597.85	883.67
598.19	882.09
598.54	880.63
598.89	879.18
599.24	878.06
599.59	876.26
599.94	874.96
600.29	873.63
600.64	871.85
600.99	870.09
601.34	868.46
601.69	865.79
602.04	863.92
602.39	861.87
602.74	860.31
603.08	858.99
603.43	857.27
603.78	855.59
604.13	853.55
604.48	851.58
604.83	849.90
605.18	848.03
605.53	845.84
605.87	843.21
606.22	841.12
606.57	838.34
606.92	836.12
607.27	834.04
607.62	831.99
607.96	829.97
608.31	827.78
608.66	825.50
609.01	823.43
609.36	820.83
609.70	818.36
610.05	815.47
610.40	812.98
610.75	809.85
611.10	806.95
611.44	803.79
611.79	801.23
612.14	798.40
612.49	795.32
612.83	792.38
613.18	789.85
613.53	787.10
613.88	784.28
614.22	781.56
614.57	778.23
614.92	775.22
615.27	772.50
615.61	769.55
615.96	766.66
616.31	763.71
616.65	761.41
617.00	758.77
617.35	756.20
617.70	753.10
618.04	750.09
618.39	747.36
618.74	744.90
619.08	741.96
619.43	739.19
619.78	736.54
620.12	733.85
620.47	731.10
620.82	727.92
621.16	725.43
621.51	722.86
621.85	720.50
622.20	717.64
622.55	714.79
622.89	712.27
623.24	709.74
623.59	707.47
623.93	704.80
624.28	702.05
624.62	699.49
624.97	697.06
625.32	694.81
625.66	692.25
626.01	689.57
626.35	686.89
626.70	683.88
627.04	681.32
627.39	678.62
627.73	675.71
628.08	673.28
628.43	670.43
628.77	667.62
629.12	664.71
629.46	662.03
629.81	659.09
630.15	656.16
630.50	653.22
630.84	649.97
631.19	646.85
631.53	643.77
631.88	640.60
632.22	637.60
632.57	634.81
632.91	631.75
633.26	628.95
633.60	626.30
633.95	623.82
634.29	621.16
634.64	618.76
634.98	616.00
635.32	613.60
635.67	611.22
636.01	608.66
636.36	606.26
636.70	603.93
637.05	601.68
637.39	599.45
637.73	597.17
638.08	595.19
638.42	593.25
638.77	591.11
639.11	588.83
639.45	586.48
639.80	583.83
640.14	581.63
640.49	579.20
640.83	576.81
641.17	574.63
641.52	572.21
641.86	569.62
642.20	567.63
642.55	565.02
642.89	562.67
643.23	560.17
643.58	557.80
643.92	555.21
644.26	552.81
644.61	550.60
644.95	548.27
645.29	545.44
645.64	542.66
645.98	540.20
646.32	538.01
646.66	535.70
647.01	533.52
647.35	531.32
647.69	528.97
648.04	526.74
648.38	524.16
648.72	521.72
649.06	519.35
649.41	517.00
649.75	514.66
650.09	512.14
650.43	509.79
650.78	507.24
651.12	504.93
651.46	502.79
651.80	500.29
652.14	497.84
652.49	495.84
652.83	493.67
653.17	491.40
653.51	489.00
653.85	486.65
654.20	484.33
654.54	481.90
654.88	479.59
655.22	477.05
655.56	474.66
655.90	472.36
656.25	470.15
656.59	467.93
656.93	465.83
657.27	463.90
657.61	461.75
657.95	459.92
658.29	457.77
658.64	455.45
658.98	453.08
659.32	450.81
659.66	448.70
660.00	446.56
660.34	444.44
660.68	442.45
661.02	440.41
661.36	438.53
661.70	436.67
662.05	434.96
662.39	433.21
662.73	431.56
663.07	429.80
663.41	428.14
663.75	426.46
664.09	424.69
664.43	422.65
664.77	420.83
665.11	418.88
665.45	417.10
665.79	415.30
666.13	413.78
666.47	412.12
666.81	410.23
667.15	408.44
667.49	406.65
667.83	405.03
668.17	403.40
668.51	401.68
668.85	399.94
669.19	398.35
669.53	396.75
669.87	394.97
670.21	393.46
670.55	391.93
670.89	390.34
671.23	388.94
671.57	387.65
671.91	386.40
672.25	385.07
672.58	383.74
672.92	382.45
673.26	381.07
673.60	379.79
673.94	378.61
674.28	377.50
674.62	376.44
674.96	375.19
675.30	374.08
675.64	372.90
675.97	371.60
676.31	370.39
676.65	369.16
676.99	368.14
677.33	366.98
677.67	365.70
678.01	364.37
678.34	362.91
678.68	361.61
679.02	360.29
679.36	359.11
679.70	357.97
680.04	356.81
680.37	355.65
680.71	354.54
681.05	353.45
681.39	352.34
681.73	351.26
682.06	350.10
682.40	348.89
682.74	347.78
683.08	346.88
683.42	345.72
683.75	344.70
684.09	343.57
684.43	342.28
684.77	341.22
685.10	340.18
685.44	339.20
685.78	338.18
686.12	337.14
686.45	336.09
686.79	334.96
687.13	333.86
687.46	332.81
687.80	331.79
688.14	330.61
688.48	329.55
688.81	328.42
689.15	327.42
689.49	326.44
689.82	325.42
690.16	324.30
690.50	323.41
690.83	322.41
691.17	321.31
691.51	320.35
691.84	319.36
692.18	318.42
692.52	317.40
692.85	316.41
693.19	315.42
693.52	314.60
693.86	313.73
694.20	312.86
694.53	311.96
694.87	310.92
695.21	310.00
695.54	309.10
695.88	308.12
696.21	307.10
696.55	306.33
696.88	305.40
697.22	304.59
697.56	303.60
697.89	302.60
698.23	301.87
698.56	301.06
698.90	300.18
699.23	299.28
699.57	298.57
699.90	297.76
700.24	296.96
700.58	295.90
700.91	295.22
701.25	294.60
701.58	293.90
701.92	293.34
702.25	292.70
702.59	292.03
702.92	291.46
703.26	290.89
703.59	290.12
703.93	289.70
704.26	289.08
704.60	288.37
704.93	287.79
705.26	287.19
705.60	286.70
705.93	286.12
706.27	285.66
706.60	285.21
706.94	284.66
707.27	284.24
707.61	283.68
707.94	283.02
708.27	282.23
708.61	281.57
708.94	281.01
709.28	280.30
709.61	279.77
709.94	279.22
710.28	278.62
710.61	278.10
710.95	277.35
711.28	276.95
711.61	276.58
711.95	276.20
712.28	275.60
712.61	274.96
712.95	274.55
713.28	274.09
713.61	273.43
713.95	272.96
714.28	272.41
714.61	272.05
714.95	271.60
715.28	271.10
715.61	270.59
715.95	270.06
716.28	269.74
716.61	269.16
716.95	268.70
717.28	268.33
717.61	267.79
717.94	267.42
718.28	266.88
718.61	266.37
718.94	265.99
719.27	265.59
719.61	265.28
719.94	264.92
720.27	264.55
720.60	264.34
720.94	264.01
721.27	263.70
721.60	263.36
721.93	263.03
722.27	262.80
722.60	262.54
722.93	262.18
723.26	261.90
723.59	261.65
723.93	261.39
724.26	261.05
724.59	260.92
724.92	260.56
725.25	260.27
725.59	260.02
725.92	259.60
726.25	259.31
726.58	259.03
726.91	258.71
727.24	258.37
727.57	257.95
727.91	257.53
728.24	257.27
728.57	256.91
728.90	256.75
729.23	256.39
729.56	256.31
729.89	256.08
730.22	255.77
730.55	255.53
730.89	255.29
731.22	255.02
731.55	254.74
731.88	254.58
732.21	254.22
732.54	253.92
732.87	253.71
733.20	253.55
733.53	253.33
733.86	253.08
734.19	252.76
734.52	252.61
734.85	252.60
735.18	252.28
735.51	252.15
735.84	251.77
736.17	251.56
736.50	251.15
736.83	251.12
737.16	250.88
737.49	250.64
737.82	250.31
738.15	250.11
738.48	249.96
738.81	249.67
739.14	249.41
739.47	249.21
739.80	248.98
740.13	248.70
740.46	248.45
740.79	248.20
741.12	248.04
741.45	247.75
741.78	247.35
742.11	247.27
742.44	247.00
742.77	246.87
743.10	246.73
743.43	246.44
743.75	246.08
744.08	246.18
744.41	246.04
744.74	245.97
745.07	245.73
745.40	245.49
745.73	245.36
746.06	245.27
746.39	245.10
746.71	244.82
747.04	244.58
747.37	244.40
747.70	244.21
748.03	244.10
748.36	243.94
748.68	243.79
749.01	243.44
749.34	243.23
749.67	242.94
750.00	242.82
750.33	242.82
750.65	242.62
750.98	242.17
751.31	241.95
751.64	241.63
751.97	241.64
752.29	241.43
752.62	241.19
752.95	240.97
753.28	240.82
753.60	240.64
753.93	240.60
754.26	240.36
754.59	240.26
754.91	239.99
755.24	239.83
755.57	239.60
755.90	239.55
756.22	239.49
756.55	239.43
756.88	239.18
757.20	238.97
757.53	238.83
757.86	238.74
758.19	238.67
758.51	238.59
758.84	238.31
759.17	238.18
759.49	238.14
759.82	238.17
760.15	238.08
760.47	238.11
760.80	238.04
761.13	238.04
761.45	237.90
761.78	237.92
762.11	237.81
762.43	237.83
762.76	237.63
763.08	237.50
763.41	237.42
763.74	237.42
764.06	237.27
764.39	237.22
764.71	237.10
765.04	237.02
765.37	237.01
765.69	237.01
766.02	236.93
766.34	236.79
766.67	236.61
767.00	236.56
767.32	236.68
767.65	236.61
767.97	236.50
768.30	236.36
768.62	236.19
768.95	236.19
769.27	236.08
769.60	236.13
769.92	236.14
770.25	236.02
770.57	235.91
770.90	235.93
771.22	235.77
771.55	235.70
771.87	235.60
772.20	235.53
772.52	235.61
772.85	235.82
773.17	235.82
773.50	235.78
773.82	235.70
774.15	235.41
774.47	235.35
774.80	235.40
775.12	235.37
775.45	235.36
775.77	235.30
776.09	235.28
776.42	235.16
776.74	235.02
777.07	234.98
777.39	235.00
777.72	234.87
778.04	234.86
778.36	234.89
778.69	234.87
779.01	234.79
779.33	234.59
779.66	234.35
779.98	234.24
780.31	234.16
780.63	234.26
780.95	234.28
781.28	234.21
781.60	233.99
781.92	233.98
782.25	233.95
782.57	233.88
782.89	233.84
783.22	233.83
783.54	233.74
783.86	233.70
784.19	233.67
784.51	233.70
784.83	233.67
785.16	233.62
785.48	233.57
785.80	233.53
786.12	233.45
786.45	233.39
786.77	233.42
787.09	233.40
787.42	233.17
787.74	233.09
788.06	233.00
788.38	233.05
788.71	233.00
789.03	233.00
789.35	233.01
789.67	232.95
789.99	232.92
790.32	232.82
790.64	232.81
790.96	232.80
791.28	232.69
791.61	232.63
791.93	232.55
792.25	232.38
792.57	232.50
792.89	232.34
793.21	232.22
793.54	232.15
793.86	232.08
794.18	232.10
794.50	231.95
794.82	231.89
795.14	231.87
795.47	231.91
795.79	231.74
796.11	231.64
796.43	231.60
796.75	231.52
797.07	231.56
797.39	231.56
797.71	231.40
798.04	231.31
798.36	231.36
798.68	231.22
799.00	231.28
799.32	230.95
799.64	230.99
799.96	230.92
800.28	230.80
800.60	230.75
800.92	230.73
801.24	230.76
801.56	230.77
801.89	230.67
802.21	230.57
802.53	230.62
802.85	230.53
803.17	230.51
803.49	230.48
803.81	230.43
804.13	230.44
804.45	230.35
804.77	230.40
805.09	230.27
805.41	230.26
805.73	230.26
806.05	230.33
806.37	230.35
806.69	230.46
807.01	230.56
807.33	230.54
807.65	230.37
807.97	230.46
808.28	230.49
808.60	230.38
808.92	230.32
809.24	230.33
809.56	230.35
809.88	230.38
810.20	230.35
810.52	230.38
810.84	230.34
811.16	230.36
811.48	230.33
811.80	230.38
812.12	230.39
812.43	230.30
812.75	230.36
813.07	230.36
813.39	230.26
813.71	230.19
814.03	230.21
814.35	230.33
814.67	230.27
814.98	230.19
815.30	230.33
815.62	230.33
815.94	230.23
816.26	230.34
816.58	230.31
816.89	230.28
817.21	230.23
817.53	230.18
817.85	230.17
818.17	230.19
818.48	230.24
818.80	230.32
819.12	230.32
819.44	230.17
819.76	230.09
820.07	230.09
820.39	230.10
820.71	230.12
821.03	230.13
821.34	230.10
821.66	230.11
821.98	230.13
822.30	230.06
822.61	230.14
822.93	229.99
823.25	229.97
823.57	229.96
823.88	230.05
824.20	229.97
824.52	230.06
824.83	229.99
825.15	229.81
825.47	229.71
825.79	229.70
826.10	229.74
826.42	229.79
826.74	229.77
827.05	229.69
827.37	229.60
827.69	229.47
828.00	229.40
828.32	229.43
828.64	229.37
828.95	229.46
829.27	229.46
829.58	229.50
829.90	229.41
830.22	229.44
830.53	229.39
830.85	229.37
831.17	229.25
831.48	229.24
831.80	229.32
832.11	229.31
832.43	229.30
832.75	229.25
833.06	229.30
833.38	229.17
833.69	229.06
834.01	229.08
834.32	229.09
834.64	229.10
834.96	229.00
835.27	228.96
835.59	228.96
835.90	228.82
836.22	228.75
836.53	228.70
836.85	228.53
837.16	228.58
837.48	228.51
837.79	228.56
838.11	228.53
838.42	228.41
838.74	228.43
839.05	228.43
839.37	228.41
839.68	228.32
840.00	228.32
840.31	228.50
840.63	228.46
840.94	228.45
841.26	228.40
841.57	228.43
841.88	228.48
842.20	228.38
842.51	228.33
842.83	228.40
843.14	228.60
843.46	228.79
843.77	228.72
844.08	228.74
844.40	228.66
844.71	228.69
845.03	228.77
845.34	228.72
845.65	228.70
845.97	228.76
846.28	228.75
846.60	228.89
846.91	228.85
847.22	228.84
847.54	228.78
847.85	228.73
848.16	228.76
848.48	228.68
848.79	228.85
849.10	228.90
849.42	228.84
849.73	228.73
850.04	228.64
850.36	228.62
850.67	228.70
850.98	228.70
851.30	228.66
851.61	228.59
851.92	228.69
852.23	228.84
852.55	228.89
852.86	228.95
853.17	228.90
853.49	228.84
853.80	228.94
854.11	229.12
854.42	229.21
854.74	229.23
855.05	229.30
855.36	229.10
855.67	229.12
855.99	229.11
856.30	229.34
856.61	229.39
856.92	229.41
857.23	229.42
857.55	229.37
857.86	229.44
858.17	229.51
858.48	229.44
858.79	229.32
859.11	229.26
859.42	229.22
859.73	229.27
860.04	229.35
860.35	229.25
860.66	229.13
860.98	229.12
861.29	229.12
861.60	229.19
861.91	229.25
862.22	229.22
862.53	229.18
862.84	228.91
863.16	228.98
863.47	228.88
863.78	228.90
864.09	228.93
864.40	228.86
864.71	228.83
865.02	228.85
865.33	228.79
865.64	228.70
865.95	228.74
866.27	228.74
866.58	228.64
866.89	228.64
867.20	228.58
867.51	228.58
867.82	228.49
868.13	228.29
868.44	228.36
868.75	228.36
869.06	228.43
869.37	228.38
869.68	228.24
869.99	228.32
870.30	228.32
870.61	228.31
870.92	228.33
871.23	228.33
871.54	228.31
871.85	228.40
872.16	228.49
872.47	228.39
872.78	228.26
873.09	228.30
873.40	228.29
873.71	228.30
874.02	228.24
874.33	228.09
874.64	228.20
874.95	228.13
875.26	228.00
875.56	227.90
875.87	227.95
876.18	227.85
876.49	227.90
876.80	227.83
877.11	227.81
877.42	227.78
877.73	227.75
878.04	227.69
878.35	227.72
878.66	227.69
878.96	227.69
879.27	227.68
879.58	227.70
879.89	227.71
880.20	227.80
880.51	227.85
880.82	227.99
881.12	228.01
881.43	227.91
881.74	228.02
882.05	228.05
882.36	228.04
882.67	228.19
882.97	228.02
883.28	228.00
883.59	228.09
883.90	228.13
884.21	228.17
884.51	228.22
884.82	228.22
885.13	228.27
885.44	228.28
885.74	228.36
886.05	228.34
886.36	228.34
886.67	228.35
886.98	228.41
887.28	228.45
887.59	228.40
887.90	228.50
888.20	228.52
888.51	228.53
888.82	228.56
889.13	228.57
889.43	228.75
889.74	228.82
890.05	228.72
890.35	228.77
890.66	228.81
890.97	228.77
891.28	228.68
891.58	228.69
891.89	228.64
892.20	228.59
892.50	228.51
892.81	228.64
893.12	228.51
893.42	228.47
893.73	228.45
894.04	228.44
894.34	228.54
894.65	228.50
894.95	228.54
895.26	228.50
895.57	228.55
895.87	228.37
896.18	228.35
896.48	228.33
896.79	228.31
897.10	228.33
897.40	228.37
897.71	228.29
898.01	228.24
898.32	228.35
898.63	228.37
898.93	228.44
899.24	228.34
899.54	228.33
899.85	228.32
900.15	228.24
900.46	228.19
900.76	228.16
901.07	228.19
901.38	228.21
901.68	228.20
901.99	228.12
902.29	228.20
902.60	228.20
902.90	228.29
903.21	228.35
903.51	228.27
903.82	228.32
904.12	228.48
904.43	228.49
904.73	228.46
905.03	228.53
905.34	228.68
905.64	228.72
905.95	228.77
906.25	228.80
906.56	228.84
906.86	228.97
907.17	228.91
907.47	228.92
907.77	228.81
908.08	228.87
908.38	228.74
908.69	228.72
908.99	228.71
909.30	228.67
909.60	228.53
909.90	228.61
910.21	228.53
910.51	228.42
910.81	228.40
911.12	228.43
911.42	228.37
911.73	228.13
912.03	228.06
912.33	228.13
912.64	228.09
912.94	228.07
913.24	228.00
913.55	227.93
913.85	227.98
914.15	228.10
914.46	228.00
914.76	228.10
915.06	228.05
915.37	228.02
915.67	228.00
915.97	228.08
916.27	227.95
916.58	227.90
916.88	227.86
917.18	227.88
917.49	227.89
917.79	227.87
918.09	227.93
918.39	227.94
918.70	227.98
919.00	227.96
919.30	228.07
919.60	228.05
919.91	228.05
920.21	227.99
920.51	227.98
920.81	228.09
921.12	228.10
921.42	228.18
921.72	228.21
922.02	228.21
922.32	228.26
922.63	228.38
922.93	228.51
923.23	228.66
923.53	228.60
923.83	228.56
924.13	228.59
924.44	228.67
924.74	228.77
925.04	228.73
925.34	228.67
925.64	228.63
925.94	228.66
926.24	228.79
926.55	228.76
926.85	228.80
927.15	228.77
927.45	228.71
927.75	228.69
928.05	228.68
928.35	228.70
928.65	228.71
928.95	228.72
929.26	228.73
929.56	228.72
929.86	228.80
930.16	228.87
930.46	228.93
930.76	228.98
931.06	228.88
931.36	228.81
931.66	228.94
931.96	228.90
932.26	228.93
932.56	228.86
932.86	228.90
933.16	228.76
933.46	228.80
933.76	228.94
934.06	228.94
934.36	229.10
934.66	229.17
934.96	229.09
935.26	228.99
935.56	228.99
935.86	228.88
936.16	228.76
936.46	228.63
936.76	228.56
937.06	228.44
937.36	228.43
937.66	228.54
937.96	228.52
938.26	228.53
938.56	228.42
938.86	228.45
939.16	228.44
939.46	228.50
939.76	228.44
940.06	228.42
940.35	228.47
940.65	228.34
940.95	228.26
941.25	228.23
941.55	228.42
941.85	228.45
942.15	228.59
942.45	228.62
942.75	228.74
943.04	228.84
943.34	228.90
943.64	228.88
943.94	228.71
944.24	228.62
944.54	228.68
944.84	228.73
945.13	228.61
945.43	228.65
945.73	228.66
946.03	228.62
946.33	228.54
946.62	228.48
946.92	228.49
947.22	228.56
947.52	228.54
947.82	228.44
948.11	228.34
948.41	228.19
948.71	228.22
949.01	228.12
949.31	227.98
949.60	228.02
949.90	228.08
950.20	228.15
950.50	228.13
950.79	228.07
951.09	228.07
951.39	228.21
951.69	228.14
951.98	228.16
952.28	228.25
952.58	228.26
952.87	228.25
953.17	228.22
953.47	228.17
953.76	228.16
954.06	228.00
954.36	228.04
954.66	228.07
954.95	228.09
955.25	228.13
955.55	228.16
955.84	228.05
956.14	228.08
956.44	228.02
956.73	228.02
957.03	228.00
957.32	228.01
957.62	227.95
957.92	228.00
958.21	228.01
958.51	228.12
958.81	228.14
959.10	228.22
959.40	228.37
959.69	228.37
959.99	228.36
960.29	228.50
960.58	228.47
960.88	228.63
961.17	228.69
961.47	228.67
961.76	228.64
962.06	228.72
962.36	228.71
962.65	228.80
962.95	228.76
963.24	228.81
963.54	228.80
963.83	228.86
964.13	228.94
964.42	228.94
964.72	228.84
965.01	228.91
965.31	228.80
965.60	228.69
965.90	228.79
966.19	228.86
966.49	228.87
966.78	228.94
967.08	228.88
967.37	228.85
967.67	228.84
967.96	228.86
968.26	228.81
968.55	228.80
968.85	228.85
969.14	228.85
969.43	228.80
969.73	228.77
970.02	228.70
970.32	228.60
970.61	228.57
970.91	228.46
971.20	228.34
971.49	228.36
971.79	228.32
972.08	228.17
972.38	228.16
972.67	228.07
972.96	228.03
973.26	228.00
973.55	228.09
973.85	228.06
974.14	228.12
974.43	228.20
974.73	228.19
975.02	228.10
975.31	228.17
975.61	228.20
975.90	228.24
976.19	228.16
976.49	228.18
976.78	228.24
977.07	228.29
977.37	228.40
977.66	228.44
977.95	228.49
978.24	228.61
978.54	228.63
978.83	228.69
979.12	228.64
979.42	228.61
979.71	228.48
980.00	228.56
980.29	228.57
980.59	228.40
980.88	228.43
981.17	228.44
981.46	228.44
981.76	228.45
982.05	228.51
982.34	228.51
982.63	228.57
982.93	228.49
983.22	228.54
983.51	228.47
983.80	228.50
984.09	228.45
984.39	228.30
984.68	228.24
984.97	228.22
985.26	228.25
985.55	228.32
985.85	228.31
986.14	228.22
986.43	228.24
986.72	228.25
987.01	228.21
987.30	228.21
987.59	228.22
987.89	228.19
988.18	228.13
988.47	228.15
988.76	228.18
989.05	228.19
989.34	228.17
989.63	228.20
989.92	228.10
990.22	228.11
990.51	228.13
990.80	228.14
991.09	228.10
991.38	228.19
991.67	228.14
991.96	228.20
992.25	228.34
992.54	228.30
992.83	228.27
993.12	228.24
993.41	228.41
993.70	228.59
993.99	228.59
994.28	228.58
994.58	228.71
994.87	228.60
995.16	228.67
995.45	228.66
995.74	228.59
996.03	228.67
996.32	228.81
996.61	228.90
996.90	228.94
997.19	229.00
997.48	228.92
997.77	228.87
998.06	228.81
998.34	228.75
998.63	228.75
998.92	228.89
999.21	228.94
999.50	228.73
999.79	228.52
1000.08	228.58
1000.37	228.62
1000.66	228.50
1000.95	228.53
1001.24	228.56
1001.53	228.62
1001.82	228.69
1002.11	228.56
1002.40	228.44
1002.68	228.45
1002.97	228.52
1003.26	228.48
1003.55	228.40
1003.84	228.46
1004.13	228.54
1004.42	228.54
1004.71	228.61
1004.99	228.54
1005.28	228.59
1005.57	228.60
1005.86	228.57
1006.15	228.49
1006.44	228.49
1006.72	228.60
1007.01	228.55
1007.30	228.50
1007.59	228.47
1007.88	228.37
1008.17	228.46
1008.45	228.45
1008.74	228.46
1009.03	228.40
1009.32	228.39
1009.60	228.44
1009.89	228.37
1010.18	228.28
1010.47	228.19
1010.76	228.02
1011.04	228.06
1011.33	228.05
1011.62	228.14
1011.91	228.24
1012.19	228.27
1012.48	228.11
1012.77	228.13
1013.05	228.23
1013.34	228.12
1013.63	228.10
1013.92	228.20
1014.20	228.18
1014.49	228.19
1014.78	228.14
1015.06	228.09
1015.35	228.02
1015.64	227.93
1015.92	227.88
1016.21	227.90
1016.50	227.91
1016.78	228.05
1017.07	227.91
1017.36	227.86
1017.64	227.83
1017.93	227.77
1018.22	227.72
1018.50	227.79
1018.79	227.58
1019.08	227.42
1019.36	227.55
1019.65	227.50
1019.93	227.46
1020.22	227.42
1020.51	227.49
1020.79	227.44
1021.08	226.80
1021.36	227.10
1021.65	225.70
1021.94	225.90
1022.22	229.30
1022.51	227.70
1022.79	227.70
1023.08	226.90
1023.36	230.00
1023.65	227.00
>>>>>End Processed Spectral Data<<<<<
