SpectraSuite Data File
++++++++++++++++++++++++++++++++++++
Date: Fri Feb 01 14:38:17 EST 2013
User: group
Dark Spectrum Present: No
Reference Spectrum Present: No
Number of Sampled Component Spectra: 1
Spectrometers: USB2E7196
Integration Time (usec): 70000 (USB2E7196)
Spectra Averaged: 10 (USB2E7196)
Boxcar Smoothing: 10 (USB2E7196)
Correct for Electrical Dark: No (USB2E7196)
Strobe/Lamp Enabled: No (USB2E7196)
Correct for Detector Non-linearity: No (USB2E7196)
Correct for Stray Light: No (USB2E7196)
Number of Pixels in Processed Spectrum: 2048
>>>>>Begin Processed Spectral Data<<<<<
339.09	0.00
339.48	218.00
339.86	217.00
340.24	219.00
340.63	222.00
341.01	224.80
341.39	222.70
341.78	224.90
342.16	227.00
342.54	227.10
342.93	214.97
343.31	225.78
343.69	226.26
344.07	226.69
344.46	227.13
344.84	227.40
345.22	227.53
345.60	227.82
345.99	228.10
346.37	228.10
346.75	228.11
347.13	228.20
347.52	228.26
347.90	228.40
348.28	228.50
348.66	228.54
349.05	228.43
349.43	228.44
349.81	228.45
350.19	228.50
350.57	228.54
350.96	228.62
351.34	228.72
351.72	228.74
352.10	228.84
352.48	228.85
352.87	228.89
353.25	228.96
353.63	229.03
354.01	228.94
354.39	229.06
354.77	229.14
355.15	229.11
355.54	229.05
355.92	228.98
356.30	228.92
356.68	229.10
357.06	229.19
357.44	229.16
357.82	229.20
358.20	229.20
358.58	229.28
358.97	229.36
359.35	229.47
359.73	229.65
360.11	229.74
360.49	229.81
360.87	229.89
361.25	230.00
361.63	229.99
362.01	229.98
362.39	230.00
362.77	230.03
363.15	230.19
363.53	230.09
363.91	230.11
364.29	230.13
364.67	229.99
365.05	229.99
365.43	230.03
365.81	230.05
366.19	230.15
366.57	230.12
366.95	230.05
367.33	229.96
367.71	229.81
368.09	229.91
368.47	229.90
368.85	229.89
369.23	229.85
369.61	229.81
369.99	229.87
370.37	229.85
370.75	229.90
371.13	229.80
371.51	229.81
371.89	229.76
372.27	229.68
372.65	229.68
373.03	229.65
373.41	229.55
373.78	229.50
374.16	229.20
374.54	229.12
374.92	229.06
375.30	229.02
375.68	228.97
376.06	228.71
376.44	228.61
376.82	228.50
377.19	228.37
377.57	228.23
377.95	228.16
378.33	228.05
378.71	227.85
379.09	227.73
379.47	227.76
379.84	227.68
380.22	227.61
380.60	227.45
380.98	227.27
381.36	227.24
381.73	227.15
382.11	227.22
382.49	227.10
382.87	226.97
383.25	226.85
383.62	226.90
384.00	226.86
384.38	226.86
384.76	226.84
385.13	226.83
385.51	226.88
385.89	226.77
386.27	226.68
386.64	226.72
387.02	226.79
387.40	226.68
387.78	226.62
388.15	226.53
388.53	226.56
388.91	226.62
389.29	226.51
389.66	226.54
390.04	226.44
390.42	226.50
390.79	226.48
391.17	226.47
391.55	226.31
391.92	226.41
392.30	226.43
392.68	226.35
393.05	226.28
393.43	226.15
393.81	226.22
394.18	226.28
394.56	226.26
394.94	226.27
395.31	226.37
395.69	226.52
396.06	226.62
396.44	226.64
396.82	226.70
397.19	226.90
397.57	226.97
397.95	227.08
398.32	227.09
398.70	227.22
399.07	227.27
399.45	227.29
399.82	227.25
400.20	227.18
400.58	227.32
400.95	227.48
401.33	227.64
401.70	227.83
402.08	227.96
402.45	228.05
402.83	228.28
403.20	228.46
403.58	228.58
403.95	228.86
404.33	229.09
404.71	229.26
405.08	229.50
405.46	229.68
405.83	229.87
406.21	230.10
406.58	230.30
406.96	230.52
407.33	230.94
407.70	231.21
408.08	231.68
408.45	231.97
408.83	232.20
409.20	232.51
409.58	232.61
409.95	233.00
410.33	233.42
410.70	233.61
411.08	233.91
411.45	234.17
411.82	234.51
412.20	234.90
412.57	235.41
412.95	235.63
413.32	236.03
413.69	236.61
414.07	237.06
414.44	237.71
414.82	238.35
415.19	239.00
415.56	239.66
415.94	240.28
416.31	241.08
416.68	241.90
417.06	242.73
417.43	243.74
417.81	244.62
418.18	245.64
418.55	246.84
418.93	247.94
419.30	249.04
419.67	250.19
420.04	251.45
420.42	252.71
420.79	254.29
421.16	255.80
421.54	257.29
421.91	258.99
422.28	260.60
422.66	262.37
423.03	264.15
423.40	266.09
423.77	268.09
424.15	270.00
424.52	272.05
424.89	274.33
425.26	276.40
425.64	278.45
426.01	280.53
426.38	282.70
426.75	285.04
427.13	287.51
427.50	289.94
427.87	292.57
428.24	295.33
428.61	297.83
428.99	300.64
429.36	303.64
429.73	306.51
430.10	309.56
430.47	312.61
430.85	315.55
431.22	318.89
431.59	322.35
431.96	325.65
432.33	329.27
432.70	332.80
433.08	337.10
433.45	341.05
433.82	345.10
434.19	349.53
434.56	353.85
434.93	357.97
435.30	362.04
435.68	366.48
436.05	370.60
436.42	374.82
436.79	378.83
437.16	383.14
437.53	387.68
437.90	392.01
438.27	396.19
438.64	400.66
439.01	404.61
439.38	408.21
439.75	411.76
440.13	415.75
440.50	419.50
440.87	422.40
441.24	425.60
441.61	429.02
441.98	431.65
442.35	434.85
442.72	438.12
443.09	441.35
443.46	443.23
443.83	444.75
444.20	446.02
444.57	447.79
444.94	448.57
445.31	449.56
445.68	450.64
446.05	451.20
446.42	451.15
446.79	451.02
447.16	450.89
447.53	450.89
447.90	449.76
448.27	448.52
448.64	446.61
449.01	445.50
449.37	443.10
449.74	440.70
450.11	437.69
450.48	434.28
450.85	430.84
451.22	427.96
451.59	425.19
451.96	422.65
452.33	418.90
452.70	415.72
453.07	411.65
453.43	407.41
453.80	403.70
454.17	399.82
454.54	396.25
454.91	392.14
455.28	388.24
455.65	384.62
456.02	381.13
456.38	378.00
456.75	374.07
457.12	370.67
457.49	367.18
457.86	363.76
458.23	361.02
458.59	358.06
458.96	354.98
459.33	352.10
459.70	349.25
460.07	346.85
460.43	344.22
460.80	341.65
461.17	339.48
461.54	337.00
461.91	334.80
462.27	332.46
462.64	330.51
463.01	328.63
463.38	326.66
463.74	324.37
464.11	322.53
464.48	320.75
464.85	319.11
465.21	317.90
465.58	316.53
465.95	314.68
466.32	313.13
466.68	311.67
467.05	310.27
467.42	308.75
467.78	307.36
468.15	306.01
468.52	305.10
468.88	303.65
469.25	302.43
469.62	301.54
469.98	300.45
470.35	299.60
470.72	298.36
471.08	297.15
471.45	296.33
471.82	295.45
472.18	294.40
472.55	293.52
472.92	292.41
473.28	291.51
473.65	290.73
474.02	289.77
474.38	289.07
474.75	288.40
475.11	287.71
475.48	287.11
475.85	286.49
476.21	285.89
476.58	285.42
476.94	285.15
477.31	284.53
477.67	284.03
478.04	283.42
478.41	283.10
478.77	283.00
479.14	282.52
479.50	282.21
479.87	282.09
480.23	281.79
480.60	281.54
480.96	281.29
481.33	281.20
481.69	281.18
482.06	281.00
482.42	280.92
482.79	280.79
483.15	280.75
483.52	280.63
483.88	280.52
484.25	280.46
484.61	280.27
484.98	280.25
485.34	280.43
485.71	280.65
486.07	280.69
486.44	280.55
486.80	280.77
487.17	280.90
487.53	281.01
487.90	281.24
488.26	281.62
488.62	281.89
488.99	282.05
489.35	282.22
489.72	282.39
490.08	282.59
490.44	282.90
490.81	283.15
491.17	283.40
491.54	283.66
491.90	284.00
492.26	284.26
492.63	284.59
492.99	284.78
493.36	285.11
493.72	285.49
494.08	285.77
494.45	286.02
494.81	286.36
495.17	286.84
495.54	287.20
495.90	287.53
496.26	287.81
496.63	288.23
496.99	288.61
497.35	289.16
497.72	289.48
498.08	289.80
498.44	290.15
498.80	290.61
499.17	290.99
499.53	291.27
499.89	291.63
500.26	291.99
500.62	292.30
500.98	292.68
501.34	293.07
501.71	293.43
502.07	293.86
502.43	294.17
502.79	294.27
503.16	294.52
503.52	294.83
503.88	295.04
504.24	295.20
504.60	295.48
504.97	295.63
505.33	295.88
505.69	296.22
506.05	296.54
506.41	296.81
506.78	297.09
507.14	297.40
507.50	297.67
507.86	297.90
508.22	298.21
508.59	298.38
508.95	298.61
509.31	299.07
509.67	299.28
510.03	299.68
510.39	300.09
510.75	300.51
511.12	300.77
511.48	301.19
511.84	301.57
512.20	302.05
512.56	302.57
512.92	303.17
513.28	303.64
513.64	304.14
514.00	304.60
514.37	305.20
514.73	305.88
515.09	306.60
515.45	307.24
515.81	307.89
516.17	308.67
516.53	309.55
516.89	310.30
517.25	311.18
517.61	312.05
517.97	313.19
518.33	314.14
518.69	315.40
519.05	316.79
519.41	318.18
519.77	319.50
520.13	320.84
520.49	322.23
520.85	323.81
521.21	325.51
521.57	327.38
521.93	328.99
522.29	330.71
522.65	332.57
523.01	334.56
523.37	336.50
523.73	338.52
524.09	340.50
524.45	342.66
524.81	345.00
525.17	347.49
525.53	349.88
525.89	352.53
526.25	355.10
526.61	357.57
526.97	360.30
527.33	363.12
527.68	366.18
528.04	369.21
528.40	372.36
528.76	375.51
529.12	378.65
529.48	382.25
529.84	385.81
530.20	389.22
530.56	392.94
530.91	396.90
531.27	400.88
531.63	404.84
531.99	408.87
532.35	412.85
532.71	416.90
533.07	421.01
533.42	425.43
533.78	429.78
534.14	434.29
534.50	438.56
534.86	443.04
535.21	447.44
535.57	452.22
535.93	456.83
536.29	461.62
536.65	466.48
537.00	471.25
537.36	476.12
537.72	481.51
538.08	486.64
538.44	491.58
538.79	496.64
539.15	501.89
539.51	507.15
539.87	512.67
540.22	517.96
540.58	523.54
540.94	528.82
541.29	534.10
541.65	539.50
542.01	545.20
542.37	550.95
542.72	556.61
543.08	562.09
543.44	567.68
543.79	573.00
544.15	578.69
544.51	584.69
544.87	590.34
545.22	595.83
545.58	601.28
545.94	606.98
546.29	612.63
546.65	618.29
547.01	623.85
547.36	629.21
547.72	634.70
548.07	640.31
548.43	645.79
548.79	651.32
549.14	656.80
549.50	662.48
549.86	668.00
550.21	673.46
550.57	679.16
550.92	684.71
551.28	690.36
551.64	695.84
551.99	701.10
552.35	706.63
552.70	711.92
553.06	717.45
553.41	723.02
553.77	728.34
554.13	733.74
554.48	739.37
554.84	744.92
555.19	750.48
555.55	755.44
555.90	760.53
556.26	765.65
556.61	770.87
556.97	775.69
557.32	780.88
557.68	785.74
558.03	790.71
558.39	795.91
558.74	801.05
559.10	805.89
559.45	810.84
559.81	815.79
560.16	820.47
560.52	825.35
560.87	830.29
561.23	834.97
561.58	839.99
561.94	844.50
562.29	849.04
562.64	853.23
563.00	857.74
563.35	862.57
563.71	867.43
564.06	872.00
564.42	876.66
564.77	880.78
565.12	885.46
565.48	889.79
565.83	893.65
566.19	897.61
566.54	901.59
566.89	905.53
567.25	909.42
567.60	913.82
567.96	917.85
568.31	921.47
568.66	925.31
569.02	928.70
569.37	932.01
569.72	935.47
570.08	939.15
570.43	942.69
570.78	945.53
571.14	948.43
571.49	951.40
571.84	954.57
572.20	957.24
572.55	959.79
572.90	962.22
573.26	964.94
573.61	967.40
573.96	969.80
574.31	971.86
574.67	973.61
575.02	975.21
575.37	976.90
575.72	978.19
576.08	979.97
576.43	981.20
576.78	982.95
577.13	984.46
577.49	986.11
577.84	987.69
578.19	989.07
578.54	990.51
578.90	991.31
579.25	991.73
579.60	992.94
579.95	993.86
580.30	994.35
580.66	995.00
581.01	995.76
581.36	996.55
581.71	997.32
582.06	998.01
582.42	998.44
582.77	998.90
583.12	999.66
583.47	1000.03
583.82	1000.96
584.17	1001.07
584.53	1001.37
584.88	1001.39
585.23	1001.08
585.58	1001.15
585.93	1000.88
586.28	1001.20
586.63	1001.59
586.98	1001.60
587.34	1001.75
587.69	1001.98
588.04	1001.65
588.39	1001.51
588.74	1000.94
589.09	1000.40
589.44	999.57
589.79	999.26
590.14	998.79
590.49	998.05
590.84	997.40
591.19	996.48
591.54	995.22
591.89	993.72
592.25	992.93
592.60	992.06
592.95	990.97
593.30	989.59
593.65	988.26
594.00	986.74
594.35	985.78
594.70	984.03
595.05	982.55
595.40	980.94
595.75	979.36
596.10	978.21
596.45	976.88
596.80	976.20
597.15	974.95
597.50	973.50
597.85	972.27
598.19	970.91
598.54	969.54
598.89	968.58
599.24	967.76
599.59	965.93
599.94	964.34
600.29	962.84
600.64	961.64
600.99	960.02
601.34	958.56
601.69	956.50
602.04	954.96
602.39	953.31
602.74	952.03
603.08	950.52
603.43	949.00
603.78	947.31
604.13	945.15
604.48	943.24
604.83	941.28
605.18	939.51
605.53	937.16
605.87	934.65
606.22	932.49
606.57	930.04
606.92	927.96
607.27	926.11
607.62	924.16
607.96	922.27
608.31	920.58
608.66	918.01
609.01	915.67
609.36	912.91
609.70	910.15
610.05	907.31
610.40	904.60
610.75	901.64
611.10	898.85
611.44	896.01
611.79	893.25
612.14	890.42
612.49	886.86
612.83	883.71
613.18	880.91
613.53	877.93
613.88	874.91
614.22	871.86
614.57	868.64
614.92	865.58
615.27	862.16
615.61	858.70
615.96	855.74
616.31	852.81
616.65	850.29
617.00	847.45
617.35	844.74
617.70	841.64
618.04	838.43
618.39	835.30
618.74	832.51
619.08	829.17
619.43	826.27
619.78	823.71
620.12	820.98
620.47	817.99
620.82	815.06
621.16	812.12
621.51	809.44
621.85	806.49
622.20	803.06
622.55	800.13
622.89	797.33
623.24	794.61
623.59	791.60
623.93	788.86
624.28	786.03
624.62	783.17
624.97	780.50
625.32	777.63
625.66	774.93
626.01	771.90
626.35	769.23
626.70	766.13
627.04	763.21
627.39	760.38
627.73	757.52
628.08	754.50
628.43	751.62
628.77	748.26
629.12	745.15
629.46	742.37
629.81	739.11
630.15	735.61
630.50	732.33
630.84	729.00
631.19	725.27
631.53	722.11
631.88	718.58
632.22	715.07
632.57	712.04
632.91	708.65
633.26	705.36
633.60	701.90
633.95	698.73
634.29	695.80
634.64	692.80
634.98	689.57
635.32	686.74
635.67	683.82
636.01	681.09
636.36	678.13
636.70	675.09
637.05	672.47
637.39	669.87
637.73	667.04
638.08	664.55
638.42	662.17
638.77	659.47
639.11	656.84
639.45	654.12
639.80	651.32
640.14	648.61
640.49	645.95
640.83	643.36
641.17	640.66
641.52	637.72
641.86	634.68
642.20	632.13
642.55	629.11
642.89	626.33
643.23	623.32
643.58	620.91
643.92	618.15
644.26	615.30
644.61	612.71
644.95	610.08
645.29	606.80
645.64	603.66
645.98	600.74
646.32	598.00
646.66	595.14
647.01	592.30
647.35	589.65
647.69	586.90
648.04	584.29
648.38	581.40
648.72	578.35
649.06	575.24
649.41	572.16
649.75	569.18
650.09	566.13
650.43	563.44
650.78	559.96
651.12	557.27
651.46	554.40
651.80	551.30
652.14	548.51
652.49	545.84
652.83	543.28
653.17	540.39
653.51	537.60
653.85	534.90
654.20	532.24
654.54	529.30
654.88	526.30
655.22	523.28
655.56	520.51
655.90	517.88
656.25	515.42
656.59	512.86
656.93	510.66
657.27	508.22
657.61	505.38
657.95	503.19
658.29	500.64
658.64	498.10
658.98	495.65
659.32	492.95
659.66	490.71
660.00	488.17
660.34	485.84
660.68	483.40
661.02	481.05
661.36	478.69
661.70	476.41
662.05	474.30
662.39	472.21
662.73	469.89
663.07	467.73
663.41	465.67
663.75	463.61
664.09	461.35
664.43	459.13
664.77	457.28
665.11	455.10
665.45	453.03
665.79	451.03
666.13	448.82
666.47	446.93
666.81	444.61
667.15	442.51
667.49	440.51
667.83	438.52
668.17	436.42
668.51	434.36
668.85	432.34
669.19	430.56
669.53	428.48
669.87	426.60
670.21	424.69
670.55	422.83
670.89	421.06
671.23	419.34
671.57	417.64
671.91	415.89
672.25	414.15
672.58	412.39
672.92	410.44
673.26	408.82
673.60	407.04
673.94	405.45
674.28	403.96
674.62	402.42
674.96	401.05
675.30	399.55
675.64	398.01
675.97	396.59
676.31	394.86
676.65	393.38
676.99	392.04
677.33	390.56
677.67	389.03
678.01	387.25
678.34	385.54
678.68	384.15
679.02	382.55
679.36	381.03
679.70	379.59
680.04	378.32
680.37	376.90
680.71	375.62
681.05	374.42
681.39	373.10
681.73	371.80
682.06	370.25
682.40	369.01
682.74	367.55
683.08	366.26
683.42	365.04
683.75	363.82
684.09	362.50
684.43	361.25
684.77	360.00
685.10	358.80
685.44	357.60
685.78	356.27
686.12	355.07
686.45	353.82
686.79	352.46
687.13	351.22
687.46	350.11
687.80	348.72
688.14	347.27
688.48	345.98
688.81	344.68
689.15	343.51
689.49	342.11
689.82	341.05
690.16	339.78
690.50	338.61
690.83	337.41
691.17	336.18
691.51	334.96
691.84	333.83
692.18	332.72
692.52	331.51
692.85	330.28
693.19	329.15
693.52	327.89
693.86	326.85
694.20	325.74
694.53	324.58
694.87	323.60
695.21	322.44
695.54	321.33
695.88	320.19
696.21	319.04
696.55	318.08
696.88	316.92
697.22	315.89
697.56	314.90
697.89	313.81
698.23	312.94
698.56	312.04
698.90	311.02
699.23	309.90
699.57	309.02
699.90	308.17
700.24	307.15
700.58	306.37
700.91	305.45
701.25	304.76
701.58	304.00
701.92	303.18
702.25	302.53
702.59	301.88
702.92	301.14
703.26	300.52
703.59	299.68
703.93	299.28
704.26	298.53
704.60	297.82
704.93	297.10
705.26	296.16
705.60	295.57
705.93	294.81
706.27	294.41
706.60	293.70
706.94	293.10
707.27	292.40
707.61	291.69
707.94	290.97
708.27	290.10
708.61	289.36
708.94	288.65
709.28	288.08
709.61	287.31
709.94	286.78
710.28	286.07
710.61	285.51
710.95	284.61
711.28	284.19
711.61	283.59
711.95	282.89
712.28	282.30
712.61	281.51
712.95	281.13
713.28	280.50
713.61	279.93
713.95	279.21
714.28	278.79
714.61	278.37
714.95	277.99
715.28	277.49
715.61	276.96
715.95	276.52
716.28	275.91
716.61	275.40
716.95	274.74
717.28	274.21
717.61	273.65
717.94	273.24
718.28	272.61
718.61	272.06
718.94	271.65
719.27	271.33
719.61	270.98
719.94	270.43
720.27	269.91
720.60	269.56
720.94	269.23
721.27	268.80
721.60	268.42
721.93	267.98
722.27	267.65
722.60	267.36
722.93	266.89
723.26	266.47
723.59	266.15
723.93	265.86
724.26	265.52
724.59	265.16
724.92	264.76
725.25	264.37
725.59	263.93
725.92	263.67
726.25	263.20
726.58	262.82
726.91	262.42
727.24	262.07
727.57	261.71
727.91	261.34
728.24	260.94
728.57	260.53
728.90	260.16
729.23	259.67
729.56	259.35
729.89	258.96
730.22	258.58
730.55	258.21
730.89	257.92
731.22	257.67
731.55	257.55
731.88	257.21
732.21	256.77
732.54	256.52
732.87	256.12
733.20	255.85
733.53	255.44
733.86	255.20
734.19	254.87
734.52	254.52
734.85	254.45
735.18	254.09
735.51	253.87
735.84	253.59
736.17	253.40
736.50	252.99
736.83	252.96
737.16	252.75
737.49	252.59
737.82	252.17
738.15	251.91
738.48	251.42
738.81	251.21
739.14	251.13
739.47	250.89
739.80	250.63
740.13	250.40
740.46	250.31
740.79	249.98
741.12	249.77
741.45	249.41
741.78	248.92
742.11	248.83
742.44	248.51
742.77	248.30
743.10	248.02
743.43	247.75
743.75	247.24
744.08	247.33
744.41	246.97
744.74	246.83
745.07	246.52
745.40	246.30
745.73	246.05
746.06	245.74
746.39	245.49
746.71	245.47
747.04	245.26
747.37	244.94
747.70	244.76
748.03	244.54
748.36	244.49
748.68	244.27
749.01	243.90
749.34	243.75
749.67	243.61
750.00	243.34
750.33	243.33
750.65	243.23
750.98	242.77
751.31	242.52
751.64	242.43
751.97	242.35
752.29	242.30
752.62	242.06
752.95	241.89
753.28	241.74
753.60	241.44
753.93	241.33
754.26	241.23
754.59	241.09
754.91	240.94
755.24	240.73
755.57	240.68
755.90	240.60
756.22	240.36
756.55	240.16
756.88	240.09
757.20	239.83
757.53	239.65
757.86	239.51
758.19	239.44
758.51	239.23
758.84	239.07
759.17	238.94
759.49	238.91
759.82	239.06
760.15	239.07
760.47	239.02
760.80	238.96
761.13	238.98
761.45	238.91
761.78	238.94
762.11	238.88
762.43	238.67
762.76	238.60
763.08	238.62
763.41	238.59
763.74	238.55
764.06	238.49
764.39	238.50
764.71	238.33
765.04	238.25
765.37	238.20
765.69	238.05
766.02	237.89
766.34	237.85
766.67	237.54
767.00	237.45
767.32	237.40
767.65	237.44
767.97	237.31
768.30	237.20
768.62	237.06
768.95	236.98
769.27	236.89
769.60	236.92
769.92	236.79
770.25	236.63
770.57	236.60
770.90	236.54
771.22	236.34
771.55	236.30
771.87	236.33
772.20	236.17
772.52	236.28
772.85	236.43
773.17	236.32
773.50	236.19
773.82	236.07
774.15	235.97
774.47	235.70
774.80	235.56
775.12	235.41
775.45	235.26
775.77	235.18
776.09	235.14
776.42	234.93
776.74	234.93
777.07	234.87
777.39	234.64
777.72	234.52
778.04	234.48
778.36	234.36
778.69	234.24
779.01	234.25
779.33	234.03
779.66	233.77
779.98	233.64
780.31	233.51
780.63	233.47
780.95	233.34
781.28	233.23
781.60	233.00
781.92	232.98
782.25	232.99
782.57	232.90
782.89	232.81
783.22	232.74
783.54	232.57
783.86	232.50
784.19	232.48
784.51	232.50
784.83	232.40
785.16	232.39
785.48	232.34
785.80	232.22
786.12	232.14
786.45	232.09
786.77	232.09
787.09	232.13
787.42	232.09
787.74	232.11
788.06	232.06
788.38	232.08
788.71	231.96
789.03	231.91
789.35	231.81
789.67	231.76
789.99	231.81
790.32	231.75
790.64	231.76
790.96	231.92
791.28	231.70
791.61	231.64
791.93	231.60
792.25	231.48
792.57	231.61
792.89	231.52
793.21	231.44
793.54	231.40
793.86	231.35
794.18	231.31
794.50	231.27
794.82	231.29
795.14	231.33
795.47	231.45
795.79	231.39
796.11	231.35
796.43	231.33
796.75	231.23
797.07	231.32
797.39	231.29
797.71	231.13
798.04	231.28
798.36	231.35
798.68	231.29
799.00	231.30
799.32	231.19
799.64	231.18
799.96	231.20
800.28	231.30
800.60	231.39
800.92	231.39
801.24	231.36
801.56	231.39
801.89	231.37
802.21	231.37
802.53	231.33
802.85	231.47
803.17	231.57
803.49	231.59
803.81	231.54
804.13	231.46
804.45	231.42
804.77	231.33
805.09	231.33
805.41	231.43
805.73	231.39
806.05	231.35
806.37	231.45
806.69	231.42
807.01	231.26
807.33	231.21
807.65	231.10
807.97	231.19
808.28	231.13
808.60	231.08
808.92	230.94
809.24	231.07
809.56	231.00
809.88	230.96
810.20	230.90
810.52	230.88
810.84	230.90
811.16	230.79
811.48	230.82
811.80	230.84
812.12	230.78
812.43	230.78
812.75	230.70
813.07	230.54
813.39	230.55
813.71	230.48
814.03	230.40
814.35	230.37
814.67	230.13
814.98	230.01
815.30	229.98
815.62	229.92
815.94	229.75
816.26	229.82
816.58	229.67
816.89	229.62
817.21	229.51
817.53	229.40
817.85	229.26
818.17	229.12
818.48	228.92
818.80	228.90
819.12	228.85
819.44	228.71
819.76	228.70
820.07	228.59
820.39	228.54
820.71	228.41
821.03	228.36
821.34	228.44
821.66	228.40
821.98	228.40
822.30	228.37
822.61	228.31
822.93	228.12
823.25	228.09
823.57	228.01
823.88	228.10
824.20	228.08
824.52	228.22
824.83	228.21
825.15	228.33
825.47	228.23
825.79	228.22
826.10	228.34
826.42	228.36
826.74	228.39
827.05	228.50
827.37	228.54
827.69	228.58
828.00	228.54
828.32	228.59
828.64	228.62
828.95	228.80
829.27	228.89
829.58	228.91
829.90	228.94
830.22	229.03
830.53	228.93
830.85	228.91
831.17	228.92
831.48	229.00
831.80	228.90
832.11	228.97
832.43	228.92
832.75	228.90
833.06	229.16
833.38	229.05
833.69	229.02
834.01	229.07
834.32	229.14
834.64	229.14
834.96	229.18
835.27	229.08
835.59	229.04
835.90	228.96
836.22	229.01
836.53	229.02
836.85	228.93
837.16	229.28
837.48	229.40
837.79	229.52
838.11	229.47
838.42	229.56
838.74	229.63
839.05	229.71
839.37	229.76
839.68	229.59
840.00	229.72
840.31	229.72
840.63	229.73
840.94	229.70
841.26	229.70
841.57	229.72
841.88	229.79
842.20	229.75
842.51	229.84
842.83	229.89
843.14	230.14
843.46	230.29
843.77	230.09
844.08	230.14
844.40	230.10
844.71	230.20
845.03	230.23
845.34	230.13
845.65	230.20
845.97	230.23
846.28	230.22
846.60	230.20
846.91	230.15
847.22	230.21
847.54	230.20
847.85	230.25
848.16	230.18
848.48	230.12
848.79	230.24
849.10	230.27
849.42	230.22
849.73	230.04
850.04	230.08
850.36	230.04
850.67	229.94
850.98	229.80
851.30	229.69
851.61	229.63
851.92	229.62
852.23	229.61
852.55	229.55
852.86	229.43
853.17	229.46
853.49	229.54
853.80	229.49
854.11	229.46
854.42	229.45
854.74	229.48
855.05	229.46
855.36	229.34
855.67	229.31
855.99	229.27
856.30	229.35
856.61	229.16
856.92	229.10
857.23	229.13
857.55	229.08
857.86	229.10
858.17	229.11
858.48	229.16
858.79	229.06
859.11	229.01
859.42	229.05
859.73	228.96
860.04	228.86
860.35	228.80
860.66	228.76
860.98	228.63
861.29	228.50
861.60	228.41
861.91	228.46
862.22	228.38
862.53	228.36
862.84	228.13
863.16	228.22
863.47	228.16
863.78	228.11
864.09	228.18
864.40	228.16
864.71	228.06
865.02	227.97
865.33	227.84
865.64	227.77
865.95	227.71
866.27	227.80
866.58	227.69
866.89	227.72
867.20	227.67
867.51	227.69
867.82	227.80
868.13	227.95
868.44	227.87
868.75	227.96
869.06	227.88
869.37	227.90
869.68	227.70
869.99	227.62
870.30	227.60
870.61	227.65
870.92	227.63
871.23	227.77
871.54	227.84
871.85	228.04
872.16	228.14
872.47	228.03
872.78	227.92
873.09	228.06
873.40	228.00
873.71	228.12
874.02	228.21
874.33	228.25
874.64	228.17
874.95	228.23
875.26	228.08
875.56	228.18
875.87	228.26
876.18	228.40
876.49	228.72
876.80	228.77
877.11	228.80
877.42	228.83
877.73	228.70
878.04	228.70
878.35	228.73
878.66	228.71
878.96	228.79
879.27	228.92
879.58	228.90
879.89	228.95
880.20	228.94
880.51	228.91
880.82	228.93
881.12	229.01
881.43	228.92
881.74	228.93
882.05	228.90
882.36	228.92
882.67	228.96
882.97	228.77
883.28	228.76
883.59	228.78
883.90	228.80
884.21	228.86
884.51	228.94
884.82	228.90
885.13	228.97
885.44	229.07
885.74	228.95
886.05	229.04
886.36	228.98
886.67	229.00
886.98	229.03
887.28	228.99
887.59	229.06
887.90	229.15
888.20	229.21
888.51	229.23
888.82	229.15
889.13	229.12
889.43	229.22
889.74	229.26
890.05	229.19
890.35	229.16
890.66	229.21
890.97	229.18
891.28	229.11
891.58	229.18
891.89	229.15
892.20	229.18
892.50	229.19
892.81	229.20
893.12	229.18
893.42	229.13
893.73	229.06
894.04	228.94
894.34	228.94
894.65	228.87
894.95	228.80
895.26	228.77
895.57	228.82
895.87	228.72
896.18	228.74
896.48	228.73
896.79	228.67
897.10	228.58
897.40	228.46
897.71	228.38
898.01	228.21
898.32	228.21
898.63	228.10
898.93	227.94
899.24	227.85
899.54	227.76
899.85	227.70
900.15	227.76
900.46	227.75
900.76	227.62
901.07	227.64
901.38	227.65
901.68	227.59
901.99	227.45
902.29	227.30
902.60	227.20
902.90	227.21
903.21	227.19
903.51	227.14
903.82	227.28
904.12	227.30
904.43	227.25
904.73	227.18
905.03	227.24
905.34	227.42
905.64	227.44
905.95	227.45
906.25	227.41
906.56	227.33
906.86	227.36
907.17	227.38
907.47	227.38
907.77	227.31
908.08	227.33
908.38	227.39
908.69	227.44
908.99	227.44
909.30	227.40
909.60	227.49
909.90	227.47
910.21	227.32
910.51	227.23
910.81	227.25
911.12	227.27
911.42	227.32
911.73	227.14
912.03	227.23
912.33	227.23
912.64	227.30
912.94	227.36
913.24	227.36
913.55	227.43
913.85	227.45
914.15	227.55
914.46	227.61
914.76	227.64
915.06	227.70
915.37	227.73
915.67	227.68
915.97	227.62
916.27	227.64
916.58	227.68
916.88	227.86
917.18	227.88
917.49	228.04
917.79	228.01
918.09	228.13
918.39	228.19
918.70	228.22
919.00	228.15
919.30	228.17
919.60	228.24
919.91	228.25
920.21	228.32
920.51	228.31
920.81	228.40
921.12	228.57
921.42	228.60
921.72	228.70
922.02	228.83
922.32	228.92
922.63	228.96
922.93	229.04
923.23	229.01
923.53	229.07
923.83	228.96
924.13	229.03
924.44	229.00
924.74	229.03
925.04	229.19
925.34	229.21
925.64	229.27
925.94	229.17
926.24	229.26
926.55	229.19
926.85	229.21
927.15	229.15
927.45	229.08
927.75	229.13
928.05	229.10
928.35	229.01
928.65	229.04
928.95	229.09
929.26	229.09
929.56	229.17
929.86	229.20
930.16	229.18
930.46	229.17
930.76	229.20
931.06	229.07
931.36	228.98
931.66	229.01
931.96	228.99
932.26	229.01
932.56	228.91
932.86	229.01
933.16	229.04
933.46	229.01
933.76	228.95
934.06	228.95
934.36	228.92
934.66	228.82
934.96	228.74
935.26	228.74
935.56	228.74
935.86	228.58
936.16	228.52
936.46	228.47
936.76	228.34
937.06	228.24
937.36	228.20
937.66	228.17
937.96	228.16
938.26	228.13
938.56	228.01
938.86	227.99
939.16	227.88
939.46	227.82
939.76	227.87
940.06	227.81
940.35	227.69
940.65	227.58
940.95	227.62
941.25	227.54
941.55	227.49
941.85	227.47
942.15	227.53
942.45	227.51
942.75	227.54
943.04	227.59
943.34	227.60
943.64	227.65
943.94	227.55
944.24	227.63
944.54	227.54
944.84	227.62
945.13	227.56
945.43	227.47
945.73	227.43
946.03	227.38
946.33	227.39
946.62	227.42
946.92	227.41
947.22	227.48
947.52	227.51
947.82	227.52
948.11	227.46
948.41	227.47
948.71	227.49
949.01	227.56
949.31	227.52
949.60	227.53
949.90	227.57
950.20	227.65
950.50	227.57
950.79	227.60
951.09	227.63
951.39	227.69
951.69	227.77
951.98	227.88
952.28	227.91
952.58	227.89
952.87	227.85
953.17	227.93
953.47	227.91
953.76	228.01
954.06	228.04
954.36	228.15
954.66	228.11
954.95	228.19
955.25	228.16
955.55	228.25
955.84	228.34
956.14	228.41
956.44	228.41
956.73	228.39
957.03	228.37
957.32	228.38
957.62	228.47
957.92	228.63
958.21	228.62
958.51	228.77
958.81	228.84
959.10	228.88
959.40	229.00
959.69	228.96
959.99	229.00
960.29	229.00
960.58	229.03
960.88	229.14
961.17	229.08
961.47	229.11
961.76	229.12
962.06	229.17
962.36	229.09
962.65	229.08
962.95	229.18
963.24	229.31
963.54	229.31
963.83	229.30
964.13	229.23
964.42	229.23
964.72	229.07
965.01	229.00
965.31	229.00
965.60	228.88
965.90	229.09
966.19	229.03
966.49	229.01
966.78	228.96
967.08	228.98
967.37	228.95
967.67	228.98
967.96	228.97
968.26	228.91
968.55	228.92
968.85	228.92
969.14	228.88
969.43	228.82
969.73	228.87
970.02	228.80
970.32	228.76
970.61	228.70
970.91	228.76
971.20	228.81
971.49	228.87
971.79	228.97
972.08	228.77
972.38	228.74
972.67	228.66
972.96	228.65
973.26	228.48
973.55	228.49
973.85	228.45
974.14	228.44
974.43	228.41
974.73	228.43
975.02	228.48
975.31	228.45
975.61	228.37
975.90	228.26
976.19	228.27
976.49	228.22
976.78	228.18
977.07	228.15
977.37	228.10
977.66	228.02
977.95	227.89
978.24	227.92
978.54	227.95
978.83	227.92
979.12	227.84
979.42	227.87
979.71	227.86
980.00	227.71
980.29	227.57
980.59	227.50
980.88	227.42
981.17	227.34
981.46	227.23
981.76	227.27
982.05	227.39
982.34	227.31
982.63	227.32
982.93	227.27
983.22	227.32
983.51	227.26
983.80	227.19
984.09	227.23
984.39	227.19
984.68	227.09
984.97	227.15
985.26	227.17
985.55	227.15
985.85	227.23
986.14	227.35
986.43	227.49
986.72	227.45
987.01	227.46
987.30	227.42
987.59	227.49
987.89	227.50
988.18	227.34
988.47	227.43
988.76	227.39
989.05	227.48
989.34	227.41
989.63	227.48
989.92	227.62
990.22	227.57
990.51	227.57
990.80	227.62
991.09	227.70
991.38	227.78
991.67	227.75
991.96	227.71
992.25	227.73
992.54	227.70
992.83	227.84
993.12	227.83
993.41	227.85
993.70	228.10
993.99	228.12
994.28	228.26
994.58	228.26
994.87	228.26
995.16	228.20
995.45	228.23
995.74	228.24
996.03	228.20
996.32	228.36
996.61	228.54
996.90	228.59
997.19	228.56
997.48	228.56
997.77	228.62
998.06	228.65
998.34	228.72
998.63	228.74
998.92	228.71
999.21	228.85
999.50	228.84
999.79	228.71
1000.08	228.75
1000.37	228.73
1000.66	228.70
1000.95	228.80
1001.24	228.90
1001.53	228.91
1001.82	228.96
1002.11	229.01
1002.40	228.96
1002.68	228.94
1002.97	229.03
1003.26	229.00
1003.55	228.99
1003.84	229.11
1004.13	229.11
1004.42	229.09
1004.71	229.16
1004.99	229.16
1005.28	229.18
1005.57	229.29
1005.86	229.20
1006.15	229.17
1006.44	229.20
1006.72	229.26
1007.01	229.23
1007.30	229.23
1007.59	229.31
1007.88	229.27
1008.17	229.22
1008.45	229.17
1008.74	229.09
1009.03	229.00
1009.32	229.05
1009.60	228.90
1009.89	228.73
1010.18	228.68
1010.47	228.61
1010.76	228.58
1011.04	228.50
1011.33	228.48
1011.62	228.50
1011.91	228.55
1012.19	228.56
1012.48	228.50
1012.77	228.33
1013.05	228.45
1013.34	228.40
1013.63	228.32
1013.92	228.20
1014.20	228.15
1014.49	228.07
1014.78	228.00
1015.06	227.93
1015.35	227.87
1015.64	227.98
1015.92	228.02
1016.21	227.99
1016.50	227.94
1016.78	227.86
1017.07	227.88
1017.36	227.84
1017.64	227.75
1017.93	227.66
1018.22	227.51
1018.50	227.51
1018.79	227.56
1019.08	227.46
1019.36	227.43
1019.65	227.33
1019.93	227.40
1020.22	227.40
1020.51	227.57
1020.79	227.52
1021.08	225.60
1021.36	228.10
1021.65	227.20
1021.94	228.70
1022.22	227.10
1022.51	226.90
1022.79	226.80
1023.08	227.40
1023.36	230.00
1023.65	226.00
>>>>>End Processed Spectral Data<<<<<
