SpectraSuite Data File
++++++++++++++++++++++++++++++++++++
Date: Fri Feb 01 14:37:55 EST 2013
User: group
Dark Spectrum Present: No
Reference Spectrum Present: No
Number of Sampled Component Spectra: 1
Spectrometers: USB2E7196
Integration Time (usec): 70000 (USB2E7196)
Spectra Averaged: 10 (USB2E7196)
Boxcar Smoothing: 10 (USB2E7196)
Correct for Electrical Dark: No (USB2E7196)
Strobe/Lamp Enabled: No (USB2E7196)
Correct for Detector Non-linearity: No (USB2E7196)
Correct for Stray Light: No (USB2E7196)
Number of Pixels in Processed Spectrum: 2048
>>>>>Begin Processed Spectral Data<<<<<
339.09	0.00
339.48	217.50
339.86	218.60
340.24	219.20
340.63	221.20
341.01	224.80
341.39	224.00
341.78	224.40
342.16	228.10
342.54	226.90
342.93	215.21
343.31	226.06
343.69	226.56
344.07	227.00
344.46	227.46
344.84	227.73
345.22	227.80
345.60	227.96
345.99	228.12
346.37	228.08
346.75	228.10
347.13	228.09
347.52	228.24
347.90	228.18
348.28	228.11
348.66	228.13
349.05	228.05
349.43	228.03
349.81	228.01
350.19	228.05
350.57	228.01
350.96	227.99
351.34	228.03
351.72	228.09
352.10	228.01
352.48	228.04
352.87	228.19
353.25	228.40
353.63	228.42
354.01	228.45
354.39	228.50
354.77	228.61
355.15	228.76
355.54	228.71
355.92	228.74
356.30	228.85
356.68	229.02
357.06	229.11
357.44	229.13
357.82	229.18
358.20	229.16
358.58	229.20
358.97	229.32
359.35	229.33
359.73	229.42
360.11	229.53
360.49	229.61
360.87	229.57
361.25	229.52
361.63	229.69
362.01	229.74
362.39	229.72
362.77	229.74
363.15	229.74
363.53	229.77
363.91	229.93
364.29	229.91
364.67	229.76
365.05	229.63
365.43	229.60
365.81	229.68
366.19	229.76
366.57	229.95
366.95	229.98
367.33	230.00
367.71	229.95
368.09	229.98
368.47	229.95
368.85	229.91
369.23	229.93
369.61	229.77
369.99	229.78
370.37	229.77
370.75	229.77
371.13	229.72
371.51	229.71
371.89	229.56
372.27	229.46
372.65	229.35
373.03	229.49
373.41	229.53
373.78	229.38
374.16	229.19
374.54	228.95
374.92	228.79
375.30	228.72
375.68	228.59
376.06	228.58
376.44	228.48
376.82	228.45
377.19	228.37
377.57	228.30
377.95	228.26
378.33	228.16
378.71	228.00
379.09	227.90
379.47	227.85
379.84	227.79
380.22	227.81
380.60	227.74
380.98	227.56
381.36	227.51
381.73	227.42
382.11	227.43
382.49	227.35
382.87	227.30
383.25	227.21
383.62	227.38
384.00	227.20
384.38	227.10
384.76	227.07
385.13	227.04
385.51	227.07
385.89	226.87
386.27	226.84
386.64	226.76
387.02	226.76
387.40	226.57
387.78	226.47
388.15	226.32
388.53	226.30
388.91	226.35
389.29	226.23
389.66	226.27
390.04	226.17
390.42	226.20
390.79	226.17
391.17	226.17
391.55	225.97
391.92	226.05
392.30	225.98
392.68	225.93
393.05	225.98
393.43	225.87
393.81	225.98
394.18	226.00
394.56	226.04
394.94	226.03
395.31	226.23
395.69	226.43
396.06	226.60
396.44	226.65
396.82	226.60
397.19	226.76
397.57	226.69
397.95	226.81
398.32	226.80
398.70	226.88
399.07	226.94
399.45	227.01
399.82	227.04
400.20	227.20
400.58	227.32
400.95	227.20
401.33	227.45
401.70	227.61
402.08	227.76
402.45	227.89
402.83	228.01
403.20	228.02
403.58	228.16
403.95	228.27
404.33	228.47
404.71	228.75
405.08	229.00
405.46	229.24
405.83	229.43
406.21	229.65
406.58	229.82
406.96	230.07
407.33	230.25
407.70	230.45
408.08	230.83
408.45	231.12
408.83	231.52
409.20	231.84
409.58	231.98
409.95	232.28
410.33	232.68
410.70	233.04
411.08	233.55
411.45	233.94
411.82	234.40
412.20	234.91
412.57	235.44
412.95	235.78
413.32	236.27
413.69	236.82
414.07	237.43
414.44	238.16
414.82	238.83
415.19	239.67
415.56	240.48
415.94	241.22
416.31	242.11
416.68	242.94
417.06	243.89
417.43	245.05
417.81	246.11
418.18	247.27
418.55	248.44
418.93	249.53
419.30	250.80
419.67	252.04
420.04	253.33
420.42	254.76
420.79	256.49
421.16	258.27
421.54	260.10
421.91	261.88
422.28	263.67
422.66	265.62
423.03	267.63
423.40	269.63
423.77	271.70
424.15	273.85
424.52	276.13
424.89	278.57
425.26	280.97
425.64	283.28
426.01	285.65
426.38	288.33
426.75	291.04
427.13	293.75
427.50	296.61
427.87	299.60
428.24	302.47
428.61	305.28
428.99	308.35
429.36	311.63
429.73	314.88
430.10	318.22
430.47	321.55
430.85	324.96
431.22	328.65
431.59	332.58
431.96	336.22
432.33	340.38
432.70	344.16
433.08	348.66
433.45	352.97
433.82	357.22
434.19	361.99
434.56	366.53
434.93	370.94
435.30	375.31
435.68	380.18
436.05	384.95
436.42	389.76
436.79	394.05
437.16	398.77
437.53	403.74
437.90	408.47
438.27	413.24
438.64	418.13
439.01	422.68
439.38	426.73
439.75	430.74
440.13	435.08
440.50	439.60
440.87	443.09
441.24	446.84
441.61	451.04
441.98	453.76
442.35	457.46
442.72	460.99
443.09	464.46
443.46	466.75
443.83	468.24
444.20	469.50
444.57	471.52
444.94	472.44
445.31	473.57
445.68	474.93
446.05	475.61
446.42	475.40
446.79	475.20
447.16	474.92
447.53	474.92
447.90	473.76
448.27	472.33
448.64	470.04
449.01	468.61
449.37	465.71
449.74	463.15
450.11	459.64
450.48	455.91
450.85	452.21
451.22	448.92
451.59	445.95
451.96	443.16
452.33	439.08
452.70	435.45
453.07	431.00
453.43	426.39
453.80	422.07
454.17	417.96
454.54	413.92
454.91	409.56
455.28	405.25
455.65	401.19
456.02	397.25
456.38	394.06
456.75	389.78
457.12	386.17
457.49	382.47
457.86	379.03
458.23	376.10
458.59	372.77
458.96	369.28
459.33	366.38
459.70	363.22
460.07	360.78
460.43	357.97
460.80	355.21
461.17	352.82
461.54	350.27
461.91	347.79
462.27	345.46
462.64	343.43
463.01	341.23
463.38	339.04
463.74	336.60
464.11	334.49
464.48	332.67
464.85	330.71
465.21	329.26
465.58	327.69
465.95	325.76
466.32	324.21
466.68	322.65
467.05	320.91
467.42	319.46
467.78	317.84
468.15	316.26
468.52	315.14
468.88	313.46
469.25	312.22
469.62	311.24
469.98	309.98
470.35	308.84
470.72	307.70
471.08	306.40
471.45	305.40
471.82	304.38
472.18	303.33
472.55	302.49
472.92	301.58
473.28	300.71
473.65	299.91
474.02	298.96
474.38	298.17
474.75	297.47
475.11	296.57
475.48	295.99
475.85	295.42
476.21	294.84
476.58	294.48
476.94	293.94
477.31	293.32
477.67	292.82
478.04	292.33
478.41	291.97
478.77	291.78
479.14	291.32
479.50	290.99
479.87	290.66
480.23	290.32
480.60	290.05
480.96	289.73
481.33	289.62
481.69	289.47
482.06	289.43
482.42	289.33
482.79	289.18
483.15	289.05
483.52	289.04
483.88	288.97
484.25	288.82
484.61	288.72
484.98	288.70
485.34	288.75
485.71	288.81
486.07	288.79
486.44	288.60
486.80	288.63
487.17	288.79
487.53	289.01
487.90	289.27
488.26	289.43
488.62	289.60
488.99	289.67
489.35	289.90
489.72	290.11
490.08	290.52
490.44	290.91
490.81	291.33
491.17	291.65
491.54	292.02
491.90	292.42
492.26	292.80
492.63	293.37
492.99	293.75
493.36	294.22
493.72	294.75
494.08	295.27
494.45	295.93
494.81	296.41
495.17	296.92
495.54	297.54
495.90	298.19
496.26	298.88
496.63	299.47
496.99	300.06
497.35	300.60
497.72	301.08
498.08	301.43
498.44	301.83
498.80	302.51
499.17	302.91
499.53	303.31
499.89	303.89
500.26	304.18
500.62	304.67
500.98	305.19
501.34	305.60
501.71	306.07
502.07	306.60
502.43	307.04
502.79	307.37
503.16	307.71
503.52	307.92
503.88	308.03
504.24	308.38
504.60	308.62
504.97	308.90
505.33	309.16
505.69	309.70
506.05	310.03
506.41	310.17
506.78	310.49
507.14	310.67
507.50	310.80
507.86	311.04
508.22	311.30
508.59	311.44
508.95	311.60
509.31	311.94
509.67	312.01
510.03	312.11
510.39	312.18
510.75	312.26
511.12	312.53
511.48	312.84
511.84	313.00
512.20	313.21
512.56	313.40
512.92	313.47
513.28	313.70
513.64	313.94
514.00	314.18
514.37	314.43
514.73	314.84
515.09	315.26
515.45	315.64
515.81	316.00
516.17	316.50
516.53	316.90
516.89	317.22
517.25	317.64
517.61	318.19
517.97	318.88
518.33	319.55
518.69	320.18
519.05	320.89
519.41	321.59
519.77	322.54
520.13	323.50
520.49	324.49
520.85	325.35
521.21	326.38
521.57	327.45
521.93	328.49
522.29	329.76
522.65	330.90
523.01	332.10
523.37	333.38
523.73	334.69
524.09	336.13
524.45	337.52
524.81	339.19
525.17	340.90
525.53	342.73
525.89	344.59
526.25	346.46
526.61	348.38
526.97	350.51
527.33	352.59
527.68	354.89
528.04	357.23
528.40	359.56
528.76	362.01
529.12	364.74
529.48	367.48
529.84	370.02
530.20	373.00
530.56	376.03
530.91	379.24
531.27	382.18
531.63	385.50
531.99	388.87
532.35	392.22
532.71	395.50
533.07	398.98
533.42	402.61
533.78	406.32
534.14	410.10
534.50	414.01
534.86	417.86
535.21	421.67
535.57	425.70
535.93	429.80
536.29	434.01
536.65	438.15
537.00	442.40
537.36	446.83
537.72	451.14
538.08	455.55
538.44	459.84
538.79	464.57
539.15	469.11
539.51	473.89
539.87	478.53
540.22	483.40
540.58	488.50
540.94	493.14
541.29	497.92
541.65	502.71
542.01	507.67
542.37	512.69
542.72	517.65
543.08	522.82
543.44	527.84
543.79	532.65
544.15	537.81
544.51	543.19
544.87	548.39
545.22	553.47
545.58	558.67
545.94	563.80
546.29	568.85
546.65	573.78
547.01	578.82
547.36	583.97
547.72	589.12
548.07	593.88
548.43	599.05
548.79	604.39
549.14	609.50
549.50	614.55
549.86	619.45
550.21	624.67
550.57	629.72
550.92	634.84
551.28	640.28
551.64	645.29
551.99	650.37
552.35	655.45
552.70	660.71
553.06	666.00
553.41	671.18
553.77	676.52
554.13	681.98
554.48	687.29
554.84	692.46
555.19	697.66
555.55	703.08
555.90	708.14
556.26	713.05
556.61	718.29
556.97	723.42
557.32	728.69
557.68	733.60
558.03	738.51
558.39	743.40
558.74	748.29
559.10	753.21
559.45	757.74
559.81	762.52
560.16	767.05
560.52	771.59
560.87	776.45
561.23	780.79
561.58	785.57
561.94	789.99
562.29	794.33
562.64	798.58
563.00	802.75
563.35	807.30
563.71	812.02
564.06	816.25
564.42	820.23
564.77	824.26
565.12	828.84
565.48	833.22
565.83	837.28
566.19	841.35
566.54	845.15
566.89	849.19
567.25	853.01
567.60	857.20
567.96	860.88
568.31	864.56
568.66	868.25
569.02	871.57
569.37	874.90
569.72	878.38
570.08	881.70
570.43	885.03
570.78	887.95
571.14	890.79
571.49	893.70
571.84	897.01
572.20	899.80
572.55	902.25
572.90	904.73
573.26	907.41
573.61	909.77
573.96	912.18
574.31	914.10
574.67	915.72
575.02	917.42
575.37	919.47
575.72	920.72
576.08	922.51
576.43	923.92
576.78	925.65
577.13	927.39
577.49	929.31
577.84	930.58
578.19	932.20
578.54	933.32
578.90	934.61
579.25	935.22
579.60	936.45
579.95	937.42
580.30	937.96
580.66	938.67
581.01	939.32
581.36	940.04
581.71	941.08
582.06	942.43
582.42	942.97
582.77	943.40
583.12	944.30
583.47	945.09
583.82	946.04
584.17	946.43
584.53	946.89
584.88	946.98
585.23	947.19
585.58	947.29
585.93	947.44
586.28	947.74
586.63	948.32
586.98	948.53
587.34	948.50
587.69	949.00
588.04	949.25
588.39	949.21
588.74	948.75
589.09	948.40
589.44	947.63
589.79	947.51
590.14	947.52
590.49	947.39
590.84	946.68
591.19	945.99
591.54	945.26
591.89	944.20
592.25	943.63
592.60	942.60
592.95	941.35
593.30	940.49
593.65	939.23
594.00	937.75
594.35	937.01
594.70	935.66
595.05	934.46
595.40	933.00
595.75	931.63
596.10	930.76
596.45	929.99
596.80	929.25
597.15	928.21
597.50	926.57
597.85	925.21
598.19	924.26
598.54	923.02
598.89	921.76
599.24	920.81
599.59	919.35
599.94	918.32
600.29	917.24
600.64	915.83
600.99	914.44
601.34	913.22
601.69	911.19
602.04	909.87
602.39	908.17
602.74	906.99
603.08	905.82
603.43	904.50
603.78	902.76
604.13	901.11
604.48	899.21
604.83	897.82
605.18	896.18
605.53	894.03
605.87	891.90
606.22	890.19
606.57	888.23
606.92	886.20
607.27	884.21
607.62	882.63
607.96	880.70
608.31	878.85
608.66	876.50
609.01	874.41
609.36	871.89
609.70	869.55
610.05	866.91
610.40	864.46
610.75	861.82
611.10	859.20
611.44	856.38
611.79	854.01
612.14	851.45
612.49	848.52
612.83	845.83
613.18	843.17
613.53	840.48
613.88	837.50
614.22	834.85
614.57	831.92
614.92	828.98
615.27	826.45
615.61	823.35
615.96	820.94
616.31	818.37
616.65	816.01
617.00	813.15
617.35	810.57
617.70	807.66
618.04	804.71
618.39	802.00
618.74	799.29
619.08	796.19
619.43	793.29
619.78	790.69
620.12	787.96
620.47	785.17
620.82	782.32
621.16	779.53
621.51	776.76
621.85	774.07
622.20	770.91
622.55	767.80
622.89	765.20
623.24	762.36
623.59	759.53
623.93	756.90
624.28	754.28
624.62	751.52
624.97	749.01
625.32	746.23
625.66	743.58
626.01	741.05
626.35	738.38
626.70	735.59
627.04	732.90
627.39	729.81
627.73	727.07
628.08	724.15
628.43	721.39
628.77	718.41
629.12	715.45
629.46	712.87
629.81	709.78
630.15	706.74
630.50	703.69
630.84	700.48
631.19	697.32
631.53	694.37
631.88	691.20
632.22	687.80
632.57	685.22
632.91	682.10
633.26	679.07
633.60	676.08
633.95	673.11
634.29	670.09
634.64	667.54
634.98	664.70
635.32	662.05
635.67	659.36
636.01	656.65
636.36	654.20
636.70	651.41
637.05	648.95
637.39	646.52
637.73	644.03
638.08	641.67
638.42	639.15
638.77	636.75
639.11	634.14
639.45	631.71
639.80	628.80
640.14	626.20
640.49	623.37
640.83	620.87
641.17	618.42
641.52	615.67
641.86	613.18
642.20	610.72
642.55	607.89
642.89	605.19
643.23	602.47
643.58	600.02
643.92	597.21
644.26	594.58
644.61	592.13
644.95	589.52
645.29	586.59
645.64	583.87
645.98	581.16
646.32	578.70
646.66	576.09
647.01	573.52
647.35	570.99
647.69	568.58
648.04	566.00
648.38	563.27
648.72	560.52
649.06	557.88
649.41	555.02
649.75	552.51
650.09	549.91
650.43	547.30
650.78	544.39
651.12	541.92
651.46	539.43
651.80	536.60
652.14	534.18
652.49	531.73
652.83	529.20
653.17	526.56
653.51	523.79
653.85	521.20
654.20	518.70
654.54	515.98
654.88	513.24
655.22	510.48
655.56	507.67
655.90	505.40
656.25	502.81
656.59	500.45
656.93	498.16
657.27	495.76
657.61	493.24
657.95	490.74
658.29	488.30
658.64	485.64
658.98	483.14
659.32	480.44
659.66	478.03
660.00	475.46
660.34	473.05
660.68	470.88
661.02	468.54
661.36	466.28
661.70	464.19
662.05	462.22
662.39	460.42
662.73	458.54
663.07	456.46
663.41	454.17
663.75	452.07
664.09	449.78
664.43	447.71
664.77	445.89
665.11	443.84
665.45	441.84
665.79	440.01
666.13	437.93
666.47	435.95
666.81	433.95
667.15	432.05
667.49	430.07
667.83	428.23
668.17	426.40
668.51	424.46
668.85	422.45
669.19	420.73
669.53	418.64
669.87	416.82
670.21	415.10
670.55	413.50
670.89	411.83
671.23	410.10
671.57	408.42
671.91	406.65
672.25	405.08
672.58	403.55
672.92	401.81
673.26	400.46
673.60	399.00
673.94	397.49
674.28	396.11
674.62	394.91
674.96	393.39
675.30	391.94
675.64	390.45
675.97	389.01
676.31	387.51
676.65	386.10
676.99	384.70
677.33	383.02
677.67	381.55
678.01	380.04
678.34	378.77
678.68	377.35
679.02	376.01
679.36	374.66
679.70	373.16
680.04	371.85
680.37	370.62
680.71	369.26
681.05	368.09
681.39	366.70
681.73	365.29
682.06	363.97
682.40	362.73
682.74	361.49
683.08	360.46
683.42	359.10
683.75	357.93
684.09	356.49
684.43	355.34
684.77	354.15
685.10	352.97
685.44	351.73
685.78	350.66
686.12	349.41
686.45	348.26
686.79	347.24
687.13	346.20
687.46	344.98
687.80	343.75
688.14	342.63
688.48	341.54
688.81	340.39
689.15	339.45
689.49	338.19
689.82	337.05
690.16	335.85
690.50	334.82
690.83	333.70
691.17	332.60
691.51	331.58
691.84	330.56
692.18	329.46
692.52	328.23
692.85	327.13
693.19	326.14
693.52	325.09
693.86	323.95
694.20	322.79
694.53	321.70
694.87	320.64
695.21	319.50
695.54	318.42
695.88	317.34
696.21	316.14
696.55	315.26
696.88	314.40
697.22	313.25
697.56	312.26
697.89	311.38
698.23	310.64
698.56	309.61
698.90	308.50
699.23	307.67
699.57	306.80
699.90	305.75
700.24	304.82
700.58	303.86
700.91	303.11
701.25	302.43
701.58	301.72
701.92	300.98
702.25	300.16
702.59	299.39
702.92	298.69
703.26	297.92
703.59	297.10
703.93	296.43
704.26	295.78
704.60	295.05
704.93	294.25
705.26	293.32
705.60	292.60
705.93	292.03
706.27	291.41
706.60	290.83
706.94	290.27
707.27	289.53
707.61	288.94
707.94	288.22
708.27	287.49
708.61	286.72
708.94	286.10
709.28	285.47
709.61	284.94
709.94	284.32
710.28	283.67
710.61	283.15
710.95	282.37
711.28	281.92
711.61	281.30
711.95	280.83
712.28	280.23
712.61	279.72
712.95	279.29
713.28	278.78
713.61	278.25
713.95	277.59
714.28	277.08
714.61	276.54
714.95	276.02
715.28	275.53
715.61	274.91
715.95	274.48
716.28	273.95
716.61	273.46
716.95	272.92
717.28	272.54
717.61	272.07
717.94	271.63
718.28	271.10
718.61	270.71
718.94	270.12
719.27	269.77
719.61	269.47
719.94	268.91
720.27	268.33
720.60	267.94
720.94	267.70
721.27	267.43
721.60	267.10
721.93	266.71
722.27	266.30
722.60	266.02
722.93	265.53
723.26	265.25
723.59	264.85
723.93	264.50
724.26	264.19
724.59	263.78
724.92	263.46
725.25	263.12
725.59	262.71
725.92	262.53
726.25	262.24
726.58	261.87
726.91	261.64
727.24	261.41
727.57	261.18
727.91	260.82
728.24	260.40
728.57	260.01
728.90	259.72
729.23	259.45
729.56	259.25
729.89	258.92
730.22	258.56
730.55	258.25
730.89	257.92
731.22	257.59
731.55	257.30
731.88	257.03
732.21	256.66
732.54	256.45
732.87	256.11
733.20	255.72
733.53	255.48
733.86	255.20
734.19	254.88
734.52	254.54
734.85	254.27
735.18	253.96
735.51	253.84
735.84	253.58
736.17	253.29
736.50	252.93
736.83	252.86
737.16	252.66
737.49	252.41
737.82	252.16
738.15	251.85
738.48	251.62
738.81	251.30
739.14	251.09
739.47	250.81
739.80	250.49
740.13	250.38
740.46	250.05
740.79	249.76
741.12	249.49
741.45	249.23
741.78	249.02
742.11	248.89
742.44	248.48
742.77	248.32
743.10	248.04
743.43	247.72
743.75	247.37
744.08	247.29
744.41	247.05
744.74	246.78
745.07	246.55
745.40	246.22
745.73	246.07
746.06	245.81
746.39	245.61
746.71	245.40
747.04	245.18
747.37	244.90
747.70	244.71
748.03	244.66
748.36	244.44
748.68	244.16
749.01	243.90
749.34	243.76
749.67	243.49
750.00	243.31
750.33	243.39
750.65	243.15
750.98	242.77
751.31	242.51
751.64	242.38
751.97	242.27
752.29	242.12
752.62	241.88
752.95	241.69
753.28	241.50
753.60	241.29
753.93	241.16
754.26	241.12
754.59	240.81
754.91	240.46
755.24	240.25
755.57	240.22
755.90	240.05
756.22	239.86
756.55	239.76
756.88	239.56
757.20	239.25
757.53	239.18
757.86	239.04
758.19	238.97
758.51	238.91
758.84	238.71
759.17	238.62
759.49	238.50
759.82	238.45
760.15	238.31
760.47	238.26
760.80	238.13
761.13	238.00
761.45	237.90
761.78	237.78
762.11	237.73
762.43	237.55
762.76	237.46
763.08	237.45
763.41	237.36
763.74	237.33
764.06	237.14
764.39	237.06
764.71	237.01
765.04	236.86
765.37	236.66
765.69	236.69
766.02	236.60
766.34	236.54
766.67	236.49
767.00	236.47
767.32	236.54
767.65	236.52
767.97	236.44
768.30	236.49
768.62	236.49
768.95	236.42
769.27	236.36
769.60	236.27
769.92	236.20
770.25	236.00
770.57	235.97
770.90	236.03
771.22	235.92
771.55	235.89
771.87	235.90
772.20	235.84
772.52	235.90
772.85	236.13
773.17	236.04
773.50	236.00
773.82	235.89
774.15	235.70
774.47	235.46
774.80	235.44
775.12	235.26
775.45	235.05
775.77	234.99
776.09	234.89
776.42	234.85
776.74	234.83
777.07	234.80
777.39	234.67
777.72	234.53
778.04	234.55
778.36	234.38
778.69	234.25
779.01	234.29
779.33	234.07
779.66	233.84
779.98	233.75
780.31	233.68
780.63	233.77
780.95	233.83
781.28	233.81
781.60	233.72
781.92	233.72
782.25	233.81
782.57	233.76
782.89	233.73
783.22	233.72
783.54	233.67
783.86	233.63
784.19	233.53
784.51	233.60
784.83	233.47
785.16	233.46
785.48	233.51
785.80	233.38
786.12	233.33
786.45	233.06
786.77	233.02
787.09	232.95
787.42	232.80
787.74	232.60
788.06	232.61
788.38	232.54
788.71	232.53
789.03	232.50
789.35	232.40
789.67	232.32
789.99	232.26
790.32	232.05
790.64	231.90
790.96	232.06
791.28	231.86
791.61	231.89
791.93	231.76
792.25	231.64
792.57	231.70
792.89	231.61
793.21	231.69
793.54	231.70
793.86	231.61
794.18	231.58
794.50	231.57
794.82	231.53
795.14	231.41
795.47	231.36
795.79	231.30
796.11	231.26
796.43	231.19
796.75	231.14
797.07	231.27
797.39	231.42
797.71	231.19
798.04	231.14
798.36	231.12
798.68	231.07
799.00	231.07
799.32	230.96
799.64	230.92
799.96	230.88
800.28	230.81
800.60	230.80
800.92	230.67
801.24	230.63
801.56	230.60
801.89	230.68
802.21	230.72
802.53	230.60
802.85	230.60
803.17	230.74
803.49	230.65
803.81	230.45
804.13	230.35
804.45	230.39
804.77	230.40
805.09	230.36
805.41	230.43
805.73	230.39
806.05	230.44
806.37	230.42
806.69	230.46
807.01	230.50
807.33	230.45
807.65	230.41
807.97	230.46
808.28	230.32
808.60	230.42
808.92	230.36
809.24	230.46
809.56	230.45
809.88	230.39
810.20	230.37
810.52	230.45
810.84	230.45
811.16	230.42
811.48	230.44
811.80	230.40
812.12	230.39
812.43	230.36
812.75	230.28
813.07	230.22
813.39	230.18
813.71	230.18
814.03	230.13
814.35	230.22
814.67	230.15
814.98	230.25
815.30	230.09
815.62	230.03
815.94	229.98
816.26	230.09
816.58	230.03
816.89	230.15
817.21	230.13
817.53	230.03
817.85	229.99
818.17	229.91
818.48	229.95
818.80	230.02
819.12	230.04
819.44	229.99
819.76	229.99
820.07	230.04
820.39	229.97
820.71	230.08
821.03	230.02
821.34	229.96
821.66	229.92
821.98	229.94
822.30	230.00
822.61	230.04
822.93	229.82
823.25	229.81
823.57	229.71
823.88	229.73
824.20	229.72
824.52	229.72
824.83	229.82
825.15	229.66
825.47	229.55
825.79	229.58
826.10	229.56
826.42	229.57
826.74	229.45
827.05	229.53
827.37	229.34
827.69	229.29
828.00	229.28
828.32	229.28
828.64	229.30
828.95	229.36
829.27	229.31
829.58	229.42
829.90	229.39
830.22	229.48
830.53	229.40
830.85	229.43
831.17	229.39
831.48	229.30
831.80	229.40
832.11	229.44
832.43	229.32
832.75	229.35
833.06	229.43
833.38	229.29
833.69	229.19
834.01	229.26
834.32	229.32
834.64	229.28
834.96	229.29
835.27	229.26
835.59	229.12
835.90	229.05
836.22	229.10
836.53	229.06
836.85	228.95
837.16	229.16
837.48	229.10
837.79	229.16
838.11	229.12
838.42	229.05
838.74	228.98
839.05	228.99
839.37	228.89
839.68	228.72
840.00	228.81
840.31	228.78
840.63	228.70
840.94	228.61
841.26	228.60
841.57	228.54
841.88	228.41
842.20	228.40
842.51	228.47
842.83	228.33
843.14	228.43
843.46	228.41
843.77	228.23
844.08	228.27
844.40	228.15
844.71	228.11
845.03	228.00
845.34	227.99
845.65	228.05
845.97	228.07
846.28	228.09
846.60	228.12
846.91	228.12
847.22	228.17
847.54	228.20
847.85	228.22
848.16	228.25
848.48	228.30
848.79	228.30
849.10	228.19
849.42	228.20
849.73	228.08
850.04	228.14
850.36	228.13
850.67	228.14
850.98	228.15
851.30	228.20
851.61	228.33
851.92	228.29
852.23	228.33
852.55	228.30
852.86	228.35
853.17	228.32
853.49	228.42
853.80	228.50
854.11	228.49
854.42	228.58
854.74	228.60
855.05	228.57
855.36	228.55
855.67	228.67
855.99	228.70
856.30	228.91
856.61	228.93
856.92	228.92
857.23	228.95
857.55	229.05
857.86	229.13
858.17	229.17
858.48	229.18
858.79	229.12
859.11	229.28
859.42	229.33
859.73	229.31
860.04	229.27
860.35	229.18
860.66	229.24
860.98	229.23
861.29	229.24
861.60	229.30
861.91	229.41
862.22	229.33
862.53	229.44
862.84	229.26
863.16	229.35
863.47	229.31
863.78	229.36
864.09	229.44
864.40	229.40
864.71	229.38
865.02	229.52
865.33	229.58
865.64	229.43
865.95	229.47
866.27	229.77
866.58	229.78
866.89	229.86
867.20	229.79
867.51	229.79
867.82	229.69
868.13	229.75
868.44	229.64
868.75	229.69
869.06	229.53
869.37	229.52
869.68	229.30
869.99	229.36
870.30	229.29
870.61	229.30
870.92	229.22
871.23	229.23
871.54	229.22
871.85	229.13
872.16	229.30
872.47	229.20
872.78	229.03
873.09	228.98
873.40	228.96
873.71	228.95
874.02	229.00
874.33	228.97
874.64	229.03
874.95	229.11
875.26	229.07
875.56	229.13
875.87	229.13
876.18	229.14
876.49	229.27
876.80	229.28
877.11	229.09
877.42	229.15
877.73	229.11
878.04	228.95
878.35	228.95
878.66	228.88
878.96	228.89
879.27	228.69
879.58	228.70
879.89	228.63
880.20	228.72
880.51	228.63
880.82	228.58
881.12	228.47
881.43	228.40
881.74	228.40
882.05	228.29
882.36	228.28
882.67	228.42
882.97	228.27
883.28	228.31
883.59	228.32
883.90	228.30
884.21	228.31
884.51	228.32
884.82	228.29
885.13	228.27
885.44	228.21
885.74	228.28
886.05	228.28
886.36	228.30
886.67	228.24
886.98	228.32
887.28	228.44
887.59	228.43
887.90	228.50
888.20	228.47
888.51	228.59
888.82	228.51
889.13	228.49
889.43	228.64
889.74	228.56
890.05	228.48
890.35	228.49
890.66	228.51
890.97	228.59
891.28	228.66
891.58	228.67
891.89	228.64
892.20	228.69
892.50	228.58
892.81	228.50
893.12	228.46
893.42	228.42
893.73	228.44
894.04	228.46
894.34	228.45
894.65	228.50
894.95	228.41
895.26	228.50
895.57	228.57
895.87	228.37
896.18	228.48
896.48	228.56
896.79	228.57
897.10	228.58
897.40	228.60
897.71	228.59
898.01	228.47
898.32	228.50
898.63	228.47
898.93	228.68
899.24	228.72
899.54	228.70
899.85	228.68
900.15	228.72
900.46	228.74
900.76	228.72
901.07	228.63
901.38	228.72
901.68	228.75
901.99	228.63
902.29	228.70
902.60	228.49
902.90	228.39
903.21	228.39
903.51	228.42
903.82	228.44
904.12	228.48
904.43	228.63
904.73	228.61
905.03	228.64
905.34	228.78
905.64	228.85
905.95	228.81
906.25	228.73
906.56	228.69
906.86	228.62
907.17	228.57
907.47	228.61
907.77	228.64
908.08	228.56
908.38	228.64
908.69	228.60
908.99	228.76
909.30	228.91
909.60	228.82
909.90	228.82
910.21	228.76
910.51	228.85
910.81	228.77
911.12	228.88
911.42	228.91
911.73	228.63
912.03	228.62
912.33	228.73
912.64	228.80
912.94	228.73
913.24	228.66
913.55	228.70
913.85	228.73
914.15	228.71
914.46	228.78
914.76	228.65
915.06	228.62
915.37	228.66
915.67	228.62
915.97	228.72
916.27	228.65
916.58	228.56
916.88	228.48
917.18	228.46
917.49	228.45
917.79	228.47
918.09	228.58
918.39	228.57
918.70	228.54
919.00	228.57
919.30	228.69
919.60	228.71
919.91	228.69
920.21	228.73
920.51	228.62
920.81	228.56
921.12	228.58
921.42	228.51
921.72	228.45
922.02	228.43
922.32	228.37
922.63	228.29
922.93	228.52
923.23	228.40
923.53	228.35
923.83	228.28
924.13	228.26
924.44	228.19
924.74	228.24
925.04	228.28
925.34	228.32
925.64	228.24
925.94	228.19
926.24	228.30
926.55	228.26
926.85	228.29
927.15	228.30
927.45	228.35
927.75	228.41
928.05	228.44
928.35	228.42
928.65	228.54
928.95	228.62
929.26	228.45
929.56	228.52
929.86	228.54
930.16	228.56
930.46	228.58
930.76	228.62
931.06	228.55
931.36	228.46
931.66	228.35
931.96	228.30
932.26	228.43
932.56	228.30
932.86	228.25
933.16	228.26
933.46	228.16
933.76	228.13
934.06	228.14
934.36	228.21
934.66	228.23
934.96	228.10
935.26	228.03
935.56	227.99
935.86	227.97
936.16	227.88
936.46	227.86
936.76	227.82
937.06	227.70
937.36	227.77
937.66	227.76
937.96	227.88
938.26	227.86
938.56	227.79
938.86	227.78
939.16	227.88
939.46	227.92
939.76	227.98
940.06	227.90
940.35	227.92
940.65	227.83
940.95	227.82
941.25	227.80
941.55	227.85
941.85	227.97
942.15	228.03
942.45	228.18
942.75	228.19
943.04	228.15
943.34	228.27
943.64	228.21
943.94	228.26
944.24	228.19
944.54	228.23
944.84	228.32
945.13	228.41
945.43	228.32
945.73	228.32
946.03	228.39
946.33	228.36
946.62	228.30
946.92	228.22
947.22	228.30
947.52	228.42
947.82	228.49
948.11	228.45
948.41	228.31
948.71	228.37
949.01	228.30
949.31	228.21
949.60	228.19
949.90	228.25
950.20	228.22
950.50	228.21
950.79	228.28
951.09	228.28
951.39	228.17
951.69	228.16
951.98	228.17
952.28	228.21
952.58	228.32
952.87	228.37
953.17	228.51
953.47	228.58
953.76	228.52
954.06	228.44
954.36	228.38
954.66	228.51
954.95	228.50
955.25	228.59
955.55	228.67
955.84	228.70
956.14	228.70
956.44	228.73
956.73	228.70
957.03	228.65
957.32	228.54
957.62	228.62
957.92	228.70
958.21	228.75
958.51	228.90
958.81	228.89
959.10	228.90
959.40	228.91
959.69	228.86
959.99	228.96
960.29	228.99
960.58	229.03
960.88	229.13
961.17	229.09
961.47	229.13
961.76	229.08
962.06	229.07
962.36	229.05
962.65	229.04
962.95	229.07
963.24	229.09
963.54	229.20
963.83	229.18
964.13	229.27
964.42	229.14
964.72	228.98
965.01	228.97
965.31	228.92
965.60	228.90
965.90	229.06
966.19	229.01
966.49	229.01
966.78	229.08
967.08	229.01
967.37	229.05
967.67	229.00
967.96	229.00
968.26	228.98
968.55	229.07
968.85	229.11
969.14	229.02
969.43	229.12
969.73	229.11
970.02	229.03
970.32	228.90
970.61	228.91
970.91	228.80
971.20	228.83
971.49	228.86
971.79	228.86
972.08	228.72
972.38	228.54
972.67	228.55
972.96	228.51
973.26	228.56
973.55	228.60
973.85	228.61
974.14	228.63
974.43	228.66
974.73	228.54
975.02	228.57
975.31	228.69
975.61	228.61
975.90	228.59
976.19	228.62
976.49	228.68
976.78	228.69
977.07	228.73
977.37	228.71
977.66	228.71
977.95	228.59
978.24	228.47
978.54	228.58
978.83	228.53
979.12	228.49
979.42	228.38
979.71	228.46
980.00	228.41
980.29	228.45
980.59	228.43
980.88	228.56
981.17	228.46
981.46	228.44
981.76	228.33
982.05	228.34
982.34	228.43
982.63	228.45
982.93	228.37
983.22	228.42
983.51	228.41
983.80	228.48
984.09	228.60
984.39	228.60
984.68	228.61
984.97	228.67
985.26	228.59
985.55	228.57
985.85	228.37
986.14	228.40
986.43	228.33
986.72	228.23
987.01	228.07
987.30	228.13
987.59	228.08
987.89	228.10
988.18	228.01
988.47	227.96
988.76	227.88
989.05	227.90
989.34	227.82
989.63	227.80
989.92	227.81
990.22	227.72
990.51	227.71
990.80	227.68
991.09	227.61
991.38	227.65
991.67	227.65
991.96	227.59
992.25	227.59
992.54	227.64
992.83	227.69
993.12	227.65
993.41	227.60
993.70	227.74
993.99	227.76
994.28	227.87
994.58	227.88
994.87	227.81
995.16	227.88
995.45	227.90
995.74	227.89
996.03	227.97
996.32	228.05
996.61	228.15
996.90	228.14
997.19	228.18
997.48	228.20
997.77	228.15
998.06	228.29
998.34	228.25
998.63	228.19
998.92	228.15
999.21	228.26
999.50	228.28
999.79	228.18
1000.08	228.20
1000.37	228.12
1000.66	228.10
1000.95	228.20
1001.24	228.19
1001.53	228.26
1001.82	228.26
1002.11	228.07
1002.40	228.08
1002.68	228.05
1002.97	228.20
1003.26	228.16
1003.55	228.12
1003.84	228.18
1004.13	228.20
1004.42	228.22
1004.71	228.23
1004.99	228.27
1005.28	228.33
1005.57	228.37
1005.86	228.34
1006.15	228.35
1006.44	228.35
1006.72	228.29
1007.01	228.21
1007.30	228.22
1007.59	228.20
1007.88	228.30
1008.17	228.26
1008.45	228.16
1008.74	228.06
1009.03	227.99
1009.32	227.96
1009.60	228.00
1009.89	228.06
1010.18	227.89
1010.47	227.90
1010.76	227.95
1011.04	227.94
1011.33	228.00
1011.62	227.94
1011.91	227.99
1012.19	228.03
1012.48	227.97
1012.77	228.06
1013.05	228.16
1013.34	228.17
1013.63	228.13
1013.92	228.00
1014.20	228.06
1014.49	228.04
1014.78	228.05
1015.06	227.99
1015.35	228.04
1015.64	228.09
1015.92	227.94
1016.21	228.00
1016.50	228.00
1016.78	228.07
1017.07	228.04
1017.36	227.91
1017.64	227.93
1017.93	227.82
1018.22	227.77
1018.50	227.79
1018.79	227.78
1019.08	227.64
1019.36	227.56
1019.65	227.54
1019.93	227.56
1020.22	227.55
1020.51	227.69
1020.79	227.67
1021.08	228.40
1021.36	226.70
1021.65	228.50
1021.94	226.40
1022.22	226.70
1022.51	227.60
1022.79	227.40
1023.08	227.20
1023.36	229.70
1023.65	227.00
>>>>>End Processed Spectral Data<<<<<
