SpectraSuite Data File
++++++++++++++++++++++++++++++++++++
Date: Fri Feb 01 14:40:34 EST 2013
User: group
Dark Spectrum Present: No
Reference Spectrum Present: No
Number of Sampled Component Spectra: 1
Spectrometers: USB2E7196
Integration Time (usec): 70000 (USB2E7196)
Spectra Averaged: 10 (USB2E7196)
Boxcar Smoothing: 10 (USB2E7196)
Correct for Electrical Dark: No (USB2E7196)
Strobe/Lamp Enabled: No (USB2E7196)
Correct for Detector Non-linearity: No (USB2E7196)
Correct for Stray Light: No (USB2E7196)
Number of Pixels in Processed Spectrum: 2048
>>>>>Begin Processed Spectral Data<<<<<
339.09	0.00
339.48	216.50
339.86	218.30
340.24	218.60
340.63	220.70
341.01	224.30
341.39	223.70
341.78	223.50
342.16	225.70
342.54	226.80
342.93	215.06
343.31	225.93
343.69	226.44
344.07	226.84
344.46	227.29
344.84	227.70
345.22	227.91
345.60	228.17
345.99	228.38
346.37	228.60
346.75	228.68
347.13	228.64
347.52	228.73
347.90	228.81
348.28	228.86
348.66	228.91
349.05	228.96
349.43	228.96
349.81	228.91
350.19	228.89
350.57	228.88
350.96	228.92
351.34	229.00
351.72	229.07
352.10	229.19
352.48	229.27
352.87	229.25
353.25	229.20
353.63	229.19
354.01	229.19
354.39	229.23
354.77	229.26
355.15	229.43
355.54	229.43
355.92	229.30
356.30	229.35
356.68	229.48
357.06	229.35
357.44	229.41
357.82	229.40
358.20	229.43
358.58	229.54
358.97	229.66
359.35	229.73
359.73	229.83
360.11	229.90
360.49	229.90
360.87	230.00
361.25	230.14
361.63	230.28
362.01	230.38
362.39	230.40
362.77	230.44
363.15	230.37
363.53	230.43
363.91	230.60
364.29	230.66
364.67	230.42
365.05	230.59
365.43	230.58
365.81	230.64
366.19	230.71
366.57	230.67
366.95	230.57
367.33	230.39
367.71	230.39
368.09	230.40
368.47	230.38
368.85	230.30
369.23	230.29
369.61	230.21
369.99	230.26
370.37	230.15
370.75	230.25
371.13	230.08
371.51	229.94
371.89	229.85
372.27	229.72
372.65	229.72
373.03	229.63
373.41	229.58
373.78	229.51
374.16	229.40
374.54	229.34
374.92	229.34
375.30	229.45
375.68	229.34
376.06	229.20
376.44	229.13
376.82	229.10
377.19	229.03
377.57	228.97
377.95	228.80
378.33	228.72
378.71	228.60
379.09	228.68
379.47	228.71
379.84	228.71
380.22	228.67
380.60	228.63
380.98	228.62
381.36	228.65
381.73	228.62
382.11	228.60
382.49	228.53
382.87	228.33
383.25	228.13
383.62	228.26
384.00	228.25
384.38	228.25
384.76	228.21
385.13	228.12
385.51	228.04
385.89	228.03
386.27	228.03
386.64	228.00
387.02	227.96
387.40	227.87
387.78	227.80
388.15	227.90
388.53	227.82
388.91	227.73
389.29	227.63
389.66	227.63
390.04	227.60
390.42	227.55
390.79	227.60
391.17	227.68
391.55	227.51
391.92	227.44
392.30	227.47
392.68	227.52
393.05	227.63
393.43	227.61
393.81	227.60
394.18	227.56
394.56	227.42
394.94	227.59
395.31	227.62
395.69	227.72
396.06	227.65
396.44	227.83
396.82	227.88
397.19	228.04
397.57	228.09
397.95	228.16
398.32	228.31
398.70	228.35
399.07	228.47
399.45	228.54
399.82	228.58
400.20	228.64
400.58	228.68
400.95	228.63
401.33	228.85
401.70	229.04
402.08	229.14
402.45	229.32
402.83	229.27
403.20	229.36
403.58	229.40
403.95	229.58
404.33	229.62
404.71	229.75
405.08	229.89
405.46	229.91
405.83	229.94
406.21	230.01
406.58	230.30
406.96	230.34
407.33	230.49
407.70	230.73
408.08	231.01
408.45	231.26
408.83	231.39
409.20	231.55
409.58	231.70
409.95	231.92
410.33	232.13
410.70	232.28
411.08	232.65
411.45	233.02
411.82	233.12
412.20	233.52
412.57	233.90
412.95	234.15
413.32	234.64
413.69	235.10
414.07	235.50
414.44	235.91
414.82	236.43
415.19	237.03
415.56	237.60
415.94	238.11
416.31	238.70
416.68	239.52
417.06	240.09
417.43	240.77
417.81	241.54
418.18	242.47
418.55	243.45
418.93	244.24
419.30	245.07
419.67	246.08
420.04	246.96
420.42	247.87
420.79	249.10
421.16	250.10
421.54	251.35
421.91	252.63
422.28	253.84
422.66	255.09
423.03	256.41
423.40	257.78
423.77	259.12
424.15	260.43
424.52	261.90
424.89	263.54
425.26	265.14
425.64	266.51
426.01	267.95
426.38	269.61
426.75	271.30
427.13	272.97
427.50	274.75
427.87	276.58
428.24	278.39
428.61	280.07
428.99	282.10
429.36	284.14
429.73	285.99
430.10	288.02
430.47	290.15
430.85	292.15
431.22	294.41
431.59	296.91
431.96	299.26
432.33	301.83
432.70	304.26
433.08	307.15
433.45	309.93
433.82	312.60
434.19	315.60
434.56	318.46
434.93	321.16
435.30	323.82
435.68	326.79
436.05	329.78
436.42	332.71
436.79	335.30
437.16	338.06
437.53	341.15
437.90	344.05
438.27	346.86
438.64	349.88
439.01	352.41
439.38	354.70
439.75	356.83
440.13	359.32
440.50	361.68
440.87	363.54
441.24	365.51
441.61	367.77
441.98	369.29
442.35	371.11
442.72	373.05
443.09	375.00
443.46	375.91
443.83	376.59
444.20	377.09
444.57	377.95
444.94	378.30
445.31	378.62
445.68	379.17
446.05	379.39
446.42	378.87
446.79	378.40
447.16	377.86
447.53	377.64
447.90	376.47
448.27	375.36
448.64	373.73
449.01	372.62
449.37	370.60
449.74	368.60
450.11	366.46
450.48	364.04
450.85	361.50
451.22	359.56
451.59	357.50
451.96	355.54
452.33	353.00
452.70	350.56
453.07	347.69
453.43	344.59
453.80	341.69
454.17	339.05
454.54	336.70
454.91	333.99
455.28	331.35
455.65	328.72
456.02	326.49
456.38	324.23
456.75	321.48
457.12	319.08
457.49	316.78
457.86	314.30
458.23	312.33
458.59	310.16
458.96	308.00
459.33	305.97
459.70	304.04
460.07	302.42
460.43	300.67
460.80	299.02
461.17	297.45
461.54	295.99
461.91	294.47
462.27	292.86
462.64	291.43
463.01	289.86
463.38	288.63
463.74	286.97
464.11	285.70
464.48	284.70
464.85	283.59
465.21	282.77
465.58	281.84
465.95	280.58
466.32	279.60
466.68	278.61
467.05	277.67
467.42	276.61
467.78	275.49
468.15	274.45
468.52	273.65
468.88	272.69
469.25	271.73
469.62	271.12
469.98	270.50
470.35	269.80
470.72	269.09
471.08	268.21
471.45	267.60
471.82	267.00
472.18	266.16
472.55	265.70
472.92	264.98
473.28	264.44
473.65	263.90
474.02	263.34
474.38	262.80
474.75	262.41
475.11	261.89
475.48	261.58
475.85	261.17
476.21	260.74
476.58	260.47
476.94	260.07
477.31	259.61
477.67	259.06
478.04	258.77
478.41	258.53
478.77	258.39
479.14	257.98
479.50	257.74
479.87	257.66
480.23	257.48
480.60	257.20
480.96	257.04
481.33	256.97
481.69	256.82
482.06	256.70
482.42	256.52
482.79	256.50
483.15	256.36
483.52	256.48
483.88	256.45
484.25	256.51
484.61	256.60
484.98	256.70
485.34	256.89
485.71	257.03
486.07	257.05
486.44	257.03
486.80	257.15
487.17	257.39
487.53	257.54
487.90	257.74
488.26	258.17
488.62	258.44
488.99	258.75
489.35	259.16
489.72	259.61
490.08	260.07
490.44	260.60
490.81	261.15
491.17	261.51
491.54	262.13
491.90	262.66
492.26	263.34
492.63	263.89
492.99	264.52
493.36	265.36
493.72	266.34
494.08	267.30
494.45	268.39
494.81	269.40
495.17	270.48
495.54	271.59
495.90	272.74
496.26	274.10
496.63	275.30
496.99	276.62
497.35	278.07
497.72	279.55
498.08	281.04
498.44	282.65
498.80	284.59
499.17	286.39
499.53	288.25
499.89	290.28
500.26	292.36
500.62	294.54
500.98	296.84
501.34	299.23
501.71	301.74
502.07	304.31
502.43	306.95
502.79	309.74
503.16	312.61
503.52	315.72
503.88	318.82
504.24	322.21
504.60	325.64
504.97	329.26
505.33	332.94
505.69	337.03
506.05	341.05
506.41	345.03
506.78	349.39
507.14	353.78
507.50	358.29
507.86	363.19
508.22	368.12
508.59	372.94
508.95	378.02
509.31	383.43
509.67	388.92
510.03	394.67
510.39	400.47
510.75	406.60
511.12	412.67
511.48	419.13
511.84	425.50
512.20	432.10
512.56	438.87
512.92	446.06
513.28	453.10
513.64	460.35
514.00	468.02
514.37	475.66
514.73	483.30
515.09	491.16
515.45	499.20
515.81	507.47
516.17	515.97
516.53	524.72
516.89	533.46
517.25	542.31
517.61	551.30
517.97	560.44
518.33	569.40
518.69	578.82
519.05	588.53
519.41	598.60
519.77	608.72
520.13	619.10
520.49	629.19
520.85	639.57
521.21	650.19
521.57	661.05
521.93	671.69
522.29	682.80
522.65	693.80
523.01	704.78
523.37	715.84
523.73	727.25
524.09	738.50
524.45	749.87
524.81	761.76
525.17	773.70
525.53	786.07
525.89	798.40
526.25	810.92
526.61	822.54
526.97	834.58
527.33	846.87
527.68	859.13
528.04	871.50
528.40	884.28
528.76	897.21
529.12	909.75
529.48	922.69
529.84	935.53
530.20	948.92
530.56	962.53
530.91	976.12
531.27	989.61
531.63	1002.94
531.99	1016.51
532.35	1029.60
532.71	1042.59
533.07	1055.69
533.42	1068.97
533.78	1082.07
534.14	1095.66
534.50	1108.87
534.86	1122.31
535.21	1135.16
535.57	1148.70
535.93	1162.06
536.29	1175.25
536.65	1188.54
537.00	1201.68
537.36	1214.99
537.72	1227.91
538.08	1240.69
538.44	1253.11
538.79	1265.77
539.15	1278.14
539.51	1290.87
539.87	1304.00
540.22	1316.78
540.58	1329.87
540.94	1342.45
541.29	1354.71
541.65	1367.13
542.01	1379.93
542.37	1392.20
542.72	1404.82
543.08	1416.51
543.44	1428.06
543.79	1439.12
544.15	1450.60
544.51	1462.25
544.87	1473.81
545.22	1484.89
545.58	1495.87
545.94	1506.60
546.29	1517.14
546.65	1527.81
547.01	1538.22
547.36	1548.20
547.72	1558.56
548.07	1567.92
548.43	1577.44
548.79	1586.87
549.14	1596.16
549.50	1604.69
549.86	1613.34
550.21	1622.18
550.57	1631.41
550.92	1640.20
551.28	1648.55
551.64	1656.64
551.99	1665.03
552.35	1673.07
552.70	1681.04
553.06	1689.18
553.41	1697.60
553.77	1705.40
554.13	1713.35
554.48	1720.83
554.84	1728.21
555.19	1735.43
555.55	1742.72
555.90	1749.46
556.26	1756.69
556.61	1763.40
556.97	1770.05
557.32	1776.77
557.68	1782.95
558.03	1789.42
558.39	1795.93
558.74	1803.27
559.10	1809.78
559.45	1815.89
559.81	1822.37
560.16	1827.65
560.52	1832.89
560.87	1838.33
561.23	1843.84
561.58	1849.12
561.94	1854.38
562.29	1858.81
562.64	1863.07
563.00	1867.65
563.35	1873.27
563.71	1878.27
564.06	1883.46
564.42	1888.48
564.77	1892.90
565.12	1897.40
565.48	1901.45
565.83	1904.94
566.19	1908.39
566.54	1911.77
566.89	1914.91
567.25	1917.90
567.60	1921.88
567.96	1924.75
568.31	1927.33
568.66	1929.93
569.02	1932.80
569.37	1935.00
569.72	1937.82
570.08	1940.44
570.43	1942.61
570.78	1943.83
571.14	1944.85
571.49	1946.04
571.84	1947.86
572.20	1948.83
572.55	1949.77
572.90	1949.95
573.26	1951.07
573.61	1951.90
573.96	1952.31
574.31	1951.70
574.67	1950.50
575.02	1949.89
575.37	1949.75
575.72	1949.03
576.08	1948.63
576.43	1947.99
576.78	1947.25
577.13	1946.88
577.49	1945.96
577.84	1944.44
578.19	1943.40
578.54	1941.93
578.90	1939.50
579.25	1936.53
579.60	1934.42
579.95	1931.73
580.30	1929.56
580.66	1926.23
581.01	1923.08
581.36	1920.64
581.71	1918.83
582.06	1917.00
582.42	1914.06
582.77	1911.06
583.12	1908.27
583.47	1905.58
583.82	1902.54
584.17	1899.25
584.53	1895.69
584.88	1892.50
585.23	1889.11
585.58	1885.85
585.93	1882.69
586.28	1880.57
586.63	1878.17
586.98	1875.24
587.34	1872.25
587.69	1868.89
588.04	1866.19
588.39	1862.82
588.74	1858.48
589.09	1854.47
589.44	1849.96
589.79	1846.28
590.14	1842.89
590.49	1838.66
590.84	1833.90
591.19	1829.37
591.54	1824.08
591.89	1818.50
592.25	1813.52
592.60	1808.19
592.95	1802.85
593.30	1797.45
593.65	1791.44
594.00	1785.79
594.35	1780.82
594.70	1775.20
595.05	1770.23
595.40	1764.59
595.75	1759.06
596.10	1754.49
596.45	1749.57
596.80	1745.21
597.15	1740.23
597.50	1734.79
597.85	1730.16
598.19	1725.36
598.54	1720.30
598.89	1715.70
599.24	1711.80
599.59	1706.95
599.94	1702.93
600.29	1698.04
600.64	1693.09
600.99	1687.58
601.34	1682.62
601.69	1676.99
602.04	1672.19
602.39	1666.96
602.74	1662.49
603.08	1657.91
603.43	1652.76
603.78	1647.14
604.13	1641.62
604.48	1635.99
604.83	1630.45
605.18	1624.91
605.53	1619.05
605.87	1612.84
606.22	1607.17
606.57	1600.84
606.92	1594.80
607.27	1588.74
607.62	1582.93
607.96	1577.30
608.31	1571.78
608.66	1565.15
609.01	1558.82
609.36	1551.95
609.70	1544.52
610.05	1537.27
610.40	1530.47
610.75	1523.21
611.10	1516.52
611.44	1509.22
611.79	1503.05
612.14	1495.95
612.49	1488.52
612.83	1481.10
613.18	1474.40
613.53	1468.06
613.88	1461.20
614.22	1453.94
614.57	1446.66
614.92	1439.68
615.27	1432.83
615.61	1425.92
615.96	1419.19
616.31	1413.03
616.65	1406.98
617.00	1401.25
617.35	1394.49
617.70	1387.21
618.04	1380.35
618.39	1373.87
618.74	1367.50
619.08	1359.98
619.43	1353.42
619.78	1347.20
620.12	1340.92
620.47	1334.21
620.82	1326.93
621.16	1320.26
621.51	1313.90
621.85	1307.54
622.20	1300.60
622.55	1294.14
622.89	1287.83
623.24	1281.90
623.59	1275.31
623.93	1269.01
624.28	1262.48
624.62	1256.07
624.97	1250.04
625.32	1244.20
625.66	1237.88
626.01	1231.32
626.35	1225.39
626.70	1218.98
627.04	1212.72
627.39	1206.01
627.73	1199.46
628.08	1193.52
628.43	1186.99
628.77	1180.97
629.12	1174.06
629.46	1167.84
629.81	1160.76
630.15	1154.17
630.50	1147.15
630.84	1139.78
631.19	1132.79
631.53	1126.06
631.88	1119.13
632.22	1112.21
632.57	1105.53
632.91	1098.73
633.26	1092.40
633.60	1085.48
633.95	1079.21
634.29	1072.82
634.64	1067.05
634.98	1060.76
635.32	1054.58
635.67	1048.69
636.01	1042.58
636.36	1036.95
636.70	1031.42
637.05	1025.76
637.39	1020.12
637.73	1014.35
638.08	1009.29
638.42	1003.84
638.77	998.39
639.11	992.89
639.45	987.37
639.80	981.78
640.14	976.28
640.49	970.44
640.83	964.93
641.17	959.11
641.52	953.23
641.86	947.49
642.20	942.37
642.55	936.62
642.89	931.17
643.23	925.53
643.58	920.31
643.92	914.09
644.26	908.56
644.61	903.06
644.95	897.70
645.29	891.57
645.64	885.62
645.98	879.83
646.32	874.50
646.66	868.95
647.01	863.41
647.35	858.13
647.69	852.61
648.04	847.33
648.38	841.81
648.72	836.13
649.06	830.53
649.41	825.08
649.75	819.61
650.09	813.87
650.43	808.20
650.78	802.31
651.12	796.80
651.46	791.49
651.80	786.15
652.14	780.89
652.49	775.91
652.83	770.94
653.17	765.67
653.51	760.45
653.85	755.60
654.20	750.27
654.54	744.65
654.88	739.63
655.22	734.26
655.56	729.38
655.90	724.80
656.25	719.99
656.59	714.87
656.93	710.15
657.27	705.34
657.61	700.45
657.95	696.06
658.29	691.71
658.64	686.94
658.98	682.12
659.32	677.21
659.66	672.49
660.00	667.85
660.34	663.33
660.68	658.74
661.02	653.91
661.36	649.80
661.70	645.54
662.05	641.49
662.39	637.49
662.73	633.25
663.07	629.07
663.41	625.22
663.75	621.44
664.09	617.36
664.43	613.43
664.77	609.54
665.11	605.73
665.45	601.78
665.79	597.72
666.13	593.90
666.47	590.28
666.81	586.47
667.15	582.56
667.49	578.86
667.83	575.51
668.17	572.04
668.51	568.11
668.85	564.71
669.19	561.30
669.53	557.90
669.87	554.40
670.21	551.10
670.55	547.61
670.89	544.40
671.23	541.35
671.57	538.20
671.91	535.23
672.25	531.82
672.58	528.81
672.92	525.99
673.26	523.07
673.60	519.94
673.94	517.18
674.28	514.45
674.62	511.83
674.96	509.04
675.30	506.14
675.64	503.48
675.97	500.70
676.31	497.93
676.65	495.02
676.99	492.59
677.33	489.77
677.67	486.90
678.01	483.90
678.34	480.84
678.68	478.15
679.02	475.37
679.36	472.78
679.70	470.28
680.04	467.66
680.37	464.96
680.71	462.66
681.05	460.19
681.39	457.76
681.73	455.15
682.06	452.67
682.40	450.58
682.74	448.29
683.08	446.02
683.42	443.63
683.75	441.56
684.09	439.23
684.43	436.99
684.77	434.84
685.10	432.69
685.44	430.68
685.78	428.54
686.12	426.41
686.45	424.25
686.79	422.10
687.13	420.00
687.46	417.94
687.80	415.84
688.14	413.76
688.48	411.80
688.81	409.90
689.15	407.75
689.49	405.58
689.82	403.65
690.16	401.55
690.50	399.65
690.83	397.65
691.17	395.56
691.51	393.74
691.84	391.76
692.18	389.85
692.52	388.01
692.85	386.30
693.19	384.48
693.52	382.85
693.86	380.91
694.20	379.12
694.53	377.39
694.87	375.52
695.21	373.69
695.54	371.82
695.88	370.01
696.21	368.34
696.55	366.70
696.88	365.08
697.22	363.52
697.56	361.87
697.89	360.25
698.23	358.80
698.56	357.18
698.90	355.81
699.23	354.27
699.57	352.78
699.90	351.19
700.24	349.55
700.58	347.87
700.91	346.57
701.25	345.28
701.58	343.79
701.92	342.50
702.25	341.20
702.59	339.90
702.92	338.55
703.26	337.40
703.59	336.20
703.93	334.97
704.26	333.79
704.60	332.43
704.93	331.09
705.26	329.84
705.60	328.70
705.93	327.53
706.27	326.45
706.60	325.32
706.94	324.17
707.27	323.19
707.61	322.08
707.94	321.01
708.27	319.87
708.61	318.81
708.94	317.73
709.28	316.79
709.61	315.83
709.94	314.90
710.28	313.73
710.61	312.68
710.95	311.42
711.28	310.43
711.61	309.51
711.95	308.58
712.28	307.61
712.61	306.59
712.95	305.70
713.28	304.88
713.61	303.84
713.95	302.89
714.28	302.05
714.61	301.10
714.95	300.19
715.28	299.32
715.61	298.39
715.95	297.58
716.28	296.65
716.61	295.73
716.95	294.88
717.28	294.11
717.61	293.33
717.94	292.75
718.28	291.90
718.61	291.10
718.94	290.37
719.27	289.64
719.61	288.99
719.94	288.16
720.27	287.20
720.60	286.61
720.94	285.99
721.27	285.23
721.60	284.68
721.93	284.03
722.27	283.49
722.60	283.03
722.93	282.38
723.26	281.91
723.59	281.31
723.93	280.78
724.26	280.25
724.59	279.52
724.92	278.99
725.25	278.40
725.59	277.92
725.92	277.46
726.25	276.86
726.58	276.32
726.91	275.76
727.24	275.38
727.57	274.88
727.91	274.30
728.24	273.77
728.57	273.32
728.90	272.82
729.23	272.33
729.56	271.83
729.89	271.32
730.22	270.76
730.55	270.23
730.89	269.77
731.22	269.41
731.55	269.02
731.88	268.44
732.21	268.00
732.54	267.58
732.87	267.12
733.20	266.73
733.53	266.32
733.86	266.06
734.19	265.65
734.52	265.25
734.85	265.01
735.18	264.66
735.51	264.32
735.84	264.00
736.17	263.53
736.50	263.02
736.83	262.87
737.16	262.47
737.49	262.18
737.82	261.73
738.15	261.25
738.48	260.93
738.81	260.65
739.14	260.29
739.47	259.88
739.80	259.48
740.13	259.26
740.46	258.82
740.79	258.46
741.12	258.08
741.45	257.70
741.78	257.31
742.11	257.05
742.44	256.61
742.77	256.23
743.10	255.87
743.43	255.56
743.75	255.01
744.08	254.99
744.41	254.74
744.74	254.51
745.07	254.08
745.40	253.83
745.73	253.59
746.06	253.35
746.39	253.18
746.71	252.88
747.04	252.42
747.37	252.17
747.70	251.86
748.03	251.60
748.36	251.28
748.68	250.91
749.01	250.60
749.34	250.30
749.67	249.96
750.00	249.75
750.33	249.69
750.65	249.51
750.98	248.97
751.31	248.60
751.64	248.34
751.97	248.29
752.29	247.95
752.62	247.68
752.95	247.34
753.28	247.02
753.60	246.84
753.93	246.69
754.26	246.42
754.59	246.12
754.91	245.89
755.24	245.78
755.57	245.62
755.90	245.37
756.22	245.17
756.55	244.93
756.88	244.70
757.20	244.32
757.53	244.00
757.86	243.79
758.19	243.62
758.51	243.31
758.84	243.16
759.17	242.95
759.49	242.64
759.82	242.58
760.15	242.46
760.47	242.26
760.80	242.07
761.13	241.97
761.45	241.84
761.78	241.80
762.11	241.54
762.43	241.39
762.76	241.23
763.08	241.04
763.41	240.96
763.74	240.80
764.06	240.72
764.39	240.66
764.71	240.61
765.04	240.46
765.37	240.38
765.69	240.13
766.02	240.11
766.34	240.02
766.67	239.86
767.00	239.74
767.32	239.71
767.65	239.78
767.97	239.67
768.30	239.63
768.62	239.36
768.95	239.28
769.27	239.18
769.60	239.11
769.92	239.02
770.25	238.88
770.57	238.82
770.90	238.70
771.22	238.68
771.55	238.48
771.87	238.42
772.20	238.35
772.52	238.41
772.85	238.53
773.17	238.57
773.50	238.43
773.82	238.30
774.15	238.15
774.47	237.84
774.80	237.77
775.12	237.58
775.45	237.60
775.77	237.54
776.09	237.54
776.42	237.43
776.74	237.40
777.07	237.42
777.39	237.33
777.72	237.28
778.04	237.12
778.36	237.08
778.69	237.04
779.01	236.98
779.33	236.78
779.66	236.41
779.98	236.27
780.31	236.22
780.63	236.26
780.95	236.14
781.28	236.02
781.60	235.92
781.92	235.85
782.25	235.70
782.57	235.64
782.89	235.41
783.22	235.34
783.54	235.26
783.86	235.16
784.19	235.07
784.51	235.00
784.83	234.90
785.16	234.86
785.48	234.74
785.80	234.64
786.12	234.56
786.45	234.57
786.77	234.51
787.09	234.44
787.42	234.25
787.74	234.24
788.06	234.18
788.38	234.10
788.71	234.06
789.03	234.06
789.35	234.01
789.67	233.94
789.99	233.81
790.32	233.87
790.64	233.76
790.96	233.79
791.28	233.68
791.61	233.65
791.93	233.61
792.25	233.55
792.57	233.63
792.89	233.53
793.21	233.47
793.54	233.33
793.86	233.30
794.18	233.30
794.50	233.22
794.82	233.21
795.14	233.11
795.47	233.03
795.79	232.98
796.11	232.87
796.43	232.90
796.75	232.90
797.07	232.76
797.39	232.71
797.71	232.48
798.04	232.50
798.36	232.33
798.68	232.27
799.00	232.21
799.32	232.13
799.64	232.10
799.96	232.10
800.28	232.14
800.60	232.01
800.92	231.94
801.24	231.89
801.56	231.87
801.89	231.76
802.21	231.76
802.53	231.71
802.85	231.74
803.17	231.80
803.49	231.72
803.81	231.64
804.13	231.56
804.45	231.57
804.77	231.52
805.09	231.51
805.41	231.32
805.73	231.33
806.05	231.21
806.37	231.25
806.69	231.12
807.01	231.07
807.33	231.14
807.65	231.10
807.97	231.14
808.28	231.03
808.60	231.15
808.92	231.12
809.24	231.20
809.56	231.14
809.88	230.96
810.20	231.05
810.52	231.11
810.84	231.20
811.16	231.21
811.48	231.16
811.80	231.23
812.12	231.38
812.43	231.33
812.75	231.29
813.07	231.17
813.39	231.19
813.71	231.11
814.03	231.02
814.35	231.00
814.67	231.03
814.98	231.00
815.30	230.94
815.62	230.88
815.94	230.69
816.26	230.73
816.58	230.71
816.89	230.57
817.21	230.45
817.53	230.32
817.85	230.34
818.17	230.33
818.48	230.22
818.80	230.18
819.12	230.13
819.44	230.15
819.76	230.16
820.07	230.17
820.39	230.19
820.71	230.20
821.03	230.08
821.34	230.00
821.66	230.07
821.98	230.08
822.30	230.16
822.61	230.29
822.93	230.18
823.25	230.18
823.57	230.17
823.88	230.24
824.20	230.31
824.52	230.30
824.83	230.25
825.15	230.39
825.47	230.33
825.79	230.39
826.10	230.34
826.42	230.27
826.74	230.24
827.05	230.35
827.37	230.36
827.69	230.38
828.00	230.34
828.32	230.28
828.64	230.25
828.95	230.24
829.27	230.21
829.58	230.27
829.90	230.22
830.22	230.25
830.53	230.10
830.85	230.03
831.17	229.90
831.48	229.99
831.80	229.83
832.11	229.90
832.43	229.82
832.75	229.80
833.06	229.91
833.38	229.88
833.69	229.84
834.01	229.86
834.32	229.90
834.64	229.78
834.96	229.82
835.27	229.80
835.59	229.70
835.90	229.62
836.22	229.61
836.53	229.58
836.85	229.50
837.16	229.81
837.48	229.83
837.79	229.92
838.11	229.85
838.42	229.91
838.74	229.89
839.05	229.85
839.37	229.83
839.68	229.67
840.00	229.61
840.31	229.61
840.63	229.53
840.94	229.56
841.26	229.72
841.57	229.66
841.88	229.68
842.20	229.66
842.51	229.65
842.83	229.60
843.14	229.84
843.46	229.92
843.77	229.78
844.08	229.71
844.40	229.67
844.71	229.73
845.03	229.72
845.34	229.69
845.65	229.77
845.97	229.79
846.28	229.90
846.60	229.99
846.91	229.91
847.22	229.92
847.54	229.98
847.85	229.91
848.16	230.00
848.48	229.91
848.79	230.06
849.10	230.03
849.42	230.06
849.73	229.89
850.04	229.80
850.36	229.77
850.67	229.81
850.98	229.79
851.30	229.67
851.61	229.62
851.92	229.60
852.23	229.68
852.55	229.70
852.86	229.71
853.17	229.64
853.49	229.66
853.80	229.73
854.11	229.64
854.42	229.66
854.74	229.65
855.05	229.70
855.36	229.47
855.67	229.47
855.99	229.38
856.30	229.58
856.61	229.60
856.92	229.58
857.23	229.55
857.55	229.48
857.86	229.49
858.17	229.55
858.48	229.52
858.79	229.40
859.11	229.38
859.42	229.31
859.73	229.33
860.04	229.32
860.35	229.20
860.66	229.14
860.98	229.10
861.29	228.99
861.60	229.00
861.91	229.05
862.22	229.03
862.53	229.08
862.84	228.80
863.16	228.73
863.47	228.58
863.78	228.64
864.09	228.63
864.40	228.74
864.71	228.61
865.02	228.59
865.33	228.48
865.64	228.44
865.95	228.39
866.27	228.40
866.58	228.31
866.89	228.38
867.20	228.34
867.51	228.37
867.82	228.30
868.13	228.25
868.44	228.22
868.75	228.31
869.06	228.26
869.37	228.22
869.68	228.28
869.99	228.35
870.30	228.30
870.61	228.42
870.92	228.29
871.23	228.35
871.54	228.38
871.85	228.47
872.16	228.40
872.47	228.43
872.78	228.41
873.09	228.46
873.40	228.39
873.71	228.50
874.02	228.47
874.33	228.59
874.64	228.57
874.95	228.58
875.26	228.40
875.56	228.43
875.87	228.48
876.18	228.57
876.49	228.76
876.80	228.76
877.11	228.67
877.42	228.80
877.73	228.81
878.04	228.78
878.35	228.86
878.66	228.91
878.96	228.88
879.27	228.84
879.58	228.78
879.89	228.87
880.20	228.90
880.51	228.97
880.82	228.83
881.12	228.91
881.43	228.90
881.74	229.00
882.05	228.98
882.36	229.01
882.67	228.96
882.97	228.81
883.28	228.73
883.59	228.83
883.90	228.80
884.21	228.77
884.51	228.84
884.82	228.82
885.13	228.94
885.44	229.04
885.74	229.15
886.05	229.16
886.36	229.08
886.67	229.02
886.98	229.08
887.28	229.21
887.59	229.14
887.90	229.31
888.20	229.29
888.51	229.33
888.82	229.21
889.13	229.23
889.43	229.33
889.74	229.37
890.05	229.28
890.35	229.19
890.66	229.23
890.97	229.16
891.28	229.18
891.58	229.05
891.89	228.93
892.20	228.80
892.50	228.67
892.81	228.69
893.12	228.61
893.42	228.46
893.73	228.38
894.04	228.42
894.34	228.31
894.65	228.39
894.95	228.32
895.26	228.40
895.57	228.55
895.87	228.36
896.18	228.42
896.48	228.33
896.79	228.33
897.10	228.35
897.40	228.43
897.71	228.39
898.01	228.49
898.32	228.59
898.63	228.60
898.93	228.65
899.24	228.60
899.54	228.67
899.85	228.60
900.15	228.62
900.46	228.58
900.76	228.50
901.07	228.43
901.38	228.44
901.68	228.51
901.99	228.25
902.29	228.32
902.60	228.26
902.90	228.39
903.21	228.50
903.51	228.54
903.82	228.54
904.12	228.50
904.43	228.46
904.73	228.48
905.03	228.46
905.34	228.82
905.64	228.88
905.95	228.90
906.25	229.02
906.56	229.06
906.86	229.10
907.17	229.10
907.47	229.14
907.77	229.11
908.08	229.04
908.38	229.07
908.69	229.06
908.99	229.03
909.30	229.01
909.60	228.98
909.90	228.97
910.21	228.82
910.51	228.82
910.81	228.70
911.12	228.65
911.42	228.66
911.73	228.36
912.03	228.30
912.33	228.27
912.64	228.27
912.94	228.29
913.24	228.23
913.55	228.38
913.85	228.34
914.15	228.50
914.46	228.58
914.76	228.74
915.06	228.73
915.37	228.75
915.67	228.69
915.97	228.72
916.27	228.66
916.58	228.83
916.88	228.88
917.18	229.08
917.49	229.22
917.79	229.18
918.09	229.38
918.39	229.50
918.70	229.59
919.00	229.51
919.30	229.51
919.60	229.60
919.91	229.52
920.21	229.55
920.51	229.57
920.81	229.43
921.12	229.44
921.42	229.47
921.72	229.47
922.02	229.40
922.32	229.39
922.63	229.40
922.93	229.40
923.23	229.38
923.53	229.27
923.83	229.14
924.13	229.18
924.44	228.95
924.74	228.96
925.04	228.92
925.34	228.96
925.64	228.92
925.94	228.85
926.24	228.96
926.55	228.90
926.85	228.91
927.15	229.07
927.45	228.89
927.75	228.90
928.05	228.95
928.35	229.07
928.65	229.05
928.95	229.00
929.26	228.98
929.56	229.04
929.86	229.01
930.16	228.98
930.46	228.95
930.76	229.03
931.06	228.89
931.36	228.90
931.66	228.96
931.96	228.95
932.26	228.97
932.56	228.85
932.86	228.76
933.16	228.57
933.46	228.35
933.76	228.39
934.06	228.40
934.36	228.41
934.66	228.41
934.96	228.40
935.26	228.40
935.56	228.33
935.86	228.26
936.16	228.24
936.46	228.17
936.76	228.22
937.06	228.19
937.36	228.13
937.66	228.05
937.96	227.98
938.26	227.91
938.56	227.87
938.86	227.90
939.16	228.03
939.46	228.12
939.76	228.24
940.06	228.21
940.35	228.21
940.65	228.12
940.95	228.08
941.25	228.05
941.55	228.02
941.85	228.04
942.15	228.06
942.45	228.20
942.75	228.19
943.04	228.19
943.34	228.25
943.64	228.28
943.94	228.29
944.24	228.33
944.54	228.43
944.84	228.52
945.13	228.47
945.43	228.42
945.73	228.37
946.03	228.35
946.33	228.52
946.62	228.44
946.92	228.44
947.22	228.51
947.52	228.55
947.82	228.59
948.11	228.66
948.41	228.59
948.71	228.55
949.01	228.63
949.31	228.56
949.60	228.60
949.90	228.55
950.20	228.57
950.50	228.56
950.79	228.49
951.09	228.42
951.39	228.35
951.69	228.41
951.98	228.50
952.28	228.53
952.58	228.37
952.87	228.36
953.17	228.38
953.47	228.30
953.76	228.20
954.06	228.22
954.36	228.14
954.66	228.08
954.95	228.09
955.25	228.14
955.55	228.22
955.84	228.05
956.14	228.14
956.44	228.17
956.73	228.16
957.03	228.24
957.32	228.28
957.62	228.43
957.92	228.33
958.21	228.29
958.51	228.57
958.81	228.70
959.10	228.70
959.40	228.74
959.69	228.78
959.99	228.88
960.29	228.95
960.58	228.94
960.88	229.10
961.17	228.97
961.47	229.00
961.76	228.97
962.06	229.14
962.36	229.11
962.65	229.16
962.95	229.15
963.24	229.13
963.54	229.01
963.83	229.05
964.13	229.18
964.42	229.03
964.72	228.77
965.01	228.66
965.31	228.71
965.60	228.63
965.90	228.73
966.19	228.67
966.49	228.56
966.78	228.42
967.08	228.41
967.37	228.54
967.67	228.37
967.96	228.44
968.26	228.32
968.55	228.32
968.85	228.21
969.14	228.20
969.43	228.05
969.73	228.20
970.02	228.06
970.32	227.98
970.61	228.04
970.91	228.05
971.20	228.02
971.49	228.00
971.79	228.11
972.08	227.99
972.38	228.00
972.67	227.97
972.96	228.08
973.26	228.01
973.55	228.06
973.85	228.10
974.14	227.99
974.43	228.07
974.73	228.03
975.02	227.96
975.31	227.85
975.61	227.97
975.90	227.85
976.19	227.86
976.49	227.90
976.78	227.89
977.07	227.83
977.37	227.75
977.66	227.76
977.95	227.70
978.24	227.72
978.54	227.76
978.83	227.79
979.12	227.80
979.42	227.81
979.71	227.76
980.00	227.74
980.29	227.73
980.59	227.66
980.88	227.74
981.17	227.80
981.46	227.90
981.76	227.86
982.05	227.91
982.34	227.98
982.63	227.93
982.93	227.96
983.22	228.11
983.51	228.26
983.80	228.29
984.09	228.29
984.39	228.27
984.68	228.21
984.97	228.21
985.26	228.17
985.55	228.25
985.85	228.19
986.14	228.30
986.43	228.40
986.72	228.43
987.01	228.41
987.30	228.43
987.59	228.47
987.89	228.55
988.18	228.53
988.47	228.53
988.76	228.54
989.05	228.53
989.34	228.43
989.63	228.51
989.92	228.49
990.22	228.57
990.51	228.49
990.80	228.56
991.09	228.67
991.38	228.82
991.67	228.81
991.96	228.77
992.25	228.79
992.54	228.67
992.83	228.78
993.12	228.73
993.41	228.78
993.70	228.83
993.99	228.88
994.28	228.94
994.58	228.91
994.87	228.93
995.16	228.95
995.45	228.93
995.74	228.82
996.03	228.88
996.32	228.85
996.61	228.91
996.90	228.84
997.19	228.75
997.48	228.73
997.77	228.61
998.06	228.71
998.34	228.68
998.63	228.71
998.92	228.67
999.21	228.78
999.50	228.72
999.79	228.59
1000.08	228.53
1000.37	228.53
1000.66	228.55
1000.95	228.50
1001.24	228.47
1001.53	228.45
1001.82	228.36
1002.11	228.25
1002.40	228.29
1002.68	228.27
1002.97	228.40
1003.26	228.41
1003.55	228.30
1003.84	228.36
1004.13	228.44
1004.42	228.44
1004.71	228.41
1004.99	228.40
1005.28	228.35
1005.57	228.35
1005.86	228.33
1006.15	228.26
1006.44	228.12
1006.72	228.10
1007.01	228.07
1007.30	228.11
1007.59	228.09
1007.88	228.22
1008.17	228.30
1008.45	228.15
1008.74	228.19
1009.03	228.12
1009.32	228.00
1009.60	228.02
1009.89	227.99
1010.18	227.79
1010.47	227.79
1010.76	227.84
1011.04	227.84
1011.33	227.95
1011.62	227.98
1011.91	228.11
1012.19	228.22
1012.48	228.29
1012.77	228.28
1013.05	228.26
1013.34	228.17
1013.63	228.19
1013.92	228.22
1014.20	228.06
1014.49	228.22
1014.78	228.20
1015.06	228.15
1015.35	228.18
1015.64	228.26
1015.92	228.31
1016.21	228.24
1016.50	228.15
1016.78	228.26
1017.07	228.28
1017.36	228.15
1017.64	228.14
1017.93	228.09
1018.22	228.03
1018.50	228.15
1018.79	228.23
1019.08	228.23
1019.36	228.35
1019.65	228.37
1019.93	228.34
1020.22	228.47
1020.51	228.51
1020.79	228.54
1021.08	228.20
1021.36	230.10
1021.65	229.30
1021.94	227.30
1022.22	229.00
1022.51	228.20
1022.79	229.20
1023.08	228.60
1023.36	230.90
1023.65	228.40
>>>>>End Processed Spectral Data<<<<<
