SpectraSuite Data File
++++++++++++++++++++++++++++++++++++
Date: Fri Feb 01 14:39:17 EST 2013
User: group
Dark Spectrum Present: No
Reference Spectrum Present: No
Number of Sampled Component Spectra: 1
Spectrometers: USB2E7196
Integration Time (usec): 70000 (USB2E7196)
Spectra Averaged: 10 (USB2E7196)
Boxcar Smoothing: 10 (USB2E7196)
Correct for Electrical Dark: No (USB2E7196)
Strobe/Lamp Enabled: No (USB2E7196)
Correct for Detector Non-linearity: No (USB2E7196)
Correct for Stray Light: No (USB2E7196)
Number of Pixels in Processed Spectrum: 2048
>>>>>Begin Processed Spectral Data<<<<<
339.09	0.00
339.48	217.40
339.86	217.30
340.24	217.30
340.63	220.70
341.01	224.70
341.39	223.70
341.78	223.50
342.16	224.30
342.54	225.10
342.93	214.01
343.31	224.87
343.69	225.25
344.07	225.82
344.46	226.32
344.84	226.65
345.22	226.81
345.60	226.96
345.99	227.16
346.37	227.40
346.75	227.52
347.13	227.50
347.52	227.62
347.90	227.68
348.28	227.79
348.66	228.01
349.05	227.84
349.43	227.96
349.81	227.98
350.19	228.09
350.57	228.10
350.96	228.29
351.34	228.36
351.72	228.50
352.10	228.49
352.48	228.48
352.87	228.57
353.25	228.54
353.63	228.61
354.01	228.64
354.39	228.68
354.77	228.72
355.15	228.89
355.54	228.98
355.92	229.04
356.30	229.06
356.68	229.20
357.06	229.35
357.44	229.45
357.82	229.61
358.20	229.76
358.58	229.83
358.97	229.90
359.35	230.00
359.73	230.10
360.11	230.18
360.49	230.32
360.87	230.38
361.25	230.52
361.63	230.67
362.01	230.82
362.39	230.80
362.77	230.94
363.15	231.00
363.53	231.02
363.91	231.04
364.29	231.05
364.67	230.94
365.05	230.92
365.43	230.84
365.81	230.77
366.19	230.86
366.57	230.88
366.95	230.83
367.33	230.75
367.71	230.73
368.09	230.77
368.47	230.78
368.85	230.64
369.23	230.76
369.61	230.63
369.99	230.66
370.37	230.64
370.75	230.63
371.13	230.56
371.51	230.50
371.89	230.52
372.27	230.52
372.65	230.44
373.03	230.43
373.41	230.46
373.78	230.34
374.16	230.07
374.54	229.91
374.92	229.79
375.30	229.83
375.68	229.74
376.06	229.61
376.44	229.51
376.82	229.52
377.19	229.25
377.57	229.20
377.95	228.95
378.33	228.82
378.71	228.67
379.09	228.60
379.47	228.53
379.84	228.35
380.22	228.20
380.60	228.07
380.98	227.90
381.36	227.76
381.73	227.73
382.11	227.67
382.49	227.70
382.87	227.60
383.25	227.37
383.62	227.45
384.00	227.36
384.38	227.26
384.76	227.21
385.13	227.28
385.51	227.18
385.89	227.15
386.27	227.10
386.64	226.95
387.02	226.86
387.40	226.74
387.78	226.64
388.15	226.59
388.53	226.52
388.91	226.56
389.29	226.49
389.66	226.56
390.04	226.51
390.42	226.48
390.79	226.50
391.17	226.51
391.55	226.21
391.92	226.18
392.30	226.27
392.68	226.20
393.05	226.16
393.43	226.17
393.81	226.17
394.18	226.14
394.56	226.24
394.94	226.30
395.31	226.34
395.69	226.57
396.06	226.65
396.44	226.70
396.82	226.64
397.19	226.81
397.57	226.79
397.95	226.91
398.32	226.95
398.70	227.08
399.07	227.15
399.45	227.30
399.82	227.30
400.20	227.32
400.58	227.43
400.95	227.48
401.33	227.62
401.70	227.79
402.08	227.97
402.45	228.10
402.83	228.26
403.20	228.43
403.58	228.45
403.95	228.56
404.33	228.75
404.71	228.97
405.08	229.22
405.46	229.25
405.83	229.39
406.21	229.52
406.58	229.76
406.96	230.01
407.33	230.33
407.70	230.64
408.08	230.98
408.45	231.31
408.83	231.67
409.20	231.87
409.58	232.07
409.95	232.45
410.33	232.68
410.70	232.91
411.08	233.18
411.45	233.53
411.82	233.89
412.20	234.28
412.57	234.68
412.95	234.87
413.32	235.47
413.69	235.87
414.07	236.37
414.44	236.72
414.82	237.11
415.19	237.63
415.56	238.17
415.94	238.66
416.31	239.29
416.68	239.73
417.06	240.57
417.43	241.33
417.81	241.99
418.18	242.74
418.55	243.60
418.93	244.51
419.30	245.42
419.67	246.38
420.04	247.40
420.42	248.50
420.79	249.79
421.16	250.98
421.54	252.33
421.91	253.58
422.28	254.88
422.66	256.36
423.03	257.78
423.40	259.30
423.77	260.84
424.15	262.42
424.52	264.12
424.89	265.82
425.26	267.43
425.64	269.05
426.01	270.90
426.38	272.78
426.75	274.66
427.13	276.58
427.50	278.46
427.87	280.48
428.24	282.40
428.61	284.23
428.99	286.41
429.36	288.73
429.73	291.04
430.10	293.32
430.47	295.65
430.85	298.08
431.22	300.56
431.59	303.36
431.96	305.90
432.33	308.74
432.70	311.46
433.08	314.71
433.45	317.80
433.82	320.75
434.19	323.99
434.56	327.17
434.93	330.19
435.30	333.31
435.68	336.75
436.05	340.18
436.42	343.56
436.79	346.54
437.16	349.82
437.53	353.25
437.90	356.64
438.27	359.90
438.64	363.20
439.01	366.44
439.38	368.89
439.75	371.44
440.13	374.49
440.50	377.43
440.87	379.78
441.24	382.08
441.61	384.86
441.98	386.95
442.35	389.36
442.72	391.77
443.09	394.21
443.46	395.50
443.83	396.50
444.20	397.30
444.57	398.46
444.94	398.85
445.31	399.53
445.68	400.28
446.05	400.75
446.42	400.67
446.79	400.47
447.16	400.37
447.53	400.42
447.90	399.37
448.27	398.21
448.64	396.57
449.01	395.75
449.37	393.67
449.74	391.57
450.11	389.20
450.48	386.67
450.85	383.92
451.22	381.73
451.59	379.50
451.96	377.54
452.33	374.62
452.70	372.15
453.07	368.97
453.43	365.70
453.80	362.59
454.17	359.53
454.54	356.55
454.91	353.41
455.28	350.32
455.65	347.54
456.02	344.82
456.38	342.36
456.75	339.20
457.12	336.59
457.49	334.16
457.86	331.47
458.23	329.28
458.59	326.90
458.96	324.46
459.33	322.36
459.70	319.98
460.07	318.32
460.43	316.31
460.80	314.42
461.17	312.73
461.54	310.83
461.91	309.15
462.27	307.48
462.64	306.07
463.01	304.33
463.38	302.72
463.74	301.02
464.11	299.69
464.48	298.34
464.85	297.06
465.21	295.90
465.58	294.83
465.95	293.42
466.32	292.31
466.68	291.12
467.05	289.90
467.42	288.82
467.78	287.56
468.15	286.42
468.52	285.60
468.88	284.42
469.25	283.49
469.62	282.64
469.98	281.65
470.35	280.70
470.72	279.95
471.08	279.08
471.45	278.36
471.82	277.58
472.18	276.72
472.55	276.06
472.92	275.16
473.28	274.46
473.65	273.78
474.02	273.07
474.38	272.39
474.75	271.78
475.11	271.23
475.48	270.75
475.85	270.22
476.21	269.58
476.58	269.12
476.94	268.60
477.31	268.04
477.67	267.63
478.04	267.22
478.41	266.66
478.77	266.34
479.14	265.84
479.50	265.40
479.87	265.14
480.23	264.85
480.60	264.71
480.96	264.49
481.33	264.29
481.69	263.98
482.06	263.83
482.42	263.68
482.79	263.50
483.15	263.27
483.52	263.12
483.88	262.99
484.25	262.88
484.61	262.85
484.98	262.83
485.34	262.92
485.71	263.01
486.07	263.11
486.44	263.03
486.80	263.04
487.17	263.07
487.53	263.22
487.90	263.30
488.26	263.44
488.62	263.62
488.99	263.71
489.35	263.87
489.72	264.04
490.08	264.24
490.44	264.41
490.81	264.69
491.17	264.98
491.54	265.30
491.90	265.62
492.26	265.90
492.63	266.10
492.99	266.22
493.36	266.49
493.72	266.90
494.08	267.22
494.45	267.63
494.81	268.05
495.17	268.40
495.54	268.71
495.90	268.98
496.26	269.33
496.63	269.76
496.99	270.20
497.35	270.51
497.72	270.92
498.08	271.43
498.44	271.89
498.80	272.39
499.17	272.80
499.53	273.26
499.89	273.84
500.26	274.52
500.62	275.09
500.98	275.65
501.34	276.17
501.71	276.80
502.07	277.45
502.43	278.06
502.79	278.61
503.16	279.36
503.52	280.01
503.88	280.74
504.24	281.43
504.60	282.23
504.97	283.17
505.33	284.01
505.69	284.83
506.05	285.73
506.41	286.63
506.78	287.70
507.14	288.70
507.50	289.72
507.86	290.80
508.22	292.08
508.59	293.24
508.95	294.54
509.31	295.87
509.67	297.22
510.03	298.64
510.39	300.30
510.75	301.85
511.12	303.58
511.48	305.22
511.84	306.99
512.20	308.77
512.56	310.65
512.92	312.60
513.28	314.68
513.64	316.81
514.00	319.09
514.37	321.24
514.73	323.66
515.09	326.01
515.45	328.47
515.81	331.00
516.17	333.72
516.53	336.42
516.89	339.23
517.25	342.15
517.61	345.17
517.97	348.10
518.33	351.20
518.69	354.48
519.05	357.95
519.41	361.54
519.77	365.21
520.13	368.76
520.49	372.46
520.85	376.09
521.21	380.08
521.57	384.14
521.93	388.20
522.29	392.38
522.65	396.71
523.01	401.20
523.37	405.52
523.73	410.03
524.09	414.75
524.45	419.39
524.81	424.08
525.17	429.20
525.53	434.34
525.89	439.44
526.25	444.57
526.61	449.62
526.97	454.85
527.33	460.25
527.68	466.02
528.04	471.76
528.40	477.59
528.76	483.42
529.12	489.30
529.48	495.30
529.84	501.32
530.20	507.50
530.56	513.65
530.91	520.38
531.27	526.86
531.63	533.12
531.99	539.96
532.35	546.70
532.71	553.08
533.07	559.92
533.42	567.09
533.78	574.07
534.14	580.90
534.50	587.75
534.86	594.79
535.21	601.52
535.57	608.55
535.93	616.00
536.29	623.25
536.65	630.61
537.00	637.85
537.36	645.38
537.72	652.75
538.08	660.11
538.44	666.93
538.79	674.19
539.15	681.73
539.51	689.34
539.87	696.78
540.22	704.35
540.58	711.87
540.94	719.15
541.29	726.67
541.65	734.40
542.01	742.26
542.37	749.74
542.72	757.41
543.08	765.03
543.44	772.34
543.79	779.57
544.15	786.81
544.51	794.45
544.87	801.81
545.22	809.02
545.58	816.41
545.94	823.95
546.29	831.30
546.65	838.50
547.01	845.36
547.36	852.66
547.72	859.75
548.07	866.77
548.43	873.70
548.79	880.48
549.14	887.40
549.50	894.16
549.86	900.99
550.21	907.57
550.57	914.29
550.92	920.93
551.28	927.61
551.64	934.05
551.99	940.47
552.35	946.69
552.70	953.10
553.06	959.66
553.41	965.99
553.77	972.61
554.13	978.83
554.48	985.14
554.84	991.16
555.19	997.10
555.55	1003.13
555.90	1008.94
556.26	1015.01
556.61	1020.63
556.97	1026.17
557.32	1031.81
557.68	1037.53
558.03	1043.14
558.39	1048.77
558.74	1054.80
559.10	1060.30
559.45	1065.76
559.81	1071.41
560.16	1076.63
560.52	1081.50
560.87	1086.82
561.23	1091.19
561.58	1096.79
561.94	1101.57
562.29	1106.28
562.64	1111.05
563.00	1115.60
563.35	1120.64
563.71	1125.67
564.06	1130.54
564.42	1135.25
564.77	1139.71
565.12	1144.41
565.48	1148.93
565.83	1153.04
566.19	1156.89
566.54	1161.19
566.89	1165.03
567.25	1168.91
567.60	1173.14
567.96	1177.30
568.31	1180.90
568.66	1184.72
569.02	1187.68
569.37	1191.01
569.72	1194.25
570.08	1197.57
570.43	1200.37
570.78	1203.20
571.14	1205.28
571.49	1207.81
571.84	1210.64
572.20	1213.38
572.55	1215.40
572.90	1217.20
573.26	1219.46
573.61	1221.34
573.96	1223.19
574.31	1224.95
574.67	1226.19
575.02	1227.57
575.37	1228.59
575.72	1229.59
576.08	1230.93
576.43	1231.89
576.78	1232.91
577.13	1234.23
577.49	1235.22
577.84	1236.44
578.19	1236.98
578.54	1237.73
578.90	1238.24
579.25	1238.21
579.60	1238.04
579.95	1238.09
580.30	1238.40
580.66	1238.25
581.01	1237.75
581.36	1237.54
581.71	1237.35
582.06	1237.44
582.42	1236.58
582.77	1236.17
583.12	1235.96
583.47	1235.44
583.82	1235.33
584.17	1234.62
584.53	1233.70
584.88	1232.81
585.23	1231.97
585.58	1231.18
585.93	1230.51
586.28	1229.67
586.63	1228.95
586.98	1228.32
587.34	1227.80
587.69	1226.62
588.04	1225.62
588.39	1225.10
588.74	1223.16
589.09	1221.83
589.44	1219.89
589.79	1218.95
590.14	1217.73
590.49	1216.09
590.84	1214.64
591.19	1213.05
591.54	1211.26
591.89	1208.88
592.25	1207.09
592.60	1204.79
592.95	1202.52
593.30	1199.96
593.65	1197.51
594.00	1195.08
594.35	1193.06
594.70	1190.34
595.05	1188.53
595.40	1185.73
595.75	1183.03
596.10	1181.29
596.45	1178.98
596.80	1177.05
597.15	1174.83
597.50	1172.48
597.85	1170.50
598.19	1168.23
598.54	1165.52
598.89	1163.18
599.24	1161.81
599.59	1159.64
599.94	1157.54
600.29	1155.23
600.64	1153.08
600.99	1150.95
601.34	1148.59
601.69	1145.47
602.04	1143.03
602.39	1140.12
602.74	1138.16
603.08	1135.68
603.43	1133.39
603.78	1130.91
604.13	1128.21
604.48	1125.50
604.83	1122.68
605.18	1119.82
605.53	1116.67
605.87	1113.47
606.22	1110.85
606.57	1107.50
606.92	1104.25
607.27	1101.23
607.62	1098.55
607.96	1095.39
608.31	1092.17
608.66	1088.59
609.01	1085.39
609.36	1082.04
609.70	1077.83
610.05	1073.91
610.40	1070.42
610.75	1066.21
611.10	1062.19
611.44	1058.09
611.79	1054.45
612.14	1050.61
612.49	1046.00
612.83	1041.67
613.18	1037.68
613.53	1033.58
613.88	1029.11
614.22	1024.97
614.57	1020.60
614.92	1016.29
615.27	1012.39
615.61	1008.43
615.96	1004.55
616.31	1000.73
616.65	997.17
617.00	993.83
617.35	990.05
617.70	985.95
618.04	981.88
618.39	977.92
618.74	974.45
619.08	969.86
619.43	965.95
619.78	962.59
620.12	958.92
620.47	955.31
620.82	951.08
621.16	947.40
621.51	943.74
621.85	940.13
622.20	935.94
622.55	932.06
622.89	927.96
623.24	924.52
623.59	920.72
623.93	916.58
624.28	912.75
624.62	908.99
624.97	905.17
625.32	901.70
625.66	898.28
626.01	894.34
626.35	890.77
626.70	886.86
627.04	883.07
627.39	879.14
627.73	875.06
628.08	871.58
628.43	867.86
628.77	864.03
629.12	859.84
629.46	856.03
629.81	851.61
630.15	847.67
630.50	843.41
630.84	838.98
631.19	834.71
631.53	830.49
631.88	826.00
632.22	821.77
632.57	817.91
632.91	813.53
633.26	809.40
633.60	804.98
633.95	800.66
634.29	796.62
634.64	792.91
634.98	789.15
635.32	785.29
635.67	781.38
636.01	777.49
636.36	773.82
636.70	770.15
637.05	766.62
637.39	762.89
637.73	759.18
638.08	756.02
638.42	752.76
638.77	749.44
639.11	745.79
639.45	742.21
639.80	738.49
640.14	734.95
640.49	731.21
640.83	727.92
641.17	724.78
641.52	721.09
641.86	717.60
642.20	714.09
642.55	710.20
642.89	706.74
643.23	703.06
643.58	699.55
643.92	695.84
644.26	692.59
644.61	689.37
644.95	685.96
645.29	682.07
645.64	678.33
645.98	674.82
646.32	671.66
646.66	668.12
647.01	664.59
647.35	661.40
647.69	658.25
648.04	655.11
648.38	651.48
648.72	647.87
649.06	644.21
649.41	640.77
649.75	637.17
650.09	633.68
650.43	630.19
650.78	626.64
651.12	623.29
651.46	619.76
651.80	616.28
652.14	612.78
652.49	609.54
652.83	606.32
653.17	602.86
653.51	599.31
653.85	595.90
654.20	592.53
654.54	588.74
654.88	585.10
655.22	581.50
655.56	578.22
655.90	575.03
656.25	571.85
656.59	568.39
656.93	565.53
657.27	562.54
657.61	559.34
657.95	556.32
658.29	553.30
658.64	550.20
658.98	546.78
659.32	543.60
659.66	540.59
660.00	537.40
660.34	534.27
660.68	531.31
661.02	528.45
661.36	525.59
661.70	523.15
662.05	520.50
662.39	517.90
662.73	515.00
663.07	512.56
663.41	509.82
663.75	507.34
664.09	504.62
664.43	501.74
664.77	499.25
665.11	496.61
665.45	494.19
665.79	491.59
666.13	489.40
666.47	486.91
666.81	484.29
667.15	481.76
667.49	479.32
667.83	477.05
668.17	474.60
668.51	472.11
668.85	469.41
669.19	467.20
669.53	464.70
669.87	462.44
670.21	459.90
670.55	457.83
670.89	455.70
671.23	453.65
671.57	451.44
671.91	449.09
672.25	446.97
672.58	444.61
672.92	442.57
673.26	440.59
673.60	438.69
673.94	436.88
674.28	435.06
674.62	433.30
674.96	431.37
675.30	429.61
675.64	427.67
675.97	425.87
676.31	423.99
676.65	422.20
676.99	420.33
677.33	418.48
677.67	416.40
678.01	414.24
678.34	412.12
678.68	410.43
679.02	408.62
679.36	406.79
679.70	405.15
680.04	403.33
680.37	401.35
680.71	399.67
681.05	397.84
681.39	396.14
681.73	394.30
682.06	392.79
682.40	391.11
682.74	389.61
683.08	388.01
683.42	386.23
683.75	384.58
684.09	382.93
684.43	381.25
684.77	379.65
685.10	378.25
685.44	376.72
685.78	375.05
686.12	373.44
686.45	372.00
686.79	370.41
687.13	368.92
687.46	367.32
687.80	365.67
688.14	364.18
688.48	362.57
688.81	361.13
689.15	359.62
689.49	358.20
689.82	356.73
690.16	355.30
690.50	353.94
690.83	352.53
691.17	351.17
691.51	349.98
691.84	348.79
692.18	347.46
692.52	346.14
692.85	345.02
693.19	343.90
693.52	342.58
693.86	341.39
694.20	340.32
694.53	339.24
694.87	338.03
695.21	336.71
695.54	335.51
695.88	334.30
696.21	333.00
696.55	331.83
696.88	330.58
697.22	329.51
697.56	328.40
697.89	327.31
698.23	326.20
698.56	325.01
698.90	324.01
699.23	322.93
699.57	321.90
699.90	320.78
700.24	319.69
700.58	318.53
700.91	317.51
701.25	316.39
701.58	315.35
701.92	314.43
702.25	313.64
702.59	312.75
702.92	311.88
703.26	310.91
703.59	309.99
703.93	309.39
704.26	308.49
704.60	307.64
704.93	306.87
705.26	306.01
705.60	305.18
705.93	304.31
706.27	303.58
706.60	302.84
706.94	302.12
707.27	301.32
707.61	300.59
707.94	299.83
708.27	299.12
708.61	298.35
708.94	297.54
709.28	296.76
709.61	296.03
709.94	295.35
710.28	294.69
710.61	293.92
710.95	292.98
711.28	292.27
711.61	291.49
711.95	290.75
712.28	290.00
712.61	289.33
712.95	288.56
713.28	287.86
713.61	287.16
713.95	286.36
714.28	285.76
714.61	285.20
714.95	284.52
715.28	283.76
715.61	283.00
715.95	282.45
716.28	281.77
716.61	281.08
716.95	280.38
717.28	279.70
717.61	279.14
717.94	278.52
718.28	277.79
718.61	277.23
718.94	276.56
719.27	276.13
719.61	275.65
719.94	275.08
720.27	274.49
720.60	273.95
720.94	273.43
721.27	272.84
721.60	272.28
721.93	271.70
722.27	271.19
722.60	270.86
722.93	270.33
723.26	269.81
723.59	269.35
723.93	268.84
724.26	268.35
724.59	267.97
724.92	267.55
725.25	267.16
725.59	266.75
725.92	266.37
726.25	265.82
726.58	265.33
726.91	264.93
727.24	264.55
727.57	264.11
727.91	263.73
728.24	263.48
728.57	263.04
728.90	262.68
729.23	262.29
729.56	261.87
729.89	261.45
730.22	261.17
730.55	260.81
730.89	260.50
731.22	260.26
731.55	259.75
731.88	259.50
732.21	259.12
732.54	258.69
732.87	258.30
733.20	258.00
733.53	257.76
733.86	257.46
734.19	257.17
734.52	256.83
734.85	256.64
735.18	256.32
735.51	256.17
735.84	255.87
736.17	255.66
736.50	255.29
736.83	255.20
737.16	254.96
737.49	254.73
737.82	254.49
738.15	254.24
738.48	254.03
738.81	253.72
739.14	253.59
739.47	253.38
739.80	253.18
740.13	253.02
740.46	252.68
740.79	252.44
741.12	252.16
741.45	252.01
741.78	251.63
742.11	251.31
742.44	250.91
742.77	250.70
743.10	250.52
743.43	250.36
743.75	250.04
744.08	250.02
744.41	249.79
744.74	249.47
745.07	249.28
745.40	249.20
745.73	248.95
746.06	248.63
746.39	248.48
746.71	248.20
747.04	247.86
747.37	247.61
747.70	247.50
748.03	247.30
748.36	247.13
748.68	246.98
749.01	246.74
749.34	246.61
749.67	246.40
750.00	246.16
750.33	246.12
750.65	245.98
750.98	245.49
751.31	245.29
751.64	245.22
751.97	245.08
752.29	244.72
752.62	244.53
752.95	244.48
753.28	244.33
753.60	244.23
753.93	244.21
754.26	243.98
754.59	243.78
754.91	243.70
755.24	243.43
755.57	243.16
755.90	242.90
756.22	242.71
756.55	242.50
756.88	242.29
757.20	241.99
757.53	241.72
757.86	241.61
758.19	241.44
758.51	241.27
758.84	241.01
759.17	240.90
759.49	240.77
759.82	240.64
760.15	240.43
760.47	240.38
760.80	240.17
761.13	240.12
761.45	239.84
761.78	239.53
762.11	239.38
762.43	239.19
762.76	239.20
763.08	239.19
763.41	239.17
763.74	239.10
764.06	238.91
764.39	238.81
764.71	238.70
765.04	238.62
765.37	238.49
765.69	238.32
766.02	238.20
766.34	238.08
766.67	237.83
767.00	237.70
767.32	237.57
767.65	237.53
767.97	237.34
768.30	237.27
768.62	237.22
768.95	237.17
769.27	237.22
769.60	237.06
769.92	236.99
770.25	236.72
770.57	236.53
770.90	236.40
771.22	236.24
771.55	236.09
771.87	235.97
772.20	235.79
772.52	235.93
772.85	236.13
773.17	236.07
773.50	235.97
773.82	235.88
774.15	235.70
774.47	235.60
774.80	235.62
775.12	235.51
775.45	235.43
775.77	235.32
776.09	235.29
776.42	235.23
776.74	235.10
777.07	235.08
777.39	235.09
777.72	235.09
778.04	235.03
778.36	234.96
778.69	234.82
779.01	234.72
779.33	234.44
779.66	234.11
779.98	233.96
780.31	234.01
780.63	234.09
780.95	234.08
781.28	233.89
781.60	233.75
781.92	233.64
782.25	233.65
782.57	233.65
782.89	233.52
783.22	233.46
783.54	233.48
783.86	233.55
784.19	233.58
784.51	233.68
784.83	233.70
785.16	233.66
785.48	233.66
785.80	233.74
786.12	233.79
786.45	233.77
786.77	233.80
787.09	233.70
787.42	233.60
787.74	233.61
788.06	233.69
788.38	233.65
788.71	233.67
789.03	233.60
789.35	233.56
789.67	233.62
789.99	233.59
790.32	233.44
790.64	233.42
790.96	233.37
791.28	233.10
791.61	233.04
791.93	233.02
792.25	233.06
792.57	233.15
792.89	233.04
793.21	233.09
793.54	233.05
793.86	232.96
794.18	232.86
794.50	232.76
794.82	232.71
795.14	232.79
795.47	232.84
795.79	232.86
796.11	232.82
796.43	232.62
796.75	232.70
797.07	232.65
797.39	232.54
797.71	232.40
798.04	232.48
798.36	232.49
798.68	232.46
799.00	232.52
799.32	232.32
799.64	232.38
799.96	232.30
800.28	232.33
800.60	232.36
800.92	232.31
801.24	232.23
801.56	232.21
801.89	232.11
802.21	232.03
802.53	231.91
802.85	231.86
803.17	231.99
803.49	231.91
803.81	231.82
804.13	231.78
804.45	231.80
804.77	231.74
805.09	231.70
805.41	231.62
805.73	231.35
806.05	231.36
806.37	231.28
806.69	231.22
807.01	231.08
807.33	230.96
807.65	230.88
807.97	230.95
808.28	230.79
808.60	230.68
808.92	230.64
809.24	230.69
809.56	230.66
809.88	230.51
810.20	230.40
810.52	230.40
810.84	230.30
811.16	230.26
811.48	230.15
811.80	230.16
812.12	230.17
812.43	230.26
812.75	230.20
813.07	230.11
813.39	230.04
813.71	230.05
814.03	230.04
814.35	229.98
814.67	229.86
814.98	229.81
815.30	229.86
815.62	229.84
815.94	229.71
816.26	229.80
816.58	229.76
816.89	229.73
817.21	229.74
817.53	229.82
817.85	229.69
818.17	229.71
818.48	229.71
818.80	229.75
819.12	229.70
819.44	229.69
819.76	229.63
820.07	229.61
820.39	229.46
820.71	229.47
821.03	229.54
821.34	229.60
821.66	229.74
821.98	229.74
822.30	229.60
822.61	229.72
822.93	229.54
823.25	229.53
823.57	229.58
823.88	229.56
824.20	229.58
824.52	229.63
824.83	229.72
825.15	229.59
825.47	229.50
825.79	229.66
826.10	229.63
826.42	229.71
826.74	229.77
827.05	229.91
827.37	230.00
827.69	230.00
828.00	230.04
828.32	230.02
828.64	230.00
828.95	230.28
829.27	230.31
829.58	230.36
829.90	230.42
830.22	230.40
830.53	230.41
830.85	230.35
831.17	230.33
831.48	230.27
831.80	230.29
832.11	230.31
832.43	230.22
832.75	230.26
833.06	230.35
833.38	230.32
833.69	230.25
834.01	230.22
834.32	230.18
834.64	230.02
834.96	229.92
835.27	230.00
835.59	229.89
835.90	229.80
836.22	229.79
836.53	229.79
836.85	229.83
837.16	229.97
837.48	230.00
837.79	230.08
838.11	230.12
838.42	230.07
838.74	230.07
839.05	229.99
839.37	229.84
839.68	229.71
840.00	229.67
840.31	229.70
840.63	229.60
840.94	229.58
841.26	229.57
841.57	229.54
841.88	229.40
842.20	229.36
842.51	229.33
842.83	229.33
843.14	229.37
843.46	229.28
843.77	229.13
844.08	229.03
844.40	228.99
844.71	228.88
845.03	228.89
845.34	228.80
845.65	228.79
845.97	228.80
846.28	228.74
846.60	228.67
846.91	228.64
847.22	228.66
847.54	228.67
847.85	228.56
848.16	228.52
848.48	228.46
848.79	228.45
849.10	228.32
849.42	228.22
849.73	228.04
850.04	228.11
850.36	228.05
850.67	228.08
850.98	228.00
851.30	227.97
851.61	227.94
851.92	227.93
852.23	227.96
852.55	228.02
852.86	227.98
853.17	228.01
853.49	228.00
853.80	227.99
854.11	228.03
854.42	228.19
854.74	228.29
855.05	228.28
855.36	228.12
855.67	228.20
855.99	228.27
856.30	228.47
856.61	228.43
856.92	228.40
857.23	228.39
857.55	228.36
857.86	228.37
858.17	228.36
858.48	228.41
858.79	228.41
859.11	228.42
859.42	228.43
859.73	228.45
860.04	228.49
860.35	228.48
860.66	228.51
860.98	228.48
861.29	228.56
861.60	228.75
861.91	228.87
862.22	228.88
862.53	228.82
862.84	228.73
863.16	228.71
863.47	228.85
863.78	228.87
864.09	229.04
864.40	229.20
864.71	229.35
865.02	229.42
865.33	229.49
865.64	229.54
865.95	229.66
866.27	229.83
866.58	229.86
866.89	229.94
867.20	229.91
867.51	229.95
867.82	229.87
868.13	229.86
868.44	229.98
868.75	230.06
869.06	230.18
869.37	230.13
869.68	230.15
869.99	230.10
870.30	230.16
870.61	230.05
870.92	229.97
871.23	229.87
871.54	229.88
871.85	229.86
872.16	229.84
872.47	229.86
872.78	229.83
873.09	229.89
873.40	229.86
873.71	229.84
874.02	229.90
874.33	229.91
874.64	229.83
874.95	229.75
875.26	229.70
875.56	229.65
875.87	229.69
876.18	229.74
876.49	229.88
876.80	229.79
877.11	229.76
877.42	229.71
877.73	229.66
878.04	229.59
878.35	229.56
878.66	229.53
878.96	229.40
879.27	229.31
879.58	229.17
879.89	229.19
880.20	229.26
880.51	229.11
880.82	229.09
881.12	229.10
881.43	229.02
881.74	228.95
882.05	228.92
882.36	228.87
882.67	228.78
882.97	228.60
883.28	228.54
883.59	228.50
883.90	228.50
884.21	228.67
884.51	228.60
884.82	228.50
885.13	228.49
885.44	228.44
885.74	228.44
886.05	228.36
886.36	228.22
886.67	228.04
886.98	228.16
887.28	228.08
887.59	228.07
887.90	228.02
888.20	228.10
888.51	228.08
888.82	228.02
889.13	228.04
889.43	228.13
889.74	228.16
890.05	228.18
890.35	228.10
890.66	227.93
890.97	227.92
891.28	227.93
891.58	227.88
891.89	227.90
892.20	227.70
892.50	227.70
892.81	227.68
893.12	227.66
893.42	227.54
893.73	227.57
894.04	227.48
894.34	227.44
894.65	227.33
894.95	227.25
895.26	227.30
895.57	227.43
895.87	227.30
896.18	227.31
896.48	227.41
896.79	227.42
897.10	227.55
897.40	227.60
897.71	227.64
898.01	227.62
898.32	227.65
898.63	227.76
898.93	227.80
899.24	227.86
899.54	227.95
899.85	228.00
900.15	228.04
900.46	228.26
900.76	228.41
901.07	228.41
901.38	228.56
901.68	228.58
901.99	228.44
902.29	228.48
902.60	228.44
902.90	228.39
903.21	228.45
903.51	228.40
903.82	228.46
904.12	228.44
904.43	228.50
904.73	228.53
905.03	228.57
905.34	228.79
905.64	228.75
905.95	228.80
906.25	228.82
906.56	228.82
906.86	228.77
907.17	228.69
907.47	228.87
907.77	228.78
908.08	228.80
908.38	228.83
908.69	228.76
908.99	228.93
909.30	228.97
909.60	228.91
909.90	228.91
910.21	228.80
910.51	228.87
910.81	228.87
911.12	228.85
911.42	228.81
911.73	228.72
912.03	228.76
912.33	228.73
912.64	228.60
912.94	228.64
913.24	228.59
913.55	228.61
913.85	228.42
914.15	228.49
914.46	228.46
914.76	228.44
915.06	228.53
915.37	228.42
915.67	228.38
915.97	228.45
916.27	228.44
916.58	228.53
916.88	228.48
917.18	228.48
917.49	228.62
917.79	228.70
918.09	228.60
918.39	228.63
918.70	228.61
919.00	228.64
919.30	228.64
919.60	228.54
919.91	228.55
920.21	228.65
920.51	228.56
920.81	228.53
921.12	228.55
921.42	228.50
921.72	228.45
922.02	228.50
922.32	228.49
922.63	228.45
922.93	228.49
923.23	228.53
923.53	228.49
923.83	228.35
924.13	228.35
924.44	228.39
924.74	228.36
925.04	228.34
925.34	228.39
925.64	228.27
925.94	228.30
926.24	228.34
926.55	228.22
926.85	228.26
927.15	228.25
927.45	228.20
927.75	228.22
928.05	228.19
928.35	228.10
928.65	228.08
928.95	228.08
929.26	228.03
929.56	227.97
929.86	228.00
930.16	227.89
930.46	227.81
930.76	227.78
931.06	227.71
931.36	227.68
931.66	227.75
931.96	227.80
932.26	227.83
932.56	227.73
932.86	227.78
933.16	227.73
933.46	227.66
933.76	227.63
934.06	227.62
934.36	227.71
934.66	227.66
934.96	227.66
935.26	227.73
935.56	227.64
935.86	227.66
936.16	227.63
936.46	227.64
936.76	227.58
937.06	227.54
937.36	227.60
937.66	227.62
937.96	227.52
938.26	227.56
938.56	227.61
938.86	227.70
939.16	227.69
939.46	227.87
939.76	227.97
940.06	228.06
940.35	228.14
940.65	228.17
940.95	228.25
941.25	228.29
941.55	228.26
941.85	228.36
942.15	228.30
942.45	228.34
942.75	228.43
943.04	228.58
943.34	228.65
943.64	228.69
943.94	228.72
944.24	228.83
944.54	228.82
944.84	228.74
945.13	228.71
945.43	228.72
945.73	228.62
946.03	228.64
946.33	228.54
946.62	228.39
946.92	228.30
947.22	228.28
947.52	228.24
947.82	228.28
948.11	228.25
948.41	228.30
948.71	228.30
949.01	228.34
949.31	228.32
949.60	228.27
949.90	228.20
950.20	228.15
950.50	228.09
950.79	228.03
951.09	228.09
951.39	228.18
951.69	228.10
951.98	228.22
952.28	228.21
952.58	228.29
952.87	228.43
953.17	228.48
953.47	228.43
953.76	228.44
954.06	228.43
954.36	228.35
954.66	228.34
954.95	228.42
955.25	228.39
955.55	228.38
955.84	228.37
956.14	228.48
956.44	228.53
956.73	228.56
957.03	228.53
957.32	228.52
957.62	228.40
957.92	228.52
958.21	228.35
958.51	228.57
958.81	228.57
959.10	228.53
959.40	228.55
959.69	228.67
959.99	228.70
960.29	228.61
960.58	228.63
960.88	228.66
961.17	228.51
961.47	228.46
961.76	228.43
962.06	228.52
962.36	228.39
962.65	228.24
962.95	228.15
963.24	228.11
963.54	227.96
963.83	227.94
964.13	227.90
964.42	227.93
964.72	227.69
965.01	227.62
965.31	227.60
965.60	227.41
965.90	227.42
966.19	227.20
966.49	227.20
966.78	227.19
967.08	227.19
967.37	227.15
967.67	227.16
967.96	227.16
968.26	227.12
968.55	227.11
968.85	227.15
969.14	227.09
969.43	227.07
969.73	227.15
970.02	227.14
970.32	227.13
970.61	227.13
970.91	227.10
971.20	227.11
971.49	227.13
971.79	227.30
972.08	227.13
972.38	227.23
972.67	227.23
972.96	227.32
973.26	227.23
973.55	227.36
973.85	227.39
974.14	227.38
974.43	227.39
974.73	227.51
975.02	227.52
975.31	227.67
975.61	227.83
975.90	227.77
976.19	227.75
976.49	227.78
976.78	227.72
977.07	227.73
977.37	227.71
977.66	227.67
977.95	227.62
978.24	227.82
978.54	227.90
978.83	227.91
979.12	227.79
979.42	227.76
979.71	227.77
980.00	227.86
980.29	227.91
980.59	227.88
980.88	227.84
981.17	227.93
981.46	227.92
981.76	227.91
982.05	228.09
982.34	228.25
982.63	228.33
982.93	228.42
983.22	228.54
983.51	228.66
983.80	228.66
984.09	228.79
984.39	228.68
984.68	228.60
984.97	228.63
985.26	228.65
985.55	228.83
985.85	228.71
986.14	228.73
986.43	228.69
986.72	228.75
987.01	228.81
987.30	228.75
987.59	228.80
987.89	228.74
988.18	228.76
988.47	228.65
988.76	228.69
989.05	228.60
989.34	228.57
989.63	228.51
989.92	228.58
990.22	228.45
990.51	228.41
990.80	228.50
991.09	228.50
991.38	228.47
991.67	228.42
991.96	228.46
992.25	228.31
992.54	228.31
992.83	228.26
993.12	228.18
993.41	228.24
993.70	228.18
993.99	228.28
994.28	228.20
994.58	228.22
994.87	228.07
995.16	228.09
995.45	227.98
995.74	227.90
996.03	227.83
996.32	227.95
996.61	227.97
996.90	228.02
997.19	228.08
997.48	228.22
997.77	228.08
998.06	228.05
998.34	228.05
998.63	228.03
998.92	228.06
999.21	228.04
999.50	227.93
999.79	227.89
1000.08	227.81
1000.37	227.89
1000.66	227.89
1000.95	227.91
1001.24	227.90
1001.53	227.95
1001.82	227.94
1002.11	227.94
1002.40	227.87
1002.68	227.91
1002.97	227.90
1003.26	227.80
1003.55	227.68
1003.84	227.75
1004.13	227.80
1004.42	227.83
1004.71	227.87
1004.99	227.88
1005.28	227.94
1005.57	227.93
1005.86	227.84
1006.15	227.78
1006.44	227.63
1006.72	227.62
1007.01	227.56
1007.30	227.64
1007.59	227.65
1007.88	227.70
1008.17	227.59
1008.45	227.66
1008.74	227.62
1009.03	227.51
1009.32	227.57
1009.60	227.62
1009.89	227.64
1010.18	227.67
1010.47	227.71
1010.76	227.68
1011.04	227.64
1011.33	227.63
1011.62	227.69
1011.91	227.76
1012.19	227.89
1012.48	227.91
1012.77	227.91
1013.05	228.04
1013.34	228.01
1013.63	227.97
1013.92	228.01
1014.20	228.21
1014.49	228.19
1014.78	228.27
1015.06	228.31
1015.35	228.26
1015.64	228.39
1015.92	228.43
1016.21	228.43
1016.50	228.41
1016.78	228.55
1017.07	228.65
1017.36	228.63
1017.64	228.83
1017.93	228.97
1018.22	229.02
1018.50	229.16
1018.79	229.19
1019.08	229.19
1019.36	229.20
1019.65	229.24
1019.93	229.21
1020.22	229.18
1020.51	229.26
1020.79	229.21
1021.08	230.10
1021.36	230.50
1021.65	228.40
1021.94	229.00
1022.22	228.90
1022.51	228.40
1022.79	227.80
1023.08	229.00
1023.36	231.10
1023.65	228.60
>>>>>End Processed Spectral Data<<<<<
