SpectraSuite Data File
++++++++++++++++++++++++++++++++++++
Date: Fri Feb 01 14:41:47 EST 2013
User: group
Dark Spectrum Present: No
Reference Spectrum Present: No
Number of Sampled Component Spectra: 1
Spectrometers: USB2E7196
Integration Time (usec): 70000 (USB2E7196)
Spectra Averaged: 10 (USB2E7196)
Boxcar Smoothing: 10 (USB2E7196)
Correct for Electrical Dark: No (USB2E7196)
Strobe/Lamp Enabled: No (USB2E7196)
Correct for Detector Non-linearity: No (USB2E7196)
Correct for Stray Light: No (USB2E7196)
Number of Pixels in Processed Spectrum: 2048
>>>>>Begin Processed Spectral Data<<<<<
339.09	0.00
339.48	217.10
339.86	216.60
340.24	218.10
340.63	219.10
341.01	225.50
341.39	221.80
341.78	225.00
342.16	225.50
342.54	224.60
342.93	214.57
343.31	225.36
343.69	225.85
344.07	226.40
344.46	226.76
344.84	227.19
345.22	227.30
345.60	227.66
345.99	227.82
346.37	227.98
346.75	228.12
347.13	228.14
347.52	228.14
347.90	228.19
348.28	228.22
348.66	228.23
349.05	228.10
349.43	228.15
349.81	228.09
350.19	228.10
350.57	228.23
350.96	228.18
351.34	228.30
351.72	228.35
352.10	228.44
352.48	228.64
352.87	228.69
353.25	228.80
353.63	228.80
354.01	228.88
354.39	228.91
354.77	229.06
355.15	229.16
355.54	229.23
355.92	229.38
356.30	229.41
356.68	229.68
357.06	229.72
357.44	229.74
357.82	229.80
358.20	229.86
358.58	229.91
358.97	230.03
359.35	230.17
359.73	230.30
360.11	230.38
360.49	230.44
360.87	230.45
361.25	230.51
361.63	230.63
362.01	230.67
362.39	230.87
362.77	230.88
363.15	231.03
363.53	231.14
363.91	231.11
364.29	231.12
364.67	230.88
365.05	231.06
365.43	231.13
365.81	231.24
366.19	231.38
366.57	231.45
366.95	231.40
367.33	231.27
367.71	231.33
368.09	231.26
368.47	231.21
368.85	231.26
369.23	231.23
369.61	231.19
369.99	231.25
370.37	231.15
370.75	231.23
371.13	231.12
371.51	231.06
371.89	231.16
372.27	231.09
372.65	231.17
373.03	230.99
373.41	230.90
373.78	230.85
374.16	230.72
374.54	230.57
374.92	230.54
375.30	230.52
375.68	230.40
376.06	230.34
376.44	230.12
376.82	230.10
377.19	230.01
377.57	229.86
377.95	229.72
378.33	229.70
378.71	229.56
379.09	229.43
379.47	229.35
379.84	229.26
380.22	229.25
380.60	229.09
380.98	229.01
381.36	228.92
381.73	228.84
382.11	228.79
382.49	228.67
382.87	228.65
383.25	228.60
383.62	228.70
384.00	228.65
384.38	228.63
384.76	228.55
385.13	228.66
385.51	228.66
385.89	228.56
386.27	228.45
386.64	228.32
387.02	228.36
387.40	228.32
387.78	228.20
388.15	228.24
388.53	228.14
388.91	228.09
389.29	228.11
389.66	228.05
390.04	227.94
390.42	228.04
390.79	228.02
391.17	228.10
391.55	227.87
391.92	227.80
392.30	227.89
392.68	227.87
393.05	227.87
393.43	227.87
393.81	227.89
394.18	227.80
394.56	227.88
394.94	227.91
395.31	227.92
395.69	228.00
396.06	228.00
396.44	228.09
396.82	228.19
397.19	228.36
397.57	228.45
397.95	228.63
398.32	228.61
398.70	228.68
399.07	228.73
399.45	228.78
399.82	228.86
400.20	229.03
400.58	229.10
400.95	229.10
401.33	229.32
401.70	229.54
402.08	229.74
402.45	229.81
402.83	230.02
403.20	230.13
403.58	230.24
403.95	230.51
404.33	230.74
404.71	230.93
405.08	231.23
405.46	231.45
405.83	231.65
406.21	231.92
406.58	232.24
406.96	232.46
407.33	232.67
407.70	233.00
408.08	233.33
408.45	233.71
408.83	234.06
409.20	234.33
409.58	234.66
409.95	235.09
410.33	235.56
410.70	236.00
411.08	236.56
411.45	237.02
411.82	237.31
412.20	237.81
412.57	238.42
412.95	238.70
413.32	239.17
413.69	239.74
414.07	240.32
414.44	240.92
414.82	241.61
415.19	242.50
415.56	243.31
415.94	244.10
416.31	244.95
416.68	245.79
417.06	246.72
417.43	247.69
417.81	248.70
418.18	249.69
418.55	250.72
418.93	251.87
419.30	253.12
419.67	254.53
420.04	255.85
420.42	257.20
420.79	258.76
421.16	260.39
421.54	262.10
421.91	263.80
422.28	265.53
422.66	267.25
423.03	269.13
423.40	270.98
423.77	272.90
424.15	274.96
424.52	276.92
424.89	279.27
425.26	281.48
425.64	283.42
426.01	285.71
426.38	288.03
426.75	290.49
427.13	292.90
427.50	295.46
427.87	298.18
428.24	300.88
428.61	303.54
428.99	306.30
429.36	309.14
429.73	312.13
430.10	314.95
430.47	317.97
430.85	320.86
431.22	323.96
431.59	327.32
431.96	330.40
432.33	333.90
432.70	337.14
433.08	341.08
433.45	344.91
433.82	348.50
434.19	352.59
434.56	356.49
434.93	360.20
435.30	363.82
435.68	367.77
436.05	371.65
436.42	375.32
436.79	378.76
437.16	382.64
437.53	386.46
437.90	390.31
438.27	394.11
438.64	398.03
439.01	401.60
439.38	404.76
439.75	407.89
440.13	411.50
440.50	414.71
440.87	417.08
441.24	419.60
441.61	422.74
441.98	424.68
442.35	427.04
442.72	429.50
443.09	432.08
443.46	433.47
443.83	434.16
444.20	434.82
444.57	436.10
444.94	436.33
445.31	436.84
445.68	437.32
446.05	437.40
446.42	436.89
446.79	436.30
447.16	435.57
447.53	434.97
447.90	433.18
448.27	431.42
448.64	429.26
449.01	427.72
449.37	424.84
449.74	422.13
450.11	419.05
450.48	415.62
450.85	412.00
451.22	408.92
451.59	406.11
451.96	403.37
452.33	399.57
452.70	396.36
453.07	392.35
453.43	388.30
453.80	384.33
454.17	380.55
454.54	377.05
454.91	373.15
455.28	369.35
455.65	365.90
456.02	362.73
456.38	359.76
456.75	356.00
457.12	352.99
457.49	349.96
457.86	346.76
458.23	344.20
458.59	341.24
458.96	338.20
459.33	335.55
459.70	333.02
460.07	330.95
460.43	328.47
460.80	326.12
461.17	324.10
461.54	322.01
461.91	320.08
462.27	318.04
462.64	316.34
463.01	314.52
463.38	312.79
463.74	310.56
464.11	308.82
464.48	307.39
464.85	305.71
465.21	304.40
465.58	303.26
465.95	301.64
466.32	300.36
466.68	299.18
467.05	297.93
467.42	296.63
467.78	295.22
468.15	293.88
468.52	293.00
468.88	291.77
469.25	290.67
469.62	289.77
469.98	288.70
470.35	287.74
470.72	286.69
471.08	285.65
471.45	285.03
471.82	284.17
472.18	283.27
472.55	282.55
472.92	281.85
473.28	280.96
473.65	280.28
474.02	279.64
474.38	278.99
474.75	278.50
475.11	277.92
475.48	277.63
475.85	277.19
476.21	276.74
476.58	276.43
476.94	276.21
477.31	275.74
477.67	275.50
478.04	275.23
478.41	275.19
478.77	275.22
479.14	274.96
479.50	274.83
479.87	274.80
480.23	274.71
480.60	274.55
480.96	274.57
481.33	274.65
481.69	274.73
482.06	274.96
482.42	275.03
482.79	275.27
483.15	275.43
483.52	275.77
483.88	275.96
484.25	276.20
484.61	276.43
484.98	276.73
485.34	277.19
485.71	277.79
486.07	278.40
486.44	278.81
486.80	279.44
487.17	280.23
487.53	280.95
487.90	281.91
488.26	283.06
488.62	284.21
488.99	285.29
489.35	286.31
489.72	287.36
490.08	288.70
490.44	290.01
490.81	291.53
491.17	293.09
491.54	294.87
491.90	296.59
492.26	298.45
492.63	300.51
492.99	302.60
493.36	304.74
493.72	306.98
494.08	309.33
494.45	311.95
494.81	314.73
495.17	317.61
495.54	320.44
495.90	323.52
496.26	326.65
496.63	330.25
496.99	333.94
497.35	337.63
497.72	341.64
498.08	345.93
498.44	350.29
498.80	354.82
499.17	359.52
499.53	364.51
499.89	369.89
500.26	375.33
500.62	380.88
500.98	386.72
501.34	392.84
501.71	399.41
502.07	406.09
502.43	412.72
502.79	419.94
503.16	427.46
503.52	435.21
503.88	443.07
504.24	451.09
504.60	459.64
504.97	468.60
505.33	477.78
505.69	487.30
506.05	496.98
506.41	506.99
506.78	517.24
507.14	527.78
507.50	538.34
507.86	549.71
508.22	561.52
508.59	573.21
508.95	585.40
509.31	597.73
509.67	610.77
510.03	624.03
510.39	637.31
510.75	651.28
511.12	665.19
511.48	679.91
511.84	694.51
512.20	709.55
512.56	725.05
512.92	740.75
513.28	756.61
513.64	772.90
514.00	789.51
514.37	806.59
514.73	823.94
515.09	841.59
515.45	859.20
515.81	877.03
516.17	895.71
516.53	914.34
516.89	933.28
517.25	952.02
517.61	971.32
517.97	991.11
518.33	1010.29
518.69	1030.22
519.05	1050.39
519.41	1071.03
519.77	1091.98
520.13	1112.98
520.49	1133.80
520.85	1154.80
521.21	1176.03
521.57	1198.12
521.93	1219.29
522.29	1241.21
522.65	1262.83
523.01	1284.44
523.37	1306.06
523.73	1328.21
524.09	1350.11
524.45	1372.23
524.81	1394.80
525.17	1417.50
525.53	1440.27
525.89	1463.11
526.25	1486.11
526.61	1508.52
526.97	1531.79
527.33	1554.63
527.68	1577.55
528.04	1600.71
528.40	1624.18
528.76	1647.85
529.12	1670.87
529.48	1694.40
529.84	1717.13
530.20	1740.72
530.56	1764.82
530.91	1789.18
531.27	1812.85
531.63	1836.45
531.99	1860.02
532.35	1882.50
532.71	1904.63
533.07	1927.73
533.42	1950.63
533.78	1973.41
534.14	1996.19
534.50	2017.31
534.86	2039.42
535.21	2060.89
535.57	2083.19
535.93	2104.82
536.29	2126.15
536.65	2147.44
537.00	2168.55
537.36	2190.01
537.72	2210.70
538.08	2230.48
538.44	2249.93
538.79	2269.42
539.15	2288.83
539.51	2308.43
539.87	2329.18
540.22	2348.94
540.58	2368.83
540.94	2388.27
541.29	2406.74
541.65	2425.17
542.01	2444.92
542.37	2463.06
542.72	2481.19
543.08	2498.18
543.44	2515.95
543.79	2532.20
544.15	2548.81
544.51	2566.31
544.87	2582.53
545.22	2598.52
545.58	2614.74
545.94	2629.63
546.29	2644.77
546.65	2659.85
547.01	2674.07
547.36	2688.07
547.72	2702.21
548.07	2714.47
548.43	2727.25
548.79	2739.92
549.14	2752.38
549.50	2763.78
549.86	2775.43
550.21	2787.22
550.57	2799.64
550.92	2810.66
551.28	2821.49
551.64	2831.93
551.99	2841.49
552.35	2851.49
552.70	2861.43
553.06	2871.42
553.41	2881.97
553.77	2891.62
554.13	2901.34
554.48	2910.73
554.84	2918.98
555.19	2927.50
555.55	2936.14
555.90	2943.81
556.26	2952.15
556.61	2959.93
556.97	2967.46
557.32	2974.81
557.68	2981.80
558.03	2987.82
558.39	2994.37
558.74	3002.07
559.10	3008.91
559.45	3015.95
559.81	3023.70
560.16	3029.46
560.52	3034.99
560.87	3040.83
561.23	3045.57
561.58	3050.77
561.94	3055.49
562.29	3059.24
562.64	3063.02
563.00	3067.10
563.35	3072.89
563.71	3077.37
564.06	3082.27
564.42	3086.63
564.77	3090.58
565.12	3094.84
565.48	3098.75
565.83	3101.70
566.19	3104.64
566.54	3106.81
566.89	3108.61
567.25	3110.16
567.60	3113.41
567.96	3115.09
568.31	3116.29
568.66	3117.76
569.02	3118.60
569.37	3119.40
569.72	3120.97
570.08	3121.50
570.43	3121.86
570.78	3120.79
571.14	3119.28
571.49	3117.98
571.84	3118.00
572.20	3116.56
572.55	3114.47
572.90	3112.09
573.26	3110.42
573.61	3108.13
573.96	3105.40
574.31	3101.62
574.67	3096.33
575.02	3091.27
575.37	3088.09
575.72	3083.17
576.08	3079.22
576.43	3074.15
576.78	3069.95
577.13	3065.95
577.49	3062.25
577.84	3056.88
578.19	3051.92
578.54	3046.96
578.90	3040.83
579.25	3033.62
579.60	3027.54
579.95	3021.39
580.30	3015.10
580.66	3007.61
581.01	3000.45
581.36	2993.78
581.71	2988.34
582.06	2983.29
582.42	2976.62
582.77	2968.76
583.12	2961.80
583.47	2955.52
583.82	2949.55
584.17	2941.91
584.53	2934.91
584.88	2927.08
585.23	2919.86
585.58	2912.50
585.93	2905.47
586.28	2899.02
586.63	2892.66
586.98	2885.59
587.34	2878.32
587.69	2870.99
588.04	2864.23
588.39	2857.18
588.74	2848.82
589.09	2839.74
589.44	2830.29
589.79	2822.74
590.14	2816.19
590.49	2808.62
590.84	2799.69
591.19	2791.06
591.54	2781.37
591.89	2770.50
592.25	2761.71
592.60	2751.97
592.95	2741.91
593.30	2731.70
593.65	2721.47
594.00	2710.80
594.35	2701.17
594.70	2690.46
595.05	2680.96
595.40	2670.85
595.75	2660.19
596.10	2651.14
596.45	2642.54
596.80	2634.22
597.15	2625.02
597.50	2614.58
597.85	2605.05
598.19	2595.79
598.54	2586.11
598.89	2577.90
599.24	2570.53
599.59	2561.69
599.94	2553.19
600.29	2544.00
600.64	2535.00
600.99	2524.97
601.34	2516.07
601.69	2506.19
602.04	2497.26
602.39	2487.66
602.74	2478.90
603.08	2470.23
603.43	2461.33
603.78	2451.64
604.13	2441.63
604.48	2431.26
604.83	2421.32
605.18	2411.89
605.53	2400.64
605.87	2389.90
606.22	2379.75
606.57	2368.53
606.92	2357.56
607.27	2347.58
607.62	2337.63
607.96	2327.66
608.31	2318.57
608.66	2307.24
609.01	2296.63
609.36	2285.55
609.70	2273.39
610.05	2261.35
610.40	2249.63
610.75	2238.10
611.10	2226.78
611.44	2214.48
611.79	2203.70
612.14	2192.42
612.49	2179.86
612.83	2169.00
613.18	2157.85
613.53	2146.50
613.88	2134.34
614.22	2123.00
614.57	2110.85
614.92	2099.46
615.27	2088.18
615.61	2075.84
615.96	2065.09
616.31	2054.66
616.65	2044.83
617.00	2034.75
617.35	2024.39
617.70	2013.61
618.04	2002.26
618.39	1991.08
618.74	1981.33
619.08	1969.91
619.43	1959.00
619.78	1948.90
620.12	1938.28
620.47	1928.07
620.82	1916.94
621.16	1907.08
621.51	1896.55
621.85	1886.06
622.20	1875.24
622.55	1865.16
622.89	1855.34
623.24	1845.41
623.59	1835.06
623.93	1824.37
624.28	1814.19
624.62	1803.68
624.97	1793.88
625.32	1784.60
625.66	1774.90
626.01	1764.90
626.35	1755.04
626.70	1744.91
627.04	1735.36
627.39	1725.28
627.73	1714.40
628.08	1704.91
628.43	1695.02
628.77	1685.40
629.12	1675.10
629.46	1664.85
629.81	1653.46
630.15	1642.65
630.50	1631.78
630.84	1620.29
631.19	1609.10
631.53	1598.77
631.88	1588.49
632.22	1577.21
632.57	1566.45
632.91	1555.80
633.26	1545.17
633.60	1534.69
633.95	1524.36
634.29	1514.00
634.64	1504.19
634.98	1494.47
635.32	1484.84
635.67	1475.53
636.01	1465.68
636.36	1456.44
636.70	1447.09
637.05	1438.22
637.39	1429.43
637.73	1420.44
638.08	1412.59
638.42	1404.45
638.77	1395.64
639.11	1386.41
639.45	1377.81
639.80	1368.83
640.14	1359.74
640.49	1350.77
640.83	1341.63
641.17	1333.06
641.52	1324.08
641.86	1314.84
642.20	1306.32
642.55	1297.00
642.89	1288.01
643.23	1279.03
643.58	1270.69
643.92	1261.79
644.26	1252.93
644.61	1244.50
644.95	1236.01
645.29	1226.24
645.64	1216.72
645.98	1207.99
646.32	1199.75
646.66	1191.35
647.01	1182.63
647.35	1174.67
647.69	1166.21
648.04	1158.26
648.38	1149.50
648.72	1140.83
649.06	1132.38
649.41	1123.99
649.75	1115.04
650.09	1106.23
650.43	1097.54
650.78	1088.47
651.12	1080.11
651.46	1072.03
651.80	1063.57
652.14	1055.37
652.49	1047.63
652.83	1039.84
653.17	1031.67
653.51	1023.29
653.85	1015.14
654.20	1006.98
654.54	998.50
654.88	990.37
655.22	981.86
655.56	973.82
655.90	966.11
656.25	958.56
656.59	950.71
656.93	943.50
657.27	936.23
657.61	928.52
657.95	921.66
658.29	914.55
658.64	907.15
658.98	899.72
659.32	892.12
659.66	884.98
660.00	877.97
660.34	870.72
660.68	863.75
661.02	856.88
661.36	850.38
661.70	843.81
662.05	837.67
662.39	831.58
662.73	825.32
663.07	819.21
663.41	812.98
663.75	806.81
664.09	800.78
664.43	794.49
664.77	788.82
665.11	782.84
665.45	777.00
665.79	770.97
666.13	765.47
666.47	759.68
666.81	753.58
667.15	747.51
667.49	742.05
667.83	736.70
668.17	731.08
668.51	725.53
668.85	720.08
669.19	714.98
669.53	709.57
669.87	703.89
670.21	698.65
670.55	693.44
670.89	688.63
671.23	683.98
671.57	679.13
671.91	674.44
672.25	669.44
672.58	664.65
672.92	660.19
673.26	655.47
673.60	651.17
673.94	646.96
674.28	643.01
674.62	638.79
674.96	634.28
675.30	630.32
675.64	626.03
675.97	621.98
676.31	617.45
676.65	613.35
676.99	609.80
677.33	605.67
677.67	601.62
678.01	597.30
678.34	592.99
678.68	589.13
679.02	584.83
679.36	580.94
679.70	577.13
680.04	573.16
680.37	569.20
680.71	565.19
681.05	561.53
681.39	557.79
681.73	553.98
682.06	550.69
682.40	546.94
682.74	543.41
683.08	539.75
683.42	536.17
683.75	532.98
684.09	529.27
684.43	525.84
684.77	522.65
685.10	519.26
685.44	516.01
685.78	512.52
686.12	509.45
686.45	506.03
686.79	502.71
687.13	499.69
687.46	496.33
687.80	493.31
688.14	490.20
688.48	487.11
688.81	484.00
689.15	480.85
689.49	477.80
689.82	474.93
690.16	472.13
690.50	469.22
690.83	466.28
691.17	463.62
691.51	460.76
691.84	458.06
692.18	455.35
692.52	452.46
692.85	449.75
693.19	447.03
693.52	444.59
693.86	441.92
694.20	439.31
694.53	436.96
694.87	434.38
695.21	431.86
695.54	429.20
695.88	426.71
696.21	424.06
696.55	421.57
696.88	419.20
697.22	416.67
697.56	414.50
697.89	412.08
698.23	409.59
698.56	407.37
698.90	404.92
699.23	402.73
699.57	400.50
699.90	398.45
700.24	396.22
700.58	393.94
700.91	391.79
701.25	389.64
701.58	387.70
701.92	385.60
702.25	383.70
702.59	381.84
702.92	379.94
703.26	378.27
703.59	376.57
703.93	374.84
704.26	373.07
704.60	371.15
704.93	369.30
705.26	367.71
705.60	366.05
705.93	364.48
706.27	362.90
706.60	361.37
706.94	359.77
707.27	358.13
707.61	356.56
707.94	355.20
708.27	353.77
708.61	352.10
708.94	350.74
709.28	349.26
709.61	347.93
709.94	346.49
710.28	344.99
710.61	343.72
710.95	342.24
711.28	341.06
711.61	339.72
711.95	338.45
712.28	336.96
712.61	335.49
712.95	334.14
713.28	332.91
713.61	331.57
713.95	330.16
714.28	329.08
714.61	327.92
714.95	326.73
715.28	325.43
715.61	324.22
715.95	323.02
716.28	321.89
716.61	320.73
716.95	319.71
717.28	318.74
717.61	317.54
717.94	316.37
718.28	315.01
718.61	313.98
718.94	313.01
719.27	312.21
719.61	311.38
719.94	310.51
720.27	309.32
720.60	308.49
720.94	307.67
721.27	306.82
721.60	306.03
721.93	305.15
722.27	304.35
722.60	303.60
722.93	302.71
723.26	301.76
723.59	300.89
723.93	299.92
724.26	299.00
724.59	298.24
724.92	297.54
725.25	297.11
725.59	296.34
725.92	295.58
726.25	294.81
726.58	294.14
726.91	293.30
727.24	292.79
727.57	292.08
727.91	291.34
728.24	290.55
728.57	289.83
728.90	289.17
729.23	288.37
729.56	287.80
729.89	287.23
730.22	286.66
730.55	286.06
730.89	285.49
731.22	284.86
731.55	284.21
731.88	283.61
732.21	282.84
732.54	282.20
732.87	281.52
733.20	280.88
733.53	280.28
733.86	279.76
734.19	279.06
734.52	278.43
734.85	277.94
735.18	277.38
735.51	276.74
735.84	276.12
736.17	275.63
736.50	274.97
736.83	274.48
737.16	273.87
737.49	273.31
737.82	272.85
738.15	272.35
738.48	271.80
738.81	271.30
739.14	270.78
739.47	270.17
739.80	269.66
740.13	269.10
740.46	268.53
740.79	268.01
741.12	267.49
741.45	267.07
741.78	266.48
742.11	266.01
742.44	265.37
742.77	264.90
743.10	264.45
743.43	263.93
743.75	263.40
744.08	263.38
744.41	262.93
744.74	262.43
745.07	261.91
745.40	261.53
745.73	261.15
746.06	260.68
746.39	260.40
746.71	260.05
747.04	259.66
747.37	259.30
747.70	258.91
748.03	258.52
748.36	258.08
748.68	257.75
749.01	257.38
749.34	257.19
749.67	256.83
750.00	256.50
750.33	256.32
750.65	256.01
750.98	255.26
751.31	254.93
751.64	254.66
751.97	254.44
752.29	254.18
752.62	253.69
752.95	253.51
753.28	253.10
753.60	252.80
753.93	252.61
754.26	252.18
754.59	251.81
754.91	251.60
755.24	251.34
755.57	251.10
755.90	250.88
756.22	250.60
756.55	250.39
756.88	250.09
757.20	249.70
757.53	249.37
757.86	249.08
758.19	248.86
758.51	248.66
758.84	248.38
759.17	248.11
759.49	248.00
759.82	247.73
760.15	247.67
760.47	247.40
760.80	247.13
761.13	247.08
761.45	246.93
761.78	246.67
762.11	246.46
762.43	246.22
762.76	246.06
763.08	245.88
763.41	245.75
763.74	245.56
764.06	245.44
764.39	245.31
764.71	245.34
765.04	245.12
765.37	244.98
765.69	244.89
766.02	244.67
766.34	244.40
766.67	244.25
767.00	244.11
767.32	244.18
767.65	244.18
767.97	244.04
768.30	243.90
768.62	243.78
768.95	243.69
769.27	243.53
769.60	243.37
769.92	243.23
770.25	242.99
770.57	242.89
770.90	242.68
771.22	242.53
771.55	242.25
771.87	242.13
772.20	241.96
772.52	241.99
772.85	242.04
773.17	242.04
773.50	241.84
773.82	241.58
774.15	241.27
774.47	240.99
774.80	240.83
775.12	240.60
775.45	240.47
775.77	240.40
776.09	240.32
776.42	240.15
776.74	239.99
777.07	239.83
777.39	239.64
777.72	239.45
778.04	239.41
778.36	239.21
778.69	239.06
779.01	238.95
779.33	238.51
779.66	238.27
779.98	238.09
780.31	238.00
780.63	238.13
780.95	238.03
781.28	237.85
781.60	237.75
781.92	237.78
782.25	237.69
782.57	237.43
782.89	237.32
783.22	237.19
783.54	237.02
783.86	236.96
784.19	236.76
784.51	236.83
784.83	236.61
785.16	236.62
785.48	236.52
785.80	236.48
786.12	236.52
786.45	236.34
786.77	236.23
787.09	236.15
787.42	235.83
787.74	235.75
788.06	235.59
788.38	235.33
788.71	235.16
789.03	235.07
789.35	235.07
789.67	234.96
789.99	234.93
790.32	234.92
790.64	234.91
790.96	235.09
791.28	234.84
791.61	234.72
791.93	234.64
792.25	234.51
792.57	234.45
792.89	234.30
793.21	234.27
793.54	234.15
793.86	234.03
794.18	234.11
794.50	234.05
794.82	234.12
795.14	234.22
795.47	234.24
795.79	234.20
796.11	234.05
796.43	234.02
796.75	233.89
797.07	233.90
797.39	233.77
797.71	233.66
798.04	233.72
798.36	233.80
798.68	233.74
799.00	233.85
799.32	233.87
799.64	233.95
799.96	233.94
800.28	234.02
800.60	233.99
800.92	233.87
801.24	233.80
801.56	233.80
801.89	233.84
802.21	233.74
802.53	233.60
802.85	233.62
803.17	233.57
803.49	233.57
803.81	233.44
804.13	233.50
804.45	233.39
804.77	233.37
805.09	233.28
805.41	233.27
805.73	233.18
806.05	232.97
806.37	232.83
806.69	232.82
807.01	232.83
807.33	232.86
807.65	232.79
807.97	232.82
808.28	232.81
808.60	232.68
808.92	232.62
809.24	232.71
809.56	232.60
809.88	232.57
810.20	232.62
810.52	232.59
810.84	232.51
811.16	232.50
811.48	232.41
811.80	232.47
812.12	232.40
812.43	232.39
812.75	232.39
813.07	232.37
813.39	232.24
813.71	232.09
814.03	231.92
814.35	231.86
814.67	231.70
814.98	231.57
815.30	231.46
815.62	231.37
815.94	231.24
816.26	231.26
816.58	231.19
816.89	230.98
817.21	230.89
817.53	230.71
817.85	230.67
818.17	230.54
818.48	230.43
818.80	230.50
819.12	230.32
819.44	230.22
819.76	230.21
820.07	230.18
820.39	230.16
820.71	230.24
821.03	230.25
821.34	230.20
821.66	230.20
821.98	230.19
822.30	230.14
822.61	230.21
822.93	230.18
823.25	230.16
823.57	230.18
823.88	230.20
824.20	230.28
824.52	230.14
824.83	230.16
825.15	230.06
825.47	229.87
825.79	229.89
826.10	229.87
826.42	229.74
826.74	229.75
827.05	229.55
827.37	229.47
827.69	229.44
828.00	229.56
828.32	229.55
828.64	229.52
828.95	229.60
829.27	229.57
829.58	229.56
829.90	229.54
830.22	229.55
830.53	229.50
830.85	229.46
831.17	229.46
831.48	229.48
831.80	229.50
832.11	229.58
832.43	229.57
832.75	229.48
833.06	229.66
833.38	229.62
833.69	229.73
834.01	229.71
834.32	229.64
834.64	229.70
834.96	229.70
835.27	229.66
835.59	229.64
835.90	229.53
836.22	229.53
836.53	229.48
836.85	229.44
837.16	229.68
837.48	229.68
837.79	229.83
838.11	229.80
838.42	229.78
838.74	229.73
839.05	229.78
839.37	229.85
839.68	229.69
840.00	229.67
840.31	229.65
840.63	229.67
840.94	229.69
841.26	229.60
841.57	229.53
841.88	229.58
842.20	229.60
842.51	229.68
842.83	229.62
843.14	229.88
843.46	229.98
843.77	229.89
844.08	229.84
844.40	229.78
844.71	229.79
845.03	229.76
845.34	229.82
845.65	229.65
845.97	229.63
846.28	229.68
846.60	229.74
846.91	229.83
847.22	229.93
847.54	229.93
847.85	229.91
848.16	230.02
848.48	230.04
848.79	230.12
849.10	230.06
849.42	230.06
849.73	229.84
850.04	229.69
850.36	229.67
850.67	229.70
850.98	229.69
851.30	229.71
851.61	229.73
851.92	229.72
852.23	229.90
852.55	229.90
852.86	229.95
853.17	229.90
853.49	229.88
853.80	229.80
854.11	229.73
854.42	229.76
854.74	229.64
855.05	229.63
855.36	229.51
855.67	229.53
855.99	229.58
856.30	229.74
856.61	229.72
856.92	229.55
857.23	229.50
857.55	229.39
857.86	229.35
858.17	229.34
858.48	229.30
858.79	229.23
859.11	229.31
859.42	229.22
859.73	229.20
860.04	229.26
860.35	229.24
860.66	229.29
860.98	229.22
861.29	229.28
861.60	229.21
861.91	229.20
862.22	229.15
862.53	229.12
862.84	228.97
863.16	229.07
863.47	229.08
863.78	229.08
864.09	229.18
864.40	229.16
864.71	229.20
865.02	229.18
865.33	229.20
865.64	229.17
865.95	229.19
866.27	229.27
866.58	229.15
866.89	229.09
867.20	229.01
867.51	228.99
867.82	228.96
868.13	229.10
868.44	229.15
868.75	229.24
869.06	229.25
869.37	229.23
869.68	229.19
869.99	229.21
870.30	229.18
870.61	229.08
870.92	229.02
871.23	228.94
871.54	228.98
871.85	229.00
872.16	228.82
872.47	228.74
872.78	228.64
873.09	228.63
873.40	228.67
873.71	228.72
874.02	228.78
874.33	228.73
874.64	228.62
874.95	228.58
875.26	228.53
875.56	228.53
875.87	228.56
876.18	228.54
876.49	228.70
876.80	228.70
877.11	228.73
877.42	228.80
877.73	228.81
878.04	228.83
878.35	228.78
878.66	228.93
878.96	229.05
879.27	229.12
879.58	229.23
879.89	229.27
880.20	229.28
880.51	229.29
880.82	229.39
881.12	229.43
881.43	229.48
881.74	229.50
882.05	229.46
882.36	229.48
882.67	229.53
882.97	229.40
883.28	229.48
883.59	229.51
883.90	229.48
884.21	229.54
884.51	229.55
884.82	229.64
885.13	229.69
885.44	229.62
885.74	229.64
886.05	229.60
886.36	229.55
886.67	229.69
886.98	229.74
887.28	229.68
887.59	229.73
887.90	229.75
888.20	229.76
888.51	229.91
888.82	229.86
889.13	229.93
889.43	230.20
889.74	230.22
890.05	230.33
890.35	230.41
890.66	230.40
890.97	230.32
891.28	230.30
891.58	230.24
891.89	230.27
892.20	230.20
892.50	230.14
892.81	230.15
893.12	230.02
893.42	229.93
893.73	229.95
894.04	229.92
894.34	229.93
894.65	229.81
894.95	229.72
895.26	229.71
895.57	229.73
895.87	229.52
896.18	229.49
896.48	229.42
896.79	229.41
897.10	229.40
897.40	229.44
897.71	229.42
898.01	229.46
898.32	229.42
898.63	229.44
898.93	229.40
899.24	229.45
899.54	229.40
899.85	229.37
900.15	229.40
900.46	229.32
900.76	229.24
901.07	229.25
901.38	229.15
901.68	229.21
901.99	229.09
902.29	228.93
902.60	228.92
902.90	228.85
903.21	228.74
903.51	228.68
903.82	228.54
904.12	228.51
904.43	228.45
904.73	228.43
905.03	228.40
905.34	228.49
905.64	228.45
905.95	228.33
906.25	228.25
906.56	228.06
906.86	228.00
907.17	227.97
907.47	228.04
907.77	228.06
908.08	227.94
908.38	227.83
908.69	227.85
908.99	227.87
909.30	227.77
909.60	227.71
909.90	227.80
910.21	227.84
910.51	227.76
910.81	227.77
911.12	227.81
911.42	227.78
911.73	227.69
912.03	227.63
912.33	227.65
912.64	227.63
912.94	227.76
913.24	227.73
913.55	227.73
913.85	227.62
914.15	227.63
914.46	227.53
914.76	227.58
915.06	227.64
915.37	227.61
915.67	227.74
915.97	227.82
916.27	227.72
916.58	227.63
916.88	227.68
917.18	227.64
917.49	227.79
917.79	227.75
918.09	227.78
918.39	227.88
918.70	228.10
919.00	228.18
919.30	228.27
919.60	228.25
919.91	228.30
920.21	228.36
920.51	228.36
920.81	228.51
921.12	228.61
921.42	228.72
921.72	228.80
922.02	228.72
922.32	228.75
922.63	228.77
922.93	228.96
923.23	229.02
923.53	229.13
923.83	229.00
924.13	229.13
924.44	229.19
924.74	229.21
925.04	229.23
925.34	229.29
925.64	229.26
925.94	229.37
926.24	229.56
926.55	229.61
926.85	229.67
927.15	229.71
927.45	229.76
927.75	229.66
928.05	229.65
928.35	229.80
928.65	229.80
928.95	229.95
929.26	229.89
929.56	229.93
929.86	229.87
930.16	229.82
930.46	229.85
930.76	229.86
931.06	229.83
931.36	229.80
931.66	229.79
931.96	229.83
932.26	229.82
932.56	229.68
932.86	229.75
933.16	229.83
933.46	229.79
933.76	229.77
934.06	229.82
934.36	229.85
934.66	229.81
934.96	229.83
935.26	229.73
935.56	229.74
935.86	229.66
936.16	229.60
936.46	229.68
936.76	229.60
937.06	229.53
937.36	229.52
937.66	229.40
937.96	229.34
938.26	229.22
938.56	229.15
938.86	229.09
939.16	229.06
939.46	228.95
939.76	228.80
940.06	228.71
940.35	228.70
940.65	228.55
940.95	228.53
941.25	228.38
941.55	228.32
941.85	228.31
942.15	228.26
942.45	228.31
942.75	228.24
943.04	228.21
943.34	228.17
943.64	228.16
943.94	228.12
944.24	228.06
944.54	228.02
944.84	228.00
945.13	227.90
945.43	227.84
945.73	227.79
946.03	227.86
946.33	227.78
946.62	227.71
946.92	227.73
947.22	227.75
947.52	227.90
947.82	227.90
948.11	227.90
948.41	227.93
948.71	227.85
949.01	227.75
949.31	227.66
949.60	227.67
949.90	227.56
950.20	227.52
950.50	227.64
950.79	227.68
951.09	227.59
951.39	227.68
951.69	227.55
951.98	227.62
952.28	227.66
952.58	227.83
952.87	227.79
953.17	227.74
953.47	227.62
953.76	227.43
954.06	227.46
954.36	227.46
954.66	227.46
954.95	227.47
955.25	227.61
955.55	227.79
955.84	227.75
956.14	227.83
956.44	227.91
956.73	227.79
957.03	227.79
957.32	227.97
957.62	227.95
957.92	228.03
958.21	227.96
958.51	228.15
958.81	228.04
959.10	228.10
959.40	228.18
959.69	228.16
959.99	228.30
960.29	228.27
960.58	228.25
960.88	228.36
961.17	228.37
961.47	228.26
961.76	228.26
962.06	228.34
962.36	228.32
962.65	228.24
962.95	228.38
963.24	228.32
963.54	228.20
963.83	228.21
964.13	228.22
964.42	228.29
964.72	228.19
965.01	228.21
965.31	228.16
965.60	228.17
965.90	228.29
966.19	228.28
966.49	228.34
966.78	228.32
967.08	228.27
967.37	228.32
967.67	228.40
967.96	228.40
968.26	228.37
968.55	228.54
968.85	228.60
969.14	228.57
969.43	228.61
969.73	228.60
970.02	228.55
970.32	228.61
970.61	228.57
970.91	228.49
971.20	228.55
971.49	228.56
971.79	228.62
972.08	228.46
972.38	228.52
972.67	228.40
972.96	228.47
973.26	228.43
973.55	228.51
973.85	228.42
974.14	228.33
974.43	228.35
974.73	228.17
975.02	228.18
975.31	228.16
975.61	228.11
975.90	228.17
976.19	228.20
976.49	228.17
976.78	228.19
977.07	228.09
977.37	228.00
977.66	228.01
977.95	227.95
978.24	227.95
978.54	227.87
978.83	227.86
979.12	227.79
979.42	227.74
979.71	227.59
980.00	227.62
980.29	227.61
980.59	227.53
980.88	227.59
981.17	227.50
981.46	227.50
981.76	227.49
982.05	227.56
982.34	227.60
982.63	227.60
982.93	227.53
983.22	227.65
983.51	227.60
983.80	227.65
984.09	227.55
984.39	227.60
984.68	227.62
984.97	227.65
985.26	227.61
985.55	227.73
985.85	227.84
986.14	227.89
986.43	228.00
986.72	228.09
987.01	228.12
987.30	228.20
987.59	228.17
987.89	228.26
988.18	228.18
988.47	228.10
988.76	228.10
989.05	228.16
989.34	228.17
989.63	228.20
989.92	228.10
990.22	228.21
990.51	228.23
990.80	228.18
991.09	228.25
991.38	228.30
991.67	228.24
991.96	228.20
992.25	228.20
992.54	228.09
992.83	227.96
993.12	228.02
993.41	228.04
993.70	228.11
993.99	228.06
994.28	228.20
994.58	228.36
994.87	228.45
995.16	228.36
995.45	228.30
995.74	228.38
996.03	228.54
996.32	228.51
996.61	228.65
996.90	228.73
997.19	228.74
997.48	228.83
997.77	228.81
998.06	228.81
998.34	228.81
998.63	228.89
998.92	228.99
999.21	228.95
999.50	229.04
999.79	229.05
1000.08	229.11
1000.37	229.01
1000.66	228.94
1000.95	229.04
1001.24	229.16
1001.53	229.30
1001.82	229.34
1002.11	229.26
1002.40	229.36
1002.68	229.43
1002.97	229.55
1003.26	229.54
1003.55	229.51
1003.84	229.65
1004.13	229.73
1004.42	229.75
1004.71	229.76
1004.99	229.78
1005.28	229.80
1005.57	229.75
1005.86	229.73
1006.15	229.69
1006.44	229.65
1006.72	229.65
1007.01	229.41
1007.30	229.46
1007.59	229.38
1007.88	229.30
1008.17	229.37
1008.45	229.30
1008.74	229.26
1009.03	229.11
1009.32	229.12
1009.60	229.02
1009.89	228.82
1010.18	228.79
1010.47	228.76
1010.76	228.81
1011.04	228.68
1011.33	228.64
1011.62	228.56
1011.91	228.58
1012.19	228.64
1012.48	228.69
1012.77	228.68
1013.05	228.79
1013.34	228.66
1013.63	228.61
1013.92	228.57
1014.20	228.45
1014.49	228.50
1014.78	228.29
1015.06	228.26
1015.35	228.19
1015.64	228.27
1015.92	228.29
1016.21	228.29
1016.50	228.26
1016.78	228.14
1017.07	228.17
1017.36	228.08
1017.64	228.05
1017.93	227.94
1018.22	227.77
1018.50	227.66
1018.79	227.63
1019.08	227.52
1019.36	227.56
1019.65	227.54
1019.93	227.56
1020.22	227.54
1020.51	227.55
1020.79	227.53
1021.08	225.70
1021.36	226.10
1021.65	228.40
1021.94	227.20
1022.22	228.00
1022.51	227.60
1022.79	227.70
1023.08	227.50
1023.36	229.70
1023.65	226.20
>>>>>End Processed Spectral Data<<<<<
