SpectraSuite Data File
++++++++++++++++++++++++++++++++++++
Date: Fri Feb 01 14:33:55 EST 2013
User: group
Dark Spectrum Present: No
Reference Spectrum Present: No
Number of Sampled Component Spectra: 1
Spectrometers: USB2E7196
Integration Time (usec): 70000 (USB2E7196)
Spectra Averaged: 10 (USB2E7196)
Boxcar Smoothing: 10 (USB2E7196)
Correct for Electrical Dark: No (USB2E7196)
Strobe/Lamp Enabled: No (USB2E7196)
Correct for Detector Non-linearity: No (USB2E7196)
Correct for Stray Light: No (USB2E7196)
Number of Pixels in Processed Spectrum: 2048
>>>>>Begin Processed Spectral Data<<<<<
339.09	0.00
339.48	217.80
339.86	219.00
340.24	221.80
340.63	222.20
341.01	224.70
341.39	223.90
341.78	224.50
342.16	224.90
342.54	225.40
342.93	215.19
343.31	226.08
343.69	226.69
344.07	227.10
344.46	227.50
344.84	227.80
345.22	228.05
345.60	228.31
345.99	228.52
346.37	228.70
346.75	228.93
347.13	229.02
347.52	228.97
347.90	229.07
348.28	229.13
348.66	229.24
349.05	229.19
349.43	229.08
349.81	229.10
350.19	229.14
350.57	229.19
350.96	229.21
351.34	229.19
351.72	229.11
352.10	229.12
352.48	229.04
352.87	229.12
353.25	229.17
353.63	229.17
354.01	229.21
354.39	229.26
354.77	229.25
355.15	229.39
355.54	229.45
355.92	229.37
356.30	229.40
356.68	229.47
357.06	229.55
357.44	229.66
357.82	229.72
358.20	229.87
358.58	229.93
358.97	229.90
359.35	230.09
359.73	230.22
360.11	230.32
360.49	230.40
360.87	230.45
361.25	230.50
361.63	230.70
362.01	230.90
362.39	230.88
362.77	230.93
363.15	230.92
363.53	230.93
363.91	231.03
364.29	231.06
364.67	230.98
365.05	230.94
365.43	231.00
365.81	231.03
366.19	231.09
366.57	231.19
366.95	231.24
367.33	231.21
367.71	231.21
368.09	231.19
368.47	231.21
368.85	231.16
369.23	231.10
369.61	231.02
369.99	230.95
370.37	230.95
370.75	231.00
371.13	230.96
371.51	230.98
371.89	230.98
372.27	230.96
372.65	230.95
373.03	231.01
373.41	230.86
373.78	230.85
374.16	230.70
374.54	230.60
374.92	230.42
375.30	230.32
375.68	230.23
376.06	230.24
376.44	230.15
376.82	230.09
377.19	230.03
377.57	229.86
377.95	229.66
378.33	229.70
378.71	229.49
379.09	229.41
379.47	229.27
379.84	229.14
380.22	229.04
380.60	228.91
380.98	228.75
381.36	228.63
381.73	228.50
382.11	228.46
382.49	228.36
382.87	228.40
383.25	228.28
383.62	228.39
384.00	228.25
384.38	228.15
384.76	228.12
385.13	228.11
385.51	228.10
385.89	228.01
386.27	227.86
386.64	227.88
387.02	227.90
387.40	227.88
387.78	227.84
388.15	227.87
388.53	227.84
388.91	227.79
389.29	227.78
389.66	227.76
390.04	227.65
390.42	227.65
390.79	227.64
391.17	227.63
391.55	227.42
391.92	227.49
392.30	227.55
392.68	227.49
393.05	227.47
393.43	227.45
393.81	227.49
394.18	227.45
394.56	227.39
394.94	227.40
395.31	227.48
395.69	227.60
396.06	227.64
396.44	227.64
396.82	227.77
397.19	227.94
397.57	228.15
397.95	228.23
398.32	228.28
398.70	228.30
399.07	228.50
399.45	228.60
399.82	228.68
400.20	228.84
400.58	229.00
400.95	229.09
401.33	229.38
401.70	229.67
402.08	230.02
402.45	230.27
402.83	230.54
403.20	230.70
403.58	230.91
403.95	231.15
404.33	231.50
404.71	231.76
405.08	232.27
405.46	232.50
405.83	232.97
406.21	233.35
406.58	233.79
406.96	234.23
407.33	234.77
407.70	235.40
408.08	236.03
408.45	236.73
408.83	237.40
409.20	237.94
409.58	238.52
409.95	239.30
410.33	240.16
410.70	240.96
411.08	241.99
411.45	242.94
411.82	244.00
412.20	245.22
412.57	246.57
412.95	247.58
413.32	248.96
413.69	250.26
414.07	251.75
414.44	253.39
414.82	254.96
415.19	256.80
415.56	258.70
415.94	260.71
416.31	262.96
416.68	265.15
417.06	267.67
417.43	270.03
417.81	272.72
418.18	275.47
418.55	278.37
418.93	281.41
419.30	284.71
419.67	288.04
420.04	291.49
420.42	295.20
420.79	299.36
421.16	303.55
421.54	307.86
421.91	312.39
422.28	317.11
422.66	322.06
423.03	326.88
423.40	331.90
423.77	337.12
424.15	342.71
424.52	348.37
424.89	354.49
425.26	360.77
425.64	366.35
426.01	372.69
426.38	379.24
426.75	385.95
427.13	392.68
427.50	399.93
427.87	407.45
428.24	415.06
428.61	422.45
428.99	430.12
429.36	438.75
429.73	447.17
430.10	455.47
430.47	463.90
430.85	472.71
431.22	481.87
431.59	491.76
431.96	500.84
432.33	511.39
432.70	521.49
433.08	533.18
433.45	544.24
433.82	555.24
434.19	567.53
434.56	579.56
434.93	591.16
435.30	602.46
435.68	615.13
436.05	627.16
436.42	639.28
436.79	650.61
437.16	662.75
437.53	675.56
437.90	688.42
438.27	700.88
438.64	713.68
439.01	725.73
439.38	736.60
439.75	747.02
440.13	758.71
440.50	770.03
440.87	779.43
441.24	789.18
441.61	799.87
441.98	807.88
442.35	817.02
442.72	826.46
443.09	835.89
443.46	841.90
443.83	846.44
444.20	850.47
444.57	856.13
444.94	859.08
445.31	862.40
445.68	865.52
446.05	867.87
446.42	868.25
446.79	868.60
447.16	868.38
447.53	869.01
447.90	865.88
448.27	862.52
448.64	857.00
449.01	853.86
449.37	846.86
449.74	840.24
450.11	831.95
450.48	822.83
450.85	813.48
451.22	805.59
451.59	797.82
451.96	790.61
452.33	780.31
452.70	771.48
453.07	760.19
453.43	748.66
453.80	737.54
454.17	726.77
454.54	716.20
454.91	705.10
455.28	694.06
455.65	683.96
456.02	673.51
456.38	664.96
456.75	653.89
457.12	644.64
457.49	635.30
457.86	626.54
458.23	618.95
458.59	610.35
458.96	601.61
459.33	594.09
459.70	586.27
460.07	580.06
460.43	572.84
460.80	565.89
461.17	559.85
461.54	553.64
461.91	547.42
462.27	541.28
462.64	536.13
463.01	530.25
463.38	524.59
463.74	519.24
464.11	514.38
464.48	510.05
464.85	505.38
465.21	501.73
465.58	497.70
465.95	492.89
466.32	488.98
466.68	485.02
467.05	481.13
467.42	477.35
467.78	473.22
468.15	469.10
468.52	466.42
468.88	462.87
469.25	459.43
469.62	456.90
469.98	454.04
470.35	451.17
470.72	448.67
471.08	445.97
471.45	443.57
471.82	441.00
472.18	438.29
472.55	436.46
472.92	434.33
473.28	432.34
473.65	430.54
474.02	428.37
474.38	426.68
474.75	425.19
475.11	423.62
475.48	422.44
475.85	421.60
476.21	420.47
476.58	419.51
476.94	418.85
477.31	418.08
477.67	417.23
478.04	416.62
478.41	416.08
478.77	415.90
479.14	415.58
479.50	415.28
479.87	415.45
480.23	415.41
480.60	415.10
480.96	415.09
481.33	415.16
481.69	415.75
482.06	415.99
482.42	416.19
482.79	416.48
483.15	417.03
483.52	417.74
483.88	418.35
484.25	419.05
484.61	419.76
484.98	420.61
485.34	421.87
485.71	423.18
486.07	424.63
486.44	425.85
486.80	427.32
487.17	429.20
487.53	431.09
487.90	432.99
488.26	435.34
488.62	437.64
488.99	439.98
489.35	442.06
489.72	444.46
490.08	447.20
490.44	450.11
490.81	452.87
491.17	455.67
491.54	458.79
491.90	461.80
492.26	465.23
492.63	468.63
492.99	472.02
493.36	475.64
493.72	479.44
494.08	483.15
494.45	487.14
494.81	491.34
495.17	495.25
495.54	499.50
495.90	503.74
496.26	508.01
496.63	512.71
496.99	517.52
497.35	522.62
497.72	527.48
498.08	532.49
498.44	537.66
498.80	543.20
499.17	548.34
499.53	553.79
499.89	559.38
500.26	564.76
500.62	570.30
500.98	575.98
501.34	581.63
501.71	587.65
502.07	593.27
502.43	598.97
502.79	604.89
503.16	610.80
503.52	616.68
503.88	622.75
504.24	628.54
504.60	634.56
504.97	640.49
505.33	646.72
505.69	652.95
506.05	659.18
506.41	664.98
506.78	670.90
507.14	677.00
507.50	682.86
507.86	689.09
508.22	695.14
508.59	700.85
508.95	706.81
509.31	712.56
509.67	718.55
510.03	724.11
510.39	729.90
510.75	735.68
511.12	741.28
511.48	747.07
511.84	753.02
512.20	758.54
512.56	764.10
512.92	769.41
513.28	774.70
513.64	779.81
514.00	784.70
514.37	789.89
514.73	794.95
515.09	799.59
515.45	804.15
515.81	808.95
516.17	813.83
516.53	818.35
516.89	822.93
517.25	827.24
517.61	831.79
517.97	835.77
518.33	839.76
518.69	843.88
519.05	847.50
519.41	851.18
519.77	855.54
520.13	859.24
520.49	862.85
520.85	866.25
521.21	870.09
521.57	874.16
521.93	877.41
522.29	881.09
522.65	884.57
523.01	888.05
523.37	890.95
523.73	893.89
524.09	896.82
524.45	899.72
524.81	902.97
525.17	906.18
525.53	909.91
525.89	913.04
526.25	916.09
526.61	918.75
526.97	921.55
527.33	923.86
527.68	926.78
528.04	929.52
528.40	932.40
528.76	935.10
529.12	937.65
529.48	940.73
529.84	943.08
530.20	945.84
530.56	948.64
530.91	951.90
531.27	954.78
531.63	957.50
531.99	960.16
532.35	962.91
532.71	965.32
533.07	967.60
533.42	970.26
533.78	972.94
534.14	976.10
534.50	978.43
534.86	981.02
535.21	983.30
535.57	986.11
535.93	988.50
536.29	991.25
536.65	993.54
537.00	995.62
537.36	998.18
537.72	1000.75
538.08	1003.25
538.44	1005.31
538.79	1007.53
539.15	1010.08
539.51	1012.67
539.87	1015.06
540.22	1017.58
540.58	1020.35
540.94	1022.49
541.29	1024.42
541.65	1026.65
542.01	1029.51
542.37	1031.99
542.72	1034.42
543.08	1036.78
543.44	1039.12
543.79	1040.76
544.15	1043.30
544.51	1046.49
544.87	1048.90
545.22	1051.23
545.58	1053.25
545.94	1055.50
546.29	1057.58
546.65	1059.41
547.01	1061.50
547.36	1063.30
547.72	1065.30
548.07	1066.77
548.43	1068.76
548.79	1071.26
549.14	1073.00
549.50	1074.36
549.86	1075.94
550.21	1077.72
550.57	1079.30
550.92	1081.20
551.28	1082.87
551.64	1084.70
551.99	1086.03
552.35	1087.43
552.70	1088.90
553.06	1090.80
553.41	1092.38
553.77	1094.51
554.13	1096.34
554.48	1098.15
554.84	1100.03
555.19	1101.60
555.55	1103.45
555.90	1105.09
556.26	1106.30
556.61	1107.75
556.97	1109.50
557.32	1111.38
557.68	1113.02
558.03	1114.79
558.39	1116.33
558.74	1118.47
559.10	1119.74
559.45	1121.27
559.81	1123.46
560.16	1125.04
560.52	1126.24
560.87	1128.17
561.23	1129.36
561.58	1130.82
561.94	1132.00
562.29	1133.13
562.64	1134.13
563.00	1135.12
563.35	1136.17
563.71	1137.89
564.06	1139.34
564.42	1140.54
564.77	1141.69
565.12	1143.14
565.48	1144.28
565.83	1144.95
566.19	1145.79
566.54	1146.88
566.89	1147.56
567.25	1147.70
567.60	1148.50
567.96	1149.55
568.31	1149.79
568.66	1150.42
569.02	1151.06
569.37	1151.38
569.72	1151.74
570.08	1152.33
570.43	1152.90
570.78	1153.40
571.14	1153.05
571.49	1153.34
571.84	1153.74
572.20	1153.76
572.55	1153.39
572.90	1153.06
573.26	1153.38
573.61	1153.11
573.96	1152.40
574.31	1151.43
574.67	1150.41
575.02	1149.47
575.37	1148.52
575.72	1147.42
576.08	1146.56
576.43	1145.22
576.78	1144.16
577.13	1143.32
577.49	1142.34
577.84	1141.20
578.19	1140.14
578.54	1138.96
578.90	1137.44
579.25	1135.62
579.60	1133.56
579.95	1131.69
580.30	1129.90
580.66	1127.60
581.01	1125.76
581.36	1124.17
581.71	1122.97
582.06	1121.70
582.42	1120.14
582.77	1118.21
583.12	1116.63
583.47	1114.65
583.82	1113.12
584.17	1111.13
584.53	1109.04
584.88	1106.91
585.23	1104.63
585.58	1102.52
585.93	1100.50
586.28	1098.63
586.63	1096.82
586.98	1095.55
587.34	1094.08
587.69	1091.94
588.04	1090.33
588.39	1088.26
588.74	1085.76
589.09	1083.27
589.44	1080.76
589.79	1078.63
590.14	1076.44
590.49	1074.00
590.84	1071.62
591.19	1069.20
591.54	1066.50
591.89	1063.63
592.25	1061.07
592.60	1057.95
592.95	1054.97
593.30	1051.97
593.65	1048.81
594.00	1045.74
594.35	1043.02
594.70	1039.44
595.05	1036.70
595.40	1033.32
595.75	1030.05
596.10	1027.21
596.45	1024.63
596.80	1022.38
597.15	1019.27
597.50	1016.32
597.85	1013.47
598.19	1010.76
598.54	1007.84
598.89	1005.35
599.24	1002.70
599.59	999.80
599.94	997.09
600.29	994.11
600.64	991.28
600.99	988.31
601.34	985.17
601.69	981.53
602.04	978.85
602.39	975.51
602.74	972.80
603.08	969.88
603.43	967.31
603.78	964.17
604.13	960.53
604.48	957.43
604.83	954.40
605.18	951.30
605.53	947.74
605.87	944.39
606.22	941.01
606.57	937.63
606.92	934.35
607.27	931.53
607.62	928.46
607.96	925.43
608.31	922.20
608.66	918.96
609.01	915.46
609.36	911.58
609.70	907.98
610.05	904.00
610.40	900.80
610.75	896.88
611.10	892.96
611.44	889.11
611.79	885.29
612.14	881.24
612.49	877.32
612.83	873.48
613.18	869.45
613.53	865.64
613.88	861.76
614.22	857.93
614.57	853.65
614.92	849.78
615.27	845.82
615.61	841.92
615.96	837.94
616.31	834.24
616.65	830.99
617.00	827.66
617.35	824.39
617.70	820.45
618.04	816.58
618.39	812.94
618.74	809.26
619.08	805.43
619.43	801.99
619.78	798.46
620.12	795.04
620.47	791.64
620.82	788.04
621.16	784.47
621.51	780.87
621.85	777.54
622.20	774.03
622.55	770.30
622.89	766.86
623.24	763.20
623.59	759.90
623.93	756.48
624.28	752.91
624.62	749.37
624.97	745.84
625.32	742.60
625.66	739.40
626.01	736.23
626.35	733.03
626.70	729.58
627.04	726.36
627.39	722.73
627.73	719.21
628.08	715.99
628.43	712.68
628.77	709.26
629.12	705.84
629.46	702.40
629.81	699.10
630.15	695.59
630.50	692.65
630.84	689.05
631.19	685.25
631.53	681.92
631.88	678.36
632.22	674.83
632.57	671.69
632.91	668.22
633.26	664.76
633.60	661.28
633.95	658.19
634.29	654.87
634.64	651.92
634.98	648.73
635.32	645.66
635.67	642.73
636.01	639.83
636.36	636.94
636.70	634.22
637.05	631.32
637.39	628.55
637.73	625.77
638.08	623.32
638.42	620.67
638.77	618.01
639.11	615.20
639.45	612.54
639.80	609.72
640.14	607.02
640.49	604.52
640.83	602.05
641.17	599.21
641.52	596.45
641.86	593.68
642.20	591.30
642.55	588.56
642.89	585.97
643.23	583.20
643.58	580.55
643.92	577.59
644.26	574.87
644.61	572.49
644.95	569.77
645.29	566.70
645.64	563.82
645.98	561.04
646.32	558.51
646.66	555.75
647.01	552.81
647.35	550.10
647.69	547.28
648.04	544.78
648.38	542.22
648.72	539.58
649.06	536.94
649.41	534.15
649.75	531.42
650.09	528.70
650.43	525.82
650.78	523.03
651.12	520.42
651.46	518.09
651.80	515.17
652.14	512.76
652.49	510.35
652.83	508.12
653.17	505.44
653.51	502.89
653.85	500.50
654.20	498.15
654.54	495.66
654.88	493.02
655.22	490.38
655.56	487.63
655.90	485.20
656.25	482.92
656.59	480.59
656.93	478.39
657.27	475.98
657.61	473.73
657.95	471.62
658.29	469.50
658.64	467.12
658.98	464.82
659.32	462.33
659.66	460.18
660.00	457.92
660.34	455.65
660.68	453.54
661.02	451.20
661.36	449.20
661.70	447.16
662.05	445.35
662.39	443.43
662.73	441.50
663.07	439.79
663.41	437.62
663.75	435.75
664.09	433.76
664.43	431.79
664.77	429.95
665.11	428.13
665.45	426.18
665.79	424.37
666.13	422.65
666.47	420.79
666.81	418.84
667.15	416.97
667.49	415.44
667.83	413.73
668.17	412.13
668.51	410.14
668.85	408.39
669.19	406.73
669.53	404.98
669.87	403.44
670.21	401.62
670.55	400.20
670.89	398.55
671.23	396.98
671.57	395.59
671.91	394.14
672.25	392.45
672.58	390.98
672.92	389.51
673.26	388.16
673.60	386.79
673.94	385.54
674.28	384.22
674.62	382.78
674.96	381.25
675.30	379.85
675.64	378.61
675.97	377.39
676.31	376.01
676.65	374.61
676.99	373.36
677.33	371.94
677.67	370.60
678.01	369.10
678.34	367.73
678.68	366.44
679.02	365.23
679.36	364.05
679.70	362.79
680.04	361.45
680.37	360.04
680.71	358.79
681.05	357.35
681.39	356.10
681.73	354.94
682.06	353.89
682.40	352.75
682.74	351.55
683.08	350.22
683.42	349.15
683.75	348.20
684.09	346.85
684.43	345.78
684.77	344.50
685.10	343.40
685.44	342.25
685.78	341.07
686.12	339.95
686.45	338.77
686.79	337.58
687.13	336.57
687.46	335.47
687.80	334.35
688.14	333.30
688.48	332.23
688.81	331.03
689.15	329.96
689.49	328.87
689.82	327.85
690.16	326.80
690.50	325.67
690.83	324.54
691.17	323.55
691.51	322.41
691.84	321.54
692.18	320.65
692.52	319.70
692.85	318.75
693.19	317.75
693.52	316.87
693.86	315.87
694.20	314.80
694.53	313.84
694.87	312.91
695.21	311.93
695.54	311.10
695.88	310.24
696.21	309.18
696.55	308.28
696.88	307.50
697.22	306.68
697.56	305.78
697.89	304.87
698.23	304.04
698.56	303.37
698.90	302.50
699.23	301.65
699.57	300.86
699.90	299.97
700.24	299.18
700.58	298.25
700.91	297.55
701.25	296.98
701.58	296.28
701.92	295.53
702.25	294.88
702.59	294.13
702.92	293.57
703.26	293.08
703.59	292.55
703.93	292.00
704.26	291.38
704.60	290.84
704.93	290.15
705.26	289.40
705.60	288.65
705.93	288.04
706.27	287.42
706.60	286.83
706.94	286.31
707.27	285.62
707.61	285.13
707.94	284.53
708.27	283.79
708.61	283.26
708.94	282.77
709.28	282.31
709.61	281.73
709.94	281.08
710.28	280.48
710.61	279.90
710.95	279.12
711.28	278.54
711.61	277.77
711.95	277.30
712.28	276.79
712.61	276.35
712.95	275.96
713.28	275.50
713.61	274.95
713.95	274.43
714.28	274.14
714.61	273.49
714.95	273.09
715.28	272.65
715.61	272.17
715.95	271.49
716.28	270.90
716.61	270.44
716.95	270.01
717.28	269.61
717.61	269.12
717.94	268.77
718.28	268.31
718.61	267.97
718.94	267.57
719.27	267.30
719.61	266.85
719.94	266.31
720.27	265.88
720.60	265.50
720.94	265.23
721.27	264.70
721.60	264.57
721.93	264.16
722.27	263.85
722.60	263.43
722.93	263.19
723.26	262.95
723.59	262.54
723.93	262.15
724.26	261.88
724.59	261.58
724.92	261.31
725.25	261.14
725.59	260.92
725.92	260.66
726.25	260.29
726.58	260.07
726.91	259.75
727.24	259.63
727.57	259.32
727.91	258.90
728.24	258.63
728.57	258.15
728.90	257.81
729.23	257.40
729.56	257.30
729.89	257.09
730.22	256.78
730.55	256.49
730.89	256.22
731.22	255.93
731.55	255.50
731.88	255.05
732.21	254.63
732.54	254.34
732.87	254.06
733.20	253.75
733.53	253.47
733.86	253.31
734.19	252.85
734.52	252.63
734.85	252.50
735.18	252.15
735.51	252.10
735.84	251.93
736.17	251.79
736.50	251.32
736.83	251.29
737.16	251.00
737.49	250.75
737.82	250.44
738.15	250.21
738.48	250.08
738.81	249.93
739.14	249.76
739.47	249.48
739.80	249.20
740.13	249.07
740.46	248.72
740.79	248.46
741.12	248.23
741.45	248.04
741.78	247.74
742.11	247.62
742.44	247.31
742.77	247.08
743.10	246.83
743.43	246.70
743.75	246.22
744.08	246.20
744.41	245.94
744.74	245.86
745.07	245.56
745.40	245.50
745.73	245.29
746.06	245.11
746.39	245.00
746.71	244.85
747.04	244.58
747.37	244.52
747.70	244.37
748.03	244.28
748.36	244.00
748.68	243.84
749.01	243.58
749.34	243.38
749.67	243.25
750.00	243.04
750.33	243.04
750.65	243.00
750.98	242.76
751.31	242.74
751.64	242.60
751.97	242.55
752.29	242.30
752.62	242.10
752.95	241.94
753.28	241.80
753.60	241.64
753.93	241.60
754.26	241.45
754.59	241.36
754.91	241.06
755.24	241.01
755.57	240.92
755.90	240.77
756.22	240.69
756.55	240.64
756.88	240.56
757.20	240.30
757.53	240.08
757.86	239.97
758.19	239.86
758.51	239.63
758.84	239.43
759.17	239.34
759.49	239.30
759.82	239.28
760.15	239.24
760.47	239.10
760.80	238.99
761.13	238.81
761.45	238.54
761.78	238.55
762.11	238.37
762.43	238.29
762.76	238.32
763.08	238.28
763.41	238.08
763.74	237.98
764.06	237.93
764.39	237.82
764.71	237.71
765.04	237.56
765.37	237.46
765.69	237.41
766.02	237.39
766.34	237.35
766.67	237.20
767.00	237.09
767.32	237.16
767.65	237.21
767.97	237.14
768.30	237.20
768.62	237.16
768.95	237.15
769.27	236.99
769.60	236.95
769.92	236.74
770.25	236.68
770.57	236.50
770.90	236.36
771.22	236.39
771.55	236.27
771.87	236.33
772.20	236.23
772.52	236.28
772.85	236.32
773.17	236.21
773.50	236.15
773.82	236.03
774.15	235.84
774.47	235.56
774.80	235.46
775.12	235.36
775.45	235.22
775.77	235.00
776.09	234.97
776.42	234.80
776.74	234.83
777.07	234.67
777.39	234.67
777.72	234.60
778.04	234.50
778.36	234.34
778.69	234.19
779.01	234.15
779.33	233.95
779.66	233.68
779.98	233.61
780.31	233.52
780.63	233.56
780.95	233.51
781.28	233.57
781.60	233.46
781.92	233.34
782.25	233.39
782.57	233.49
782.89	233.47
783.22	233.44
783.54	233.36
783.86	233.39
784.19	233.31
784.51	233.28
784.83	233.14
785.16	233.10
785.48	233.01
785.80	233.03
786.12	232.94
786.45	232.90
786.77	232.89
787.09	232.86
787.42	232.63
787.74	232.61
788.06	232.49
788.38	232.51
788.71	232.55
789.03	232.38
789.35	232.34
789.67	232.19
789.99	232.19
790.32	232.11
790.64	232.13
790.96	232.26
791.28	232.19
791.61	232.18
791.93	232.19
792.25	232.22
792.57	232.26
792.89	232.20
793.21	232.30
793.54	232.27
793.86	232.23
794.18	232.34
794.50	232.34
794.82	232.38
795.14	232.44
795.47	232.38
795.79	232.40
796.11	232.30
796.43	232.29
796.75	232.16
797.07	232.24
797.39	232.17
797.71	232.04
798.04	231.93
798.36	231.92
798.68	231.89
799.00	231.92
799.32	231.87
799.64	231.89
799.96	231.79
800.28	231.77
800.60	231.72
800.92	231.60
801.24	231.60
801.56	231.50
801.89	231.46
802.21	231.53
802.53	231.44
802.85	231.54
803.17	231.65
803.49	231.61
803.81	231.62
804.13	231.61
804.45	231.51
804.77	231.53
805.09	231.53
805.41	231.56
805.73	231.35
806.05	231.27
806.37	231.32
806.69	231.28
807.01	231.20
807.33	231.19
807.65	231.11
807.97	231.05
808.28	231.03
808.60	230.98
808.92	230.92
809.24	231.09
809.56	230.98
809.88	230.91
810.20	230.96
810.52	230.85
810.84	230.84
811.16	230.92
811.48	230.93
811.80	230.96
812.12	230.78
812.43	230.93
812.75	230.95
813.07	230.84
813.39	230.71
813.71	230.74
814.03	230.70
814.35	230.77
814.67	230.78
814.98	230.73
815.30	230.71
815.62	230.63
815.94	230.55
816.26	230.50
816.58	230.44
816.89	230.47
817.21	230.37
817.53	230.30
817.85	230.26
818.17	230.28
818.48	230.20
818.80	230.44
819.12	230.37
819.44	230.33
819.76	230.20
820.07	230.32
820.39	230.26
820.71	230.18
821.03	230.06
821.34	229.93
821.66	229.88
821.98	229.85
822.30	229.78
822.61	229.80
822.93	229.84
823.25	229.80
823.57	229.66
823.88	229.75
824.20	229.72
824.52	229.64
824.83	229.59
825.15	229.56
825.47	229.46
825.79	229.46
826.10	229.44
826.42	229.61
826.74	229.65
827.05	229.60
827.37	229.61
827.69	229.59
828.00	229.65
828.32	229.70
828.64	229.65
828.95	229.79
829.27	229.72
829.58	229.66
829.90	229.68
830.22	229.73
830.53	229.67
830.85	229.59
831.17	229.60
831.48	229.69
831.80	229.78
832.11	229.76
832.43	229.72
832.75	229.68
833.06	229.73
833.38	229.61
833.69	229.61
834.01	229.74
834.32	229.77
834.64	229.78
834.96	229.84
835.27	229.92
835.59	229.92
835.90	229.88
836.22	229.92
836.53	229.93
836.85	229.95
837.16	230.12
837.48	230.19
837.79	230.30
838.11	230.31
838.42	230.17
838.74	230.20
839.05	230.20
839.37	230.27
839.68	230.16
840.00	230.10
840.31	230.13
840.63	230.07
840.94	230.15
841.26	230.07
841.57	229.94
841.88	229.93
842.20	229.84
842.51	229.92
842.83	229.89
843.14	230.01
843.46	229.94
843.77	229.87
844.08	229.77
844.40	229.74
844.71	229.54
845.03	229.58
845.34	229.55
845.65	229.49
845.97	229.46
846.28	229.42
846.60	229.45
846.91	229.42
847.22	229.40
847.54	229.37
847.85	229.41
848.16	229.46
848.48	229.34
848.79	229.36
849.10	229.32
849.42	229.33
849.73	229.19
850.04	229.15
850.36	229.05
850.67	229.13
850.98	229.08
851.30	229.18
851.61	229.01
851.92	228.98
852.23	229.10
852.55	229.08
852.86	229.00
853.17	228.92
853.49	228.99
853.80	229.02
854.11	229.08
854.42	229.11
854.74	229.06
855.05	229.15
855.36	229.07
855.67	229.01
855.99	228.93
856.30	229.11
856.61	229.16
856.92	229.16
857.23	229.20
857.55	229.10
857.86	229.08
858.17	229.21
858.48	229.16
858.79	229.09
859.11	229.04
859.42	229.08
859.73	229.11
860.04	229.02
860.35	228.95
860.66	228.84
860.98	228.74
861.29	228.77
861.60	228.72
861.91	228.73
862.22	228.69
862.53	228.76
862.84	228.55
863.16	228.63
863.47	228.55
863.78	228.56
864.09	228.68
864.40	228.64
864.71	228.77
865.02	228.80
865.33	228.72
865.64	228.76
865.95	228.69
866.27	228.79
866.58	228.69
866.89	228.75
867.20	228.80
867.51	228.83
867.82	228.81
868.13	228.91
868.44	228.92
868.75	228.88
869.06	228.74
869.37	228.70
869.68	228.62
869.99	228.68
870.30	228.65
870.61	228.64
870.92	228.58
871.23	228.50
871.54	228.45
871.85	228.50
872.16	228.48
872.47	228.57
872.78	228.44
873.09	228.60
873.40	228.49
873.71	228.39
874.02	228.33
874.33	228.36
874.64	228.30
874.95	228.32
875.26	228.40
875.56	228.45
875.87	228.43
876.18	228.51
876.49	228.66
876.80	228.64
877.11	228.55
877.42	228.68
877.73	228.67
878.04	228.80
878.35	228.79
878.66	228.85
878.96	228.80
879.27	228.83
879.58	228.85
879.89	228.95
880.20	229.15
880.51	229.12
880.82	229.16
881.12	229.05
881.43	229.02
881.74	228.97
882.05	228.93
882.36	229.02
882.67	229.03
882.97	228.87
883.28	228.83
883.59	228.81
883.90	228.86
884.21	228.98
884.51	228.84
884.82	228.88
885.13	228.98
885.44	229.01
885.74	229.09
886.05	228.98
886.36	228.91
886.67	228.82
886.98	229.01
887.28	229.02
887.59	229.12
887.90	229.12
888.20	229.12
888.51	229.32
888.82	229.30
889.13	229.24
889.43	229.40
889.74	229.55
890.05	229.51
890.35	229.38
890.66	229.30
890.97	229.30
891.28	229.24
891.58	229.10
891.89	229.18
892.20	229.07
892.50	229.08
892.81	229.13
893.12	229.09
893.42	228.96
893.73	228.96
894.04	228.91
894.34	228.87
894.65	228.82
894.95	228.64
895.26	228.53
895.57	228.53
895.87	228.30
896.18	228.13
896.48	228.20
896.79	228.18
897.10	228.14
897.40	228.05
897.71	228.09
898.01	228.07
898.32	227.97
898.63	228.00
898.93	228.00
899.24	227.99
899.54	227.95
899.85	227.97
900.15	227.83
900.46	227.85
900.76	227.91
901.07	227.89
901.38	228.03
901.68	228.08
901.99	228.06
902.29	228.04
902.60	228.07
902.90	228.09
903.21	228.14
903.51	228.22
903.82	228.38
904.12	228.42
904.43	228.38
904.73	228.37
905.03	228.35
905.34	228.41
905.64	228.39
905.95	228.34
906.25	228.33
906.56	228.33
906.86	228.32
907.17	228.27
907.47	228.42
907.77	228.18
908.08	228.18
908.38	228.18
908.69	228.24
908.99	228.28
909.30	228.25
909.60	228.13
909.90	228.09
910.21	228.02
910.51	227.91
910.81	227.95
911.12	227.99
911.42	228.05
911.73	227.92
912.03	227.90
912.33	228.01
912.64	227.97
912.94	228.03
913.24	228.01
913.55	228.02
913.85	228.02
914.15	228.20
914.46	228.19
914.76	228.22
915.06	228.20
915.37	228.16
915.67	228.08
915.97	228.22
916.27	228.06
916.58	228.02
916.88	228.03
917.18	228.00
917.49	228.07
917.79	228.07
918.09	228.11
918.39	228.21
918.70	228.26
919.00	228.24
919.30	228.35
919.60	228.38
919.91	228.34
920.21	228.27
920.51	228.21
920.81	228.14
921.12	228.13
921.42	228.14
921.72	228.14
922.02	228.24
922.32	228.25
922.63	228.35
922.93	228.48
923.23	228.60
923.53	228.62
923.83	228.64
924.13	228.58
924.44	228.62
924.74	228.60
925.04	228.53
925.34	228.59
925.64	228.55
925.94	228.59
926.24	228.75
926.55	228.80
926.85	228.89
927.15	228.97
927.45	229.04
927.75	229.13
928.05	229.20
928.35	229.19
928.65	229.20
928.95	229.21
929.26	229.09
929.56	229.05
929.86	229.10
930.16	228.99
930.46	229.01
930.76	229.05
931.06	229.00
931.36	228.99
931.66	229.03
931.96	228.94
932.26	228.96
932.56	228.84
932.86	228.85
933.16	228.79
933.46	228.79
933.76	228.76
934.06	228.73
934.36	228.83
934.66	228.87
934.96	228.79
935.26	228.83
935.56	228.97
935.86	228.90
936.16	228.83
936.46	228.88
936.76	228.90
937.06	228.86
937.36	228.80
937.66	228.89
937.96	228.80
938.26	228.69
938.56	228.58
938.86	228.50
939.16	228.55
939.46	228.59
939.76	228.59
940.06	228.43
940.35	228.44
940.65	228.21
940.95	228.13
941.25	228.15
941.55	228.05
941.85	227.94
942.15	227.99
942.45	228.03
942.75	227.96
943.04	227.93
943.34	227.88
943.64	227.90
943.94	227.85
944.24	227.96
944.54	228.01
944.84	228.07
945.13	228.09
945.43	227.96
945.73	228.00
946.03	227.99
946.33	228.14
946.62	228.09
946.92	228.16
947.22	228.09
947.52	228.08
947.82	228.08
948.11	228.00
948.41	227.96
948.71	227.87
949.01	227.87
949.31	227.85
949.60	227.79
949.90	227.82
950.20	227.75
950.50	227.65
950.79	227.69
951.09	227.80
951.39	227.82
951.69	227.85
951.98	227.84
952.28	227.83
952.58	227.82
952.87	227.78
953.17	227.78
953.47	227.85
953.76	228.00
954.06	227.97
954.36	228.08
954.66	227.98
954.95	228.18
955.25	228.20
955.55	228.19
955.84	228.16
956.14	228.18
956.44	228.11
956.73	228.10
957.03	228.06
957.32	227.96
957.62	227.96
957.92	227.98
958.21	227.90
958.51	228.09
958.81	228.04
959.10	228.04
959.40	228.12
959.69	228.21
959.99	228.09
960.29	228.11
960.58	228.10
960.88	228.23
961.17	228.15
961.47	228.22
961.76	228.20
962.06	228.39
962.36	228.37
962.65	228.49
962.95	228.53
963.24	228.56
963.54	228.58
963.83	228.65
964.13	228.66
964.42	228.63
964.72	228.59
965.01	228.53
965.31	228.59
965.60	228.54
965.90	228.70
966.19	228.73
966.49	228.63
966.78	228.66
967.08	228.70
967.37	228.68
967.67	228.59
967.96	228.69
968.26	228.59
968.55	228.60
968.85	228.56
969.14	228.49
969.43	228.51
969.73	228.35
970.02	228.22
970.32	228.23
970.61	228.24
970.91	228.08
971.20	228.02
971.49	227.89
971.79	227.83
972.08	227.63
972.38	227.59
972.67	227.74
972.96	227.70
973.26	227.62
973.55	227.70
973.85	227.76
974.14	227.71
974.43	227.70
974.73	227.71
975.02	227.76
975.31	227.81
975.61	227.84
975.90	227.99
976.19	227.99
976.49	227.99
976.78	227.98
977.07	228.00
977.37	227.97
977.66	228.07
977.95	228.04
978.24	228.06
978.54	228.12
978.83	228.15
979.12	228.09
979.42	227.95
979.71	227.86
980.00	227.76
980.29	227.65
980.59	227.68
980.88	227.63
981.17	227.61
981.46	227.58
981.76	227.47
982.05	227.50
982.34	227.58
982.63	227.55
982.93	227.44
983.22	227.46
983.51	227.60
983.80	227.68
984.09	227.71
984.39	227.71
984.68	227.60
984.97	227.57
985.26	227.60
985.55	227.77
985.85	227.92
986.14	228.00
986.43	228.18
986.72	228.13
987.01	228.11
987.30	228.03
987.59	228.13
987.89	228.21
988.18	228.24
988.47	228.22
988.76	228.18
989.05	228.35
989.34	228.51
989.63	228.53
989.92	228.47
990.22	228.60
990.51	228.62
990.80	228.64
991.09	228.56
991.38	228.60
991.67	228.57
991.96	228.41
992.25	228.47
992.54	228.29
992.83	228.25
993.12	228.27
993.41	228.38
993.70	228.44
993.99	228.53
994.28	228.54
994.58	228.59
994.87	228.68
995.16	228.68
995.45	228.52
995.74	228.54
996.03	228.57
996.32	228.55
996.61	228.62
996.90	228.64
997.19	228.77
997.48	228.74
997.77	228.76
998.06	228.83
998.34	228.73
998.63	228.90
998.92	229.00
999.21	229.05
999.50	229.02
999.79	228.86
1000.08	228.80
1000.37	228.83
1000.66	228.82
1000.95	228.79
1001.24	228.79
1001.53	228.84
1001.82	228.84
1002.11	228.90
1002.40	228.87
1002.68	228.82
1002.97	228.93
1003.26	228.93
1003.55	228.93
1003.84	228.98
1004.13	228.96
1004.42	228.98
1004.71	228.95
1004.99	228.98
1005.28	229.00
1005.57	229.07
1005.86	229.12
1006.15	229.12
1006.44	229.07
1006.72	229.10
1007.01	229.11
1007.30	229.07
1007.59	229.07
1007.88	228.98
1008.17	228.93
1008.45	228.87
1008.74	228.81
1009.03	228.76
1009.32	228.68
1009.60	228.70
1009.89	228.70
1010.18	228.69
1010.47	228.72
1010.76	228.74
1011.04	228.74
1011.33	228.85
1011.62	228.75
1011.91	228.79
1012.19	228.73
1012.48	228.63
1012.77	228.60
1013.05	228.68
1013.34	228.63
1013.63	228.60
1013.92	228.59
1014.20	228.59
1014.49	228.70
1014.78	228.73
1015.06	228.66
1015.35	228.65
1015.64	228.64
1015.92	228.58
1016.21	228.53
1016.50	228.48
1016.78	228.37
1017.07	228.38
1017.36	228.28
1017.64	228.23
1017.93	228.19
1018.22	228.24
1018.50	228.32
1018.79	228.27
1019.08	228.17
1019.36	228.25
1019.65	228.22
1019.93	228.30
1020.22	228.37
1020.51	228.28
1020.79	228.28
1021.08	228.60
1021.36	228.70
1021.65	227.50
1021.94	228.40
1022.22	228.80
1022.51	227.50
1022.79	229.10
1023.08	230.30
1023.36	228.70
1023.65	229.10
>>>>>End Processed Spectral Data<<<<<
