SpectraSuite Data File
++++++++++++++++++++++++++++++++++++
Date: Fri Feb 01 14:41:43 EST 2013
User: group
Dark Spectrum Present: No
Reference Spectrum Present: No
Number of Sampled Component Spectra: 1
Spectrometers: USB2E7196
Integration Time (usec): 70000 (USB2E7196)
Spectra Averaged: 10 (USB2E7196)
Boxcar Smoothing: 10 (USB2E7196)
Correct for Electrical Dark: No (USB2E7196)
Strobe/Lamp Enabled: No (USB2E7196)
Correct for Detector Non-linearity: No (USB2E7196)
Correct for Stray Light: No (USB2E7196)
Number of Pixels in Processed Spectrum: 2048
>>>>>Begin Processed Spectral Data<<<<<
339.09	0.00
339.48	217.10
339.86	218.40
340.24	219.10
340.63	219.90
341.01	224.70
341.39	223.60
341.78	224.30
342.16	225.50
342.54	225.50
342.93	214.61
343.31	225.44
343.69	225.96
344.07	226.43
344.46	226.91
344.84	227.37
345.22	227.50
345.60	227.76
345.99	228.00
346.37	228.17
346.75	228.29
347.13	228.40
347.52	228.53
347.90	228.63
348.28	228.68
348.66	228.76
349.05	228.76
349.43	228.72
349.81	228.83
350.19	228.85
350.57	228.81
350.96	228.95
351.34	229.02
351.72	229.05
352.10	229.07
352.48	229.17
352.87	229.23
353.25	229.23
353.63	229.28
354.01	229.31
354.39	229.34
354.77	229.42
355.15	229.55
355.54	229.55
355.92	229.55
356.30	229.68
356.68	229.79
357.06	229.73
357.44	229.90
357.82	229.88
358.20	229.87
358.58	229.96
358.97	230.07
359.35	230.18
359.73	230.29
360.11	230.43
360.49	230.48
360.87	230.50
361.25	230.63
361.63	230.73
362.01	230.81
362.39	230.88
362.77	231.00
363.15	231.02
363.53	231.10
363.91	231.24
364.29	231.15
364.67	230.96
365.05	231.02
365.43	230.96
365.81	231.00
366.19	231.15
366.57	231.25
366.95	231.28
367.33	231.22
367.71	231.21
368.09	231.14
368.47	231.07
368.85	231.04
369.23	231.11
369.61	231.10
369.99	231.09
370.37	231.07
370.75	231.14
371.13	231.06
371.51	231.02
371.89	230.80
372.27	230.76
372.65	230.74
373.03	230.79
373.41	230.77
373.78	230.69
374.16	230.56
374.54	230.44
374.92	230.29
375.30	230.22
375.68	230.13
376.06	230.04
376.44	229.98
376.82	229.82
377.19	229.70
377.57	229.54
377.95	229.46
378.33	229.31
378.71	229.05
379.09	229.01
379.47	228.98
379.84	228.88
380.22	228.84
380.60	228.77
380.98	228.51
381.36	228.51
381.73	228.50
382.11	228.49
382.49	228.44
382.87	228.30
383.25	228.23
383.62	228.39
384.00	228.31
384.38	228.15
384.76	228.21
385.13	228.33
385.51	228.29
385.89	228.17
386.27	228.17
386.64	228.07
387.02	227.91
387.40	227.81
387.78	227.87
388.15	227.79
388.53	227.81
388.91	227.90
389.29	227.79
389.66	227.77
390.04	227.72
390.42	227.67
390.79	227.76
391.17	227.77
391.55	227.60
391.92	227.61
392.30	227.75
392.68	227.78
393.05	227.69
393.43	227.77
393.81	227.90
394.18	227.93
394.56	228.03
394.94	228.14
395.31	228.17
395.69	228.24
396.06	228.54
396.44	228.59
396.82	228.68
397.19	228.84
397.57	228.89
397.95	228.87
398.32	228.94
398.70	228.99
399.07	229.18
399.45	229.15
399.82	229.34
400.20	229.39
400.58	229.46
400.95	229.50
401.33	229.60
401.70	229.70
402.08	229.84
402.45	230.02
402.83	230.24
403.20	230.40
403.58	230.60
403.95	230.67
404.33	230.86
404.71	231.05
405.08	231.30
405.46	231.56
405.83	231.93
406.21	232.18
406.58	232.37
406.96	232.60
407.33	232.95
407.70	233.23
408.08	233.57
408.45	233.80
408.83	234.14
409.20	234.40
409.58	234.66
409.95	235.02
410.33	235.40
410.70	235.75
411.08	236.14
411.45	236.53
411.82	236.95
412.20	237.39
412.57	237.92
412.95	238.20
413.32	238.69
413.69	239.14
414.07	239.76
414.44	240.43
414.82	241.06
415.19	241.76
415.56	242.46
415.94	243.20
416.31	244.03
416.68	244.90
417.06	245.85
417.43	246.72
417.81	247.80
418.18	248.88
418.55	249.99
418.93	251.22
419.30	252.58
419.67	253.80
420.04	255.08
420.42	256.44
420.79	258.22
421.16	259.97
421.54	261.63
421.91	263.24
422.28	264.96
422.66	266.76
423.03	268.79
423.40	270.69
423.77	272.65
424.15	274.65
424.52	276.71
424.89	278.97
425.26	281.11
425.64	283.15
426.01	285.32
426.38	287.53
426.75	289.73
427.13	291.95
427.50	294.52
427.87	297.28
428.24	299.78
428.61	302.15
428.99	304.68
429.36	307.77
429.73	310.66
430.10	313.30
430.47	316.09
430.85	318.76
431.22	321.77
431.59	325.08
431.96	328.26
432.33	331.78
432.70	335.13
433.08	339.00
433.45	342.56
433.82	346.10
434.19	350.02
434.56	353.96
434.93	357.60
435.30	361.04
435.68	364.82
436.05	368.65
436.42	372.40
436.79	375.86
437.16	379.31
437.53	383.20
437.90	387.16
438.27	390.98
438.64	394.90
439.01	398.33
439.38	401.27
439.75	404.14
440.13	407.47
440.50	410.62
440.87	413.04
441.24	415.64
441.61	418.65
441.98	420.89
442.35	423.36
442.72	425.92
443.09	428.41
443.46	429.76
443.83	430.49
444.20	431.30
444.57	432.30
444.94	432.73
445.31	433.08
445.68	433.70
446.05	433.83
446.42	433.22
446.79	432.72
447.16	431.98
447.53	431.58
447.90	429.99
448.27	428.35
448.64	426.23
449.01	424.61
449.37	421.84
449.74	419.06
450.11	415.90
450.48	412.37
450.85	408.80
451.22	405.85
451.59	403.11
451.96	400.16
452.33	396.61
452.70	393.38
453.07	389.49
453.43	385.31
453.80	381.41
454.17	377.80
454.54	374.32
454.91	370.74
455.28	367.00
455.65	363.37
456.02	359.97
456.38	357.00
456.75	353.42
457.12	350.30
457.49	347.34
457.86	344.25
458.23	341.68
458.59	338.88
458.96	336.01
459.33	333.50
459.70	331.16
460.07	329.10
460.43	326.67
460.80	324.58
461.17	322.52
461.54	320.47
461.91	318.43
462.27	316.34
462.64	314.60
463.01	312.75
463.38	311.06
463.74	309.06
464.11	307.49
464.48	306.00
464.85	304.47
465.21	303.06
465.58	301.80
465.95	300.31
466.32	299.09
466.68	297.68
467.05	296.43
467.42	295.03
467.78	293.75
468.15	292.46
468.52	291.51
468.88	290.40
469.25	289.39
469.62	288.42
469.98	287.43
470.35	286.50
470.72	285.66
471.08	284.58
471.45	283.77
471.82	282.97
472.18	282.13
472.55	281.42
472.92	280.77
473.28	280.02
473.65	279.37
474.02	278.65
474.38	278.21
474.75	277.53
475.11	276.98
475.48	276.52
475.85	276.16
476.21	275.47
476.58	275.09
476.94	274.70
477.31	274.45
477.67	274.20
478.04	273.91
478.41	273.64
478.77	273.77
479.14	273.62
479.50	273.35
479.87	273.21
480.23	273.17
480.60	273.00
480.96	273.08
481.33	273.29
481.69	273.46
482.06	273.52
482.42	273.73
482.79	273.92
483.15	274.11
483.52	274.48
483.88	274.84
484.25	275.13
484.61	275.34
484.98	275.60
485.34	276.14
485.71	276.75
486.07	277.27
486.44	277.56
486.80	278.30
487.17	279.10
487.53	279.90
487.90	280.70
488.26	281.69
488.62	282.61
488.99	283.53
489.35	284.52
489.72	285.72
490.08	287.00
490.44	288.33
490.81	289.81
491.17	291.10
491.54	292.64
491.90	294.31
492.26	296.21
492.63	298.16
492.99	300.00
493.36	301.99
493.72	304.38
494.08	306.73
494.45	309.04
494.81	311.64
495.17	314.38
495.54	317.06
495.90	320.00
496.26	323.26
496.63	326.60
496.99	330.08
497.35	333.75
497.72	337.66
498.08	341.50
498.44	345.55
498.80	350.13
499.17	354.85
499.53	359.58
499.89	364.52
500.26	369.63
500.62	375.06
500.98	380.79
501.34	386.62
501.71	392.84
502.07	399.36
502.43	405.81
502.79	412.48
503.16	419.75
503.52	427.18
503.88	434.70
504.24	442.51
504.60	450.74
504.97	459.25
505.33	467.96
505.69	477.46
506.05	486.98
506.41	496.42
506.78	506.30
507.14	516.54
507.50	527.22
507.86	538.21
508.22	549.32
508.59	560.68
508.95	572.55
509.31	584.67
509.67	597.00
510.03	609.84
510.39	622.97
510.75	636.40
511.12	649.92
511.48	663.85
511.84	678.22
512.20	692.74
512.56	707.70
512.92	723.06
513.28	738.31
513.64	754.01
514.00	770.16
514.37	786.61
514.73	803.45
515.09	820.26
515.45	837.33
515.81	854.63
516.17	872.71
516.53	890.70
516.89	908.92
517.25	927.45
517.61	946.15
517.97	964.97
518.33	983.94
518.69	1003.29
519.05	1023.30
519.41	1043.23
519.77	1063.94
520.13	1084.16
520.49	1104.47
520.85	1124.60
521.21	1145.29
521.57	1166.70
521.93	1187.53
522.29	1208.95
522.65	1230.14
523.01	1251.47
523.37	1272.80
523.73	1294.31
524.09	1315.81
524.45	1337.48
524.81	1359.45
525.17	1381.74
525.53	1404.13
525.89	1426.62
526.25	1449.10
526.61	1470.79
526.97	1493.09
527.33	1514.85
527.68	1537.70
528.04	1560.21
528.40	1583.27
528.76	1606.37
529.12	1628.64
529.48	1651.77
529.84	1673.76
530.20	1696.56
530.56	1719.90
530.91	1743.81
531.27	1766.87
531.63	1789.68
531.99	1812.26
532.35	1834.47
532.71	1856.18
533.07	1879.13
533.42	1901.13
533.78	1922.95
534.14	1945.77
534.50	1966.84
534.86	1988.48
535.21	2009.15
535.57	2031.17
535.93	2052.52
536.29	2073.47
536.65	2094.88
537.00	2115.21
537.36	2136.20
537.72	2156.48
538.08	2176.54
538.44	2195.49
538.79	2214.58
539.15	2233.55
539.51	2253.40
539.87	2273.46
540.22	2293.20
540.58	2311.99
540.94	2330.64
541.29	2349.39
541.65	2366.89
542.01	2386.22
542.37	2404.95
542.72	2422.83
543.08	2439.70
543.44	2457.16
543.79	2472.87
544.15	2489.03
544.51	2506.40
544.87	2523.22
545.22	2539.26
545.58	2554.59
545.94	2569.20
546.29	2584.42
546.65	2599.46
547.01	2613.16
547.36	2626.36
547.72	2639.76
548.07	2652.65
548.43	2665.58
548.79	2677.78
549.14	2690.17
549.50	2700.99
549.86	2711.53
550.21	2722.96
550.57	2734.56
550.92	2745.14
551.28	2756.39
551.64	2766.79
551.99	2775.79
552.35	2785.06
552.70	2795.32
553.06	2805.66
553.41	2816.11
553.77	2825.31
554.13	2834.34
554.48	2843.29
554.84	2851.78
555.19	2860.34
555.55	2868.77
555.90	2876.79
556.26	2885.19
556.61	2892.85
556.97	2900.16
557.32	2907.77
557.68	2914.55
558.03	2921.13
558.39	2927.67
558.74	2935.50
559.10	2942.40
559.45	2949.28
559.81	2956.47
560.16	2961.78
560.52	2966.71
560.87	2972.33
561.23	2976.97
561.58	2982.43
561.94	2987.96
562.29	2992.57
562.64	2996.63
563.00	3000.53
563.35	3005.51
563.71	3010.60
564.06	3015.64
564.42	3020.70
564.77	3024.90
565.12	3029.75
565.48	3034.02
565.83	3037.29
566.19	3039.78
566.54	3042.20
566.89	3044.06
567.25	3045.62
567.60	3048.47
567.96	3050.17
568.31	3051.84
568.66	3053.81
569.02	3055.23
569.37	3055.79
569.72	3057.16
570.08	3057.53
570.43	3058.11
570.78	3057.32
571.14	3055.02
571.49	3053.52
571.84	3053.23
572.20	3051.67
572.55	3049.50
572.90	3046.71
573.26	3045.33
573.61	3043.28
573.96	3040.66
574.31	3037.45
574.67	3033.49
575.02	3028.92
575.37	3025.66
575.72	3020.72
576.08	3017.13
576.43	3012.42
576.78	3008.19
577.13	3004.34
577.49	3000.48
577.84	2995.69
578.19	2991.09
578.54	2986.94
578.90	2981.60
579.25	2974.64
579.60	2968.80
579.95	2962.65
580.30	2956.41
580.66	2949.32
581.01	2942.00
581.36	2935.47
581.71	2929.98
582.06	2923.92
582.42	2917.44
582.77	2910.50
583.12	2904.04
583.47	2897.36
583.82	2891.40
584.17	2884.18
584.53	2876.63
584.88	2869.46
585.23	2862.05
585.58	2855.46
585.93	2848.33
586.28	2841.42
586.63	2835.14
586.98	2828.63
587.34	2822.02
587.69	2815.19
588.04	2808.64
588.39	2801.96
588.74	2793.54
589.09	2785.18
589.44	2776.50
589.79	2769.40
590.14	2762.36
590.49	2754.21
590.84	2745.66
591.19	2737.40
591.54	2728.39
591.89	2718.25
592.25	2709.61
592.60	2700.17
592.95	2689.51
593.30	2679.87
593.65	2669.86
594.00	2659.80
594.35	2650.20
594.70	2639.74
595.05	2630.30
595.40	2620.33
595.75	2609.28
596.10	2600.50
596.45	2592.31
596.80	2584.26
597.15	2575.35
597.50	2565.36
597.85	2557.40
598.19	2548.69
598.54	2539.26
598.89	2531.39
599.24	2524.28
599.59	2515.08
599.94	2506.95
600.29	2498.44
600.64	2489.56
600.99	2479.88
601.34	2470.75
601.69	2460.90
602.04	2452.29
602.39	2442.89
602.74	2434.15
603.08	2426.49
603.43	2417.82
603.78	2407.94
604.13	2398.57
604.48	2388.18
604.83	2378.92
605.18	2369.12
605.53	2358.30
605.87	2347.23
606.22	2336.99
606.57	2325.73
606.92	2315.69
607.27	2305.86
607.62	2296.75
607.96	2287.39
608.31	2278.75
608.66	2268.16
609.01	2258.04
609.36	2246.54
609.70	2235.02
610.05	2223.46
610.40	2212.61
610.75	2201.22
611.10	2190.25
611.44	2177.71
611.79	2167.19
612.14	2155.67
612.49	2143.20
612.83	2132.22
613.18	2121.44
613.53	2110.28
613.88	2099.28
614.22	2088.05
614.57	2076.09
614.92	2064.30
615.27	2052.99
615.61	2041.60
615.96	2031.01
616.31	2020.52
616.65	2011.25
617.00	2001.43
617.35	1991.06
617.70	1979.77
618.04	1969.05
618.39	1958.46
618.74	1948.66
619.08	1937.77
619.43	1927.56
619.78	1918.01
620.12	1907.81
620.47	1897.60
620.82	1886.77
621.16	1876.79
621.51	1866.81
621.85	1856.64
622.20	1845.92
622.55	1835.43
622.89	1825.40
623.24	1815.83
623.59	1805.54
623.93	1795.35
624.28	1785.20
624.62	1775.22
624.97	1765.50
625.32	1755.72
625.66	1746.05
626.01	1736.64
626.35	1726.37
626.70	1716.23
627.04	1705.90
627.39	1695.69
627.73	1685.66
628.08	1676.20
628.43	1666.04
628.77	1655.79
629.12	1645.91
629.46	1636.00
629.81	1625.39
630.15	1614.58
630.50	1603.72
630.84	1593.03
631.19	1582.10
631.53	1571.91
631.88	1561.10
632.22	1550.47
632.57	1540.57
632.91	1529.71
633.26	1519.46
633.60	1509.04
633.95	1499.10
634.29	1489.58
634.64	1480.28
634.98	1469.89
635.32	1460.34
635.67	1451.34
636.01	1442.31
636.36	1432.40
636.70	1423.40
637.05	1414.78
637.39	1406.50
637.73	1397.79
638.08	1389.77
638.42	1381.64
638.77	1372.97
639.11	1364.38
639.45	1355.72
639.80	1346.80
640.14	1338.22
640.49	1329.18
640.83	1320.42
641.17	1312.00
641.52	1303.10
641.86	1293.99
642.20	1286.01
642.55	1276.88
642.89	1267.96
643.23	1258.65
643.58	1250.95
643.92	1242.23
644.26	1233.43
644.61	1224.69
644.95	1216.60
645.29	1207.42
645.64	1197.89
645.98	1189.01
646.32	1180.88
646.66	1172.68
647.01	1164.04
647.35	1156.08
647.69	1147.79
648.04	1140.33
648.38	1131.79
648.72	1123.08
649.06	1114.55
649.41	1106.30
649.75	1097.70
650.09	1089.07
650.43	1080.82
650.78	1071.95
651.12	1063.60
651.46	1055.55
651.80	1047.59
652.14	1039.43
652.49	1031.75
652.83	1024.28
653.17	1016.17
653.51	1008.11
653.85	1000.31
654.20	992.37
654.54	984.11
654.88	976.14
655.22	968.04
655.56	959.93
655.90	952.77
656.25	945.48
656.59	938.09
656.93	931.17
657.27	923.95
657.61	916.45
657.95	909.57
658.29	902.65
658.64	895.35
658.98	888.12
659.32	880.64
659.66	873.41
660.00	866.19
660.34	859.40
660.68	852.63
661.02	845.46
661.36	839.33
661.70	833.07
662.05	827.05
662.39	820.86
662.73	814.82
663.07	808.63
663.41	802.71
663.75	796.73
664.09	790.75
664.43	784.93
664.77	779.40
665.11	773.69
665.45	767.94
665.79	762.22
666.13	756.40
666.47	750.63
666.81	744.90
667.15	739.30
667.49	733.80
667.83	728.26
668.17	723.08
668.51	717.40
668.85	711.73
669.19	706.46
669.53	701.13
669.87	695.97
670.21	690.93
670.55	685.84
670.89	681.00
671.23	676.11
671.57	671.16
671.91	666.32
672.25	661.40
672.58	656.83
672.92	652.32
673.26	647.82
673.60	643.53
673.94	639.07
674.28	635.03
674.62	630.84
674.96	626.55
675.30	622.42
675.64	618.24
675.97	614.28
676.31	610.09
676.65	606.07
676.99	602.01
677.33	597.80
677.67	593.65
678.01	589.32
678.34	585.19
678.68	581.32
679.02	577.40
679.36	573.61
679.70	569.80
680.04	565.84
680.37	561.93
680.71	558.10
681.05	554.62
681.39	551.10
681.73	547.58
682.06	544.39
682.40	541.15
682.74	537.78
683.08	534.43
683.42	531.03
683.75	527.62
684.09	524.20
684.43	520.89
684.77	517.63
685.10	514.25
685.44	510.95
685.78	507.71
686.12	504.70
686.45	501.53
686.79	498.23
687.13	495.27
687.46	492.11
687.80	489.14
688.14	485.96
688.48	482.88
688.81	479.72
689.15	476.72
689.49	473.62
689.82	470.54
690.16	467.58
690.50	464.79
690.83	462.06
691.17	459.31
691.51	456.79
691.84	454.15
692.18	451.77
692.52	449.11
692.85	446.52
693.19	443.78
693.52	441.17
693.86	438.63
694.20	436.17
694.53	433.78
694.87	431.22
695.21	428.83
695.54	426.28
695.88	423.89
696.21	421.28
696.55	418.78
696.88	416.63
697.22	414.35
697.56	412.12
697.89	410.02
698.23	408.02
698.56	405.67
698.90	403.59
699.23	401.20
699.57	399.14
699.90	397.00
700.24	394.78
700.58	392.68
700.91	390.93
701.25	388.93
701.58	386.96
701.92	384.96
702.25	382.93
702.59	381.20
702.92	379.46
703.26	377.75
703.59	376.03
703.93	374.31
704.26	372.53
704.60	370.69
704.93	368.89
705.26	366.94
705.60	365.36
705.93	363.65
706.27	362.25
706.60	360.63
706.94	359.04
707.27	357.51
707.61	355.96
707.94	354.25
708.27	352.65
708.61	351.25
708.94	350.04
709.28	348.76
709.61	347.26
709.94	345.88
710.28	344.35
710.61	343.02
710.95	341.49
711.28	340.36
711.61	338.99
711.95	337.66
712.28	336.25
712.61	334.81
712.95	333.49
713.28	332.11
713.61	330.90
713.95	329.56
714.28	328.33
714.61	327.13
714.95	326.07
715.28	324.90
715.61	323.51
715.95	322.29
716.28	321.10
716.61	319.97
716.95	318.78
717.28	317.93
717.61	316.80
717.94	315.76
718.28	314.50
718.61	313.49
718.94	312.42
719.27	311.48
719.61	310.52
719.94	309.56
720.27	308.53
720.60	307.50
720.94	306.73
721.27	305.98
721.60	305.11
721.93	304.24
722.27	303.44
722.60	302.64
722.93	301.77
723.26	301.04
723.59	300.16
723.93	299.37
724.26	298.48
724.59	297.78
724.92	296.91
725.25	296.21
725.59	295.40
725.92	294.52
726.25	293.76
726.58	293.09
726.91	292.36
727.24	291.62
727.57	291.00
727.91	290.25
728.24	289.56
728.57	288.78
728.90	287.96
729.23	287.10
729.56	286.58
729.89	285.99
730.22	285.13
730.55	284.57
730.89	283.94
731.22	283.25
731.55	282.51
731.88	282.03
732.21	281.24
732.54	280.68
732.87	280.14
733.20	279.62
733.53	279.07
733.86	278.57
734.19	277.98
734.52	277.45
734.85	277.02
735.18	276.42
735.51	275.94
735.84	275.32
736.17	274.92
736.50	274.32
736.83	273.91
737.16	273.45
737.49	272.87
737.82	272.35
738.15	271.94
738.48	271.44
738.81	270.97
739.14	270.50
739.47	269.97
739.80	269.45
740.13	268.94
740.46	268.46
740.79	267.89
741.12	267.58
741.45	267.11
741.78	266.60
742.11	266.15
742.44	265.68
742.77	265.30
743.10	264.87
743.43	264.40
743.75	263.75
744.08	263.61
744.41	263.24
744.74	262.90
745.07	262.42
745.40	262.01
745.73	261.52
746.06	261.16
746.39	260.92
746.71	260.60
747.04	260.29
747.37	259.89
747.70	259.63
748.03	259.26
748.36	258.94
748.68	258.55
749.01	258.12
749.34	257.77
749.67	257.42
750.00	257.10
750.33	256.94
750.65	256.64
750.98	256.11
751.31	255.81
751.64	255.41
751.97	255.16
752.29	254.90
752.62	254.57
752.95	254.36
753.28	253.94
753.60	253.63
753.93	253.39
754.26	253.00
754.59	252.68
754.91	252.39
755.24	252.10
755.57	251.86
755.90	251.61
756.22	251.37
756.55	251.16
756.88	250.84
757.20	250.40
757.53	250.10
757.86	249.84
758.19	249.62
758.51	249.42
758.84	249.15
759.17	248.86
759.49	248.65
759.82	248.43
760.15	248.15
760.47	247.97
760.80	247.62
761.13	247.51
761.45	247.19
761.78	246.87
762.11	246.64
762.43	246.34
762.76	246.10
763.08	245.96
763.41	245.72
763.74	245.48
764.06	245.30
764.39	245.05
764.71	244.85
765.04	244.59
765.37	244.29
765.69	244.06
766.02	243.85
766.34	243.59
766.67	243.37
767.00	243.25
767.32	243.09
767.65	242.96
767.97	242.77
768.30	242.65
768.62	242.46
768.95	242.17
769.27	241.91
769.60	241.76
769.92	241.43
770.25	241.34
770.57	241.18
770.90	240.98
771.22	240.81
771.55	240.57
771.87	240.45
772.20	240.37
772.52	240.30
772.85	240.44
773.17	240.28
773.50	240.08
773.82	239.92
774.15	239.71
774.47	239.49
774.80	239.29
775.12	239.04
775.45	238.83
775.77	238.80
776.09	238.76
776.42	238.65
776.74	238.61
777.07	238.34
777.39	238.27
777.72	238.20
778.04	238.24
778.36	238.30
778.69	238.09
779.01	237.96
779.33	237.77
779.66	237.36
779.98	237.26
780.31	237.15
780.63	237.16
780.95	237.14
781.28	236.99
781.60	236.86
781.92	236.89
782.25	236.92
782.57	236.81
782.89	236.81
783.22	236.73
783.54	236.59
783.86	236.56
784.19	236.54
784.51	236.48
784.83	236.28
785.16	236.10
785.48	236.13
785.80	236.07
786.12	236.04
786.45	236.07
786.77	236.03
787.09	236.01
787.42	235.91
787.74	235.85
788.06	235.89
788.38	235.96
788.71	235.90
789.03	235.79
789.35	235.90
789.67	235.72
789.99	235.68
790.32	235.63
790.64	235.57
790.96	235.65
791.28	235.52
791.61	235.49
791.93	235.50
792.25	235.35
792.57	235.44
792.89	235.40
793.21	235.31
793.54	235.34
793.86	235.21
794.18	235.15
794.50	235.00
794.82	234.90
795.14	234.86
795.47	234.85
795.79	234.84
796.11	234.69
796.43	234.70
796.75	234.57
797.07	234.53
797.39	234.48
797.71	234.08
798.04	234.06
798.36	233.95
798.68	233.88
799.00	233.85
799.32	233.73
799.64	233.60
799.96	233.56
800.28	233.44
800.60	233.38
800.92	233.30
801.24	233.21
801.56	233.14
801.89	232.99
802.21	232.89
802.53	232.75
802.85	232.67
803.17	232.67
803.49	232.76
803.81	232.77
804.13	232.65
804.45	232.69
804.77	232.54
805.09	232.60
805.41	232.46
805.73	232.50
806.05	232.34
806.37	232.27
806.69	232.20
807.01	232.13
807.33	231.97
807.65	231.81
807.97	231.89
808.28	231.85
808.60	231.85
808.92	231.81
809.24	231.93
809.56	231.92
809.88	231.74
810.20	231.68
810.52	231.68
810.84	231.78
811.16	231.78
811.48	231.83
811.80	231.77
812.12	231.65
812.43	231.57
812.75	231.59
813.07	231.54
813.39	231.45
813.71	231.48
814.03	231.58
814.35	231.59
814.67	231.49
814.98	231.60
815.30	231.49
815.62	231.54
815.94	231.40
816.26	231.41
816.58	231.48
816.89	231.39
817.21	231.33
817.53	231.19
817.85	231.21
818.17	231.14
818.48	231.14
818.80	231.29
819.12	231.25
819.44	231.20
819.76	231.17
820.07	231.25
820.39	231.20
820.71	231.20
821.03	231.23
821.34	231.24
821.66	231.10
821.98	231.16
822.30	231.00
822.61	231.02
822.93	230.91
823.25	230.88
823.57	230.90
823.88	230.84
824.20	230.89
824.52	230.81
824.83	230.83
825.15	230.77
825.47	230.72
825.79	230.76
826.10	230.72
826.42	230.70
826.74	230.63
827.05	230.59
827.37	230.66
827.69	230.55
828.00	230.52
828.32	230.56
828.64	230.43
828.95	230.50
829.27	230.50
829.58	230.58
829.90	230.63
830.22	230.64
830.53	230.61
830.85	230.59
831.17	230.53
831.48	230.56
831.80	230.56
832.11	230.54
832.43	230.50
832.75	230.48
833.06	230.65
833.38	230.59
833.69	230.66
834.01	230.59
834.32	230.57
834.64	230.59
834.96	230.56
835.27	230.67
835.59	230.62
835.90	230.56
836.22	230.40
836.53	230.34
836.85	230.21
837.16	230.39
837.48	230.30
837.79	230.27
838.11	230.18
838.42	230.09
838.74	230.08
839.05	229.99
839.37	229.95
839.68	229.88
840.00	229.96
840.31	229.97
840.63	229.87
840.94	229.94
841.26	229.82
841.57	229.79
841.88	229.69
842.20	229.63
842.51	229.67
842.83	229.67
843.14	229.82
843.46	229.91
843.77	229.77
844.08	229.69
844.40	229.81
844.71	229.82
845.03	229.86
845.34	229.86
845.65	229.88
845.97	229.91
846.28	229.75
846.60	229.67
846.91	229.60
847.22	229.57
847.54	229.54
847.85	229.58
848.16	229.54
848.48	229.57
848.79	229.68
849.10	229.54
849.42	229.61
849.73	229.37
850.04	229.31
850.36	229.25
850.67	229.45
850.98	229.32
851.30	229.32
851.61	229.31
851.92	229.22
852.23	229.29
852.55	229.26
852.86	229.31
853.17	229.23
853.49	229.28
853.80	229.27
854.11	229.36
854.42	229.29
854.74	229.25
855.05	229.18
855.36	229.20
855.67	229.32
855.99	229.30
856.30	229.50
856.61	229.41
856.92	229.44
857.23	229.41
857.55	229.31
857.86	229.30
858.17	229.38
858.48	229.33
858.79	229.25
859.11	229.30
859.42	229.25
859.73	229.36
860.04	229.38
860.35	229.41
860.66	229.32
860.98	229.35
861.29	229.44
861.60	229.51
861.91	229.40
862.22	229.30
862.53	229.15
862.84	228.95
863.16	229.04
863.47	229.00
863.78	228.88
864.09	229.13
864.40	229.11
864.71	228.99
865.02	229.07
865.33	229.11
865.64	229.02
865.95	229.12
866.27	229.28
866.58	229.25
866.89	229.29
867.20	229.24
867.51	229.20
867.82	229.23
868.13	229.19
868.44	229.16
868.75	229.21
869.06	229.26
869.37	229.26
869.68	229.35
869.99	229.36
870.30	229.50
870.61	229.42
870.92	229.44
871.23	229.51
871.54	229.58
871.85	229.64
872.16	229.79
872.47	229.71
872.78	229.53
873.09	229.52
873.40	229.41
873.71	229.46
874.02	229.52
874.33	229.52
874.64	229.53
874.95	229.67
875.26	229.67
875.56	229.70
875.87	229.73
876.18	229.60
876.49	229.79
876.80	229.74
877.11	229.60
877.42	229.50
877.73	229.54
878.04	229.43
878.35	229.37
878.66	229.28
878.96	229.27
879.27	229.23
879.58	229.12
879.89	229.17
880.20	229.21
880.51	229.06
880.82	229.06
881.12	229.14
881.43	229.01
881.74	228.95
882.05	228.89
882.36	228.85
882.67	228.80
882.97	228.44
883.28	228.35
883.59	228.41
883.90	228.47
884.21	228.44
884.51	228.51
884.82	228.48
885.13	228.50
885.44	228.45
885.74	228.41
886.05	228.41
886.36	228.36
886.67	228.32
886.98	228.53
887.28	228.43
887.59	228.38
887.90	228.40
888.20	228.34
888.51	228.43
888.82	228.41
889.13	228.52
889.43	228.78
889.74	228.90
890.05	228.87
890.35	228.87
890.66	228.80
890.97	228.67
891.28	228.58
891.58	228.54
891.89	228.61
892.20	228.59
892.50	228.60
892.81	228.66
893.12	228.65
893.42	228.50
893.73	228.55
894.04	228.61
894.34	228.64
894.65	228.72
894.95	228.62
895.26	228.63
895.57	228.70
895.87	228.51
896.18	228.43
896.48	228.40
896.79	228.41
897.10	228.43
897.40	228.55
897.71	228.67
898.01	228.73
898.32	228.70
898.63	228.77
898.93	228.84
899.24	228.82
899.54	228.79
899.85	228.85
900.15	228.80
900.46	228.81
900.76	228.79
901.07	228.76
901.38	228.87
901.68	228.87
901.99	228.77
902.29	228.88
902.60	228.96
902.90	229.00
903.21	228.94
903.51	229.02
903.82	229.02
904.12	228.96
904.43	228.89
904.73	228.94
905.03	228.90
905.34	229.04
905.64	229.04
905.95	229.10
906.25	229.07
906.56	229.12
906.86	229.12
907.17	229.10
907.47	229.13
907.77	229.10
908.08	229.07
908.38	228.99
908.69	229.09
908.99	229.02
909.30	229.03
909.60	229.04
909.90	229.02
910.21	228.89
910.51	228.94
910.81	228.90
911.12	228.89
911.42	228.91
911.73	228.75
912.03	228.82
912.33	228.85
912.64	228.89
912.94	229.02
913.24	228.92
913.55	228.96
913.85	228.91
914.15	228.95
914.46	228.99
914.76	229.05
915.06	228.88
915.37	228.80
915.67	228.86
915.97	228.96
916.27	228.86
916.58	229.00
916.88	228.99
917.18	229.02
917.49	229.14
917.79	229.15
918.09	229.16
918.39	229.15
918.70	229.03
919.00	229.00
919.30	228.96
919.60	228.93
919.91	228.80
920.21	228.84
920.51	228.73
920.81	228.73
921.12	228.68
921.42	228.66
921.72	228.78
922.02	228.74
922.32	228.64
922.63	228.63
922.93	228.68
923.23	228.63
923.53	228.71
923.83	228.49
924.13	228.51
924.44	228.50
924.74	228.44
925.04	228.54
925.34	228.57
925.64	228.37
925.94	228.40
926.24	228.60
926.55	228.52
926.85	228.58
927.15	228.55
927.45	228.62
927.75	228.67
928.05	228.57
928.35	228.58
928.65	228.65
928.95	228.73
929.26	228.69
929.56	228.67
929.86	228.56
930.16	228.64
930.46	228.63
930.76	228.57
931.06	228.52
931.36	228.42
931.66	228.39
931.96	228.47
932.26	228.51
932.56	228.38
932.86	228.48
933.16	228.57
933.46	228.55
933.76	228.50
934.06	228.49
934.36	228.58
934.66	228.50
934.96	228.55
935.26	228.46
935.56	228.43
935.86	228.40
936.16	228.42
936.46	228.49
936.76	228.52
937.06	228.60
937.36	228.66
937.66	228.75
937.96	228.75
938.26	228.77
938.56	228.65
938.86	228.76
939.16	228.77
939.46	228.81
939.76	228.87
940.06	229.01
940.35	228.90
940.65	228.84
940.95	228.91
941.25	228.74
941.55	228.81
941.85	228.86
942.15	228.87
942.45	228.94
942.75	228.90
943.04	228.89
943.34	228.84
943.64	228.91
943.94	228.74
944.24	228.65
944.54	228.74
944.84	228.81
945.13	228.79
945.43	228.83
945.73	228.64
946.03	228.57
946.33	228.46
946.62	228.57
946.92	228.60
947.22	228.61
947.52	228.71
947.82	228.79
948.11	228.75
948.41	228.77
948.71	228.72
949.01	228.69
949.31	228.67
949.60	228.62
949.90	228.63
950.20	228.75
950.50	228.85
950.79	228.74
951.09	228.73
951.39	228.65
951.69	228.54
951.98	228.57
952.28	228.68
952.58	228.69
952.87	228.64
953.17	228.67
953.47	228.63
953.76	228.62
954.06	228.56
954.36	228.49
954.66	228.51
954.95	228.58
955.25	228.56
955.55	228.59
955.84	228.61
956.14	228.51
956.44	228.50
956.73	228.43
957.03	228.39
957.32	228.38
957.62	228.37
957.92	228.46
958.21	228.49
958.51	228.70
958.81	228.63
959.10	228.70
959.40	228.67
959.69	228.66
959.99	228.67
960.29	228.63
960.58	228.62
960.88	228.67
961.17	228.60
961.47	228.66
961.76	228.60
962.06	228.56
962.36	228.62
962.65	228.63
962.95	228.59
963.24	228.56
963.54	228.57
963.83	228.56
964.13	228.47
964.42	228.37
964.72	228.20
965.01	228.25
965.31	228.18
965.60	228.18
965.90	228.27
966.19	228.23
966.49	228.14
966.78	228.18
967.08	228.18
967.37	228.13
967.67	228.06
967.96	228.11
968.26	228.08
968.55	227.96
968.85	227.96
969.14	228.03
969.43	228.11
969.73	228.01
970.02	227.97
970.32	228.01
970.61	228.02
970.91	227.89
971.20	227.90
971.49	227.91
971.79	227.90
972.08	227.77
972.38	227.78
972.67	227.90
972.96	227.89
973.26	227.82
973.55	227.98
973.85	228.00
974.14	227.99
974.43	228.09
974.73	228.23
975.02	228.27
975.31	228.30
975.61	228.35
975.90	228.44
976.19	228.43
976.49	228.45
976.78	228.48
977.07	228.59
977.37	228.53
977.66	228.55
977.95	228.57
978.24	228.69
978.54	228.70
978.83	228.62
979.12	228.65
979.42	228.71
979.71	228.61
980.00	228.64
980.29	228.60
980.59	228.64
980.88	228.61
981.17	228.56
981.46	228.57
981.76	228.51
982.05	228.52
982.34	228.64
982.63	228.60
982.93	228.65
983.22	228.67
983.51	228.67
983.80	228.72
984.09	228.75
984.39	228.62
984.68	228.70
984.97	228.80
985.26	228.77
985.55	228.81
985.85	228.79
986.14	228.88
986.43	228.99
986.72	228.89
987.01	228.87
987.30	228.86
987.59	228.90
987.89	228.89
988.18	228.87
988.47	228.78
988.76	228.74
989.05	228.79
989.34	228.70
989.63	228.73
989.92	228.65
990.22	228.68
990.51	228.80
990.80	228.71
991.09	228.67
991.38	228.72
991.67	228.65
991.96	228.59
992.25	228.50
992.54	228.40
992.83	228.45
993.12	228.39
993.41	228.53
993.70	228.43
993.99	228.48
994.28	228.47
994.58	228.50
994.87	228.46
995.16	228.40
995.45	228.32
995.74	228.22
996.03	228.34
996.32	228.45
996.61	228.30
996.90	228.36
997.19	228.31
997.48	228.20
997.77	228.16
998.06	228.17
998.34	228.12
998.63	228.10
998.92	228.04
999.21	228.07
999.50	227.95
999.79	228.00
1000.08	228.00
1000.37	227.97
1000.66	227.93
1000.95	228.04
1001.24	228.07
1001.53	228.16
1001.82	228.15
1002.11	228.05
1002.40	227.89
1002.68	227.96
1002.97	228.04
1003.26	227.99
1003.55	227.96
1003.84	227.95
1004.13	228.00
1004.42	227.97
1004.71	228.00
1004.99	228.07
1005.28	228.16
1005.57	228.12
1005.86	228.00
1006.15	227.94
1006.44	228.05
1006.72	228.10
1007.01	228.08
1007.30	228.10
1007.59	228.13
1007.88	228.19
1008.17	228.14
1008.45	228.16
1008.74	228.20
1009.03	228.16
1009.32	228.26
1009.60	228.32
1009.89	228.38
1010.18	228.34
1010.47	228.36
1010.76	228.34
1011.04	228.33
1011.33	228.28
1011.62	228.36
1011.91	228.55
1012.19	228.62
1012.48	228.53
1012.77	228.59
1013.05	228.69
1013.34	228.76
1013.63	228.77
1013.92	228.84
1014.20	228.94
1014.49	228.92
1014.78	228.90
1015.06	228.87
1015.35	228.92
1015.64	229.05
1015.92	229.09
1016.21	229.19
1016.50	229.28
1016.78	229.43
1017.07	229.43
1017.36	229.51
1017.64	229.44
1017.93	229.41
1018.22	229.40
1018.50	229.46
1018.79	229.44
1019.08	229.39
1019.36	229.30
1019.65	229.26
1019.93	229.33
1020.22	229.30
1020.51	229.45
1020.79	229.43
1021.08	228.70
1021.36	228.80
1021.65	229.10
1021.94	229.50
1022.22	229.00
1022.51	228.60
1022.79	230.60
1023.08	228.20
1023.36	231.80
1023.65	228.60
>>>>>End Processed Spectral Data<<<<<
