SpectraSuite Data File
++++++++++++++++++++++++++++++++++++
Date: Fri Feb 01 14:40:57 EST 2013
User: group
Dark Spectrum Present: No
Reference Spectrum Present: No
Number of Sampled Component Spectra: 1
Spectrometers: USB2E7196
Integration Time (usec): 70000 (USB2E7196)
Spectra Averaged: 10 (USB2E7196)
Boxcar Smoothing: 10 (USB2E7196)
Correct for Electrical Dark: No (USB2E7196)
Strobe/Lamp Enabled: No (USB2E7196)
Correct for Detector Non-linearity: No (USB2E7196)
Correct for Stray Light: No (USB2E7196)
Number of Pixels in Processed Spectrum: 2048
>>>>>Begin Processed Spectral Data<<<<<
339.09	0.00
339.48	215.60
339.86	217.10
340.24	219.30
340.63	219.70
341.01	224.90
341.39	223.60
341.78	224.30
342.16	226.80
342.54	225.30
342.93	214.58
343.31	225.41
343.69	226.08
344.07	226.60
344.46	227.05
344.84	227.58
345.22	227.73
345.60	227.96
345.99	228.14
346.37	228.19
346.75	228.39
347.13	228.48
347.52	228.51
347.90	228.58
348.28	228.59
348.66	228.63
349.05	228.65
349.43	228.75
349.81	228.86
350.19	228.91
350.57	229.02
350.96	229.17
351.34	229.33
351.72	229.29
352.10	229.42
352.48	229.40
352.87	229.41
353.25	229.54
353.63	229.60
354.01	229.74
354.39	229.92
354.77	229.94
355.15	230.05
355.54	230.12
355.92	230.20
356.30	230.28
356.68	230.48
357.06	230.63
357.44	230.58
357.82	230.68
358.20	230.85
358.58	230.89
358.97	231.03
359.35	231.06
359.73	231.21
360.11	231.24
360.49	231.40
360.87	231.47
361.25	231.62
361.63	231.78
362.01	231.73
362.39	231.68
362.77	231.77
363.15	231.74
363.53	231.81
363.91	231.81
364.29	231.94
364.67	231.84
365.05	231.86
365.43	231.99
365.81	231.98
366.19	232.04
366.57	232.09
366.95	231.99
367.33	231.88
367.71	231.83
368.09	231.77
368.47	231.71
368.85	231.52
369.23	231.45
369.61	231.32
369.99	231.40
370.37	231.40
370.75	231.41
371.13	231.36
371.51	231.33
371.89	231.31
372.27	231.20
372.65	231.08
373.03	230.95
373.41	230.76
373.78	230.55
374.16	230.38
374.54	230.22
374.92	230.05
375.30	230.05
375.68	229.96
376.06	229.88
376.44	229.83
376.82	229.88
377.19	229.74
377.57	229.57
377.95	229.43
378.33	229.40
378.71	229.16
379.09	229.09
379.47	228.90
379.84	228.72
380.22	228.60
380.60	228.59
380.98	228.53
381.36	228.49
381.73	228.41
382.11	228.36
382.49	228.32
382.87	228.24
383.25	228.17
383.62	228.29
384.00	228.21
384.38	228.10
384.76	228.09
385.13	228.08
385.51	228.09
385.89	228.00
386.27	227.89
386.64	227.90
387.02	227.79
387.40	227.82
387.78	227.78
388.15	227.68
388.53	227.46
388.91	227.23
389.29	227.13
389.66	227.19
390.04	227.14
390.42	227.12
390.79	227.09
391.17	227.10
391.55	226.88
391.92	226.94
392.30	227.00
392.68	226.97
393.05	227.02
393.43	227.08
393.81	227.14
394.18	227.18
394.56	227.30
394.94	227.40
395.31	227.32
395.69	227.48
396.06	227.58
396.44	227.77
396.82	228.01
397.19	228.28
397.57	228.30
397.95	228.34
398.32	228.38
398.70	228.49
399.07	228.55
399.45	228.65
399.82	228.59
400.20	228.66
400.58	228.60
400.95	228.56
401.33	228.70
401.70	228.93
402.08	229.07
402.45	229.07
402.83	229.34
403.20	229.50
403.58	229.63
403.95	229.78
404.33	230.00
404.71	230.10
405.08	230.27
405.46	230.43
405.83	230.63
406.21	230.87
406.58	231.09
406.96	231.27
407.33	231.46
407.70	231.82
408.08	232.10
408.45	232.40
408.83	232.70
409.20	233.00
409.58	233.13
409.95	233.35
410.33	233.70
410.70	233.85
411.08	234.18
411.45	234.50
411.82	234.82
412.20	235.09
412.57	235.60
412.95	235.80
413.32	236.22
413.69	236.63
414.07	237.05
414.44	237.45
414.82	237.95
415.19	238.49
415.56	238.87
415.94	239.52
416.31	240.17
416.68	240.78
417.06	241.40
417.43	242.10
417.81	243.04
418.18	243.87
418.55	244.80
418.93	245.69
419.30	246.73
419.67	247.83
420.04	248.79
420.42	249.72
420.79	250.97
421.16	252.25
421.54	253.55
421.91	254.80
422.28	256.23
422.66	257.63
423.03	259.02
423.40	260.55
423.77	261.95
424.15	263.42
424.52	264.96
424.89	266.76
425.26	268.47
425.64	269.96
426.01	271.62
426.38	273.31
426.75	275.05
427.13	276.77
427.50	278.64
427.87	280.66
428.24	282.70
428.61	284.74
428.99	286.82
429.36	288.95
429.73	291.14
430.10	293.26
430.47	295.57
430.85	297.96
431.22	300.46
431.59	303.19
431.96	305.57
432.33	308.28
432.70	310.81
433.08	313.78
433.45	316.54
433.82	319.27
434.19	322.39
434.56	325.45
434.93	328.32
435.30	331.01
435.68	334.17
436.05	337.22
436.42	340.10
436.79	342.89
437.16	345.76
437.53	348.85
437.90	351.95
438.27	354.77
438.64	357.82
439.01	360.54
439.38	362.76
439.75	365.14
440.13	367.83
440.50	370.24
440.87	372.17
441.24	374.25
441.61	376.60
441.98	378.33
442.35	380.29
442.72	382.19
443.09	384.33
443.46	385.50
443.83	386.10
444.20	386.68
444.57	387.42
444.94	387.78
445.31	388.32
445.68	388.84
446.05	389.05
446.42	388.62
446.79	388.39
447.16	387.89
447.53	387.70
447.90	386.40
448.27	385.18
448.64	383.60
449.01	382.35
449.37	380.30
449.74	378.20
450.11	375.71
450.48	373.08
450.85	370.27
451.22	367.93
451.59	365.84
451.96	363.67
452.33	360.99
452.70	358.34
453.07	355.16
453.43	351.86
453.80	348.84
454.17	345.90
454.54	342.86
454.91	339.99
455.28	336.91
455.65	334.10
456.02	331.67
456.38	329.26
456.75	326.41
457.12	323.89
457.49	321.44
457.86	319.20
458.23	317.24
458.59	314.93
458.96	312.52
459.33	310.48
459.70	308.43
460.07	306.60
460.43	304.93
460.80	302.98
461.17	301.30
461.54	299.55
461.91	297.85
462.27	296.31
462.64	294.87
463.01	293.48
463.38	292.24
463.74	290.40
464.11	289.04
464.48	287.90
464.85	286.57
465.21	285.57
465.58	284.54
465.95	283.34
466.32	282.23
466.68	281.29
467.05	280.18
467.42	279.13
467.78	278.17
468.15	277.08
468.52	276.46
468.88	275.54
469.25	274.60
469.62	273.97
469.98	273.09
470.35	272.42
470.72	271.58
471.08	270.63
471.45	270.02
471.82	269.40
472.18	268.68
472.55	268.19
472.92	267.56
473.28	266.88
473.65	266.22
474.02	265.70
474.38	265.12
474.75	264.73
475.11	264.36
475.48	263.88
475.85	263.49
476.21	262.96
476.58	262.57
476.94	262.37
477.31	261.97
477.67	261.72
478.04	261.24
478.41	261.06
478.77	261.03
479.14	260.87
479.50	260.71
479.87	260.53
480.23	260.32
480.60	260.18
480.96	259.98
481.33	259.95
481.69	259.94
482.06	259.90
482.42	259.86
482.79	259.83
483.15	259.91
483.52	259.94
483.88	260.11
484.25	260.20
484.61	260.33
484.98	260.50
485.34	260.72
485.71	261.03
486.07	261.32
486.44	261.53
486.80	261.78
487.17	262.08
487.53	262.47
487.90	262.96
488.26	263.51
488.62	264.13
488.99	264.66
489.35	265.15
489.72	265.80
490.08	266.35
490.44	266.95
490.81	267.59
491.17	268.36
491.54	269.18
491.90	270.10
492.26	270.96
492.63	271.92
492.99	272.93
493.36	274.00
493.72	275.21
494.08	276.40
494.45	277.69
494.81	279.09
495.17	280.60
495.54	282.18
495.90	283.61
496.26	285.32
496.63	287.10
496.99	289.07
497.35	291.08
497.72	293.30
498.08	295.52
498.44	297.95
498.80	300.56
499.17	303.14
499.53	305.80
499.89	308.65
500.26	311.61
500.62	314.60
500.98	317.95
501.34	321.42
501.71	324.93
502.07	328.59
502.43	332.32
502.79	336.28
503.16	340.43
503.52	344.76
503.88	349.11
504.24	353.76
504.60	358.52
504.97	363.53
505.33	368.57
505.69	374.04
506.05	379.36
506.41	384.88
506.78	390.62
507.14	396.57
507.50	402.80
507.86	409.46
508.22	416.25
508.59	423.02
508.95	430.08
509.31	437.46
509.67	445.11
510.03	452.77
510.39	460.56
510.75	468.54
511.12	476.88
511.48	485.30
511.84	493.97
512.20	502.76
512.56	511.79
512.92	521.17
513.28	530.78
513.64	540.75
514.00	550.60
514.37	560.91
514.73	571.29
515.09	581.68
515.45	591.96
515.81	602.75
516.17	613.85
516.53	624.95
516.89	636.37
517.25	647.91
517.61	659.70
517.97	671.74
518.33	683.69
518.69	695.97
519.05	708.58
519.41	721.32
519.77	734.38
520.13	747.65
520.49	760.60
520.85	773.76
521.21	786.96
521.57	801.06
521.93	814.55
522.29	828.54
522.65	842.60
523.01	856.76
523.37	870.87
523.73	885.08
524.09	899.18
524.45	913.95
524.81	928.50
525.17	943.67
525.53	958.83
525.89	974.10
526.25	989.32
526.61	1004.38
526.97	1019.70
527.33	1034.93
527.68	1050.44
528.04	1066.03
528.40	1081.64
528.76	1097.82
529.12	1113.42
529.48	1129.62
529.84	1145.30
530.20	1161.24
530.56	1177.91
530.91	1194.70
531.27	1211.45
531.63	1228.04
531.99	1243.66
532.35	1259.64
532.71	1275.04
533.07	1291.11
533.42	1307.20
533.78	1323.14
534.14	1339.37
534.50	1354.71
534.86	1370.55
535.21	1386.08
535.57	1402.58
535.93	1418.20
536.29	1433.95
536.65	1449.77
537.00	1465.20
537.36	1481.25
537.72	1496.50
538.08	1511.36
538.44	1525.51
538.79	1539.98
539.15	1554.44
539.51	1569.88
539.87	1585.04
540.22	1600.06
540.58	1614.99
540.94	1629.35
541.29	1643.59
541.65	1657.49
542.01	1672.60
542.37	1686.78
542.72	1700.41
543.08	1713.55
543.44	1727.66
543.79	1740.37
544.15	1753.25
544.51	1766.42
544.87	1778.90
545.22	1791.84
545.58	1804.40
545.94	1816.64
546.29	1828.49
546.65	1840.33
547.01	1851.70
547.36	1863.03
547.72	1874.26
548.07	1884.92
548.43	1895.80
548.79	1906.49
549.14	1916.79
549.50	1926.14
549.86	1935.94
550.21	1945.55
550.57	1955.34
550.92	1964.53
551.28	1973.29
551.64	1982.04
551.99	1991.05
552.35	1999.81
552.70	2008.11
553.06	2016.77
553.41	2025.56
553.77	2034.31
554.13	2042.82
554.48	2050.67
554.84	2058.45
555.19	2066.14
555.55	2073.51
555.90	2080.69
556.26	2087.60
556.61	2094.42
556.97	2101.15
557.32	2108.26
557.68	2114.83
558.03	2121.40
558.39	2127.28
558.74	2134.93
559.10	2141.94
559.45	2147.98
559.81	2154.73
560.16	2160.88
560.52	2166.19
560.87	2172.39
561.23	2177.02
561.58	2182.55
561.94	2187.80
562.29	2192.01
562.64	2196.78
563.00	2201.25
563.35	2206.57
563.71	2211.72
564.06	2217.08
564.42	2222.04
564.77	2226.60
565.12	2231.53
565.48	2235.82
565.83	2239.66
566.19	2242.17
566.54	2244.91
566.89	2247.97
567.25	2250.67
567.60	2254.07
567.96	2257.41
568.31	2259.21
568.66	2262.10
569.02	2264.20
569.37	2265.78
569.72	2268.41
570.08	2270.04
570.43	2271.85
570.78	2272.46
571.14	2272.87
571.49	2273.16
571.84	2274.70
572.20	2274.50
572.55	2274.26
572.90	2273.50
573.26	2273.77
573.61	2274.03
573.96	2273.52
574.31	2271.96
574.67	2270.30
575.02	2268.17
575.37	2266.46
575.72	2264.42
576.08	2262.94
576.43	2260.96
576.78	2259.60
577.13	2257.76
577.49	2255.78
577.84	2253.35
578.19	2250.60
578.54	2247.88
578.90	2244.66
579.25	2240.39
579.60	2236.91
579.95	2233.30
580.30	2229.82
580.66	2226.05
581.01	2222.13
581.36	2218.49
581.71	2215.77
582.06	2211.97
582.42	2207.93
582.77	2203.11
583.12	2199.67
583.47	2195.75
583.82	2192.04
584.17	2187.21
584.53	2183.09
584.88	2178.66
585.23	2173.99
585.58	2170.20
585.93	2166.58
586.28	2162.93
586.63	2159.07
586.98	2154.95
587.34	2151.03
587.69	2146.47
588.04	2142.11
588.39	2138.02
588.74	2132.46
589.09	2126.67
589.44	2121.05
589.79	2116.81
590.14	2112.64
590.49	2107.46
590.84	2102.05
591.19	2096.31
591.54	2090.33
591.89	2083.02
592.25	2076.67
592.60	2070.30
592.95	2063.32
593.30	2056.88
593.65	2050.10
594.00	2043.37
594.35	2037.44
594.70	2030.31
595.05	2024.46
595.40	2017.49
595.75	2010.61
596.10	2004.93
596.45	1999.40
596.80	1994.12
597.15	1987.60
597.50	1981.24
597.85	1974.71
598.19	1968.41
598.54	1962.47
598.89	1957.17
599.24	1952.66
599.59	1947.02
599.94	1941.54
600.29	1936.00
600.64	1929.35
600.99	1922.30
601.34	1916.16
601.69	1909.05
602.04	1903.07
602.39	1896.55
602.74	1890.62
603.08	1884.86
603.43	1878.97
603.78	1872.15
604.13	1865.35
604.48	1858.69
604.83	1851.83
605.18	1845.54
605.53	1837.81
605.87	1829.52
606.22	1822.24
606.57	1814.80
606.92	1807.71
607.27	1801.06
607.62	1794.02
607.96	1787.48
608.31	1781.26
608.66	1773.67
609.01	1766.60
609.36	1758.80
609.70	1750.43
610.05	1742.12
610.40	1733.82
610.75	1724.98
611.10	1717.00
611.44	1708.15
611.79	1700.40
612.14	1692.29
612.49	1683.10
612.83	1675.18
613.18	1667.43
613.53	1659.18
613.88	1650.20
614.22	1641.68
614.57	1632.44
614.92	1623.85
615.27	1615.40
615.61	1607.43
615.96	1599.07
616.31	1591.10
616.65	1583.88
617.00	1576.64
617.35	1568.88
617.70	1560.94
618.04	1552.75
618.39	1544.80
618.74	1537.71
619.08	1529.23
619.43	1521.52
619.78	1514.26
620.12	1506.82
620.47	1499.03
620.82	1491.21
621.16	1483.94
621.51	1476.55
621.85	1469.10
622.20	1460.92
622.55	1453.32
622.89	1445.75
623.24	1438.81
623.59	1431.58
623.93	1423.93
624.28	1416.12
624.62	1408.66
624.97	1401.18
625.32	1394.68
625.66	1387.32
626.01	1379.53
626.35	1372.11
626.70	1364.57
627.04	1357.34
627.39	1349.49
627.73	1342.20
628.08	1334.92
628.43	1327.41
628.77	1320.04
629.12	1312.37
629.46	1305.59
629.81	1297.55
630.15	1289.38
630.50	1281.45
630.84	1272.93
631.19	1264.89
631.53	1256.94
631.88	1248.63
632.22	1240.27
632.57	1232.51
632.91	1224.65
633.26	1217.41
633.60	1209.82
633.95	1202.05
634.29	1194.56
634.64	1187.62
634.98	1180.03
635.32	1173.13
635.67	1166.28
636.01	1159.36
636.36	1152.38
636.70	1145.42
637.05	1138.81
637.39	1132.54
637.73	1125.54
638.08	1119.65
638.42	1113.34
638.77	1106.99
639.11	1100.97
639.45	1094.81
639.80	1087.98
640.14	1081.69
640.49	1074.86
640.83	1068.37
641.17	1062.00
641.52	1055.38
641.86	1048.49
642.20	1042.43
642.55	1035.53
642.89	1028.84
643.23	1022.08
643.58	1015.90
643.92	1009.30
644.26	1002.76
644.61	996.26
644.95	990.33
645.29	983.14
645.64	976.18
645.98	969.78
646.32	963.64
646.66	957.14
647.01	950.76
647.35	944.56
647.69	938.26
648.04	932.12
648.38	925.64
648.72	919.21
649.06	913.03
649.41	906.72
649.75	900.32
650.09	893.77
650.43	887.44
650.78	880.86
651.12	874.43
651.46	868.50
651.80	862.37
652.14	856.29
652.49	850.61
652.83	844.98
653.17	838.76
653.51	832.21
653.85	826.40
654.20	820.51
654.54	814.16
654.88	808.23
655.22	802.04
655.56	796.04
655.90	790.46
656.25	784.96
656.59	779.22
656.93	773.98
657.27	768.69
657.61	762.82
657.95	757.50
658.29	752.18
658.64	746.55
658.98	740.81
659.32	734.88
659.66	729.19
660.00	723.59
660.34	718.38
660.68	713.40
661.02	708.31
661.36	703.23
661.70	698.43
662.05	693.60
662.39	689.11
662.73	684.55
663.07	679.86
663.41	675.13
663.75	670.47
664.09	665.56
664.43	660.99
664.77	656.80
665.11	652.54
665.45	648.32
665.79	644.26
666.13	640.01
666.47	635.97
666.81	631.87
667.15	627.29
667.49	623.12
667.83	619.21
668.17	615.02
668.51	610.93
668.85	606.63
669.19	602.87
669.53	598.76
669.87	594.72
670.21	590.87
670.55	586.90
670.89	583.49
671.23	579.96
671.57	576.34
671.91	572.63
672.25	568.95
672.58	565.21
672.92	561.24
673.26	558.12
673.60	554.87
673.94	551.66
674.28	548.79
674.62	545.85
674.96	542.65
675.30	539.71
675.64	536.62
675.97	533.75
676.31	530.54
676.65	527.57
676.99	524.86
677.33	521.76
677.67	518.85
678.01	515.66
678.34	512.46
678.68	509.53
679.02	506.61
679.36	503.79
679.70	500.97
680.04	498.22
680.37	495.02
680.71	491.92
681.05	489.20
681.39	486.55
681.73	483.76
682.06	481.05
682.40	478.26
682.74	475.66
683.08	473.13
683.42	470.34
683.75	467.61
684.09	464.66
684.43	462.20
684.77	459.69
685.10	457.10
685.44	454.70
685.78	452.10
686.12	449.67
686.45	447.17
686.79	444.79
687.13	442.59
687.46	440.24
687.80	438.01
688.14	435.53
688.48	433.19
688.81	430.71
689.15	428.40
689.49	425.96
689.82	423.51
690.16	421.06
690.50	419.06
690.83	416.92
691.17	414.92
691.51	412.84
691.84	410.83
692.18	408.67
692.52	406.55
692.85	404.57
693.19	402.54
693.52	400.45
693.86	398.29
694.20	396.15
694.53	394.25
694.87	392.38
695.21	390.54
695.54	388.42
695.88	386.40
696.21	384.40
696.55	382.62
696.88	380.84
697.22	378.97
697.56	377.16
697.89	375.31
698.23	373.46
698.56	371.46
698.90	369.51
699.23	367.67
699.57	365.93
699.90	364.13
700.24	362.29
700.58	360.64
700.91	359.11
701.25	357.55
701.58	355.91
701.92	354.22
702.25	352.65
702.59	351.25
702.92	349.96
703.26	348.47
703.59	346.85
703.93	345.61
704.26	344.31
704.60	342.80
704.93	341.32
705.26	340.09
705.60	338.93
705.93	337.72
706.27	336.61
706.60	335.42
706.94	334.16
707.27	333.01
707.61	331.72
707.94	330.39
708.27	329.08
708.61	327.86
708.94	326.65
709.28	325.33
709.61	324.11
709.94	322.93
710.28	321.83
710.61	320.87
710.95	319.43
711.28	318.44
711.61	317.47
711.95	316.50
712.28	315.24
712.61	314.09
712.95	313.04
713.28	312.12
713.61	310.99
713.95	310.00
714.28	309.04
714.61	308.18
714.95	307.17
715.28	306.14
715.61	305.14
715.95	304.25
716.28	303.44
716.61	302.76
716.95	301.80
717.28	301.01
717.61	300.15
717.94	299.47
718.28	298.46
718.61	297.50
718.94	296.76
719.27	296.12
719.61	295.49
719.94	294.68
720.27	293.78
720.60	293.13
720.94	292.49
721.27	291.82
721.60	291.14
721.93	290.62
722.27	290.13
722.60	289.58
722.93	288.99
723.26	288.27
723.59	287.50
723.93	287.05
724.26	286.43
724.59	285.81
724.92	285.11
725.25	284.53
725.59	283.92
725.92	283.37
726.25	282.68
726.58	282.06
726.91	281.51
727.24	280.96
727.57	280.48
727.91	279.85
728.24	279.32
728.57	278.61
728.90	278.08
729.23	277.47
729.56	276.97
729.89	276.34
730.22	275.84
730.55	275.34
730.89	274.72
731.22	274.14
731.55	273.64
731.88	273.20
732.21	272.74
732.54	272.31
732.87	271.80
733.20	271.40
733.53	270.91
733.86	270.50
734.19	270.00
734.52	269.42
734.85	269.05
735.18	268.41
735.51	268.08
735.84	267.60
736.17	267.15
736.50	266.64
736.83	266.49
737.16	266.11
737.49	265.55
737.82	265.05
738.15	264.63
738.48	264.09
738.81	263.71
739.14	263.35
739.47	262.92
739.80	262.42
740.13	261.99
740.46	261.53
740.79	261.10
741.12	260.62
741.45	260.20
741.78	259.79
742.11	259.58
742.44	259.05
742.77	258.66
743.10	258.26
743.43	257.95
743.75	257.30
744.08	257.18
744.41	256.88
744.74	256.55
745.07	256.14
745.40	255.93
745.73	255.65
746.06	255.24
746.39	254.90
746.71	254.70
747.04	254.37
747.37	254.04
747.70	253.72
748.03	253.53
748.36	253.20
748.68	252.90
749.01	252.39
749.34	252.17
749.67	251.95
750.00	251.80
750.33	251.61
750.65	251.46
750.98	250.98
751.31	250.73
751.64	250.51
751.97	250.45
752.29	250.23
752.62	249.77
752.95	249.50
753.28	249.28
753.60	248.89
753.93	248.83
754.26	248.53
754.59	248.33
754.91	248.04
755.24	247.86
755.57	247.52
755.90	247.36
756.22	247.12
756.55	246.79
756.88	246.44
757.20	246.05
757.53	245.80
757.86	245.50
758.19	245.37
758.51	245.20
758.84	244.91
759.17	244.57
759.49	244.47
759.82	244.42
760.15	244.25
760.47	244.10
760.80	243.71
761.13	243.59
761.45	243.33
761.78	243.24
762.11	243.09
762.43	243.01
762.76	242.97
763.08	242.92
763.41	242.80
763.74	242.75
764.06	242.68
764.39	242.44
764.71	242.34
765.04	242.16
765.37	242.00
765.69	241.90
766.02	241.78
766.34	241.62
766.67	241.42
767.00	241.40
767.32	241.40
767.65	241.48
767.97	241.37
768.30	241.20
768.62	241.00
768.95	240.90
769.27	240.71
769.60	240.63
769.92	240.39
770.25	240.29
770.57	240.01
770.90	239.77
771.22	239.70
771.55	239.49
771.87	239.37
772.20	239.20
772.52	239.14
772.85	239.32
773.17	239.19
773.50	239.04
773.82	238.77
774.15	238.60
774.47	238.28
774.80	238.14
775.12	237.93
775.45	237.83
775.77	237.63
776.09	237.58
776.42	237.37
776.74	237.41
777.07	237.28
777.39	237.23
777.72	237.19
778.04	237.15
778.36	237.08
778.69	236.93
779.01	236.92
779.33	236.70
779.66	236.32
779.98	236.23
780.31	236.16
780.63	236.16
780.95	236.14
781.28	236.04
781.60	236.00
781.92	236.10
782.25	236.01
782.57	236.09
782.89	235.99
783.22	235.93
783.54	235.73
783.86	235.62
784.19	235.55
784.51	235.50
784.83	235.30
785.16	235.25
785.48	235.16
785.80	235.07
786.12	234.98
786.45	234.96
786.77	235.01
787.09	234.91
787.42	234.81
787.74	234.60
788.06	234.60
788.38	234.56
788.71	234.46
789.03	234.39
789.35	234.27
789.67	234.17
789.99	234.10
790.32	234.03
790.64	234.02
790.96	234.04
791.28	233.97
791.61	233.97
791.93	233.88
792.25	233.86
792.57	233.80
792.89	233.76
793.21	233.67
793.54	233.50
793.86	233.45
794.18	233.34
794.50	233.29
794.82	233.20
795.14	233.05
795.47	233.08
795.79	233.11
796.11	233.03
796.43	232.99
796.75	232.94
797.07	233.00
797.39	233.06
797.71	232.97
798.04	232.98
798.36	232.91
798.68	232.91
799.00	232.88
799.32	232.85
799.64	232.81
799.96	232.83
800.28	232.90
800.60	232.78
800.92	232.84
801.24	232.80
801.56	232.92
801.89	232.84
802.21	232.76
802.53	232.68
802.85	232.68
803.17	232.86
803.49	232.77
803.81	232.66
804.13	232.52
804.45	232.52
804.77	232.51
805.09	232.43
805.41	232.40
805.73	232.37
806.05	232.26
806.37	232.29
806.69	232.29
807.01	232.11
807.33	232.03
807.65	231.94
807.97	232.00
808.28	231.81
808.60	231.86
808.92	231.78
809.24	231.80
809.56	231.67
809.88	231.42
810.20	231.46
810.52	231.50
810.84	231.50
811.16	231.33
811.48	231.25
811.80	231.41
812.12	231.40
812.43	231.40
812.75	231.54
813.07	231.47
813.39	231.33
813.71	231.29
814.03	231.40
814.35	231.38
814.67	231.42
814.98	231.38
815.30	231.36
815.62	231.39
815.94	231.27
816.26	231.45
816.58	231.48
816.89	231.47
817.21	231.39
817.53	231.39
817.85	231.44
818.17	231.39
818.48	231.30
818.80	231.31
819.12	231.20
819.44	230.92
819.76	230.84
820.07	230.87
820.39	230.86
820.71	230.79
821.03	230.65
821.34	230.53
821.66	230.56
821.98	230.62
822.30	230.57
822.61	230.68
822.93	230.44
823.25	230.25
823.57	230.27
823.88	230.34
824.20	230.24
824.52	230.22
824.83	230.19
825.15	230.12
825.47	230.11
825.79	230.16
826.10	230.16
826.42	230.10
826.74	230.11
827.05	230.17
827.37	230.31
827.69	230.40
828.00	230.44
828.32	230.39
828.64	230.32
828.95	230.38
829.27	230.38
829.58	230.36
829.90	230.48
830.22	230.38
830.53	230.30
830.85	230.32
831.17	230.21
831.48	230.18
831.80	230.13
832.11	230.12
832.43	229.98
832.75	229.94
833.06	230.11
833.38	230.00
833.69	229.96
834.01	229.90
834.32	229.78
834.64	229.70
834.96	229.74
835.27	229.71
835.59	229.76
835.90	229.58
836.22	229.57
836.53	229.55
836.85	229.52
837.16	229.60
837.48	229.60
837.79	229.73
838.11	229.78
838.42	229.75
838.74	229.69
839.05	229.76
839.37	229.80
839.68	229.70
840.00	229.80
840.31	229.78
840.63	229.64
840.94	229.64
841.26	229.63
841.57	229.62
841.88	229.50
842.20	229.36
842.51	229.41
842.83	229.46
843.14	229.66
843.46	229.65
843.77	229.51
844.08	229.46
844.40	229.40
844.71	229.36
845.03	229.37
845.34	229.32
845.65	229.29
845.97	229.35
846.28	229.36
846.60	229.37
846.91	229.35
847.22	229.27
847.54	229.33
847.85	229.29
848.16	229.25
848.48	229.32
848.79	229.31
849.10	229.22
849.42	229.15
849.73	228.87
850.04	228.86
850.36	228.88
850.67	228.92
850.98	228.95
851.30	229.00
851.61	229.05
851.92	229.08
852.23	229.14
852.55	229.13
852.86	229.07
853.17	228.97
853.49	229.05
853.80	229.11
854.11	229.10
854.42	229.09
854.74	229.10
855.05	229.05
855.36	229.03
855.67	229.06
855.99	229.18
856.30	229.42
856.61	229.47
856.92	229.41
857.23	229.43
857.55	229.30
857.86	229.27
858.17	229.24
858.48	229.13
858.79	229.01
859.11	229.06
859.42	229.11
859.73	229.07
860.04	229.01
860.35	229.00
860.66	228.96
860.98	228.97
861.29	228.95
861.60	228.90
861.91	228.90
862.22	228.84
862.53	228.73
862.84	228.42
863.16	228.37
863.47	228.37
863.78	228.37
864.09	228.40
864.40	228.34
864.71	228.29
865.02	228.40
865.33	228.50
865.64	228.45
865.95	228.46
866.27	228.63
866.58	228.65
866.89	228.67
867.20	228.60
867.51	228.63
867.82	228.55
868.13	228.62
868.44	228.56
868.75	228.67
869.06	228.73
869.37	228.81
869.68	228.79
869.99	228.85
870.30	228.77
870.61	228.84
870.92	228.86
871.23	228.93
871.54	228.85
871.85	228.86
872.16	228.84
872.47	228.75
872.78	228.71
873.09	228.68
873.40	228.70
873.71	228.82
874.02	228.89
874.33	228.94
874.64	228.93
874.95	229.07
875.26	229.05
875.56	228.98
875.87	229.03
876.18	229.11
876.49	229.26
876.80	229.28
877.11	229.24
877.42	229.22
877.73	229.20
878.04	229.40
878.35	229.51
878.66	229.47
878.96	229.49
879.27	229.45
879.58	229.45
879.89	229.44
880.20	229.45
880.51	229.41
880.82	229.47
881.12	229.47
881.43	229.33
881.74	229.23
882.05	229.31
882.36	229.30
882.67	229.30
882.97	229.19
883.28	229.19
883.59	229.20
883.90	229.23
884.21	229.20
884.51	229.12
884.82	229.03
885.13	229.14
885.44	229.09
885.74	228.97
886.05	228.97
886.36	228.89
886.67	228.80
886.98	228.81
887.28	228.80
887.59	228.85
887.90	228.84
888.20	228.84
888.51	228.89
888.82	228.90
889.13	228.89
889.43	228.98
889.74	229.02
890.05	228.96
890.35	228.92
890.66	228.86
890.97	228.71
891.28	228.68
891.58	228.57
891.89	228.56
892.20	228.55
892.50	228.47
892.81	228.56
893.12	228.53
893.42	228.48
893.73	228.44
894.04	228.40
894.34	228.45
894.65	228.44
894.95	228.39
895.26	228.39
895.57	228.41
895.87	228.18
896.18	228.14
896.48	228.20
896.79	228.19
897.10	228.24
897.40	228.26
897.71	228.19
898.01	228.19
898.32	228.36
898.63	228.38
898.93	228.39
899.24	228.33
899.54	228.32
899.85	228.33
900.15	228.41
900.46	228.36
900.76	228.32
901.07	228.34
901.38	228.32
901.68	228.31
901.99	228.14
902.29	228.17
902.60	228.11
902.90	228.08
903.21	228.12
903.51	228.15
903.82	228.28
904.12	228.40
904.43	228.41
904.73	228.25
905.03	228.23
905.34	228.42
905.64	228.40
905.95	228.43
906.25	228.47
906.56	228.32
906.86	228.32
907.17	228.34
907.47	228.34
907.77	228.28
908.08	228.19
908.38	228.29
908.69	228.28
908.99	228.28
909.30	228.42
909.60	228.34
909.90	228.48
910.21	228.43
910.51	228.35
910.81	228.38
911.12	228.41
911.42	228.42
911.73	228.28
912.03	228.28
912.33	228.34
912.64	228.25
912.94	228.33
913.24	228.40
913.55	228.45
913.85	228.50
914.15	228.68
914.46	228.66
914.76	228.58
915.06	228.64
915.37	228.80
915.67	228.68
915.97	228.77
916.27	228.47
916.58	228.49
916.88	228.47
917.18	228.52
917.49	228.67
917.79	228.73
918.09	228.71
918.39	228.80
918.70	228.75
919.00	228.80
919.30	228.88
919.60	228.91
919.91	228.92
920.21	228.93
920.51	228.77
920.81	228.85
921.12	228.90
921.42	228.91
921.72	228.82
922.02	228.81
922.32	228.78
922.63	228.90
922.93	228.94
923.23	229.00
923.53	228.95
923.83	228.83
924.13	228.84
924.44	228.91
924.74	228.97
925.04	229.05
925.34	229.01
925.64	228.96
925.94	228.93
926.24	229.01
926.55	228.98
926.85	229.00
927.15	228.97
927.45	229.07
927.75	228.92
928.05	228.90
928.35	228.93
928.65	228.92
928.95	228.96
929.26	228.87
929.56	228.85
929.86	228.94
930.16	229.02
930.46	229.02
930.76	228.98
931.06	228.88
931.36	228.84
931.66	228.86
931.96	228.87
932.26	228.80
932.56	228.66
932.86	228.66
933.16	228.66
933.46	228.60
933.76	228.55
934.06	228.68
934.36	228.74
934.66	228.66
934.96	228.68
935.26	228.69
935.56	228.65
935.86	228.63
936.16	228.54
936.46	228.45
936.76	228.34
937.06	228.31
937.36	228.38
937.66	228.38
937.96	228.29
938.26	228.27
938.56	228.18
938.86	228.12
939.16	228.07
939.46	227.99
939.76	228.03
940.06	228.06
940.35	227.99
940.65	227.80
940.95	227.80
941.25	227.77
941.55	227.63
941.85	227.67
942.15	227.62
942.45	227.59
942.75	227.55
943.04	227.66
943.34	227.67
943.64	227.64
943.94	227.50
944.24	227.53
944.54	227.52
944.84	227.68
945.13	227.64
945.43	227.66
945.73	227.72
946.03	227.70
946.33	227.63
946.62	227.62
946.92	227.62
947.22	227.61
947.52	227.59
947.82	227.69
948.11	227.66
948.41	227.68
948.71	227.67
949.01	227.66
949.31	227.57
949.60	227.60
949.90	227.54
950.20	227.60
950.50	227.69
950.79	227.67
951.09	227.65
951.39	227.75
951.69	227.78
951.98	227.90
952.28	227.94
952.58	227.91
952.87	227.95
953.17	228.07
953.47	228.18
953.76	228.26
954.06	228.30
954.36	228.29
954.66	228.34
954.95	228.38
955.25	228.46
955.55	228.53
955.84	228.43
956.14	228.53
956.44	228.67
956.73	228.61
957.03	228.55
957.32	228.58
957.62	228.57
957.92	228.69
958.21	228.64
958.51	228.88
958.81	228.98
959.10	229.02
959.40	229.10
959.69	229.08
959.99	229.04
960.29	229.09
960.58	229.10
960.88	229.14
961.17	229.20
961.47	229.21
961.76	229.17
962.06	229.30
962.36	229.27
962.65	229.22
962.95	229.20
963.24	229.35
963.54	229.30
963.83	229.27
964.13	229.22
964.42	229.18
964.72	229.03
965.01	229.00
965.31	228.94
965.60	228.87
965.90	229.05
966.19	229.04
966.49	228.93
966.78	228.96
967.08	228.91
967.37	228.86
967.67	228.85
967.96	228.83
968.26	228.80
968.55	228.80
968.85	228.71
969.14	228.79
969.43	228.65
969.73	228.60
970.02	228.63
970.32	228.62
970.61	228.62
970.91	228.55
971.20	228.46
971.49	228.46
971.79	228.50
972.08	228.31
972.38	228.30
972.67	228.32
972.96	228.29
973.26	228.26
973.55	228.31
973.85	228.28
974.14	228.32
974.43	228.27
974.73	228.13
975.02	228.16
975.31	228.09
975.61	228.12
975.90	228.23
976.19	228.14
976.49	228.08
976.78	228.13
977.07	228.14
977.37	228.22
977.66	228.16
977.95	228.05
978.24	228.01
978.54	228.05
978.83	228.06
979.12	228.11
979.42	228.04
979.71	227.94
980.00	227.95
980.29	227.99
980.59	227.90
980.88	228.01
981.17	228.03
981.46	228.07
981.76	228.04
982.05	228.01
982.34	228.11
982.63	228.17
982.93	228.10
983.22	228.07
983.51	227.97
983.80	228.03
984.09	228.11
984.39	228.07
984.68	228.06
984.97	228.08
985.26	227.94
985.55	227.96
985.85	227.98
986.14	227.95
986.43	227.93
986.72	228.01
987.01	227.93
987.30	227.92
987.59	227.91
987.89	228.04
988.18	228.00
988.47	227.90
988.76	227.85
989.05	227.86
989.34	227.97
989.63	228.11
989.92	228.11
990.22	228.01
990.51	228.06
990.80	228.05
991.09	228.10
991.38	228.20
991.67	228.19
991.96	228.19
992.25	228.34
992.54	228.39
992.83	228.36
993.12	228.36
993.41	228.39
993.70	228.49
993.99	228.48
994.28	228.63
994.58	228.73
994.87	228.80
995.16	228.80
995.45	228.77
995.74	228.72
996.03	228.82
996.32	229.07
996.61	229.17
996.90	229.16
997.19	229.11
997.48	229.16
997.77	229.12
998.06	229.22
998.34	229.08
998.63	229.06
998.92	229.22
999.21	229.30
999.50	229.33
999.79	229.26
1000.08	229.21
1000.37	229.16
1000.66	229.18
1000.95	229.27
1001.24	229.30
1001.53	229.17
1001.82	229.18
1002.11	229.12
1002.40	229.00
1002.68	228.94
1002.97	229.13
1003.26	229.18
1003.55	229.16
1003.84	229.35
1004.13	229.36
1004.42	229.38
1004.71	229.34
1004.99	229.26
1005.28	229.35
1005.57	229.44
1005.86	229.44
1006.15	229.42
1006.44	229.31
1006.72	229.24
1007.01	229.11
1007.30	229.07
1007.59	229.12
1007.88	229.08
1008.17	229.04
1008.45	228.97
1008.74	229.01
1009.03	228.91
1009.32	228.73
1009.60	228.72
1009.89	228.52
1010.18	228.46
1010.47	228.49
1010.76	228.46
1011.04	228.40
1011.33	228.39
1011.62	228.28
1011.91	228.14
1012.19	228.19
1012.48	228.16
1012.77	228.10
1013.05	228.11
1013.34	228.12
1013.63	228.18
1013.92	228.15
1014.20	228.10
1014.49	228.11
1014.78	227.96
1015.06	227.81
1015.35	227.87
1015.64	227.85
1015.92	227.90
1016.21	227.80
1016.50	227.63
1016.78	227.67
1017.07	227.65
1017.36	227.51
1017.64	227.42
1017.93	227.54
1018.22	227.47
1018.50	227.47
1018.79	227.52
1019.08	227.49
1019.36	227.48
1019.65	227.40
1019.93	227.50
1020.22	227.51
1020.51	227.59
1020.79	227.61
1021.08	227.30
1021.36	227.50
1021.65	227.90
1021.94	228.20
1022.22	227.30
1022.51	227.50
1022.79	229.50
1023.08	227.50
1023.36	229.50
1023.65	227.40
>>>>>End Processed Spectral Data<<<<<
