SpectraSuite Data File
++++++++++++++++++++++++++++++++++++
Date: Fri Feb 01 14:34:42 EST 2013
User: group
Dark Spectrum Present: No
Reference Spectrum Present: No
Number of Sampled Component Spectra: 1
Spectrometers: USB2E7196
Integration Time (usec): 70000 (USB2E7196)
Spectra Averaged: 10 (USB2E7196)
Boxcar Smoothing: 10 (USB2E7196)
Correct for Electrical Dark: No (USB2E7196)
Strobe/Lamp Enabled: No (USB2E7196)
Correct for Detector Non-linearity: No (USB2E7196)
Correct for Stray Light: No (USB2E7196)
Number of Pixels in Processed Spectrum: 2048
>>>>>Begin Processed Spectral Data<<<<<
339.09	0.00
339.48	214.40
339.86	217.70
340.24	217.40
340.63	220.00
341.01	224.90
341.39	222.60
341.78	225.60
342.16	225.20
342.54	227.10
342.93	214.58
343.31	225.50
343.69	226.15
344.07	226.67
344.46	227.28
344.84	227.68
345.22	227.76
345.60	228.09
345.99	228.18
346.37	228.30
346.75	228.35
347.13	228.32
347.52	228.33
347.90	228.31
348.28	228.32
348.66	228.44
349.05	228.48
349.43	228.60
349.81	228.65
350.19	228.63
350.57	228.69
350.96	228.82
351.34	228.87
351.72	228.92
352.10	228.95
352.48	228.97
352.87	228.97
353.25	229.08
353.63	229.12
354.01	229.18
354.39	229.26
354.77	229.27
355.15	229.34
355.54	229.45
355.92	229.62
356.30	229.70
356.68	229.86
357.06	229.88
357.44	229.91
357.82	229.76
358.20	229.88
358.58	229.90
358.97	230.01
359.35	230.01
359.73	230.12
360.11	230.16
360.49	230.14
360.87	230.29
361.25	230.39
361.63	230.45
362.01	230.49
362.39	230.59
362.77	230.70
363.15	230.68
363.53	230.77
363.91	230.71
364.29	230.75
364.67	230.63
365.05	230.70
365.43	230.69
365.81	230.92
366.19	231.03
366.57	231.09
366.95	231.08
367.33	231.01
367.71	230.99
368.09	231.12
368.47	231.03
368.85	230.92
369.23	230.87
369.61	230.84
369.99	230.80
370.37	230.71
370.75	230.77
371.13	230.76
371.51	230.60
371.89	230.56
372.27	230.49
372.65	230.47
373.03	230.53
373.41	230.53
373.78	230.42
374.16	230.21
374.54	230.16
374.92	230.05
375.30	230.00
375.68	229.91
376.06	229.72
376.44	229.76
376.82	229.66
377.19	229.63
377.57	229.49
377.95	229.48
378.33	229.36
378.71	229.12
379.09	229.10
379.47	229.10
379.84	229.05
380.22	229.01
380.60	228.90
380.98	228.76
381.36	228.67
381.73	228.60
382.11	228.51
382.49	228.40
382.87	228.29
383.25	228.29
383.62	228.40
384.00	228.40
384.38	228.31
384.76	228.30
385.13	228.37
385.51	228.27
385.89	228.20
386.27	228.15
386.64	228.20
387.02	228.07
387.40	227.99
387.78	227.83
388.15	227.75
388.53	227.75
388.91	227.55
389.29	227.42
389.66	227.53
390.04	227.57
390.42	227.54
390.79	227.61
391.17	227.53
391.55	227.35
391.92	227.22
392.30	227.24
392.68	227.28
393.05	227.20
393.43	227.27
393.81	227.21
394.18	227.30
394.56	227.28
394.94	227.37
395.31	227.37
395.69	227.53
396.06	227.59
396.44	227.52
396.82	227.70
397.19	227.93
397.57	227.86
397.95	227.94
398.32	227.99
398.70	228.14
399.07	228.34
399.45	228.53
399.82	228.71
400.20	228.78
400.58	228.85
400.95	228.99
401.33	229.20
401.70	229.61
402.08	229.78
402.45	229.99
402.83	230.23
403.20	230.48
403.58	230.70
403.95	231.03
404.33	231.39
404.71	231.70
405.08	231.96
405.46	232.24
405.83	232.68
406.21	233.05
406.58	233.45
406.96	233.81
407.33	234.12
407.70	234.74
408.08	235.30
408.45	235.95
408.83	236.45
409.20	237.04
409.58	237.56
409.95	238.40
410.33	239.17
410.70	239.88
411.08	240.61
411.45	241.45
411.82	242.24
412.20	243.19
412.57	244.40
412.95	245.39
413.32	246.58
413.69	247.70
414.07	248.94
414.44	250.20
414.82	251.73
415.19	253.31
415.56	254.74
415.94	256.43
416.31	258.35
416.68	260.14
417.06	262.27
417.43	264.22
417.81	266.39
418.18	268.76
418.55	271.33
418.93	274.17
419.30	277.05
419.67	280.10
420.04	283.16
420.42	286.20
420.79	289.90
421.16	293.57
421.54	297.30
421.91	301.17
422.28	305.20
422.66	309.40
423.03	313.62
423.40	318.05
423.77	322.77
424.15	327.33
424.52	332.31
424.89	337.73
425.26	343.12
425.64	347.94
426.01	353.29
426.38	358.84
426.75	364.49
427.13	370.34
427.50	376.30
427.87	382.66
428.24	389.10
428.61	395.04
428.99	401.79
429.36	409.28
429.73	416.57
430.10	423.51
430.47	430.66
430.85	438.16
431.22	446.12
431.59	454.36
431.96	462.45
432.33	471.48
432.70	479.77
433.08	489.81
433.45	499.44
433.82	508.90
434.19	519.48
434.56	529.73
434.93	539.60
435.30	549.42
435.68	560.44
436.05	571.01
436.42	581.84
436.79	591.18
437.16	601.39
437.53	612.48
437.90	623.63
438.27	634.38
438.64	645.58
439.01	655.80
439.38	664.88
439.75	673.80
440.13	683.86
440.50	693.42
440.87	701.47
441.24	709.86
441.61	719.03
441.98	725.70
442.35	733.69
442.72	741.94
443.09	750.22
443.46	755.12
443.83	758.94
444.20	762.35
444.57	767.35
444.94	770.04
445.31	772.70
445.68	775.16
446.05	777.23
446.42	777.24
446.79	777.37
447.16	777.42
447.53	777.93
447.90	775.27
448.27	772.66
448.64	768.08
449.01	765.45
449.37	759.44
449.74	753.74
450.11	746.41
450.48	738.28
450.85	729.81
451.22	723.15
451.59	716.68
451.96	710.19
452.33	701.28
452.70	693.41
453.07	683.63
453.43	674.01
453.80	664.27
454.17	655.13
454.54	646.51
454.91	636.98
455.28	627.30
455.65	618.68
456.02	609.80
456.38	602.42
456.75	592.72
457.12	584.71
457.49	577.00
457.86	569.61
458.23	563.07
458.59	555.92
458.96	548.25
459.33	541.55
459.70	534.99
460.07	529.73
460.43	523.62
460.80	517.86
461.17	512.60
461.54	507.15
461.91	501.88
462.27	496.31
462.64	492.09
463.01	487.35
463.38	482.32
463.74	477.82
464.11	473.65
464.48	469.86
464.85	465.80
465.21	462.52
465.58	459.11
465.95	455.12
466.32	451.83
466.68	448.52
467.05	445.29
467.42	442.02
467.78	438.33
468.15	434.96
468.52	432.53
468.88	429.48
469.25	426.74
469.62	424.61
469.98	422.18
470.35	419.67
470.72	417.23
471.08	414.98
471.45	412.71
471.82	410.44
472.18	408.12
472.55	406.61
472.92	404.67
473.28	402.82
473.65	401.04
474.02	399.10
474.38	397.78
474.75	396.36
475.11	394.88
475.48	393.92
475.85	393.03
476.21	391.87
476.58	390.96
476.94	390.11
477.31	389.23
477.67	388.37
478.04	387.58
478.41	387.26
478.77	386.88
479.14	386.34
479.50	385.97
479.87	385.83
480.23	385.69
480.60	385.35
480.96	385.19
481.33	385.32
481.69	385.66
482.06	385.69
482.42	385.61
482.79	385.89
483.15	386.37
483.52	386.85
483.88	387.35
484.25	387.80
484.61	388.59
484.98	389.14
485.34	390.19
485.71	391.36
486.07	392.32
486.44	393.29
486.80	394.61
487.17	395.97
487.53	397.40
487.90	398.98
488.26	400.67
488.62	402.33
488.99	404.03
489.35	405.73
489.72	407.55
490.08	409.61
490.44	411.67
490.81	413.69
491.17	415.70
491.54	418.20
491.90	420.50
492.26	422.97
492.63	425.56
492.99	428.13
493.36	430.76
493.72	433.72
494.08	436.57
494.45	439.63
494.81	442.78
495.17	445.95
495.54	449.10
495.90	452.34
496.26	455.74
496.63	459.12
496.99	462.71
497.35	466.42
497.72	470.23
498.08	474.11
498.44	478.00
498.80	482.04
499.17	485.86
499.53	490.00
499.89	494.06
500.26	498.24
500.62	502.25
500.98	506.50
501.34	510.42
501.71	514.77
502.07	518.94
502.43	522.89
502.79	526.99
503.16	531.22
503.52	535.60
503.88	539.69
504.24	543.99
504.60	548.35
504.97	552.35
505.33	556.73
505.69	561.06
506.05	565.24
506.41	569.35
506.78	573.42
507.14	577.40
507.50	581.47
507.86	585.51
508.22	589.61
508.59	593.34
508.95	597.44
509.31	601.24
509.67	604.93
510.03	608.92
510.39	612.81
510.75	616.47
511.12	620.05
511.48	623.76
511.84	627.15
512.20	630.30
512.56	634.01
512.92	637.18
513.28	640.34
513.64	643.57
514.00	646.63
514.37	649.67
514.73	652.67
515.09	655.35
515.45	658.12
515.81	660.88
516.17	663.75
516.53	666.33
516.89	669.03
517.25	671.68
517.61	674.00
517.97	676.11
518.33	678.07
518.69	680.27
519.05	682.52
519.41	684.85
519.77	687.32
520.13	689.47
520.49	691.57
520.85	693.50
521.21	695.49
521.57	697.43
521.93	699.12
522.29	701.20
522.65	703.39
523.01	705.03
523.37	706.62
523.73	708.36
524.09	709.98
524.45	711.55
524.81	713.19
525.17	715.22
525.53	717.30
525.89	719.34
526.25	721.31
526.61	722.77
526.97	724.52
527.33	726.10
527.68	727.99
528.04	729.78
528.40	731.52
528.76	733.40
529.12	735.47
529.48	737.60
529.84	739.17
530.20	740.96
530.56	743.23
530.91	745.45
531.27	747.39
531.63	749.35
531.99	751.43
532.35	753.40
532.71	755.02
533.07	757.10
533.42	759.48
533.78	761.37
534.14	763.76
534.50	765.84
534.86	767.85
535.21	769.61
535.57	771.70
535.93	773.96
536.29	776.08
536.65	778.23
537.00	780.31
537.36	782.97
537.72	785.10
538.08	787.46
538.44	789.36
538.79	791.85
539.15	794.32
539.51	796.82
539.87	799.69
540.22	802.17
540.58	805.03
540.94	807.30
541.29	810.07
541.65	812.61
542.01	815.51
542.37	818.39
542.72	821.27
543.08	823.90
543.44	826.77
543.79	829.23
544.15	832.26
544.51	835.60
544.87	838.37
545.22	841.29
545.58	843.84
545.94	846.80
546.29	849.40
546.65	852.10
547.01	854.96
547.36	857.53
547.72	860.43
548.07	862.84
548.43	865.47
548.79	868.20
549.14	870.95
549.50	873.56
549.86	876.01
550.21	878.69
550.57	881.48
550.92	883.98
551.28	886.90
551.64	889.34
551.99	891.86
552.35	894.17
552.70	896.89
553.06	899.79
553.41	902.55
553.77	905.32
554.13	908.02
554.48	910.60
554.84	912.88
555.19	915.33
555.55	917.87
555.90	920.44
556.26	922.92
556.61	925.37
556.97	927.77
557.32	930.54
557.68	933.14
558.03	935.54
558.39	938.06
558.74	940.66
559.10	942.93
559.45	945.16
559.81	947.86
560.16	950.20
560.52	952.58
560.87	955.28
561.23	957.48
561.58	960.14
561.94	962.47
562.29	965.05
562.64	967.35
563.00	969.63
563.35	971.99
563.71	974.44
564.06	977.14
564.42	979.40
564.77	981.61
565.12	983.61
565.48	985.99
565.83	987.96
566.19	990.17
566.54	992.18
566.89	994.03
567.25	996.12
567.60	998.46
567.96	1000.31
568.31	1002.01
568.66	1003.82
569.02	1005.37
569.37	1006.87
569.72	1008.42
570.08	1010.08
570.43	1011.50
570.78	1012.87
571.14	1013.90
571.49	1014.50
571.84	1015.99
572.20	1016.63
572.55	1017.70
572.90	1018.35
573.26	1019.27
573.61	1019.88
573.96	1020.86
574.31	1021.28
574.67	1021.18
575.02	1021.13
575.37	1021.24
575.72	1020.86
576.08	1021.05
576.43	1021.04
576.78	1020.97
577.13	1021.13
577.49	1021.09
577.84	1021.15
578.19	1020.91
578.54	1020.49
578.90	1020.39
579.25	1019.36
579.60	1019.21
579.95	1018.75
580.30	1018.32
580.66	1017.60
581.01	1016.70
581.36	1015.72
581.71	1015.13
582.06	1014.55
582.42	1013.67
582.77	1012.87
583.12	1012.24
583.47	1011.40
583.82	1010.78
584.17	1009.96
584.53	1008.87
584.88	1007.70
585.23	1006.47
585.58	1005.45
585.93	1004.67
586.28	1003.69
586.63	1003.04
586.98	1001.70
587.34	1000.28
587.69	999.23
588.04	998.27
588.39	997.18
588.74	995.46
589.09	994.01
589.44	992.31
589.79	991.09
590.14	989.60
590.49	988.20
590.84	986.60
591.19	984.91
591.54	982.80
591.89	980.25
592.25	978.73
592.60	976.36
592.95	974.14
593.30	971.68
593.65	969.29
594.00	966.69
594.35	965.09
594.70	962.75
595.05	960.52
595.40	958.06
595.75	955.64
596.10	954.05
596.45	951.91
596.80	950.24
597.15	947.90
597.50	945.48
597.85	943.38
598.19	941.12
598.54	938.63
598.89	936.78
599.24	935.00
599.59	932.57
599.94	930.68
600.29	928.66
600.64	926.55
600.99	924.07
601.34	921.79
601.69	918.90
602.04	916.75
602.39	913.99
602.74	911.90
603.08	909.54
603.43	906.88
603.78	904.56
604.13	901.95
604.48	899.28
604.83	896.88
605.18	894.35
605.53	891.48
605.87	888.52
606.22	885.80
606.57	883.18
606.92	880.23
607.27	877.60
607.62	874.92
607.96	872.32
608.31	869.89
608.66	867.00
609.01	864.16
609.36	860.95
609.70	857.75
610.05	854.26
610.40	851.25
610.75	848.11
611.10	844.80
611.44	841.00
611.79	837.98
612.14	834.74
612.49	831.00
612.83	827.68
613.18	824.40
613.53	821.06
613.88	817.66
614.22	814.27
614.57	810.65
614.92	807.33
615.27	803.99
615.61	800.43
615.96	797.08
616.31	793.86
616.65	791.23
617.00	788.49
617.35	785.55
617.70	782.13
618.04	778.66
618.39	775.34
618.74	772.64
619.08	769.27
619.43	766.18
619.78	763.28
620.12	760.12
620.47	757.04
620.82	753.58
621.16	750.48
621.51	747.75
621.85	744.85
622.20	741.45
622.55	738.47
622.89	735.48
623.24	732.72
623.59	729.74
623.93	726.67
624.28	723.43
624.62	720.22
624.97	717.64
625.32	714.81
625.66	711.99
626.01	709.12
626.35	706.07
626.70	702.95
627.04	699.97
627.39	697.20
627.73	694.35
628.08	691.70
628.43	688.83
628.77	685.79
629.12	682.67
629.46	679.87
629.81	676.60
630.15	673.58
630.50	670.34
630.84	667.29
631.19	663.94
631.53	661.05
631.88	658.00
632.22	654.32
632.57	651.40
632.91	648.23
633.26	645.12
633.60	642.20
633.95	639.39
634.29	636.59
634.64	633.56
634.98	630.59
635.32	627.97
635.67	625.23
636.01	622.36
636.36	619.67
636.70	616.84
637.05	614.11
637.39	611.57
637.73	609.13
638.08	606.47
638.42	604.03
638.77	601.45
639.11	598.98
639.45	596.77
639.80	594.18
640.14	591.83
640.49	589.05
640.83	586.37
641.17	583.77
641.52	581.00
641.86	578.54
642.20	576.20
642.55	573.45
642.89	570.89
643.23	568.45
643.58	565.98
643.92	563.44
644.26	561.07
644.61	558.62
644.95	556.19
645.29	553.56
645.64	550.88
645.98	548.23
646.32	545.89
646.66	543.21
647.01	540.53
647.35	538.01
647.69	535.82
648.04	533.60
648.38	530.97
648.72	528.49
649.06	525.91
649.41	523.35
649.75	520.69
650.09	518.16
650.43	515.70
650.78	513.00
651.12	510.70
651.46	508.21
651.80	505.85
652.14	503.30
652.49	500.97
652.83	498.74
653.17	496.39
653.51	493.79
653.85	491.45
654.20	489.18
654.54	486.63
654.88	484.13
655.22	481.60
655.56	479.25
655.90	476.94
656.25	474.81
656.59	472.50
656.93	470.39
657.27	468.18
657.61	465.76
657.95	463.84
658.29	461.51
658.64	459.33
658.98	456.95
659.32	454.68
659.66	452.53
660.00	450.30
660.34	448.20
660.68	446.10
661.02	444.04
661.36	441.80
661.70	439.86
662.05	437.94
662.39	436.23
662.73	434.26
663.07	432.62
663.41	430.79
663.75	428.93
664.09	427.14
664.43	425.31
664.77	423.58
665.11	421.54
665.45	419.75
665.79	418.12
666.13	416.25
666.47	414.47
666.81	412.70
667.15	410.73
667.49	409.05
667.83	407.47
668.17	405.80
668.51	404.39
668.85	402.75
669.19	401.23
669.53	399.48
669.87	398.00
670.21	396.08
670.55	394.52
670.89	393.27
671.23	391.67
671.57	390.14
671.91	388.65
672.25	387.25
672.58	385.94
672.92	384.38
673.26	383.30
673.60	382.08
673.94	380.87
674.28	379.77
674.62	378.57
674.96	377.22
675.30	376.04
675.64	374.68
675.97	373.45
676.31	372.07
676.65	370.76
676.99	369.59
677.33	368.44
677.67	367.14
678.01	365.61
678.34	364.30
678.68	363.00
679.02	361.81
679.36	360.69
679.70	359.38
680.04	358.10
680.37	356.78
680.71	355.59
681.05	354.37
681.39	353.17
681.73	352.02
682.06	350.80
682.40	349.65
682.74	348.60
683.08	347.46
683.42	346.49
683.75	345.54
684.09	344.36
684.43	343.24
684.77	342.02
685.10	341.03
685.44	340.07
685.78	339.06
686.12	337.96
686.45	336.90
686.79	335.89
687.13	334.90
687.46	333.90
687.80	332.85
688.14	331.80
688.48	330.76
688.81	329.58
689.15	328.67
689.49	327.68
689.82	326.64
690.16	325.48
690.50	324.42
690.83	323.38
691.17	322.36
691.51	321.50
691.84	320.56
692.18	319.53
692.52	318.53
692.85	317.62
693.19	316.70
693.52	315.71
693.86	314.63
694.20	313.68
694.53	312.55
694.87	311.51
695.21	310.46
695.54	309.49
695.88	308.49
696.21	307.41
696.55	306.45
696.88	305.69
697.22	304.90
697.56	304.00
697.89	302.94
698.23	302.13
698.56	301.21
698.90	300.46
699.23	299.60
699.57	298.79
699.90	297.99
700.24	297.20
700.58	296.30
700.91	295.67
701.25	294.95
701.58	294.39
701.92	293.80
702.25	293.16
702.59	292.47
702.92	291.86
703.26	291.34
703.59	290.51
703.93	289.84
704.26	289.22
704.60	288.61
704.93	287.97
705.26	287.31
705.60	286.74
705.93	286.08
706.27	285.51
706.60	284.97
706.94	284.32
707.27	283.67
707.61	283.21
707.94	282.61
708.27	282.01
708.61	281.31
708.94	280.66
709.28	280.04
709.61	279.52
709.94	279.03
710.28	278.42
710.61	278.06
710.95	277.40
711.28	277.05
711.61	276.52
711.95	276.11
712.28	275.60
712.61	275.04
712.95	274.67
713.28	274.35
713.61	273.81
713.95	273.32
714.28	272.85
714.61	272.34
714.95	271.90
715.28	271.30
715.61	270.90
715.95	270.58
716.28	270.29
716.61	269.90
716.95	269.41
717.28	269.07
717.61	268.66
717.94	268.30
718.28	267.88
718.61	267.47
718.94	267.03
719.27	266.70
719.61	266.44
719.94	266.14
720.27	265.68
720.60	265.32
720.94	264.95
721.27	264.79
721.60	264.60
721.93	264.29
722.27	264.18
722.60	263.90
722.93	263.54
723.26	263.15
723.59	262.84
723.93	262.62
724.26	262.30
724.59	261.90
724.92	261.60
725.25	261.31
725.59	260.95
725.92	260.82
726.25	260.42
726.58	260.10
726.91	259.71
727.24	259.31
727.57	259.04
727.91	258.83
728.24	258.50
728.57	258.03
728.90	257.74
729.23	257.35
729.56	257.07
729.89	256.74
730.22	256.37
730.55	255.92
730.89	255.51
731.22	255.22
731.55	254.93
731.88	254.68
732.21	254.23
732.54	253.96
732.87	253.60
733.20	253.31
733.53	253.00
733.86	252.75
734.19	252.50
734.52	252.20
734.85	251.97
735.18	251.58
735.51	251.43
735.84	251.08
736.17	250.90
736.50	250.57
736.83	250.51
737.16	250.33
737.49	250.18
737.82	249.88
738.15	249.60
738.48	249.44
738.81	249.19
739.14	248.93
739.47	248.72
739.80	248.55
740.13	248.39
740.46	248.03
740.79	247.76
741.12	247.52
741.45	247.26
741.78	246.92
742.11	246.72
742.44	246.35
742.77	246.19
743.10	245.88
743.43	245.64
743.75	245.10
744.08	245.14
744.41	244.97
744.74	244.83
745.07	244.60
745.40	244.40
745.73	244.21
746.06	244.01
746.39	243.71
746.71	243.49
747.04	243.19
747.37	243.17
747.70	242.95
748.03	242.72
748.36	242.66
748.68	242.51
749.01	242.33
749.34	242.24
749.67	242.07
750.00	241.88
750.33	241.82
750.65	241.90
750.98	241.49
751.31	241.23
751.64	241.07
751.97	240.94
752.29	240.88
752.62	240.65
752.95	240.56
753.28	240.50
753.60	240.31
753.93	240.31
754.26	240.09
754.59	239.96
754.91	239.93
755.24	239.66
755.57	239.51
755.90	239.42
756.22	239.29
756.55	239.18
756.88	239.12
757.20	238.95
757.53	238.76
757.86	238.73
758.19	238.80
758.51	238.78
758.84	238.73
759.17	238.53
759.49	238.44
759.82	238.48
760.15	238.60
760.47	238.50
760.80	238.40
761.13	238.40
761.45	238.20
761.78	238.08
762.11	238.16
762.43	238.15
762.76	238.02
763.08	237.97
763.41	237.97
763.74	237.88
764.06	237.81
764.39	237.73
764.71	237.69
765.04	237.51
765.37	237.46
765.69	237.32
766.02	237.26
766.34	237.21
766.67	237.01
767.00	236.79
767.32	236.79
767.65	236.77
767.97	236.70
768.30	236.80
768.62	236.68
768.95	236.58
769.27	236.41
769.60	236.34
769.92	236.29
770.25	236.05
770.57	235.95
770.90	235.99
771.22	235.93
771.55	235.78
771.87	235.74
772.20	235.64
772.52	235.74
772.85	235.89
773.17	235.83
773.50	235.84
773.82	235.69
774.15	235.55
774.47	235.41
774.80	235.27
775.12	235.04
775.45	234.93
775.77	234.79
776.09	234.70
776.42	234.70
776.74	234.64
777.07	234.62
777.39	234.52
777.72	234.25
778.04	234.08
778.36	233.92
778.69	233.74
779.01	233.66
779.33	233.37
779.66	233.04
779.98	232.97
780.31	232.76
780.63	232.82
780.95	232.80
781.28	232.60
781.60	232.43
781.92	232.39
782.25	232.41
782.57	232.31
782.89	232.25
783.22	232.10
783.54	231.99
783.86	231.93
784.19	231.83
784.51	231.83
784.83	231.87
785.16	231.84
785.48	231.91
785.80	231.78
786.12	231.76
786.45	231.73
786.77	231.68
787.09	231.70
787.42	231.59
787.74	231.58
788.06	231.68
788.38	231.78
788.71	231.75
789.03	231.71
789.35	231.73
789.67	231.71
789.99	231.73
790.32	231.74
790.64	231.80
790.96	232.01
791.28	231.94
791.61	231.91
791.93	231.94
792.25	231.83
792.57	232.07
792.89	232.16
793.21	232.18
793.54	232.23
793.86	232.17
794.18	232.19
794.50	232.08
794.82	232.01
795.14	232.10
795.47	232.15
795.79	232.20
796.11	232.13
796.43	232.13
796.75	232.12
797.07	231.97
797.39	231.99
797.71	231.84
798.04	231.92
798.36	231.90
798.68	231.88
799.00	231.87
799.32	231.76
799.64	231.70
799.96	231.69
800.28	231.73
800.60	231.72
800.92	231.76
801.24	231.76
801.56	231.84
801.89	231.66
802.21	231.66
802.53	231.54
802.85	231.59
803.17	231.73
803.49	231.70
803.81	231.84
804.13	231.76
804.45	231.78
804.77	231.78
805.09	231.70
805.41	231.74
805.73	231.75
806.05	231.77
806.37	231.80
806.69	231.82
807.01	231.72
807.33	231.83
807.65	231.71
807.97	231.77
808.28	231.61
808.60	231.63
808.92	231.66
809.24	231.70
809.56	231.66
809.88	231.49
810.20	231.42
810.52	231.39
810.84	231.29
811.16	231.25
811.48	231.16
811.80	231.25
812.12	231.15
812.43	231.08
812.75	230.86
813.07	230.66
813.39	230.51
813.71	230.38
814.03	230.23
814.35	230.22
814.67	230.12
814.98	230.11
815.30	229.98
815.62	229.87
815.94	229.76
816.26	229.76
816.58	229.65
816.89	229.63
817.21	229.50
817.53	229.57
817.85	229.47
818.17	229.40
818.48	229.22
818.80	229.20
819.12	229.20
819.44	229.22
819.76	229.19
820.07	229.23
820.39	229.15
820.71	229.17
821.03	229.13
821.34	229.10
821.66	229.12
821.98	229.21
822.30	229.20
822.61	229.29
822.93	229.22
823.25	229.19
823.57	229.09
823.88	229.13
824.20	229.05
824.52	229.05
824.83	229.09
825.15	229.13
825.47	229.05
825.79	229.07
826.10	229.00
826.42	229.04
826.74	229.00
827.05	229.07
827.37	229.00
827.69	228.90
828.00	228.94
828.32	228.80
828.64	228.74
828.95	228.84
829.27	228.82
829.58	228.82
829.90	228.89
830.22	228.92
830.53	228.88
830.85	228.81
831.17	228.65
831.48	228.63
831.80	228.61
832.11	228.61
832.43	228.57
832.75	228.55
833.06	228.60
833.38	228.52
833.69	228.49
834.01	228.57
834.32	228.67
834.64	228.57
834.96	228.68
835.27	228.68
835.59	228.57
835.90	228.49
836.22	228.55
836.53	228.56
836.85	228.50
837.16	228.67
837.48	228.74
837.79	228.97
838.11	228.98
838.42	229.03
838.74	229.15
839.05	229.14
839.37	229.14
839.68	229.13
840.00	229.25
840.31	229.33
840.63	229.30
840.94	229.22
841.26	229.30
841.57	229.36
841.88	229.40
842.20	229.34
842.51	229.41
842.83	229.29
843.14	229.40
843.46	229.53
843.77	229.47
844.08	229.47
844.40	229.38
844.71	229.35
845.03	229.29
845.34	229.32
845.65	229.29
845.97	229.37
846.28	229.37
846.60	229.29
846.91	229.17
847.22	229.20
847.54	229.38
847.85	229.40
848.16	229.33
848.48	229.29
848.79	229.36
849.10	229.37
849.42	229.52
849.73	229.37
850.04	229.38
850.36	229.40
850.67	229.48
850.98	229.49
851.30	229.54
851.61	229.58
851.92	229.52
852.23	229.55
852.55	229.58
852.86	229.56
853.17	229.67
853.49	229.82
853.80	229.80
854.11	229.80
854.42	229.83
854.74	229.79
855.05	229.80
855.36	229.78
855.67	229.79
855.99	229.69
856.30	229.88
856.61	229.84
856.92	229.80
857.23	229.79
857.55	229.76
857.86	229.75
858.17	229.76
858.48	229.72
858.79	229.73
859.11	229.68
859.42	229.65
859.73	229.53
860.04	229.44
860.35	229.37
860.66	229.22
860.98	229.10
861.29	229.10
861.60	229.00
861.91	229.00
862.22	228.85
862.53	228.86
862.84	228.65
863.16	228.64
863.47	228.53
863.78	228.39
864.09	228.37
864.40	228.37
864.71	228.38
865.02	228.43
865.33	228.43
865.64	228.40
865.95	228.30
866.27	228.44
866.58	228.51
866.89	228.44
867.20	228.30
867.51	228.22
867.82	228.28
868.13	228.38
868.44	228.40
868.75	228.51
869.06	228.44
869.37	228.45
869.68	228.43
869.99	228.42
870.30	228.55
870.61	228.53
870.92	228.49
871.23	228.45
871.54	228.41
871.85	228.47
872.16	228.49
872.47	228.53
872.78	228.40
873.09	228.36
873.40	228.41
873.71	228.63
874.02	228.69
874.33	228.63
874.64	228.66
874.95	228.72
875.26	228.64
875.56	228.76
875.87	228.80
876.18	228.72
876.49	228.96
876.80	228.90
877.11	228.97
877.42	228.98
877.73	228.93
878.04	228.92
878.35	228.93
878.66	229.05
878.96	229.00
879.27	229.05
879.58	229.08
879.89	229.08
880.20	229.06
880.51	229.00
880.82	228.99
881.12	228.93
881.43	228.82
881.74	228.79
882.05	228.68
882.36	228.70
882.67	228.80
882.97	228.55
883.28	228.54
883.59	228.46
883.90	228.58
884.21	228.65
884.51	228.66
884.82	228.59
885.13	228.52
885.44	228.55
885.74	228.51
886.05	228.43
886.36	228.45
886.67	228.34
886.98	228.51
887.28	228.61
887.59	228.63
887.90	228.62
888.20	228.69
888.51	228.71
888.82	228.68
889.13	228.65
889.43	228.85
889.74	228.88
890.05	228.93
890.35	228.81
890.66	228.72
890.97	228.61
891.28	228.63
891.58	228.57
891.89	228.55
892.20	228.54
892.50	228.43
892.81	228.50
893.12	228.43
893.42	228.32
893.73	228.25
894.04	228.26
894.34	228.30
894.65	228.20
894.95	228.15
895.26	228.11
895.57	228.14
895.87	228.01
896.18	227.92
896.48	227.88
896.79	227.88
897.10	227.85
897.40	227.97
897.71	227.90
898.01	227.84
898.32	227.95
898.63	227.94
898.93	228.04
899.24	227.91
899.54	227.99
899.85	227.92
900.15	227.92
900.46	227.88
900.76	227.94
901.07	227.97
901.38	227.96
901.68	227.92
901.99	227.85
902.29	227.83
902.60	227.83
902.90	227.85
903.21	227.93
903.51	227.94
903.82	227.91
904.12	227.90
904.43	227.98
904.73	227.95
905.03	227.90
905.34	228.11
905.64	228.11
905.95	228.10
906.25	228.30
906.56	228.29
906.86	228.24
907.17	228.18
907.47	228.25
907.77	228.27
908.08	228.29
908.38	228.39
908.69	228.32
908.99	228.46
909.30	228.47
909.60	228.43
909.90	228.55
910.21	228.55
910.51	228.65
910.81	228.69
911.12	228.72
911.42	228.84
911.73	228.60
912.03	228.64
912.33	228.67
912.64	228.53
912.94	228.43
913.24	228.56
913.55	228.48
913.85	228.54
914.15	228.63
914.46	228.76
914.76	228.62
915.06	228.67
915.37	228.55
915.67	228.58
915.97	228.58
916.27	228.56
916.58	228.52
916.88	228.52
917.18	228.46
917.49	228.51
917.79	228.50
918.09	228.51
918.39	228.62
918.70	228.60
919.00	228.68
919.30	228.80
919.60	228.67
919.91	228.67
920.21	228.68
920.51	228.51
920.81	228.41
921.12	228.51
921.42	228.59
921.72	228.61
922.02	228.53
922.32	228.53
922.63	228.44
922.93	228.45
923.23	228.41
923.53	228.43
923.83	228.24
924.13	228.28
924.44	228.33
924.74	228.30
925.04	228.40
925.34	228.33
925.64	228.25
925.94	228.35
926.24	228.52
926.55	228.44
926.85	228.48
927.15	228.46
927.45	228.45
927.75	228.30
928.05	228.37
928.35	228.37
928.65	228.33
928.95	228.34
929.26	228.44
929.56	228.46
929.86	228.44
930.16	228.54
930.46	228.52
930.76	228.55
931.06	228.46
931.36	228.39
931.66	228.46
931.96	228.48
932.26	228.39
932.56	228.22
932.86	228.28
933.16	228.35
933.46	228.34
933.76	228.31
934.06	228.41
934.36	228.45
934.66	228.43
934.96	228.44
935.26	228.49
935.56	228.42
935.86	228.39
936.16	228.42
936.46	228.40
936.76	228.35
937.06	228.22
937.36	228.25
937.66	228.18
937.96	227.99
938.26	228.01
938.56	228.09
938.86	228.18
939.16	228.13
939.46	228.02
939.76	228.05
940.06	228.02
940.35	227.89
940.65	227.85
940.95	227.92
941.25	227.87
941.55	227.90
941.85	227.90
942.15	228.00
942.45	228.10
942.75	228.09
943.04	228.06
943.34	228.15
943.64	228.15
943.94	228.28
944.24	228.51
944.54	228.60
944.84	228.51
945.13	228.42
945.43	228.35
945.73	228.50
946.03	228.51
946.33	228.45
946.62	228.50
946.92	228.54
947.22	228.54
947.52	228.59
947.82	228.50
948.11	228.50
948.41	228.40
948.71	228.29
949.01	228.26
949.31	228.24
949.60	228.16
949.90	228.26
950.20	228.27
950.50	228.22
950.79	228.03
951.09	228.06
951.39	228.16
951.69	228.18
951.98	228.13
952.28	228.05
952.58	228.15
952.87	228.16
953.17	228.05
953.47	228.08
953.76	228.07
954.06	228.13
954.36	228.16
954.66	228.15
954.95	228.29
955.25	228.30
955.55	228.41
955.84	228.40
956.14	228.37
956.44	228.25
956.73	228.18
957.03	228.33
957.32	228.30
957.62	228.28
957.92	228.30
958.21	228.29
958.51	228.63
958.81	228.66
959.10	228.69
959.40	228.77
959.69	228.76
959.99	228.74
960.29	228.66
960.58	228.54
960.88	228.62
961.17	228.47
961.47	228.52
961.76	228.45
962.06	228.46
962.36	228.44
962.65	228.51
962.95	228.46
963.24	228.42
963.54	228.50
963.83	228.51
964.13	228.54
964.42	228.53
964.72	228.22
965.01	228.13
965.31	228.12
965.60	228.05
965.90	228.14
966.19	228.14
966.49	228.21
966.78	228.20
967.08	228.17
967.37	228.16
967.67	228.12
967.96	228.18
968.26	228.11
968.55	228.15
968.85	228.05
969.14	228.14
969.43	228.14
969.73	228.13
970.02	228.09
970.32	228.07
970.61	228.01
970.91	227.99
971.20	228.00
971.49	227.90
971.79	227.98
972.08	227.81
972.38	227.81
972.67	227.83
972.96	227.93
973.26	227.88
973.55	227.99
973.85	228.02
974.14	227.95
974.43	228.07
974.73	228.10
975.02	228.09
975.31	228.07
975.61	228.13
975.90	228.13
976.19	228.10
976.49	228.11
976.78	228.19
977.07	228.24
977.37	228.34
977.66	228.45
977.95	228.36
978.24	228.40
978.54	228.49
978.83	228.46
979.12	228.41
979.42	228.49
979.71	228.47
980.00	228.48
980.29	228.42
980.59	228.46
980.88	228.37
981.17	228.49
981.46	228.53
981.76	228.43
982.05	228.56
982.34	228.63
982.63	228.59
982.93	228.54
983.22	228.69
983.51	228.66
983.80	228.70
984.09	228.73
984.39	228.75
984.68	228.71
984.97	228.68
985.26	228.70
985.55	228.67
985.85	228.59
986.14	228.57
986.43	228.74
986.72	228.62
987.01	228.60
987.30	228.54
987.59	228.47
987.89	228.45
988.18	228.32
988.47	228.30
988.76	228.23
989.05	228.32
989.34	228.12
989.63	228.14
989.92	228.10
990.22	228.05
990.51	228.03
990.80	227.97
991.09	228.00
991.38	228.06
991.67	227.96
991.96	227.93
992.25	227.93
992.54	227.93
992.83	227.96
993.12	228.04
993.41	228.02
993.70	228.02
993.99	228.16
994.28	228.29
994.58	228.27
994.87	228.34
995.16	228.22
995.45	228.26
995.74	228.20
996.03	228.20
996.32	228.33
996.61	228.36
996.90	228.36
997.19	228.40
997.48	228.32
997.77	228.41
998.06	228.44
998.34	228.45
998.63	228.39
998.92	228.47
999.21	228.41
999.50	228.45
999.79	228.47
1000.08	228.43
1000.37	228.40
1000.66	228.39
1000.95	228.35
1001.24	228.44
1001.53	228.40
1001.82	228.43
1002.11	228.43
1002.40	228.46
1002.68	228.56
1002.97	228.70
1003.26	228.68
1003.55	228.70
1003.84	228.59
1004.13	228.60
1004.42	228.60
1004.71	228.65
1004.99	228.66
1005.28	228.64
1005.57	228.66
1005.86	228.62
1006.15	228.52
1006.44	228.42
1006.72	228.54
1007.01	228.55
1007.30	228.46
1007.59	228.58
1007.88	228.57
1008.17	228.51
1008.45	228.37
1008.74	228.20
1009.03	228.18
1009.32	228.10
1009.60	228.15
1009.89	228.25
1010.18	228.28
1010.47	228.25
1010.76	228.24
1011.04	228.11
1011.33	228.18
1011.62	228.15
1011.91	228.22
1012.19	228.25
1012.48	228.29
1012.77	228.22
1013.05	228.36
1013.34	228.48
1013.63	228.41
1013.92	228.41
1014.20	228.38
1014.49	228.48
1014.78	228.47
1015.06	228.47
1015.35	228.52
1015.64	228.54
1015.92	228.53
1016.21	228.53
1016.50	228.61
1016.78	228.49
1017.07	228.60
1017.36	228.52
1017.64	228.53
1017.93	228.53
1018.22	228.52
1018.50	228.51
1018.79	228.48
1019.08	228.41
1019.36	228.47
1019.65	228.51
1019.93	228.60
1020.22	228.73
1020.51	228.85
1020.79	228.86
1021.08	227.50
1021.36	228.20
1021.65	228.20
1021.94	228.70
1022.22	230.70
1022.51	228.80
1022.79	229.80
1023.08	229.60
1023.36	231.90
1023.65	227.40
>>>>>End Processed Spectral Data<<<<<
