SpectraSuite Data File
++++++++++++++++++++++++++++++++++++
Date: Fri Feb 01 14:34:17 EST 2013
User: group
Dark Spectrum Present: No
Reference Spectrum Present: No
Number of Sampled Component Spectra: 1
Spectrometers: USB2E7196
Integration Time (usec): 70000 (USB2E7196)
Spectra Averaged: 10 (USB2E7196)
Boxcar Smoothing: 10 (USB2E7196)
Correct for Electrical Dark: No (USB2E7196)
Strobe/Lamp Enabled: No (USB2E7196)
Correct for Detector Non-linearity: No (USB2E7196)
Correct for Stray Light: No (USB2E7196)
Number of Pixels in Processed Spectrum: 2048
>>>>>Begin Processed Spectral Data<<<<<
339.09	0.00
339.48	217.90
339.86	217.70
340.24	218.60
340.63	220.40
341.01	225.00
341.39	223.90
341.78	224.50
342.16	226.70
342.54	227.30
342.93	215.00
343.31	225.86
343.69	226.36
344.07	226.92
344.46	227.35
344.84	227.74
345.22	227.96
345.60	228.14
345.99	228.34
346.37	228.46
346.75	228.55
347.13	228.60
347.52	228.64
347.90	228.72
348.28	228.78
348.66	228.88
349.05	228.91
349.43	228.84
349.81	228.83
350.19	229.00
350.57	229.04
350.96	229.15
351.34	229.21
351.72	229.27
352.10	229.30
352.48	229.45
352.87	229.54
353.25	229.56
353.63	229.63
354.01	229.67
354.39	229.61
354.77	229.55
355.15	229.68
355.54	229.68
355.92	229.74
356.30	229.69
356.68	229.79
357.06	229.90
357.44	230.11
357.82	230.16
358.20	230.19
358.58	230.20
358.97	230.22
359.35	230.34
359.73	230.44
360.11	230.56
360.49	230.48
360.87	230.47
361.25	230.55
361.63	230.67
362.01	230.81
362.39	230.93
362.77	231.13
363.15	231.16
363.53	231.14
363.91	231.13
364.29	231.16
364.67	231.08
365.05	231.03
365.43	230.94
365.81	230.95
366.19	231.01
366.57	231.10
366.95	231.21
367.33	231.24
367.71	231.21
368.09	231.14
368.47	231.25
368.85	231.20
369.23	231.21
369.61	231.23
369.99	231.17
370.37	231.21
370.75	231.10
371.13	230.92
371.51	231.00
371.89	230.97
372.27	230.96
372.65	230.91
373.03	230.83
373.41	230.90
373.78	230.93
374.16	230.83
374.54	230.69
374.92	230.58
375.30	230.39
375.68	230.29
376.06	230.20
376.44	230.08
376.82	229.95
377.19	229.95
377.57	229.79
377.95	229.68
378.33	229.53
378.71	229.45
379.09	229.48
379.47	229.36
379.84	229.24
380.22	229.19
380.60	229.08
380.98	229.00
381.36	228.85
381.73	228.63
382.11	228.60
382.49	228.54
382.87	228.38
383.25	228.26
383.62	228.38
384.00	228.33
384.38	228.25
384.76	228.26
385.13	228.15
385.51	228.03
385.89	227.97
386.27	227.89
386.64	227.71
387.02	227.59
387.40	227.58
387.78	227.58
388.15	227.54
388.53	227.40
388.91	227.42
389.29	227.33
389.66	227.41
390.04	227.40
390.42	227.33
390.79	227.38
391.17	227.48
391.55	227.19
391.92	227.18
392.30	227.16
392.68	227.13
393.05	227.19
393.43	227.22
393.81	227.24
394.18	227.26
394.56	227.42
394.94	227.49
395.31	227.44
395.69	227.55
396.06	227.61
396.44	227.76
396.82	227.86
397.19	228.01
397.57	228.03
397.95	228.10
398.32	228.22
398.70	228.38
399.07	228.49
399.45	228.67
399.82	228.82
400.20	229.08
400.58	229.36
400.95	229.36
401.33	229.61
401.70	229.88
402.08	230.16
402.45	230.44
402.83	230.73
403.20	231.09
403.58	231.34
403.95	231.66
404.33	231.94
404.71	232.23
405.08	232.63
405.46	232.97
405.83	233.23
406.21	233.60
406.58	233.93
406.96	234.31
407.33	234.77
407.70	235.17
408.08	235.74
408.45	236.14
408.83	236.84
409.20	237.49
409.58	238.12
409.95	238.92
410.33	239.62
410.70	240.35
411.08	241.17
411.45	242.04
411.82	242.92
412.20	243.96
412.57	245.16
412.95	246.16
413.32	247.50
413.69	248.99
414.07	250.40
414.44	251.93
414.82	253.50
415.19	255.28
415.56	257.11
415.94	258.91
416.31	261.13
416.68	263.22
417.06	265.42
417.43	267.67
417.81	270.00
418.18	272.60
418.55	275.35
418.93	278.27
419.30	281.18
419.67	284.41
420.04	287.82
420.42	291.21
420.79	295.12
421.16	298.92
421.54	302.77
421.91	307.00
422.28	311.48
422.66	316.22
423.03	320.77
423.40	325.49
423.77	330.64
424.15	335.72
424.52	341.05
424.89	346.93
425.26	352.65
425.64	357.89
426.01	363.69
426.38	369.81
426.75	375.90
427.13	382.44
427.50	389.10
427.87	395.99
428.24	402.80
428.61	409.53
428.99	416.87
429.36	425.05
429.73	432.86
430.10	440.60
430.47	448.54
430.85	456.92
431.22	465.58
431.59	474.63
431.96	483.18
432.33	492.61
432.70	502.00
433.08	512.62
433.45	523.03
433.82	533.40
434.19	544.75
434.56	555.94
434.93	566.74
435.30	577.22
435.68	588.98
436.05	600.79
436.42	612.33
436.79	622.81
437.16	633.96
437.53	645.71
437.90	657.32
438.27	668.65
438.64	680.48
439.01	691.79
439.38	701.80
439.75	711.64
440.13	722.76
440.50	733.12
440.87	742.10
441.24	751.56
441.61	761.61
441.98	769.09
442.35	777.98
442.72	786.66
443.09	795.61
443.46	801.08
443.83	804.86
444.20	808.49
444.57	813.69
444.94	816.64
445.31	819.83
445.68	822.98
446.05	825.14
446.42	825.29
446.79	825.13
447.16	824.91
447.53	825.50
447.90	822.86
448.27	820.04
448.64	815.07
449.01	811.87
449.37	805.46
449.74	799.26
450.11	791.22
450.48	782.56
450.85	773.64
451.22	766.36
451.59	759.33
451.96	752.50
452.33	742.76
452.70	734.40
453.07	724.08
453.43	713.43
453.80	703.12
454.17	692.99
454.54	683.44
454.91	673.18
455.28	662.83
455.65	653.25
456.02	643.31
456.38	635.25
456.75	624.79
457.12	616.07
457.49	607.70
457.86	599.72
458.23	592.72
458.59	584.65
458.96	576.45
459.33	569.31
459.70	562.38
460.07	556.68
460.43	549.86
460.80	543.17
461.17	537.45
461.54	531.71
461.91	526.36
462.27	520.77
462.64	516.00
463.01	510.65
463.38	505.37
463.74	500.40
464.11	495.67
464.48	491.88
464.85	487.44
465.21	483.89
465.58	480.09
465.95	475.80
466.32	472.37
466.68	468.99
467.05	465.50
467.42	461.66
467.78	457.82
468.15	454.28
468.52	451.70
468.88	448.40
469.25	445.26
469.62	442.61
469.98	439.92
470.35	437.31
470.72	434.83
471.08	432.26
471.45	430.03
471.82	427.75
472.18	425.10
472.55	423.27
472.92	421.19
473.28	419.48
473.65	417.56
474.02	415.64
474.38	413.96
474.75	412.42
475.11	411.06
475.48	410.10
475.85	409.03
476.21	408.16
476.58	407.18
476.94	406.44
477.31	405.57
477.67	404.53
478.04	403.78
478.41	403.31
478.77	403.02
479.14	402.41
479.50	402.09
479.87	401.90
480.23	401.85
480.60	401.54
480.96	401.23
481.33	401.46
481.69	401.71
482.06	401.84
482.42	401.96
482.79	402.12
483.15	402.62
483.52	403.19
483.88	403.71
484.25	404.26
484.61	404.89
484.98	405.65
485.34	406.88
485.71	408.09
486.07	409.26
486.44	410.26
486.80	411.74
487.17	413.21
487.53	414.81
487.90	416.54
488.26	418.60
488.62	420.43
488.99	422.20
489.35	424.03
489.72	426.12
490.08	428.52
490.44	430.92
490.81	433.44
491.17	435.87
491.54	438.50
491.90	441.33
492.26	444.23
492.63	447.32
492.99	450.33
493.36	453.49
493.72	456.85
494.08	460.32
494.45	463.86
494.81	467.60
495.17	471.42
495.54	475.08
495.90	478.80
496.26	482.80
496.63	487.07
496.99	491.40
497.35	495.69
497.72	500.18
498.08	504.60
498.44	508.75
498.80	513.66
499.17	518.55
499.53	523.13
499.89	527.94
500.26	532.54
500.62	537.27
500.98	542.12
501.34	547.05
501.71	552.05
502.07	557.06
502.43	562.08
502.79	566.90
503.16	571.80
503.52	576.84
503.88	582.00
504.24	586.91
504.60	592.13
504.97	597.16
505.33	602.29
505.69	607.80
506.05	613.17
506.41	617.88
506.78	622.67
507.14	627.77
507.50	632.80
507.86	638.23
508.22	643.39
508.59	648.23
508.95	653.20
509.31	658.05
509.67	663.03
510.03	667.74
510.39	672.64
510.75	677.82
511.12	682.44
511.48	686.97
511.84	691.64
512.20	696.00
512.56	700.60
512.92	705.11
513.28	709.27
513.64	713.17
514.00	717.30
514.37	721.26
514.73	725.08
515.09	728.78
515.45	732.38
515.81	736.05
516.17	739.53
516.53	743.12
516.89	746.75
517.25	750.11
517.61	753.69
517.97	756.74
518.33	759.53
518.69	762.50
519.05	765.53
519.41	768.48
519.77	771.68
520.13	774.58
520.49	777.16
520.85	779.84
521.21	782.95
521.57	785.85
521.93	788.29
522.29	791.37
522.65	794.17
523.01	796.61
523.37	799.00
523.73	801.60
524.09	803.66
524.45	805.75
524.81	807.94
525.17	810.00
525.53	812.41
525.89	815.00
526.25	817.41
526.61	819.63
526.97	821.86
527.33	823.91
527.68	826.46
528.04	828.67
528.40	830.68
528.76	833.08
529.12	835.49
529.48	838.17
529.84	840.21
530.20	842.61
530.56	845.17
530.91	847.99
531.27	850.68
531.63	853.23
531.99	855.83
532.35	858.04
532.71	860.38
533.07	863.07
533.42	865.44
533.78	867.96
534.14	870.50
534.50	872.82
534.86	875.30
535.21	877.16
535.57	879.73
535.93	882.34
536.29	884.64
536.65	886.93
537.00	889.37
537.36	891.95
537.72	894.07
538.08	896.42
538.44	898.34
538.79	900.52
539.15	902.97
539.51	905.23
539.87	908.19
540.22	910.89
540.58	913.76
540.94	916.13
541.29	918.58
541.65	921.02
542.01	923.89
542.37	926.35
542.72	929.10
543.08	931.61
543.44	934.24
543.79	936.27
544.15	939.00
544.51	941.75
544.87	943.97
545.22	946.34
545.58	948.65
545.94	951.04
546.29	953.45
546.65	955.82
547.01	958.30
547.36	960.07
547.72	962.20
548.07	964.25
548.43	966.47
548.79	968.62
549.14	971.16
549.50	973.07
549.86	975.07
550.21	977.16
550.57	979.52
550.92	981.56
551.28	983.97
551.64	985.99
551.99	987.88
552.35	990.31
552.70	992.80
553.06	995.14
553.41	997.30
553.77	999.44
554.13	1001.84
554.48	1003.90
554.84	1006.35
555.19	1008.70
555.55	1010.75
555.90	1012.61
556.26	1014.64
556.61	1016.30
556.97	1018.39
557.32	1020.78
557.68	1022.93
558.03	1024.78
558.39	1026.71
558.74	1029.10
559.10	1031.02
559.45	1033.24
559.81	1035.39
560.16	1037.38
560.52	1039.40
560.87	1041.87
561.23	1043.77
561.58	1045.68
561.94	1047.83
562.29	1049.27
562.64	1050.92
563.00	1052.27
563.35	1054.44
563.71	1056.98
564.06	1058.94
564.42	1060.71
564.77	1062.45
565.12	1064.30
565.48	1066.01
565.83	1067.50
566.19	1069.13
566.54	1070.61
566.89	1071.80
567.25	1072.80
567.60	1074.03
567.96	1075.25
568.31	1076.15
568.66	1077.11
569.02	1078.33
569.37	1079.24
569.72	1080.62
570.08	1081.43
570.43	1082.50
570.78	1083.55
571.14	1083.74
571.49	1084.22
571.84	1085.08
572.20	1085.39
572.55	1085.67
572.90	1085.76
573.26	1086.45
573.61	1086.12
573.96	1086.10
574.31	1085.98
574.67	1085.60
575.02	1085.39
575.37	1085.10
575.72	1084.77
576.08	1084.59
576.43	1083.64
576.78	1083.11
577.13	1082.79
577.49	1082.38
577.84	1081.82
578.19	1080.74
578.54	1080.10
578.90	1079.49
579.25	1078.19
579.60	1077.11
579.95	1075.90
580.30	1074.94
580.66	1073.37
581.01	1072.41
581.36	1071.31
581.71	1070.15
582.06	1069.33
582.42	1067.99
582.77	1066.54
583.12	1065.15
583.47	1063.92
583.82	1062.87
584.17	1061.34
584.53	1059.84
584.88	1058.52
585.23	1057.10
585.58	1055.28
585.93	1053.46
586.28	1052.10
586.63	1050.93
586.98	1049.44
587.34	1048.14
587.69	1046.72
588.04	1045.33
588.39	1044.20
588.74	1041.93
589.09	1040.05
589.44	1037.88
589.79	1036.10
590.14	1034.31
590.49	1032.20
590.84	1029.91
591.19	1027.86
591.54	1025.58
591.89	1023.09
592.25	1020.65
592.60	1018.13
592.95	1015.73
593.30	1013.17
593.65	1010.31
594.00	1007.79
594.35	1005.74
594.70	1003.00
595.05	1000.29
595.40	997.68
595.75	994.18
596.10	992.14
596.45	989.75
596.80	987.65
597.15	984.85
597.50	982.06
597.85	979.76
598.19	977.40
598.54	974.93
598.89	972.70
599.24	970.53
599.59	967.96
599.94	965.36
600.29	962.85
600.64	960.30
600.99	957.12
601.34	954.36
601.69	950.86
602.04	948.06
602.39	944.99
602.74	942.45
603.08	940.14
603.43	937.54
603.78	934.70
604.13	931.74
604.48	928.90
604.83	926.20
605.18	923.40
605.53	920.37
605.87	916.83
606.22	913.64
606.57	910.24
606.92	907.30
607.27	904.37
607.62	901.75
607.96	898.84
608.31	896.46
608.66	893.29
609.01	890.42
609.36	886.88
609.70	883.26
610.05	879.32
610.40	875.72
610.75	872.06
611.10	868.31
611.44	864.53
611.79	861.29
612.14	857.87
612.49	853.69
612.83	849.94
613.18	846.50
613.53	843.00
613.88	839.10
614.22	835.53
614.57	831.74
614.92	827.78
615.27	824.34
615.61	820.39
615.96	816.55
616.31	813.02
616.65	809.86
617.00	807.04
617.35	804.07
617.70	800.53
618.04	796.77
618.39	793.57
618.74	790.15
619.08	786.58
619.43	783.00
619.78	779.83
620.12	776.53
620.47	773.10
620.82	769.72
621.16	766.64
621.51	763.33
621.85	759.93
622.20	756.76
622.55	753.38
622.89	750.32
623.24	747.13
623.59	743.86
623.93	740.74
624.28	737.52
624.62	734.17
624.97	731.31
625.32	728.38
625.66	725.41
626.01	722.45
626.35	719.27
626.70	716.30
627.04	713.34
627.39	710.28
627.73	707.40
628.08	704.43
628.43	701.41
628.77	698.25
629.12	695.26
629.46	691.94
629.81	688.59
630.15	685.24
630.50	682.04
630.84	678.87
631.19	675.57
631.53	672.22
631.88	668.94
632.22	665.44
632.57	662.29
632.91	659.01
633.26	655.87
633.60	652.66
633.95	649.54
634.29	646.64
634.64	643.84
634.98	640.52
635.32	637.60
635.67	634.68
636.01	631.78
636.36	628.80
636.70	626.08
637.05	623.36
637.39	620.68
637.73	618.10
638.08	615.47
638.42	612.84
638.77	610.34
639.11	607.54
639.45	604.84
639.80	602.08
640.14	599.44
640.49	596.61
640.83	594.02
641.17	591.23
641.52	588.54
641.86	585.66
642.20	583.28
642.55	580.40
642.89	577.73
643.23	575.01
643.58	572.81
643.92	570.17
644.26	567.52
644.61	565.10
644.95	562.31
645.29	559.62
645.64	556.92
645.98	554.25
646.32	551.84
646.66	549.35
647.01	546.97
647.35	544.47
647.69	542.21
648.04	539.84
648.38	537.40
648.72	534.57
649.06	531.90
649.41	529.18
649.75	526.55
650.09	523.96
650.43	521.49
650.78	518.49
651.12	515.96
651.46	513.56
651.80	510.95
652.14	508.69
652.49	506.33
652.83	504.10
653.17	501.59
653.51	499.12
653.85	496.73
654.20	494.13
654.54	491.35
654.88	488.72
655.22	486.15
655.56	483.71
655.90	481.42
656.25	479.19
656.59	477.11
656.93	474.83
657.27	472.59
657.61	470.19
657.95	468.03
658.29	465.83
658.64	463.38
658.98	461.03
659.32	458.65
659.66	456.33
660.00	453.95
660.34	451.71
660.68	449.43
661.02	447.17
661.36	445.17
661.70	443.25
662.05	441.25
662.39	439.42
662.73	437.24
663.07	435.34
663.41	433.27
663.75	431.15
664.09	429.28
664.43	427.43
664.77	425.60
665.11	423.86
665.45	422.05
665.79	420.26
666.13	418.66
666.47	416.94
666.81	415.03
667.15	413.19
667.49	411.51
667.83	410.06
668.17	408.21
668.51	406.49
668.85	404.80
669.19	403.28
669.53	401.53
669.87	400.04
670.21	398.46
670.55	397.07
670.89	395.78
671.23	394.38
671.57	392.72
671.91	391.25
672.25	389.74
672.58	388.24
672.92	386.83
673.26	385.28
673.60	384.03
673.94	382.81
674.28	381.53
674.62	380.14
674.96	378.61
675.30	377.47
675.64	376.21
675.97	374.91
676.31	373.49
676.65	372.23
676.99	371.06
677.33	369.65
677.67	368.30
678.01	366.78
678.34	365.52
678.68	364.33
679.02	363.20
679.36	362.00
679.70	360.84
680.04	359.66
680.37	358.52
680.71	357.09
681.05	355.82
681.39	354.69
681.73	353.64
682.06	352.64
682.40	351.72
682.74	350.64
683.08	349.63
683.42	348.44
683.75	347.41
684.09	346.15
684.43	345.14
684.77	344.17
685.10	343.10
685.44	341.92
685.78	340.83
686.12	339.70
686.45	338.52
686.79	337.33
687.13	336.41
687.46	335.33
687.80	334.36
688.14	333.32
688.48	332.30
688.81	331.29
689.15	330.29
689.49	329.07
689.82	327.90
690.16	326.78
690.50	325.83
690.83	324.76
691.17	323.81
691.51	322.82
691.84	321.72
692.18	320.66
692.52	319.58
692.85	318.64
693.19	317.66
693.52	316.71
693.86	315.83
694.20	314.86
694.53	313.95
694.87	313.07
695.21	312.03
695.54	310.98
695.88	309.92
696.21	308.84
696.55	307.90
696.88	307.03
697.22	306.15
697.56	305.30
697.89	304.28
698.23	303.43
698.56	302.51
698.90	301.65
699.23	300.90
699.57	300.14
699.90	299.29
700.24	298.32
700.58	297.54
700.91	296.69
701.25	295.91
701.58	295.20
701.92	294.48
702.25	293.85
702.59	293.22
702.92	292.57
703.26	291.90
703.59	291.27
703.93	290.75
704.26	290.02
704.60	289.40
704.93	288.82
705.26	288.14
705.60	287.57
705.93	287.00
706.27	286.46
706.60	285.89
706.94	285.43
707.27	284.97
707.61	284.40
707.94	283.83
708.27	283.11
708.61	282.49
708.94	281.78
709.28	281.20
709.61	280.56
709.94	279.97
710.28	279.41
710.61	278.83
710.95	278.14
711.28	277.77
711.61	277.12
711.95	276.63
712.28	276.00
712.61	275.40
712.95	274.94
713.28	274.45
713.61	273.96
713.95	273.39
714.28	272.78
714.61	272.24
714.95	271.85
715.28	271.44
715.61	270.95
715.95	270.61
716.28	270.29
716.61	269.83
716.95	269.33
717.28	268.89
717.61	268.47
717.94	268.05
718.28	267.63
718.61	267.23
718.94	266.89
719.27	266.56
719.61	266.33
719.94	265.98
720.27	265.57
720.60	265.17
720.94	264.86
721.27	264.52
721.60	264.31
721.93	263.87
722.27	263.65
722.60	263.39
722.93	263.09
723.26	262.67
723.59	262.40
723.93	262.16
724.26	261.92
724.59	261.63
724.92	261.28
725.25	260.95
725.59	260.70
725.92	260.46
726.25	260.25
726.58	259.91
726.91	259.57
727.24	259.31
727.57	258.96
727.91	258.59
728.24	258.44
728.57	258.15
728.90	258.00
729.23	257.70
729.56	257.49
729.89	257.18
730.22	256.83
730.55	256.63
730.89	256.36
731.22	256.11
731.55	255.77
731.88	255.61
732.21	255.36
732.54	255.05
732.87	254.78
733.20	254.50
733.53	254.24
733.86	254.04
734.19	253.74
734.52	253.68
734.85	253.57
735.18	253.20
735.51	252.95
735.84	252.64
736.17	252.34
736.50	251.94
736.83	251.85
737.16	251.72
737.49	251.43
737.82	251.20
738.15	250.97
738.48	250.84
738.81	250.61
739.14	250.38
739.47	250.12
739.80	249.82
740.13	249.60
740.46	249.34
740.79	249.05
741.12	248.85
741.45	248.50
741.78	248.14
742.11	247.88
742.44	247.63
742.77	247.42
743.10	247.13
743.43	246.92
743.75	246.46
744.08	246.49
744.41	246.27
744.74	246.09
745.07	245.78
745.40	245.42
745.73	245.21
746.06	244.94
746.39	244.74
746.71	244.54
747.04	244.12
747.37	243.91
747.70	243.78
748.03	243.46
748.36	243.19
748.68	242.90
749.01	242.75
749.34	242.49
749.67	242.34
750.00	242.19
750.33	242.07
750.65	241.93
750.98	241.43
751.31	241.21
751.64	240.97
751.97	240.92
752.29	240.94
752.62	240.63
752.95	240.52
753.28	240.28
753.60	240.13
753.93	240.08
754.26	239.96
754.59	239.86
754.91	239.73
755.24	239.68
755.57	239.62
755.90	239.49
756.22	239.33
756.55	239.07
756.88	239.00
757.20	238.90
757.53	238.81
757.86	238.86
758.19	238.83
758.51	238.76
758.84	238.62
759.17	238.40
759.49	238.40
759.82	238.37
760.15	238.43
760.47	238.30
760.80	238.31
761.13	238.31
761.45	238.14
761.78	238.06
762.11	238.00
762.43	237.92
762.76	237.83
763.08	237.85
763.41	237.93
763.74	237.87
764.06	237.72
764.39	237.62
764.71	237.48
765.04	237.34
765.37	237.29
765.69	237.32
766.02	237.30
766.34	237.23
766.67	237.15
767.00	237.12
767.32	237.23
767.65	237.28
767.97	237.20
768.30	237.12
768.62	237.25
768.95	237.16
769.27	237.10
769.60	237.04
769.92	236.96
770.25	236.92
770.57	236.79
770.90	236.67
771.22	236.48
771.55	236.38
771.87	236.36
772.20	236.27
772.52	236.30
772.85	236.36
773.17	236.30
773.50	236.22
773.82	236.04
774.15	235.74
774.47	235.57
774.80	235.42
775.12	235.37
775.45	235.16
775.77	235.18
776.09	235.10
776.42	235.00
776.74	234.94
777.07	234.75
777.39	234.67
777.72	234.63
778.04	234.66
778.36	234.58
778.69	234.56
779.01	234.44
779.33	234.12
779.66	233.90
779.98	233.80
780.31	233.56
780.63	233.58
780.95	233.64
781.28	233.52
781.60	233.42
781.92	233.34
782.25	233.22
782.57	233.09
782.89	232.98
783.22	232.88
783.54	232.86
783.86	232.66
784.19	232.62
784.51	232.60
784.83	232.63
785.16	232.58
785.48	232.36
785.80	232.28
786.12	232.16
786.45	232.14
786.77	232.01
787.09	232.05
787.42	232.00
787.74	231.86
788.06	231.76
788.38	231.71
788.71	231.54
789.03	231.59
789.35	231.58
789.67	231.57
789.99	231.58
790.32	231.44
790.64	231.53
790.96	231.62
791.28	231.51
791.61	231.45
791.93	231.46
792.25	231.52
792.57	231.53
792.89	231.49
793.21	231.44
793.54	231.47
793.86	231.40
794.18	231.39
794.50	231.40
794.82	231.50
795.14	231.57
795.47	231.63
795.79	231.64
796.11	231.57
796.43	231.58
796.75	231.55
797.07	231.69
797.39	231.73
797.71	231.64
798.04	231.71
798.36	231.66
798.68	231.59
799.00	231.58
799.32	231.63
799.64	231.80
799.96	231.68
800.28	231.78
800.60	231.90
800.92	231.92
801.24	231.96
801.56	231.95
801.89	231.95
802.21	231.97
802.53	231.86
802.85	231.87
803.17	231.90
803.49	231.89
803.81	231.78
804.13	231.83
804.45	231.75
804.77	231.71
805.09	231.67
805.41	231.82
805.73	231.82
806.05	231.76
806.37	231.70
806.69	231.80
807.01	231.80
807.33	231.71
807.65	231.64
807.97	231.69
808.28	231.70
808.60	231.60
808.92	231.58
809.24	231.71
809.56	231.73
809.88	231.72
810.20	231.77
810.52	231.77
810.84	231.66
811.16	231.62
811.48	231.60
811.80	231.68
812.12	231.55
812.43	231.64
812.75	231.62
813.07	231.60
813.39	231.58
813.71	231.49
814.03	231.50
814.35	231.43
814.67	231.32
814.98	231.16
815.30	231.23
815.62	231.23
815.94	230.99
816.26	230.91
816.58	230.82
816.89	230.81
817.21	230.72
817.53	230.65
817.85	230.55
818.17	230.51
818.48	230.36
818.80	230.26
819.12	230.21
819.44	230.17
819.76	230.10
820.07	229.96
820.39	229.94
820.71	229.84
821.03	229.80
821.34	229.67
821.66	229.65
821.98	229.57
822.30	229.47
822.61	229.60
822.93	229.58
823.25	229.50
823.57	229.40
823.88	229.38
824.20	229.40
824.52	229.51
824.83	229.43
825.15	229.34
825.47	229.30
825.79	229.24
826.10	229.19
826.42	229.13
826.74	229.18
827.05	229.05
827.37	229.02
827.69	229.02
828.00	229.02
828.32	229.11
828.64	229.01
828.95	229.15
829.27	229.08
829.58	229.10
829.90	229.05
830.22	229.01
830.53	229.01
830.85	229.02
831.17	228.96
831.48	229.05
831.80	229.13
832.11	229.06
832.43	228.88
832.75	228.80
833.06	228.83
833.38	228.78
833.69	228.89
834.01	229.00
834.32	229.06
834.64	229.13
834.96	229.04
835.27	229.03
835.59	228.99
835.90	229.00
836.22	228.91
836.53	228.98
836.85	228.99
837.16	229.15
837.48	229.20
837.79	229.27
838.11	229.23
838.42	229.19
838.74	229.36
839.05	229.50
839.37	229.62
839.68	229.59
840.00	229.67
840.31	229.64
840.63	229.65
840.94	229.60
841.26	229.49
841.57	229.59
841.88	229.61
842.20	229.53
842.51	229.60
842.83	229.68
843.14	229.87
843.46	229.89
843.77	229.84
844.08	229.81
844.40	229.83
844.71	229.86
845.03	229.86
845.34	229.80
845.65	229.77
845.97	229.80
846.28	229.77
846.60	229.70
846.91	229.71
847.22	229.69
847.54	229.70
847.85	229.78
848.16	229.70
848.48	229.72
848.79	229.86
849.10	229.80
849.42	229.75
849.73	229.61
850.04	229.66
850.36	229.51
850.67	229.52
850.98	229.51
851.30	229.54
851.61	229.53
851.92	229.51
852.23	229.55
852.55	229.48
852.86	229.64
853.17	229.62
853.49	229.61
853.80	229.60
854.11	229.63
854.42	229.72
854.74	229.77
855.05	229.75
855.36	229.50
855.67	229.47
855.99	229.45
856.30	229.60
856.61	229.50
856.92	229.61
857.23	229.54
857.55	229.35
857.86	229.30
858.17	229.27
858.48	229.22
858.79	229.16
859.11	229.20
859.42	229.11
859.73	229.13
860.04	229.12
860.35	229.09
860.66	229.02
860.98	228.90
861.29	228.78
861.60	228.70
861.91	228.80
862.22	228.70
862.53	228.66
862.84	228.35
863.16	228.46
863.47	228.34
863.78	228.24
864.09	228.26
864.40	228.11
864.71	228.12
865.02	228.11
865.33	228.07
865.64	227.98
865.95	227.97
866.27	228.07
866.58	228.01
866.89	228.00
867.20	227.96
867.51	227.86
867.82	227.99
868.13	228.07
868.44	228.00
868.75	228.05
869.06	228.07
869.37	228.22
869.68	228.15
869.99	228.20
870.30	228.26
870.61	228.30
870.92	228.44
871.23	228.45
871.54	228.48
871.85	228.41
872.16	228.49
872.47	228.52
872.78	228.47
873.09	228.55
873.40	228.54
873.71	228.59
874.02	228.65
874.33	228.56
874.64	228.62
874.95	228.73
875.26	228.76
875.56	228.84
875.87	228.80
876.18	228.74
876.49	228.88
876.80	228.95
877.11	228.99
877.42	229.03
877.73	229.13
878.04	229.16
878.35	229.32
878.66	229.31
878.96	229.24
879.27	229.20
879.58	229.19
879.89	229.10
880.20	229.27
880.51	229.32
880.82	229.46
881.12	229.44
881.43	229.33
881.74	229.37
882.05	229.32
882.36	229.34
882.67	229.43
882.97	229.28
883.28	229.18
883.59	229.24
883.90	229.31
884.21	229.15
884.51	229.07
884.82	229.06
885.13	229.14
885.44	229.16
885.74	229.15
886.05	229.18
886.36	229.28
886.67	229.17
886.98	229.29
887.28	229.24
887.59	229.20
887.90	229.27
888.20	229.24
888.51	229.22
888.82	229.18
889.13	229.10
889.43	229.22
889.74	229.35
890.05	229.29
890.35	229.20
890.66	229.33
890.97	229.31
891.28	229.26
891.58	229.16
891.89	229.22
892.20	229.24
892.50	229.23
892.81	229.13
893.12	229.11
893.42	228.94
893.73	228.90
894.04	228.85
894.34	228.80
894.65	228.82
894.95	228.83
895.26	228.80
895.57	229.03
895.87	228.87
896.18	228.81
896.48	228.69
896.79	228.62
897.10	228.56
897.40	228.61
897.71	228.55
898.01	228.54
898.32	228.47
898.63	228.41
898.93	228.31
899.24	228.30
899.54	228.19
899.85	228.13
900.15	228.04
900.46	228.00
900.76	228.06
901.07	228.00
901.38	227.96
901.68	227.98
901.99	227.75
902.29	227.71
902.60	227.74
902.90	227.82
903.21	227.87
903.51	227.91
903.82	227.92
904.12	227.89
904.43	227.92
904.73	227.83
905.03	227.80
905.34	228.01
905.64	228.05
905.95	228.13
906.25	228.20
906.56	228.22
906.86	228.30
907.17	228.23
907.47	228.22
907.77	228.16
908.08	228.09
908.38	228.08
908.69	228.05
908.99	228.01
909.30	227.98
909.60	227.90
909.90	227.91
910.21	227.82
910.51	227.81
910.81	227.80
911.12	227.86
911.42	227.93
911.73	227.69
912.03	227.57
912.33	227.67
912.64	227.72
912.94	227.72
913.24	227.70
913.55	227.70
913.85	227.75
914.15	227.94
914.46	227.98
914.76	228.08
915.06	228.19
915.37	228.20
915.67	228.34
915.97	228.36
916.27	228.29
916.58	228.42
916.88	228.53
917.18	228.51
917.49	228.72
917.79	228.65
918.09	228.76
918.39	228.94
918.70	228.87
919.00	228.73
919.30	228.93
919.60	228.96
919.91	229.04
920.21	229.13
920.51	229.04
920.81	229.06
921.12	229.09
921.42	229.01
921.72	229.06
922.02	228.97
922.32	228.95
922.63	229.03
922.93	229.14
923.23	229.20
923.53	229.13
923.83	228.97
924.13	229.02
924.44	229.03
924.74	229.12
925.04	229.16
925.34	229.26
925.64	229.06
925.94	228.95
926.24	228.98
926.55	228.86
926.85	228.88
927.15	228.89
927.45	228.87
927.75	228.88
928.05	228.86
928.35	228.90
928.65	228.92
928.95	228.91
929.26	228.72
929.56	228.71
929.86	228.85
930.16	228.80
930.46	228.81
930.76	228.73
931.06	228.52
931.36	228.46
931.66	228.48
931.96	228.48
932.26	228.54
932.56	228.44
932.86	228.41
933.16	228.32
933.46	228.28
933.76	228.29
934.06	228.27
934.36	228.32
934.66	228.21
934.96	228.14
935.26	228.04
935.56	228.07
935.86	227.96
936.16	227.82
936.46	227.80
936.76	227.75
937.06	227.70
937.36	227.74
937.66	227.70
937.96	227.64
938.26	227.65
938.56	227.54
938.86	227.57
939.16	227.62
939.46	227.67
939.76	227.67
940.06	227.60
940.35	227.58
940.65	227.40
940.95	227.42
941.25	227.39
941.55	227.31
941.85	227.32
942.15	227.32
942.45	227.41
942.75	227.45
943.04	227.42
943.34	227.47
943.64	227.44
943.94	227.35
944.24	227.40
944.54	227.38
944.84	227.40
945.13	227.40
945.43	227.30
945.73	227.25
946.03	227.20
946.33	227.22
946.62	227.29
946.92	227.33
947.22	227.35
947.52	227.49
947.82	227.62
948.11	227.69
948.41	227.64
948.71	227.62
949.01	227.60
949.31	227.68
949.60	227.69
949.90	227.85
950.20	227.82
950.50	227.80
950.79	227.86
951.09	228.00
951.39	228.00
951.69	228.07
951.98	228.18
952.28	228.21
952.58	228.20
952.87	228.16
953.17	228.19
953.47	228.20
953.76	228.27
954.06	228.24
954.36	228.21
954.66	228.28
954.95	228.32
955.25	228.41
955.55	228.46
955.84	228.57
956.14	228.56
956.44	228.68
956.73	228.72
957.03	228.72
957.32	228.74
957.62	228.73
957.92	228.77
958.21	228.73
958.51	228.96
958.81	228.99
959.10	229.13
959.40	229.22
959.69	229.27
959.99	229.27
960.29	229.29
960.58	229.24
960.88	229.40
961.17	229.37
961.47	229.39
961.76	229.36
962.06	229.35
962.36	229.30
962.65	229.27
962.95	229.23
963.24	229.22
963.54	229.20
963.83	229.17
964.13	229.16
964.42	229.10
964.72	228.94
965.01	228.90
965.31	228.75
965.60	228.76
965.90	228.83
966.19	228.77
966.49	228.72
966.78	228.74
967.08	228.63
967.37	228.67
967.67	228.52
967.96	228.46
968.26	228.41
968.55	228.36
968.85	228.41
969.14	228.42
969.43	228.38
969.73	228.35
970.02	228.30
970.32	228.19
970.61	228.17
970.91	228.12
971.20	228.08
971.49	228.02
971.79	227.99
972.08	227.90
972.38	227.79
972.67	227.80
972.96	227.70
973.26	227.66
973.55	227.59
973.85	227.69
974.14	227.67
974.43	227.57
974.73	227.55
975.02	227.50
975.31	227.45
975.61	227.42
975.90	227.35
976.19	227.42
976.49	227.52
976.78	227.62
977.07	227.65
977.37	227.64
977.66	227.70
977.95	227.50
978.24	227.40
978.54	227.49
978.83	227.31
979.12	227.39
979.42	227.39
979.71	227.39
980.00	227.31
980.29	227.26
980.59	227.35
980.88	227.38
981.17	227.36
981.46	227.37
981.76	227.39
982.05	227.53
982.34	227.54
982.63	227.47
982.93	227.36
983.22	227.42
983.51	227.48
983.80	227.50
984.09	227.67
984.39	227.69
984.68	227.66
984.97	227.81
985.26	227.80
985.55	227.90
985.85	227.76
986.14	227.82
986.43	227.93
986.72	227.86
987.01	227.86
987.30	227.89
987.59	227.94
987.89	228.01
988.18	227.99
988.47	227.94
988.76	228.08
989.05	228.18
989.34	228.16
989.63	228.22
989.92	228.20
990.22	228.28
990.51	228.38
990.80	228.43
991.09	228.50
991.38	228.54
991.67	228.51
991.96	228.71
992.25	228.72
992.54	228.73
992.83	228.79
993.12	228.81
993.41	228.91
993.70	229.02
993.99	229.11
994.28	229.15
994.58	229.35
994.87	229.28
995.16	229.27
995.45	229.36
995.74	229.23
996.03	229.33
996.32	229.24
996.61	229.34
996.90	229.33
997.19	229.40
997.48	229.44
997.77	229.35
998.06	229.36
998.34	229.33
998.63	229.35
998.92	229.34
999.21	229.39
999.50	229.40
999.79	229.25
1000.08	229.11
1000.37	229.08
1000.66	228.99
1000.95	228.98
1001.24	229.00
1001.53	228.99
1001.82	229.07
1002.11	229.10
1002.40	229.13
1002.68	229.12
1002.97	229.29
1003.26	229.32
1003.55	229.33
1003.84	229.31
1004.13	229.36
1004.42	229.43
1004.71	229.41
1004.99	229.37
1005.28	229.45
1005.57	229.36
1005.86	229.25
1006.15	229.29
1006.44	229.15
1006.72	229.16
1007.01	229.18
1007.30	229.07
1007.59	228.97
1007.88	228.91
1008.17	228.82
1008.45	228.72
1008.74	228.68
1009.03	228.49
1009.32	228.45
1009.60	228.34
1009.89	228.34
1010.18	228.24
1010.47	228.18
1010.76	228.13
1011.04	228.12
1011.33	228.06
1011.62	228.05
1011.91	228.20
1012.19	228.10
1012.48	228.16
1012.77	228.04
1013.05	228.03
1013.34	228.14
1013.63	228.11
1013.92	228.10
1014.20	228.13
1014.49	228.14
1014.78	227.97
1015.06	227.89
1015.35	227.79
1015.64	227.81
1015.92	227.82
1016.21	227.74
1016.50	227.68
1016.78	227.78
1017.07	227.74
1017.36	227.60
1017.64	227.60
1017.93	227.56
1018.22	227.57
1018.50	227.57
1018.79	227.55
1019.08	227.45
1019.36	227.32
1019.65	227.39
1019.93	227.41
1020.22	227.37
1020.51	227.48
1020.79	227.50
1021.08	227.00
1021.36	227.00
1021.65	226.80
1021.94	227.00
1022.22	226.40
1022.51	229.10
1022.79	227.80
1023.08	227.90
1023.36	229.90
1023.65	226.50
>>>>>End Processed Spectral Data<<<<<
