SpectraSuite Data File
++++++++++++++++++++++++++++++++++++
Date: Fri Feb 01 14:39:46 EST 2013
User: group
Dark Spectrum Present: No
Reference Spectrum Present: No
Number of Sampled Component Spectra: 1
Spectrometers: USB2E7196
Integration Time (usec): 70000 (USB2E7196)
Spectra Averaged: 10 (USB2E7196)
Boxcar Smoothing: 10 (USB2E7196)
Correct for Electrical Dark: No (USB2E7196)
Strobe/Lamp Enabled: No (USB2E7196)
Correct for Detector Non-linearity: No (USB2E7196)
Correct for Stray Light: No (USB2E7196)
Number of Pixels in Processed Spectrum: 2048
>>>>>Begin Processed Spectral Data<<<<<
339.09	0.00
339.48	216.70
339.86	217.40
340.24	219.50
340.63	220.60
341.01	223.90
341.39	223.40
341.78	222.40
342.16	225.60
342.54	225.60
342.93	214.40
343.31	225.28
343.69	225.76
344.07	226.24
344.46	226.61
344.84	227.03
345.22	227.18
345.60	227.43
345.99	227.65
346.37	227.79
346.75	227.86
347.13	227.86
347.52	227.90
347.90	227.99
348.28	227.91
348.66	227.99
349.05	227.92
349.43	228.00
349.81	228.00
350.19	228.07
350.57	228.18
350.96	228.25
351.34	228.29
351.72	228.42
352.10	228.52
352.48	228.61
352.87	228.59
353.25	228.63
353.63	228.61
354.01	228.78
354.39	228.87
354.77	229.05
355.15	229.14
355.54	229.16
355.92	229.18
356.30	229.29
356.68	229.37
357.06	229.50
357.44	229.49
357.82	229.48
358.20	229.60
358.58	229.62
358.97	229.72
359.35	229.75
359.73	229.78
360.11	229.74
360.49	229.81
360.87	229.85
361.25	229.99
361.63	230.16
362.01	230.10
362.39	230.04
362.77	230.04
363.15	230.00
363.53	229.94
363.91	229.98
364.29	230.01
364.67	229.96
365.05	229.97
365.43	230.00
365.81	230.10
366.19	230.17
366.57	230.27
366.95	230.21
367.33	230.12
367.71	230.10
368.09	230.08
368.47	230.05
368.85	229.99
369.23	229.94
369.61	229.81
369.99	229.90
370.37	229.95
370.75	230.02
371.13	229.94
371.51	230.01
371.89	230.00
372.27	229.86
372.65	229.72
373.03	229.75
373.41	229.64
373.78	229.56
374.16	229.35
374.54	229.20
374.92	229.17
375.30	229.23
375.68	229.12
376.06	229.16
376.44	229.08
376.82	229.15
377.19	229.08
377.57	228.97
377.95	228.77
378.33	228.67
378.71	228.34
379.09	228.37
379.47	228.29
379.84	228.12
380.22	228.11
380.60	228.07
380.98	227.84
381.36	227.84
381.73	227.76
382.11	227.68
382.49	227.66
382.87	227.50
383.25	227.37
383.62	227.48
384.00	227.37
384.38	227.14
384.76	226.90
385.13	226.91
385.51	226.94
385.89	226.90
386.27	226.84
386.64	226.88
387.02	226.75
387.40	226.70
387.78	226.66
388.15	226.50
388.53	226.45
388.91	226.49
389.29	226.35
389.66	226.32
390.04	226.29
390.42	226.22
390.79	226.20
391.17	226.19
391.55	226.00
391.92	225.99
392.30	226.15
392.68	226.23
393.05	226.18
393.43	226.19
393.81	226.19
394.18	226.14
394.56	226.21
394.94	226.27
395.31	226.32
395.69	226.39
396.06	226.53
396.44	226.59
396.82	226.56
397.19	226.83
397.57	226.78
397.95	226.87
398.32	226.93
398.70	227.07
399.07	227.14
399.45	227.30
399.82	227.32
400.20	227.34
400.58	227.42
400.95	227.40
401.33	227.46
401.70	227.70
402.08	227.75
402.45	227.80
402.83	228.04
403.20	228.10
403.58	228.21
403.95	228.41
404.33	228.60
404.71	228.86
405.08	228.97
405.46	229.24
405.83	229.39
406.21	229.51
406.58	229.65
406.96	229.93
407.33	230.02
407.70	230.28
408.08	230.72
408.45	230.96
408.83	231.26
409.20	231.57
409.58	231.74
409.95	232.06
410.33	232.43
410.70	232.52
411.08	232.79
411.45	233.09
411.82	233.32
412.20	233.66
412.57	234.14
412.95	234.46
413.32	234.86
413.69	235.26
414.07	235.70
414.44	236.12
414.82	236.56
415.19	237.16
415.56	237.61
415.94	238.03
416.31	238.68
416.68	239.38
417.06	240.04
417.43	240.66
417.81	241.45
418.18	242.15
418.55	243.08
418.93	244.02
419.30	244.95
419.67	245.95
420.04	246.96
420.42	247.83
420.79	249.03
421.16	250.10
421.54	251.37
421.91	252.68
422.28	253.99
422.66	255.26
423.03	256.64
423.40	258.07
423.77	259.47
424.15	260.98
424.52	262.58
424.89	264.19
425.26	265.69
425.64	267.11
426.01	268.62
426.38	270.27
426.75	271.95
427.13	273.70
427.50	275.37
427.87	277.30
428.24	279.07
428.61	280.82
428.99	283.01
429.36	284.99
429.73	286.97
430.10	288.98
430.47	291.10
430.85	293.25
431.22	295.58
431.59	298.18
431.96	300.33
432.33	302.73
432.70	305.16
433.08	308.15
433.45	311.02
433.82	313.91
434.19	316.87
434.56	319.77
434.93	322.61
435.30	325.42
435.68	328.30
436.05	331.50
436.42	334.42
436.79	336.93
437.16	339.96
437.53	343.06
437.90	346.09
438.27	349.19
438.64	352.13
439.01	355.00
439.38	357.33
439.75	359.84
440.13	362.35
440.50	364.90
440.87	367.08
441.24	369.17
441.61	371.51
441.98	373.26
442.35	375.30
442.72	377.32
443.09	379.35
443.46	380.77
443.83	381.45
444.20	382.07
444.57	383.11
444.94	383.51
445.31	383.91
445.68	384.60
446.05	384.75
446.42	384.50
446.79	384.13
447.16	383.72
447.53	383.50
447.90	382.59
448.27	381.58
448.64	379.95
449.01	378.88
449.37	377.02
449.74	375.23
450.11	373.08
450.48	370.52
450.85	368.05
451.22	365.74
451.59	363.64
451.96	361.86
452.33	359.19
452.70	356.76
453.07	354.04
453.43	350.90
453.80	347.96
454.17	345.25
454.54	342.66
454.91	340.03
455.28	337.19
455.65	334.67
456.02	332.24
456.38	329.95
456.75	327.18
457.12	324.67
457.49	322.37
457.86	320.13
458.23	318.28
458.59	316.10
458.96	314.00
459.33	312.08
459.70	310.18
460.07	308.62
460.43	306.86
460.80	305.08
461.17	303.61
461.54	302.06
461.91	300.37
462.27	298.71
462.64	297.26
463.01	295.81
463.38	294.43
463.74	292.80
464.11	291.55
464.48	290.34
464.85	289.24
465.21	288.30
465.58	287.12
465.95	285.90
466.32	284.75
466.68	283.66
467.05	282.61
467.42	281.41
467.78	280.27
468.15	279.19
468.52	278.39
468.88	277.32
469.25	276.39
469.62	275.78
469.98	274.96
470.35	274.16
470.72	273.46
471.08	272.56
471.45	271.82
471.82	271.19
472.18	270.56
472.55	269.89
472.92	269.08
473.28	268.36
473.65	267.69
474.02	267.14
474.38	266.54
474.75	266.09
475.11	265.39
475.48	265.01
475.85	264.56
476.21	264.04
476.58	263.60
476.94	263.25
477.31	262.76
477.67	262.43
478.04	262.04
478.41	261.65
478.77	261.57
479.14	261.19
479.50	260.89
479.87	260.56
480.23	260.19
480.60	259.90
480.96	259.76
481.33	259.66
481.69	259.53
482.06	259.38
482.42	259.14
482.79	259.20
483.15	259.05
483.52	258.96
483.88	258.71
484.25	258.63
484.61	258.51
484.98	258.40
485.34	258.33
485.71	258.32
486.07	258.30
486.44	258.11
486.80	258.20
487.17	258.22
487.53	258.27
487.90	258.42
488.26	258.70
488.62	258.84
488.99	258.84
489.35	258.94
489.72	259.01
490.08	259.23
490.44	259.24
490.81	259.40
491.17	259.60
491.54	260.01
491.90	260.24
492.26	260.49
492.63	260.86
492.99	261.16
493.36	261.48
493.72	261.85
494.08	262.16
494.45	262.65
494.81	263.10
495.17	263.62
495.54	264.11
495.90	264.41
496.26	264.94
496.63	265.60
496.99	266.28
497.35	267.01
497.72	267.72
498.08	268.50
498.44	269.24
498.80	270.14
499.17	270.95
499.53	271.76
499.89	272.63
500.26	273.47
500.62	274.46
500.98	275.51
501.34	276.55
501.71	277.68
502.07	278.73
502.43	279.90
502.79	281.05
503.16	282.28
503.52	283.71
503.88	284.91
504.24	286.17
504.60	287.53
504.97	288.91
505.33	290.30
505.69	292.00
506.05	293.72
506.41	295.36
506.78	297.10
507.14	298.90
507.50	300.88
507.86	303.00
508.22	305.17
508.59	307.24
508.95	309.45
509.31	311.82
509.67	314.11
510.03	316.47
510.39	319.03
510.75	321.80
511.12	324.37
511.48	327.27
511.84	330.30
512.20	333.41
512.56	336.54
512.92	339.90
513.28	343.33
513.64	346.74
514.00	350.22
514.37	353.86
514.73	357.70
515.09	361.50
515.45	365.26
515.81	369.28
516.17	373.49
516.53	377.84
516.89	382.17
517.25	386.73
517.61	391.42
517.97	396.10
518.33	400.70
518.69	405.78
519.05	410.81
519.41	415.98
519.77	421.42
520.13	426.89
520.49	432.14
520.85	437.55
521.21	443.37
521.57	449.23
521.93	455.08
522.29	461.08
522.65	467.10
523.01	473.41
523.37	479.58
523.73	485.98
524.09	492.35
524.45	498.82
524.81	505.36
525.17	512.48
525.53	519.54
525.89	526.59
526.25	533.76
526.61	540.99
526.97	548.07
527.33	555.20
527.68	562.85
528.04	570.48
528.40	578.03
528.76	585.53
529.12	593.49
529.48	601.45
529.84	609.27
530.20	617.63
530.56	625.90
530.91	634.18
531.27	642.53
531.63	651.05
531.99	659.60
532.35	668.20
532.71	676.21
533.07	684.97
533.42	693.83
533.78	702.30
534.14	711.00
534.50	719.70
534.86	728.53
535.21	737.04
535.57	746.16
535.93	755.08
536.29	764.14
536.65	772.98
537.00	781.73
537.36	790.66
537.72	799.40
538.08	808.21
538.44	816.90
538.79	825.86
539.15	834.61
539.51	843.73
539.87	853.05
540.22	862.20
540.58	871.10
540.94	879.87
541.29	888.75
541.65	897.50
542.01	906.86
542.37	915.62
542.72	924.39
543.08	933.13
543.44	942.15
543.79	950.59
544.15	959.16
544.51	968.32
544.87	977.45
545.22	985.94
545.58	994.41
545.94	1002.81
546.29	1010.99
546.65	1019.29
547.01	1027.20
547.36	1035.03
547.72	1043.02
548.07	1050.56
548.43	1058.21
548.79	1066.00
549.14	1073.63
549.50	1080.63
549.86	1088.00
550.21	1095.38
550.57	1102.93
550.92	1109.99
551.28	1117.23
551.64	1124.35
551.99	1131.37
552.35	1137.71
552.70	1144.81
553.06	1152.06
553.41	1159.18
553.77	1165.95
554.13	1172.97
554.48	1179.61
554.84	1186.12
555.19	1192.61
555.55	1199.48
555.90	1205.78
556.26	1211.86
556.61	1218.17
556.97	1224.20
557.32	1230.32
557.68	1236.38
558.03	1242.10
558.39	1247.70
558.74	1253.89
559.10	1259.70
559.45	1264.83
559.81	1271.21
560.16	1276.55
560.52	1281.63
560.87	1287.32
561.23	1292.53
561.58	1297.56
561.94	1303.07
562.29	1307.83
562.64	1312.27
563.00	1316.68
563.35	1321.84
563.71	1327.20
564.06	1332.22
564.42	1337.35
564.77	1342.28
565.12	1347.10
565.48	1351.42
565.83	1355.86
566.19	1359.71
566.54	1363.80
566.89	1367.97
567.25	1371.13
567.60	1375.11
567.96	1378.70
568.31	1381.96
568.66	1385.45
569.02	1388.73
569.37	1391.33
569.72	1394.70
570.08	1398.00
570.43	1400.80
570.78	1403.34
571.14	1405.39
571.49	1407.38
571.84	1410.01
572.20	1411.87
572.55	1413.56
572.90	1415.67
573.26	1417.46
573.61	1419.19
573.96	1420.39
574.31	1421.19
574.67	1422.18
575.02	1422.82
575.37	1423.56
575.72	1423.98
576.08	1424.71
576.43	1424.89
576.78	1425.53
577.13	1426.10
577.49	1426.83
577.84	1426.93
578.19	1426.89
578.54	1427.10
578.90	1426.88
579.25	1425.88
579.60	1425.23
579.95	1424.67
580.30	1423.49
580.66	1422.75
581.01	1421.70
581.36	1421.30
581.71	1421.35
582.06	1420.78
582.42	1419.71
582.77	1418.46
583.12	1417.41
583.47	1416.47
583.82	1415.52
584.17	1414.23
584.53	1413.09
584.88	1411.34
585.23	1409.98
585.58	1408.97
585.93	1407.44
586.28	1406.43
586.63	1405.46
586.98	1404.11
587.34	1402.68
587.69	1401.21
588.04	1399.78
588.39	1398.53
588.74	1396.20
589.09	1393.77
589.44	1391.24
589.79	1389.32
590.14	1388.03
590.49	1386.06
590.84	1383.59
591.19	1381.66
591.54	1378.76
591.89	1375.27
592.25	1372.84
592.60	1369.84
592.95	1366.44
593.30	1363.09
593.65	1359.76
594.00	1356.57
594.35	1353.91
594.70	1350.30
595.05	1347.56
595.40	1343.87
595.75	1340.30
596.10	1337.25
596.45	1334.27
596.80	1332.33
597.15	1329.42
597.50	1325.92
597.85	1322.93
598.19	1320.03
598.54	1316.90
598.89	1314.29
599.24	1312.21
599.59	1309.07
599.94	1306.24
600.29	1303.24
600.64	1300.33
600.99	1296.75
601.34	1293.45
601.69	1289.86
602.04	1286.96
602.39	1283.30
602.74	1280.68
603.08	1277.88
603.43	1274.95
603.78	1271.50
604.13	1267.32
604.48	1263.89
604.83	1260.59
605.18	1256.88
605.53	1252.90
605.87	1248.40
606.22	1244.60
606.57	1240.21
606.92	1236.25
607.27	1232.84
607.62	1229.26
607.96	1225.76
608.31	1222.36
608.66	1218.41
609.01	1213.96
609.36	1209.48
609.70	1204.95
610.05	1199.74
610.40	1195.05
610.75	1190.12
611.10	1185.68
611.44	1180.96
611.79	1176.59
612.14	1171.77
612.49	1166.63
612.83	1161.74
613.18	1157.06
613.53	1152.23
613.88	1147.13
614.22	1141.99
614.57	1136.50
614.92	1131.58
615.27	1126.63
615.61	1121.71
615.96	1116.50
616.31	1112.19
616.65	1107.98
617.00	1103.75
617.35	1099.71
617.70	1095.05
618.04	1090.30
618.39	1085.33
618.74	1080.90
619.08	1075.64
619.43	1070.98
619.78	1066.22
620.12	1061.77
620.47	1057.37
620.82	1052.56
621.16	1048.01
621.51	1043.84
621.85	1039.71
622.20	1034.81
622.55	1030.28
622.89	1025.67
623.24	1021.64
623.59	1017.15
623.93	1012.81
624.28	1008.18
624.62	1003.65
624.97	998.86
625.32	994.92
625.66	990.52
626.01	985.90
626.35	981.60
626.70	977.00
627.04	973.07
627.39	968.44
627.73	963.97
628.08	959.82
628.43	955.42
628.77	950.80
629.12	946.14
629.46	941.65
629.81	936.52
630.15	931.88
630.50	926.91
630.84	921.80
631.19	916.46
631.53	911.62
631.88	906.53
632.22	901.75
632.57	896.89
632.91	892.14
633.26	887.37
633.60	882.47
633.95	877.88
634.29	873.17
634.64	868.79
634.98	864.22
635.32	859.52
635.67	855.29
636.01	850.96
636.36	846.19
636.70	841.92
637.05	837.90
637.39	833.64
637.73	829.35
638.08	825.72
638.42	821.99
638.77	817.92
639.11	814.02
639.45	809.79
639.80	805.26
640.14	801.25
640.49	797.12
640.83	793.03
641.17	788.90
641.52	784.75
641.86	780.40
642.20	776.30
642.55	772.30
642.89	768.27
643.23	763.97
643.58	760.49
643.92	756.16
644.26	752.08
644.61	748.29
644.95	744.29
645.29	739.66
645.64	735.18
645.98	731.24
646.32	727.05
646.66	723.20
647.01	719.22
647.35	715.34
647.69	711.43
648.04	707.86
648.38	703.82
648.72	699.55
649.06	695.50
649.41	691.53
649.75	687.13
650.09	682.97
650.43	678.83
650.78	674.20
651.12	670.25
651.46	666.28
651.80	662.23
652.14	658.50
652.49	654.96
652.83	651.36
653.17	647.32
653.51	643.40
653.85	639.60
654.20	635.64
654.54	631.55
654.88	627.50
655.22	623.29
655.56	619.46
655.90	615.75
656.25	612.08
656.59	608.25
656.93	605.06
657.27	601.50
657.61	597.93
657.95	594.59
658.29	591.07
658.64	587.60
658.98	583.86
659.32	579.88
659.66	576.08
660.00	572.37
660.34	568.74
660.68	565.16
661.02	561.68
661.36	558.62
661.70	555.47
662.05	552.49
662.39	549.42
662.73	546.30
663.07	543.47
663.41	540.53
663.75	537.36
664.09	534.09
664.43	530.92
664.77	527.95
665.11	525.11
665.45	522.21
665.79	519.04
666.13	516.19
666.47	513.56
666.81	510.67
667.15	507.83
667.49	505.12
667.83	502.63
668.17	499.75
668.51	496.91
668.85	493.98
669.19	491.23
669.53	488.54
669.87	485.84
670.21	483.10
670.55	480.67
670.89	478.59
671.23	476.19
671.57	473.71
671.91	471.42
672.25	468.99
672.58	466.72
672.92	464.63
673.26	462.51
673.60	460.36
673.94	458.33
674.28	456.21
674.62	454.16
674.96	452.01
675.30	450.01
675.64	447.92
675.97	445.89
676.31	443.80
676.65	441.75
676.99	439.73
677.33	437.55
677.67	435.35
678.01	432.97
678.34	430.89
678.68	429.05
679.02	426.80
679.36	424.65
679.70	422.74
680.04	420.59
680.37	418.41
680.71	416.34
681.05	414.59
681.39	412.80
681.73	411.01
682.06	409.20
682.40	407.47
682.74	405.71
683.08	404.14
683.42	402.44
683.75	400.78
684.09	399.08
684.43	397.43
684.77	395.64
685.10	394.10
685.44	392.39
685.78	390.57
686.12	389.05
686.45	387.60
686.79	385.89
687.13	384.23
687.46	382.71
687.80	381.15
688.14	379.14
688.48	377.43
688.81	375.52
689.15	373.95
689.49	372.30
689.82	370.70
690.16	369.18
690.50	367.65
690.83	366.05
691.17	364.40
691.51	362.90
691.84	361.52
692.18	359.95
692.52	358.46
692.85	357.10
693.19	355.75
693.52	354.15
693.86	352.59
694.20	351.31
694.53	349.75
694.87	348.26
695.21	346.87
695.54	345.55
695.88	344.24
696.21	342.70
696.55	341.44
696.88	340.06
697.22	338.53
697.56	337.18
697.89	335.85
698.23	334.65
698.56	333.35
698.90	332.16
699.23	330.81
699.57	329.53
699.90	328.24
700.24	326.95
700.58	325.76
700.91	324.61
701.25	323.43
701.58	322.43
701.92	321.34
702.25	320.28
702.59	319.22
702.92	318.25
703.26	317.24
703.59	316.20
703.93	315.37
704.26	314.56
704.60	313.60
704.93	312.68
705.26	311.59
705.60	310.77
705.93	309.83
706.27	308.96
706.60	308.19
706.94	307.29
707.27	306.33
707.61	305.57
707.94	304.84
708.27	303.85
708.61	302.88
708.94	302.15
709.28	301.50
709.61	300.72
709.94	299.88
710.28	299.07
710.61	298.23
710.95	297.14
711.28	296.36
711.61	295.47
711.95	294.66
712.28	293.96
712.61	293.07
712.95	292.21
713.28	291.70
713.61	290.89
713.95	290.27
714.28	289.69
714.61	288.96
714.95	288.25
715.28	287.64
715.61	287.03
715.95	286.33
716.28	285.62
716.61	284.95
716.95	284.40
717.28	283.88
717.61	283.23
717.94	282.74
718.28	282.04
718.61	281.59
718.94	280.93
719.27	280.40
719.61	280.00
719.94	279.54
720.27	278.81
720.60	278.24
720.94	277.68
721.27	277.11
721.60	276.62
721.93	276.10
722.27	275.68
722.60	275.26
722.93	274.71
723.26	274.32
723.59	273.82
723.93	273.28
724.26	272.84
724.59	272.47
724.92	272.13
725.25	271.65
725.59	271.28
725.92	270.93
726.25	270.48
726.58	269.92
726.91	269.43
727.24	268.98
727.57	268.60
727.91	268.03
728.24	267.72
728.57	267.29
728.90	266.86
729.23	266.32
729.56	265.88
729.89	265.49
730.22	265.01
730.55	264.64
730.89	264.35
731.22	263.90
731.55	263.48
731.88	263.00
732.21	262.70
732.54	262.12
732.87	261.71
733.20	261.35
733.53	261.10
733.86	260.66
734.19	260.23
734.52	260.04
734.85	259.77
735.18	259.32
735.51	259.01
735.84	258.68
736.17	258.39
736.50	257.99
736.83	257.87
737.16	257.51
737.49	257.07
737.82	256.67
738.15	256.45
738.48	256.15
738.81	255.76
739.14	255.30
739.47	254.95
739.80	254.64
740.13	254.30
740.46	253.79
740.79	253.40
741.12	253.15
741.45	252.71
741.78	252.34
742.11	252.03
742.44	251.66
742.77	251.40
743.10	251.02
743.43	250.73
743.75	250.28
744.08	250.24
744.41	250.08
744.74	249.81
745.07	249.45
745.40	249.14
745.73	248.96
746.06	248.74
746.39	248.55
746.71	248.42
747.04	248.18
747.37	248.10
747.70	248.03
748.03	247.75
748.36	247.54
748.68	247.26
749.01	247.07
749.34	246.83
749.67	246.66
750.00	246.61
750.33	246.49
750.65	246.21
750.98	245.72
751.31	245.51
751.64	245.27
751.97	245.18
752.29	245.01
752.62	244.78
752.95	244.57
753.28	244.47
753.60	244.23
753.93	244.09
754.26	243.85
754.59	243.64
754.91	243.60
755.24	243.36
755.57	243.30
755.90	243.08
756.22	242.92
756.55	242.75
756.88	242.53
757.20	242.38
757.53	242.23
757.86	242.12
758.19	241.90
758.51	241.81
758.84	241.66
759.17	241.48
759.49	241.35
759.82	241.31
760.15	241.18
760.47	241.05
760.80	240.97
761.13	240.82
761.45	240.65
761.78	240.49
762.11	240.55
762.43	240.41
762.76	240.35
763.08	240.33
763.41	240.17
763.74	240.09
764.06	239.95
764.39	239.81
764.71	239.80
765.04	239.70
765.37	239.70
765.69	239.50
766.02	239.43
766.34	239.33
766.67	239.17
767.00	238.99
767.32	238.95
767.65	238.83
767.97	238.72
768.30	238.63
768.62	238.52
768.95	238.37
769.27	238.24
769.60	238.23
769.92	238.00
770.25	237.89
770.57	237.71
770.90	237.59
771.22	237.51
771.55	237.37
771.87	237.31
772.20	237.08
772.52	237.21
772.85	237.24
773.17	237.16
773.50	237.10
773.82	237.01
774.15	236.70
774.47	236.61
774.80	236.50
775.12	236.50
775.45	236.49
775.77	236.33
776.09	236.32
776.42	236.20
776.74	236.15
777.07	235.92
777.39	235.78
777.72	235.68
778.04	235.55
778.36	235.38
778.69	235.29
779.01	235.25
779.33	234.89
779.66	234.65
779.98	234.52
780.31	234.40
780.63	234.35
780.95	234.31
781.28	234.11
781.60	234.03
781.92	233.86
782.25	233.64
782.57	233.53
782.89	233.46
783.22	233.27
783.54	233.08
783.86	233.08
784.19	233.06
784.51	233.03
784.83	233.00
785.16	232.90
785.48	232.88
785.80	232.73
786.12	232.79
786.45	232.64
786.77	232.53
787.09	232.49
787.42	232.39
787.74	232.35
788.06	232.29
788.38	232.20
788.71	232.12
789.03	232.11
789.35	232.15
789.67	231.97
789.99	231.99
790.32	231.93
790.64	231.95
790.96	232.03
791.28	231.91
791.61	231.90
791.93	231.87
792.25	231.80
792.57	231.91
792.89	231.79
793.21	231.83
793.54	231.84
793.86	231.86
794.18	231.83
794.50	231.80
794.82	231.77
795.14	231.87
795.47	231.85
795.79	231.81
796.11	231.65
796.43	231.68
796.75	231.61
797.07	231.72
797.39	231.75
797.71	231.64
798.04	231.68
798.36	231.58
798.68	231.61
799.00	231.62
799.32	231.50
799.64	231.57
799.96	231.52
800.28	231.58
800.60	231.51
800.92	231.57
801.24	231.57
801.56	231.66
801.89	231.63
802.21	231.74
802.53	231.81
802.85	231.93
803.17	232.01
803.49	231.98
803.81	231.99
804.13	231.98
804.45	231.90
804.77	231.84
805.09	231.88
805.41	231.84
805.73	231.72
806.05	231.66
806.37	231.67
806.69	231.74
807.01	231.71
807.33	231.78
807.65	231.71
807.97	231.85
808.28	231.90
808.60	231.80
808.92	231.66
809.24	231.70
809.56	231.68
809.88	231.55
810.20	231.51
810.52	231.45
810.84	231.28
811.16	231.32
811.48	231.38
811.80	231.44
812.12	231.45
812.43	231.61
812.75	231.68
813.07	231.57
813.39	231.52
813.71	231.51
814.03	231.38
814.35	231.30
814.67	231.13
814.98	231.03
815.30	231.00
815.62	231.02
815.94	230.85
816.26	230.82
816.58	230.90
816.89	230.90
817.21	230.82
817.53	230.92
817.85	230.90
818.17	230.86
818.48	230.73
818.80	230.74
819.12	230.60
819.44	230.53
819.76	230.44
820.07	230.33
820.39	230.21
820.71	230.06
821.03	230.08
821.34	230.05
821.66	230.09
821.98	230.07
822.30	229.99
822.61	230.03
822.93	229.90
823.25	229.82
823.57	229.74
823.88	229.77
824.20	229.67
824.52	229.61
824.83	229.56
825.15	229.48
825.47	229.33
825.79	229.33
826.10	229.27
826.42	229.23
826.74	229.23
827.05	229.21
827.37	229.33
827.69	229.30
828.00	229.23
828.32	229.20
828.64	229.17
828.95	229.28
829.27	229.19
829.58	229.19
829.90	229.11
830.22	229.12
830.53	229.05
830.85	228.91
831.17	228.83
831.48	228.80
831.80	228.91
832.11	229.04
832.43	228.93
832.75	228.97
833.06	229.14
833.38	229.14
833.69	229.16
834.01	229.15
834.32	229.20
834.64	229.15
834.96	229.05
835.27	229.10
835.59	229.07
835.90	229.07
836.22	229.17
836.53	229.19
836.85	229.23
837.16	229.51
837.48	229.59
837.79	229.62
838.11	229.59
838.42	229.50
838.74	229.53
839.05	229.67
839.37	229.63
839.68	229.58
840.00	229.60
840.31	229.60
840.63	229.60
840.94	229.47
841.26	229.44
841.57	229.45
841.88	229.44
842.20	229.43
842.51	229.49
842.83	229.36
843.14	229.52
843.46	229.57
843.77	229.40
844.08	229.55
844.40	229.60
844.71	229.60
845.03	229.69
845.34	229.56
845.65	229.48
845.97	229.61
846.28	229.55
846.60	229.59
846.91	229.65
847.22	229.67
847.54	229.87
847.85	230.03
848.16	230.05
848.48	229.98
848.79	230.02
849.10	230.02
849.42	230.11
849.73	229.88
850.04	229.87
850.36	229.86
850.67	229.81
850.98	229.81
851.30	229.98
851.61	229.93
851.92	229.96
852.23	229.95
852.55	229.93
852.86	229.95
853.17	229.88
853.49	229.82
853.80	229.89
854.11	229.80
854.42	229.79
854.74	229.69
855.05	229.69
855.36	229.52
855.67	229.51
855.99	229.38
856.30	229.70
856.61	229.67
856.92	229.61
857.23	229.53
857.55	229.45
857.86	229.24
858.17	229.25
858.48	229.22
858.79	229.24
859.11	229.13
859.42	229.09
859.73	229.09
860.04	229.13
860.35	229.07
860.66	228.92
860.98	228.86
861.29	228.95
861.60	228.92
861.91	228.91
862.22	228.85
862.53	228.86
862.84	228.58
863.16	228.53
863.47	228.43
863.78	228.39
864.09	228.33
864.40	228.40
864.71	228.34
865.02	228.32
865.33	228.11
865.64	227.97
865.95	227.95
866.27	228.06
866.58	227.94
866.89	227.78
867.20	227.86
867.51	227.73
867.82	227.65
868.13	227.75
868.44	227.77
868.75	227.78
869.06	227.82
869.37	227.93
869.68	227.94
869.99	227.92
870.30	228.02
870.61	228.05
870.92	227.93
871.23	227.97
871.54	227.95
871.85	228.19
872.16	228.35
872.47	228.37
872.78	228.25
873.09	228.36
873.40	228.44
873.71	228.32
874.02	228.36
874.33	228.36
874.64	228.29
874.95	228.42
875.26	228.39
875.56	228.35
875.87	228.17
876.18	228.10
876.49	228.46
876.80	228.38
877.11	228.25
877.42	228.32
877.73	228.31
878.04	228.40
878.35	228.29
878.66	228.32
878.96	228.35
879.27	228.39
879.58	228.40
879.89	228.40
880.20	228.54
880.51	228.59
880.82	228.61
881.12	228.65
881.43	228.48
881.74	228.58
882.05	228.59
882.36	228.73
882.67	228.81
882.97	228.66
883.28	228.78
883.59	228.98
883.90	229.03
884.21	229.10
884.51	229.08
884.82	229.12
885.13	229.10
885.44	229.02
885.74	228.97
886.05	229.02
886.36	229.09
886.67	229.09
886.98	229.25
887.28	229.38
887.59	229.42
887.90	229.53
888.20	229.44
888.51	229.59
888.82	229.60
889.13	229.60
889.43	229.63
889.74	229.57
890.05	229.55
890.35	229.50
890.66	229.41
890.97	229.41
891.28	229.37
891.58	229.39
891.89	229.51
892.20	229.66
892.50	229.52
892.81	229.45
893.12	229.41
893.42	229.29
893.73	229.17
894.04	229.18
894.34	229.21
894.65	229.22
894.95	229.15
895.26	229.06
895.57	229.12
895.87	228.93
896.18	228.95
896.48	228.97
896.79	229.03
897.10	229.10
897.40	229.08
897.71	229.22
898.01	229.22
898.32	229.16
898.63	229.05
898.93	229.10
899.24	229.16
899.54	229.06
899.85	228.98
900.15	228.97
900.46	228.90
900.76	228.88
901.07	228.82
901.38	228.84
901.68	228.90
901.99	228.81
902.29	228.88
902.60	228.83
902.90	228.74
903.21	228.70
903.51	228.50
903.82	228.52
904.12	228.42
904.43	228.38
904.73	228.40
905.03	228.33
905.34	228.46
905.64	228.35
905.95	228.54
906.25	228.56
906.56	228.52
906.86	228.63
907.17	228.47
907.47	228.43
907.77	228.45
908.08	228.32
908.38	228.32
908.69	228.33
908.99	228.37
909.30	228.36
909.60	228.35
909.90	228.47
910.21	228.35
910.51	228.38
910.81	228.32
911.12	228.30
911.42	228.34
911.73	228.02
912.03	228.03
912.33	227.95
912.64	227.98
912.94	227.97
913.24	227.86
913.55	227.88
913.85	227.91
914.15	227.88
914.46	228.05
914.76	227.98
915.06	227.85
915.37	227.86
915.67	227.85
915.97	227.86
916.27	227.85
916.58	227.89
916.88	227.83
917.18	227.87
917.49	228.03
917.79	227.97
918.09	228.12
918.39	228.20
918.70	228.17
919.00	228.11
919.30	228.30
919.60	228.34
919.91	228.40
920.21	228.42
920.51	228.38
920.81	228.30
921.12	228.41
921.42	228.51
921.72	228.52
922.02	228.58
922.32	228.56
922.63	228.53
922.93	228.68
923.23	228.64
923.53	228.70
923.83	228.59
924.13	228.58
924.44	228.67
924.74	228.67
925.04	228.79
925.34	228.89
925.64	228.74
925.94	228.65
926.24	228.76
926.55	228.79
926.85	228.79
927.15	228.86
927.45	228.87
927.75	228.86
928.05	228.80
928.35	228.87
928.65	229.01
928.95	229.07
929.26	229.07
929.56	229.22
929.86	229.20
930.16	229.10
930.46	229.14
930.76	229.15
931.06	229.15
931.36	229.15
931.66	229.15
931.96	229.26
932.26	229.28
932.56	229.19
932.86	229.22
933.16	229.19
933.46	229.14
933.76	229.01
934.06	229.02
934.36	229.20
934.66	229.15
934.96	229.13
935.26	229.11
935.56	229.11
935.86	229.04
936.16	228.96
936.46	229.04
936.76	229.07
937.06	228.98
937.36	228.95
937.66	228.83
937.96	228.82
938.26	228.76
938.56	228.83
938.86	228.85
939.16	228.91
939.46	228.99
939.76	228.93
940.06	229.04
940.35	229.06
940.65	228.80
940.95	228.77
941.25	228.60
941.55	228.56
941.85	228.47
942.15	228.50
942.45	228.51
942.75	228.49
943.04	228.35
943.34	228.32
943.64	228.32
943.94	228.36
944.24	228.23
944.54	228.20
944.84	228.13
945.13	228.04
945.43	228.02
945.73	227.98
946.03	227.91
946.33	227.82
946.62	227.70
946.92	227.63
947.22	227.65
947.52	227.62
947.82	227.67
948.11	227.60
948.41	227.54
948.71	227.38
949.01	227.30
949.31	227.46
949.60	227.38
949.90	227.39
950.20	227.37
950.50	227.32
950.79	227.16
951.09	227.19
951.39	227.20
951.69	227.10
951.98	227.12
952.28	227.18
952.58	227.20
952.87	227.25
953.17	227.38
953.47	227.35
953.76	227.37
954.06	227.33
954.36	227.33
954.66	227.26
954.95	227.37
955.25	227.29
955.55	227.25
955.84	227.35
956.14	227.35
956.44	227.32
956.73	227.41
957.03	227.56
957.32	227.52
957.62	227.52
957.92	227.57
958.21	227.51
958.51	227.72
958.81	227.79
959.10	227.76
959.40	227.81
959.69	227.75
959.99	227.78
960.29	227.73
960.58	227.66
960.88	227.72
961.17	227.78
961.47	227.86
961.76	227.88
962.06	227.99
962.36	227.96
962.65	228.03
962.95	227.93
963.24	227.89
963.54	227.89
963.83	227.94
964.13	227.98
964.42	227.92
964.72	227.75
965.01	227.75
965.31	227.91
965.60	227.86
965.90	228.01
966.19	227.96
966.49	228.03
966.78	228.19
967.08	228.30
967.37	228.29
967.67	228.30
967.96	228.34
968.26	228.22
968.55	228.28
968.85	228.23
969.14	228.43
969.43	228.42
969.73	228.45
970.02	228.36
970.32	228.29
970.61	228.38
970.91	228.44
971.20	228.38
971.49	228.28
971.79	228.26
972.08	228.20
972.38	228.22
972.67	228.29
972.96	228.25
973.26	228.08
973.55	228.20
973.85	228.16
974.14	228.14
974.43	228.16
974.73	228.12
975.02	228.07
975.31	228.00
975.61	228.04
975.90	228.07
976.19	228.07
976.49	228.14
976.78	228.12
977.07	228.04
977.37	227.99
977.66	227.96
977.95	227.91
978.24	227.92
978.54	227.93
978.83	227.89
979.12	227.86
979.42	227.95
979.71	227.86
980.00	227.90
980.29	227.91
980.59	227.87
980.88	227.92
981.17	227.89
981.46	227.93
981.76	227.98
982.05	227.97
982.34	227.99
982.63	227.91
982.93	227.91
983.22	228.01
983.51	228.00
983.80	228.13
984.09	228.26
984.39	228.20
984.68	228.25
984.97	228.23
985.26	228.21
985.55	228.20
985.85	228.21
986.14	228.21
986.43	228.15
986.72	228.21
987.01	228.12
987.30	228.17
987.59	228.01
987.89	227.85
988.18	227.78
988.47	227.77
988.76	227.75
989.05	227.76
989.34	227.76
989.63	227.85
989.92	227.77
990.22	227.68
990.51	227.70
990.80	227.62
991.09	227.66
991.38	227.69
991.67	227.64
991.96	227.59
992.25	227.58
992.54	227.61
992.83	227.47
993.12	227.53
993.41	227.60
993.70	227.75
993.99	227.89
994.28	227.93
994.58	228.03
994.87	228.08
995.16	228.04
995.45	227.94
995.74	227.92
996.03	227.93
996.32	227.98
996.61	227.97
996.90	227.99
997.19	228.04
997.48	228.11
997.77	228.14
998.06	228.18
998.34	228.21
998.63	228.20
998.92	228.27
999.21	228.18
999.50	228.20
999.79	228.06
1000.08	228.09
1000.37	228.11
1000.66	228.04
1000.95	228.02
1001.24	227.99
1001.53	227.95
1001.82	227.94
1002.11	227.87
1002.40	227.95
1002.68	228.03
1002.97	228.22
1003.26	228.06
1003.55	228.03
1003.84	227.90
1004.13	227.92
1004.42	227.91
1004.71	227.89
1004.99	227.94
1005.28	228.09
1005.57	228.05
1005.86	228.10
1006.15	228.15
1006.44	228.12
1006.72	228.15
1007.01	228.17
1007.30	228.28
1007.59	228.35
1007.88	228.41
1008.17	228.49
1008.45	228.44
1008.74	228.43
1009.03	228.33
1009.32	228.49
1009.60	228.40
1009.89	228.52
1010.18	228.50
1010.47	228.50
1010.76	228.57
1011.04	228.57
1011.33	228.59
1011.62	228.63
1011.91	228.73
1012.19	228.77
1012.48	228.84
1012.77	228.89
1013.05	229.03
1013.34	229.01
1013.63	228.97
1013.92	228.91
1014.20	228.87
1014.49	228.86
1014.78	228.87
1015.06	228.76
1015.35	228.70
1015.64	228.80
1015.92	228.82
1016.21	228.90
1016.50	228.84
1016.78	228.86
1017.07	228.86
1017.36	228.74
1017.64	228.78
1017.93	228.81
1018.22	228.68
1018.50	228.56
1018.79	228.57
1019.08	228.35
1019.36	228.33
1019.65	228.39
1019.93	228.45
1020.22	228.49
1020.51	228.49
1020.79	228.42
1021.08	227.70
1021.36	226.70
1021.65	229.50
1021.94	226.50
1022.22	228.50
1022.51	228.60
1022.79	229.20
1023.08	228.60
1023.36	228.60
1023.65	227.80
>>>>>End Processed Spectral Data<<<<<
