SpectraSuite Data File
++++++++++++++++++++++++++++++++++++
Date: Fri Feb 01 14:37:56 EST 2013
User: group
Dark Spectrum Present: No
Reference Spectrum Present: No
Number of Sampled Component Spectra: 1
Spectrometers: USB2E7196
Integration Time (usec): 70000 (USB2E7196)
Spectra Averaged: 10 (USB2E7196)
Boxcar Smoothing: 10 (USB2E7196)
Correct for Electrical Dark: No (USB2E7196)
Strobe/Lamp Enabled: No (USB2E7196)
Correct for Detector Non-linearity: No (USB2E7196)
Correct for Stray Light: No (USB2E7196)
Number of Pixels in Processed Spectrum: 2048
>>>>>Begin Processed Spectral Data<<<<<
339.09	0.00
339.48	215.20
339.86	216.90
340.24	219.10
340.63	221.00
341.01	225.20
341.39	221.90
341.78	225.00
342.16	225.20
342.54	227.40
342.93	214.85
343.31	225.80
343.69	226.41
344.07	226.92
344.46	227.42
344.84	227.74
345.22	227.85
345.60	228.20
345.99	228.38
346.37	228.52
346.75	228.52
347.13	228.55
347.52	228.59
347.90	228.60
348.28	228.63
348.66	228.77
349.05	228.76
349.43	228.74
349.81	228.71
350.19	228.80
350.57	228.75
350.96	228.80
351.34	228.81
351.72	228.79
352.10	228.90
352.48	228.91
352.87	228.94
353.25	229.08
353.63	229.11
354.01	229.20
354.39	229.23
354.77	229.33
355.15	229.51
355.54	229.47
355.92	229.51
356.30	229.63
356.68	229.89
357.06	229.99
357.44	229.93
357.82	230.00
358.20	229.92
358.58	230.03
358.97	230.01
359.35	230.13
359.73	230.27
360.11	230.29
360.49	230.37
360.87	230.46
361.25	230.49
361.63	230.51
362.01	230.50
362.39	230.56
362.77	230.65
363.15	230.55
363.53	230.61
363.91	230.48
364.29	230.51
364.67	230.21
365.05	230.13
365.43	230.17
365.81	230.23
366.19	230.35
366.57	230.37
366.95	230.32
367.33	230.13
367.71	230.17
368.09	230.15
368.47	230.05
368.85	230.00
369.23	229.95
369.61	229.86
369.99	229.89
370.37	229.74
370.75	229.69
371.13	229.60
371.51	229.50
371.89	229.63
372.27	229.50
372.65	229.48
373.03	229.43
373.41	229.44
373.78	229.24
374.16	229.09
374.54	228.88
374.92	228.88
375.30	228.82
375.68	228.54
376.06	228.43
376.44	228.29
376.82	228.18
377.19	228.02
377.57	227.84
377.95	227.67
378.33	227.75
378.71	227.52
379.09	227.48
379.47	227.46
379.84	227.38
380.22	227.31
380.60	227.17
380.98	227.07
381.36	226.94
381.73	227.00
382.11	226.88
382.49	226.90
382.87	226.78
383.25	226.66
383.62	226.90
384.00	226.82
384.38	226.74
384.76	226.80
385.13	226.97
385.51	227.06
385.89	227.03
386.27	226.93
386.64	227.00
387.02	226.97
387.40	226.78
387.78	226.63
388.15	226.57
388.53	226.58
388.91	226.58
389.29	226.50
389.66	226.40
390.04	226.40
390.42	226.42
390.79	226.35
391.17	226.39
391.55	226.19
391.92	226.25
392.30	226.30
392.68	226.26
393.05	226.17
393.43	226.19
393.81	226.17
394.18	226.12
394.56	226.11
394.94	226.14
395.31	226.40
395.69	226.49
396.06	226.60
396.44	226.65
396.82	226.67
397.19	226.92
397.57	227.01
397.95	227.11
398.32	227.16
398.70	227.36
399.07	227.64
399.45	227.84
399.82	227.99
400.20	228.07
400.58	228.12
400.95	228.09
401.33	228.20
401.70	228.44
402.08	228.65
402.45	228.82
402.83	229.09
403.20	229.13
403.58	229.29
403.95	229.50
404.33	229.82
404.71	230.08
405.08	230.25
405.46	230.43
405.83	230.59
406.21	230.75
406.58	230.96
406.96	231.08
407.33	231.16
407.70	231.30
408.08	231.80
408.45	232.11
408.83	232.48
409.20	232.72
409.58	232.94
409.95	233.29
410.33	233.55
410.70	233.82
411.08	234.20
411.45	234.57
411.82	234.86
412.20	235.23
412.57	235.80
412.95	236.10
413.32	236.62
413.69	237.20
414.07	237.72
414.44	238.32
414.82	238.99
415.19	239.77
415.56	240.53
415.94	241.10
416.31	242.01
416.68	242.85
417.06	243.87
417.43	244.74
417.81	245.76
418.18	246.81
418.55	247.88
418.93	249.24
419.30	250.54
419.67	251.90
420.04	253.18
420.42	254.41
420.79	256.09
421.16	257.64
421.54	259.41
421.91	261.35
422.28	263.22
422.66	265.00
423.03	266.91
423.40	268.87
423.77	270.98
424.15	273.06
424.52	275.31
424.89	277.76
425.26	280.18
425.64	282.49
426.01	284.99
426.38	287.58
426.75	290.19
427.13	292.82
427.50	295.59
427.87	298.56
428.24	301.51
428.61	304.40
428.99	307.70
429.36	310.97
429.73	314.16
430.10	317.39
430.47	320.81
430.85	324.25
431.22	327.82
431.59	331.62
431.96	335.32
432.33	339.30
432.70	343.20
433.08	347.73
433.45	352.00
433.82	356.35
434.19	361.10
434.56	365.56
434.93	370.07
435.30	374.57
435.68	379.26
436.05	384.02
436.42	388.78
436.79	392.97
437.16	397.66
437.53	402.54
437.90	407.45
438.27	412.22
438.64	417.16
439.01	421.82
439.38	425.97
439.75	429.83
440.13	434.49
440.50	438.86
440.87	442.51
441.24	446.28
441.61	450.49
441.98	453.51
442.35	456.96
442.72	460.40
443.09	463.97
443.46	466.40
443.83	468.01
444.20	469.36
444.57	471.32
444.94	472.50
445.31	473.67
445.68	474.89
446.05	475.54
446.42	475.53
446.79	475.46
447.16	475.27
447.53	475.41
447.90	474.00
448.27	472.56
448.64	470.46
449.01	469.11
449.37	466.16
449.74	463.70
450.11	460.46
450.48	456.85
450.85	452.94
451.22	449.82
451.59	446.86
451.96	443.97
452.33	439.95
452.70	436.26
453.07	431.91
453.43	427.27
453.80	423.11
454.17	418.92
454.54	414.95
454.91	410.56
455.28	406.19
455.65	402.30
456.02	398.42
456.38	395.07
456.75	390.67
457.12	387.03
457.49	383.25
457.86	379.80
458.23	377.00
458.59	373.78
458.96	370.25
459.33	367.30
459.70	364.21
460.07	361.85
460.43	359.02
460.80	356.27
461.17	353.91
461.54	351.30
461.91	348.89
462.27	346.29
462.64	344.27
463.01	341.92
463.38	339.60
463.74	337.24
464.11	335.08
464.48	333.32
464.85	331.33
465.21	329.89
465.58	328.34
465.95	326.24
466.32	324.60
466.68	322.91
467.05	321.16
467.42	319.57
467.78	317.92
468.15	316.31
468.52	315.07
468.88	313.47
469.25	312.03
469.62	310.90
469.98	309.75
470.35	308.52
470.72	307.49
471.08	306.28
471.45	305.13
471.82	304.07
472.18	302.81
472.55	301.99
472.92	300.75
473.28	299.79
473.65	298.98
474.02	298.06
474.38	297.38
474.75	296.67
475.11	295.88
475.48	295.19
475.85	294.59
476.21	293.88
476.58	293.29
476.94	292.85
477.31	292.21
477.67	291.64
478.04	291.16
478.41	290.84
478.77	290.51
479.14	290.13
479.50	289.80
479.87	289.46
480.23	289.13
480.60	288.90
480.96	288.58
481.33	288.41
481.69	288.26
482.06	287.92
482.42	287.90
482.79	287.77
483.15	287.66
483.52	287.61
483.88	287.63
484.25	287.70
484.61	287.63
484.98	287.62
485.34	287.81
485.71	287.97
486.07	288.01
486.44	288.06
486.80	288.22
487.17	288.47
487.53	288.85
487.90	289.17
488.26	289.63
488.62	289.97
488.99	290.17
489.35	290.48
489.72	290.97
490.08	291.24
490.44	291.68
490.81	292.11
491.17	292.42
491.54	292.86
491.90	293.21
492.26	293.73
492.63	294.30
492.99	294.60
493.36	295.06
493.72	295.48
494.08	295.94
494.45	296.50
494.81	297.05
495.17	297.54
495.54	298.00
495.90	298.40
496.26	298.86
496.63	299.40
496.99	300.00
497.35	300.70
497.72	301.20
498.08	301.70
498.44	302.21
498.80	302.85
499.17	303.40
499.53	303.88
499.89	304.36
500.26	304.89
500.62	305.40
500.98	306.00
501.34	306.55
501.71	307.17
502.07	307.57
502.43	307.82
502.79	308.20
503.16	308.57
503.52	308.92
503.88	309.21
504.24	309.56
504.60	309.78
504.97	309.90
505.33	310.16
505.69	310.46
506.05	310.73
506.41	310.93
506.78	311.19
507.14	311.35
507.50	311.48
507.86	311.45
508.22	311.58
508.59	311.52
508.95	311.60
509.31	311.73
509.67	311.80
510.03	311.97
510.39	312.13
510.75	312.38
511.12	312.35
511.48	312.56
511.84	312.75
512.20	312.85
512.56	312.91
512.92	313.03
513.28	313.28
513.64	313.40
514.00	313.69
514.37	313.79
514.73	313.96
515.09	314.37
515.45	314.82
515.81	315.08
516.17	315.50
516.53	315.86
516.89	316.26
517.25	316.92
517.61	317.51
517.97	317.99
518.33	318.38
518.69	319.15
519.05	319.82
519.41	320.55
519.77	321.42
520.13	322.39
520.49	323.30
520.85	324.16
521.21	325.31
521.57	326.27
521.93	327.36
522.29	328.71
522.65	329.76
523.01	331.00
523.37	332.47
523.73	334.00
524.09	335.62
524.45	337.18
524.81	338.72
525.17	340.45
525.53	342.26
525.89	344.35
526.25	346.32
526.61	348.37
526.97	350.40
527.33	352.52
527.68	354.90
528.04	357.26
528.40	359.72
528.76	362.26
529.12	364.93
529.48	367.63
529.84	370.46
530.20	373.38
530.56	376.54
530.91	379.81
531.27	382.99
531.63	386.10
531.99	389.33
532.35	392.68
532.71	396.08
533.07	399.67
533.42	403.32
533.78	406.91
534.14	410.67
534.50	414.49
534.86	418.51
535.21	422.29
535.57	426.32
535.93	430.48
536.29	434.50
536.65	438.78
537.00	443.20
537.36	447.47
537.72	451.96
538.08	456.30
538.44	460.55
538.79	465.12
539.15	469.64
539.51	474.46
539.87	479.20
540.22	484.04
540.58	488.91
540.94	493.69
541.29	498.69
541.65	503.48
542.01	508.38
542.37	513.36
542.72	518.30
543.08	523.19
543.44	528.27
543.79	533.25
544.15	538.28
544.51	543.54
544.87	548.78
545.22	554.03
545.58	559.19
545.94	564.52
546.29	569.54
546.65	574.74
547.01	579.81
547.36	585.01
547.72	590.27
548.07	595.38
548.43	600.42
548.79	605.82
549.14	611.24
549.50	616.49
549.86	621.71
550.21	627.00
550.57	632.49
550.92	637.64
551.28	642.84
551.64	648.21
551.99	653.35
552.35	658.61
552.70	663.58
553.06	668.79
553.41	673.72
553.77	678.88
554.13	684.14
554.48	689.54
554.84	694.67
555.19	699.76
555.55	704.89
555.90	709.97
556.26	714.63
556.61	719.28
556.97	724.01
557.32	728.81
557.68	733.69
558.03	738.42
558.39	743.42
558.74	748.52
559.10	753.13
559.45	757.70
559.81	762.41
560.16	767.15
560.52	771.83
560.87	776.70
561.23	781.47
561.58	786.22
561.94	790.43
562.29	794.48
562.64	798.33
563.00	802.68
563.35	807.32
563.71	811.83
564.06	816.31
564.42	820.72
564.77	825.12
565.12	829.40
565.48	833.88
565.83	837.45
566.19	841.03
566.54	844.92
566.89	848.87
567.25	852.77
567.60	856.72
567.96	860.48
568.31	863.97
568.66	867.43
569.02	870.71
569.37	874.10
569.72	877.66
570.08	881.19
570.43	884.31
570.78	887.30
571.14	890.23
571.49	893.09
571.84	896.47
572.20	899.21
572.55	901.95
572.90	904.43
573.26	907.43
573.61	910.10
573.96	912.67
574.31	915.01
574.67	916.70
575.02	918.49
575.37	920.38
575.72	922.21
576.08	923.94
576.43	925.45
576.78	927.10
577.13	929.04
577.49	930.90
577.84	932.45
578.19	934.02
578.54	935.40
578.90	936.61
579.25	937.39
579.60	938.55
579.95	939.45
580.30	940.10
580.66	940.54
581.01	941.34
581.36	942.03
581.71	942.72
582.06	943.83
582.42	944.36
582.77	945.03
583.12	945.69
583.47	946.39
583.82	947.42
584.17	947.84
584.53	948.00
584.88	948.32
585.23	948.55
585.58	948.46
585.93	948.75
586.28	949.40
586.63	949.98
586.98	950.23
587.34	950.40
587.69	950.44
588.04	950.70
588.39	950.97
588.74	950.60
589.09	950.20
589.44	949.57
589.79	949.58
590.14	949.17
590.49	948.85
590.84	948.29
591.19	947.85
591.54	947.02
591.89	946.12
592.25	945.43
592.60	944.45
592.95	943.43
593.30	942.16
593.65	941.04
594.00	939.41
594.35	938.52
594.70	937.05
595.05	936.12
595.40	935.04
595.75	933.40
596.10	932.32
596.45	931.34
596.80	930.51
597.15	929.22
597.50	927.86
597.85	926.69
598.19	925.53
598.54	923.95
598.89	922.97
599.24	922.13
599.59	920.66
599.94	919.63
600.29	918.56
600.64	917.61
600.99	915.92
601.34	914.60
601.69	912.70
602.04	911.47
602.39	909.80
602.74	908.39
603.08	907.11
603.43	905.95
603.78	904.33
604.13	902.67
604.48	901.06
604.83	899.62
605.18	897.74
605.53	895.36
605.87	893.17
606.22	891.30
606.57	889.07
606.92	887.02
607.27	885.00
607.62	883.18
607.96	881.13
608.31	879.32
608.66	877.09
609.01	874.78
609.36	872.28
609.70	869.74
610.05	867.03
610.40	864.50
610.75	861.72
611.10	859.17
611.44	856.50
611.79	853.88
612.14	851.28
612.49	848.49
612.83	846.20
613.18	843.61
613.53	840.89
613.88	837.93
614.22	834.93
614.57	831.96
614.92	829.02
615.27	826.23
615.61	823.12
615.96	820.36
616.31	817.83
616.65	815.63
617.00	813.09
617.35	810.43
617.70	807.61
618.04	804.59
618.39	801.65
618.74	798.84
619.08	795.98
619.43	793.03
619.78	790.40
620.12	787.44
620.47	784.73
620.82	781.81
621.16	779.20
621.51	776.76
621.85	774.23
622.20	771.37
622.55	768.30
622.89	765.74
623.24	763.26
623.59	760.38
623.93	757.60
624.28	755.01
624.62	752.53
624.97	749.90
625.32	747.41
625.66	744.90
626.01	742.24
626.35	739.47
626.70	736.90
627.04	734.26
627.39	731.46
627.73	728.77
628.08	726.19
628.43	723.31
628.77	720.52
629.12	717.44
629.46	714.49
629.81	711.53
630.15	708.65
630.50	705.60
630.84	702.47
631.19	699.19
631.53	696.17
631.88	692.75
632.22	689.58
632.57	686.76
632.91	683.79
633.26	680.60
633.60	677.68
633.95	674.63
634.29	671.51
634.64	668.99
634.98	665.99
635.32	662.96
635.67	660.46
636.01	657.66
636.36	654.83
636.70	652.17
637.05	649.80
637.39	647.19
637.73	644.48
638.08	642.26
638.42	639.86
638.77	637.19
639.11	634.76
639.45	632.23
639.80	629.40
640.14	626.82
640.49	624.60
640.83	622.07
641.17	619.51
641.52	617.10
641.86	614.27
642.20	611.79
642.55	609.22
642.89	606.45
643.23	603.84
643.58	601.71
643.92	599.15
644.26	596.39
644.61	593.81
644.95	591.05
645.29	587.92
645.64	584.91
645.98	582.42
646.32	579.86
646.66	577.33
647.01	574.74
647.35	572.16
647.69	569.36
648.04	566.86
648.38	564.04
648.72	561.20
649.06	558.51
649.41	555.81
649.75	553.13
650.09	550.35
650.43	547.61
650.78	544.61
651.12	541.83
651.46	539.21
651.80	536.47
652.14	534.04
652.49	531.64
652.83	529.31
653.17	526.45
653.51	523.90
653.85	521.29
654.20	518.63
654.54	515.80
654.88	513.00
655.22	510.21
655.56	507.55
655.90	505.07
656.25	502.67
656.59	500.22
656.93	497.74
657.27	495.37
657.61	492.81
657.95	490.57
658.29	488.18
658.64	485.69
658.98	483.40
659.32	480.99
659.66	478.72
660.00	476.31
660.34	474.06
660.68	471.64
661.02	469.24
661.36	467.10
661.70	465.10
662.05	463.00
662.39	460.94
662.73	459.04
663.07	456.93
663.41	454.84
663.75	452.71
664.09	450.57
664.43	448.50
664.77	446.59
665.11	444.58
665.45	442.74
665.79	441.04
666.13	438.90
666.47	436.83
666.81	434.86
667.15	432.74
667.49	430.95
667.83	429.10
668.17	427.31
668.51	425.26
668.85	423.50
669.19	421.90
669.53	420.04
669.87	418.11
670.21	416.37
670.55	414.50
670.89	412.94
671.23	411.47
671.57	409.86
671.91	408.08
672.25	406.33
672.58	404.65
672.92	402.93
673.26	401.49
673.60	400.13
673.94	398.50
674.28	397.17
674.62	395.80
674.96	394.13
675.30	392.75
675.64	391.40
675.97	389.90
676.31	388.37
676.65	386.81
676.99	385.46
677.33	384.06
677.67	382.70
678.01	381.07
678.34	379.63
678.68	378.42
679.02	377.15
679.36	375.87
679.70	374.41
680.04	372.97
680.37	371.51
680.71	370.10
681.05	368.80
681.39	367.42
681.73	366.06
682.06	364.98
682.40	363.77
682.74	362.56
683.08	361.26
683.42	359.90
683.75	358.70
684.09	357.39
684.43	356.05
684.77	354.73
685.10	353.62
685.44	352.31
685.78	350.90
686.12	349.62
686.45	348.27
686.79	347.14
687.13	345.95
687.46	344.77
687.80	343.67
688.14	342.38
688.48	341.25
688.81	339.90
689.15	338.77
689.49	337.45
689.82	336.33
690.16	335.17
690.50	334.10
690.83	333.13
691.17	332.09
691.51	330.97
691.84	330.07
692.18	328.88
692.52	327.84
692.85	326.83
693.19	325.85
693.52	324.82
693.86	323.90
694.20	322.93
694.53	321.93
694.87	320.84
695.21	319.91
695.54	318.80
695.88	317.79
696.21	316.70
696.55	315.73
696.88	314.80
697.22	313.73
697.56	312.91
697.89	311.84
698.23	310.83
698.56	309.90
698.90	308.90
699.23	307.94
699.57	307.04
699.90	306.08
700.24	305.22
700.58	304.38
700.91	303.44
701.25	302.59
701.58	301.76
701.92	300.92
702.25	300.06
702.59	299.35
702.92	298.70
703.26	297.91
703.59	297.27
703.93	296.65
704.26	295.80
704.60	294.90
704.93	294.22
705.26	293.58
705.60	292.82
705.93	292.21
706.27	291.70
706.60	291.07
706.94	290.45
707.27	289.68
707.61	289.06
707.94	288.43
708.27	287.80
708.61	287.06
708.94	286.50
709.28	285.92
709.61	285.29
709.94	284.67
710.28	284.10
710.61	283.48
710.95	282.60
711.28	282.26
711.61	281.66
711.95	281.13
712.28	280.43
712.61	279.92
712.95	279.36
713.28	278.88
713.61	278.30
713.95	277.74
714.28	277.20
714.61	276.62
714.95	275.97
715.28	275.38
715.61	274.90
715.95	274.34
716.28	273.76
716.61	273.36
716.95	272.72
717.28	272.31
717.61	271.73
717.94	271.35
718.28	270.73
718.61	270.40
718.94	269.77
719.27	269.38
719.61	269.06
719.94	268.62
720.27	268.10
720.60	267.71
720.94	267.29
721.27	267.08
721.60	266.77
721.93	266.42
722.27	266.19
722.60	265.87
722.93	265.46
723.26	265.26
723.59	264.94
723.93	264.71
724.26	264.25
724.59	263.90
724.92	263.58
725.25	263.26
725.59	262.74
725.92	262.57
726.25	262.20
726.58	261.89
726.91	261.62
727.24	261.31
727.57	261.00
727.91	260.71
728.24	260.36
728.57	260.01
728.90	259.72
729.23	259.27
729.56	259.04
729.89	258.78
730.22	258.40
730.55	258.02
730.89	257.60
731.22	257.47
731.55	257.06
731.88	256.79
732.21	256.48
732.54	256.30
732.87	255.98
733.20	255.69
733.53	255.40
733.86	255.05
734.19	254.64
734.52	254.28
734.85	254.07
735.18	253.70
735.51	253.39
735.84	253.16
736.17	252.93
736.50	252.50
736.83	252.37
737.16	252.00
737.49	251.74
737.82	251.57
738.15	251.28
738.48	251.21
738.81	250.87
739.14	250.53
739.47	250.26
739.80	250.03
740.13	249.84
740.46	249.49
740.79	249.29
741.12	249.11
741.45	248.87
741.78	248.54
742.11	248.37
742.44	248.17
742.77	247.92
743.10	247.64
743.43	247.39
743.75	246.96
744.08	247.08
744.41	246.82
744.74	246.53
745.07	246.06
745.40	245.82
745.73	245.68
746.06	245.43
746.39	245.17
746.71	244.82
747.04	244.64
747.37	244.40
747.70	244.09
748.03	243.92
748.36	243.76
748.68	243.56
749.01	243.30
749.34	243.05
749.67	242.85
750.00	242.63
750.33	242.58
750.65	242.48
750.98	242.11
751.31	242.04
751.64	241.81
751.97	241.93
752.29	241.76
752.62	241.60
752.95	241.51
753.28	241.47
753.60	241.38
753.93	241.25
754.26	241.07
754.59	241.01
754.91	240.83
755.24	240.71
755.57	240.58
755.90	240.44
756.22	240.32
756.55	240.22
756.88	240.08
757.20	239.83
757.53	239.61
757.86	239.43
758.19	239.26
758.51	239.28
758.84	239.00
759.17	238.87
759.49	238.75
759.82	238.94
760.15	238.73
760.47	238.68
760.80	238.50
761.13	238.50
761.45	238.39
761.78	238.33
762.11	238.20
762.43	238.24
762.76	238.20
763.08	238.17
763.41	238.08
763.74	238.06
764.06	237.96
764.39	237.96
764.71	237.84
765.04	237.75
765.37	237.67
765.69	237.70
766.02	237.66
766.34	237.49
766.67	237.26
767.00	237.28
767.32	237.30
767.65	237.40
767.97	237.40
768.30	237.34
768.62	237.20
768.95	237.10
769.27	236.89
769.60	236.84
769.92	236.70
770.25	236.60
770.57	236.45
770.90	236.56
771.22	236.42
771.55	236.42
771.87	236.28
772.20	236.14
772.52	236.23
772.85	236.45
773.17	236.45
773.50	236.21
773.82	236.06
774.15	235.77
774.47	235.50
774.80	235.33
775.12	235.27
775.45	235.28
775.77	235.25
776.09	235.26
776.42	235.15
776.74	235.11
777.07	235.01
777.39	234.97
777.72	234.65
778.04	234.54
778.36	234.43
778.69	234.45
779.01	234.43
779.33	234.14
779.66	233.66
779.98	233.57
780.31	233.53
780.63	233.50
780.95	233.50
781.28	233.37
781.60	233.37
781.92	233.20
782.25	233.02
782.57	232.94
782.89	232.81
783.22	232.71
783.54	232.56
783.86	232.43
784.19	232.32
784.51	232.41
784.83	232.39
785.16	232.32
785.48	232.27
785.80	232.20
786.12	232.11
786.45	232.16
786.77	232.13
787.09	232.03
787.42	231.97
787.74	231.92
788.06	231.96
788.38	231.88
788.71	231.93
789.03	231.95
789.35	231.88
789.67	231.88
789.99	231.83
790.32	231.82
790.64	231.86
790.96	231.98
791.28	231.86
791.61	231.82
791.93	231.82
792.25	231.77
792.57	231.90
792.89	231.87
793.21	231.84
793.54	231.80
793.86	231.86
794.18	231.85
794.50	231.88
794.82	231.84
795.14	231.86
795.47	231.83
795.79	231.73
796.11	231.72
796.43	231.66
796.75	231.57
797.07	231.59
797.39	231.58
797.71	231.50
798.04	231.47
798.36	231.47
798.68	231.54
799.00	231.62
799.32	231.48
799.64	231.51
799.96	231.50
800.28	231.47
800.60	231.49
800.92	231.52
801.24	231.46
801.56	231.48
801.89	231.42
802.21	231.37
802.53	231.43
802.85	231.47
803.17	231.56
803.49	231.66
803.81	231.55
804.13	231.43
804.45	231.33
804.77	231.39
805.09	231.36
805.41	231.19
805.73	231.07
806.05	231.03
806.37	230.94
806.69	230.90
807.01	230.88
807.33	230.89
807.65	230.80
807.97	230.93
808.28	230.84
808.60	230.80
808.92	230.77
809.24	230.86
809.56	230.74
809.88	230.60
810.20	230.54
810.52	230.61
810.84	230.66
811.16	230.75
811.48	230.64
811.80	230.62
812.12	230.70
812.43	230.73
812.75	230.78
813.07	230.74
813.39	230.65
813.71	230.70
814.03	230.59
814.35	230.44
814.67	230.39
814.98	230.42
815.30	230.37
815.62	230.32
815.94	230.02
816.26	230.16
816.58	230.10
816.89	230.09
817.21	229.92
817.53	229.90
817.85	229.85
818.17	229.83
818.48	229.76
818.80	229.73
819.12	229.54
819.44	229.28
819.76	229.37
820.07	229.45
820.39	229.20
820.71	229.25
821.03	229.29
821.34	229.16
821.66	229.14
821.98	229.10
822.30	229.01
822.61	229.15
822.93	228.91
823.25	228.94
823.57	228.87
823.88	228.86
824.20	228.87
824.52	228.80
824.83	228.84
825.15	228.75
825.47	228.60
825.79	228.72
826.10	228.70
826.42	228.52
826.74	228.38
827.05	228.48
827.37	228.40
827.69	228.38
828.00	228.33
828.32	228.30
828.64	228.24
828.95	228.36
829.27	228.36
829.58	228.42
829.90	228.32
830.22	228.37
830.53	228.48
830.85	228.43
831.17	228.31
831.48	228.31
831.80	228.33
832.11	228.46
832.43	228.38
832.75	228.57
833.06	228.70
833.38	228.64
833.69	228.60
834.01	228.56
834.32	228.54
834.64	228.60
834.96	228.53
835.27	228.65
835.59	228.56
835.90	228.55
836.22	228.48
836.53	228.54
836.85	228.40
837.16	228.57
837.48	228.55
837.79	228.70
838.11	228.70
838.42	228.77
838.74	228.75
839.05	228.73
839.37	228.64
839.68	228.60
840.00	228.68
840.31	228.77
840.63	228.81
840.94	228.87
841.26	228.83
841.57	228.79
841.88	228.84
842.20	228.87
842.51	228.86
842.83	228.97
843.14	229.10
843.46	229.20
843.77	229.06
844.08	229.09
844.40	228.98
844.71	228.92
845.03	228.88
845.34	228.88
845.65	228.87
845.97	228.88
846.28	228.92
846.60	229.03
846.91	229.01
847.22	228.98
847.54	228.97
847.85	229.01
848.16	228.99
848.48	228.87
848.79	228.92
849.10	228.88
849.42	228.83
849.73	228.63
850.04	228.61
850.36	228.48
850.67	228.43
850.98	228.46
851.30	228.51
851.61	228.52
851.92	228.48
852.23	228.53
852.55	228.60
852.86	228.54
853.17	228.46
853.49	228.47
853.80	228.55
854.11	228.59
854.42	228.55
854.74	228.55
855.05	228.57
855.36	228.50
855.67	228.56
855.99	228.57
856.30	228.85
856.61	228.90
856.92	229.00
857.23	229.01
857.55	228.95
857.86	228.89
858.17	228.88
858.48	228.87
858.79	228.91
859.11	228.91
859.42	228.81
859.73	228.76
860.04	228.70
860.35	228.60
860.66	228.48
860.98	228.52
861.29	228.64
861.60	228.61
861.91	228.70
862.22	228.64
862.53	228.62
862.84	228.32
863.16	228.43
863.47	228.38
863.78	228.37
864.09	228.42
864.40	228.48
864.71	228.39
865.02	228.37
865.33	228.25
865.64	228.23
865.95	228.33
866.27	228.50
866.58	228.57
866.89	228.64
867.20	228.66
867.51	228.54
867.82	228.46
868.13	228.51
868.44	228.45
868.75	228.46
869.06	228.50
869.37	228.62
869.68	228.46
869.99	228.50
870.30	228.60
870.61	228.65
870.92	228.61
871.23	228.70
871.54	228.78
871.85	228.92
872.16	228.85
872.47	228.84
872.78	228.66
873.09	228.57
873.40	228.48
873.71	228.47
874.02	228.61
874.33	228.57
874.64	228.45
874.95	228.52
875.26	228.50
875.56	228.46
875.87	228.42
876.18	228.45
876.49	228.70
876.80	228.65
877.11	228.55
877.42	228.65
877.73	228.72
878.04	228.71
878.35	228.65
878.66	228.75
878.96	228.70
879.27	228.77
879.58	228.79
879.89	228.84
880.20	228.98
880.51	228.91
880.82	228.96
881.12	229.05
881.43	229.01
881.74	228.98
882.05	228.97
882.36	228.95
882.67	228.91
882.97	228.68
883.28	228.63
883.59	228.71
883.90	228.60
884.21	228.60
884.51	228.62
884.82	228.60
885.13	228.58
885.44	228.54
885.74	228.48
886.05	228.50
886.36	228.51
886.67	228.34
886.98	228.39
887.28	228.50
887.59	228.49
887.90	228.46
888.20	228.46
888.51	228.54
888.82	228.54
889.13	228.56
889.43	228.69
889.74	228.69
890.05	228.72
890.35	228.75
890.66	228.70
890.97	228.59
891.28	228.61
891.58	228.56
891.89	228.67
892.20	228.68
892.50	228.72
892.81	228.68
893.12	228.74
893.42	228.69
893.73	228.57
894.04	228.54
894.34	228.51
894.65	228.60
894.95	228.52
895.26	228.51
895.57	228.60
895.87	228.40
896.18	228.43
896.48	228.36
896.79	228.30
897.10	228.29
897.40	228.47
897.71	228.46
898.01	228.44
898.32	228.34
898.63	228.46
898.93	228.41
899.24	228.48
899.54	228.50
899.85	228.48
900.15	228.55
900.46	228.59
900.76	228.55
901.07	228.42
901.38	228.42
901.68	228.45
901.99	228.36
902.29	228.43
902.60	228.34
902.90	228.35
903.21	228.33
903.51	228.37
903.82	228.27
904.12	228.26
904.43	228.25
904.73	228.35
905.03	228.34
905.34	228.43
905.64	228.35
905.95	228.35
906.25	228.34
906.56	228.36
906.86	228.44
907.17	228.52
907.47	228.59
907.77	228.57
908.08	228.56
908.38	228.60
908.69	228.50
908.99	228.59
909.30	228.54
909.60	228.62
909.90	228.51
910.21	228.53
910.51	228.45
910.81	228.52
911.12	228.46
911.42	228.39
911.73	228.25
912.03	228.32
912.33	228.31
912.64	228.33
912.94	228.22
913.24	228.10
913.55	228.05
913.85	228.06
914.15	228.14
914.46	228.15
914.76	228.13
915.06	228.24
915.37	228.15
915.67	228.23
915.97	228.18
916.27	228.30
916.58	228.25
916.88	228.36
917.18	228.40
917.49	228.58
917.79	228.52
918.09	228.53
918.39	228.57
918.70	228.62
919.00	228.70
919.30	228.81
919.60	228.85
919.91	228.82
920.21	228.96
920.51	228.85
920.81	228.91
921.12	228.86
921.42	228.80
921.72	228.97
922.02	228.95
922.32	229.03
922.63	228.98
922.93	229.08
923.23	229.01
923.53	228.86
923.83	228.71
924.13	228.74
924.44	228.77
924.74	228.76
925.04	228.73
925.34	228.63
925.64	228.55
925.94	228.52
926.24	228.58
926.55	228.55
926.85	228.67
927.15	228.56
927.45	228.63
927.75	228.67
928.05	228.51
928.35	228.50
928.65	228.50
928.95	228.58
929.26	228.52
929.56	228.58
929.86	228.74
930.16	228.80
930.46	228.87
930.76	228.84
931.06	228.84
931.36	228.86
931.66	228.96
931.96	229.02
932.26	229.01
932.56	229.00
932.86	228.90
933.16	228.78
933.46	228.80
933.76	228.81
934.06	228.84
934.36	228.89
934.66	228.86
934.96	228.71
935.26	228.58
935.56	228.60
935.86	228.50
936.16	228.43
936.46	228.32
936.76	228.23
937.06	228.25
937.36	228.16
937.66	228.11
937.96	228.04
938.26	228.00
938.56	227.91
938.86	228.01
939.16	228.06
939.46	228.12
939.76	228.11
940.06	228.03
940.35	227.94
940.65	227.85
940.95	227.80
941.25	227.92
941.55	228.00
941.85	228.00
942.15	228.04
942.45	228.00
942.75	227.96
943.04	228.00
943.34	228.01
943.64	227.94
943.94	227.91
944.24	227.90
944.54	227.84
944.84	227.83
945.13	227.59
945.43	227.57
945.73	227.56
946.03	227.49
946.33	227.53
946.62	227.59
946.92	227.66
947.22	227.80
947.52	227.84
947.82	227.82
948.11	227.76
948.41	227.71
948.71	227.68
949.01	227.71
949.31	227.72
949.60	227.76
949.90	227.94
950.20	227.94
950.50	227.93
950.79	227.94
951.09	228.07
951.39	228.27
951.69	228.38
951.98	228.42
952.28	228.53
952.58	228.42
952.87	228.46
953.17	228.47
953.47	228.35
953.76	228.31
954.06	228.41
954.36	228.41
954.66	228.44
954.95	228.56
955.25	228.67
955.55	228.76
955.84	228.73
956.14	228.67
956.44	228.76
956.73	228.79
957.03	228.87
957.32	228.81
957.62	228.78
957.92	228.62
958.21	228.61
958.51	228.83
958.81	228.92
959.10	228.94
959.40	229.08
959.69	229.11
959.99	229.24
960.29	229.18
960.58	229.20
960.88	229.31
961.17	229.27
961.47	229.27
961.76	229.13
962.06	229.20
962.36	229.28
962.65	229.30
962.95	229.39
963.24	229.34
963.54	229.38
963.83	229.41
964.13	229.55
964.42	229.64
964.72	229.49
965.01	229.45
965.31	229.50
965.60	229.31
965.90	229.44
966.19	229.27
966.49	229.22
966.78	229.22
967.08	229.19
967.37	229.07
967.67	229.05
967.96	229.05
968.26	228.92
968.55	228.86
968.85	228.69
969.14	228.64
969.43	228.70
969.73	228.63
970.02	228.56
970.32	228.50
970.61	228.39
970.91	228.31
971.20	228.37
971.49	228.16
971.79	228.18
972.08	228.03
972.38	228.02
972.67	227.95
972.96	227.96
973.26	227.90
973.55	227.88
973.85	227.79
974.14	227.79
974.43	227.89
974.73	227.76
975.02	227.80
975.31	227.76
975.61	227.68
975.90	227.62
976.19	227.57
976.49	227.56
976.78	227.54
977.07	227.52
977.37	227.45
977.66	227.54
977.95	227.53
978.24	227.44
978.54	227.40
978.83	227.49
979.12	227.34
979.42	227.30
979.71	227.39
980.00	227.36
980.29	227.38
980.59	227.33
980.88	227.40
981.17	227.45
981.46	227.40
981.76	227.41
982.05	227.55
982.34	227.62
982.63	227.55
982.93	227.52
983.22	227.55
983.51	227.54
983.80	227.56
984.09	227.55
984.39	227.64
984.68	227.75
984.97	227.79
985.26	227.84
985.55	227.94
985.85	227.88
986.14	227.87
986.43	227.93
986.72	227.86
987.01	227.90
987.30	227.80
987.59	227.86
987.89	227.86
988.18	227.80
988.47	227.81
988.76	227.85
989.05	227.79
989.34	227.81
989.63	227.94
989.92	227.93
990.22	227.98
990.51	228.04
990.80	228.01
991.09	227.91
991.38	228.05
991.67	227.96
991.96	227.98
992.25	228.09
992.54	228.10
992.83	228.20
993.12	228.16
993.41	228.28
993.70	228.30
993.99	228.41
994.28	228.50
994.58	228.56
994.87	228.57
995.16	228.65
995.45	228.62
995.74	228.55
996.03	228.59
996.32	228.62
996.61	228.70
996.90	228.74
997.19	228.91
997.48	228.94
997.77	229.06
998.06	229.16
998.34	229.10
998.63	229.01
998.92	229.13
999.21	229.25
999.50	229.24
999.79	229.22
1000.08	229.22
1000.37	229.15
1000.66	229.13
1000.95	229.22
1001.24	229.28
1001.53	229.29
1001.82	229.32
1002.11	229.29
1002.40	229.27
1002.68	229.30
1002.97	229.44
1003.26	229.35
1003.55	229.28
1003.84	229.31
1004.13	229.38
1004.42	229.50
1004.71	229.55
1004.99	229.53
1005.28	229.56
1005.57	229.63
1005.86	229.58
1006.15	229.58
1006.44	229.62
1006.72	229.59
1007.01	229.41
1007.30	229.34
1007.59	229.47
1007.88	229.52
1008.17	229.50
1008.45	229.48
1008.74	229.31
1009.03	229.26
1009.32	229.26
1009.60	229.30
1009.89	229.23
1010.18	229.08
1010.47	228.94
1010.76	228.92
1011.04	228.82
1011.33	228.96
1011.62	228.93
1011.91	229.07
1012.19	229.06
1012.48	229.00
1012.77	228.99
1013.05	229.21
1013.34	229.18
1013.63	229.09
1013.92	229.05
1014.20	229.06
1014.49	229.02
1014.78	228.99
1015.06	228.73
1015.35	228.64
1015.64	228.59
1015.92	228.55
1016.21	228.45
1016.50	228.38
1016.78	228.31
1017.07	228.27
1017.36	228.04
1017.64	227.93
1017.93	227.84
1018.22	227.76
1018.50	227.79
1018.79	227.76
1019.08	227.58
1019.36	227.60
1019.65	227.48
1019.93	227.39
1020.22	227.30
1020.51	227.41
1020.79	227.37
1021.08	227.50
1021.36	228.60
1021.65	227.50
1021.94	227.70
1022.22	227.20
1022.51	226.90
1022.79	226.90
1023.08	226.50
1023.36	230.20
1023.65	225.70
>>>>>End Processed Spectral Data<<<<<
