SpectraSuite Data File
++++++++++++++++++++++++++++++++++++
Date: Fri Feb 01 14:42:04 EST 2013
User: group
Dark Spectrum Present: No
Reference Spectrum Present: No
Number of Sampled Component Spectra: 1
Spectrometers: USB2E7196
Integration Time (usec): 70000 (USB2E7196)
Spectra Averaged: 10 (USB2E7196)
Boxcar Smoothing: 10 (USB2E7196)
Correct for Electrical Dark: No (USB2E7196)
Strobe/Lamp Enabled: No (USB2E7196)
Correct for Detector Non-linearity: No (USB2E7196)
Correct for Stray Light: No (USB2E7196)
Number of Pixels in Processed Spectrum: 2048
>>>>>Begin Processed Spectral Data<<<<<
339.09	0.00
339.48	216.70
339.86	218.30
340.24	218.60
340.63	221.30
341.01	223.40
341.39	223.60
341.78	224.10
342.16	226.10
342.54	227.00
342.93	215.00
343.31	225.91
343.69	226.48
344.07	227.01
344.46	227.43
344.84	227.82
345.22	228.15
345.60	228.37
345.99	228.61
346.37	228.75
346.75	228.88
347.13	228.95
347.52	228.98
347.90	229.10
348.28	229.04
348.66	229.13
349.05	228.95
349.43	228.95
349.81	229.08
350.19	229.22
350.57	229.37
350.96	229.45
351.34	229.41
351.72	229.48
352.10	229.55
352.48	229.68
352.87	229.71
353.25	229.77
353.63	229.86
354.01	229.97
354.39	230.06
354.77	230.10
355.15	230.18
355.54	230.24
355.92	230.23
356.30	230.35
356.68	230.49
357.06	230.73
357.44	230.70
357.82	230.85
358.20	230.83
358.58	230.83
358.97	230.93
359.35	231.14
359.73	231.17
360.11	231.15
360.49	231.26
360.87	231.37
361.25	231.28
361.63	231.39
362.01	231.44
362.39	231.40
362.77	231.35
363.15	231.33
363.53	231.32
363.91	231.36
364.29	231.43
364.67	231.16
365.05	231.11
365.43	231.20
365.81	231.11
366.19	231.29
366.57	231.33
366.95	231.25
367.33	231.07
367.71	231.09
368.09	231.10
368.47	231.09
368.85	230.91
369.23	231.00
369.61	230.89
369.99	230.92
370.37	230.95
370.75	231.10
371.13	231.08
371.51	231.16
371.89	231.12
372.27	231.00
372.65	230.88
373.03	230.95
373.41	230.83
373.78	230.75
374.16	230.48
374.54	230.33
374.92	230.34
375.30	230.30
375.68	230.17
376.06	230.08
376.44	229.95
376.82	229.95
377.19	229.82
377.57	229.76
377.95	229.54
378.33	229.42
378.71	229.20
379.09	229.12
379.47	228.95
379.84	228.84
380.22	228.74
380.60	228.71
380.98	228.53
381.36	228.47
381.73	228.38
382.11	228.35
382.49	228.32
382.87	228.14
383.25	228.14
383.62	228.30
384.00	228.16
384.38	228.03
384.76	228.09
385.13	228.17
385.51	228.01
385.89	227.93
386.27	227.88
386.64	227.91
387.02	227.93
387.40	227.90
387.78	227.82
388.15	227.83
388.53	227.83
388.91	227.80
389.29	227.82
389.66	227.82
390.04	227.82
390.42	227.75
390.79	227.80
391.17	227.70
391.55	227.53
391.92	227.60
392.30	227.74
392.68	227.66
393.05	227.61
393.43	227.72
393.81	227.73
394.18	227.80
394.56	227.85
394.94	227.91
395.31	227.89
395.69	228.13
396.06	228.15
396.44	228.23
396.82	228.30
397.19	228.37
397.57	228.47
397.95	228.58
398.32	228.73
398.70	228.88
399.07	229.06
399.45	229.19
399.82	229.22
400.20	229.38
400.58	229.45
400.95	229.54
401.33	229.70
401.70	229.99
402.08	230.14
402.45	230.31
402.83	230.45
403.20	230.70
403.58	230.77
403.95	231.03
404.33	231.24
404.71	231.45
405.08	231.86
405.46	232.01
405.83	232.26
406.21	232.51
406.58	232.73
406.96	232.93
407.33	233.22
407.70	233.62
408.08	233.99
408.45	234.30
408.83	234.67
409.20	235.00
409.58	235.22
409.95	235.57
410.33	235.94
410.70	236.39
411.08	236.79
411.45	237.28
411.82	237.70
412.20	238.29
412.57	238.98
412.95	239.29
413.32	240.03
413.69	240.74
414.07	241.44
414.44	242.20
414.82	242.96
415.19	243.78
415.56	244.65
415.94	245.40
416.31	246.56
416.68	247.58
417.06	248.67
417.43	249.89
417.81	251.19
418.18	252.45
418.55	253.77
418.93	255.19
419.30	256.57
419.67	258.04
420.04	259.44
420.42	260.96
420.79	262.95
421.16	264.69
421.54	266.54
421.91	268.48
422.28	270.48
422.66	272.63
423.03	274.60
423.40	276.71
423.77	279.03
424.15	281.16
424.52	283.48
424.89	286.07
425.26	288.31
425.64	290.52
426.01	292.98
426.38	295.60
426.75	298.22
427.13	301.02
427.50	303.98
427.87	306.95
428.24	309.83
428.61	312.51
428.99	315.62
429.36	318.72
429.73	321.81
430.10	324.89
430.47	328.09
430.85	331.51
431.22	334.83
431.59	338.48
431.96	341.96
432.33	345.78
432.70	349.46
433.08	354.00
433.45	358.12
433.82	362.10
434.19	366.60
434.56	370.91
434.93	374.78
435.30	378.76
435.68	383.35
436.05	387.63
436.42	391.97
436.79	395.67
437.16	399.89
437.53	404.24
437.90	408.51
438.27	412.80
438.64	417.16
439.01	421.39
439.38	424.76
439.75	428.05
440.13	431.76
440.50	435.22
440.87	438.12
441.24	440.92
441.61	444.09
441.98	446.26
442.35	449.10
442.72	452.02
443.09	454.80
443.46	456.26
443.83	457.10
444.20	457.79
444.57	459.05
444.94	459.45
445.31	460.09
445.68	460.70
446.05	460.51
446.42	459.80
446.79	458.94
447.16	458.23
447.53	457.72
447.90	456.03
448.27	454.28
448.64	451.56
449.01	449.86
449.37	446.97
449.74	443.89
450.11	440.21
450.48	436.47
450.85	432.31
451.22	428.90
451.59	425.83
451.96	422.70
452.33	418.81
452.70	415.18
453.07	410.52
453.43	405.89
453.80	401.59
454.17	397.48
454.54	393.41
454.91	389.13
455.28	384.91
455.65	380.90
456.02	377.11
456.38	373.86
456.75	369.80
457.12	366.25
457.49	362.90
457.86	359.59
458.23	356.73
458.59	353.70
458.96	350.52
459.33	347.78
459.70	345.00
460.07	342.59
460.43	339.88
460.80	337.49
461.17	335.24
461.54	333.13
461.91	330.87
462.27	328.83
462.64	326.92
463.01	324.86
463.38	322.88
463.74	320.62
464.11	318.82
464.48	317.18
464.85	315.44
465.21	314.11
465.58	312.64
465.95	310.92
466.32	309.48
466.68	308.09
467.05	306.61
467.42	305.05
467.78	303.55
468.15	302.11
468.52	301.11
468.88	299.83
469.25	298.58
469.62	297.58
469.98	296.40
470.35	295.29
470.72	294.30
471.08	293.37
471.45	292.57
471.82	291.65
472.18	290.64
472.55	290.00
472.92	289.11
473.28	288.40
473.65	287.56
474.02	286.87
474.38	286.09
474.75	285.40
475.11	284.90
475.48	284.42
475.85	284.06
476.21	283.50
476.58	283.08
476.94	282.70
477.31	282.44
477.67	282.07
478.04	281.93
478.41	281.85
478.77	281.74
479.14	281.56
479.50	281.42
479.87	281.53
480.23	281.46
480.60	281.43
480.96	281.29
481.33	281.51
481.69	281.60
482.06	281.75
482.42	281.96
482.79	282.19
483.15	282.60
483.52	282.96
483.88	283.29
484.25	283.70
484.61	284.10
484.98	284.40
485.34	285.09
485.71	285.76
486.07	286.42
486.44	287.06
486.80	287.90
487.17	288.88
487.53	289.79
487.90	290.88
488.26	292.10
488.62	293.49
488.99	294.65
489.35	296.10
489.72	297.65
490.08	299.15
490.44	300.77
490.81	302.42
491.17	304.18
491.54	306.29
491.90	308.26
492.26	310.52
492.63	312.93
492.99	315.29
493.36	317.90
493.72	320.75
494.08	323.56
494.45	326.63
494.81	329.73
495.17	333.11
495.54	336.60
495.90	340.22
496.26	344.06
496.63	348.20
496.99	352.39
497.35	356.74
497.72	361.59
498.08	366.50
498.44	371.65
498.80	377.25
499.17	382.81
499.53	388.78
499.89	394.95
500.26	401.17
500.62	407.68
500.98	414.55
501.34	421.55
501.71	428.97
502.07	436.53
502.43	444.63
502.79	452.64
503.16	461.28
503.52	469.99
503.88	479.17
504.24	488.75
504.60	498.67
504.97	508.97
505.33	519.46
505.69	530.47
506.05	541.70
506.41	552.88
506.78	564.83
507.14	577.01
507.50	589.74
507.86	602.88
508.22	616.13
508.59	629.58
508.95	643.81
509.31	658.49
509.67	673.43
510.03	688.45
510.39	704.24
510.75	719.90
511.12	736.32
511.48	752.93
511.84	769.83
512.20	787.32
512.56	805.14
512.92	823.01
513.28	841.24
513.64	860.01
514.00	879.10
514.37	898.37
514.73	918.21
515.09	937.70
515.45	958.01
515.81	978.52
516.17	999.55
516.53	1020.50
516.89	1041.96
517.25	1063.60
517.61	1085.67
517.97	1107.42
518.33	1129.82
518.69	1152.30
519.05	1175.09
519.41	1198.24
519.77	1221.51
520.13	1245.23
520.49	1269.02
520.85	1292.93
521.21	1316.92
521.57	1341.99
521.93	1365.91
522.29	1390.83
522.65	1415.19
523.01	1439.27
523.37	1463.64
523.73	1488.54
524.09	1513.10
524.45	1537.77
524.81	1562.99
525.17	1588.05
525.53	1613.75
525.89	1639.45
526.25	1665.25
526.61	1690.41
526.97	1716.07
527.33	1741.46
527.68	1766.68
528.04	1791.93
528.40	1817.77
528.76	1843.83
529.12	1869.40
529.48	1895.70
529.84	1919.96
530.20	1946.20
530.56	1973.05
530.91	2000.07
531.27	2026.23
531.63	2051.86
531.99	2077.70
532.35	2102.70
532.71	2127.33
533.07	2152.60
533.42	2177.12
533.78	2201.68
534.14	2226.67
534.50	2250.11
534.86	2274.85
535.21	2298.57
535.57	2323.14
535.93	2347.27
536.29	2370.65
536.65	2393.41
537.00	2416.35
537.36	2440.58
537.72	2463.02
538.08	2484.58
538.44	2505.63
538.79	2526.91
539.15	2548.19
539.51	2569.91
539.87	2591.87
540.22	2613.35
540.58	2634.97
540.94	2655.52
541.29	2675.43
541.65	2694.97
542.01	2716.00
542.37	2735.54
542.72	2754.67
543.08	2773.46
543.44	2792.21
543.79	2809.23
544.15	2827.28
544.51	2845.64
544.87	2863.48
545.22	2880.47
545.58	2897.24
545.94	2912.80
546.29	2928.98
546.65	2944.96
547.01	2959.51
547.36	2973.92
547.72	2988.23
548.07	3001.80
548.43	3015.53
548.79	3029.25
549.14	3042.44
549.50	3054.50
549.86	3066.32
550.21	3078.14
550.57	3089.96
550.92	3101.21
551.28	3112.32
551.64	3122.87
551.99	3133.23
552.35	3142.75
552.70	3153.26
553.06	3163.92
553.41	3175.24
553.77	3184.52
554.13	3194.73
554.48	3204.29
554.84	3213.57
555.19	3223.05
555.55	3231.16
555.90	3238.80
556.26	3246.52
556.61	3254.90
556.97	3262.40
557.32	3269.95
557.68	3277.58
558.03	3284.61
558.39	3291.40
558.74	3299.99
559.10	3306.89
559.45	3313.50
559.81	3320.54
560.16	3326.25
560.52	3331.76
560.87	3337.56
561.23	3342.27
561.58	3346.60
561.94	3351.15
562.29	3355.09
562.64	3358.28
563.00	3362.23
563.35	3367.10
563.71	3372.28
564.06	3376.80
564.42	3380.54
564.77	3384.20
565.12	3388.49
565.48	3392.11
565.83	3394.29
566.19	3396.76
566.54	3399.07
566.89	3400.74
567.25	3402.22
567.60	3404.46
567.96	3405.75
568.31	3406.29
568.66	3407.78
569.02	3408.79
569.37	3409.17
569.72	3409.59
570.08	3410.06
570.43	3409.90
570.78	3409.61
571.14	3407.35
571.49	3405.30
571.84	3405.62
572.20	3403.40
572.55	3400.56
572.90	3397.19
573.26	3395.27
573.61	3391.74
573.96	3388.07
574.31	3383.40
574.67	3378.41
575.02	3373.15
575.37	3368.61
575.72	3363.06
576.08	3357.96
576.43	3352.53
576.78	3347.55
577.13	3342.88
577.49	3337.90
577.84	3332.04
578.19	3325.64
578.54	3319.54
578.90	3312.44
579.25	3303.85
579.60	3296.98
579.95	3289.43
580.30	3282.09
580.66	3273.64
581.01	3265.50
581.36	3258.18
581.71	3252.24
582.06	3245.04
582.42	3237.07
582.77	3228.42
583.12	3220.55
583.47	3213.19
583.82	3206.27
584.17	3197.48
584.53	3188.73
584.88	3180.26
585.23	3172.47
585.58	3164.68
585.93	3156.82
586.28	3149.35
586.63	3141.34
586.98	3133.28
587.34	3125.43
587.69	3117.12
588.04	3109.37
588.39	3101.84
588.74	3091.87
589.09	3081.78
589.44	3071.99
589.79	3063.86
590.14	3055.86
590.49	3047.47
590.84	3037.80
591.19	3027.70
591.54	3017.50
591.89	3005.84
592.25	2995.37
592.60	2984.07
592.95	2972.81
593.30	2961.36
593.65	2950.06
594.00	2939.20
594.35	2928.64
594.70	2916.43
595.05	2905.83
595.40	2894.24
595.75	2882.28
596.10	2872.83
596.45	2862.63
596.80	2853.50
597.15	2842.75
597.50	2831.87
597.85	2821.33
598.19	2811.02
598.54	2801.01
598.89	2791.19
599.24	2783.10
599.59	2772.87
599.94	2763.40
600.29	2753.11
600.64	2743.63
600.99	2732.12
601.34	2721.70
601.69	2710.54
602.04	2701.12
602.39	2690.65
602.74	2681.18
603.08	2671.79
603.43	2661.92
603.78	2651.57
604.13	2640.51
604.48	2629.90
604.83	2619.22
605.18	2608.64
605.53	2596.80
605.87	2584.28
606.22	2573.40
606.57	2561.14
606.92	2549.99
607.27	2538.70
607.62	2528.41
607.96	2517.40
608.31	2507.69
608.66	2496.34
609.01	2484.72
609.36	2472.49
609.70	2459.40
610.05	2446.59
610.40	2434.34
610.75	2421.40
611.10	2408.63
611.44	2395.03
611.79	2382.91
612.14	2369.96
612.49	2355.92
612.83	2343.83
613.18	2331.70
613.53	2319.23
613.88	2306.54
614.22	2294.09
614.57	2280.95
614.92	2267.88
615.27	2255.60
615.61	2242.86
615.96	2230.41
616.31	2218.81
616.65	2208.16
617.00	2197.41
617.35	2186.08
617.70	2173.77
618.04	2161.63
618.39	2150.12
618.74	2139.18
619.08	2126.89
619.43	2115.40
619.78	2104.90
620.12	2093.27
620.47	2081.59
620.82	2069.66
621.16	2058.63
621.51	2047.19
621.85	2036.20
622.20	2024.02
622.55	2012.03
622.89	2000.77
623.24	1989.65
623.59	1978.47
623.93	1966.61
624.28	1955.04
624.62	1943.16
624.97	1932.22
625.32	1921.75
625.66	1910.68
626.01	1899.53
626.35	1888.52
626.70	1877.50
627.04	1866.74
627.39	1855.47
627.73	1844.34
628.08	1833.48
628.43	1822.13
628.77	1811.18
629.12	1799.48
629.46	1789.03
629.81	1777.65
630.15	1766.09
630.50	1754.72
630.84	1742.64
631.19	1730.99
631.53	1719.71
631.88	1708.14
632.22	1696.35
632.57	1684.88
632.91	1673.33
633.26	1662.09
633.60	1650.58
633.95	1639.22
634.29	1628.10
634.64	1617.73
634.98	1606.64
635.32	1596.32
635.67	1586.29
636.01	1575.65
636.36	1565.33
636.70	1555.13
637.05	1545.13
637.39	1535.75
637.73	1525.73
638.08	1516.93
638.42	1507.64
638.77	1498.15
639.11	1488.51
639.45	1478.86
639.80	1468.73
640.14	1458.98
640.49	1449.10
640.83	1439.52
641.17	1430.26
641.52	1420.29
641.86	1410.13
642.20	1401.05
642.55	1391.33
642.89	1381.37
643.23	1371.51
643.58	1362.51
643.92	1352.50
644.26	1343.05
644.61	1333.58
644.95	1324.07
645.29	1313.50
645.64	1302.89
645.98	1293.19
646.32	1284.26
646.66	1274.64
647.01	1265.59
647.35	1256.54
647.69	1247.43
648.04	1238.86
648.38	1229.21
648.72	1219.71
649.06	1210.21
649.41	1200.90
649.75	1191.08
650.09	1181.90
650.43	1172.76
650.78	1163.04
651.12	1154.01
651.46	1145.00
651.80	1135.75
652.14	1127.22
652.49	1118.74
652.83	1110.69
653.17	1101.50
653.51	1092.20
653.85	1083.67
654.20	1074.61
654.54	1065.43
654.88	1056.60
655.22	1047.21
655.56	1038.54
655.90	1030.21
656.25	1022.42
656.59	1014.32
656.93	1006.30
657.27	998.19
657.61	989.46
657.95	981.85
658.29	973.99
658.64	965.88
658.98	957.74
659.32	949.21
659.66	941.48
660.00	933.46
660.34	925.96
660.68	918.45
661.02	910.59
661.36	903.64
661.70	896.59
662.05	889.80
662.39	883.11
662.73	876.15
663.07	869.43
663.41	862.63
663.75	855.85
664.09	849.20
664.43	842.43
664.77	836.48
665.11	829.98
665.45	823.80
665.79	817.26
666.13	810.90
666.47	804.64
666.81	798.05
667.15	791.90
667.49	785.72
667.83	779.97
668.17	774.00
668.51	767.57
668.85	761.35
669.19	755.20
669.53	749.20
669.87	743.42
670.21	737.79
670.55	731.83
670.89	726.45
671.23	721.37
671.57	716.14
671.91	710.81
672.25	705.50
672.58	700.13
672.92	695.23
673.26	690.42
673.60	685.39
673.94	680.54
674.28	676.07
674.62	671.54
674.96	666.73
675.30	662.33
675.64	657.92
675.97	653.69
676.31	649.47
676.65	645.06
676.99	640.93
677.33	636.31
677.67	632.05
678.01	627.20
678.34	622.41
678.68	617.98
679.02	613.62
679.36	609.20
679.70	604.92
680.04	600.75
680.37	596.37
680.71	592.43
681.05	588.53
681.39	584.30
681.73	580.34
682.06	576.45
682.40	572.78
682.74	568.85
683.08	565.12
683.42	560.84
683.75	557.13
684.09	553.21
684.43	549.62
684.77	545.97
685.10	542.67
685.44	539.22
685.78	535.78
686.12	532.40
686.45	528.84
686.79	525.51
687.13	522.02
687.46	518.66
687.80	515.26
688.14	511.76
688.48	508.61
688.81	505.21
689.15	501.97
689.49	498.44
689.82	495.21
690.16	491.86
690.50	488.91
690.83	485.71
691.17	482.69
691.51	479.66
691.84	476.67
692.18	473.44
692.52	470.49
692.85	467.40
693.19	464.59
693.52	461.81
693.86	458.64
694.20	455.84
694.53	453.09
694.87	450.29
695.21	447.46
695.54	444.41
695.88	441.64
696.21	438.98
696.55	436.49
696.88	433.90
697.22	431.40
697.56	429.03
697.89	426.56
698.23	424.04
698.56	421.57
698.90	419.23
699.23	416.90
699.57	414.46
699.90	412.25
700.24	409.65
700.58	407.20
700.91	405.09
701.25	402.79
701.58	400.52
701.92	398.50
702.25	396.59
702.59	394.67
702.92	392.69
703.26	390.66
703.59	388.60
703.93	386.80
704.26	384.83
704.60	382.83
704.93	380.87
705.26	378.94
705.60	377.04
705.93	375.26
706.27	373.53
706.60	371.77
706.94	369.93
707.27	368.16
707.61	366.66
707.94	364.97
708.27	363.33
708.61	361.65
708.94	359.97
709.28	358.34
709.61	356.73
709.94	355.33
710.28	353.84
710.61	352.26
710.95	350.50
711.28	348.95
711.61	347.46
711.95	346.16
712.28	344.74
712.61	343.21
712.95	341.79
713.28	340.40
713.61	339.00
713.95	337.63
714.28	336.46
714.61	335.12
714.95	334.11
715.28	332.90
715.61	331.68
715.95	330.39
716.28	329.18
716.61	328.00
716.95	326.67
717.28	325.48
717.61	324.42
717.94	323.39
718.28	322.22
718.61	321.13
718.94	319.86
719.27	318.72
719.61	317.64
719.94	316.48
720.27	315.38
720.60	314.44
720.94	313.48
721.27	312.51
721.60	311.60
721.93	310.47
722.27	309.38
722.60	308.57
722.93	307.60
723.26	306.69
723.59	305.74
723.93	304.97
724.26	303.92
724.59	303.07
724.92	302.17
725.25	301.49
725.59	300.67
725.92	299.94
726.25	299.10
726.58	298.46
726.91	297.77
727.24	296.99
727.57	296.17
727.91	295.30
728.24	294.66
728.57	293.85
728.90	293.13
729.23	292.38
729.56	291.68
729.89	291.07
730.22	290.25
730.55	289.60
730.89	288.84
731.22	288.33
731.55	287.51
731.88	286.88
732.21	286.08
732.54	285.32
732.87	284.51
733.20	283.92
733.53	283.20
733.86	282.47
734.19	281.78
734.52	281.13
734.85	280.71
735.18	279.93
735.51	279.39
735.84	278.80
736.17	278.17
736.50	277.48
736.83	277.09
737.16	276.44
737.49	275.86
737.82	275.21
738.15	274.57
738.48	274.07
738.81	273.43
739.14	272.77
739.47	272.29
739.80	271.85
740.13	271.34
740.46	270.74
740.79	270.28
741.12	269.91
741.45	269.40
741.78	268.76
742.11	268.31
742.44	267.66
742.77	267.13
743.10	266.82
743.43	266.28
743.75	265.54
744.08	265.51
744.41	265.01
744.74	264.66
745.07	264.24
745.40	263.89
745.73	263.61
746.06	263.26
746.39	262.78
746.71	262.35
747.04	261.94
747.37	261.60
747.70	261.24
748.03	260.74
748.36	260.39
748.68	259.98
749.01	259.56
749.34	259.31
749.67	258.98
750.00	258.58
750.33	258.39
750.65	258.12
750.98	257.45
751.31	257.08
751.64	256.72
751.97	256.42
752.29	256.04
752.62	255.64
752.95	255.40
753.28	255.14
753.60	254.82
753.93	254.46
754.26	254.13
754.59	253.85
754.91	253.59
755.24	253.28
755.57	253.06
755.90	252.73
756.22	252.36
756.55	252.06
756.88	251.74
757.20	251.40
757.53	251.08
757.86	250.91
758.19	250.76
758.51	250.49
758.84	250.21
759.17	249.97
759.49	249.74
759.82	249.61
760.15	249.46
760.47	249.36
760.80	249.22
761.13	249.10
761.45	248.80
761.78	248.62
762.11	248.45
762.43	248.20
762.76	248.03
763.08	247.93
763.41	247.76
763.74	247.61
764.06	247.33
764.39	247.11
764.71	246.86
765.04	246.65
765.37	246.42
765.69	246.19
766.02	245.96
766.34	245.66
766.67	245.39
767.00	245.17
767.32	245.05
767.65	244.96
767.97	244.67
768.30	244.42
768.62	244.24
768.95	244.02
769.27	243.88
769.60	243.73
769.92	243.51
770.25	243.31
770.57	243.06
770.90	242.92
771.22	242.74
771.55	242.63
771.87	242.49
772.20	242.33
772.52	242.27
772.85	242.35
773.17	242.38
773.50	242.12
773.82	241.98
774.15	241.69
774.47	241.41
774.80	241.33
775.12	241.20
775.45	241.02
775.77	240.84
776.09	240.75
776.42	240.59
776.74	240.49
777.07	240.31
777.39	240.22
777.72	240.14
778.04	240.03
778.36	239.80
778.69	239.74
779.01	239.71
779.33	239.52
779.66	239.20
779.98	238.83
780.31	238.76
780.63	238.55
780.95	238.34
781.28	238.18
781.60	237.95
781.92	237.88
782.25	237.71
782.57	237.58
782.89	237.38
783.22	237.21
783.54	237.05
783.86	236.96
784.19	236.80
784.51	236.68
784.83	236.54
785.16	236.52
785.48	236.35
785.80	236.17
786.12	236.05
786.45	235.85
786.77	235.89
787.09	235.68
787.42	235.58
787.74	235.69
788.06	235.59
788.38	235.58
788.71	235.51
789.03	235.45
789.35	235.36
789.67	235.23
789.99	235.18
790.32	235.10
790.64	234.99
790.96	235.22
791.28	235.07
791.61	234.91
791.93	234.85
792.25	234.69
792.57	234.82
792.89	234.79
793.21	234.82
793.54	234.74
793.86	234.67
794.18	234.69
794.50	234.55
794.82	234.53
795.14	234.53
795.47	234.41
795.79	234.30
796.11	234.36
796.43	234.23
796.75	234.13
797.07	234.01
797.39	233.99
797.71	233.65
798.04	233.65
798.36	233.66
798.68	233.55
799.00	233.55
799.32	233.36
799.64	233.29
799.96	233.24
800.28	233.26
800.60	233.21
800.92	233.13
801.24	233.01
801.56	233.04
801.89	232.96
802.21	233.10
802.53	233.17
802.85	233.09
803.17	233.20
803.49	233.20
803.81	233.25
804.13	233.22
804.45	233.20
804.77	233.11
805.09	233.07
805.41	233.05
805.73	233.03
806.05	232.91
806.37	232.90
806.69	232.80
807.01	232.66
807.33	232.69
807.65	232.70
807.97	232.86
808.28	232.82
808.60	232.81
808.92	232.63
809.24	232.75
809.56	232.72
809.88	232.76
810.20	232.81
810.52	232.76
810.84	232.77
811.16	232.76
811.48	232.83
811.80	232.95
812.12	232.85
812.43	232.84
812.75	232.84
813.07	232.84
813.39	232.84
813.71	232.87
814.03	232.84
814.35	232.74
814.67	232.54
814.98	232.55
815.30	232.49
815.62	232.48
815.94	232.20
816.26	232.31
816.58	232.17
816.89	232.10
817.21	232.10
817.53	232.01
817.85	232.03
818.17	231.95
818.48	231.83
818.80	231.87
819.12	231.78
819.44	231.74
819.76	231.62
820.07	231.58
820.39	231.55
820.71	231.42
821.03	231.43
821.34	231.28
821.66	231.17
821.98	231.16
822.30	231.11
822.61	231.19
822.93	230.95
823.25	230.86
823.57	230.87
823.88	230.83
824.20	230.80
824.52	230.72
824.83	230.51
825.15	230.42
825.47	230.26
825.79	230.27
826.10	230.22
826.42	230.14
826.74	230.13
827.05	230.05
827.37	230.09
827.69	230.01
828.00	230.07
828.32	229.99
828.64	229.91
828.95	229.92
829.27	229.90
829.58	229.87
829.90	229.88
830.22	229.84
830.53	229.77
830.85	229.68
831.17	229.64
831.48	229.79
831.80	229.78
832.11	229.78
832.43	229.70
832.75	229.75
833.06	229.91
833.38	229.88
833.69	229.82
834.01	229.90
834.32	229.89
834.64	229.92
834.96	229.94
835.27	229.95
835.59	229.93
835.90	229.79
836.22	229.86
836.53	229.80
836.85	229.66
837.16	229.88
837.48	229.89
837.79	229.93
838.11	229.92
838.42	229.86
838.74	229.95
839.05	229.94
839.37	229.93
839.68	229.84
840.00	229.84
840.31	229.95
840.63	229.89
840.94	229.91
841.26	229.84
841.57	229.83
841.88	229.82
842.20	229.94
842.51	230.03
842.83	229.91
843.14	230.16
843.46	230.27
843.77	230.14
844.08	230.18
844.40	230.13
844.71	230.11
845.03	230.23
845.34	230.23
845.65	230.31
845.97	230.41
846.28	230.48
846.60	230.53
846.91	230.48
847.22	230.52
847.54	230.55
847.85	230.63
848.16	230.73
848.48	230.69
848.79	230.57
849.10	230.59
849.42	230.65
849.73	230.42
850.04	230.40
850.36	230.33
850.67	230.38
850.98	230.40
851.30	230.32
851.61	230.29
851.92	230.29
852.23	230.35
852.55	230.24
852.86	230.11
853.17	230.08
853.49	230.08
853.80	230.04
854.11	229.99
854.42	229.99
854.74	229.92
855.05	230.03
855.36	230.02
855.67	230.01
855.99	230.03
856.30	230.27
856.61	230.31
856.92	230.31
857.23	230.28
857.55	230.18
857.86	230.13
858.17	230.01
858.48	229.90
858.79	229.72
859.11	229.74
859.42	229.72
859.73	229.67
860.04	229.67
860.35	229.54
860.66	229.51
860.98	229.51
861.29	229.44
861.60	229.30
861.91	229.31
862.22	229.22
862.53	229.04
862.84	228.71
863.16	228.66
863.47	228.50
863.78	228.39
864.09	228.41
864.40	228.49
864.71	228.55
865.02	228.60
865.33	228.65
865.64	228.57
865.95	228.61
866.27	228.64
866.58	228.63
866.89	228.71
867.20	228.78
867.51	228.74
867.82	228.61
868.13	228.60
868.44	228.54
868.75	228.58
869.06	228.71
869.37	228.74
869.68	228.69
869.99	228.80
870.30	228.90
870.61	228.93
870.92	228.85
871.23	228.76
871.54	228.87
871.85	228.86
872.16	228.79
872.47	228.75
872.78	228.63
873.09	228.60
873.40	228.60
873.71	228.44
874.02	228.36
874.33	228.42
874.64	228.49
874.95	228.49
875.26	228.46
875.56	228.40
875.87	228.45
876.18	228.43
876.49	228.59
876.80	228.54
877.11	228.49
877.42	228.57
877.73	228.65
878.04	228.50
878.35	228.66
878.66	228.71
878.96	228.67
879.27	228.81
879.58	228.82
879.89	228.88
880.20	228.99
880.51	229.05
880.82	229.17
881.12	229.20
881.43	229.17
881.74	229.21
882.05	229.24
882.36	229.30
882.67	229.29
882.97	229.15
883.28	229.28
883.59	229.29
883.90	229.30
884.21	229.42
884.51	229.52
884.82	229.46
885.13	229.56
885.44	229.73
885.74	229.70
886.05	229.71
886.36	229.73
886.67	229.74
886.98	229.85
887.28	229.82
887.59	229.80
887.90	229.99
888.20	229.93
888.51	230.06
888.82	230.07
889.13	230.23
889.43	230.34
889.74	230.30
890.05	230.35
890.35	230.38
890.66	230.33
890.97	230.26
891.28	230.24
891.58	230.24
891.89	230.15
892.20	230.15
892.50	230.10
892.81	230.02
893.12	230.09
893.42	229.98
893.73	230.00
894.04	230.01
894.34	229.97
894.65	229.99
894.95	229.94
895.26	229.79
895.57	229.87
895.87	229.68
896.18	229.68
896.48	229.61
896.79	229.59
897.10	229.54
897.40	229.41
897.71	229.36
898.01	229.33
898.32	229.30
898.63	229.21
898.93	229.24
899.24	229.22
899.54	229.13
899.85	229.12
900.15	229.07
900.46	229.03
900.76	228.97
901.07	228.91
901.38	228.86
901.68	228.98
901.99	228.85
902.29	228.90
902.60	228.81
902.90	228.79
903.21	228.80
903.51	228.78
903.82	228.88
904.12	228.88
904.43	228.86
904.73	228.93
905.03	228.94
905.34	229.15
905.64	229.10
905.95	229.02
906.25	228.96
906.56	228.91
906.86	228.84
907.17	228.83
907.47	228.85
907.77	228.82
908.08	228.71
908.38	228.60
908.69	228.58
908.99	228.56
909.30	228.47
909.60	228.48
909.90	228.41
910.21	228.35
910.51	228.34
910.81	228.28
911.12	228.16
911.42	228.18
911.73	227.88
912.03	227.94
912.33	228.02
912.64	228.06
912.94	228.07
913.24	228.11
913.55	227.92
913.85	227.90
914.15	227.89
914.46	227.89
914.76	227.87
915.06	227.87
915.37	227.87
915.67	227.91
915.97	227.74
916.27	227.78
916.58	227.84
916.88	227.87
917.18	227.87
917.49	228.05
917.79	228.13
918.09	228.28
918.39	228.30
918.70	228.18
919.00	228.16
919.30	228.28
919.60	228.26
919.91	228.33
920.21	228.37
920.51	228.39
920.81	228.39
921.12	228.42
921.42	228.42
921.72	228.52
922.02	228.56
922.32	228.75
922.63	228.85
922.93	228.95
923.23	228.95
923.53	228.94
923.83	228.88
924.13	228.78
924.44	228.70
924.74	228.73
925.04	228.97
925.34	229.10
925.64	229.05
925.94	229.13
926.24	229.30
926.55	229.33
926.85	229.35
927.15	229.52
927.45	229.56
927.75	229.60
928.05	229.52
928.35	229.65
928.65	229.67
928.95	229.71
929.26	229.67
929.56	229.77
929.86	229.84
930.16	229.80
930.46	229.90
930.76	229.94
931.06	229.86
931.36	229.76
931.66	229.64
931.96	229.65
932.26	229.61
932.56	229.51
932.86	229.50
933.16	229.53
933.46	229.40
933.76	229.43
934.06	229.48
934.36	229.51
934.66	229.49
934.96	229.44
935.26	229.42
935.56	229.37
935.86	229.30
936.16	229.30
936.46	229.30
936.76	229.26
937.06	229.22
937.36	229.27
937.66	229.36
937.96	229.33
938.26	229.28
938.56	229.25
938.86	229.18
939.16	229.15
939.46	229.15
939.76	229.16
940.06	229.07
940.35	228.96
940.65	228.87
940.95	228.73
941.25	228.72
941.55	228.63
941.85	228.58
942.15	228.50
942.45	228.52
942.75	228.49
943.04	228.45
943.34	228.50
943.64	228.41
943.94	228.24
944.24	228.37
944.54	228.36
944.84	228.39
945.13	228.39
945.43	228.45
945.73	228.34
946.03	228.30
946.33	228.37
946.62	228.37
946.92	228.32
947.22	228.34
947.52	228.22
947.82	228.25
948.11	228.25
948.41	228.22
948.71	228.09
949.01	228.08
949.31	227.93
949.60	227.87
949.90	227.95
950.20	228.01
950.50	227.92
950.79	227.81
951.09	227.78
951.39	227.76
951.69	227.62
951.98	227.70
952.28	227.74
952.58	227.63
952.87	227.56
953.17	227.62
953.47	227.67
953.76	227.69
954.06	227.63
954.36	227.58
954.66	227.54
954.95	227.65
955.25	227.69
955.55	227.80
955.84	227.80
956.14	227.82
956.44	227.90
956.73	227.86
957.03	227.98
957.32	228.00
957.62	228.04
957.92	228.10
958.21	228.14
958.51	228.26
958.81	228.34
959.10	228.39
959.40	228.51
959.69	228.53
959.99	228.67
960.29	228.68
960.58	228.71
960.88	228.82
961.17	228.78
961.47	228.70
961.76	228.73
962.06	228.80
962.36	228.80
962.65	228.69
962.95	228.74
963.24	228.69
963.54	228.68
963.83	228.71
964.13	228.76
964.42	228.72
964.72	228.62
965.01	228.61
965.31	228.70
965.60	228.66
965.90	228.80
966.19	228.74
966.49	228.80
966.78	228.93
967.08	228.96
967.37	229.03
967.67	229.12
967.96	229.28
968.26	229.28
968.55	229.30
968.85	229.29
969.14	229.34
969.43	229.43
969.73	229.41
970.02	229.43
970.32	229.50
970.61	229.53
970.91	229.50
971.20	229.47
971.49	229.37
971.79	229.41
972.08	229.25
972.38	229.20
972.67	229.13
972.96	229.09
973.26	228.99
973.55	228.99
973.85	228.96
974.14	228.82
974.43	228.83
974.73	228.80
975.02	228.84
975.31	228.79
975.61	228.73
975.90	228.76
976.19	228.68
976.49	228.53
976.78	228.51
977.07	228.50
977.37	228.54
977.66	228.53
977.95	228.39
978.24	228.43
978.54	228.49
978.83	228.40
979.12	228.39
979.42	228.39
979.71	228.33
980.00	228.29
980.29	228.30
980.59	228.19
980.88	228.22
981.17	228.19
981.46	228.13
981.76	228.03
982.05	228.07
982.34	228.12
982.63	228.10
982.93	228.09
983.22	228.10
983.51	228.10
983.80	228.19
984.09	228.29
984.39	228.23
984.68	228.20
984.97	228.27
985.26	228.17
985.55	228.22
985.85	228.08
986.14	228.16
986.43	228.14
986.72	228.13
987.01	228.10
987.30	228.04
987.59	228.00
987.89	228.08
988.18	228.01
988.47	227.99
988.76	228.07
989.05	228.00
989.34	227.97
989.63	227.99
989.92	227.95
990.22	227.90
990.51	227.89
990.80	227.84
991.09	227.91
991.38	227.92
991.67	227.85
991.96	228.01
992.25	228.00
992.54	227.90
992.83	227.94
993.12	227.84
993.41	227.95
993.70	228.12
993.99	228.19
994.28	228.19
994.58	228.11
994.87	228.19
995.16	228.22
995.45	228.28
995.74	228.19
996.03	228.19
996.32	228.15
996.61	228.19
996.90	228.16
997.19	228.17
997.48	228.19
997.77	228.20
998.06	228.16
998.34	228.09
998.63	228.16
998.92	228.19
999.21	228.27
999.50	228.24
999.79	228.13
1000.08	228.06
1000.37	228.08
1000.66	228.19
1000.95	228.07
1001.24	228.08
1001.53	228.07
1001.82	228.07
1002.11	228.00
1002.40	228.11
1002.68	228.19
1002.97	228.41
1003.26	228.34
1003.55	228.31
1003.84	228.35
1004.13	228.40
1004.42	228.39
1004.71	228.41
1004.99	228.40
1005.28	228.54
1005.57	228.44
1005.86	228.40
1006.15	228.38
1006.44	228.44
1006.72	228.45
1007.01	228.50
1007.30	228.54
1007.59	228.55
1007.88	228.62
1008.17	228.65
1008.45	228.64
1008.74	228.51
1009.03	228.35
1009.32	228.28
1009.60	228.32
1009.89	228.34
1010.18	228.20
1010.47	228.30
1010.76	228.25
1011.04	228.26
1011.33	228.20
1011.62	228.21
1011.91	228.18
1012.19	228.19
1012.48	228.14
1012.77	228.10
1013.05	228.22
1013.34	228.24
1013.63	228.20
1013.92	228.20
1014.20	228.31
1014.49	228.27
1014.78	228.33
1015.06	228.34
1015.35	228.41
1015.64	228.44
1015.92	228.39
1016.21	228.46
1016.50	228.40
1016.78	228.51
1017.07	228.46
1017.36	228.42
1017.64	228.52
1017.93	228.65
1018.22	228.55
1018.50	228.50
1018.79	228.38
1019.08	228.30
1019.36	228.27
1019.65	228.27
1019.93	228.25
1020.22	228.17
1020.51	228.20
1020.79	228.19
1021.08	225.70
1021.36	227.70
1021.65	225.60
1021.94	229.70
1022.22	228.50
1022.51	228.30
1022.79	228.00
1023.08	228.10
1023.36	229.70
1023.65	227.90
>>>>>End Processed Spectral Data<<<<<
