SpectraSuite Data File
++++++++++++++++++++++++++++++++++++
Date: Fri Feb 01 14:40:54 EST 2013
User: group
Dark Spectrum Present: No
Reference Spectrum Present: No
Number of Sampled Component Spectra: 1
Spectrometers: USB2E7196
Integration Time (usec): 70000 (USB2E7196)
Spectra Averaged: 10 (USB2E7196)
Boxcar Smoothing: 10 (USB2E7196)
Correct for Electrical Dark: No (USB2E7196)
Strobe/Lamp Enabled: No (USB2E7196)
Correct for Detector Non-linearity: No (USB2E7196)
Correct for Stray Light: No (USB2E7196)
Number of Pixels in Processed Spectrum: 2048
>>>>>Begin Processed Spectral Data<<<<<
339.09	0.00
339.48	215.70
339.86	217.80
340.24	219.50
340.63	220.40
341.01	225.50
341.39	223.30
341.78	226.20
342.16	224.60
342.54	225.80
342.93	214.26
343.31	225.07
343.69	225.62
344.07	225.98
344.46	226.48
344.84	226.82
345.22	226.89
345.60	227.10
345.99	227.25
346.37	227.47
346.75	227.59
347.13	227.81
347.52	227.87
347.90	227.98
348.28	228.04
348.66	228.14
349.05	228.14
349.43	228.25
349.81	228.22
350.19	228.27
350.57	228.37
350.96	228.32
351.34	228.38
351.72	228.51
352.10	228.69
352.48	228.61
352.87	228.60
353.25	228.80
353.63	228.82
354.01	228.89
354.39	228.93
354.77	228.95
355.15	229.06
355.54	229.15
355.92	229.14
356.30	229.24
356.68	229.50
357.06	229.63
357.44	229.73
357.82	229.74
358.20	229.75
358.58	229.76
358.97	229.97
359.35	230.10
359.73	230.19
360.11	230.30
360.49	230.33
360.87	230.45
361.25	230.39
361.63	230.61
362.01	230.62
362.39	230.69
362.77	230.77
363.15	230.75
363.53	230.79
363.91	230.82
364.29	230.77
364.67	230.57
365.05	230.58
365.43	230.50
365.81	230.59
366.19	230.78
366.57	230.94
366.95	230.89
367.33	230.86
367.71	230.81
368.09	230.71
368.47	230.71
368.85	230.72
369.23	230.90
369.61	230.77
369.99	230.73
370.37	230.67
370.75	230.74
371.13	230.63
371.51	230.66
371.89	230.61
372.27	230.51
372.65	230.50
373.03	230.40
373.41	230.43
373.78	230.29
374.16	230.14
374.54	230.00
374.92	229.80
375.30	229.76
375.68	229.60
376.06	229.60
376.44	229.54
376.82	229.45
377.19	229.29
377.57	229.10
377.95	229.02
378.33	228.84
378.71	228.60
379.09	228.48
379.47	228.24
379.84	228.17
380.22	228.08
380.60	227.90
380.98	227.86
381.36	227.68
381.73	227.67
382.11	227.58
382.49	227.48
382.87	227.50
383.25	227.35
383.62	227.53
384.00	227.41
384.38	227.35
384.76	227.25
385.13	227.15
385.51	227.15
385.89	226.99
386.27	227.09
386.64	227.10
387.02	227.04
387.40	227.00
387.78	226.91
388.15	226.89
388.53	226.87
388.91	226.68
389.29	226.63
389.66	226.63
390.04	226.62
390.42	226.65
390.79	226.68
391.17	226.66
391.55	226.41
391.92	226.39
392.30	226.48
392.68	226.50
393.05	226.60
393.43	226.66
393.81	226.77
394.18	226.66
394.56	226.65
394.94	226.84
395.31	226.89
395.69	226.98
396.06	227.10
396.44	227.11
396.82	227.27
397.19	227.52
397.57	227.57
397.95	227.62
398.32	227.60
398.70	227.57
399.07	227.82
399.45	227.96
399.82	228.11
400.20	228.20
400.58	228.29
400.95	228.34
401.33	228.43
401.70	228.66
402.08	228.93
402.45	229.10
402.83	229.13
403.20	229.24
403.58	229.33
403.95	229.54
404.33	229.75
404.71	229.79
405.08	229.97
405.46	230.03
405.83	230.12
406.21	230.36
406.58	230.64
406.96	230.74
407.33	230.96
407.70	231.13
408.08	231.51
408.45	231.76
408.83	231.92
409.20	232.17
409.58	232.33
409.95	232.49
410.33	232.80
410.70	233.11
411.08	233.44
411.45	233.87
411.82	234.15
412.20	234.56
412.57	235.09
412.95	235.34
413.32	235.82
413.69	236.40
414.07	236.80
414.44	237.33
414.82	237.85
415.19	238.40
415.56	238.95
415.94	239.35
416.31	240.00
416.68	240.71
417.06	241.49
417.43	242.17
417.81	242.98
418.18	243.75
418.55	244.60
418.93	245.64
419.30	246.52
419.67	247.53
420.04	248.44
420.42	249.50
420.79	250.91
421.16	252.21
421.54	253.44
421.91	254.80
422.28	256.11
422.66	257.44
423.03	258.88
423.40	260.26
423.77	261.74
424.15	263.21
424.52	264.78
424.89	266.45
425.26	268.12
425.64	269.63
426.01	271.20
426.38	272.89
426.75	274.64
427.13	276.52
427.50	278.38
427.87	280.47
428.24	282.43
428.61	284.09
428.99	286.10
429.36	288.26
429.73	290.41
430.10	292.46
430.47	294.72
430.85	296.84
431.22	299.20
431.59	301.76
431.96	304.07
432.33	306.72
432.70	309.23
433.08	312.20
433.45	314.94
433.82	317.84
434.19	321.07
434.56	324.02
434.93	326.64
435.30	329.36
435.68	332.44
436.05	335.47
436.42	338.60
436.79	341.31
437.16	344.07
437.53	346.94
437.90	349.97
438.27	352.97
438.64	356.06
439.01	359.04
439.38	361.36
439.75	363.81
440.13	366.43
440.50	368.90
440.87	370.90
441.24	373.06
441.61	375.39
441.98	376.83
442.35	378.55
442.72	380.66
443.09	382.74
443.46	383.67
443.83	384.10
444.20	384.54
444.57	385.30
444.94	385.62
445.31	386.23
445.68	386.72
446.05	386.62
446.42	386.06
446.79	385.54
447.16	385.09
447.53	384.63
447.90	383.38
448.27	382.11
448.64	380.34
449.01	379.10
449.37	376.88
449.74	374.94
450.11	372.82
450.48	370.15
450.85	367.34
451.22	365.12
451.59	363.17
451.96	360.95
452.33	358.30
452.70	355.94
453.07	352.83
453.43	349.58
453.80	346.61
454.17	343.89
454.54	341.04
454.91	338.17
455.28	335.36
455.65	332.75
456.02	330.36
456.38	328.17
456.75	325.30
457.12	323.00
457.49	320.54
457.86	318.04
458.23	316.23
458.59	314.16
458.96	311.90
459.33	309.75
459.70	307.88
460.07	306.19
460.43	304.23
460.80	302.44
461.17	300.91
461.54	299.38
461.91	297.83
462.27	296.35
462.64	295.00
463.01	293.57
463.38	292.12
463.74	290.45
464.11	289.03
464.48	287.94
464.85	286.65
465.21	285.78
465.58	284.79
465.95	283.40
466.32	282.32
466.68	281.26
467.05	280.28
467.42	279.30
467.78	278.25
468.15	277.29
468.52	276.52
468.88	275.55
469.25	274.61
469.62	273.85
469.98	272.97
470.35	272.14
470.72	271.42
471.08	270.59
471.45	269.96
471.82	269.34
472.18	268.55
472.55	268.00
472.92	267.21
473.28	266.58
473.65	266.02
474.02	265.40
474.38	264.89
474.75	264.45
475.11	263.78
475.48	263.32
475.85	262.91
476.21	262.45
476.58	262.07
476.94	261.71
477.31	261.34
477.67	261.08
478.04	260.87
478.41	260.56
478.77	260.55
479.14	260.28
479.50	260.10
479.87	259.99
480.23	259.80
480.60	259.77
480.96	259.60
481.33	259.60
481.69	259.42
482.06	259.35
482.42	259.32
482.79	259.35
483.15	259.39
483.52	259.38
483.88	259.44
484.25	259.56
484.61	259.65
484.98	259.70
485.34	259.84
485.71	260.02
486.07	260.24
486.44	260.20
486.80	260.34
487.17	260.62
487.53	260.90
487.90	261.36
488.26	261.70
488.62	262.25
488.99	262.60
489.35	263.23
489.72	263.85
490.08	264.44
490.44	265.07
490.81	265.75
491.17	266.57
491.54	267.37
491.90	268.20
492.26	269.13
492.63	270.13
492.99	271.07
493.36	272.12
493.72	273.32
494.08	274.54
494.45	275.96
494.81	277.30
495.17	278.70
495.54	280.18
495.90	281.72
496.26	283.34
496.63	285.15
496.99	286.92
497.35	288.77
497.72	290.66
498.08	292.86
498.44	295.08
498.80	297.48
499.17	299.94
499.53	302.54
499.89	305.31
500.26	308.09
500.62	311.08
500.98	314.09
501.34	317.19
501.71	320.54
502.07	323.84
502.43	327.45
502.79	331.20
503.16	335.12
503.52	339.19
503.88	343.40
504.24	347.70
504.60	352.23
504.97	357.15
505.33	362.03
505.69	367.25
506.05	372.49
506.41	377.71
506.78	383.17
507.14	388.90
507.50	394.84
507.86	401.10
508.22	407.60
508.59	413.98
508.95	420.68
509.31	427.67
509.67	435.01
510.03	442.29
510.39	449.95
510.75	457.72
511.12	465.62
511.48	473.90
511.84	482.36
512.20	490.72
512.56	499.45
512.92	508.67
513.28	517.69
513.64	527.01
514.00	536.62
514.37	546.52
514.73	556.44
515.09	566.50
515.45	576.80
515.81	587.02
516.17	598.14
516.53	609.14
516.89	620.27
517.25	631.24
517.61	642.49
517.97	653.78
518.33	665.30
518.69	677.22
519.05	689.08
519.41	701.36
519.77	714.04
520.13	726.77
520.49	739.33
520.85	752.20
521.21	765.03
521.57	778.38
521.93	791.32
522.29	805.03
522.65	818.47
523.01	831.95
523.37	845.53
523.73	858.98
524.09	872.85
524.45	886.91
524.81	901.38
525.17	916.07
525.53	931.00
525.89	945.50
526.25	960.26
526.61	974.82
526.97	989.93
527.33	1005.04
527.68	1020.06
528.04	1034.93
528.40	1049.94
528.76	1065.70
529.12	1081.09
529.48	1096.99
529.84	1111.78
530.20	1127.38
530.56	1143.64
530.91	1159.78
531.27	1175.56
531.63	1191.25
531.99	1207.06
532.35	1222.62
532.71	1238.02
533.07	1253.60
533.42	1269.49
533.78	1285.31
534.14	1301.20
534.50	1315.73
534.86	1330.84
535.21	1345.92
535.57	1362.08
535.93	1377.42
536.29	1392.70
536.65	1407.46
537.00	1422.17
537.36	1438.10
537.72	1453.11
538.08	1467.49
538.44	1482.09
538.79	1496.89
539.15	1511.54
539.51	1525.96
539.87	1540.43
540.22	1555.05
540.58	1569.63
540.94	1583.49
541.29	1597.17
541.65	1610.73
542.01	1625.45
542.37	1639.35
542.72	1652.83
543.08	1665.49
543.44	1678.83
543.79	1690.97
544.15	1704.15
544.51	1717.52
544.87	1729.95
545.22	1742.69
545.58	1754.94
545.94	1766.28
546.29	1777.86
546.65	1789.23
547.01	1800.48
547.36	1811.66
547.72	1822.49
548.07	1832.78
548.43	1843.63
548.79	1854.04
549.14	1864.46
549.50	1874.24
549.86	1884.08
550.21	1893.67
550.57	1903.50
550.92	1912.96
551.28	1922.59
551.64	1930.94
551.99	1939.63
552.35	1947.69
552.70	1955.69
553.06	1964.59
553.41	1973.58
553.77	1981.60
554.13	1989.92
554.48	1998.13
554.84	2005.91
555.19	2013.51
555.55	2021.27
555.90	2028.32
556.26	2035.83
556.61	2042.92
556.97	2049.26
557.32	2056.22
557.68	2062.91
558.03	2069.70
558.39	2076.13
558.74	2083.25
559.10	2090.40
559.45	2096.86
559.81	2104.03
560.16	2109.72
560.52	2114.55
560.87	2120.68
561.23	2126.47
561.58	2131.90
561.94	2136.97
562.29	2141.40
562.64	2145.80
563.00	2150.28
563.35	2155.38
563.71	2160.26
564.06	2164.96
564.42	2170.22
564.77	2174.40
565.12	2179.07
565.48	2182.94
565.83	2186.56
566.19	2189.94
566.54	2192.68
566.89	2195.35
567.25	2197.95
567.60	2201.76
567.96	2205.19
568.31	2207.35
568.66	2209.68
569.02	2212.28
569.37	2213.78
569.72	2216.22
570.08	2218.74
570.43	2220.44
570.78	2221.46
571.14	2221.84
571.49	2223.08
571.84	2224.34
572.20	2224.82
572.55	2224.92
572.90	2224.66
573.26	2225.09
573.61	2224.58
573.96	2224.59
574.31	2223.51
574.67	2221.67
575.02	2219.94
575.37	2218.63
575.72	2216.49
576.08	2215.20
576.43	2213.01
576.78	2211.69
577.13	2210.49
577.49	2208.11
577.84	2206.12
578.19	2204.03
578.54	2201.45
578.90	2197.85
579.25	2193.97
579.60	2190.90
579.95	2187.28
580.30	2183.53
580.66	2179.57
581.01	2175.81
581.36	2172.50
581.71	2169.78
582.06	2166.69
582.42	2162.87
582.77	2158.60
583.12	2154.79
583.47	2151.18
583.82	2147.74
584.17	2143.40
584.53	2138.80
584.88	2135.19
585.23	2130.52
585.58	2126.35
585.93	2122.75
586.28	2119.13
586.63	2115.38
586.98	2111.07
587.34	2107.18
587.69	2103.25
588.04	2099.31
588.39	2095.15
588.74	2089.73
589.09	2083.82
589.44	2078.59
589.79	2073.83
590.14	2069.73
590.49	2065.03
590.84	2059.50
591.19	2053.92
591.54	2048.37
591.89	2041.90
592.25	2035.83
592.60	2029.61
592.95	2023.44
593.30	2016.64
593.65	2010.36
594.00	2003.73
594.35	1997.84
594.70	1990.69
595.05	1984.75
595.40	1977.68
595.75	1970.77
596.10	1964.82
596.45	1959.60
596.80	1954.38
597.15	1948.37
597.50	1941.79
597.85	1935.97
598.19	1930.09
598.54	1924.60
598.89	1918.67
599.24	1913.96
599.59	1907.82
599.94	1902.41
600.29	1896.61
600.64	1890.76
600.99	1883.90
601.34	1877.81
601.69	1871.62
602.04	1866.34
602.39	1859.87
602.74	1854.85
603.08	1849.57
603.43	1843.88
603.78	1837.25
604.13	1830.46
604.48	1824.18
604.83	1817.40
605.18	1810.66
605.53	1803.29
605.87	1795.49
606.22	1789.02
606.57	1781.39
606.92	1774.79
607.27	1768.50
607.62	1761.86
607.96	1755.20
608.31	1749.13
608.66	1742.01
609.01	1734.30
609.36	1726.03
609.70	1717.71
610.05	1709.13
610.40	1701.30
610.75	1693.39
611.10	1685.37
611.44	1676.70
611.79	1669.02
612.14	1661.47
612.49	1652.95
612.83	1645.20
613.18	1637.72
613.53	1629.70
613.88	1621.45
614.22	1613.15
614.57	1604.24
614.92	1595.48
615.27	1587.69
615.61	1579.27
615.96	1571.31
616.31	1563.92
616.65	1557.45
617.00	1550.39
617.35	1543.16
617.70	1535.15
618.04	1526.73
618.39	1519.36
618.74	1512.30
619.08	1503.97
619.43	1496.49
619.78	1489.40
620.12	1482.18
620.47	1474.46
620.82	1466.59
621.16	1459.44
621.51	1452.24
621.85	1444.80
622.20	1437.22
622.55	1429.78
622.89	1422.90
623.24	1415.95
623.59	1408.20
623.93	1400.49
624.28	1393.45
624.62	1385.78
624.97	1378.85
625.32	1372.18
625.66	1365.15
626.01	1357.88
626.35	1350.86
626.70	1343.48
627.04	1336.39
627.39	1328.60
627.73	1321.25
628.08	1314.28
628.43	1306.88
628.77	1299.55
629.12	1291.80
629.46	1284.68
629.81	1276.51
630.15	1268.50
630.50	1260.61
630.84	1252.97
631.19	1245.04
631.53	1237.33
631.88	1229.50
632.22	1221.33
632.57	1214.06
632.91	1206.23
633.26	1198.71
633.60	1190.84
633.95	1183.10
634.29	1175.75
634.64	1168.83
634.98	1161.40
635.32	1154.33
635.67	1147.70
636.01	1140.62
636.36	1133.90
636.70	1127.28
637.05	1120.78
637.39	1114.53
637.73	1108.06
638.08	1102.38
638.42	1096.43
638.77	1090.33
639.11	1084.00
639.45	1077.76
639.80	1071.04
640.14	1064.84
640.49	1058.62
640.83	1052.57
641.17	1046.32
641.52	1039.93
641.86	1033.36
642.20	1027.14
642.55	1020.45
642.89	1013.92
643.23	1007.26
643.58	1001.36
643.92	994.97
644.26	988.89
644.61	982.69
644.95	976.46
645.29	969.35
645.64	962.50
645.98	955.91
646.32	949.95
646.66	943.59
647.01	937.13
647.35	930.87
647.69	924.61
648.04	918.77
648.38	912.58
648.72	906.19
649.06	900.11
649.41	894.13
649.75	887.86
650.09	881.94
650.43	876.18
650.78	869.89
651.12	863.79
651.46	857.78
651.80	851.65
652.14	845.81
652.49	840.16
652.83	834.59
653.17	828.47
653.51	822.36
653.85	816.84
654.20	811.18
654.54	805.36
654.88	799.51
655.22	793.40
655.56	787.35
655.90	782.00
656.25	776.46
656.59	770.76
656.93	765.71
657.27	759.91
657.61	754.05
657.95	748.71
658.29	743.41
658.64	738.12
658.98	732.81
659.32	727.09
659.66	721.81
660.00	716.51
660.34	711.70
660.68	706.80
661.02	701.64
661.36	696.66
661.70	691.62
662.05	686.88
662.39	682.38
662.73	678.01
663.07	673.31
663.41	668.74
663.75	664.21
664.09	659.55
664.43	655.22
664.77	650.95
665.11	646.70
665.45	642.29
665.79	637.94
666.13	633.66
666.47	629.51
666.81	624.94
667.15	620.62
667.49	616.44
667.83	612.37
668.17	608.19
668.51	604.11
668.85	600.04
669.19	596.19
669.53	592.46
669.87	588.54
670.21	584.75
670.55	581.07
670.89	577.47
671.23	573.85
671.57	570.20
671.91	566.68
672.25	563.11
672.58	559.65
672.92	556.05
673.26	552.55
673.60	549.40
673.94	546.25
674.28	543.32
674.62	540.17
674.96	537.03
675.30	533.90
675.64	530.79
675.97	528.03
676.31	524.94
676.65	521.78
676.99	518.96
677.33	515.86
677.67	512.93
678.01	509.84
678.34	506.75
678.68	503.76
679.02	500.88
679.36	497.99
679.70	495.20
680.04	492.33
680.37	489.42
680.71	486.40
681.05	483.97
681.39	481.20
681.73	478.56
682.06	476.03
682.40	473.40
682.74	470.91
683.08	468.22
683.42	465.76
683.75	463.11
684.09	460.39
684.43	457.82
684.77	455.19
685.10	452.79
685.44	450.38
685.78	448.07
686.12	445.61
686.45	443.22
686.79	440.76
687.13	438.51
687.46	436.13
687.80	433.94
688.14	431.34
688.48	429.00
688.81	426.56
689.15	424.18
689.49	422.14
689.82	419.88
690.16	417.68
690.50	415.38
690.83	413.28
691.17	411.04
691.51	408.89
691.84	406.69
692.18	404.42
692.52	402.40
692.85	400.24
693.19	398.36
693.52	396.37
693.86	394.28
694.20	392.35
694.53	390.50
694.87	388.40
695.21	386.41
695.54	384.50
695.88	382.60
696.21	380.80
696.55	378.78
696.88	376.90
697.22	375.14
697.56	373.30
697.89	371.49
698.23	369.82
698.56	368.23
698.90	366.60
699.23	364.92
699.57	363.22
699.90	361.56
700.24	359.76
700.58	358.11
700.91	356.70
701.25	355.14
701.58	353.66
701.92	352.31
702.25	350.99
702.59	349.48
702.92	348.10
703.26	346.57
703.59	345.30
703.93	344.22
704.26	342.80
704.60	341.46
704.93	340.17
705.26	338.78
705.60	337.42
705.93	336.20
706.27	335.11
706.60	333.96
706.94	332.81
707.27	331.66
707.61	330.34
707.94	329.06
708.27	327.70
708.61	326.50
708.94	325.39
709.28	324.22
709.61	323.03
709.94	321.90
710.28	320.88
710.61	319.78
710.95	318.39
711.28	317.40
711.61	316.38
711.95	315.35
712.28	314.28
712.61	313.13
712.95	312.03
713.28	311.06
713.61	310.03
713.95	309.00
714.28	307.96
714.61	307.20
714.95	306.37
715.28	305.48
715.61	304.43
715.95	303.51
716.28	302.57
716.61	301.81
716.95	300.99
717.28	300.13
717.61	299.29
717.94	298.51
718.28	297.57
718.61	296.68
718.94	295.86
719.27	295.13
719.61	294.63
719.94	293.75
720.27	292.94
720.60	292.15
720.94	291.39
721.27	290.79
721.60	290.00
721.93	289.26
722.27	288.66
722.60	288.12
722.93	287.48
723.26	286.90
723.59	286.15
723.93	285.46
724.26	284.92
724.59	284.25
724.92	283.71
725.25	283.10
725.59	282.57
725.92	282.00
726.25	281.35
726.58	280.67
726.91	280.29
727.24	279.70
727.57	279.19
727.91	278.67
728.24	278.07
728.57	277.51
728.90	276.95
729.23	276.42
729.56	275.87
729.89	275.30
730.22	274.73
730.55	274.32
730.89	273.82
731.22	273.14
731.55	272.60
731.88	272.04
732.21	271.64
732.54	271.19
732.87	270.55
733.20	270.20
733.53	269.74
733.86	269.30
734.19	268.81
734.52	268.30
734.85	267.90
735.18	267.44
735.51	267.01
735.84	266.63
736.17	266.18
736.50	265.58
736.83	265.43
737.16	265.05
737.49	264.55
737.82	264.09
738.15	263.78
738.48	263.39
738.81	263.08
739.14	262.57
739.47	262.11
739.80	261.76
740.13	261.32
740.46	260.91
740.79	260.49
741.12	260.14
741.45	259.71
741.78	259.19
742.11	258.86
742.44	258.51
742.77	258.11
743.10	257.77
743.43	257.53
743.75	256.96
744.08	256.88
744.41	256.50
744.74	256.16
745.07	255.81
745.40	255.58
745.73	255.27
746.06	254.95
746.39	254.66
746.71	254.36
747.04	254.00
747.37	253.80
747.70	253.53
748.03	253.20
748.36	253.02
748.68	252.74
749.01	252.37
749.34	252.06
749.67	251.79
750.00	251.62
750.33	251.48
750.65	251.24
750.98	250.68
751.31	250.40
751.64	250.21
751.97	250.10
752.29	249.71
752.62	249.30
752.95	249.12
753.28	248.76
753.60	248.57
753.93	248.40
754.26	248.12
754.59	247.80
754.91	247.55
755.24	247.31
755.57	247.15
755.90	246.97
756.22	246.84
756.55	246.60
756.88	246.32
757.20	246.05
757.53	245.70
757.86	245.55
758.19	245.50
758.51	245.30
758.84	245.05
759.17	244.91
759.49	244.80
759.82	244.62
760.15	244.60
760.47	244.41
760.80	244.19
761.13	243.96
761.45	243.82
761.78	243.67
762.11	243.58
762.43	243.49
762.76	243.40
763.08	243.17
763.41	243.12
763.74	242.96
764.06	242.72
764.39	242.63
764.71	242.40
765.04	242.17
765.37	242.18
765.69	241.90
766.02	241.76
766.34	241.66
766.67	241.55
767.00	241.46
767.32	241.45
767.65	241.46
767.97	241.39
768.30	241.33
768.62	241.32
768.95	241.16
769.27	241.05
769.60	240.85
769.92	240.76
770.25	240.50
770.57	240.36
770.90	240.21
771.22	240.01
771.55	240.01
771.87	239.97
772.20	239.68
772.52	239.90
772.85	239.98
773.17	239.84
773.50	239.74
773.82	239.62
774.15	239.40
774.47	239.17
774.80	239.07
775.12	238.89
775.45	238.69
775.77	238.56
776.09	238.37
776.42	238.30
776.74	238.17
777.07	238.00
777.39	237.88
777.72	237.81
778.04	237.79
778.36	237.64
778.69	237.56
779.01	237.52
779.33	237.16
779.66	236.82
779.98	236.74
780.31	236.62
780.63	236.54
780.95	236.49
781.28	236.43
781.60	236.26
781.92	236.13
782.25	236.07
782.57	235.91
782.89	235.78
783.22	235.72
783.54	235.62
783.86	235.54
784.19	235.46
784.51	235.53
784.83	235.44
785.16	235.33
785.48	235.17
785.80	235.02
786.12	234.93
786.45	234.94
786.77	234.91
787.09	234.73
787.42	234.60
787.74	234.45
788.06	234.29
788.38	234.18
788.71	234.10
789.03	234.06
789.35	234.09
789.67	234.02
789.99	233.87
790.32	233.79
790.64	233.81
790.96	233.85
791.28	233.60
791.61	233.51
791.93	233.49
792.25	233.34
792.57	233.40
792.89	233.28
793.21	233.10
793.54	232.91
793.86	232.87
794.18	232.79
794.50	232.65
794.82	232.72
795.14	232.73
795.47	232.77
795.79	232.60
796.11	232.47
796.43	232.45
796.75	232.46
797.07	232.42
797.39	232.40
797.71	232.28
798.04	232.27
798.36	232.24
798.68	232.25
799.00	232.29
799.32	232.20
799.64	232.16
799.96	232.09
800.28	232.21
800.60	232.16
800.92	232.15
801.24	232.22
801.56	232.08
801.89	232.10
802.21	232.05
802.53	232.09
802.85	232.14
803.17	232.25
803.49	232.27
803.81	232.23
804.13	232.22
804.45	232.20
804.77	232.24
805.09	232.30
805.41	232.12
805.73	232.11
806.05	232.10
806.37	232.13
806.69	232.24
807.01	232.16
807.33	232.20
807.65	232.16
807.97	232.27
808.28	232.34
808.60	232.29
808.92	232.20
809.24	232.30
809.56	232.20
809.88	232.07
810.20	231.99
810.52	232.01
810.84	231.90
811.16	231.83
811.48	231.90
811.80	231.87
812.12	231.93
812.43	231.97
812.75	231.85
813.07	231.87
813.39	231.91
813.71	231.82
814.03	231.83
814.35	231.80
814.67	231.62
814.98	231.55
815.30	231.54
815.62	231.55
815.94	231.37
816.26	231.52
816.58	231.45
816.89	231.44
817.21	231.47
817.53	231.43
817.85	231.38
818.17	231.22
818.48	231.12
818.80	231.11
819.12	230.97
819.44	231.03
819.76	230.96
820.07	230.80
820.39	230.82
820.71	230.77
821.03	230.70
821.34	230.79
821.66	230.65
821.98	230.60
822.30	230.52
822.61	230.55
822.93	230.38
823.25	230.32
823.57	230.21
823.88	230.07
824.20	230.08
824.52	230.10
824.83	230.08
825.15	230.03
825.47	229.86
825.79	229.93
826.10	229.86
826.42	229.74
826.74	229.75
827.05	229.69
827.37	229.66
827.69	229.73
828.00	229.62
828.32	229.65
828.64	229.59
828.95	229.82
829.27	229.85
829.58	229.84
829.90	229.95
830.22	230.00
830.53	229.95
830.85	229.87
831.17	229.89
831.48	229.88
831.80	229.85
832.11	229.94
832.43	229.80
832.75	229.67
833.06	229.80
833.38	229.71
833.69	229.62
834.01	229.59
834.32	229.52
834.64	229.50
834.96	229.54
835.27	229.50
835.59	229.37
835.90	229.39
836.22	229.37
836.53	229.22
836.85	229.24
837.16	229.49
837.48	229.50
837.79	229.49
838.11	229.54
838.42	229.44
838.74	229.42
839.05	229.56
839.37	229.77
839.68	229.69
840.00	229.80
840.31	229.89
840.63	229.92
840.94	229.85
841.26	229.75
841.57	229.76
841.88	229.85
842.20	229.77
842.51	229.79
842.83	229.89
843.14	230.20
843.46	230.21
843.77	230.09
844.08	230.12
844.40	230.06
844.71	230.01
845.03	230.19
845.34	230.24
845.65	230.15
845.97	230.13
846.28	230.18
846.60	230.16
846.91	230.17
847.22	230.18
847.54	230.29
847.85	230.38
848.16	230.40
848.48	230.46
848.79	230.56
849.10	230.51
849.42	230.46
849.73	230.23
850.04	230.17
850.36	230.15
850.67	230.26
850.98	230.21
851.30	230.13
851.61	230.08
851.92	230.03
852.23	230.10
852.55	230.07
852.86	230.09
853.17	230.13
853.49	230.17
853.80	230.20
854.11	230.13
854.42	230.21
854.74	230.20
855.05	230.15
855.36	230.00
855.67	229.96
855.99	229.94
856.30	230.09
856.61	230.12
856.92	230.07
857.23	230.00
857.55	230.13
857.86	230.15
858.17	230.11
858.48	230.11
858.79	230.07
859.11	229.98
859.42	229.78
859.73	229.69
860.04	229.74
860.35	229.61
860.66	229.58
860.98	229.52
861.29	229.50
861.60	229.49
861.91	229.54
862.22	229.53
862.53	229.42
862.84	229.20
863.16	229.20
863.47	229.17
863.78	229.17
864.09	229.15
864.40	229.09
864.71	229.05
865.02	229.04
865.33	229.03
865.64	229.10
865.95	229.18
866.27	229.25
866.58	229.21
866.89	229.14
867.20	229.08
867.51	229.03
867.82	228.99
868.13	228.98
868.44	228.90
868.75	228.85
869.06	228.93
869.37	228.91
869.68	228.90
869.99	228.90
870.30	228.88
870.61	228.84
870.92	228.83
871.23	228.80
871.54	228.75
871.85	228.74
872.16	228.67
872.47	228.64
872.78	228.62
873.09	228.54
873.40	228.61
873.71	228.64
874.02	228.67
874.33	228.67
874.64	228.66
874.95	228.66
875.26	228.62
875.56	228.57
875.87	228.60
876.18	228.53
876.49	228.75
876.80	228.67
877.11	228.70
877.42	228.73
877.73	228.65
878.04	228.66
878.35	228.68
878.66	228.62
878.96	228.66
879.27	228.65
879.58	228.68
879.89	228.57
880.20	228.60
880.51	228.51
880.82	228.47
881.12	228.43
881.43	228.39
881.74	228.39
882.05	228.42
882.36	228.39
882.67	228.43
882.97	228.17
883.28	228.18
883.59	227.96
883.90	228.06
884.21	228.18
884.51	228.19
884.82	228.19
885.13	228.29
885.44	228.31
885.74	228.26
886.05	228.26
886.36	228.30
886.67	228.28
886.98	228.43
887.28	228.45
887.59	228.48
887.90	228.49
888.20	228.53
888.51	228.60
888.82	228.69
889.13	228.67
889.43	228.87
889.74	228.95
890.05	229.11
890.35	229.04
890.66	229.04
890.97	229.06
891.28	229.03
891.58	228.95
891.89	228.93
892.20	228.89
892.50	228.85
892.81	228.90
893.12	228.97
893.42	228.93
893.73	229.02
894.04	228.98
894.34	229.01
894.65	229.01
894.95	228.92
895.26	228.89
895.57	228.90
895.87	228.77
896.18	228.77
896.48	228.76
896.79	228.82
897.10	228.87
897.40	228.83
897.71	228.82
898.01	228.94
898.32	228.95
898.63	229.01
898.93	229.08
899.24	229.15
899.54	229.15
899.85	229.08
900.15	229.01
900.46	229.02
900.76	229.05
901.07	229.03
901.38	229.04
901.68	228.97
901.99	228.98
902.29	229.02
902.60	228.99
902.90	228.98
903.21	228.90
903.51	228.86
903.82	228.90
904.12	228.95
904.43	228.81
904.73	228.80
905.03	228.75
905.34	228.74
905.64	228.69
905.95	228.57
906.25	228.65
906.56	228.60
906.86	228.57
907.17	228.52
907.47	228.55
907.77	228.40
908.08	228.43
908.38	228.29
908.69	228.16
908.99	228.17
909.30	228.15
909.60	228.09
909.90	228.12
910.21	228.05
910.51	227.94
910.81	227.98
911.12	227.86
911.42	227.88
911.73	227.78
912.03	227.64
912.33	227.64
912.64	227.56
912.94	227.57
913.24	227.55
913.55	227.55
913.85	227.55
914.15	227.73
914.46	227.71
914.76	227.74
915.06	227.84
915.37	227.86
915.67	227.84
915.97	227.93
916.27	227.86
916.58	227.92
916.88	227.86
917.18	227.88
917.49	228.16
917.79	228.15
918.09	228.25
918.39	228.36
918.70	228.39
919.00	228.37
919.30	228.47
919.60	228.48
919.91	228.35
920.21	228.37
920.51	228.31
920.81	228.31
921.12	228.43
921.42	228.39
921.72	228.36
922.02	228.33
922.32	228.31
922.63	228.26
922.93	228.35
923.23	228.42
923.53	228.29
923.83	228.10
924.13	228.12
924.44	228.07
924.74	228.22
925.04	228.27
925.34	228.30
925.64	228.15
925.94	228.20
926.24	228.32
926.55	228.27
926.85	228.30
927.15	228.27
927.45	228.16
927.75	228.16
928.05	228.15
928.35	228.20
928.65	228.25
928.95	228.35
929.26	228.25
929.56	228.29
929.86	228.50
930.16	228.51
930.46	228.53
930.76	228.50
931.06	228.28
931.36	228.22
931.66	228.27
931.96	228.46
932.26	228.49
932.56	228.54
932.86	228.50
933.16	228.53
933.46	228.56
933.76	228.63
934.06	228.78
934.36	228.88
934.66	228.89
934.96	228.86
935.26	228.79
935.56	228.76
935.86	228.73
936.16	228.58
936.46	228.60
936.76	228.51
937.06	228.48
937.36	228.50
937.66	228.55
937.96	228.57
938.26	228.50
938.56	228.51
938.86	228.45
939.16	228.53
939.46	228.50
939.76	228.45
940.06	228.41
940.35	228.36
940.65	228.27
940.95	228.34
941.25	228.36
941.55	228.35
941.85	228.41
942.15	228.41
942.45	228.56
942.75	228.51
943.04	228.51
943.34	228.66
943.64	228.76
943.94	228.70
944.24	228.62
944.54	228.59
944.84	228.48
945.13	228.48
945.43	228.48
945.73	228.53
946.03	228.52
946.33	228.53
946.62	228.41
946.92	228.35
947.22	228.24
947.52	228.25
947.82	228.26
948.11	228.18
948.41	228.11
948.71	227.93
949.01	227.97
949.31	227.95
949.60	227.89
949.90	227.85
950.20	227.81
950.50	227.86
950.79	227.84
951.09	227.92
951.39	227.90
951.69	227.88
951.98	227.86
952.28	227.81
952.58	227.86
952.87	227.82
953.17	227.77
953.47	227.70
953.76	227.59
954.06	227.66
954.36	227.71
954.66	227.69
954.95	227.81
955.25	227.80
955.55	227.93
955.84	227.87
956.14	227.88
956.44	227.91
956.73	227.83
957.03	227.88
957.32	227.81
957.62	227.84
957.92	227.82
958.21	227.82
958.51	228.15
958.81	228.08
959.10	228.11
959.40	228.19
959.69	228.31
959.99	228.40
960.29	228.32
960.58	228.36
960.88	228.51
961.17	228.50
961.47	228.55
961.76	228.50
962.06	228.51
962.36	228.48
962.65	228.55
962.95	228.58
963.24	228.46
963.54	228.52
963.83	228.58
964.13	228.55
964.42	228.49
964.72	228.38
965.01	228.38
965.31	228.36
965.60	228.37
965.90	228.47
966.19	228.38
966.49	228.43
966.78	228.34
967.08	228.42
967.37	228.43
967.67	228.35
967.96	228.28
968.26	228.35
968.55	228.37
968.85	228.36
969.14	228.30
969.43	228.40
969.73	228.37
970.02	228.26
970.32	228.30
970.61	228.39
970.91	228.28
971.20	228.29
971.49	228.38
971.79	228.38
972.08	228.22
972.38	228.31
972.67	228.30
972.96	228.40
973.26	228.22
973.55	228.24
973.85	228.23
974.14	228.27
974.43	228.21
974.73	228.27
975.02	228.21
975.31	228.32
975.61	228.28
975.90	228.32
976.19	228.35
976.49	228.32
976.78	228.27
977.07	228.35
977.37	228.30
977.66	228.28
977.95	228.31
978.24	228.34
978.54	228.33
978.83	228.31
979.12	228.25
979.42	228.34
979.71	228.37
980.00	228.39
980.29	228.46
980.59	228.48
980.88	228.44
981.17	228.43
981.46	228.42
981.76	228.50
982.05	228.49
982.34	228.45
982.63	228.48
982.93	228.51
983.22	228.54
983.51	228.66
983.80	228.67
984.09	228.66
984.39	228.63
984.68	228.63
984.97	228.64
985.26	228.64
985.55	228.68
985.85	228.63
986.14	228.71
986.43	228.79
986.72	228.78
987.01	228.81
987.30	228.83
987.59	228.83
987.89	228.75
988.18	228.75
988.47	228.86
988.76	228.90
989.05	228.83
989.34	228.68
989.63	228.70
989.92	228.66
990.22	228.62
990.51	228.62
990.80	228.65
991.09	228.67
991.38	228.73
991.67	228.63
991.96	228.64
992.25	228.58
992.54	228.46
992.83	228.40
993.12	228.41
993.41	228.45
993.70	228.55
993.99	228.56
994.28	228.56
994.58	228.53
994.87	228.50
995.16	228.44
995.45	228.52
995.74	228.45
996.03	228.48
996.32	228.55
996.61	228.58
996.90	228.53
997.19	228.54
997.48	228.50
997.77	228.47
998.06	228.40
998.34	228.41
998.63	228.49
998.92	228.57
999.21	228.54
999.50	228.47
999.79	228.33
1000.08	228.38
1000.37	228.34
1000.66	228.25
1000.95	228.31
1001.24	228.34
1001.53	228.35
1001.82	228.34
1002.11	228.30
1002.40	228.28
1002.68	228.32
1002.97	228.48
1003.26	228.52
1003.55	228.55
1003.84	228.59
1004.13	228.62
1004.42	228.65
1004.71	228.56
1004.99	228.45
1005.28	228.47
1005.57	228.51
1005.86	228.51
1006.15	228.53
1006.44	228.57
1006.72	228.67
1007.01	228.59
1007.30	228.67
1007.59	228.68
1007.88	228.70
1008.17	228.72
1008.45	228.77
1008.74	228.70
1009.03	228.67
1009.32	228.63
1009.60	228.59
1009.89	228.51
1010.18	228.51
1010.47	228.56
1010.76	228.55
1011.04	228.70
1011.33	228.74
1011.62	228.85
1011.91	228.89
1012.19	228.88
1012.48	228.85
1012.77	228.82
1013.05	228.84
1013.34	228.88
1013.63	228.84
1013.92	228.83
1014.20	228.81
1014.49	228.76
1014.78	228.83
1015.06	228.70
1015.35	228.78
1015.64	228.82
1015.92	228.90
1016.21	228.89
1016.50	228.80
1016.78	228.86
1017.07	228.82
1017.36	228.73
1017.64	228.70
1017.93	228.71
1018.22	228.72
1018.50	228.73
1018.79	228.76
1019.08	228.79
1019.36	228.76
1019.65	228.79
1019.93	228.89
1020.22	228.88
1020.51	228.92
1020.79	228.89
1021.08	229.20
1021.36	228.30
1021.65	229.00
1021.94	229.40
1022.22	228.90
1022.51	229.00
1022.79	230.70
1023.08	227.30
1023.36	229.80
1023.65	227.90
>>>>>End Processed Spectral Data<<<<<
