SpectraSuite Data File
++++++++++++++++++++++++++++++++++++
Date: Fri Feb 01 14:33:56 EST 2013
User: group
Dark Spectrum Present: No
Reference Spectrum Present: No
Number of Sampled Component Spectra: 1
Spectrometers: USB2E7196
Integration Time (usec): 70000 (USB2E7196)
Spectra Averaged: 10 (USB2E7196)
Boxcar Smoothing: 10 (USB2E7196)
Correct for Electrical Dark: No (USB2E7196)
Strobe/Lamp Enabled: No (USB2E7196)
Correct for Detector Non-linearity: No (USB2E7196)
Correct for Stray Light: No (USB2E7196)
Number of Pixels in Processed Spectrum: 2048
>>>>>Begin Processed Spectral Data<<<<<
339.09	0.00
339.48	216.40
339.86	218.70
340.24	219.60
340.63	221.30
341.01	223.90
341.39	223.70
341.78	224.40
342.16	224.70
342.54	226.80
342.93	214.97
343.31	225.88
343.69	226.44
344.07	226.96
344.46	227.37
344.84	227.76
345.22	228.02
345.60	228.22
345.99	228.44
346.37	228.66
346.75	228.67
347.13	228.70
347.52	228.77
347.90	228.90
348.28	229.03
348.66	229.25
349.05	229.20
349.43	229.25
349.81	229.20
350.19	229.23
350.57	229.23
350.96	229.35
351.34	229.41
351.72	229.47
352.10	229.47
352.48	229.53
352.87	229.55
353.25	229.54
353.63	229.62
354.01	229.76
354.39	229.79
354.77	229.93
355.15	230.11
355.54	230.12
355.92	230.10
356.30	230.19
356.68	230.35
357.06	230.31
357.44	230.24
357.82	230.40
358.20	230.53
358.58	230.60
358.97	230.67
359.35	230.61
359.73	230.70
360.11	230.78
360.49	230.85
360.87	230.90
361.25	230.95
361.63	231.07
362.01	231.03
362.39	231.11
362.77	231.13
363.15	231.14
363.53	231.23
363.91	231.26
364.29	231.20
364.67	231.08
365.05	231.11
365.43	231.20
365.81	231.21
366.19	231.20
366.57	231.18
366.95	231.14
367.33	231.10
367.71	231.10
368.09	231.12
368.47	231.10
368.85	231.06
369.23	231.09
369.61	231.04
369.99	231.12
370.37	231.11
370.75	231.14
371.13	230.98
371.51	230.83
371.89	230.85
372.27	230.77
372.65	230.71
373.03	230.71
373.41	230.62
373.78	230.56
374.16	230.46
374.54	230.42
374.92	230.30
375.30	230.34
375.68	230.19
376.06	230.01
376.44	229.98
376.82	229.99
377.19	229.91
377.57	229.66
377.95	229.41
378.33	229.31
378.71	229.19
379.09	229.20
379.47	229.09
379.84	228.99
380.22	228.96
380.60	228.89
380.98	228.81
381.36	228.66
381.73	228.48
382.11	228.38
382.49	228.33
382.87	228.29
383.25	228.23
383.62	228.38
384.00	228.35
384.38	228.29
384.76	228.16
385.13	228.22
385.51	228.15
385.89	228.10
386.27	228.01
386.64	228.07
387.02	228.03
387.40	228.10
387.78	228.02
388.15	228.02
388.53	227.95
388.91	227.87
389.29	227.91
389.66	227.96
390.04	227.97
390.42	227.94
390.79	227.86
391.17	227.76
391.55	227.65
391.92	227.68
392.30	227.78
392.68	227.83
393.05	227.77
393.43	227.90
393.81	227.95
394.18	227.95
394.56	227.95
394.94	228.01
395.31	228.00
395.69	228.10
396.06	228.16
396.44	228.25
396.82	228.35
397.19	228.51
397.57	228.59
397.95	228.71
398.32	228.76
398.70	228.98
399.07	229.28
399.45	229.35
399.82	229.51
400.20	229.54
400.58	229.67
400.95	229.74
401.33	230.00
401.70	230.40
402.08	230.70
402.45	230.94
402.83	231.19
403.20	231.48
403.58	231.76
403.95	232.14
404.33	232.49
404.71	232.78
405.08	233.26
405.46	233.73
405.83	234.12
406.21	234.60
406.58	235.04
406.96	235.47
407.33	235.90
407.70	236.47
408.08	237.14
408.45	237.83
408.83	238.56
409.20	239.12
409.58	239.68
409.95	240.46
410.33	241.31
410.70	242.12
411.08	242.94
411.45	243.90
411.82	244.78
412.20	245.78
412.57	247.02
412.95	247.96
413.32	249.13
413.69	250.61
414.07	251.99
414.44	253.61
414.82	255.22
415.19	257.15
415.56	258.87
415.94	260.74
416.31	262.94
416.68	265.06
417.06	267.59
417.43	269.83
417.81	272.44
418.18	275.01
418.55	277.91
418.93	281.02
419.30	284.11
419.67	287.45
420.04	291.00
420.42	294.68
420.79	298.94
421.16	303.22
421.54	307.46
421.91	312.06
422.28	316.59
422.66	321.52
423.03	326.37
423.40	331.46
423.77	336.85
424.15	342.20
424.52	347.91
424.89	354.11
425.26	360.26
425.64	365.94
426.01	372.23
426.38	378.77
426.75	385.41
427.13	392.30
427.50	399.55
427.87	406.92
428.24	414.40
428.61	421.49
428.99	429.19
429.36	437.74
429.73	446.07
430.10	454.40
430.47	462.83
430.85	471.31
431.22	480.44
431.59	490.03
431.96	499.44
432.33	509.80
432.70	519.68
433.08	531.56
433.45	542.69
433.82	553.62
434.19	565.81
434.56	577.47
434.93	589.14
435.30	600.62
435.68	613.30
436.05	625.62
436.42	637.90
436.79	649.16
437.16	661.24
437.53	673.75
437.90	686.38
438.27	698.87
438.64	711.87
439.01	723.77
439.38	734.67
439.75	744.69
440.13	756.37
440.50	767.67
440.87	776.83
441.24	786.48
441.61	797.60
441.98	805.37
442.35	814.92
442.72	824.10
443.09	833.42
443.46	839.24
443.83	843.40
444.20	847.25
444.57	852.67
444.94	855.64
445.31	859.03
445.68	862.13
446.05	864.08
446.42	864.57
446.79	864.78
447.16	864.52
447.53	865.01
447.90	861.90
448.27	858.85
448.64	853.41
449.01	850.03
449.37	842.56
449.74	836.16
450.11	827.88
450.48	818.69
450.85	809.08
451.22	801.23
451.59	793.65
451.96	786.65
452.33	776.33
452.70	767.28
453.07	756.23
453.43	744.68
453.80	733.67
454.17	722.60
454.54	712.38
454.91	701.39
455.28	690.75
455.65	680.75
456.02	670.10
456.38	661.65
456.75	650.68
457.12	641.80
457.49	632.52
457.86	623.75
458.23	616.20
458.59	607.85
458.96	599.27
459.33	591.85
459.70	584.20
460.07	578.13
460.43	571.10
460.80	564.17
461.17	558.48
461.54	552.29
461.91	546.48
462.27	540.43
462.64	535.28
463.01	529.61
463.38	523.98
463.74	518.63
464.11	513.67
464.48	509.60
464.85	504.76
465.21	501.12
465.58	497.18
465.95	492.61
466.32	488.46
466.68	484.65
467.05	480.81
467.42	476.93
467.78	473.07
468.15	469.08
468.52	466.26
468.88	462.56
469.25	459.26
469.62	456.71
469.98	453.89
470.35	451.28
470.72	448.51
471.08	445.85
471.45	443.58
471.82	441.14
472.18	438.33
472.55	436.51
472.92	434.47
473.28	432.49
473.65	430.67
474.02	428.85
474.38	427.17
474.75	425.74
475.11	424.24
475.48	423.04
475.85	422.10
476.21	420.90
476.58	420.00
476.94	419.24
477.31	418.23
477.67	417.34
478.04	416.56
478.41	416.20
478.77	415.80
479.14	415.18
479.50	415.06
479.87	414.98
480.23	414.85
480.60	414.72
480.96	414.70
481.33	414.78
481.69	415.07
482.06	415.39
482.42	415.48
482.79	415.68
483.15	416.31
483.52	416.99
483.88	417.80
484.25	418.45
484.61	419.26
484.98	420.23
485.34	421.52
485.71	422.82
486.07	424.04
486.44	425.37
486.80	427.20
487.17	428.84
487.53	430.76
487.90	432.78
488.26	434.68
488.62	436.56
488.99	438.80
489.35	441.08
489.72	443.48
490.08	446.13
490.44	448.86
490.81	451.52
491.17	454.31
491.54	457.25
491.90	460.45
492.26	463.81
492.63	467.29
492.99	470.63
493.36	474.15
493.72	478.00
494.08	481.68
494.45	485.51
494.81	489.55
495.17	493.61
495.54	497.67
495.90	502.07
496.26	506.64
496.63	511.14
496.99	515.84
497.35	520.73
497.72	525.58
498.08	530.46
498.44	535.69
498.80	541.07
499.17	546.30
499.53	551.46
499.89	556.95
500.26	562.17
500.62	567.54
500.98	573.27
501.34	578.78
501.71	584.83
502.07	590.39
502.43	596.07
502.79	601.81
503.16	607.81
503.52	613.77
503.88	619.68
504.24	625.54
504.60	631.54
504.97	637.39
505.33	643.48
505.69	649.92
506.05	655.75
506.41	661.32
506.78	667.21
507.14	673.10
507.50	678.87
507.86	684.85
508.22	690.86
508.59	696.44
508.95	702.26
509.31	707.94
509.67	713.76
510.03	719.45
510.39	725.19
510.75	730.90
511.12	736.43
511.48	741.93
511.84	747.37
512.20	752.68
512.56	758.20
512.92	763.63
513.28	768.57
513.64	773.69
514.00	778.78
514.37	783.83
514.73	788.90
515.09	793.79
515.45	798.31
515.81	802.93
516.17	807.72
516.53	812.43
516.89	816.70
517.25	821.07
517.61	825.14
517.97	829.19
518.33	833.04
518.69	836.94
519.05	841.08
519.41	844.93
519.77	849.17
520.13	852.89
520.49	856.48
520.85	860.09
521.21	863.60
521.57	867.39
521.93	870.50
522.29	873.92
522.65	877.04
523.01	880.25
523.37	883.12
523.73	886.11
524.09	889.03
524.45	892.08
524.81	895.05
525.17	898.27
525.53	901.23
525.89	904.23
526.25	907.06
526.61	909.62
526.97	912.49
527.33	914.84
527.68	917.57
528.04	920.32
528.40	922.94
528.76	925.90
529.12	928.69
529.48	931.81
529.84	934.29
530.20	937.10
530.56	940.51
530.91	943.96
531.27	946.59
531.63	949.35
531.99	952.19
532.35	954.72
532.71	957.13
533.07	960.19
533.42	962.75
533.78	965.40
534.14	968.01
534.50	970.51
534.86	973.20
535.21	975.24
535.57	977.83
535.93	980.29
536.29	982.52
536.65	984.75
537.00	986.98
537.36	989.50
537.72	991.98
538.08	993.93
538.44	996.10
538.79	998.82
539.15	1000.86
539.51	1003.25
539.87	1006.17
540.22	1008.88
540.58	1011.31
540.94	1013.82
541.29	1016.01
541.65	1018.60
542.01	1021.30
542.37	1023.86
542.72	1026.53
543.08	1028.64
543.44	1031.29
543.79	1033.40
544.15	1036.02
544.51	1039.12
544.87	1041.85
545.22	1044.34
545.58	1046.38
545.94	1048.01
546.29	1049.94
546.65	1052.22
547.01	1054.28
547.36	1055.82
547.72	1057.77
548.07	1059.62
548.43	1061.40
548.79	1063.50
549.14	1065.02
549.50	1066.38
549.86	1067.95
550.21	1069.44
550.57	1071.60
550.92	1073.18
551.28	1074.81
551.64	1076.19
551.99	1077.26
552.35	1078.60
552.70	1080.20
553.06	1082.37
553.41	1084.33
553.77	1086.18
554.13	1087.97
554.48	1089.87
554.84	1091.63
555.19	1093.17
555.55	1094.53
555.90	1095.89
556.26	1097.45
556.61	1099.14
556.97	1100.66
557.32	1102.37
557.68	1104.16
558.03	1105.23
558.39	1106.64
558.74	1108.62
559.10	1110.29
559.45	1111.68
559.81	1113.60
560.16	1114.93
560.52	1116.07
560.87	1117.70
561.23	1119.02
561.58	1120.83
561.94	1122.03
562.29	1123.38
562.64	1124.56
563.00	1126.05
563.35	1127.85
563.71	1129.59
564.06	1130.97
564.42	1132.44
564.77	1133.98
565.12	1135.49
565.48	1137.03
565.83	1138.12
566.19	1139.14
566.54	1140.22
566.89	1141.30
567.25	1142.12
567.60	1143.00
567.96	1144.07
568.31	1144.95
568.66	1145.61
569.02	1145.87
569.37	1146.42
569.72	1147.05
570.08	1147.56
570.43	1147.62
570.78	1147.69
571.14	1147.24
571.49	1147.45
571.84	1148.07
572.20	1147.71
572.55	1147.62
572.90	1147.34
573.26	1147.33
573.61	1147.15
573.96	1146.85
574.31	1146.06
574.67	1144.88
575.02	1143.96
575.37	1143.15
575.72	1141.98
576.08	1141.06
576.43	1139.82
576.78	1138.84
577.13	1138.12
577.49	1137.13
577.84	1136.31
578.19	1135.10
578.54	1134.18
578.90	1133.00
579.25	1131.13
579.60	1129.62
579.95	1127.91
580.30	1126.15
580.66	1124.36
581.01	1122.63
581.36	1121.02
581.71	1119.47
582.06	1118.00
582.42	1116.28
582.77	1114.59
583.12	1112.76
583.47	1111.02
583.82	1109.64
584.17	1107.46
584.53	1105.37
584.88	1103.32
585.23	1101.30
585.58	1099.44
585.93	1097.59
586.28	1095.65
586.63	1093.99
586.98	1092.00
587.34	1090.00
587.69	1088.13
588.04	1086.43
588.39	1084.47
588.74	1081.97
589.09	1079.86
589.44	1077.38
589.79	1075.39
590.14	1073.40
590.49	1071.30
590.84	1068.92
591.19	1066.18
591.54	1063.40
591.89	1060.29
592.25	1058.01
592.60	1054.93
592.95	1051.78
593.30	1048.59
593.65	1045.45
594.00	1042.47
594.35	1040.15
594.70	1036.89
595.05	1033.93
595.40	1030.80
595.75	1027.41
596.10	1024.47
596.45	1021.96
596.80	1019.34
597.15	1016.36
597.50	1012.61
597.85	1009.75
598.19	1006.82
598.54	1004.08
598.89	1001.63
599.24	999.11
599.59	995.95
599.94	993.62
600.29	990.95
600.64	988.05
600.99	984.81
601.34	981.52
601.69	977.81
602.04	975.07
602.39	971.68
602.74	968.66
603.08	966.00
603.43	963.10
603.78	959.60
604.13	956.69
604.48	953.96
604.83	951.22
605.18	948.21
605.53	944.85
605.87	941.28
606.22	938.19
606.57	934.68
606.92	931.39
607.27	928.00
607.62	925.14
607.96	922.28
608.31	919.40
608.66	916.13
609.01	912.65
609.36	908.93
609.70	905.32
610.05	901.28
610.40	897.84
610.75	894.14
611.10	890.43
611.44	886.21
611.79	882.19
612.14	878.31
612.49	873.86
612.83	870.15
613.18	866.38
613.53	862.54
613.88	858.61
614.22	854.85
614.57	850.89
614.92	846.67
615.27	842.87
615.61	838.86
615.96	835.02
616.31	831.70
616.65	828.53
617.00	825.39
617.35	822.08
617.70	818.02
618.04	814.32
618.39	810.78
618.74	807.54
619.08	803.86
619.43	800.39
619.78	797.16
620.12	793.63
620.47	790.13
620.82	786.28
621.16	782.78
621.51	779.46
621.85	775.94
622.20	772.40
622.55	768.76
622.89	765.27
623.24	762.09
623.59	758.55
623.93	755.05
624.28	751.62
624.62	748.43
624.97	745.18
625.32	741.83
625.66	738.55
626.01	734.93
626.35	731.55
626.70	728.21
627.04	725.12
627.39	721.80
627.73	718.62
628.08	715.68
628.43	712.51
628.77	709.28
629.12	705.82
629.46	702.55
629.81	699.24
630.15	696.02
630.50	692.45
630.84	688.83
631.19	685.19
631.53	681.59
631.88	677.72
632.22	674.30
632.57	671.35
632.91	667.92
633.26	664.86
633.60	661.45
633.95	658.21
634.29	654.87
634.64	651.74
634.98	648.51
635.32	645.36
635.67	642.62
636.01	639.46
636.36	636.50
636.70	633.67
637.05	630.78
637.39	627.96
637.73	625.33
638.08	622.83
638.42	620.30
638.77	617.67
639.11	615.03
639.45	612.32
639.80	609.09
640.14	606.59
640.49	603.92
640.83	601.24
641.17	598.38
641.52	595.58
641.86	592.81
642.20	590.21
642.55	587.40
642.89	584.47
643.23	581.73
643.58	579.42
643.92	576.72
644.26	574.17
644.61	571.66
644.95	569.01
645.29	565.99
645.64	563.17
645.98	560.52
646.32	558.14
646.66	555.44
647.01	552.93
647.35	550.20
647.69	547.44
648.04	544.99
648.38	542.44
648.72	539.74
649.06	537.00
649.41	534.41
649.75	531.75
650.09	529.19
650.43	526.46
650.78	523.56
651.12	520.83
651.46	518.12
651.80	515.54
652.14	512.93
652.49	510.78
652.83	508.30
653.17	505.73
653.51	503.08
653.85	500.66
654.20	498.11
654.54	495.35
654.88	492.97
655.22	490.32
655.56	487.86
655.90	485.53
656.25	483.31
656.59	480.90
656.93	478.66
657.27	476.29
657.61	473.96
657.95	471.73
658.29	469.47
658.64	467.15
658.98	464.69
659.32	462.26
659.66	459.82
660.00	457.57
660.34	455.23
660.68	453.03
661.02	450.61
661.36	448.47
661.70	446.54
662.05	444.37
662.39	442.47
662.73	440.43
663.07	438.58
663.41	436.59
663.75	434.61
664.09	432.47
664.43	430.43
664.77	428.55
665.11	426.69
665.45	424.94
665.79	423.04
666.13	421.24
666.47	419.42
666.81	417.53
667.15	415.62
667.49	413.99
667.83	412.28
668.17	410.55
668.51	408.96
668.85	407.23
669.19	405.65
669.53	403.91
669.87	402.31
670.21	400.51
670.55	398.85
670.89	397.36
671.23	395.98
671.57	394.45
671.91	392.91
672.25	391.36
672.58	389.85
672.92	388.39
673.26	386.94
673.60	385.49
673.94	384.27
674.28	382.93
674.62	381.64
674.96	380.21
675.30	379.04
675.64	377.53
675.97	376.12
676.31	374.71
676.65	373.50
676.99	372.25
677.33	371.00
677.67	369.61
678.01	368.26
678.34	366.86
678.68	365.75
679.02	364.49
679.36	363.25
679.70	362.04
680.04	360.76
680.37	359.47
680.71	358.40
681.05	357.14
681.39	356.09
681.73	354.90
682.06	353.77
682.40	352.63
682.74	351.64
683.08	350.67
683.42	349.47
683.75	348.09
684.09	346.88
684.43	345.68
684.77	344.73
685.10	343.62
685.44	342.63
685.78	341.48
686.12	340.45
686.45	339.19
686.79	337.98
687.13	336.96
687.46	335.94
687.80	334.83
688.14	333.70
688.48	332.54
688.81	331.31
689.15	330.34
689.49	329.19
689.82	328.15
690.16	326.97
690.50	326.15
690.83	325.25
691.17	324.20
691.51	323.30
691.84	322.26
692.18	321.23
692.52	320.09
692.85	319.18
693.19	318.11
693.52	317.34
693.86	316.52
694.20	315.48
694.53	314.48
694.87	313.50
695.21	312.53
695.54	311.61
695.88	310.78
696.21	309.84
696.55	308.91
696.88	307.97
697.22	307.16
697.56	306.13
697.89	305.28
698.23	304.46
698.56	303.52
698.90	302.70
699.23	301.87
699.57	301.10
699.90	300.06
700.24	299.37
700.58	298.42
700.91	297.54
701.25	296.90
701.58	296.35
701.92	295.63
702.25	294.91
702.59	294.23
702.92	293.53
703.26	292.80
703.59	292.26
703.93	291.78
704.26	291.10
704.60	290.54
704.93	289.95
705.26	289.31
705.60	288.69
705.93	288.02
706.27	287.43
706.60	286.80
706.94	286.36
707.27	285.56
707.61	284.99
707.94	284.51
708.27	283.95
708.61	283.11
708.94	282.52
709.28	282.01
709.61	281.35
709.94	280.77
710.28	280.28
710.61	279.62
710.95	278.81
711.28	278.33
711.61	277.77
711.95	277.24
712.28	276.75
712.61	276.24
712.95	275.78
713.28	275.35
713.61	274.88
713.95	274.33
714.28	273.99
714.61	273.54
714.95	272.94
715.28	272.33
715.61	271.90
715.95	271.34
716.28	270.83
716.61	270.50
716.95	270.15
717.28	269.63
717.61	269.22
717.94	268.86
718.28	268.39
718.61	268.08
718.94	267.65
719.27	267.22
719.61	266.94
719.94	266.62
720.27	266.20
720.60	265.84
720.94	265.47
721.27	265.10
721.60	264.77
721.93	264.45
722.27	264.22
722.60	263.95
722.93	263.72
723.26	263.46
723.59	263.04
723.93	262.63
724.26	262.37
724.59	262.07
724.92	261.80
725.25	261.60
725.59	261.04
725.92	260.66
726.25	260.32
726.58	260.00
726.91	259.66
727.24	259.40
727.57	259.09
727.91	258.76
728.24	258.59
728.57	258.34
728.90	258.01
729.23	257.68
729.56	257.49
729.89	257.17
730.22	256.80
730.55	256.50
730.89	256.24
731.22	256.00
731.55	255.71
731.88	255.34
732.21	254.92
732.54	254.78
732.87	254.63
733.20	254.40
733.53	254.02
733.86	253.66
734.19	253.31
734.52	253.11
734.85	252.88
735.18	252.37
735.51	252.13
735.84	251.98
736.17	251.70
736.50	251.31
736.83	251.28
737.16	250.94
737.49	250.84
737.82	250.60
738.15	250.39
738.48	250.13
738.81	249.98
739.14	249.74
739.47	249.38
739.80	249.06
740.13	248.82
740.46	248.66
740.79	248.50
741.12	248.27
741.45	248.02
741.78	247.82
742.11	247.73
742.44	247.37
742.77	247.12
743.10	246.87
743.43	246.70
743.75	246.24
744.08	246.34
744.41	246.02
744.74	245.73
745.07	245.41
745.40	245.33
745.73	245.18
746.06	244.96
746.39	244.90
746.71	244.76
747.04	244.53
747.37	244.26
747.70	244.04
748.03	243.92
748.36	243.73
748.68	243.51
749.01	243.30
749.34	243.20
749.67	243.04
750.00	242.92
750.33	242.83
750.65	242.74
750.98	242.35
751.31	242.20
751.64	242.07
751.97	242.04
752.29	241.87
752.62	241.61
752.95	241.48
753.28	241.18
753.60	241.09
753.93	241.08
754.26	240.94
754.59	240.78
754.91	240.61
755.24	240.50
755.57	240.49
755.90	240.36
756.22	240.15
756.55	239.96
756.88	239.80
757.20	239.70
757.53	239.54
757.86	239.50
758.19	239.36
758.51	239.33
758.84	239.13
759.17	238.82
759.49	238.75
759.82	238.80
760.15	238.77
760.47	238.54
760.80	238.26
761.13	238.16
761.45	238.07
761.78	237.90
762.11	237.82
762.43	237.63
762.76	237.57
763.08	237.47
763.41	237.39
763.74	237.31
764.06	237.09
764.39	236.87
764.71	236.73
765.04	236.56
765.37	236.33
765.69	236.10
766.02	236.13
766.34	235.91
766.67	235.67
767.00	235.67
767.32	235.77
767.65	235.89
767.97	235.86
768.30	235.80
768.62	235.68
768.95	235.45
769.27	235.33
769.60	235.25
769.92	235.13
770.25	234.96
770.57	234.90
770.90	234.82
771.22	234.84
771.55	234.76
771.87	234.80
772.20	234.77
772.52	234.99
772.85	235.12
773.17	235.15
773.50	235.11
773.82	234.98
774.15	234.82
774.47	234.70
774.80	234.66
775.12	234.62
775.45	234.60
775.77	234.62
776.09	234.52
776.42	234.46
776.74	234.50
777.07	234.46
777.39	234.40
777.72	234.33
778.04	234.31
778.36	234.36
778.69	234.29
779.01	234.30
779.33	234.03
779.66	233.77
779.98	233.65
780.31	233.58
780.63	233.58
780.95	233.46
781.28	233.32
781.60	233.27
781.92	233.19
782.25	233.14
782.57	233.15
782.89	233.15
783.22	233.05
783.54	232.96
783.86	233.02
784.19	233.00
784.51	233.00
784.83	232.91
785.16	232.79
785.48	232.78
785.80	232.80
786.12	232.82
786.45	232.80
786.77	232.81
787.09	232.86
787.42	232.76
787.74	232.76
788.06	232.71
788.38	232.65
788.71	232.64
789.03	232.68
789.35	232.66
789.67	232.61
789.99	232.66
790.32	232.67
790.64	232.69
790.96	232.67
791.28	232.61
791.61	232.57
791.93	232.50
792.25	232.44
792.57	232.54
792.89	232.50
793.21	232.44
793.54	232.46
793.86	232.34
794.18	232.39
794.50	232.38
794.82	232.42
795.14	232.27
795.47	232.24
795.79	232.21
796.11	232.06
796.43	232.10
796.75	232.02
797.07	231.98
797.39	231.90
797.71	231.83
798.04	231.75
798.36	231.78
798.68	231.83
799.00	231.77
799.32	231.56
799.64	231.60
799.96	231.57
800.28	231.52
800.60	231.52
800.92	231.50
801.24	231.41
801.56	231.34
801.89	231.44
802.21	231.44
802.53	231.37
802.85	231.41
803.17	231.43
803.49	231.44
803.81	231.40
804.13	231.30
804.45	231.20
804.77	231.19
805.09	231.17
805.41	231.13
805.73	231.08
806.05	230.96
806.37	230.90
806.69	230.90
807.01	230.80
807.33	230.72
807.65	230.56
807.97	230.66
808.28	230.65
808.60	230.55
808.92	230.40
809.24	230.43
809.56	230.46
809.88	230.34
810.20	230.34
810.52	230.36
810.84	230.37
811.16	230.33
811.48	230.38
811.80	230.35
812.12	230.31
812.43	230.33
812.75	230.42
813.07	230.30
813.39	230.27
813.71	230.27
814.03	230.28
814.35	230.30
814.67	230.22
814.98	230.23
815.30	230.24
815.62	230.30
815.94	230.25
816.26	230.30
816.58	230.30
816.89	230.19
817.21	230.16
817.53	230.18
817.85	230.17
818.17	230.14
818.48	230.14
818.80	230.17
819.12	230.16
819.44	230.09
819.76	230.22
820.07	230.26
820.39	230.33
820.71	230.37
821.03	230.26
821.34	230.26
821.66	230.28
821.98	230.25
822.30	230.31
822.61	230.42
822.93	230.27
823.25	230.35
823.57	230.39
823.88	230.45
824.20	230.50
824.52	230.52
824.83	230.51
825.15	230.39
825.47	230.39
825.79	230.38
826.10	230.38
826.42	230.35
826.74	230.29
827.05	230.32
827.37	230.26
827.69	230.33
828.00	230.34
828.32	230.26
828.64	230.30
828.95	230.37
829.27	230.27
829.58	230.35
829.90	230.28
830.22	230.30
830.53	230.24
830.85	230.16
831.17	230.17
831.48	230.13
831.80	230.20
832.11	230.10
832.43	230.05
832.75	230.04
833.06	230.07
833.38	230.01
833.69	229.93
834.01	230.08
834.32	230.13
834.64	230.01
834.96	230.04
835.27	229.97
835.59	229.90
835.90	229.76
836.22	229.73
836.53	229.60
836.85	229.47
837.16	229.66
837.48	229.68
837.79	229.70
838.11	229.64
838.42	229.62
838.74	229.65
839.05	229.70
839.37	229.66
839.68	229.49
840.00	229.51
840.31	229.52
840.63	229.41
840.94	229.47
841.26	229.41
841.57	229.34
841.88	229.40
842.20	229.24
842.51	229.25
842.83	229.12
843.14	229.37
843.46	229.44
843.77	229.23
844.08	229.27
844.40	229.24
844.71	229.33
845.03	229.34
845.34	229.29
845.65	229.20
845.97	229.20
846.28	229.19
846.60	229.14
846.91	229.09
847.22	229.00
847.54	228.90
847.85	229.02
848.16	228.99
848.48	228.88
848.79	228.97
849.10	229.10
849.42	229.19
849.73	228.96
850.04	228.88
850.36	228.82
850.67	228.73
850.98	228.78
851.30	228.75
851.61	228.74
851.92	228.78
852.23	228.96
852.55	229.02
852.86	229.07
853.17	229.08
853.49	229.13
853.80	229.18
854.11	229.18
854.42	229.30
854.74	229.25
855.05	229.29
855.36	229.13
855.67	229.07
855.99	229.12
856.30	229.35
856.61	229.40
856.92	229.39
857.23	229.43
857.55	229.27
857.86	229.20
858.17	229.21
858.48	229.18
858.79	229.04
859.11	229.08
859.42	229.02
859.73	229.01
860.04	228.90
860.35	228.83
860.66	228.84
860.98	228.64
861.29	228.79
861.60	228.79
861.91	228.91
862.22	228.96
862.53	228.84
862.84	228.59
863.16	228.59
863.47	228.64
863.78	228.62
864.09	228.69
864.40	228.67
864.71	228.64
865.02	228.67
865.33	228.67
865.64	228.61
865.95	228.68
866.27	228.83
866.58	228.90
866.89	228.93
867.20	228.88
867.51	228.92
867.82	228.84
868.13	228.95
868.44	228.95
868.75	228.87
869.06	228.90
869.37	228.95
869.68	228.84
869.99	228.93
870.30	228.95
870.61	228.97
870.92	228.96
871.23	228.98
871.54	228.96
871.85	228.94
872.16	228.96
872.47	228.88
872.78	228.76
873.09	228.74
873.40	228.75
873.71	228.75
874.02	228.72
874.33	228.74
874.64	228.62
874.95	228.58
875.26	228.57
875.56	228.52
875.87	228.49
876.18	228.66
876.49	228.85
876.80	228.82
877.11	228.76
877.42	228.78
877.73	228.71
878.04	228.65
878.35	228.65
878.66	228.67
878.96	228.71
879.27	228.72
879.58	228.70
879.89	228.74
880.20	228.85
880.51	228.82
880.82	228.81
881.12	228.72
881.43	228.70
881.74	228.68
882.05	228.71
882.36	228.74
882.67	228.67
882.97	228.39
883.28	228.26
883.59	228.33
883.90	228.33
884.21	228.39
884.51	228.45
884.82	228.43
885.13	228.31
885.44	228.39
885.74	228.40
886.05	228.49
886.36	228.43
886.67	228.22
886.98	228.25
887.28	228.25
887.59	228.30
887.90	228.25
888.20	228.14
888.51	228.10
888.82	228.01
889.13	227.93
889.43	228.01
889.74	228.02
890.05	227.90
890.35	227.85
890.66	227.81
890.97	227.69
891.28	227.55
891.58	227.62
891.89	227.58
892.20	227.50
892.50	227.44
892.81	227.35
893.12	227.41
893.42	227.38
893.73	227.41
894.04	227.45
894.34	227.49
894.65	227.58
894.95	227.62
895.26	227.77
895.57	228.00
895.87	227.76
896.18	227.86
896.48	228.00
896.79	228.03
897.10	228.04
897.40	228.09
897.71	228.31
898.01	228.28
898.32	228.25
898.63	228.24
898.93	228.17
899.24	228.26
899.54	228.38
899.85	228.31
900.15	228.33
900.46	228.33
900.76	228.40
901.07	228.37
901.38	228.33
901.68	228.19
901.99	228.02
902.29	228.21
902.60	228.27
902.90	228.23
903.21	228.20
903.51	228.24
903.82	228.33
904.12	228.32
904.43	228.31
904.73	228.38
905.03	228.46
905.34	228.65
905.64	228.62
905.95	228.56
906.25	228.65
906.56	228.61
906.86	228.68
907.17	228.65
907.47	228.72
907.77	228.80
908.08	228.83
908.38	228.78
908.69	228.80
908.99	228.85
909.30	228.92
909.60	229.01
909.90	229.04
910.21	229.03
910.51	228.95
910.81	228.97
911.12	229.02
911.42	228.93
911.73	228.85
912.03	228.92
912.33	228.95
912.64	228.95
912.94	228.92
913.24	228.79
913.55	228.85
913.85	228.80
914.15	228.80
914.46	228.80
914.76	228.80
915.06	228.70
915.37	228.50
915.67	228.37
915.97	228.26
916.27	228.23
916.58	228.25
916.88	228.28
917.18	228.36
917.49	228.45
917.79	228.53
918.09	228.49
918.39	228.50
918.70	228.52
919.00	228.42
919.30	228.53
919.60	228.52
919.91	228.44
920.21	228.46
920.51	228.39
920.81	228.41
921.12	228.47
921.42	228.45
921.72	228.60
922.02	228.73
922.32	228.79
922.63	228.75
922.93	228.82
923.23	228.83
923.53	228.68
923.83	228.45
924.13	228.43
924.44	228.43
924.74	228.41
925.04	228.40
925.34	228.50
925.64	228.40
925.94	228.40
926.24	228.43
926.55	228.48
926.85	228.51
927.15	228.56
927.45	228.55
927.75	228.55
928.05	228.51
928.35	228.44
928.65	228.55
928.95	228.63
929.26	228.50
929.56	228.47
929.86	228.56
930.16	228.52
930.46	228.59
930.76	228.60
931.06	228.59
931.36	228.55
931.66	228.52
931.96	228.60
932.26	228.76
932.56	228.74
932.86	228.70
933.16	228.81
933.46	228.74
933.76	228.74
934.06	228.89
934.36	229.03
934.66	229.10
934.96	229.00
935.26	228.94
935.56	228.98
935.86	228.99
936.16	228.93
936.46	229.02
936.76	228.97
937.06	228.92
937.36	228.84
937.66	228.85
937.96	228.95
938.26	228.90
938.56	228.83
938.86	228.82
939.16	228.79
939.46	228.70
939.76	228.80
940.06	228.82
940.35	228.68
940.65	228.56
940.95	228.47
941.25	228.50
941.55	228.49
941.85	228.54
942.15	228.54
942.45	228.56
942.75	228.55
943.04	228.57
943.34	228.67
943.64	228.67
943.94	228.64
944.24	228.62
944.54	228.66
944.84	228.53
945.13	228.58
945.43	228.69
945.73	228.69
946.03	228.67
946.33	228.61
946.62	228.59
946.92	228.56
947.22	228.61
947.52	228.61
947.82	228.66
948.11	228.61
948.41	228.61
948.71	228.56
949.01	228.64
949.31	228.52
949.60	228.50
949.90	228.53
950.20	228.57
950.50	228.46
950.79	228.41
951.09	228.40
951.39	228.39
951.69	228.34
951.98	228.30
952.28	228.24
952.58	228.28
952.87	228.32
953.17	228.31
953.47	228.19
953.76	228.14
954.06	228.07
954.36	227.99
954.66	227.86
954.95	227.92
955.25	227.80
955.55	227.85
955.84	227.83
956.14	227.98
956.44	227.91
956.73	227.91
957.03	227.93
957.32	228.08
957.62	228.03
957.92	228.04
958.21	228.17
958.51	228.38
958.81	228.37
959.10	228.36
959.40	228.41
959.69	228.49
959.99	228.58
960.29	228.53
960.58	228.61
960.88	228.80
961.17	228.88
961.47	228.98
961.76	229.04
962.06	229.00
962.36	228.81
962.65	228.93
962.95	228.94
963.24	228.85
963.54	228.78
963.83	228.86
964.13	228.82
964.42	228.71
964.72	228.45
965.01	228.51
965.31	228.46
965.60	228.35
965.90	228.48
966.19	228.36
966.49	228.44
966.78	228.38
967.08	228.39
967.37	228.26
967.67	228.16
967.96	228.07
968.26	228.14
968.55	228.24
968.85	228.13
969.14	228.11
969.43	228.18
969.73	228.18
970.02	228.14
970.32	228.18
970.61	228.19
970.91	228.20
971.20	228.10
971.49	228.21
971.79	228.28
972.08	228.13
972.38	228.13
972.67	228.08
972.96	228.18
973.26	228.11
973.55	228.30
973.85	228.32
974.14	228.46
974.43	228.37
974.73	228.35
975.02	228.37
975.31	228.40
975.61	228.39
975.90	228.34
976.19	228.32
976.49	228.36
976.78	228.40
977.07	228.45
977.37	228.46
977.66	228.32
977.95	228.34
978.24	228.34
978.54	228.43
978.83	228.41
979.12	228.40
979.42	228.32
979.71	228.28
980.00	228.24
980.29	228.09
980.59	228.10
980.88	228.10
981.17	228.11
981.46	228.12
981.76	228.15
982.05	228.24
982.34	228.26
982.63	228.18
982.93	228.10
983.22	228.11
983.51	228.20
983.80	228.25
984.09	228.26
984.39	228.33
984.68	228.30
984.97	228.34
985.26	228.25
985.55	228.32
985.85	228.18
986.14	228.22
986.43	228.23
986.72	228.24
987.01	228.23
987.30	228.31
987.59	228.31
987.89	228.24
988.18	228.20
988.47	228.09
988.76	228.07
989.05	228.16
989.34	228.20
989.63	228.14
989.92	228.20
990.22	228.20
990.51	228.11
990.80	228.09
991.09	228.11
991.38	228.19
991.67	228.14
991.96	228.22
992.25	228.31
992.54	228.31
992.83	228.32
993.12	228.37
993.41	228.36
993.70	228.33
993.99	228.38
994.28	228.42
994.58	228.57
994.87	228.63
995.16	228.63
995.45	228.55
995.74	228.50
996.03	228.54
996.32	228.63
996.61	228.69
996.90	228.72
997.19	228.63
997.48	228.64
997.77	228.64
998.06	228.60
998.34	228.56
998.63	228.60
998.92	228.54
999.21	228.48
999.50	228.44
999.79	228.44
1000.08	228.48
1000.37	228.51
1000.66	228.48
1000.95	228.53
1001.24	228.40
1001.53	228.48
1001.82	228.50
1002.11	228.44
1002.40	228.39
1002.68	228.42
1002.97	228.60
1003.26	228.71
1003.55	228.65
1003.84	228.70
1004.13	228.84
1004.42	228.90
1004.71	228.96
1004.99	229.00
1005.28	229.03
1005.57	229.14
1005.86	229.19
1006.15	229.19
1006.44	229.10
1006.72	229.16
1007.01	229.07
1007.30	229.28
1007.59	229.18
1007.88	229.29
1008.17	229.35
1008.45	229.29
1008.74	229.25
1009.03	229.13
1009.32	229.09
1009.60	229.15
1009.89	229.15
1010.18	229.12
1010.47	229.07
1010.76	229.09
1011.04	229.12
1011.33	229.14
1011.62	229.09
1011.91	229.07
1012.19	229.07
1012.48	229.13
1012.77	229.08
1013.05	229.23
1013.34	229.12
1013.63	229.17
1013.92	229.10
1014.20	229.03
1014.49	229.03
1014.78	229.08
1015.06	228.98
1015.35	228.98
1015.64	228.97
1015.92	228.95
1016.21	228.85
1016.50	228.80
1016.78	228.67
1017.07	228.69
1017.36	228.65
1017.64	228.57
1017.93	228.63
1018.22	228.67
1018.50	228.60
1018.79	228.56
1019.08	228.46
1019.36	228.48
1019.65	228.41
1019.93	228.48
1020.22	228.53
1020.51	228.61
1020.79	228.59
1021.08	229.90
1021.36	227.60
1021.65	227.80
1021.94	229.10
1022.22	228.40
1022.51	227.40
1022.79	229.80
1023.08	229.30
1023.36	230.20
1023.65	228.90
>>>>>End Processed Spectral Data<<<<<
