SpectraSuite Data File
++++++++++++++++++++++++++++++++++++
Date: Fri Feb 01 14:37:07 EST 2013
User: group
Dark Spectrum Present: No
Reference Spectrum Present: No
Number of Sampled Component Spectra: 1
Spectrometers: USB2E7196
Integration Time (usec): 70000 (USB2E7196)
Spectra Averaged: 10 (USB2E7196)
Boxcar Smoothing: 10 (USB2E7196)
Correct for Electrical Dark: No (USB2E7196)
Strobe/Lamp Enabled: No (USB2E7196)
Correct for Detector Non-linearity: No (USB2E7196)
Correct for Stray Light: No (USB2E7196)
Number of Pixels in Processed Spectrum: 2048
>>>>>Begin Processed Spectral Data<<<<<
339.09	0.00
339.48	216.40
339.86	218.90
340.24	218.70
340.63	221.10
341.01	224.80
341.39	222.90
341.78	226.50
342.16	225.50
342.54	228.80
342.93	215.42
343.31	226.22
343.69	226.79
344.07	227.24
344.46	227.82
344.84	228.20
345.22	228.28
345.60	228.60
345.99	228.64
346.37	228.78
346.75	228.80
347.13	228.83
347.52	228.86
347.90	228.86
348.28	228.92
348.66	228.94
349.05	228.75
349.43	228.83
349.81	228.86
350.19	228.80
350.57	228.86
350.96	228.84
351.34	228.95
351.72	228.97
352.10	229.02
352.48	228.95
352.87	228.85
353.25	229.02
353.63	228.98
354.01	229.11
354.39	229.19
354.77	229.25
355.15	229.42
355.54	229.53
355.92	229.62
356.30	229.58
356.68	229.77
357.06	229.92
357.44	229.90
357.82	229.88
358.20	230.02
358.58	230.00
358.97	230.09
359.35	230.24
359.73	230.37
360.11	230.32
360.49	230.33
360.87	230.46
361.25	230.41
361.63	230.59
362.01	230.53
362.39	230.54
362.77	230.56
363.15	230.60
363.53	230.55
363.91	230.67
364.29	230.72
364.67	230.63
365.05	230.56
365.43	230.62
365.81	230.58
366.19	230.59
366.57	230.61
366.95	230.48
367.33	230.31
367.71	230.20
368.09	230.31
368.47	230.30
368.85	230.23
369.23	230.30
369.61	230.07
369.99	230.11
370.37	230.03
370.75	230.05
371.13	229.89
371.51	229.73
371.89	229.60
372.27	229.57
372.65	229.45
373.03	229.43
373.41	229.30
373.78	229.39
374.16	229.20
374.54	229.14
374.92	229.07
375.30	229.08
375.68	229.00
376.06	228.89
376.44	228.72
376.82	228.65
377.19	228.58
377.57	228.48
377.95	228.30
378.33	228.18
378.71	227.97
379.09	227.81
379.47	227.81
379.84	227.61
380.22	227.50
380.60	227.33
380.98	227.22
381.36	227.15
381.73	226.92
382.11	226.84
382.49	226.78
382.87	226.70
383.25	226.59
383.62	226.70
384.00	226.56
384.38	226.59
384.76	226.66
385.13	226.72
385.51	226.68
385.89	226.64
386.27	226.71
386.64	226.75
387.02	226.75
387.40	226.62
387.78	226.64
388.15	226.55
388.53	226.63
388.91	226.57
389.29	226.57
389.66	226.64
390.04	226.67
390.42	226.61
390.79	226.73
391.17	226.68
391.55	226.55
391.92	226.57
392.30	226.63
392.68	226.60
393.05	226.50
393.43	226.61
393.81	226.69
394.18	226.66
394.56	226.66
394.94	226.80
395.31	226.88
395.69	226.95
396.06	226.98
396.44	226.99
396.82	227.07
397.19	227.15
397.57	227.28
397.95	227.44
398.32	227.51
398.70	227.51
399.07	227.65
399.45	227.74
399.82	227.82
400.20	227.88
400.58	227.98
400.95	228.03
401.33	228.13
401.70	228.39
402.08	228.52
402.45	228.68
402.83	228.90
403.20	229.16
403.58	229.37
403.95	229.70
404.33	229.88
404.71	230.10
405.08	230.48
405.46	230.72
405.83	230.93
406.21	231.14
406.58	231.34
406.96	231.60
407.33	231.78
407.70	232.12
408.08	232.63
408.45	233.00
408.83	233.55
409.20	233.90
409.58	234.17
409.95	234.72
410.33	235.15
410.70	235.44
411.08	235.93
411.45	236.36
411.82	236.87
412.20	237.46
412.57	238.14
412.95	238.45
413.32	239.04
413.69	239.71
414.07	240.60
414.44	241.43
414.82	242.32
415.19	243.34
415.56	244.20
415.94	245.10
416.31	246.15
416.68	247.09
417.06	248.42
417.43	249.70
417.81	250.82
418.18	252.16
418.55	253.61
418.93	255.10
419.30	256.70
419.67	258.37
420.04	260.09
420.42	261.88
420.79	264.20
421.16	266.32
421.54	268.46
421.91	270.54
422.28	272.84
422.66	275.23
423.03	277.64
423.40	280.10
423.77	282.69
424.15	285.30
424.52	288.10
424.89	291.06
425.26	293.91
425.64	296.75
426.01	299.83
426.38	303.12
426.75	306.28
427.13	309.73
427.50	313.17
427.87	316.91
428.24	320.67
428.61	324.03
428.99	327.82
429.36	331.96
429.73	336.04
430.10	340.07
430.47	344.04
430.85	348.42
431.22	352.92
431.59	357.61
431.96	362.22
432.33	367.25
432.70	372.22
433.08	378.06
433.45	383.54
433.82	388.90
434.19	394.86
434.56	400.76
434.93	406.37
435.30	411.95
435.68	417.97
436.05	424.04
436.42	430.06
436.79	435.60
437.16	441.50
437.53	448.01
437.90	454.13
438.27	460.36
438.64	466.47
439.01	472.54
439.38	477.89
439.75	482.88
440.13	488.81
440.50	494.18
440.87	498.48
441.24	503.23
441.61	508.51
441.98	512.26
442.35	516.83
442.72	521.32
443.09	525.90
443.46	528.92
443.83	530.92
444.20	532.80
444.57	535.36
444.94	536.82
445.31	538.10
445.68	539.84
446.05	540.93
446.42	541.06
446.79	540.90
447.16	540.73
447.53	540.96
447.90	539.27
448.27	537.70
448.64	535.36
449.01	533.77
449.37	530.31
449.74	527.01
450.11	522.94
450.48	518.56
450.85	513.81
451.22	509.92
451.59	506.11
451.96	502.41
452.33	497.29
452.70	492.81
453.07	487.41
453.43	481.74
453.80	476.24
454.17	470.96
454.54	465.94
454.91	460.39
455.28	454.96
455.65	450.02
456.02	444.91
456.38	440.52
456.75	434.91
457.12	430.17
457.49	425.69
457.86	421.21
458.23	417.31
458.59	413.04
458.96	408.61
459.33	404.87
459.70	401.15
460.07	398.10
460.43	394.51
460.80	391.02
461.17	387.87
461.54	384.70
461.91	381.62
462.27	378.65
462.64	376.14
463.01	373.34
463.38	370.53
463.74	367.69
464.11	365.13
464.48	363.08
464.85	360.89
465.21	359.05
465.58	357.09
465.95	354.71
466.32	352.79
466.68	350.88
467.05	348.82
467.42	346.71
467.78	344.62
468.15	342.57
468.52	341.05
468.88	339.11
469.25	337.28
469.62	335.85
469.98	334.23
470.35	332.71
470.72	331.23
471.08	329.65
471.45	328.47
471.82	327.17
472.18	325.67
472.55	324.45
472.92	323.11
473.28	321.95
473.65	320.71
474.02	319.57
474.38	318.48
474.75	317.60
475.11	316.75
475.48	316.03
475.85	315.32
476.21	314.47
476.58	313.95
476.94	313.48
477.31	312.91
477.67	312.32
478.04	311.77
478.41	311.25
478.77	311.07
479.14	310.56
479.50	310.21
479.87	309.97
480.23	309.90
480.60	309.69
480.96	309.44
481.33	309.48
481.69	309.47
482.06	309.35
482.42	309.13
482.79	308.89
483.15	308.97
483.52	309.12
483.88	309.25
484.25	309.18
484.61	309.28
484.98	309.38
485.34	309.60
485.71	309.98
486.07	310.42
486.44	310.49
486.80	310.80
487.17	311.11
487.53	311.60
487.90	311.84
488.26	312.41
488.62	313.05
488.99	313.50
489.35	314.00
489.72	314.56
490.08	315.38
490.44	316.17
490.81	316.81
491.17	317.40
491.54	318.27
491.90	319.12
492.26	319.84
492.63	320.63
492.99	321.39
493.36	322.20
493.72	323.07
494.08	323.85
494.45	324.78
494.81	325.70
495.17	326.53
495.54	327.59
495.90	328.43
496.26	329.31
496.63	330.23
496.99	331.31
497.35	332.36
497.72	333.45
498.08	334.47
498.44	335.44
498.80	336.64
499.17	337.60
499.53	338.57
499.89	339.76
500.26	340.65
500.62	341.77
500.98	342.85
501.34	343.82
501.71	345.00
502.07	345.99
502.43	346.83
502.79	347.72
503.16	348.48
503.52	349.27
503.88	349.97
504.24	350.75
504.60	351.39
504.97	352.13
505.33	352.58
505.69	353.48
506.05	354.20
506.41	354.77
506.78	355.30
507.14	355.78
507.50	356.13
507.86	356.70
508.22	357.03
508.59	357.11
508.95	357.45
509.31	357.69
509.67	357.96
510.03	358.22
510.39	358.51
510.75	358.73
511.12	359.01
511.48	359.19
511.84	359.42
512.20	359.47
512.56	359.66
512.92	359.84
513.28	359.70
513.64	359.58
514.00	359.61
514.37	359.65
514.73	359.65
515.09	359.59
515.45	359.56
515.81	359.51
516.17	359.57
516.53	359.49
516.89	359.52
517.25	359.47
517.61	359.61
517.97	359.50
518.33	359.48
518.69	359.46
519.05	359.63
519.41	359.89
519.77	360.16
520.13	360.26
520.49	360.41
520.85	360.69
521.21	361.04
521.57	361.33
521.93	361.56
522.29	362.09
522.65	362.53
523.01	362.91
523.37	363.50
523.73	364.15
524.09	364.86
524.45	365.57
524.81	366.32
525.17	367.15
525.53	368.15
525.89	369.18
526.25	370.07
526.61	370.92
526.97	371.85
527.33	373.10
527.68	374.59
528.04	375.92
528.40	377.19
528.76	378.84
529.12	380.48
529.48	382.30
529.84	384.01
530.20	385.90
530.56	388.00
530.91	390.09
531.27	392.09
531.63	394.13
531.99	396.20
532.35	398.44
532.71	400.83
533.07	403.40
533.42	406.01
533.78	408.82
534.14	411.64
534.50	414.28
534.86	417.06
535.21	419.64
535.57	422.64
535.93	425.71
536.29	428.84
536.65	431.93
537.00	435.00
537.36	438.31
537.72	441.62
538.08	445.10
538.44	448.40
538.79	451.85
539.15	455.41
539.51	459.01
539.87	462.97
540.22	466.67
540.58	470.59
540.94	474.47
541.29	478.25
541.65	482.30
542.01	486.58
542.37	490.60
542.72	494.72
543.08	498.76
543.44	503.02
543.79	506.93
544.15	511.21
544.51	515.72
544.87	519.97
545.22	524.22
545.58	528.28
545.94	532.66
546.29	537.18
546.65	541.52
547.01	546.01
547.36	550.37
547.72	554.96
548.07	559.25
548.43	563.63
548.79	568.10
549.14	572.37
549.50	576.65
549.86	581.13
550.21	585.73
550.57	590.48
550.92	594.97
551.28	599.45
551.64	603.97
551.99	608.35
552.35	612.77
552.70	617.33
553.06	622.01
553.41	626.52
553.77	631.20
554.13	635.95
554.48	640.54
554.84	645.14
555.19	649.30
555.55	653.78
555.90	658.13
556.26	662.51
556.61	667.07
556.97	671.24
557.32	675.63
557.68	679.84
558.03	684.07
558.39	688.35
558.74	692.90
559.10	697.14
559.45	701.55
559.81	706.26
560.16	710.53
560.52	714.82
560.87	719.33
561.23	723.43
561.58	727.46
561.94	731.42
562.29	735.27
562.64	739.24
563.00	743.09
563.35	747.46
563.71	751.50
564.06	755.51
564.42	759.40
564.77	763.40
565.12	767.65
565.48	771.63
565.83	775.28
566.19	778.87
566.54	782.66
566.89	786.19
567.25	789.63
567.60	793.35
567.96	797.10
568.31	800.57
568.66	803.88
569.02	807.17
569.37	810.49
569.72	813.53
570.08	817.00
570.43	820.34
570.78	822.96
571.14	826.02
571.49	828.91
571.84	832.11
572.20	834.57
572.55	836.94
572.90	839.60
573.26	842.15
573.61	844.63
573.96	846.90
574.31	849.07
574.67	850.96
575.02	852.83
575.37	854.36
575.72	855.83
576.08	857.82
576.43	859.50
576.78	861.39
577.13	863.42
577.49	865.19
577.84	866.65
578.19	868.18
578.54	869.54
578.90	870.80
579.25	871.74
579.60	872.79
579.95	873.68
580.30	874.60
580.66	875.59
581.01	876.50
581.36	877.33
581.71	878.35
582.06	879.33
582.42	880.03
582.77	880.96
583.12	881.62
583.47	882.17
583.82	882.88
584.17	883.34
584.53	883.90
584.88	884.14
585.23	884.40
585.58	885.04
585.93	885.24
586.28	885.64
586.63	886.40
586.98	886.91
587.34	887.53
587.69	887.56
588.04	887.99
588.39	888.13
588.74	887.85
589.09	887.54
589.44	887.05
589.79	886.97
590.14	886.90
590.49	886.82
590.84	886.31
591.19	885.95
591.54	885.23
591.89	884.16
592.25	883.60
592.60	882.79
592.95	881.59
593.30	880.66
593.65	879.71
594.00	878.54
594.35	878.09
594.70	876.61
595.05	875.81
595.40	874.33
595.75	873.07
596.10	872.15
596.45	871.45
596.80	870.79
597.15	869.67
597.50	868.46
597.85	867.44
598.19	866.50
598.54	865.44
598.89	864.60
599.24	863.98
599.59	862.79
599.94	861.88
600.29	860.76
600.64	859.61
600.99	858.09
601.34	856.78
601.69	854.83
602.04	853.60
602.39	851.90
602.74	850.90
603.08	849.85
603.43	848.94
603.78	847.35
604.13	845.53
604.48	843.91
604.83	842.09
605.18	840.46
605.53	838.64
605.87	836.57
606.22	834.72
606.57	832.79
606.92	830.97
607.27	829.06
607.62	827.53
607.96	825.90
608.31	824.23
608.66	822.43
609.01	820.50
609.36	818.44
609.70	816.10
610.05	813.69
610.40	811.54
610.75	808.95
611.10	806.46
611.44	803.82
611.79	801.76
612.14	799.85
612.49	797.07
612.83	794.49
613.18	792.05
613.53	789.54
613.88	786.75
614.22	784.18
614.57	781.40
614.92	778.77
615.27	776.04
615.61	773.41
615.96	770.70
616.31	768.47
616.65	766.15
617.00	764.00
617.35	761.76
617.70	759.01
618.04	756.28
618.39	754.01
618.74	751.78
619.08	749.02
619.43	746.16
619.78	743.77
620.12	741.47
620.47	739.10
620.82	736.33
621.16	734.01
621.51	731.59
621.85	729.09
622.20	726.61
622.55	724.36
622.89	721.93
623.24	719.57
623.59	716.98
623.93	714.53
624.28	711.99
624.62	709.36
624.97	707.04
625.32	704.62
625.66	702.32
626.01	699.99
626.35	697.53
626.70	695.13
627.04	692.73
627.39	689.91
627.73	687.52
628.08	685.35
628.43	682.76
628.77	680.07
629.12	677.57
629.46	674.90
629.81	671.95
630.15	669.18
630.50	666.28
630.84	663.43
631.19	660.58
631.53	657.96
631.88	655.24
632.22	652.11
632.57	649.83
632.91	646.81
633.26	644.20
633.60	641.37
633.95	638.71
634.29	636.08
634.64	633.73
634.98	630.97
635.32	628.47
635.67	626.12
636.01	623.73
636.36	621.37
636.70	618.92
637.05	616.46
637.39	614.14
637.73	612.20
638.08	610.02
638.42	607.75
638.77	605.52
639.11	602.95
639.45	600.64
639.80	598.04
640.14	595.65
640.49	593.05
640.83	590.86
641.17	588.37
641.52	586.00
641.86	583.42
642.20	581.10
642.55	578.49
642.89	575.95
643.23	573.44
643.58	571.10
643.92	568.50
644.26	566.29
644.61	564.08
644.95	561.38
645.29	558.69
645.64	556.17
645.98	553.58
646.32	551.33
646.66	548.84
647.01	546.24
647.35	543.83
647.69	541.54
648.04	539.20
648.38	536.88
648.72	534.23
649.06	531.87
649.41	529.48
649.75	526.95
650.09	524.34
650.43	521.91
650.78	519.19
651.12	516.80
651.46	514.27
651.80	511.65
652.14	509.35
652.49	507.06
652.83	504.83
653.17	502.35
653.51	499.87
653.85	497.66
654.20	495.38
654.54	492.79
654.88	490.38
655.22	487.81
655.56	485.31
655.90	483.26
656.25	481.06
656.59	478.73
656.93	476.52
657.27	474.55
657.61	472.36
657.95	470.32
658.29	468.03
658.64	465.93
658.98	463.71
659.32	461.45
659.66	459.26
660.00	456.93
660.34	454.86
660.68	452.89
661.02	450.55
661.36	448.57
661.70	446.82
662.05	444.82
662.39	442.99
662.73	441.02
663.07	439.03
663.41	437.12
663.75	435.29
664.09	433.38
664.43	431.39
664.77	429.49
665.11	427.73
665.45	425.99
665.79	424.28
666.13	422.38
666.47	420.50
666.81	418.70
667.15	416.82
667.49	415.07
667.83	413.40
668.17	411.98
668.51	410.14
668.85	408.27
669.19	406.82
669.53	405.14
669.87	403.59
670.21	401.97
670.55	400.28
670.89	398.86
671.23	397.62
671.57	396.13
671.91	394.65
672.25	393.21
672.58	391.98
672.92	390.43
673.26	389.26
673.60	388.10
673.94	386.72
674.28	385.59
674.62	384.38
674.96	382.97
675.30	381.69
675.64	380.56
675.97	379.44
676.31	378.01
676.65	376.79
676.99	375.70
677.33	374.46
677.67	373.25
678.01	371.86
678.34	370.43
678.68	369.12
679.02	367.88
679.36	366.47
679.70	365.05
680.04	363.72
680.37	362.40
680.71	360.89
681.05	359.69
681.39	358.56
681.73	357.29
682.06	356.20
682.40	355.04
682.74	353.82
683.08	352.71
683.42	351.58
683.75	350.38
684.09	349.11
684.43	347.82
684.77	346.72
685.10	345.44
685.44	344.08
685.78	343.02
686.12	341.80
686.45	340.71
686.79	339.63
687.13	338.60
687.46	337.39
687.80	336.46
688.14	335.36
688.48	334.13
688.81	332.93
689.15	331.80
689.49	330.70
689.82	329.64
690.16	328.38
690.50	327.38
690.83	326.39
691.17	325.15
691.51	324.29
691.84	323.24
692.18	322.29
692.52	321.51
692.85	320.48
693.19	319.62
693.52	318.70
693.86	317.64
694.20	316.70
694.53	315.82
694.87	314.72
695.21	313.75
695.54	312.77
695.88	311.88
696.21	310.82
696.55	309.85
696.88	308.83
697.22	307.96
697.56	307.04
697.89	305.98
698.23	305.17
698.56	304.07
698.90	303.22
699.23	302.34
699.57	301.37
699.90	300.48
700.24	299.61
700.58	298.62
700.91	297.93
701.25	297.19
701.58	296.52
701.92	295.89
702.25	295.20
702.59	294.46
702.92	293.82
703.26	293.25
703.59	292.43
703.93	291.93
704.26	291.25
704.60	290.48
704.93	289.79
705.26	289.11
705.60	288.59
705.93	287.96
706.27	287.40
706.60	286.82
706.94	286.28
707.27	285.57
707.61	285.10
707.94	284.55
708.27	283.94
708.61	283.39
708.94	282.79
709.28	282.11
709.61	281.69
709.94	281.19
710.28	280.56
710.61	280.09
710.95	279.30
711.28	278.96
711.61	278.47
711.95	277.99
712.28	277.48
712.61	277.09
712.95	276.68
713.28	276.20
713.61	275.78
713.95	275.18
714.28	274.92
714.61	274.48
714.95	274.04
715.28	273.48
715.61	272.92
715.95	272.60
716.28	272.18
716.61	271.66
716.95	271.13
717.28	270.77
717.61	270.39
717.94	270.17
718.28	269.60
718.61	269.26
718.94	268.89
719.27	268.51
719.61	268.07
719.94	267.63
720.27	267.19
720.60	266.78
720.94	266.52
721.27	266.19
721.60	265.90
721.93	265.39
722.27	265.22
722.60	264.90
722.93	264.40
723.26	264.12
723.59	263.82
723.93	263.49
724.26	263.07
724.59	262.79
724.92	262.35
725.25	262.01
725.59	261.77
725.92	261.53
726.25	261.14
726.58	260.77
726.91	260.42
727.24	260.11
727.57	259.83
727.91	259.48
728.24	259.08
728.57	258.69
728.90	258.54
729.23	258.17
729.56	258.02
729.89	257.77
730.22	257.31
730.55	257.04
730.89	256.73
731.22	256.45
731.55	256.03
731.88	255.74
732.21	255.50
732.54	255.15
732.87	254.89
733.20	254.75
733.53	254.57
733.86	254.28
734.19	254.00
734.52	253.66
734.85	253.49
735.18	253.10
735.51	252.87
735.84	252.45
736.17	252.12
736.50	251.60
736.83	251.49
737.16	251.31
737.49	250.97
737.82	250.72
738.15	250.49
738.48	250.32
738.81	250.00
739.14	249.65
739.47	249.26
739.80	249.00
740.13	248.83
740.46	248.50
740.79	248.21
741.12	247.92
741.45	247.73
741.78	247.37
742.11	247.29
742.44	246.90
742.77	246.72
743.10	246.42
743.43	246.20
743.75	245.74
744.08	245.89
744.41	245.72
744.74	245.43
745.07	245.17
745.40	244.88
745.73	244.79
746.06	244.58
746.39	244.41
746.71	244.14
747.04	243.80
747.37	243.58
747.70	243.50
748.03	243.36
748.36	243.30
748.68	243.23
749.01	242.93
749.34	242.86
749.67	242.75
750.00	242.67
750.33	242.67
750.65	242.58
750.98	242.07
751.31	241.87
751.64	241.79
751.97	241.73
752.29	241.64
752.62	241.43
752.95	241.35
753.28	241.20
753.60	241.06
753.93	241.00
754.26	240.88
754.59	240.78
754.91	240.70
755.24	240.48
755.57	240.27
755.90	240.19
756.22	240.13
756.55	239.99
756.88	239.85
757.20	239.65
757.53	239.52
757.86	239.49
758.19	239.53
758.51	239.41
758.84	239.36
759.17	239.25
759.49	239.23
759.82	239.25
760.15	239.20
760.47	239.10
760.80	239.00
761.13	239.03
761.45	238.91
761.78	238.75
762.11	238.70
762.43	238.67
762.76	238.56
763.08	238.43
763.41	238.40
763.74	238.28
764.06	238.29
764.39	238.21
764.71	238.11
765.04	237.92
765.37	237.93
765.69	237.71
766.02	237.62
766.34	237.48
766.67	237.31
767.00	237.27
767.32	237.31
767.65	237.37
767.97	237.26
768.30	237.22
768.62	237.31
768.95	237.17
769.27	237.08
769.60	237.08
769.92	237.00
770.25	236.79
770.57	236.70
770.90	236.55
771.22	236.43
771.55	236.40
771.87	236.29
772.20	236.18
772.52	236.31
772.85	236.58
773.17	236.58
773.50	236.48
773.82	236.32
774.15	236.17
774.47	235.90
774.80	235.77
775.12	235.52
775.45	235.24
775.77	235.10
776.09	234.94
776.42	234.80
776.74	234.65
777.07	234.54
777.39	234.45
777.72	234.34
778.04	234.32
778.36	234.24
778.69	234.23
779.01	234.10
779.33	233.81
779.66	233.46
779.98	233.26
780.31	233.15
780.63	233.13
780.95	233.04
781.28	232.96
781.60	232.89
781.92	232.84
782.25	232.88
782.57	232.85
782.89	232.76
783.22	232.71
783.54	232.69
783.86	232.66
784.19	232.58
784.51	232.50
784.83	232.28
785.16	232.14
785.48	232.04
785.80	231.92
786.12	231.86
786.45	231.71
786.77	231.70
787.09	231.66
787.42	231.59
787.74	231.46
788.06	231.35
788.38	231.20
788.71	231.16
789.03	231.07
789.35	231.01
789.67	230.96
789.99	230.93
790.32	230.82
790.64	230.85
790.96	230.97
791.28	230.90
791.61	230.94
791.93	230.91
792.25	230.86
792.57	230.99
792.89	230.97
793.21	231.00
793.54	230.97
793.86	230.94
794.18	230.89
794.50	230.99
794.82	231.05
795.14	231.18
795.47	231.27
795.79	231.26
796.11	231.25
796.43	231.30
796.75	231.28
797.07	231.30
797.39	231.23
797.71	231.11
798.04	231.09
798.36	231.09
798.68	231.11
799.00	231.19
799.32	231.04
799.64	231.10
799.96	231.18
800.28	231.21
800.60	231.22
800.92	231.25
801.24	231.22
801.56	231.31
801.89	231.25
802.21	231.21
802.53	231.19
802.85	231.22
803.17	231.27
803.49	231.32
803.81	231.35
804.13	231.44
804.45	231.51
804.77	231.51
805.09	231.45
805.41	231.40
805.73	231.42
806.05	231.47
806.37	231.46
806.69	231.35
807.01	231.28
807.33	231.28
807.65	231.21
807.97	231.25
808.28	231.12
808.60	231.01
808.92	230.99
809.24	231.10
809.56	231.07
809.88	231.00
810.20	230.89
810.52	230.97
810.84	230.84
811.16	230.78
811.48	230.78
811.80	230.89
812.12	230.85
812.43	230.88
812.75	230.86
813.07	230.70
813.39	230.60
813.71	230.49
814.03	230.42
814.35	230.31
814.67	230.20
814.98	230.22
815.30	230.16
815.62	229.98
815.94	229.69
816.26	229.70
816.58	229.64
816.89	229.60
817.21	229.44
817.53	229.40
817.85	229.28
818.17	229.22
818.48	229.08
818.80	229.12
819.12	229.01
819.44	228.83
819.76	228.88
820.07	228.85
820.39	228.78
820.71	228.77
821.03	228.80
821.34	228.79
821.66	228.69
821.98	228.72
822.30	228.78
822.61	228.96
822.93	228.85
823.25	228.81
823.57	228.75
823.88	228.67
824.20	228.63
824.52	228.63
824.83	228.60
825.15	228.58
825.47	228.39
825.79	228.35
826.10	228.39
826.42	228.31
826.74	228.35
827.05	228.48
827.37	228.51
827.69	228.56
828.00	228.57
828.32	228.56
828.64	228.65
828.95	228.64
829.27	228.53
829.58	228.55
829.90	228.60
830.22	228.64
830.53	228.66
830.85	228.62
831.17	228.64
831.48	228.70
831.80	228.69
832.11	228.83
832.43	228.78
832.75	228.81
833.06	228.96
833.38	228.89
833.69	228.83
834.01	228.90
834.32	228.87
834.64	228.84
834.96	228.91
835.27	228.82
835.59	228.91
835.90	228.95
836.22	229.00
836.53	229.00
836.85	229.01
837.16	229.23
837.48	229.23
837.79	229.24
838.11	229.20
838.42	229.27
838.74	229.32
839.05	229.34
839.37	229.43
839.68	229.39
840.00	229.46
840.31	229.53
840.63	229.39
840.94	229.41
841.26	229.44
841.57	229.49
841.88	229.57
842.20	229.49
842.51	229.52
842.83	229.50
843.14	229.62
843.46	229.60
843.77	229.50
844.08	229.56
844.40	229.61
844.71	229.73
845.03	229.80
845.34	229.73
845.65	229.73
845.97	229.66
846.28	229.65
846.60	229.61
846.91	229.63
847.22	229.65
847.54	229.62
847.85	229.60
848.16	229.54
848.48	229.51
848.79	229.67
849.10	229.62
849.42	229.63
849.73	229.48
850.04	229.42
850.36	229.36
850.67	229.33
850.98	229.23
851.30	229.03
851.61	228.93
851.92	228.89
852.23	228.90
852.55	228.82
852.86	228.71
853.17	228.72
853.49	228.65
853.80	228.60
854.11	228.62
854.42	228.58
854.74	228.50
855.05	228.48
855.36	228.29
855.67	228.28
855.99	228.14
856.30	228.29
856.61	228.32
856.92	228.26
857.23	228.28
857.55	228.20
857.86	228.30
858.17	228.23
858.48	228.28
858.79	228.22
859.11	228.33
859.42	228.45
859.73	228.40
860.04	228.37
860.35	228.43
860.66	228.38
860.98	228.21
861.29	228.24
861.60	228.19
861.91	228.18
862.22	228.12
862.53	228.05
862.84	227.77
863.16	227.85
863.47	227.81
863.78	227.73
864.09	227.84
864.40	227.83
864.71	227.90
865.02	227.78
865.33	227.77
865.64	227.74
865.95	227.68
866.27	227.79
866.58	227.79
866.89	227.74
867.20	227.79
867.51	227.91
867.82	227.85
868.13	227.90
868.44	227.86
868.75	227.89
869.06	228.03
869.37	228.09
869.68	228.02
869.99	228.11
870.30	228.24
870.61	228.27
870.92	228.20
871.23	228.06
871.54	228.20
871.85	228.30
872.16	228.29
872.47	228.30
872.78	228.25
873.09	228.37
873.40	228.40
873.71	228.35
874.02	228.36
874.33	228.45
874.64	228.42
874.95	228.57
875.26	228.52
875.56	228.43
875.87	228.55
876.18	228.59
876.49	228.77
876.80	228.71
877.11	228.73
877.42	228.80
877.73	228.96
878.04	229.04
878.35	229.06
878.66	229.09
878.96	229.11
879.27	229.11
879.58	229.10
879.89	229.13
880.20	229.18
880.51	229.16
880.82	229.09
881.12	229.06
881.43	228.98
881.74	229.03
882.05	229.19
882.36	229.27
882.67	229.25
882.97	229.12
883.28	229.14
883.59	229.01
883.90	229.11
884.21	229.15
884.51	229.04
884.82	229.02
885.13	229.09
885.44	229.00
885.74	229.05
886.05	228.99
886.36	229.01
886.67	228.94
886.98	229.13
887.28	229.19
887.59	229.31
887.90	229.36
888.20	229.29
888.51	229.24
888.82	229.05
889.13	229.00
889.43	229.13
889.74	229.08
890.05	229.14
890.35	228.98
890.66	228.87
890.97	228.86
891.28	228.73
891.58	228.65
891.89	228.66
892.20	228.56
892.50	228.55
892.81	228.42
893.12	228.45
893.42	228.34
893.73	228.29
894.04	228.23
894.34	228.25
894.65	228.23
894.95	228.23
895.26	228.19
895.57	228.24
895.87	228.08
896.18	228.04
896.48	227.93
896.79	228.01
897.10	228.06
897.40	227.99
897.71	228.08
898.01	227.95
898.32	228.00
898.63	227.99
898.93	227.98
899.24	228.09
899.54	228.11
899.85	227.96
900.15	227.98
900.46	227.91
900.76	227.86
901.07	227.87
901.38	227.86
901.68	227.92
901.99	227.82
902.29	227.79
902.60	227.84
902.90	227.94
903.21	227.88
903.51	227.77
903.82	227.73
904.12	227.63
904.43	227.77
904.73	227.70
905.03	227.66
905.34	227.85
905.64	227.80
905.95	227.74
906.25	227.81
906.56	227.73
906.86	227.74
907.17	227.73
907.47	227.77
907.77	227.73
908.08	227.72
908.38	227.88
908.69	227.91
908.99	227.85
909.30	227.89
909.60	227.97
909.90	228.01
910.21	228.15
910.51	228.22
910.81	228.23
911.12	228.32
911.42	228.52
911.73	228.40
912.03	228.54
912.33	228.57
912.64	228.66
912.94	228.81
913.24	228.76
913.55	228.78
913.85	228.83
914.15	228.83
914.46	228.90
914.76	228.89
915.06	228.80
915.37	228.93
915.67	228.90
915.97	228.91
916.27	228.93
916.58	229.00
916.88	229.00
917.18	229.03
917.49	229.14
917.79	229.07
918.09	229.03
918.39	228.90
918.70	228.97
919.00	228.88
919.30	228.98
919.60	229.01
919.91	229.06
920.21	229.09
920.51	229.07
920.81	229.08
921.12	229.12
921.42	229.16
921.72	229.21
922.02	229.25
922.32	229.26
922.63	229.27
922.93	229.30
923.23	229.21
923.53	229.15
923.83	229.00
924.13	229.00
924.44	228.97
924.74	229.18
925.04	229.29
925.34	229.21
925.64	229.09
925.94	229.12
926.24	229.17
926.55	229.08
926.85	229.15
927.15	229.11
927.45	228.96
927.75	228.90
928.05	228.75
928.35	228.69
928.65	228.66
928.95	228.71
929.26	228.51
929.56	228.61
929.86	228.59
930.16	228.60
930.46	228.63
930.76	228.63
931.06	228.38
931.36	228.18
931.66	228.32
931.96	228.30
932.26	228.22
932.56	228.19
932.86	228.16
933.16	228.12
933.46	228.07
933.76	228.03
934.06	228.04
934.36	228.10
934.66	228.09
934.96	228.03
935.26	227.98
935.56	228.01
935.86	227.86
936.16	227.75
936.46	227.70
936.76	227.60
937.06	227.61
937.36	227.67
937.66	227.68
937.96	227.61
938.26	227.55
938.56	227.58
938.86	227.55
939.16	227.55
939.46	227.61
939.76	227.66
940.06	227.75
940.35	227.71
940.65	227.64
940.95	227.66
941.25	227.69
941.55	227.74
941.85	227.76
942.15	227.83
942.45	227.96
942.75	227.96
943.04	227.92
943.34	227.96
943.64	227.91
943.94	227.91
944.24	228.03
944.54	228.02
944.84	228.04
945.13	228.01
945.43	228.09
945.73	227.97
946.03	227.97
946.33	227.97
946.62	228.04
946.92	228.15
947.22	228.09
947.52	228.04
947.82	227.96
948.11	227.98
948.41	228.02
948.71	227.91
949.01	227.97
949.31	227.90
949.60	227.87
949.90	227.90
950.20	227.91
950.50	227.92
950.79	227.94
951.09	227.93
951.39	228.05
951.69	228.00
951.98	228.13
952.28	228.14
952.58	228.05
952.87	228.07
953.17	228.10
953.47	228.17
953.76	228.20
954.06	228.24
954.36	228.23
954.66	228.16
954.95	228.27
955.25	228.22
955.55	228.24
955.84	228.23
956.14	228.28
956.44	228.32
956.73	228.20
957.03	228.18
957.32	228.13
957.62	228.00
957.92	228.09
958.21	228.06
958.51	228.25
958.81	228.33
959.10	228.36
959.40	228.23
959.69	228.29
959.99	228.40
960.29	228.38
960.58	228.41
960.88	228.54
961.17	228.60
961.47	228.73
961.76	228.75
962.06	228.72
962.36	228.60
962.65	228.49
962.95	228.51
963.24	228.51
963.54	228.69
963.83	228.78
964.13	228.63
964.42	228.54
964.72	228.26
965.01	228.29
965.31	228.22
965.60	228.25
965.90	228.35
966.19	228.19
966.49	228.22
966.78	228.08
967.08	228.02
967.37	228.04
967.67	227.96
967.96	228.08
968.26	228.11
968.55	228.13
968.85	228.20
969.14	228.21
969.43	228.20
969.73	228.05
970.02	228.00
970.32	228.12
970.61	228.07
970.91	228.16
971.20	228.12
971.49	228.10
971.79	228.03
972.08	227.83
972.38	227.87
972.67	227.81
972.96	227.91
973.26	227.92
973.55	227.87
973.85	227.78
974.14	227.70
974.43	227.70
974.73	227.78
975.02	227.76
975.31	227.69
975.61	227.73
975.90	227.74
976.19	227.75
976.49	227.70
976.78	227.77
977.07	227.83
977.37	227.80
977.66	227.90
977.95	227.98
978.24	227.99
978.54	228.09
978.83	228.13
979.12	228.19
979.42	228.21
979.71	228.21
980.00	228.22
980.29	228.18
980.59	228.19
980.88	228.25
981.17	228.22
981.46	228.26
981.76	228.25
982.05	228.35
982.34	228.35
982.63	228.42
982.93	228.48
983.22	228.45
983.51	228.44
983.80	228.43
984.09	228.45
984.39	228.48
984.68	228.49
984.97	228.46
985.26	228.45
985.55	228.42
985.85	228.51
986.14	228.56
986.43	228.76
986.72	228.77
987.01	228.74
987.30	228.89
987.59	229.01
987.89	229.07
988.18	228.93
988.47	228.93
988.76	228.87
989.05	228.88
989.34	228.99
989.63	229.05
989.92	229.03
990.22	229.04
990.51	229.09
990.80	229.06
991.09	229.16
991.38	229.17
991.67	229.19
991.96	229.16
992.25	229.25
992.54	229.09
992.83	229.11
993.12	229.19
993.41	229.08
993.70	229.15
993.99	229.17
994.28	229.22
994.58	229.34
994.87	229.37
995.16	229.33
995.45	229.23
995.74	229.17
996.03	229.31
996.32	229.30
996.61	229.30
996.90	229.26
997.19	229.26
997.48	229.24
997.77	229.18
998.06	229.09
998.34	229.10
998.63	229.18
998.92	229.17
999.21	229.12
999.50	229.13
999.79	228.98
1000.08	228.97
1000.37	228.96
1000.66	228.80
1000.95	228.78
1001.24	228.74
1001.53	228.69
1001.82	228.75
1002.11	228.59
1002.40	228.58
1002.68	228.50
1002.97	228.61
1003.26	228.42
1003.55	228.37
1003.84	228.31
1004.13	228.37
1004.42	228.24
1004.71	228.13
1004.99	228.12
1005.28	228.02
1005.57	227.98
1005.86	227.90
1006.15	227.83
1006.44	227.72
1006.72	227.72
1007.01	227.68
1007.30	227.65
1007.59	227.68
1007.88	227.66
1008.17	227.68
1008.45	227.61
1008.74	227.59
1009.03	227.48
1009.32	227.52
1009.60	227.45
1009.89	227.31
1010.18	227.27
1010.47	227.29
1010.76	227.31
1011.04	227.26
1011.33	227.22
1011.62	227.25
1011.91	227.34
1012.19	227.37
1012.48	227.50
1012.77	227.43
1013.05	227.46
1013.34	227.48
1013.63	227.32
1013.92	227.38
1014.20	227.42
1014.49	227.52
1014.78	227.52
1015.06	227.48
1015.35	227.58
1015.64	227.71
1015.92	227.99
1016.21	228.06
1016.50	228.06
1016.78	228.15
1017.07	228.27
1017.36	228.37
1017.64	228.41
1017.93	228.32
1018.22	228.31
1018.50	228.31
1018.79	228.40
1019.08	228.37
1019.36	228.47
1019.65	228.56
1019.93	228.62
1020.22	228.60
1020.51	228.69
1020.79	228.76
1021.08	227.60
1021.36	228.30
1021.65	228.00
1021.94	227.50
1022.22	229.70
1022.51	227.70
1022.79	230.60
1023.08	228.60
1023.36	231.10
1023.65	228.90
>>>>>End Processed Spectral Data<<<<<
