SpectraSuite Data File
++++++++++++++++++++++++++++++++++++
Date: Fri Feb 01 14:33:51 EST 2013
User: group
Dark Spectrum Present: No
Reference Spectrum Present: No
Number of Sampled Component Spectra: 1
Spectrometers: USB2E7196
Integration Time (usec): 70000 (USB2E7196)
Spectra Averaged: 10 (USB2E7196)
Boxcar Smoothing: 10 (USB2E7196)
Correct for Electrical Dark: No (USB2E7196)
Strobe/Lamp Enabled: No (USB2E7196)
Correct for Detector Non-linearity: No (USB2E7196)
Correct for Stray Light: No (USB2E7196)
Number of Pixels in Processed Spectrum: 2048
>>>>>Begin Processed Spectral Data<<<<<
339.09	0.00
339.48	217.10
339.86	218.60
340.24	220.30
340.63	220.90
341.01	224.70
341.39	224.80
341.78	226.10
342.16	225.90
342.54	225.70
342.93	215.28
343.31	226.11
343.69	226.67
344.07	227.10
344.46	227.49
344.84	227.88
345.22	228.09
345.60	228.36
345.99	228.44
346.37	228.56
346.75	228.59
347.13	228.64
347.52	228.69
347.90	228.76
348.28	228.82
348.66	228.91
349.05	228.86
349.43	228.92
349.81	228.97
350.19	228.97
350.57	229.10
350.96	229.36
351.34	229.54
351.72	229.59
352.10	229.68
352.48	229.74
352.87	229.77
353.25	229.86
353.63	229.86
354.01	230.04
354.39	230.13
354.77	230.32
355.15	230.49
355.54	230.44
355.92	230.54
356.30	230.63
356.68	230.79
357.06	230.88
357.44	230.89
357.82	230.90
358.20	230.99
358.58	230.87
358.97	230.92
359.35	230.90
359.73	230.99
360.11	231.01
360.49	231.00
360.87	231.03
361.25	230.93
361.63	231.02
362.01	230.94
362.39	231.01
362.77	231.09
363.15	231.04
363.53	231.17
363.91	231.06
364.29	231.05
364.67	230.84
365.05	230.91
365.43	231.00
365.81	230.95
366.19	230.97
366.57	231.07
366.95	230.87
367.33	230.81
367.71	230.80
368.09	230.80
368.47	230.86
368.85	230.86
369.23	230.92
369.61	230.77
369.99	230.86
370.37	230.73
370.75	230.74
371.13	230.61
371.51	230.58
371.89	230.55
372.27	230.58
372.65	230.56
373.03	230.48
373.41	230.29
373.78	230.21
374.16	230.05
374.54	229.90
374.92	229.90
375.30	229.79
375.68	229.64
376.06	229.66
376.44	229.52
376.82	229.42
377.19	229.36
377.57	229.22
377.95	229.10
378.33	229.12
378.71	228.97
379.09	228.91
379.47	228.70
379.84	228.68
380.22	228.50
380.60	228.34
380.98	228.29
381.36	228.25
381.73	228.20
382.11	228.16
382.49	228.08
382.87	228.00
383.25	227.98
383.62	228.14
384.00	227.95
384.38	227.93
384.76	227.85
385.13	227.92
385.51	227.90
385.89	227.80
386.27	227.75
386.64	227.78
387.02	227.80
387.40	227.86
387.78	227.79
388.15	227.72
388.53	227.76
388.91	227.70
389.29	227.61
389.66	227.65
390.04	227.56
390.42	227.64
390.79	227.75
391.17	227.74
391.55	227.58
391.92	227.64
392.30	227.66
392.68	227.78
393.05	227.84
393.43	227.92
393.81	227.92
394.18	227.93
394.56	227.78
394.94	227.87
395.31	227.86
395.69	227.83
396.06	227.97
396.44	228.03
396.82	228.06
397.19	228.45
397.57	228.52
397.95	228.74
398.32	228.76
398.70	228.70
399.07	228.88
399.45	228.94
399.82	229.07
400.20	229.19
400.58	229.28
400.95	229.27
401.33	229.57
401.70	229.99
402.08	230.16
402.45	230.42
402.83	230.62
403.20	230.99
403.58	231.31
403.95	231.62
404.33	232.01
404.71	232.31
405.08	232.67
405.46	232.99
405.83	233.34
406.21	233.81
406.58	234.31
406.96	234.83
407.33	235.33
407.70	235.87
408.08	236.60
408.45	237.27
408.83	237.96
409.20	238.47
409.58	238.98
409.95	239.75
410.33	240.66
410.70	241.49
411.08	242.33
411.45	243.40
411.82	244.37
412.20	245.37
412.57	246.68
412.95	247.70
413.32	249.09
413.69	250.50
414.07	251.93
414.44	253.54
414.82	255.17
415.19	256.98
415.56	258.91
415.94	260.91
416.31	263.14
416.68	265.40
417.06	268.07
417.43	270.62
417.81	273.42
418.18	276.17
418.55	279.14
418.93	282.25
419.30	285.57
419.67	289.01
420.04	292.60
420.42	296.32
420.79	300.54
421.16	304.83
421.54	309.08
421.91	313.63
422.28	318.37
422.66	323.46
423.03	328.53
423.40	333.58
423.77	339.03
424.15	344.58
424.52	350.28
424.89	356.36
425.26	362.38
425.64	368.04
426.01	374.23
426.38	380.80
426.75	387.56
427.13	394.39
427.50	401.66
427.87	409.18
428.24	416.73
428.61	423.96
428.99	431.85
429.36	440.53
429.73	449.00
430.10	457.47
430.47	465.79
430.85	474.62
431.22	483.93
431.59	493.45
431.96	502.77
432.33	513.25
432.70	523.17
433.08	534.97
433.45	546.30
433.82	557.42
434.19	569.97
434.56	582.07
434.93	593.72
435.30	605.32
435.68	618.16
436.05	630.61
436.42	643.24
436.79	654.65
437.16	667.11
437.53	679.99
437.90	692.68
438.27	705.49
438.64	718.60
439.01	730.70
439.38	741.96
439.75	752.67
440.13	764.59
440.50	776.31
440.87	786.11
441.24	796.08
441.61	807.27
441.98	815.20
442.35	824.81
442.72	834.34
443.09	844.04
443.46	850.21
443.83	854.80
444.20	858.61
444.57	864.19
444.94	867.08
445.31	870.55
445.68	873.68
446.05	875.90
446.42	876.34
446.79	876.29
447.16	876.30
447.53	876.69
447.90	873.76
448.27	870.47
448.64	864.85
449.01	861.61
449.37	854.04
449.74	847.48
450.11	838.76
450.48	829.55
450.85	819.55
451.22	811.63
451.59	803.89
451.96	796.83
452.33	786.23
452.70	777.21
453.07	765.65
453.43	754.05
453.80	742.77
454.17	731.45
454.54	721.25
454.91	709.72
455.28	698.73
455.65	688.29
456.02	677.66
456.38	669.03
456.75	657.83
457.12	648.91
457.49	639.40
457.86	630.61
458.23	622.80
458.59	614.26
458.96	605.19
459.33	597.52
459.70	589.60
460.07	583.50
460.43	576.20
460.80	569.27
461.17	563.31
461.54	557.02
461.91	551.14
462.27	545.08
462.64	539.88
463.01	533.98
463.38	528.35
463.74	522.82
464.11	517.83
464.48	513.26
464.85	508.40
465.21	504.92
465.58	501.00
465.95	496.30
466.32	492.45
466.68	488.49
467.05	484.56
467.42	480.68
467.78	476.59
468.15	472.47
468.52	469.89
468.88	466.24
469.25	462.78
469.62	460.18
469.98	457.49
470.35	454.85
470.72	452.36
471.08	449.58
471.45	447.22
471.82	444.73
472.18	442.06
472.55	440.18
472.92	437.77
473.28	435.79
473.65	433.74
474.02	431.79
474.38	430.12
474.75	428.69
475.11	427.18
475.48	425.70
475.85	424.87
476.21	423.65
476.58	422.74
476.94	422.12
477.31	421.17
477.67	419.84
478.04	419.12
478.41	418.39
478.77	418.11
479.14	417.70
479.50	417.52
479.87	417.50
480.23	417.52
480.60	417.33
480.96	417.30
481.33	417.67
481.69	417.90
482.06	418.30
482.42	418.36
482.79	418.56
483.15	419.50
483.52	420.24
483.88	420.96
484.25	421.71
484.61	422.51
484.98	423.40
485.34	424.89
485.71	426.34
486.07	427.91
486.44	429.15
486.80	430.80
487.17	432.29
487.53	434.15
487.90	436.12
488.26	438.45
488.62	440.52
488.99	442.60
489.35	445.04
489.72	447.43
490.08	450.19
490.44	453.16
490.81	456.01
491.17	458.71
491.54	461.69
491.90	464.76
492.26	468.15
492.63	471.72
492.99	475.24
493.36	478.61
493.72	482.36
494.08	486.31
494.45	490.38
494.81	494.69
495.17	498.90
495.54	503.35
495.90	507.53
496.26	512.13
496.63	516.74
496.99	521.56
497.35	526.66
497.72	531.64
498.08	536.78
498.44	542.04
498.80	547.75
499.17	553.21
499.53	558.83
499.89	564.40
500.26	569.79
500.62	575.10
500.98	581.22
501.34	587.06
501.71	592.99
502.07	598.79
502.43	604.78
502.79	610.68
503.16	616.70
503.52	622.90
503.88	628.79
504.24	635.18
504.60	641.20
504.97	647.46
505.33	653.73
505.69	659.95
506.05	665.91
506.41	671.85
506.78	677.95
507.14	684.10
507.50	690.33
507.86	696.78
508.22	703.29
508.59	709.09
508.95	715.05
509.31	721.10
509.67	727.57
510.03	733.48
510.39	739.55
510.75	745.24
511.12	750.82
511.48	756.56
511.84	762.42
512.20	767.99
512.56	773.76
512.92	779.39
513.28	784.71
513.64	790.19
514.00	795.60
514.37	800.92
514.73	805.90
515.09	810.54
515.45	815.30
515.81	820.22
516.17	825.20
516.53	830.10
516.89	834.70
517.25	838.86
517.61	843.34
517.97	847.40
518.33	851.58
518.69	856.21
519.05	860.45
519.41	864.48
519.77	869.03
520.13	872.51
520.49	876.29
520.85	880.23
521.21	883.98
521.57	887.73
521.93	891.18
522.29	895.36
522.65	899.13
523.01	902.35
523.37	905.45
523.73	908.60
524.09	911.46
524.45	914.61
524.81	917.92
525.17	921.04
525.53	924.98
525.89	928.20
526.25	931.21
526.61	934.01
526.97	937.00
527.33	939.85
527.68	943.03
528.04	945.71
528.40	948.49
528.76	951.45
529.12	954.57
529.48	957.58
529.84	959.75
530.20	962.74
530.56	966.12
530.91	969.49
531.27	972.59
531.63	975.78
531.99	978.68
532.35	981.26
532.71	983.80
533.07	986.18
533.42	989.03
533.78	991.73
534.14	994.93
534.50	997.27
534.86	999.54
535.21	1001.80
535.57	1004.51
535.93	1007.17
536.29	1009.69
536.65	1012.01
537.00	1014.39
537.36	1017.18
537.72	1019.24
538.08	1021.31
538.44	1023.64
538.79	1025.80
539.15	1027.66
539.51	1030.09
539.87	1032.56
540.22	1035.25
540.58	1037.86
540.94	1040.24
541.29	1042.24
541.65	1044.23
542.01	1047.10
542.37	1049.64
542.72	1052.22
543.08	1054.76
543.44	1056.82
543.79	1058.70
544.15	1060.93
544.51	1063.66
544.87	1066.10
545.22	1068.50
545.58	1070.71
545.94	1072.30
546.29	1074.19
546.65	1076.80
547.01	1078.69
547.36	1080.59
547.72	1082.22
548.07	1083.67
548.43	1085.33
548.79	1087.19
549.14	1089.03
549.50	1090.39
549.86	1091.89
550.21	1093.28
550.57	1094.75
550.92	1096.58
551.28	1098.43
551.64	1099.87
551.99	1101.31
552.35	1102.25
552.70	1103.77
553.06	1105.53
553.41	1107.25
553.77	1109.12
554.13	1110.35
554.48	1112.29
554.84	1113.91
555.19	1115.58
555.55	1117.12
555.90	1118.24
556.26	1119.94
556.61	1121.51
556.97	1123.10
557.32	1124.45
557.68	1126.12
558.03	1127.47
558.39	1128.54
558.74	1130.22
559.10	1131.77
559.45	1133.27
559.81	1134.99
560.16	1136.34
560.52	1137.39
560.87	1139.02
561.23	1139.82
561.58	1141.30
561.94	1142.03
562.29	1142.92
562.64	1143.87
563.00	1144.74
563.35	1146.52
563.71	1148.09
564.06	1149.34
564.42	1150.36
564.77	1151.70
565.12	1152.87
565.48	1154.14
565.83	1155.32
566.19	1156.16
566.54	1156.96
566.89	1157.64
567.25	1158.81
567.60	1160.27
567.96	1161.26
568.31	1161.81
568.66	1162.88
569.02	1163.36
569.37	1163.63
569.72	1164.29
570.08	1164.90
570.43	1165.82
570.78	1165.82
571.14	1165.40
571.49	1165.27
571.84	1165.53
572.20	1165.50
572.55	1165.11
572.90	1164.52
573.26	1164.31
573.61	1163.98
573.96	1163.71
574.31	1162.67
574.67	1161.30
575.02	1159.92
575.37	1159.20
575.72	1157.64
576.08	1156.53
576.43	1155.58
576.78	1155.00
577.13	1153.96
577.49	1152.65
577.84	1151.39
578.19	1150.18
578.54	1149.19
578.90	1148.20
579.25	1146.09
579.60	1144.36
579.95	1142.74
580.30	1141.16
580.66	1139.26
581.01	1137.39
581.36	1135.28
581.71	1133.93
582.06	1132.36
582.42	1130.34
582.77	1128.28
583.12	1126.68
583.47	1124.66
583.82	1122.61
584.17	1120.42
584.53	1118.41
584.88	1116.42
585.23	1114.06
585.58	1111.89
585.93	1109.36
586.28	1107.05
586.63	1105.42
586.98	1103.53
587.34	1101.50
587.69	1099.56
588.04	1097.44
588.39	1095.28
588.74	1092.78
589.09	1090.01
589.44	1087.38
589.79	1085.17
590.14	1082.65
590.49	1080.35
590.84	1077.90
591.19	1075.58
591.54	1072.56
591.89	1069.47
592.25	1066.95
592.60	1063.75
592.95	1060.77
593.30	1057.90
593.65	1054.66
594.00	1051.53
594.35	1048.64
594.70	1045.08
595.05	1042.08
595.40	1038.91
595.75	1035.53
596.10	1032.71
596.45	1030.20
596.80	1027.50
597.15	1024.41
597.50	1021.11
597.85	1018.01
598.19	1015.09
598.54	1012.25
598.89	1009.24
599.24	1006.66
599.59	1003.43
599.94	1000.49
600.29	997.35
600.64	994.47
600.99	991.24
601.34	988.25
601.69	984.78
602.04	981.97
602.39	978.41
602.74	975.53
603.08	972.54
603.43	969.81
603.78	966.46
604.13	963.33
604.48	960.43
604.83	957.50
605.18	954.62
605.53	951.19
605.87	947.21
606.22	944.31
606.57	940.62
606.92	937.50
607.27	934.52
607.62	931.67
607.96	928.27
608.31	925.30
608.66	921.78
609.01	918.14
609.36	914.17
609.70	910.28
610.05	906.34
610.40	902.80
610.75	898.68
611.10	894.51
611.44	890.29
611.79	886.33
612.14	882.57
612.49	878.23
612.83	874.21
613.18	870.47
613.53	866.76
613.88	862.81
614.22	858.46
614.57	854.48
614.92	850.39
615.27	846.43
615.61	842.31
615.96	838.31
616.31	834.80
616.65	831.69
617.00	828.42
617.35	824.86
617.70	820.82
618.04	816.84
618.39	813.30
618.74	809.79
619.08	805.98
619.43	802.45
619.78	798.89
620.12	795.40
620.47	791.87
620.82	788.02
621.16	784.63
621.51	781.54
621.85	777.95
622.20	774.15
622.55	770.83
622.89	767.21
623.24	763.88
623.59	760.72
623.93	757.33
624.28	753.93
624.62	750.65
624.97	747.51
625.32	744.56
625.66	741.74
626.01	738.70
626.35	735.35
626.70	731.73
627.04	728.71
627.39	725.35
627.73	721.96
628.08	718.76
628.43	715.59
628.77	712.17
629.12	708.75
629.46	705.68
629.81	702.00
630.15	698.88
630.50	695.44
630.84	691.55
631.19	688.00
631.53	684.77
631.88	681.03
632.22	677.66
632.57	674.31
632.91	670.66
633.26	667.00
633.60	663.41
633.95	660.23
634.29	656.91
634.64	654.10
634.98	651.06
635.32	647.83
635.67	644.81
636.01	641.83
636.36	639.00
636.70	636.13
637.05	633.35
637.39	630.47
637.73	627.64
638.08	625.27
638.42	622.72
638.77	620.08
639.11	617.43
639.45	614.64
639.80	611.89
640.14	609.20
640.49	606.60
640.83	604.12
641.17	601.37
641.52	598.61
641.86	595.51
642.20	592.75
642.55	589.94
642.89	587.04
643.23	584.14
643.58	581.37
643.92	578.35
644.26	575.52
644.61	572.74
644.95	570.10
645.29	566.96
645.64	564.06
645.98	561.07
646.32	558.49
646.66	555.98
647.01	553.04
647.35	550.30
647.69	547.71
648.04	545.22
648.38	542.53
648.72	539.62
649.06	537.06
649.41	534.25
649.75	531.57
650.09	528.92
650.43	526.22
650.78	523.50
651.12	521.13
651.46	518.55
651.80	516.05
652.14	513.57
652.49	511.21
652.83	508.82
653.17	506.30
653.51	503.67
653.85	501.04
654.20	498.76
654.54	496.09
654.88	493.49
655.22	490.72
655.56	488.20
655.90	485.84
656.25	483.26
656.59	481.05
656.93	478.94
657.27	476.54
657.61	474.04
657.95	471.98
658.29	469.50
658.64	467.30
658.98	464.79
659.32	462.13
659.66	459.80
660.00	457.45
660.34	455.27
660.68	453.10
661.02	450.85
661.36	448.57
661.70	446.61
662.05	444.65
662.39	442.87
662.73	440.89
663.07	439.00
663.41	437.34
663.75	435.41
664.09	433.36
664.43	431.55
664.77	429.81
665.11	427.86
665.45	426.01
665.79	424.36
666.13	422.60
666.47	420.97
666.81	419.10
667.15	417.03
667.49	415.21
667.83	413.60
668.17	411.77
668.51	409.98
668.85	408.30
669.19	406.74
669.53	404.99
669.87	403.28
670.21	401.65
670.55	399.93
670.89	398.41
671.23	396.70
671.57	395.31
671.91	393.91
672.25	392.25
672.58	390.84
672.92	389.17
673.26	387.85
673.60	386.52
673.94	385.14
674.28	383.99
674.62	382.90
674.96	381.52
675.30	380.20
675.64	379.04
675.97	377.63
676.31	376.13
676.65	374.88
676.99	373.80
677.33	372.52
677.67	371.19
678.01	369.61
678.34	368.33
678.68	366.85
679.02	365.49
679.36	364.39
679.70	363.12
680.04	361.78
680.37	360.59
680.71	359.30
681.05	358.19
681.39	357.00
681.73	355.57
682.06	354.32
682.40	353.26
682.74	352.06
683.08	350.92
683.42	349.72
683.75	348.51
684.09	347.11
684.43	345.96
684.77	344.93
685.10	343.96
685.44	343.01
685.78	341.94
686.12	340.80
686.45	339.48
686.79	338.32
687.13	337.35
687.46	335.98
687.80	334.87
688.14	333.56
688.48	332.47
688.81	331.36
689.15	330.23
689.49	329.07
689.82	328.05
690.16	326.98
690.50	326.04
690.83	325.06
691.17	323.92
691.51	322.85
691.84	321.76
692.18	320.75
692.52	319.83
692.85	318.77
693.19	317.95
693.52	317.06
693.86	316.01
694.20	315.09
694.53	314.24
694.87	313.36
695.21	312.47
695.54	311.52
695.88	310.54
696.21	309.57
696.55	308.65
696.88	307.58
697.22	306.69
697.56	305.73
697.89	304.78
698.23	304.11
698.56	303.15
698.90	302.37
699.23	301.50
699.57	300.49
699.90	299.72
700.24	298.73
700.58	297.85
700.91	297.11
701.25	296.46
701.58	295.76
701.92	294.92
702.25	294.20
702.59	293.56
702.92	292.98
703.26	292.32
703.59	291.58
703.93	291.20
704.26	290.55
704.60	289.94
704.93	289.26
705.26	288.50
705.60	288.06
705.93	287.40
706.27	286.81
706.60	286.38
706.94	285.79
707.27	285.24
707.61	284.84
707.94	284.30
708.27	283.68
708.61	283.07
708.94	282.56
709.28	282.20
709.61	281.60
709.94	281.09
710.28	280.60
710.61	280.17
710.95	279.50
711.28	279.16
711.61	278.62
711.95	278.22
712.28	277.82
712.61	277.26
712.95	276.79
713.28	276.29
713.61	275.65
713.95	275.15
714.28	274.70
714.61	274.00
714.95	273.51
715.28	272.88
715.61	272.40
715.95	271.93
716.28	271.39
716.61	271.00
716.95	270.36
717.28	269.89
717.61	269.51
717.94	269.08
718.28	268.47
718.61	268.10
718.94	267.56
719.27	267.07
719.61	266.59
719.94	266.16
720.27	265.77
720.60	265.34
720.94	264.93
721.27	264.58
721.60	264.36
721.93	263.94
722.27	263.67
722.60	263.38
722.93	263.11
723.26	262.78
723.59	262.32
723.93	262.09
724.26	261.74
724.59	261.34
724.92	260.92
725.25	260.60
725.59	260.24
725.92	259.90
726.25	259.59
726.58	259.32
726.91	258.93
727.24	258.49
727.57	258.25
727.91	257.94
728.24	257.63
728.57	257.31
728.90	257.01
729.23	256.75
729.56	256.52
729.89	256.03
730.22	255.71
730.55	255.48
730.89	255.09
731.22	254.81
731.55	254.50
731.88	254.23
732.21	253.90
732.54	253.64
732.87	253.39
733.20	253.25
733.53	252.91
733.86	252.76
734.19	252.61
734.52	252.36
734.85	252.20
735.18	251.89
735.51	251.66
735.84	251.44
736.17	251.14
736.50	250.63
736.83	250.73
737.16	250.45
737.49	250.20
737.82	250.00
738.15	249.87
738.48	249.61
738.81	249.37
739.14	249.20
739.47	248.93
739.80	248.63
740.13	248.32
740.46	248.20
740.79	247.84
741.12	247.62
741.45	247.40
741.78	247.16
742.11	246.99
742.44	246.77
742.77	246.63
743.10	246.43
743.43	246.34
743.75	245.95
744.08	246.15
744.41	245.95
744.74	245.76
745.07	245.52
745.40	245.48
745.73	245.42
746.06	245.16
746.39	244.95
746.71	244.81
747.04	244.60
747.37	244.31
747.70	244.30
748.03	244.15
748.36	244.05
748.68	243.85
749.01	243.70
749.34	243.51
749.67	243.32
750.00	243.20
750.33	243.24
750.65	243.00
750.98	242.48
751.31	242.41
751.64	242.31
751.97	242.34
752.29	242.09
752.62	241.91
752.95	241.93
753.28	241.88
753.60	241.76
753.93	241.78
754.26	241.72
754.59	241.59
754.91	241.48
755.24	241.26
755.57	241.20
755.90	241.12
756.22	240.98
756.55	240.89
756.88	240.77
757.20	240.49
757.53	240.42
757.86	240.34
758.19	240.25
758.51	240.11
758.84	239.84
759.17	239.73
759.49	239.57
759.82	239.48
760.15	239.26
760.47	239.30
760.80	239.14
761.13	239.15
761.45	239.09
761.78	238.99
762.11	239.03
762.43	238.83
762.76	238.60
763.08	238.56
763.41	238.50
763.74	238.36
764.06	238.24
764.39	238.13
764.71	238.00
765.04	237.89
765.37	237.79
765.69	237.71
766.02	237.63
766.34	237.54
766.67	237.38
767.00	237.51
767.32	237.43
767.65	237.48
767.97	237.34
768.30	237.15
768.62	236.96
768.95	236.72
769.27	236.70
769.60	236.67
769.92	236.58
770.25	236.54
770.57	236.44
770.90	236.39
771.22	236.27
771.55	236.17
771.87	235.99
772.20	235.93
772.52	235.89
772.85	235.98
773.17	235.87
773.50	235.72
773.82	235.44
774.15	235.25
774.47	235.08
774.80	234.98
775.12	234.93
775.45	235.00
775.77	234.85
776.09	234.68
776.42	234.56
776.74	234.54
777.07	234.35
777.39	234.28
777.72	234.11
778.04	234.07
778.36	234.02
778.69	233.94
779.01	233.87
779.33	233.76
779.66	233.61
779.98	233.48
780.31	233.44
780.63	233.52
780.95	233.50
781.28	233.31
781.60	233.20
781.92	233.17
782.25	232.93
782.57	233.07
782.89	233.03
783.22	233.02
783.54	232.92
783.86	232.88
784.19	232.82
784.51	232.91
784.83	232.92
785.16	232.90
785.48	232.80
785.80	232.65
786.12	232.62
786.45	232.45
786.77	232.54
787.09	232.54
787.42	232.46
787.74	232.46
788.06	232.48
788.38	232.44
788.71	232.32
789.03	232.30
789.35	232.25
789.67	232.18
789.99	232.23
790.32	232.20
790.64	232.14
790.96	232.27
791.28	232.17
791.61	232.13
791.93	232.10
792.25	232.18
792.57	232.33
792.89	232.26
793.21	232.31
793.54	232.30
793.86	232.23
794.18	232.25
794.50	232.15
794.82	232.11
795.14	232.15
795.47	232.15
795.79	232.19
796.11	232.15
796.43	232.19
796.75	232.18
797.07	232.11
797.39	232.06
797.71	231.91
798.04	231.89
798.36	231.85
798.68	231.84
799.00	231.84
799.32	231.78
799.64	231.76
799.96	231.66
800.28	231.65
800.60	231.61
800.92	231.56
801.24	231.55
801.56	231.59
801.89	231.54
802.21	231.55
802.53	231.52
802.85	231.48
803.17	231.61
803.49	231.51
803.81	231.55
804.13	231.55
804.45	231.45
804.77	231.41
805.09	231.42
805.41	231.44
805.73	231.32
806.05	231.26
806.37	231.23
806.69	231.25
807.01	231.20
807.33	231.20
807.65	231.10
807.97	231.10
808.28	231.08
808.60	231.00
808.92	230.90
809.24	230.97
809.56	230.88
809.88	230.72
810.20	230.70
810.52	230.67
810.84	230.66
811.16	230.55
811.48	230.56
811.80	230.58
812.12	230.46
812.43	230.61
812.75	230.60
813.07	230.66
813.39	230.63
813.71	230.56
814.03	230.45
814.35	230.46
814.67	230.42
814.98	230.31
815.30	230.30
815.62	230.30
815.94	230.20
816.26	230.20
816.58	230.13
816.89	230.08
817.21	229.93
817.53	229.91
817.85	229.94
818.17	229.80
818.48	229.72
818.80	229.63
819.12	229.42
819.44	229.37
819.76	229.22
820.07	229.14
820.39	229.14
820.71	229.14
821.03	229.05
821.34	229.04
821.66	229.07
821.98	229.05
822.30	229.12
822.61	229.14
822.93	229.15
823.25	229.16
823.57	229.05
823.88	229.14
824.20	229.19
824.52	229.30
824.83	229.32
825.15	229.24
825.47	229.28
825.79	229.31
826.10	229.30
826.42	229.34
826.74	229.38
827.05	229.33
827.37	229.40
827.69	229.43
828.00	229.30
828.32	229.28
828.64	229.15
828.95	229.18
829.27	229.18
829.58	229.05
829.90	229.01
830.22	229.11
830.53	229.09
830.85	229.06
831.17	228.97
831.48	229.08
831.80	229.13
832.11	229.16
832.43	229.22
832.75	229.19
833.06	229.34
833.38	229.30
833.69	229.33
834.01	229.32
834.32	229.34
834.64	229.44
834.96	229.52
835.27	229.69
835.59	229.70
835.90	229.72
836.22	229.90
836.53	230.09
836.85	230.10
837.16	230.30
837.48	230.27
837.79	230.34
838.11	230.43
838.42	230.47
838.74	230.49
839.05	230.43
839.37	230.44
839.68	230.30
840.00	230.26
840.31	230.37
840.63	230.38
840.94	230.25
841.26	230.16
841.57	230.27
841.88	230.18
842.20	230.06
842.51	230.00
842.83	229.98
843.14	229.99
843.46	230.01
843.77	229.90
844.08	229.91
844.40	229.85
844.71	229.77
845.03	229.70
845.34	229.79
845.65	229.78
845.97	229.84
846.28	229.82
846.60	229.85
846.91	229.73
847.22	229.75
847.54	229.87
847.85	229.94
848.16	229.72
848.48	229.73
848.79	229.89
849.10	229.86
849.42	229.79
849.73	229.59
850.04	229.58
850.36	229.47
850.67	229.50
850.98	229.46
851.30	229.41
851.61	229.40
851.92	229.24
852.23	229.37
852.55	229.31
852.86	229.21
853.17	229.27
853.49	229.31
853.80	229.22
854.11	229.25
854.42	229.27
854.74	229.23
855.05	229.21
855.36	228.97
855.67	228.97
855.99	229.05
856.30	229.20
856.61	229.13
856.92	229.07
857.23	228.96
857.55	228.94
857.86	228.83
858.17	228.82
858.48	228.83
858.79	228.70
859.11	228.73
859.42	228.83
859.73	228.77
860.04	228.75
860.35	228.66
860.66	228.51
860.98	228.58
861.29	228.67
861.60	228.57
861.91	228.58
862.22	228.58
862.53	228.50
862.84	228.17
863.16	228.27
863.47	228.32
863.78	228.42
864.09	228.44
864.40	228.43
864.71	228.43
865.02	228.44
865.33	228.35
865.64	228.28
865.95	228.21
866.27	228.41
866.58	228.39
866.89	228.51
867.20	228.57
867.51	228.40
867.82	228.32
868.13	228.44
868.44	228.43
868.75	228.38
869.06	228.23
869.37	228.41
869.68	228.27
869.99	228.28
870.30	228.34
870.61	228.37
870.92	228.45
871.23	228.44
871.54	228.47
871.85	228.64
872.16	228.72
872.47	228.80
872.78	228.64
873.09	228.62
873.40	228.57
873.71	228.61
874.02	228.63
874.33	228.65
874.64	228.65
874.95	228.80
875.26	228.89
875.56	228.95
875.87	229.00
876.18	229.02
876.49	229.15
876.80	228.99
877.11	228.86
877.42	228.93
877.73	228.90
878.04	228.88
878.35	228.80
878.66	228.73
878.96	228.68
879.27	228.66
879.58	228.71
879.89	228.76
880.20	228.82
880.51	228.79
880.82	228.82
881.12	228.90
881.43	228.83
881.74	228.82
882.05	228.90
882.36	228.82
882.67	228.84
882.97	228.71
883.28	228.78
883.59	228.88
883.90	228.91
884.21	228.95
884.51	228.89
884.82	228.83
885.13	228.78
885.44	228.80
885.74	228.90
886.05	228.89
886.36	228.82
886.67	228.66
886.98	228.84
887.28	228.74
887.59	228.61
887.90	228.60
888.20	228.40
888.51	228.32
888.82	228.32
889.13	228.22
889.43	228.37
889.74	228.35
890.05	228.32
890.35	228.23
890.66	228.25
890.97	228.24
891.28	228.31
891.58	228.36
891.89	228.29
892.20	228.20
892.50	228.03
892.81	228.00
893.12	228.10
893.42	227.81
893.73	227.88
894.04	227.83
894.34	227.80
894.65	227.90
894.95	227.99
895.26	227.96
895.57	228.14
895.87	227.88
896.18	227.84
896.48	227.90
896.79	227.89
897.10	227.85
897.40	227.92
897.71	227.88
898.01	227.94
898.32	228.01
898.63	227.97
898.93	228.01
899.24	228.05
899.54	228.01
899.85	228.16
900.15	228.14
900.46	228.30
900.76	228.35
901.07	228.42
901.38	228.43
901.68	228.51
901.99	228.42
902.29	228.56
902.60	228.63
902.90	228.61
903.21	228.59
903.51	228.57
903.82	228.71
904.12	228.74
904.43	228.67
904.73	228.61
905.03	228.67
905.34	228.90
905.64	229.06
905.95	229.08
906.25	229.08
906.56	229.10
906.86	229.10
907.17	229.14
907.47	229.22
907.77	229.19
908.08	229.18
908.38	229.12
908.69	229.11
908.99	229.09
909.30	229.07
909.60	229.11
909.90	229.15
910.21	228.98
910.51	228.97
910.81	228.99
911.12	229.11
911.42	229.19
911.73	229.04
912.03	228.95
912.33	228.99
912.64	228.99
912.94	228.89
913.24	228.82
913.55	228.86
913.85	228.84
914.15	228.80
914.46	228.80
914.76	228.76
915.06	228.77
915.37	228.77
915.67	228.75
915.97	228.75
916.27	228.80
916.58	228.80
916.88	228.82
917.18	228.92
917.49	228.98
917.79	228.91
918.09	228.95
918.39	229.03
918.70	228.97
919.00	228.93
919.30	229.16
919.60	229.12
919.91	229.00
920.21	228.90
920.51	228.99
920.81	228.97
921.12	229.14
921.42	229.07
921.72	229.05
922.02	229.03
922.32	229.09
922.63	228.98
922.93	229.20
923.23	229.21
923.53	229.07
923.83	228.93
924.13	229.02
924.44	228.96
924.74	228.92
925.04	229.03
925.34	229.07
925.64	228.88
925.94	228.88
926.24	229.03
926.55	229.00
926.85	228.91
927.15	228.81
927.45	228.79
927.75	228.80
928.05	228.89
928.35	228.96
928.65	228.99
928.95	228.96
929.26	228.85
929.56	228.84
929.86	228.87
930.16	228.80
930.46	228.64
930.76	228.70
931.06	228.62
931.36	228.50
931.66	228.48
931.96	228.60
932.26	228.60
932.56	228.50
932.86	228.62
933.16	228.61
933.46	228.63
933.76	228.56
934.06	228.57
934.36	228.49
934.66	228.46
934.96	228.42
935.26	228.48
935.56	228.43
935.86	228.42
936.16	228.46
936.46	228.52
936.76	228.48
937.06	228.38
937.36	228.41
937.66	228.39
937.96	228.38
938.26	228.28
938.56	228.30
938.86	228.27
939.16	228.18
939.46	228.21
939.76	228.20
940.06	228.17
940.35	228.15
940.65	228.09
940.95	228.17
941.25	228.16
941.55	228.15
941.85	228.10
942.15	227.95
942.45	228.01
942.75	228.00
943.04	228.09
943.34	228.13
943.64	228.10
943.94	228.18
944.24	228.18
944.54	228.15
944.84	228.15
945.13	228.14
945.43	228.14
945.73	228.15
946.03	228.10
946.33	228.11
946.62	228.03
946.92	228.02
947.22	227.98
947.52	227.88
947.82	227.88
948.11	227.90
948.41	228.02
948.71	227.93
949.01	227.93
949.31	227.94
949.60	227.95
949.90	227.93
950.20	227.86
950.50	227.85
950.79	227.90
951.09	227.89
951.39	227.90
951.69	227.88
951.98	227.90
952.28	228.03
952.58	228.03
952.87	228.04
953.17	228.11
953.47	228.00
953.76	228.03
954.06	228.01
954.36	228.06
954.66	228.04
954.95	228.09
955.25	228.16
955.55	228.06
955.84	228.02
956.14	228.09
956.44	228.17
956.73	228.14
957.03	228.14
957.32	228.17
957.62	228.16
957.92	228.23
958.21	228.27
958.51	228.38
958.81	228.33
959.10	228.40
959.40	228.43
959.69	228.56
959.99	228.49
960.29	228.57
960.58	228.52
960.88	228.64
961.17	228.65
961.47	228.66
961.76	228.80
962.06	228.85
962.36	228.92
962.65	228.95
962.95	228.96
963.24	228.93
963.54	228.98
963.83	229.06
964.13	228.91
964.42	228.83
964.72	228.81
965.01	228.90
965.31	228.90
965.60	228.90
965.90	228.93
966.19	229.01
966.49	228.85
966.78	228.87
967.08	228.81
967.37	228.80
967.67	228.75
967.96	228.58
968.26	228.58
968.55	228.42
968.85	228.36
969.14	228.42
969.43	228.54
969.73	228.49
970.02	228.42
970.32	228.58
970.61	228.56
970.91	228.40
971.20	228.37
971.49	228.39
971.79	228.29
972.08	228.13
972.38	228.11
972.67	228.22
972.96	228.23
973.26	228.15
973.55	228.29
973.85	228.30
974.14	228.41
974.43	228.39
974.73	228.45
975.02	228.43
975.31	228.39
975.61	228.25
975.90	228.18
976.19	228.05
976.49	227.99
976.78	228.01
977.07	227.99
977.37	227.99
977.66	227.98
977.95	228.06
978.24	228.09
978.54	228.18
978.83	228.27
979.12	228.15
979.42	228.20
979.71	227.93
980.00	227.85
980.29	227.84
980.59	227.93
980.88	227.98
981.17	227.97
981.46	227.94
981.76	227.96
982.05	228.08
982.34	228.22
982.63	228.24
982.93	228.28
983.22	228.39
983.51	228.34
983.80	228.33
984.09	228.33
984.39	228.36
984.68	228.27
984.97	228.14
985.26	228.14
985.55	228.06
985.85	228.17
986.14	228.19
986.43	228.22
986.72	228.12
987.01	228.05
987.30	228.08
987.59	228.20
987.89	228.21
988.18	228.21
988.47	228.21
988.76	228.23
989.05	228.24
989.34	228.20
989.63	228.41
989.92	228.44
990.22	228.44
990.51	228.50
990.80	228.58
991.09	228.64
991.38	228.72
991.67	228.76
991.96	228.84
992.25	228.93
992.54	228.95
992.83	228.98
993.12	229.09
993.41	229.13
993.70	229.14
993.99	229.19
994.28	229.10
994.58	229.06
994.87	229.04
995.16	229.01
995.45	228.99
995.74	228.85
996.03	228.87
996.32	228.92
996.61	228.96
996.90	228.86
997.19	228.93
997.48	229.03
997.77	229.05
998.06	228.92
998.34	228.87
998.63	228.80
998.92	228.84
999.21	228.72
999.50	228.75
999.79	228.71
1000.08	228.71
1000.37	228.80
1000.66	228.85
1000.95	228.86
1001.24	228.92
1001.53	228.96
1001.82	229.01
1002.11	229.03
1002.40	229.02
1002.68	229.04
1002.97	229.24
1003.26	229.18
1003.55	229.08
1003.84	229.11
1004.13	229.17
1004.42	229.12
1004.71	229.17
1004.99	229.13
1005.28	229.22
1005.57	229.16
1005.86	229.07
1006.15	229.05
1006.44	229.00
1006.72	228.97
1007.01	228.95
1007.30	228.84
1007.59	228.80
1007.88	228.68
1008.17	228.60
1008.45	228.48
1008.74	228.35
1009.03	228.22
1009.32	228.17
1009.60	228.14
1009.89	228.11
1010.18	228.10
1010.47	228.05
1010.76	228.02
1011.04	227.88
1011.33	227.90
1011.62	227.89
1011.91	227.86
1012.19	227.89
1012.48	227.81
1012.77	227.79
1013.05	227.88
1013.34	227.98
1013.63	227.92
1013.92	227.92
1014.20	227.90
1014.49	227.81
1014.78	227.91
1015.06	227.78
1015.35	227.72
1015.64	227.76
1015.92	227.83
1016.21	227.81
1016.50	227.91
1016.78	228.01
1017.07	228.03
1017.36	227.89
1017.64	227.82
1017.93	227.87
1018.22	227.81
1018.50	227.86
1018.79	227.91
1019.08	227.82
1019.36	227.75
1019.65	227.82
1019.93	228.00
1020.22	228.09
1020.51	228.41
1020.79	228.38
1021.08	228.00
1021.36	227.80
1021.65	229.10
1021.94	228.20
1022.22	227.60
1022.51	228.30
1022.79	230.60
1023.08	229.20
1023.36	232.10
1023.65	228.90
>>>>>End Processed Spectral Data<<<<<
