SpectraSuite Data File
++++++++++++++++++++++++++++++++++++
Date: Fri Feb 01 14:41:16 EST 2013
User: group
Dark Spectrum Present: No
Reference Spectrum Present: No
Number of Sampled Component Spectra: 1
Spectrometers: USB2E7196
Integration Time (usec): 70000 (USB2E7196)
Spectra Averaged: 10 (USB2E7196)
Boxcar Smoothing: 10 (USB2E7196)
Correct for Electrical Dark: No (USB2E7196)
Strobe/Lamp Enabled: No (USB2E7196)
Correct for Detector Non-linearity: No (USB2E7196)
Correct for Stray Light: No (USB2E7196)
Number of Pixels in Processed Spectrum: 2048
>>>>>Begin Processed Spectral Data<<<<<
339.09	0.00
339.48	215.20
339.86	217.00
340.24	218.80
340.63	218.90
341.01	224.20
341.39	224.60
341.78	223.40
342.16	225.70
342.54	224.90
342.93	214.17
343.31	224.99
343.69	225.52
344.07	225.95
344.46	226.37
344.84	226.74
345.22	226.90
345.60	227.04
345.99	227.26
346.37	227.26
346.75	227.39
347.13	227.48
347.52	227.40
347.90	227.48
348.28	227.57
348.66	227.57
349.05	227.55
349.43	227.50
349.81	227.51
350.19	227.58
350.57	227.62
350.96	227.77
351.34	227.84
351.72	227.89
352.10	227.96
352.48	228.00
352.87	228.07
353.25	228.14
353.63	228.19
354.01	228.26
354.39	228.43
354.77	228.53
355.15	228.59
355.54	228.63
355.92	228.68
356.30	228.81
356.68	228.99
357.06	229.05
357.44	229.14
357.82	229.13
358.20	229.11
358.58	229.21
358.97	229.22
359.35	229.35
359.73	229.47
360.11	229.62
360.49	229.71
360.87	229.73
361.25	229.77
361.63	229.93
362.01	229.93
362.39	229.86
362.77	229.86
363.15	229.92
363.53	229.91
363.91	229.84
364.29	229.82
364.67	229.68
365.05	229.71
365.43	229.78
365.81	229.87
366.19	230.06
366.57	230.05
366.95	229.92
367.33	229.85
367.71	229.87
368.09	229.88
368.47	229.86
368.85	229.90
369.23	229.92
369.61	229.80
369.99	229.93
370.37	230.07
370.75	230.16
371.13	229.96
371.51	229.97
371.89	229.95
372.27	229.97
372.65	229.86
373.03	229.75
373.41	229.73
373.78	229.69
374.16	229.44
374.54	229.38
374.92	229.47
375.30	229.43
375.68	229.28
376.06	229.20
376.44	229.20
376.82	229.11
377.19	229.08
377.57	229.08
377.95	228.90
378.33	228.74
378.71	228.48
379.09	228.49
379.47	228.42
379.84	228.39
380.22	228.16
380.60	228.13
380.98	228.10
381.36	227.97
381.73	227.91
382.11	228.01
382.49	228.00
382.87	227.85
383.25	227.78
383.62	228.02
384.00	227.98
384.38	227.85
384.76	227.83
385.13	227.75
385.51	227.68
385.89	227.58
386.27	227.62
386.64	227.69
387.02	227.70
387.40	227.71
387.78	227.75
388.15	227.87
388.53	227.81
388.91	227.82
389.29	227.90
389.66	227.89
390.04	227.72
390.42	227.78
390.79	227.84
391.17	227.78
391.55	227.51
391.92	227.41
392.30	227.36
392.68	227.27
393.05	227.30
393.43	227.35
393.81	227.46
394.18	227.40
394.56	227.42
394.94	227.48
395.31	227.40
395.69	227.49
396.06	227.50
396.44	227.64
396.82	227.60
397.19	227.68
397.57	227.71
397.95	227.87
398.32	227.85
398.70	227.93
399.07	228.11
399.45	228.23
399.82	228.35
400.20	228.50
400.58	228.68
400.95	228.81
401.33	228.86
401.70	229.01
402.08	229.17
402.45	229.33
402.83	229.50
403.20	229.79
403.58	229.84
403.95	230.10
404.33	230.29
404.71	230.49
405.08	230.65
405.46	230.91
405.83	231.08
406.21	231.15
406.58	231.33
406.96	231.54
407.33	231.81
407.70	232.06
408.08	232.46
408.45	232.67
408.83	232.82
409.20	233.19
409.58	233.33
409.95	233.62
410.33	233.90
410.70	234.20
411.08	234.50
411.45	234.83
411.82	235.11
412.20	235.44
412.57	235.98
412.95	236.34
413.32	236.77
413.69	237.23
414.07	237.82
414.44	238.41
414.82	238.93
415.19	239.67
415.56	240.40
415.94	240.99
416.31	241.80
416.68	242.68
417.06	243.41
417.43	244.34
417.81	245.29
418.18	246.28
418.55	247.25
418.93	248.23
419.30	249.32
419.67	250.37
420.04	251.66
420.42	252.80
420.79	254.21
421.16	255.61
421.54	257.21
421.91	258.65
422.28	260.11
422.66	261.71
423.03	263.22
423.40	264.83
423.77	266.50
424.15	268.32
424.52	269.98
424.89	272.03
425.26	273.77
425.64	275.46
426.01	277.34
426.38	279.30
426.75	281.32
427.13	283.38
427.50	285.60
427.87	287.70
428.24	289.90
428.61	291.99
428.99	294.38
429.36	296.80
429.73	299.27
430.10	301.73
430.47	304.19
430.85	306.59
431.22	309.14
431.59	312.01
431.96	314.58
432.33	317.53
432.70	320.18
433.08	323.60
433.45	326.79
433.82	329.79
434.19	333.21
434.56	336.60
434.93	339.79
435.30	342.90
435.68	346.25
436.05	349.55
436.42	352.87
436.79	355.86
437.16	358.92
437.53	362.35
437.90	365.73
438.27	368.98
438.64	372.55
439.01	375.70
439.38	378.35
439.75	381.01
440.13	384.11
440.50	386.80
440.87	388.97
441.24	391.13
441.61	393.75
441.98	395.47
442.35	397.59
442.72	399.77
443.09	401.74
443.46	402.91
443.83	403.67
444.20	404.13
444.57	405.03
444.94	405.42
445.31	405.80
445.68	406.14
446.05	406.09
446.42	405.34
446.79	404.70
447.16	403.96
447.53	403.44
447.90	401.94
448.27	400.65
448.64	398.64
449.01	397.26
449.37	394.86
449.74	392.60
450.11	389.87
450.48	386.70
450.85	383.80
451.22	381.16
451.59	378.79
451.96	376.51
452.33	373.33
452.70	370.42
453.07	366.89
453.43	363.44
453.80	360.26
454.17	357.11
454.54	354.07
454.91	350.83
455.28	347.58
455.65	344.50
456.02	341.72
456.38	339.17
456.75	335.95
457.12	333.20
457.49	330.61
457.86	327.91
458.23	325.87
458.59	323.43
458.96	321.10
459.33	318.73
459.70	316.45
460.07	314.61
460.43	312.60
460.80	310.66
461.17	308.84
461.54	306.96
461.91	305.16
462.27	303.43
462.64	301.90
463.01	300.30
463.38	298.84
463.74	296.94
464.11	295.50
464.48	294.32
464.85	293.16
465.21	292.09
465.58	291.09
465.95	289.76
466.32	288.72
466.68	287.62
467.05	286.53
467.42	285.41
467.78	284.30
468.15	283.20
468.52	282.44
468.88	281.36
469.25	280.50
469.62	279.76
469.98	278.99
470.35	278.19
470.72	277.42
471.08	276.46
471.45	275.88
471.82	275.15
472.18	274.41
472.55	273.69
472.92	272.92
473.28	272.22
473.65	271.62
474.02	270.82
474.38	270.14
474.75	269.69
475.11	269.22
475.48	268.82
475.85	268.44
476.21	268.02
476.58	267.64
476.94	267.29
477.31	266.97
477.67	266.53
478.04	266.40
478.41	266.16
478.77	266.12
479.14	265.87
479.50	265.77
479.87	265.66
480.23	265.53
480.60	265.41
480.96	265.35
481.33	265.40
481.69	265.60
482.06	265.77
482.42	265.80
482.79	265.87
483.15	265.92
483.52	266.04
483.88	266.20
484.25	266.38
484.61	266.52
484.98	266.69
485.34	267.08
485.71	267.41
486.07	267.83
486.44	268.06
486.80	268.41
487.17	268.77
487.53	269.32
487.90	269.84
488.26	270.46
488.62	271.18
488.99	271.65
489.35	272.26
489.72	273.11
490.08	273.99
490.44	274.90
490.81	275.94
491.17	276.90
491.54	277.97
491.90	279.20
492.26	280.45
492.63	281.84
492.99	283.12
493.36	284.55
493.72	286.03
494.08	287.80
494.45	289.74
494.81	291.67
495.17	293.59
495.54	295.79
495.90	297.84
496.26	300.06
496.63	302.57
496.99	305.19
497.35	307.79
497.72	310.57
498.08	313.51
498.44	316.64
498.80	320.02
499.17	323.49
499.53	327.03
499.89	330.84
500.26	334.61
500.62	338.85
500.98	343.04
501.34	347.49
501.71	352.14
502.07	356.85
502.43	361.88
502.79	366.92
503.16	372.38
503.52	378.12
503.88	383.81
504.24	389.84
504.60	396.10
504.97	402.59
505.33	409.19
505.69	416.27
506.05	423.22
506.41	430.67
506.78	438.19
507.14	446.00
507.50	454.18
507.86	462.63
508.22	471.14
508.59	479.98
508.95	489.20
509.31	498.56
509.67	508.25
510.03	518.12
510.39	528.40
510.75	538.51
511.12	548.90
511.48	559.80
511.84	570.94
512.20	581.99
512.56	593.70
512.92	605.63
513.28	617.56
513.64	630.10
514.00	642.58
514.37	655.50
514.73	668.69
515.09	681.80
515.45	695.45
515.81	708.58
516.17	722.63
516.53	736.80
516.89	751.29
517.25	765.66
517.61	780.35
517.97	794.81
518.33	809.95
518.69	825.33
519.05	840.90
519.41	856.70
519.77	873.20
520.13	889.55
520.49	905.74
520.85	922.61
521.21	938.85
521.57	956.04
521.93	972.66
522.29	989.84
522.65	1006.84
523.01	1023.91
523.37	1041.50
523.73	1058.82
524.09	1075.90
524.45	1093.62
524.81	1111.70
525.17	1129.98
525.53	1149.06
525.89	1167.60
526.25	1186.30
526.61	1204.48
526.97	1223.00
527.33	1241.38
527.68	1259.68
528.04	1278.42
528.40	1296.23
528.76	1315.81
529.12	1334.55
529.48	1353.42
529.84	1371.84
530.20	1391.01
530.56	1410.58
530.91	1430.68
531.27	1450.10
531.63	1469.50
531.99	1488.50
532.35	1507.40
532.71	1525.69
533.07	1544.61
533.42	1563.12
533.78	1581.62
534.14	1600.43
534.50	1618.37
534.86	1636.65
535.21	1654.53
535.57	1673.28
535.93	1692.10
536.29	1709.85
536.65	1728.01
537.00	1745.80
537.36	1764.04
537.72	1781.47
538.08	1798.36
538.44	1814.72
538.79	1831.70
539.15	1848.20
539.51	1864.85
539.87	1881.90
540.22	1898.85
540.58	1915.20
540.94	1931.84
541.29	1947.74
541.65	1963.94
542.01	1980.57
542.37	1996.36
542.72	2011.95
543.08	2026.93
543.44	2042.19
543.79	2056.44
544.15	2070.22
544.51	2085.60
544.87	2100.13
545.22	2114.61
545.58	2128.47
545.94	2141.84
546.29	2155.39
546.65	2168.85
547.01	2181.47
547.36	2193.61
547.72	2205.93
548.07	2217.20
548.43	2228.77
548.79	2240.45
549.14	2251.16
549.50	2261.60
549.86	2272.00
550.21	2282.48
550.57	2293.31
550.92	2303.23
551.28	2313.16
551.64	2322.96
551.99	2331.90
552.35	2340.58
552.70	2349.61
553.06	2359.24
553.41	2368.76
553.77	2377.23
554.13	2385.97
554.48	2394.87
554.84	2403.44
555.19	2411.36
555.55	2419.83
555.90	2427.29
556.26	2434.87
556.61	2442.00
556.97	2448.77
557.32	2455.87
557.68	2463.20
558.03	2469.65
558.39	2476.46
558.74	2483.92
559.10	2490.97
559.45	2497.58
559.81	2505.05
560.16	2510.35
560.52	2515.15
560.87	2520.96
561.23	2525.78
561.58	2531.49
561.94	2536.44
562.29	2540.54
562.64	2544.89
563.00	2549.16
563.35	2554.27
563.71	2559.24
564.06	2564.42
564.42	2569.83
564.77	2574.41
565.12	2578.63
565.48	2582.64
565.83	2585.72
566.19	2588.53
566.54	2591.10
566.89	2593.78
567.25	2595.61
567.60	2599.20
567.96	2601.86
568.31	2603.19
568.66	2605.44
569.02	2606.83
569.37	2608.36
569.72	2610.08
570.08	2611.33
570.43	2612.07
570.78	2612.65
571.14	2612.39
571.49	2612.95
571.84	2612.99
572.20	2612.54
572.55	2611.76
572.90	2610.29
573.26	2609.61
573.61	2608.80
573.96	2607.67
574.31	2605.52
574.67	2603.01
575.02	2600.01
575.37	2598.00
575.72	2595.18
576.08	2593.40
576.43	2590.38
576.78	2587.51
577.13	2585.30
577.49	2582.62
577.84	2579.72
578.19	2576.12
578.54	2572.37
578.90	2567.79
579.25	2563.06
579.60	2558.30
579.95	2553.33
580.30	2548.58
580.66	2543.70
581.01	2538.33
581.36	2533.40
581.71	2529.20
582.06	2524.58
582.42	2519.20
582.77	2513.93
583.12	2509.05
583.47	2503.82
583.82	2499.17
584.17	2493.50
584.53	2487.85
584.88	2482.72
585.23	2477.04
585.58	2471.52
585.93	2466.27
586.28	2461.18
586.63	2455.95
586.98	2450.36
587.34	2445.12
587.69	2439.43
588.04	2433.74
588.39	2428.28
588.74	2421.51
589.09	2414.87
589.44	2407.41
589.79	2401.96
590.14	2395.77
590.49	2389.27
590.84	2381.66
591.19	2374.73
591.54	2367.08
591.89	2358.19
592.25	2350.26
592.60	2342.00
592.95	2333.96
593.30	2325.74
593.65	2317.53
594.00	2309.28
594.35	2302.40
594.70	2293.55
595.05	2286.20
595.40	2278.06
595.75	2269.70
596.10	2262.33
596.45	2254.91
596.80	2248.55
597.15	2241.18
597.50	2233.99
597.85	2226.82
598.19	2220.08
598.54	2212.57
598.89	2205.80
599.24	2199.83
599.59	2192.65
599.94	2186.24
600.29	2178.69
600.64	2171.29
600.99	2163.19
601.34	2155.78
601.69	2147.22
602.04	2140.64
602.39	2132.88
602.74	2125.70
603.08	2118.64
603.43	2111.84
603.78	2103.72
604.13	2095.42
604.48	2087.22
604.83	2078.70
605.18	2070.63
605.53	2061.50
605.87	2052.26
606.22	2044.03
606.57	2034.86
606.92	2026.45
607.27	2018.22
607.62	2010.80
607.96	2002.80
608.31	1995.31
608.66	1986.56
609.01	1977.97
609.36	1968.52
609.70	1958.46
610.05	1948.79
610.40	1939.82
610.75	1930.19
611.10	1921.21
611.44	1911.65
611.79	1902.56
612.14	1893.22
612.49	1883.18
612.83	1873.83
613.18	1864.28
613.53	1854.97
613.88	1845.53
614.22	1836.14
614.57	1826.10
614.92	1816.12
615.27	1806.96
615.61	1797.22
615.96	1787.74
616.31	1779.03
616.65	1770.93
617.00	1762.56
617.35	1754.07
617.70	1744.32
618.04	1734.40
618.39	1724.86
618.74	1716.29
619.08	1706.65
619.43	1697.54
619.78	1689.28
620.12	1680.30
620.47	1672.11
620.82	1662.72
621.16	1654.39
621.51	1645.67
621.85	1636.81
622.20	1627.23
622.55	1618.46
622.89	1609.84
623.24	1601.50
623.59	1592.85
623.93	1583.88
624.28	1575.41
624.62	1566.43
624.97	1558.01
625.32	1550.07
625.66	1542.01
626.01	1533.28
626.35	1524.87
626.70	1516.28
627.04	1507.64
627.39	1499.33
627.73	1490.51
628.08	1482.57
628.43	1473.66
628.77	1465.14
629.12	1456.61
629.46	1448.35
629.81	1438.95
630.15	1429.81
630.50	1420.68
630.84	1411.29
631.19	1401.71
631.53	1392.54
631.88	1383.52
632.22	1374.13
632.57	1365.46
632.91	1356.57
633.26	1347.78
633.60	1338.55
633.95	1329.71
634.29	1321.24
634.64	1313.28
634.98	1304.46
635.32	1295.96
635.67	1288.18
636.01	1279.92
636.36	1271.46
636.70	1263.81
637.05	1256.16
637.39	1248.80
637.73	1241.50
638.08	1234.48
638.42	1227.61
638.77	1220.40
639.11	1212.88
639.45	1205.71
639.80	1198.07
640.14	1190.70
640.49	1183.20
640.83	1175.80
641.17	1168.55
641.52	1160.72
641.86	1152.57
642.20	1145.88
642.55	1138.28
642.89	1130.60
643.23	1122.88
643.58	1116.19
643.92	1108.53
644.26	1101.08
644.61	1093.94
644.95	1086.44
645.29	1078.23
645.64	1070.33
645.98	1062.92
646.32	1055.70
646.66	1048.29
647.01	1040.66
647.35	1033.42
647.69	1026.60
648.04	1020.20
648.38	1012.84
648.72	1005.78
649.06	998.77
649.41	991.64
649.75	984.17
650.09	976.92
650.43	969.91
650.78	962.13
651.12	955.30
651.46	948.67
651.80	941.48
652.14	934.67
652.49	928.19
652.83	921.86
653.17	914.89
653.51	907.88
653.85	901.33
654.20	895.02
654.54	887.75
654.88	880.76
655.22	873.30
655.56	866.55
655.90	860.10
656.25	853.56
656.59	846.96
656.93	840.90
657.27	834.88
657.61	828.30
657.95	822.59
658.29	816.32
658.64	810.02
658.98	803.70
659.32	797.50
659.66	791.48
660.00	785.24
660.34	779.30
660.68	773.52
661.02	767.72
661.36	762.00
661.70	756.76
662.05	751.30
662.39	746.39
662.73	741.36
663.07	735.84
663.41	730.90
663.75	725.52
664.09	720.47
664.43	715.20
664.77	710.49
665.11	705.52
665.45	700.75
665.79	695.84
666.13	690.92
666.47	685.90
666.81	680.94
667.15	676.00
667.49	671.37
667.83	666.99
668.17	662.18
668.51	657.35
668.85	652.60
669.19	648.08
669.53	643.34
669.87	638.50
670.21	634.16
670.55	629.65
670.89	625.78
671.23	621.61
671.57	617.50
671.91	613.06
672.25	608.82
672.58	604.33
672.92	600.21
673.26	596.40
673.60	592.52
673.94	588.68
674.28	585.22
674.62	581.69
674.96	577.79
675.30	574.31
675.64	570.73
675.97	567.34
676.31	563.98
676.65	560.47
676.99	557.14
677.33	553.68
677.67	549.96
678.01	546.07
678.34	542.44
678.68	539.04
679.02	535.79
679.36	532.50
679.70	529.35
680.04	525.90
680.37	522.33
680.71	519.29
681.05	516.33
681.39	513.16
681.73	510.10
682.06	507.30
682.40	504.47
682.74	501.43
683.08	498.59
683.42	495.46
683.75	492.53
684.09	489.76
684.43	486.93
684.77	484.27
685.10	481.60
685.44	478.86
685.78	476.05
686.12	473.56
686.45	470.67
686.79	468.06
687.13	465.48
687.46	463.00
687.80	460.20
688.14	457.47
688.48	454.72
688.81	451.81
689.15	449.10
689.49	446.39
689.82	444.14
690.16	441.55
690.50	439.21
690.83	436.74
691.17	433.99
691.51	431.69
691.84	429.37
692.18	427.03
692.52	424.70
692.85	422.36
693.19	419.91
693.52	417.84
693.86	415.45
694.20	413.33
694.53	411.13
694.87	409.09
695.21	406.91
695.54	404.79
695.88	402.59
696.21	400.51
696.55	398.55
696.88	396.39
697.22	394.26
697.56	392.20
697.89	390.27
698.23	388.55
698.56	386.49
698.90	384.47
699.23	382.33
699.57	380.36
699.90	378.66
700.24	376.65
700.58	374.61
700.91	372.85
701.25	371.18
701.58	369.59
701.92	367.71
702.25	366.07
702.59	364.49
702.92	363.09
703.26	361.49
703.59	359.81
703.93	358.34
704.26	356.71
704.60	355.18
704.93	353.59
705.26	351.91
705.60	350.36
705.93	349.00
706.27	347.81
706.60	346.43
706.94	344.98
707.27	343.63
707.61	342.36
707.94	341.05
708.27	339.51
708.61	337.98
708.94	336.81
709.28	335.44
709.61	334.11
709.94	332.88
710.28	331.61
710.61	330.38
710.95	328.90
711.28	327.78
711.61	326.51
711.95	325.28
712.28	324.16
712.61	323.04
712.95	321.83
713.28	320.56
713.61	319.40
713.95	318.35
714.28	317.21
714.61	316.19
714.95	315.21
715.28	314.17
715.61	313.12
715.95	311.93
716.28	311.01
716.61	310.06
716.95	308.94
717.28	307.93
717.61	307.03
717.94	306.17
718.28	305.21
718.61	304.22
718.94	303.32
719.27	302.38
719.61	301.54
719.94	300.73
720.27	299.81
720.60	298.95
720.94	297.95
721.27	297.29
721.60	296.59
721.93	295.66
722.27	295.01
722.60	294.32
722.93	293.56
723.26	292.86
723.59	292.08
723.93	291.42
724.26	290.75
724.59	289.88
724.92	289.20
725.25	288.49
725.59	287.81
725.92	287.27
726.25	286.71
726.58	286.08
726.91	285.30
727.24	284.74
727.57	284.16
727.91	283.56
728.24	282.97
728.57	282.18
728.90	281.57
729.23	280.88
729.56	280.35
729.89	279.90
730.22	279.10
730.55	278.44
730.89	278.03
731.22	277.50
731.55	277.12
731.88	276.54
732.21	276.00
732.54	275.47
732.87	274.86
733.20	274.45
733.53	273.92
733.86	273.61
734.19	273.16
734.52	272.64
734.85	272.31
735.18	271.72
735.51	271.24
735.84	270.74
736.17	270.37
736.50	269.74
736.83	269.37
737.16	269.06
737.49	268.75
737.82	268.14
738.15	267.75
738.48	267.28
738.81	266.87
739.14	266.39
739.47	266.03
739.80	265.65
740.13	265.10
740.46	264.68
740.79	264.19
741.12	263.75
741.45	263.36
741.78	262.88
742.11	262.50
742.44	262.09
742.77	261.83
743.10	261.42
743.43	261.03
743.75	260.53
744.08	260.31
744.41	259.80
744.74	259.49
745.07	259.10
745.40	258.74
745.73	258.44
746.06	257.96
746.39	257.52
746.71	257.04
747.04	256.73
747.37	256.33
747.70	255.96
748.03	255.49
748.36	255.20
748.68	254.83
749.01	254.45
749.34	254.22
749.67	253.87
750.00	253.65
750.33	253.59
750.65	253.35
750.98	252.83
751.31	252.62
751.64	252.27
751.97	251.91
752.29	251.64
752.62	251.20
752.95	251.02
753.28	250.79
753.60	250.53
753.93	250.33
754.26	250.16
754.59	249.88
754.91	249.72
755.24	249.40
755.57	249.10
755.90	248.94
756.22	248.68
756.55	248.37
756.88	248.07
757.20	247.70
757.53	247.38
757.86	247.19
758.19	246.91
758.51	246.69
758.84	246.58
759.17	246.33
759.49	246.26
759.82	246.23
760.15	246.15
760.47	246.06
760.80	245.74
761.13	245.50
761.45	245.24
761.78	244.99
762.11	244.89
762.43	244.77
762.76	244.59
763.08	244.44
763.41	244.37
763.74	244.13
764.06	243.92
764.39	243.75
764.71	243.51
765.04	243.30
765.37	243.11
765.69	242.76
766.02	242.66
766.34	242.40
766.67	242.16
767.00	242.01
767.32	241.96
767.65	241.94
767.97	241.78
768.30	241.75
768.62	241.64
768.95	241.42
769.27	241.28
769.60	241.10
769.92	240.90
770.25	240.74
770.57	240.54
770.90	240.35
771.22	240.21
771.55	240.06
771.87	239.91
772.20	239.77
772.52	239.87
772.85	239.84
773.17	239.76
773.50	239.59
773.82	239.41
774.15	239.28
774.47	239.02
774.80	238.93
775.12	238.73
775.45	238.53
775.77	238.33
776.09	238.18
776.42	238.13
776.74	238.05
777.07	237.90
777.39	237.81
777.72	237.65
778.04	237.55
778.36	237.48
778.69	237.40
779.01	237.38
779.33	237.12
779.66	236.89
779.98	236.82
780.31	236.71
780.63	236.66
780.95	236.55
781.28	236.46
781.60	236.30
781.92	236.27
782.25	236.31
782.57	236.27
782.89	236.16
783.22	235.94
783.54	235.76
783.86	235.72
784.19	235.57
784.51	235.60
784.83	235.51
785.16	235.48
785.48	235.49
785.80	235.34
786.12	235.37
786.45	235.25
786.77	235.19
787.09	235.08
787.42	234.88
787.74	234.80
788.06	234.75
788.38	234.65
788.71	234.59
789.03	234.45
789.35	234.46
789.67	234.46
789.99	234.46
790.32	234.51
790.64	234.38
790.96	234.46
791.28	234.27
791.61	234.19
791.93	234.06
792.25	233.93
792.57	234.02
792.89	233.81
793.21	233.68
793.54	233.47
793.86	233.41
794.18	233.45
794.50	233.38
794.82	233.29
795.14	233.36
795.47	233.27
795.79	233.31
796.11	233.20
796.43	233.10
796.75	233.04
797.07	232.99
797.39	232.81
797.71	232.70
798.04	232.79
798.36	232.79
798.68	232.76
799.00	232.80
799.32	232.70
799.64	232.75
799.96	232.84
800.28	232.91
800.60	232.90
800.92	232.82
801.24	232.71
801.56	232.80
801.89	232.65
802.21	232.66
802.53	232.57
802.85	232.61
803.17	232.63
803.49	232.61
803.81	232.59
804.13	232.74
804.45	232.66
804.77	232.59
805.09	232.49
805.41	232.50
805.73	232.35
806.05	232.33
806.37	232.30
806.69	232.25
807.01	232.25
807.33	232.20
807.65	232.13
807.97	232.22
808.28	232.20
808.60	232.27
808.92	232.23
809.24	232.32
809.56	232.26
809.88	232.17
810.20	232.15
810.52	232.10
810.84	232.01
811.16	232.06
811.48	232.10
811.80	232.17
812.12	232.15
812.43	232.21
812.75	232.20
813.07	232.16
813.39	232.07
813.71	232.07
814.03	232.11
814.35	232.15
814.67	232.16
814.98	232.00
815.30	232.00
815.62	231.89
815.94	231.67
816.26	231.63
816.58	231.68
816.89	231.64
817.21	231.54
817.53	231.50
817.85	231.44
818.17	231.40
818.48	231.26
818.80	231.23
819.12	231.23
819.44	231.07
819.76	231.01
820.07	231.02
820.39	230.90
820.71	230.86
821.03	230.77
821.34	230.54
821.66	230.59
821.98	230.53
822.30	230.49
822.61	230.61
822.93	230.51
823.25	230.32
823.57	230.29
823.88	230.25
824.20	230.25
824.52	230.34
824.83	230.30
825.15	230.31
825.47	230.28
825.79	230.30
826.10	230.33
826.42	230.30
826.74	230.26
827.05	230.33
827.37	230.36
827.69	230.25
828.00	230.26
828.32	230.24
828.64	230.19
828.95	230.23
829.27	230.18
829.58	230.24
829.90	230.28
830.22	230.28
830.53	230.22
830.85	230.23
831.17	230.06
831.48	230.06
831.80	230.01
832.11	230.06
832.43	229.94
832.75	229.88
833.06	230.00
833.38	229.91
833.69	229.83
834.01	229.79
834.32	229.89
834.64	229.99
834.96	229.97
835.27	229.92
835.59	229.97
835.90	229.92
836.22	229.98
836.53	230.01
836.85	229.85
837.16	230.11
837.48	230.09
837.79	230.14
838.11	230.03
838.42	230.07
838.74	230.03
839.05	230.01
839.37	230.05
839.68	229.93
840.00	230.09
840.31	230.11
840.63	230.06
840.94	230.07
841.26	229.96
841.57	229.98
841.88	229.99
842.20	229.89
842.51	229.85
842.83	229.79
843.14	229.89
843.46	229.96
843.77	229.84
844.08	229.79
844.40	229.75
844.71	229.86
845.03	229.87
845.34	229.87
845.65	229.85
845.97	229.86
846.28	229.79
846.60	229.70
846.91	229.63
847.22	229.60
847.54	229.50
847.85	229.59
848.16	229.52
848.48	229.44
848.79	229.55
849.10	229.61
849.42	229.56
849.73	229.37
850.04	229.35
850.36	229.25
850.67	229.34
850.98	229.35
851.30	229.24
851.61	229.21
851.92	229.10
852.23	229.11
852.55	229.13
852.86	229.20
853.17	229.25
853.49	229.33
853.80	229.40
854.11	229.46
854.42	229.43
854.74	229.39
855.05	229.39
855.36	229.22
855.67	229.17
855.99	229.19
856.30	229.39
856.61	229.48
856.92	229.47
857.23	229.30
857.55	229.30
857.86	229.21
858.17	229.17
858.48	229.18
858.79	229.09
859.11	229.05
859.42	229.03
859.73	228.89
860.04	228.82
860.35	228.80
860.66	228.71
860.98	228.58
861.29	228.60
861.60	228.61
861.91	228.75
862.22	228.71
862.53	228.65
862.84	228.48
863.16	228.40
863.47	228.30
863.78	228.31
864.09	228.27
864.40	228.37
864.71	228.40
865.02	228.40
865.33	228.56
865.64	228.51
865.95	228.46
866.27	228.59
866.58	228.64
866.89	228.53
867.20	228.55
867.51	228.60
867.82	228.51
868.13	228.58
868.44	228.38
868.75	228.40
869.06	228.39
869.37	228.44
869.68	228.51
869.99	228.52
870.30	228.64
870.61	228.66
870.92	228.65
871.23	228.66
871.54	228.75
871.85	228.70
872.16	228.80
872.47	228.76
872.78	228.74
873.09	228.59
873.40	228.69
873.71	228.79
874.02	228.80
874.33	228.91
874.64	228.94
874.95	228.99
875.26	228.87
875.56	229.00
875.87	229.01
876.18	229.02
876.49	229.31
876.80	229.30
877.11	229.30
877.42	229.33
877.73	229.35
878.04	229.30
878.35	229.34
878.66	229.31
878.96	229.41
879.27	229.43
879.58	229.60
879.89	229.57
880.20	229.59
880.51	229.58
880.82	229.57
881.12	229.63
881.43	229.76
881.74	229.85
882.05	229.71
882.36	229.72
882.67	229.70
882.97	229.50
883.28	229.45
883.59	229.46
883.90	229.44
884.21	229.49
884.51	229.49
884.82	229.51
885.13	229.45
885.44	229.39
885.74	229.36
886.05	229.24
886.36	229.21
886.67	229.13
886.98	229.26
887.28	229.24
887.59	229.16
887.90	229.20
888.20	229.17
888.51	229.22
888.82	229.22
889.13	229.20
889.43	229.35
889.74	229.39
890.05	229.34
890.35	229.39
890.66	229.29
890.97	229.18
891.28	229.03
891.58	229.08
891.89	229.14
892.20	229.12
892.50	229.15
892.81	229.17
893.12	229.13
893.42	228.96
893.73	228.93
894.04	228.87
894.34	228.85
894.65	228.90
894.95	228.81
895.26	228.69
895.57	228.83
895.87	228.62
896.18	228.61
896.48	228.59
896.79	228.54
897.10	228.53
897.40	228.59
897.71	228.66
898.01	228.73
898.32	228.74
898.63	228.68
898.93	228.64
899.24	228.58
899.54	228.44
899.85	228.50
900.15	228.40
900.46	228.45
900.76	228.37
901.07	228.38
901.38	228.42
901.68	228.50
901.99	228.29
902.29	228.40
902.60	228.34
902.90	228.32
903.21	228.36
903.51	228.33
903.82	228.40
904.12	228.39
904.43	228.28
904.73	228.22
905.03	228.40
905.34	228.59
905.64	228.51
905.95	228.68
906.25	228.62
906.56	228.74
906.86	228.74
907.17	228.79
907.47	228.72
907.77	228.83
908.08	228.77
908.38	228.82
908.69	228.78
908.99	228.89
909.30	228.95
909.60	228.84
909.90	228.97
910.21	228.96
910.51	228.96
910.81	228.95
911.12	228.93
911.42	228.83
911.73	228.68
912.03	228.76
912.33	228.77
912.64	228.77
912.94	228.72
913.24	228.71
913.55	228.67
913.85	228.66
914.15	228.61
914.46	228.74
914.76	228.71
915.06	228.71
915.37	228.77
915.67	228.87
915.97	228.85
916.27	228.76
916.58	228.72
916.88	228.65
917.18	228.79
917.49	229.01
917.79	228.99
918.09	229.00
918.39	229.05
918.70	229.08
919.00	229.13
919.30	229.24
919.60	229.39
919.91	229.31
920.21	229.31
920.51	229.30
920.81	229.32
921.12	229.33
921.42	229.35
921.72	229.24
922.02	229.19
922.32	229.29
922.63	229.21
922.93	229.36
923.23	229.42
923.53	229.27
923.83	229.20
924.13	229.17
924.44	229.17
924.74	229.22
925.04	229.28
925.34	229.27
925.64	229.15
925.94	229.00
926.24	229.20
926.55	229.12
926.85	229.10
927.15	228.93
927.45	228.88
927.75	228.77
928.05	228.78
928.35	228.67
928.65	228.64
928.95	228.69
929.26	228.53
929.56	228.54
929.86	228.52
930.16	228.34
930.46	228.30
930.76	228.33
931.06	228.23
931.36	228.15
931.66	228.18
931.96	228.16
932.26	228.12
932.56	228.07
932.86	228.14
933.16	228.13
933.46	228.09
933.76	228.09
934.06	228.16
934.36	228.12
934.66	228.07
934.96	228.06
935.26	228.07
935.56	228.13
935.86	228.10
936.16	228.07
936.46	228.14
936.76	228.06
937.06	228.02
937.36	228.02
937.66	228.03
937.96	228.00
938.26	227.95
938.56	227.97
938.86	227.90
939.16	227.98
939.46	228.01
939.76	228.07
940.06	228.07
940.35	228.05
940.65	228.03
940.95	228.10
941.25	228.10
941.55	228.00
941.85	227.97
942.15	228.01
942.45	228.20
942.75	228.18
943.04	228.27
943.34	228.28
943.64	228.25
943.94	228.15
944.24	228.15
944.54	228.22
944.84	228.13
945.13	228.16
945.43	228.14
945.73	228.25
946.03	228.24
946.33	228.30
946.62	228.27
946.92	228.31
947.22	228.32
947.52	228.28
947.82	228.32
948.11	228.39
948.41	228.47
948.71	228.30
949.01	228.40
949.31	228.44
949.60	228.39
949.90	228.51
950.20	228.67
950.50	228.74
950.79	228.75
951.09	228.97
951.39	228.96
951.69	228.95
951.98	228.88
952.28	229.05
952.58	228.96
952.87	229.02
953.17	229.05
953.47	229.10
953.76	229.21
954.06	229.21
954.36	229.15
954.66	229.12
954.95	229.27
955.25	229.23
955.55	229.24
955.84	229.30
956.14	229.27
956.44	229.19
956.73	229.03
957.03	229.10
957.32	229.09
957.62	229.10
957.92	229.06
958.21	229.05
958.51	229.11
958.81	229.20
959.10	229.29
959.40	229.37
959.69	229.28
959.99	229.23
960.29	229.22
960.58	229.18
960.88	229.21
961.17	229.14
961.47	229.07
961.76	229.12
962.06	229.12
962.36	229.12
962.65	229.10
962.95	229.18
963.24	229.05
963.54	228.98
963.83	228.98
964.13	228.93
964.42	228.92
964.72	228.74
965.01	228.66
965.31	228.63
965.60	228.56
965.90	228.63
966.19	228.60
966.49	228.69
966.78	228.70
967.08	228.59
967.37	228.60
967.67	228.54
967.96	228.48
968.26	228.40
968.55	228.41
968.85	228.41
969.14	228.31
969.43	228.37
969.73	228.39
970.02	228.25
970.32	228.36
970.61	228.23
970.91	228.22
971.20	228.32
971.49	228.18
971.79	228.13
972.08	228.14
972.38	228.15
972.67	228.06
972.96	228.00
973.26	228.01
973.55	228.06
973.85	228.14
974.14	228.19
974.43	228.25
974.73	228.18
975.02	228.20
975.31	228.28
975.61	228.33
975.90	228.26
976.19	228.32
976.49	228.31
976.78	228.33
977.07	228.26
977.37	228.22
977.66	228.25
977.95	228.23
978.24	228.24
978.54	228.27
978.83	228.40
979.12	228.47
979.42	228.52
979.71	228.46
980.00	228.40
980.29	228.41
980.59	228.40
980.88	228.47
981.17	228.49
981.46	228.49
981.76	228.44
982.05	228.54
982.34	228.55
982.63	228.48
982.93	228.57
983.22	228.72
983.51	228.78
983.80	228.87
984.09	229.00
984.39	228.99
984.68	229.04
984.97	229.00
985.26	229.06
985.55	229.07
985.85	229.04
986.14	229.00
986.43	229.06
986.72	229.06
987.01	228.97
987.30	228.95
987.59	228.95
987.89	228.91
988.18	228.82
988.47	228.87
988.76	228.95
989.05	228.94
989.34	228.80
989.63	228.85
989.92	228.84
990.22	228.70
990.51	228.68
990.80	228.57
991.09	228.58
991.38	228.55
991.67	228.59
991.96	228.62
992.25	228.77
992.54	228.73
992.83	228.71
993.12	228.70
993.41	228.75
993.70	228.83
993.99	228.95
994.28	228.98
994.58	228.94
994.87	228.85
995.16	228.81
995.45	228.91
995.74	228.83
996.03	228.80
996.32	228.76
996.61	228.76
996.90	228.77
997.19	228.81
997.48	228.80
997.77	228.64
998.06	228.52
998.34	228.47
998.63	228.32
998.92	228.34
999.21	228.41
999.50	228.37
999.79	228.31
1000.08	228.23
1000.37	228.25
1000.66	228.24
1000.95	228.28
1001.24	228.28
1001.53	228.27
1001.82	228.20
1002.11	228.12
1002.40	228.24
1002.68	228.36
1002.97	228.50
1003.26	228.35
1003.55	228.34
1003.84	228.38
1004.13	228.51
1004.42	228.53
1004.71	228.60
1004.99	228.65
1005.28	228.65
1005.57	228.62
1005.86	228.58
1006.15	228.50
1006.44	228.49
1006.72	228.53
1007.01	228.47
1007.30	228.50
1007.59	228.41
1007.88	228.51
1008.17	228.46
1008.45	228.45
1008.74	228.30
1009.03	228.26
1009.32	228.28
1009.60	228.30
1009.89	228.26
1010.18	228.22
1010.47	228.15
1010.76	228.23
1011.04	228.19
1011.33	228.15
1011.62	228.19
1011.91	228.20
1012.19	228.24
1012.48	228.26
1012.77	228.16
1013.05	228.27
1013.34	228.29
1013.63	228.39
1013.92	228.30
1014.20	228.34
1014.49	228.28
1014.78	228.33
1015.06	228.23
1015.35	228.25
1015.64	228.23
1015.92	228.35
1016.21	228.37
1016.50	228.36
1016.78	228.28
1017.07	228.29
1017.36	228.21
1017.64	228.27
1017.93	228.25
1018.22	228.30
1018.50	228.20
1018.79	228.20
1019.08	228.08
1019.36	228.12
1019.65	228.06
1019.93	228.08
1020.22	228.10
1020.51	228.26
1020.79	228.20
1021.08	228.50
1021.36	226.40
1021.65	226.80
1021.94	226.60
1022.22	229.80
1022.51	227.90
1022.79	228.50
1023.08	227.70
1023.36	231.10
1023.65	227.80
>>>>>End Processed Spectral Data<<<<<
