SpectraSuite Data File
++++++++++++++++++++++++++++++++++++
Date: Fri Feb 01 14:41:31 EST 2013
User: group
Dark Spectrum Present: No
Reference Spectrum Present: No
Number of Sampled Component Spectra: 1
Spectrometers: USB2E7196
Integration Time (usec): 70000 (USB2E7196)
Spectra Averaged: 10 (USB2E7196)
Boxcar Smoothing: 10 (USB2E7196)
Correct for Electrical Dark: No (USB2E7196)
Strobe/Lamp Enabled: No (USB2E7196)
Correct for Detector Non-linearity: No (USB2E7196)
Correct for Stray Light: No (USB2E7196)
Number of Pixels in Processed Spectrum: 2048
>>>>>Begin Processed Spectral Data<<<<<
339.09	0.00
339.48	216.40
339.86	218.90
340.24	218.70
340.63	220.60
341.01	224.80
341.39	224.60
341.78	224.80
342.16	226.50
342.54	227.60
342.93	215.07
343.31	226.02
343.69	226.53
344.07	227.01
344.46	227.54
344.84	227.93
345.22	228.09
345.60	228.32
345.99	228.56
346.37	228.68
346.75	228.70
347.13	228.74
347.52	228.85
347.90	228.99
348.28	229.06
348.66	229.12
349.05	229.18
349.43	229.21
349.81	229.31
350.19	229.47
350.57	229.41
350.96	229.54
351.34	229.57
351.72	229.74
352.10	229.75
352.48	229.76
352.87	229.87
353.25	230.00
353.63	230.00
354.01	230.06
354.39	230.17
354.77	230.21
355.15	230.25
355.54	230.29
355.92	230.16
356.30	230.22
356.68	230.36
357.06	230.29
357.44	230.38
357.82	230.42
358.20	230.40
358.58	230.50
358.97	230.66
359.35	230.74
359.73	230.73
360.11	230.80
360.49	230.78
360.87	230.75
361.25	230.70
361.63	230.77
362.01	230.79
362.39	230.82
362.77	230.90
363.15	230.90
363.53	230.91
363.91	231.01
364.29	231.09
364.67	230.90
365.05	231.02
365.43	230.99
365.81	230.96
366.19	230.97
366.57	231.08
366.95	231.01
367.33	230.90
367.71	230.94
368.09	231.00
368.47	231.02
368.85	230.99
369.23	231.08
369.61	231.02
369.99	231.00
370.37	230.93
370.75	230.94
371.13	230.91
371.51	230.84
371.89	230.78
372.27	230.68
372.65	230.63
373.03	230.50
373.41	230.39
373.78	230.25
374.16	230.14
374.54	229.95
374.92	229.81
375.30	229.74
375.68	229.62
376.06	229.54
376.44	229.43
376.82	229.35
377.19	229.28
377.57	229.25
377.95	229.19
378.33	229.09
378.71	228.96
379.09	228.83
379.47	228.84
379.84	228.68
380.22	228.44
380.60	228.41
380.98	228.30
381.36	228.30
381.73	228.31
382.11	228.31
382.49	228.30
382.87	228.19
383.25	228.12
383.62	228.30
384.00	228.17
384.38	228.09
384.76	228.02
385.13	228.06
385.51	227.90
385.89	227.81
386.27	227.78
386.64	227.75
387.02	227.75
387.40	227.66
387.78	227.68
388.15	227.85
388.53	227.76
388.91	227.75
389.29	227.61
389.66	227.58
390.04	227.47
390.42	227.44
390.79	227.51
391.17	227.47
391.55	227.21
391.92	227.23
392.30	227.34
392.68	227.35
393.05	227.24
393.43	227.33
393.81	227.29
394.18	227.26
394.56	227.30
394.94	227.42
395.31	227.43
395.69	227.49
396.06	227.46
396.44	227.58
396.82	227.65
397.19	227.92
397.57	227.97
397.95	228.09
398.32	228.15
398.70	228.35
399.07	228.54
399.45	228.58
399.82	228.63
400.20	228.71
400.58	228.78
400.95	228.84
401.33	229.01
401.70	229.30
402.08	229.46
402.45	229.53
402.83	229.66
403.20	229.85
403.58	230.10
403.95	230.35
404.33	230.52
404.71	230.72
405.08	230.94
405.46	231.22
405.83	231.50
406.21	231.76
406.58	232.00
406.96	232.16
407.33	232.53
407.70	232.84
408.08	233.20
408.45	233.59
408.83	233.96
409.20	234.19
409.58	234.43
409.95	234.76
410.33	235.14
410.70	235.54
411.08	235.96
411.45	236.29
411.82	236.67
412.20	237.13
412.57	237.72
412.95	238.08
413.32	238.60
413.69	238.99
414.07	239.50
414.44	240.04
414.82	240.67
415.19	241.28
415.56	241.91
415.94	242.57
416.31	243.38
416.68	244.15
417.06	245.13
417.43	245.93
417.81	246.92
418.18	248.00
418.55	248.93
418.93	250.03
419.30	251.08
419.67	252.27
420.04	253.50
420.42	254.63
420.79	256.25
421.16	257.61
421.54	259.26
421.91	260.81
422.28	262.43
422.66	264.23
423.03	265.95
423.40	267.64
423.77	269.43
424.15	271.12
424.52	272.96
424.89	274.98
425.26	276.89
425.64	278.78
426.01	280.75
426.38	282.94
426.75	284.95
427.13	287.22
427.50	289.53
427.87	291.90
428.24	294.38
428.61	296.48
428.99	299.07
429.36	301.68
429.73	304.29
430.10	306.79
430.47	309.33
430.85	312.10
431.22	315.05
431.59	318.27
431.96	321.30
432.33	324.56
432.70	327.68
433.08	331.43
433.45	334.86
433.82	338.16
434.19	341.79
434.56	345.51
434.93	348.94
435.30	352.35
435.68	356.10
436.05	359.70
436.42	363.28
436.79	366.41
437.16	369.84
437.53	373.63
437.90	377.26
438.27	380.81
438.64	384.50
439.01	387.87
439.38	390.50
439.75	393.19
440.13	396.13
440.50	399.05
440.87	401.36
441.24	403.90
441.61	406.81
441.98	408.78
442.35	411.00
442.72	413.27
443.09	415.44
443.46	416.51
443.83	417.22
444.20	417.88
444.57	418.94
444.94	419.41
445.31	419.61
445.68	420.21
446.05	420.25
446.42	419.55
446.79	419.05
447.16	418.36
447.53	417.91
447.90	416.54
448.27	415.03
448.64	413.00
449.01	411.31
449.37	408.57
449.74	406.25
450.11	403.50
450.48	400.42
450.85	397.06
451.22	394.41
451.59	391.80
451.96	389.21
452.33	385.96
452.70	382.80
453.07	379.30
453.43	375.40
453.80	371.80
454.17	368.32
454.54	364.92
454.91	361.56
455.28	358.12
455.65	354.91
456.02	351.93
456.38	349.16
456.75	345.78
457.12	342.94
457.49	339.87
457.86	336.93
458.23	334.50
458.59	331.93
458.96	329.29
459.33	326.84
459.70	324.45
460.07	322.32
460.43	320.09
460.80	317.93
461.17	315.94
461.54	314.05
461.91	312.22
462.27	310.22
462.64	308.54
463.01	306.84
463.38	305.19
463.74	303.26
464.11	301.71
464.48	300.34
464.85	298.93
465.21	297.94
465.58	296.74
465.95	295.30
466.32	294.08
466.68	292.74
467.05	291.56
467.42	290.25
467.78	289.14
468.15	288.05
468.52	287.08
468.88	286.07
469.25	284.98
469.62	284.10
469.98	283.22
470.35	282.40
470.72	281.51
471.08	280.42
471.45	279.59
471.82	278.71
472.18	277.83
472.55	277.18
472.92	276.28
473.28	275.55
473.65	274.84
474.02	274.34
474.38	273.86
474.75	273.42
475.11	272.96
475.48	272.51
475.85	272.05
476.21	271.57
476.58	271.21
476.94	270.91
477.31	270.60
477.67	270.39
478.04	270.10
478.41	269.78
478.77	269.95
479.14	269.76
479.50	269.63
479.87	269.67
480.23	269.58
480.60	269.44
480.96	269.48
481.33	269.61
481.69	269.50
482.06	269.61
482.42	269.58
482.79	269.69
483.15	269.61
483.52	269.85
483.88	270.15
484.25	270.40
484.61	270.64
484.98	270.90
485.34	271.33
485.71	271.91
486.07	272.49
486.44	272.82
486.80	273.36
487.17	274.14
487.53	274.84
487.90	275.45
488.26	276.34
488.62	277.21
488.99	278.11
489.35	279.09
489.72	280.04
490.08	281.12
490.44	282.25
490.81	283.61
491.17	284.80
491.54	286.18
491.90	287.56
492.26	289.11
492.63	290.87
492.99	292.41
493.36	294.12
493.72	296.08
494.08	298.10
494.45	300.30
494.81	302.47
495.17	304.70
495.54	307.22
495.90	309.71
496.26	312.36
496.63	315.26
496.99	318.39
497.35	321.60
497.72	325.03
498.08	328.62
498.44	332.37
498.80	336.52
499.17	340.66
499.53	344.87
499.89	349.36
500.26	353.86
500.62	358.68
500.98	363.84
501.34	368.99
501.71	374.37
502.07	379.87
502.43	385.43
502.79	391.37
503.16	397.80
503.52	404.36
503.88	411.11
504.24	418.05
504.60	425.43
504.97	432.88
505.33	440.71
505.69	448.88
506.05	457.28
506.41	465.51
506.78	474.15
507.14	483.20
507.50	492.78
507.86	502.63
508.22	512.86
508.59	522.89
508.95	533.37
509.31	544.25
509.67	555.43
510.03	566.86
510.39	578.81
510.75	590.80
511.12	603.02
511.48	615.55
511.84	628.34
512.20	641.18
512.56	654.75
512.92	668.46
513.28	682.36
513.64	696.69
514.00	711.60
514.37	726.63
514.73	741.67
515.09	756.66
515.45	772.12
515.81	787.63
516.17	803.85
516.53	820.24
516.89	836.87
517.25	853.54
517.61	870.56
517.97	887.36
518.33	904.40
518.69	921.82
519.05	939.49
519.41	957.53
519.77	976.27
520.13	994.67
520.49	1013.21
520.85	1031.79
521.21	1050.36
521.57	1069.48
521.93	1088.13
522.29	1107.86
522.65	1127.12
523.01	1146.19
523.37	1165.22
523.73	1184.68
524.09	1204.26
524.45	1224.13
524.81	1244.30
525.17	1265.01
525.53	1285.67
525.89	1306.08
526.25	1326.90
526.61	1347.38
526.97	1367.87
527.33	1388.25
527.68	1408.88
528.04	1429.51
528.40	1450.40
528.76	1471.93
529.12	1493.04
529.48	1514.42
529.84	1534.80
530.20	1556.28
530.56	1578.08
530.91	1600.38
531.27	1622.04
531.63	1643.08
531.99	1664.19
532.35	1684.68
532.71	1704.50
533.07	1725.35
533.42	1745.83
533.78	1766.62
534.14	1787.00
534.50	1806.88
534.86	1826.85
535.21	1846.38
535.57	1866.80
535.93	1886.93
536.29	1906.07
536.65	1925.60
537.00	1944.77
537.36	1964.21
537.72	1983.02
538.08	2001.40
538.44	2019.43
538.79	2037.86
539.15	2056.05
539.51	2074.48
539.87	2093.44
540.22	2111.87
540.58	2130.09
540.94	2148.04
541.29	2165.04
541.65	2182.66
542.01	2200.66
542.37	2217.82
542.72	2234.89
543.08	2251.24
543.44	2267.59
543.79	2282.91
544.15	2298.46
544.51	2314.69
544.87	2330.47
545.22	2345.32
545.58	2360.37
545.94	2374.64
546.29	2388.67
546.65	2402.79
547.01	2416.11
547.36	2428.97
547.72	2441.86
548.07	2453.89
548.43	2466.16
548.79	2478.15
549.14	2489.87
549.50	2500.61
549.86	2511.57
550.21	2522.35
550.57	2533.10
550.92	2543.54
551.28	2554.15
551.64	2563.83
551.99	2573.30
552.35	2582.73
552.70	2592.83
553.06	2602.81
553.41	2612.71
553.77	2621.62
554.13	2630.63
554.48	2639.67
554.84	2648.26
555.19	2656.79
555.55	2664.95
555.90	2671.93
556.26	2679.75
556.61	2687.45
556.97	2694.64
557.32	2701.83
557.68	2708.86
558.03	2715.65
558.39	2722.00
558.74	2729.73
559.10	2736.62
559.45	2742.91
559.81	2749.27
560.16	2754.82
560.52	2759.66
560.87	2765.25
561.23	2770.32
561.58	2775.72
561.94	2780.34
562.29	2784.46
562.64	2788.74
563.00	2793.51
563.35	2799.42
563.71	2804.57
564.06	2809.08
564.42	2813.60
564.77	2818.05
565.12	2822.63
565.48	2826.48
565.83	2829.74
566.19	2832.41
566.54	2834.70
566.89	2837.29
567.25	2839.79
567.60	2842.71
567.96	2845.28
568.31	2846.87
568.66	2848.69
569.02	2850.37
569.37	2851.37
569.72	2853.06
570.08	2853.66
570.43	2853.85
570.78	2853.18
571.14	2852.30
571.49	2851.70
571.84	2852.65
572.20	2851.63
572.55	2850.16
572.90	2847.89
573.26	2846.63
573.61	2844.65
573.96	2843.34
574.31	2840.22
574.67	2836.94
575.02	2833.11
575.37	2829.80
575.72	2825.74
576.08	2822.30
576.43	2818.22
576.78	2814.59
577.13	2811.15
577.49	2808.05
577.84	2804.08
578.19	2800.31
578.54	2795.71
578.90	2790.70
579.25	2784.30
579.60	2779.06
579.95	2773.74
580.30	2768.44
580.66	2762.72
581.01	2756.57
581.36	2750.37
581.71	2745.81
582.06	2740.19
582.42	2734.59
582.77	2728.41
583.12	2722.65
583.47	2717.03
583.82	2711.61
584.17	2705.20
584.53	2698.53
584.88	2692.17
585.23	2685.83
585.58	2679.85
585.93	2673.88
586.28	2668.21
586.63	2662.60
586.98	2656.20
587.34	2649.90
587.69	2643.81
588.04	2637.44
588.39	2631.58
588.74	2624.10
589.09	2616.31
589.44	2608.53
589.79	2601.45
590.14	2594.72
590.49	2587.58
590.84	2579.52
591.19	2571.66
591.54	2563.65
591.89	2554.80
592.25	2546.25
592.60	2537.18
592.95	2527.93
593.30	2519.26
593.65	2509.72
594.00	2500.16
594.35	2491.96
594.70	2482.41
595.05	2473.55
595.40	2464.23
595.75	2454.41
596.10	2446.09
596.45	2438.34
596.80	2430.76
597.15	2422.42
597.50	2413.40
597.85	2405.09
598.19	2397.30
598.54	2389.22
598.89	2381.29
599.24	2373.90
599.59	2365.82
599.94	2358.52
600.29	2350.40
600.64	2341.82
600.99	2332.68
601.34	2324.38
601.69	2315.34
602.04	2307.15
602.39	2298.87
602.74	2290.98
603.08	2283.51
603.43	2275.67
603.78	2266.70
604.13	2257.90
604.48	2249.10
604.83	2240.67
605.18	2232.65
605.53	2223.05
605.87	2212.60
606.22	2203.52
606.57	2193.96
606.92	2184.96
607.27	2175.81
607.62	2167.13
607.96	2158.16
608.31	2149.87
608.66	2140.40
609.01	2130.62
609.36	2120.62
609.70	2109.86
610.05	2099.19
610.40	2088.96
610.75	2078.08
611.10	2067.87
611.44	2056.65
611.79	2046.38
612.14	2035.83
612.49	2023.78
612.83	2013.20
613.18	2003.30
613.53	1993.10
613.88	1982.39
614.22	1971.38
614.57	1960.25
614.92	1949.56
615.27	1939.23
615.61	1928.79
615.96	1918.72
616.31	1909.12
616.65	1900.28
617.00	1891.09
617.35	1881.85
617.70	1871.62
618.04	1861.75
618.39	1851.63
618.74	1842.83
619.08	1832.67
619.43	1822.74
619.78	1813.68
620.12	1804.16
620.47	1794.20
620.82	1783.72
621.16	1774.32
621.51	1764.83
621.85	1755.59
622.20	1745.35
622.55	1735.71
622.89	1726.37
623.24	1716.89
623.59	1707.52
623.93	1697.47
624.28	1687.96
624.62	1678.17
624.97	1669.16
625.32	1660.22
625.66	1651.37
626.01	1641.80
626.35	1632.66
626.70	1623.60
627.04	1614.55
627.39	1604.89
627.73	1595.56
628.08	1586.68
628.43	1577.09
628.77	1567.94
629.12	1557.95
629.46	1549.11
629.81	1539.03
630.15	1529.05
630.50	1519.22
630.84	1508.77
631.19	1498.70
631.53	1489.11
631.88	1479.47
632.22	1469.29
632.57	1460.05
632.91	1450.10
633.26	1440.53
633.60	1430.94
633.95	1421.50
634.29	1412.25
634.64	1403.52
634.98	1394.19
635.32	1385.65
635.67	1377.47
636.01	1368.87
636.36	1360.43
636.70	1351.94
637.05	1343.63
637.39	1335.95
637.73	1327.63
638.08	1320.20
638.42	1312.64
638.77	1304.49
639.11	1296.04
639.45	1287.94
639.80	1279.26
640.14	1271.06
640.49	1262.94
640.83	1254.50
641.17	1246.58
641.52	1238.00
641.86	1229.54
642.20	1221.97
642.55	1213.52
642.89	1205.03
643.23	1196.61
643.58	1188.78
643.92	1180.23
644.26	1172.28
644.61	1164.01
644.95	1156.28
645.29	1147.31
645.64	1138.62
645.98	1130.53
646.32	1123.06
646.66	1115.10
647.01	1107.04
647.35	1099.27
647.69	1091.41
648.04	1084.68
648.38	1076.68
648.72	1068.88
649.06	1061.09
649.41	1053.26
649.75	1044.83
650.09	1037.18
650.43	1029.36
650.78	1021.35
651.12	1013.71
651.46	1006.45
651.80	999.02
652.14	991.56
652.49	984.66
652.83	977.94
653.17	970.49
653.51	962.96
653.85	955.76
654.20	948.70
654.54	941.21
654.88	933.78
655.22	925.55
655.56	918.13
655.90	911.08
656.25	904.17
656.59	897.25
656.93	890.87
657.27	883.92
657.61	876.86
657.95	870.50
658.29	864.01
658.64	856.89
658.98	849.70
659.32	842.68
659.66	835.90
660.00	828.82
660.34	822.20
660.68	815.71
661.02	809.19
661.36	802.92
661.70	796.90
662.05	791.25
662.39	785.68
662.73	779.99
663.07	774.45
663.41	768.96
663.75	763.69
664.09	757.80
664.43	752.09
664.77	746.97
665.11	741.60
665.45	736.13
665.79	731.02
666.13	725.93
666.47	720.80
666.81	715.34
667.15	710.02
667.49	704.83
667.83	700.08
668.17	695.13
668.51	689.90
668.85	684.89
669.19	679.91
669.53	675.03
669.87	669.84
670.21	664.95
670.55	660.07
670.89	655.17
671.23	650.90
671.57	646.56
671.91	642.20
672.25	637.30
672.58	632.84
672.92	628.49
673.26	624.41
673.60	620.15
673.94	616.22
674.28	612.53
674.62	608.78
674.96	604.60
675.30	600.89
675.64	597.15
675.97	593.38
676.31	589.46
676.65	585.64
676.99	582.35
677.33	578.50
677.67	574.70
678.01	570.80
678.34	566.84
678.68	563.05
679.02	559.13
679.36	555.80
679.70	552.31
680.04	548.77
680.37	545.13
680.71	541.78
681.05	538.46
681.39	535.15
681.73	531.86
682.06	528.73
682.40	525.39
682.74	522.31
683.08	519.01
683.42	515.70
683.75	512.59
684.09	509.16
684.43	506.09
684.77	503.08
685.10	499.94
685.44	497.06
685.78	494.22
686.12	491.39
686.45	488.38
686.79	485.43
687.13	482.54
687.46	479.49
687.80	476.50
688.14	473.51
688.48	470.63
688.81	467.72
689.15	464.92
689.49	461.97
689.82	459.10
690.16	456.43
690.50	454.03
690.83	451.37
691.17	448.78
691.51	446.30
691.84	443.71
692.18	441.16
692.52	438.63
692.85	436.10
693.19	433.44
693.52	430.97
693.86	428.40
694.20	425.97
694.53	423.73
694.87	421.40
695.21	419.10
695.54	416.65
695.88	414.35
696.21	411.93
696.55	409.79
696.88	407.51
697.22	405.33
697.56	402.94
697.89	400.65
698.23	398.61
698.56	396.25
698.90	394.20
699.23	392.06
699.57	390.01
699.90	387.87
700.24	385.85
700.58	383.82
700.91	381.93
701.25	380.00
701.58	378.16
701.92	376.32
702.25	374.38
702.59	372.56
702.92	370.85
703.26	369.14
703.59	367.45
703.93	365.90
704.26	364.22
704.60	362.43
704.93	360.87
705.26	359.09
705.60	357.73
705.93	356.18
706.27	354.79
706.60	353.25
706.94	351.70
707.27	350.24
707.61	348.81
707.94	347.46
708.27	345.89
708.61	344.39
708.94	342.92
709.28	341.66
709.61	340.35
709.94	338.88
710.28	337.49
710.61	336.14
710.95	334.77
711.28	333.67
711.61	332.45
711.95	331.13
712.28	329.84
712.61	328.46
712.95	327.31
713.28	326.10
713.61	325.00
713.95	323.88
714.28	322.73
714.61	321.60
714.95	320.43
715.28	319.27
715.61	318.17
715.95	317.20
716.28	316.17
716.61	315.14
716.95	314.14
717.28	313.06
717.61	312.10
717.94	310.89
718.28	309.74
718.61	308.84
718.94	307.87
719.27	307.02
719.61	306.10
719.94	305.11
720.27	304.20
720.60	303.26
720.94	302.50
721.27	301.76
721.60	300.98
721.93	300.15
722.27	299.50
722.60	298.74
722.93	297.88
723.26	297.13
723.59	296.29
723.93	295.58
724.26	294.85
724.59	294.07
724.92	293.57
725.25	292.87
725.59	292.15
725.92	291.52
726.25	290.77
726.58	290.04
726.91	289.33
727.24	288.59
727.57	287.88
727.91	287.03
728.24	286.32
728.57	285.57
728.90	285.01
729.23	284.33
729.56	283.80
729.89	283.19
730.22	282.49
730.55	281.90
730.89	281.25
731.22	280.75
731.55	280.10
731.88	279.42
732.21	278.74
732.54	278.10
732.87	277.44
733.20	276.90
733.53	276.40
733.86	275.90
734.19	275.43
734.52	274.93
734.85	274.58
735.18	274.00
735.51	273.48
735.84	272.90
736.17	272.47
736.50	271.89
736.83	271.58
737.16	271.05
737.49	270.57
737.82	270.03
738.15	269.53
738.48	269.10
738.81	268.72
739.14	268.30
739.47	267.88
739.80	267.50
740.13	267.12
740.46	266.72
740.79	266.18
741.12	265.76
741.45	265.32
741.78	264.79
742.11	264.46
742.44	264.04
742.77	263.70
743.10	263.24
743.43	262.82
743.75	262.25
744.08	262.17
744.41	261.87
744.74	261.51
745.07	261.07
745.40	260.78
745.73	260.39
746.06	260.02
746.39	259.71
746.71	259.29
747.04	258.84
747.37	258.50
747.70	258.20
748.03	257.80
748.36	257.51
748.68	257.20
749.01	256.79
749.34	256.49
749.67	256.19
750.00	255.81
750.33	255.56
750.65	255.30
750.98	254.78
751.31	254.42
751.64	254.24
751.97	254.00
752.29	253.63
752.62	253.32
752.95	253.06
753.28	252.64
753.60	252.35
753.93	252.15
754.26	251.81
754.59	251.55
754.91	251.35
755.24	251.02
755.57	250.80
755.90	250.42
756.22	250.20
756.55	249.76
756.88	249.48
757.20	249.02
757.53	248.70
757.86	248.49
758.19	248.30
758.51	248.01
758.84	247.80
759.17	247.68
759.49	247.30
759.82	247.20
760.15	247.10
760.47	247.03
760.80	246.78
761.13	246.60
761.45	246.30
761.78	245.99
762.11	245.74
762.43	245.51
762.76	245.43
763.08	245.16
763.41	245.12
763.74	244.94
764.06	244.81
764.39	244.56
764.71	244.23
765.04	243.92
765.37	243.72
765.69	243.54
766.02	243.33
766.34	243.22
766.67	242.94
767.00	242.77
767.32	242.61
767.65	242.52
767.97	242.37
768.30	242.22
768.62	242.03
768.95	241.87
769.27	241.62
769.60	241.44
769.92	241.35
770.25	241.17
770.57	241.10
770.90	241.00
771.22	240.79
771.55	240.69
771.87	240.64
772.20	240.43
772.52	240.35
772.85	240.37
773.17	240.28
773.50	240.13
773.82	240.01
774.15	239.85
774.47	239.54
774.80	239.35
775.12	239.27
775.45	239.14
775.77	239.07
776.09	238.99
776.42	238.90
776.74	238.74
777.07	238.50
777.39	238.36
777.72	238.20
778.04	238.25
778.36	238.22
778.69	238.01
779.01	237.93
779.33	237.75
779.66	237.40
779.98	237.24
780.31	237.12
780.63	237.06
780.95	236.96
781.28	237.05
781.60	236.93
781.92	236.84
782.25	236.75
782.57	236.60
782.89	236.49
783.22	236.37
783.54	236.21
783.86	236.22
784.19	236.08
784.51	236.10
784.83	235.81
785.16	235.63
785.48	235.53
785.80	235.48
786.12	235.38
786.45	235.33
786.77	235.28
787.09	235.24
787.42	235.06
787.74	234.89
788.06	234.70
788.38	234.75
788.71	234.69
789.03	234.70
789.35	234.63
789.67	234.55
789.99	234.46
790.32	234.40
790.64	234.41
790.96	234.50
791.28	234.35
791.61	234.42
791.93	234.33
792.25	234.37
792.57	234.49
792.89	234.41
793.21	234.41
793.54	234.39
793.86	234.28
794.18	234.32
794.50	234.32
794.82	234.26
795.14	234.14
795.47	234.12
795.79	234.02
796.11	234.01
796.43	233.98
796.75	234.02
797.07	234.07
797.39	233.99
797.71	233.79
798.04	233.80
798.36	233.74
798.68	233.75
799.00	233.65
799.32	233.45
799.64	233.44
799.96	233.40
800.28	233.42
800.60	233.42
800.92	233.39
801.24	233.27
801.56	233.26
801.89	233.17
802.21	233.11
802.53	232.94
802.85	232.91
803.17	232.89
803.49	232.73
803.81	232.59
804.13	232.46
804.45	232.51
804.77	232.43
805.09	232.35
805.41	232.33
805.73	232.25
806.05	232.22
806.37	232.16
806.69	232.13
807.01	232.00
807.33	231.83
807.65	231.69
807.97	231.80
808.28	231.79
808.60	231.75
808.92	231.70
809.24	231.90
809.56	231.84
809.88	231.83
810.20	231.89
810.52	231.96
810.84	231.88
811.16	231.76
811.48	231.64
811.80	231.69
812.12	231.66
812.43	231.72
812.75	231.60
813.07	231.56
813.39	231.41
813.71	231.37
814.03	231.38
814.35	231.33
814.67	231.22
814.98	231.16
815.30	231.21
815.62	231.05
815.94	230.93
816.26	230.94
816.58	230.88
816.89	230.89
817.21	230.90
817.53	230.94
817.85	230.89
818.17	230.94
818.48	230.92
818.80	230.98
819.12	230.90
819.44	230.90
819.76	230.79
820.07	230.80
820.39	230.82
820.71	230.82
821.03	230.83
821.34	230.80
821.66	230.86
821.98	230.78
822.30	230.90
822.61	230.94
822.93	230.85
823.25	230.79
823.57	230.68
823.88	230.57
824.20	230.55
824.52	230.66
824.83	230.60
825.15	230.55
825.47	230.50
825.79	230.62
826.10	230.60
826.42	230.60
826.74	230.67
827.05	230.58
827.37	230.58
827.69	230.53
828.00	230.52
828.32	230.34
828.64	230.31
828.95	230.43
829.27	230.37
829.58	230.39
829.90	230.45
830.22	230.43
830.53	230.33
830.85	230.36
831.17	230.22
831.48	230.27
831.80	230.23
832.11	230.19
832.43	230.01
832.75	230.12
833.06	230.21
833.38	230.08
833.69	230.14
834.01	230.18
834.32	230.20
834.64	230.20
834.96	230.25
835.27	230.38
835.59	230.24
835.90	230.20
836.22	230.24
836.53	230.21
836.85	230.25
837.16	230.46
837.48	230.35
837.79	230.46
838.11	230.46
838.42	230.45
838.74	230.43
839.05	230.39
839.37	230.30
839.68	230.21
840.00	230.17
840.31	230.17
840.63	230.02
840.94	230.03
841.26	229.91
841.57	229.97
841.88	229.82
842.20	229.77
842.51	229.73
842.83	229.76
843.14	229.88
843.46	229.81
843.77	229.71
844.08	229.74
844.40	229.59
844.71	229.48
845.03	229.42
845.34	229.32
845.65	229.31
845.97	229.24
846.28	229.16
846.60	229.15
846.91	228.96
847.22	228.98
847.54	228.94
847.85	229.07
848.16	228.95
848.48	228.88
848.79	229.03
849.10	229.04
849.42	228.92
849.73	228.70
850.04	228.60
850.36	228.57
850.67	228.57
850.98	228.68
851.30	228.72
851.61	228.62
851.92	228.65
852.23	228.75
852.55	228.72
852.86	228.85
853.17	228.91
853.49	229.04
853.80	229.09
854.11	229.17
854.42	229.06
854.74	229.06
855.05	229.16
855.36	228.94
855.67	228.99
855.99	228.93
856.30	229.17
856.61	229.27
856.92	229.20
857.23	229.14
857.55	229.14
857.86	229.15
858.17	229.24
858.48	229.27
858.79	229.22
859.11	229.43
859.42	229.38
859.73	229.33
860.04	229.35
860.35	229.25
860.66	229.17
860.98	229.21
861.29	229.23
861.60	229.25
861.91	229.29
862.22	229.16
862.53	229.18
862.84	229.00
863.16	229.05
863.47	229.07
863.78	229.13
864.09	229.03
864.40	229.05
864.71	229.03
865.02	228.99
865.33	229.03
865.64	228.89
865.95	228.77
866.27	228.85
866.58	228.85
866.89	228.87
867.20	228.85
867.51	228.83
867.82	228.87
868.13	228.92
868.44	228.90
868.75	229.03
869.06	229.12
869.37	229.10
869.68	228.96
869.99	228.96
870.30	228.94
870.61	228.98
870.92	228.95
871.23	228.97
871.54	229.08
871.85	229.09
872.16	229.08
872.47	229.18
872.78	229.15
873.09	229.13
873.40	229.08
873.71	229.09
874.02	229.04
874.33	228.95
874.64	228.71
874.95	228.76
875.26	228.75
875.56	228.67
875.87	228.60
876.18	228.61
876.49	228.77
876.80	228.73
877.11	228.71
877.42	228.69
877.73	228.66
878.04	228.49
878.35	228.46
878.66	228.40
878.96	228.38
879.27	228.33
879.58	228.33
879.89	228.37
880.20	228.37
880.51	228.39
880.82	228.45
881.12	228.58
881.43	228.49
881.74	228.40
882.05	228.40
882.36	228.42
882.67	228.53
882.97	228.41
883.28	228.37
883.59	228.33
883.90	228.43
884.21	228.50
884.51	228.61
884.82	228.65
885.13	228.65
885.44	228.67
885.74	228.67
886.05	228.61
886.36	228.70
886.67	228.69
886.98	228.77
887.28	228.76
887.59	228.66
887.90	228.68
888.20	228.66
888.51	228.66
888.82	228.63
889.13	228.57
889.43	228.66
889.74	228.59
890.05	228.64
890.35	228.52
890.66	228.48
890.97	228.45
891.28	228.24
891.58	228.22
891.89	228.18
892.20	228.05
892.50	228.02
892.81	228.01
893.12	228.03
893.42	227.87
893.73	227.90
894.04	227.99
894.34	228.08
894.65	228.08
894.95	228.12
895.26	228.10
895.57	228.19
895.87	228.00
896.18	228.09
896.48	228.06
896.79	228.10
897.10	228.11
897.40	228.07
897.71	228.17
898.01	228.16
898.32	228.28
898.63	228.38
898.93	228.45
899.24	228.44
899.54	228.41
899.85	228.43
900.15	228.31
900.46	228.40
900.76	228.38
901.07	228.46
901.38	228.44
901.68	228.64
901.99	228.51
902.29	228.59
902.60	228.60
902.90	228.66
903.21	228.63
903.51	228.65
903.82	228.71
904.12	228.71
904.43	228.85
904.73	228.82
905.03	228.85
905.34	229.05
905.64	228.94
905.95	228.95
906.25	228.94
906.56	228.98
906.86	229.01
907.17	229.00
907.47	229.00
907.77	228.97
908.08	228.88
908.38	229.00
908.69	229.00
908.99	229.08
909.30	229.05
909.60	229.03
909.90	229.03
910.21	229.02
910.51	228.94
910.81	228.98
911.12	229.02
911.42	229.08
911.73	228.82
912.03	228.94
912.33	229.05
912.64	229.18
912.94	229.32
913.24	229.22
913.55	229.25
913.85	229.22
914.15	229.27
914.46	229.30
914.76	229.26
915.06	229.30
915.37	229.22
915.67	229.15
915.97	229.26
916.27	229.30
916.58	229.34
916.88	229.42
917.18	229.34
917.49	229.45
917.79	229.48
918.09	229.50
918.39	229.57
918.70	229.54
919.00	229.55
919.30	229.47
919.60	229.48
919.91	229.40
920.21	229.46
920.51	229.39
920.81	229.35
921.12	229.35
921.42	229.35
921.72	229.38
922.02	229.49
922.32	229.44
922.63	229.31
922.93	229.36
923.23	229.33
923.53	229.28
923.83	229.10
924.13	229.03
924.44	229.05
924.74	229.10
925.04	229.01
925.34	228.94
925.64	228.80
925.94	228.75
926.24	228.86
926.55	228.72
926.85	228.82
927.15	228.72
927.45	228.70
927.75	228.52
928.05	228.50
928.35	228.47
928.65	228.48
928.95	228.60
929.26	228.43
929.56	228.48
929.86	228.58
930.16	228.53
930.46	228.47
930.76	228.45
931.06	228.24
931.36	228.26
931.66	228.28
931.96	228.43
932.26	228.47
932.56	228.34
932.86	228.42
933.16	228.38
933.46	228.37
933.76	228.34
934.06	228.48
934.36	228.58
934.66	228.52
934.96	228.48
935.26	228.41
935.56	228.49
935.86	228.40
936.16	228.24
936.46	228.26
936.76	228.29
937.06	228.32
937.36	228.41
937.66	228.33
937.96	228.34
938.26	228.26
938.56	228.20
938.86	228.18
939.16	228.24
939.46	228.20
939.76	228.30
940.06	228.32
940.35	228.22
940.65	228.13
940.95	228.16
941.25	228.04
941.55	228.07
941.85	227.98
942.15	228.09
942.45	228.22
942.75	228.21
943.04	228.36
943.34	228.45
943.64	228.42
943.94	228.56
944.24	228.53
944.54	228.51
944.84	228.62
945.13	228.74
945.43	228.57
945.73	228.67
946.03	228.60
946.33	228.58
946.62	228.73
946.92	228.74
947.22	228.80
947.52	228.95
947.82	228.93
948.11	228.98
948.41	228.92
948.71	228.88
949.01	228.87
949.31	228.77
949.60	228.71
949.90	228.75
950.20	228.63
950.50	228.63
950.79	228.71
951.09	228.73
951.39	228.64
951.69	228.72
951.98	228.77
952.28	228.81
952.58	228.89
952.87	228.82
953.17	228.82
953.47	228.79
953.76	228.80
954.06	228.86
954.36	228.86
954.66	228.89
954.95	229.00
955.25	229.01
955.55	229.10
955.84	229.13
956.14	229.15
956.44	229.19
956.73	229.25
957.03	229.27
957.32	229.35
957.62	229.35
957.92	229.40
958.21	229.35
958.51	229.55
958.81	229.48
959.10	229.44
959.40	229.47
959.69	229.45
959.99	229.41
960.29	229.34
960.58	229.30
960.88	229.34
961.17	229.26
961.47	229.26
961.76	229.09
962.06	228.95
962.36	228.95
962.65	228.86
962.95	228.80
963.24	228.73
963.54	228.62
963.83	228.64
964.13	228.59
964.42	228.51
964.72	228.34
965.01	228.34
965.31	228.36
965.60	228.33
965.90	228.56
966.19	228.53
966.49	228.55
966.78	228.58
967.08	228.55
967.37	228.57
967.67	228.55
967.96	228.63
968.26	228.68
968.55	228.64
968.85	228.74
969.14	228.79
969.43	228.75
969.73	228.73
970.02	228.75
970.32	228.85
970.61	228.88
970.91	228.90
971.20	228.84
971.49	228.86
971.79	228.91
972.08	228.71
972.38	228.80
972.67	228.80
972.96	228.85
973.26	228.88
973.55	228.96
973.85	228.94
974.14	228.93
974.43	229.05
974.73	229.01
975.02	228.96
975.31	228.91
975.61	228.90
975.90	228.85
976.19	228.86
976.49	228.82
976.78	228.84
977.07	228.80
977.37	228.87
977.66	228.90
977.95	228.75
978.24	228.62
978.54	228.51
978.83	228.53
979.12	228.61
979.42	228.55
979.71	228.46
980.00	228.49
980.29	228.46
980.59	228.44
980.88	228.52
981.17	228.59
981.46	228.65
981.76	228.61
982.05	228.68
982.34	228.75
982.63	228.69
982.93	228.65
983.22	228.73
983.51	228.74
983.80	228.81
984.09	228.90
984.39	228.99
984.68	229.06
984.97	229.05
985.26	228.90
985.55	228.89
985.85	228.83
986.14	228.80
986.43	228.76
986.72	228.63
987.01	228.58
987.30	228.58
987.59	228.52
987.89	228.61
988.18	228.60
988.47	228.47
988.76	228.43
989.05	228.37
989.34	228.30
989.63	228.35
989.92	228.22
990.22	228.10
990.51	228.10
990.80	228.03
991.09	228.09
991.38	228.16
991.67	228.16
991.96	228.11
992.25	228.23
992.54	228.29
992.83	228.33
993.12	228.22
993.41	228.11
993.70	228.21
993.99	228.20
994.28	228.21
994.58	228.22
994.87	228.22
995.16	228.28
995.45	228.17
995.74	228.03
996.03	228.03
996.32	228.10
996.61	228.14
996.90	228.11
997.19	227.93
997.48	227.89
997.77	227.91
998.06	227.97
998.34	227.87
998.63	227.88
998.92	227.88
999.21	227.87
999.50	227.96
999.79	227.88
1000.08	227.88
1000.37	227.89
1000.66	227.90
1000.95	227.99
1001.24	227.89
1001.53	227.99
1001.82	227.95
1002.11	227.94
1002.40	227.99
1002.68	227.99
1002.97	228.15
1003.26	228.18
1003.55	228.13
1003.84	228.09
1004.13	228.17
1004.42	228.22
1004.71	228.20
1004.99	228.08
1005.28	228.27
1005.57	228.30
1005.86	228.22
1006.15	228.23
1006.44	228.09
1006.72	228.01
1007.01	227.87
1007.30	227.94
1007.59	227.81
1007.88	227.82
1008.17	227.80
1008.45	227.72
1008.74	227.60
1009.03	227.48
1009.32	227.52
1009.60	227.52
1009.89	227.53
1010.18	227.41
1010.47	227.43
1010.76	227.33
1011.04	227.47
1011.33	227.49
1011.62	227.42
1011.91	227.49
1012.19	227.54
1012.48	227.56
1012.77	227.59
1013.05	227.79
1013.34	227.74
1013.63	227.82
1013.92	227.97
1014.20	227.93
1014.49	228.04
1014.78	228.12
1015.06	228.15
1015.35	228.21
1015.64	228.29
1015.92	228.31
1016.21	228.29
1016.50	228.25
1016.78	228.40
1017.07	228.45
1017.36	228.33
1017.64	228.38
1017.93	228.38
1018.22	228.28
1018.50	228.42
1018.79	228.50
1019.08	228.40
1019.36	228.48
1019.65	228.50
1019.93	228.50
1020.22	228.56
1020.51	228.64
1020.79	228.70
1021.08	227.40
1021.36	229.40
1021.65	228.90
1021.94	228.50
1022.22	228.40
1022.51	228.50
1022.79	229.60
1023.08	227.30
1023.36	231.80
1023.65	229.20
>>>>>End Processed Spectral Data<<<<<
