SpectraSuite Data File
++++++++++++++++++++++++++++++++++++
Date: Fri Feb 01 14:33:35 EST 2013
User: group
Dark Spectrum Present: No
Reference Spectrum Present: No
Number of Sampled Component Spectra: 1
Spectrometers: USB2E7196
Integration Time (usec): 70000 (USB2E7196)
Spectra Averaged: 10 (USB2E7196)
Boxcar Smoothing: 10 (USB2E7196)
Correct for Electrical Dark: No (USB2E7196)
Strobe/Lamp Enabled: No (USB2E7196)
Correct for Detector Non-linearity: No (USB2E7196)
Correct for Stray Light: No (USB2E7196)
Number of Pixels in Processed Spectrum: 2048
>>>>>Begin Processed Spectral Data<<<<<
339.09	0.00
339.48	216.10
339.86	217.20
340.24	219.30
340.63	220.50
341.01	226.40
341.39	224.50
341.78	225.10
342.16	226.10
342.54	229.50
342.93	215.13
343.31	225.97
343.69	226.56
344.07	227.08
344.46	227.58
344.84	227.95
345.22	228.12
345.60	228.24
345.99	228.53
346.37	228.65
346.75	228.60
347.13	228.79
347.52	228.98
347.90	229.09
348.28	229.09
348.66	229.18
349.05	229.13
349.43	229.13
349.81	229.18
350.19	229.20
350.57	229.33
350.96	229.32
351.34	229.46
351.72	229.45
352.10	229.47
352.48	229.56
352.87	229.57
353.25	229.56
353.63	229.63
354.01	229.61
354.39	229.72
354.77	229.90
355.15	230.01
355.54	229.95
355.92	229.89
356.30	229.96
356.68	230.22
357.06	230.36
357.44	230.43
357.82	230.42
358.20	230.48
358.58	230.50
358.97	230.60
359.35	230.74
359.73	230.90
360.11	231.01
360.49	230.96
360.87	231.09
361.25	231.03
361.63	231.20
362.01	231.23
362.39	231.21
362.77	231.11
363.15	231.10
363.53	231.11
363.91	231.27
364.29	231.33
364.67	231.11
365.05	231.10
365.43	231.15
365.81	231.20
366.19	231.35
366.57	231.44
366.95	231.33
367.33	231.28
367.71	231.27
368.09	231.23
368.47	231.20
368.85	231.26
369.23	231.34
369.61	231.18
369.99	231.23
370.37	231.15
370.75	231.21
371.13	231.15
371.51	230.98
371.89	230.87
372.27	230.83
372.65	230.73
373.03	230.64
373.41	230.57
373.78	230.48
374.16	230.26
374.54	230.02
374.92	230.02
375.30	229.91
375.68	229.73
376.06	229.80
376.44	229.67
376.82	229.55
377.19	229.45
377.57	229.40
377.95	229.19
378.33	229.25
378.71	229.00
379.09	228.84
379.47	228.86
379.84	228.72
380.22	228.56
380.60	228.56
380.98	228.47
381.36	228.35
381.73	228.28
382.11	228.23
382.49	228.27
382.87	228.24
383.25	228.15
383.62	228.28
384.00	228.11
384.38	228.07
384.76	227.95
385.13	228.00
385.51	227.94
385.89	227.87
386.27	227.85
386.64	227.97
387.02	227.91
387.40	227.80
387.78	227.70
388.15	227.62
388.53	227.47
388.91	227.45
389.29	227.40
389.66	227.37
390.04	227.28
390.42	227.31
390.79	227.28
391.17	227.22
391.55	227.11
391.92	227.08
392.30	227.17
392.68	227.21
393.05	227.23
393.43	227.30
393.81	227.38
394.18	227.27
394.56	227.22
394.94	227.34
395.31	227.36
395.69	227.55
396.06	227.70
396.44	227.82
396.82	227.93
397.19	228.10
397.57	228.20
397.95	228.35
398.32	228.43
398.70	228.54
399.07	228.72
399.45	228.80
399.82	228.87
400.20	229.04
400.58	229.23
400.95	229.29
401.33	229.59
401.70	229.89
402.08	230.10
402.45	230.37
402.83	230.71
403.20	231.20
403.58	231.44
403.95	231.77
404.33	232.17
404.71	232.37
405.08	232.98
405.46	233.42
405.83	233.90
406.21	234.26
406.58	234.71
406.96	235.20
407.33	235.78
407.70	236.44
408.08	237.17
408.45	237.74
408.83	238.51
409.20	239.18
409.58	239.86
409.95	240.82
410.33	241.72
410.70	242.59
411.08	243.56
411.45	244.70
411.82	245.82
412.20	247.00
412.57	248.55
412.95	249.59
413.32	251.03
413.69	252.43
414.07	254.03
414.44	255.81
414.82	257.62
415.19	259.65
415.56	261.70
415.94	263.78
416.31	266.28
416.68	268.69
417.06	271.35
417.43	273.87
417.81	276.85
418.18	279.88
418.55	283.18
418.93	286.51
419.30	289.96
419.67	293.60
420.04	297.54
420.42	301.52
420.79	306.26
421.16	310.95
421.54	315.79
421.91	320.86
422.28	325.97
422.66	331.40
423.03	336.61
423.40	342.23
423.77	348.03
424.15	354.00
424.52	360.19
424.89	367.04
425.26	373.74
425.64	380.00
426.01	386.89
426.38	394.03
426.75	401.22
427.13	408.87
427.50	416.66
427.87	424.91
428.24	433.10
428.61	440.84
428.99	449.18
429.36	458.64
429.73	467.77
430.10	476.86
430.47	486.22
430.85	496.07
431.22	505.96
431.59	516.80
431.96	527.16
432.33	538.50
432.70	549.30
433.08	562.06
433.45	573.96
433.82	586.20
434.19	599.58
434.56	612.87
434.93	625.32
435.30	637.83
435.68	651.71
436.05	665.44
436.42	679.00
436.79	691.37
437.16	704.43
437.53	718.51
437.90	732.59
438.27	746.15
438.64	760.32
439.01	773.75
439.38	785.66
439.75	796.90
440.13	810.07
440.50	822.38
440.87	832.89
441.24	843.86
441.61	855.63
441.98	864.33
442.35	874.43
442.72	884.94
443.09	895.38
443.46	901.76
443.83	906.19
444.20	910.58
444.57	917.03
444.94	920.70
445.31	924.28
445.68	927.56
446.05	930.24
446.42	930.25
446.79	930.40
447.16	930.31
447.53	930.76
447.90	927.52
448.27	924.60
448.64	918.65
449.01	915.25
449.37	907.40
449.74	899.92
450.11	890.59
450.48	880.56
450.85	869.87
451.22	861.25
451.59	853.54
451.96	845.48
452.33	833.89
452.70	823.63
453.07	811.27
453.43	798.86
453.80	786.49
454.17	774.70
454.54	763.22
454.91	750.74
455.28	738.99
455.65	727.74
456.02	715.75
456.38	706.32
456.75	693.88
457.12	683.89
457.49	674.09
457.86	664.74
458.23	656.18
458.59	647.11
458.96	637.49
459.33	628.76
459.70	620.31
460.07	613.66
460.43	605.98
460.80	598.65
461.17	592.00
461.54	585.10
461.91	578.76
462.27	572.15
462.64	566.58
463.01	560.28
463.38	553.96
463.74	548.24
464.11	542.94
464.48	538.26
464.85	533.05
465.21	529.04
465.58	524.73
465.95	519.82
466.32	515.55
466.68	511.38
467.05	507.26
467.42	503.04
467.78	498.52
468.15	494.32
468.52	490.98
468.88	486.98
469.25	483.48
469.62	480.58
469.98	477.50
470.35	474.54
470.72	471.71
471.08	468.90
471.45	466.19
471.82	463.49
472.18	460.63
472.55	458.60
472.92	456.19
473.28	453.89
473.65	451.64
474.02	449.56
474.38	447.60
474.75	445.95
475.11	444.36
475.48	443.12
475.85	442.10
476.21	441.11
476.58	440.20
476.94	439.33
477.31	438.34
477.67	437.35
478.04	436.78
478.41	436.20
478.77	435.74
479.14	435.30
479.50	435.04
479.87	435.08
480.23	435.05
480.60	434.88
480.96	434.78
481.33	435.32
481.69	435.75
482.06	436.05
482.42	436.15
482.79	436.64
483.15	437.47
483.52	438.24
483.88	439.09
484.25	439.99
484.61	441.04
484.98	442.21
485.34	443.90
485.71	445.50
486.07	447.03
486.44	448.44
486.80	450.47
487.17	452.28
487.53	454.41
487.90	456.59
488.26	458.98
488.62	461.59
488.99	463.86
489.35	466.31
489.72	469.32
490.08	472.68
490.44	475.86
490.81	479.13
491.17	482.45
491.54	485.91
491.90	489.42
492.26	493.28
492.63	497.19
492.99	501.03
493.36	505.01
493.72	509.51
494.08	514.22
494.45	518.83
494.81	523.88
495.17	528.87
495.54	533.86
495.90	539.16
496.26	544.49
496.63	550.01
496.99	555.80
497.35	561.69
497.72	567.47
498.08	573.33
498.44	579.28
498.80	585.74
499.17	591.95
499.53	598.36
499.89	604.98
500.26	611.47
500.62	618.01
500.98	624.98
501.34	631.96
501.71	639.09
502.07	645.92
502.43	652.73
502.79	659.67
503.16	666.92
503.52	674.09
503.88	681.25
504.24	688.46
504.60	695.49
504.97	702.86
505.33	710.05
505.69	718.14
506.05	725.74
506.41	732.89
506.78	740.26
507.14	747.53
507.50	754.83
507.86	762.39
508.22	770.27
508.59	777.39
508.95	784.74
509.31	792.16
509.67	799.74
510.03	807.23
510.39	814.68
510.75	822.07
511.12	829.52
511.48	836.74
511.84	844.07
512.20	851.58
512.56	859.00
512.92	866.43
513.28	873.09
513.64	879.75
514.00	886.66
514.37	893.25
514.73	899.98
515.09	906.09
515.45	912.64
515.81	918.63
516.17	925.12
516.53	931.19
516.89	936.88
517.25	942.69
517.61	948.43
517.97	954.06
518.33	959.49
518.69	964.80
519.05	970.18
519.41	975.65
519.77	981.18
520.13	986.43
520.49	991.11
520.85	995.79
521.21	1000.85
521.57	1005.87
521.93	1010.72
522.29	1015.80
522.65	1020.68
523.01	1024.96
523.37	1029.16
523.73	1033.30
524.09	1037.45
524.45	1041.64
524.81	1045.88
525.17	1050.54
525.53	1054.86
525.89	1059.06
526.25	1063.15
526.61	1066.89
526.97	1070.75
527.33	1074.34
527.68	1077.92
528.04	1081.67
528.40	1085.43
528.76	1089.09
529.12	1092.61
529.48	1096.59
529.84	1099.50
530.20	1103.00
530.56	1106.57
530.91	1110.63
531.27	1114.33
531.63	1117.77
531.99	1121.14
532.35	1124.57
532.71	1127.22
533.07	1130.36
533.42	1133.32
533.78	1136.59
534.14	1139.97
534.50	1142.59
534.86	1145.51
535.21	1147.68
535.57	1150.77
535.93	1153.68
536.29	1156.58
536.65	1159.43
537.00	1161.43
537.36	1164.60
537.72	1167.37
538.08	1169.82
538.44	1172.20
538.79	1174.58
539.15	1176.43
539.51	1179.02
539.87	1181.26
540.22	1183.85
540.58	1186.65
540.94	1188.90
541.29	1190.75
541.65	1192.77
542.01	1195.48
542.37	1197.57
542.72	1199.92
543.08	1202.04
543.44	1204.18
543.79	1205.65
544.15	1207.22
544.51	1209.74
544.87	1211.59
545.22	1213.55
545.58	1215.30
545.94	1216.74
546.29	1218.08
546.65	1220.17
547.01	1221.71
547.36	1223.08
547.72	1224.35
548.07	1225.09
548.43	1226.30
548.79	1227.95
549.14	1229.18
549.50	1230.00
549.86	1230.89
550.21	1232.01
550.57	1232.93
550.92	1233.80
551.28	1234.86
551.64	1236.00
551.99	1236.83
552.35	1237.76
552.70	1238.30
553.06	1239.59
553.41	1240.59
553.77	1241.80
554.13	1242.73
554.48	1243.77
554.84	1244.90
555.19	1245.46
555.55	1246.45
555.90	1246.99
556.26	1247.53
556.61	1248.21
556.97	1248.89
557.32	1250.12
557.68	1250.81
558.03	1251.48
558.39	1251.72
558.74	1252.60
559.10	1253.38
559.45	1253.80
559.81	1254.63
560.16	1255.15
560.52	1255.14
560.87	1255.73
561.23	1255.68
561.58	1256.38
561.94	1256.90
562.29	1256.93
562.64	1257.25
563.00	1257.36
563.35	1258.50
563.71	1259.22
564.06	1259.95
564.42	1260.53
564.77	1260.42
565.12	1260.50
565.48	1260.94
565.83	1261.38
566.19	1261.31
566.54	1261.14
566.89	1261.48
567.25	1261.16
567.60	1261.88
567.96	1262.31
568.31	1262.14
568.66	1262.57
569.02	1261.83
569.37	1261.13
569.72	1260.78
570.08	1260.50
570.43	1260.09
570.78	1259.16
571.14	1257.90
571.49	1257.02
571.84	1256.57
572.20	1255.64
572.55	1254.97
572.90	1253.47
573.26	1252.55
573.61	1251.54
573.96	1250.26
574.31	1248.31
574.67	1246.50
575.02	1244.10
575.37	1242.08
575.72	1239.91
576.08	1238.05
576.43	1236.29
576.78	1234.69
577.13	1233.18
577.49	1231.65
577.84	1229.79
578.19	1227.89
578.54	1225.91
578.90	1223.56
579.25	1220.82
579.60	1218.30
579.95	1215.95
580.30	1213.72
580.66	1211.12
581.01	1208.71
581.36	1206.26
581.71	1204.29
582.06	1202.03
582.42	1199.42
582.77	1196.89
583.12	1194.54
583.47	1191.99
583.82	1189.52
584.17	1186.66
584.53	1183.68
584.88	1180.71
585.23	1177.94
585.58	1175.30
585.93	1172.50
586.28	1169.93
586.63	1167.52
586.98	1165.28
587.34	1162.74
587.69	1160.14
588.04	1157.43
588.39	1154.86
588.74	1151.69
589.09	1148.42
589.44	1145.21
589.79	1142.83
590.14	1140.09
590.49	1137.21
590.84	1134.14
591.19	1131.42
591.54	1127.73
591.89	1124.13
592.25	1120.98
592.60	1117.24
592.95	1113.57
593.30	1109.98
593.65	1106.45
594.00	1102.53
594.35	1099.38
594.70	1095.43
595.05	1091.81
595.40	1088.17
595.75	1084.10
596.10	1080.83
596.45	1077.74
596.80	1074.61
597.15	1070.73
597.50	1067.18
597.85	1063.94
598.19	1060.62
598.54	1057.19
598.89	1054.12
599.24	1051.18
599.59	1047.75
599.94	1044.46
600.29	1040.70
600.64	1037.34
600.99	1033.62
601.34	1030.30
601.69	1026.23
602.04	1022.86
602.39	1019.36
602.74	1016.03
603.08	1012.59
603.43	1009.31
603.78	1005.47
604.13	1001.96
604.48	998.68
604.83	995.28
605.18	991.66
605.53	987.51
605.87	983.26
606.22	979.54
606.57	975.45
606.92	971.83
607.27	968.30
607.62	964.97
607.96	961.61
608.31	958.18
608.66	954.12
609.01	950.14
609.36	946.12
609.70	941.70
610.05	937.48
610.40	933.52
610.75	929.04
611.10	924.87
611.44	920.27
611.79	915.97
612.14	911.57
612.49	906.83
612.83	902.77
613.18	898.53
613.53	894.34
613.88	890.08
614.22	885.33
614.57	880.68
614.92	876.22
615.27	871.74
615.61	867.59
615.96	863.42
616.31	859.31
616.65	855.36
617.00	851.78
617.35	847.84
617.70	843.70
618.04	839.65
618.39	835.67
618.74	831.83
619.08	827.78
619.43	823.70
619.78	819.96
620.12	815.89
620.47	812.01
620.82	808.05
621.16	804.57
621.51	801.10
621.85	797.34
622.20	793.60
622.55	789.93
622.89	785.89
623.24	782.33
623.59	778.94
623.93	775.56
624.28	771.67
624.62	767.98
624.97	764.75
625.32	761.34
625.66	758.08
626.01	754.72
626.35	751.13
626.70	747.58
627.04	744.09
627.39	740.64
627.73	737.22
628.08	733.80
628.43	730.16
628.77	726.58
629.12	723.19
629.46	719.94
629.81	716.29
630.15	712.89
630.50	709.37
630.84	705.42
631.19	701.60
631.53	698.20
631.88	694.41
632.22	690.49
632.57	687.12
632.91	683.38
633.26	679.76
633.60	676.30
633.95	672.92
634.29	669.66
634.64	666.69
634.98	663.46
635.32	660.40
635.67	657.38
636.01	654.30
636.36	651.36
636.70	648.19
637.05	645.13
637.39	642.14
637.73	639.21
638.08	636.73
638.42	633.99
638.77	631.10
639.11	628.42
639.45	625.53
639.80	622.46
640.14	619.54
640.49	616.73
640.83	613.81
641.17	611.08
641.52	608.21
641.86	605.08
642.20	602.21
642.55	599.16
642.89	596.16
643.23	593.26
643.58	590.47
643.92	587.38
644.26	584.46
644.61	581.83
644.95	579.06
645.29	575.84
645.64	572.70
645.98	569.92
646.32	567.17
646.66	564.61
647.01	561.91
647.35	559.19
647.69	556.45
648.04	553.99
648.38	551.10
648.72	548.21
649.06	545.40
649.41	542.67
649.75	539.86
650.09	536.90
650.43	534.31
650.78	531.19
651.12	528.47
651.46	525.79
651.80	522.88
652.14	520.10
652.49	517.70
652.83	515.30
653.17	512.47
653.51	509.69
653.85	507.11
654.20	504.46
654.54	501.75
654.88	499.08
655.22	496.17
655.56	493.50
655.90	491.00
656.25	488.54
656.59	486.07
656.93	483.64
657.27	481.51
657.61	478.85
657.95	476.89
658.29	474.70
658.64	472.49
658.98	470.06
659.32	467.62
659.66	465.13
660.00	462.57
660.34	460.36
660.68	458.09
661.02	455.54
661.36	453.24
661.70	451.10
662.05	448.95
662.39	447.04
662.73	445.06
663.07	443.11
663.41	440.99
663.75	439.03
664.09	436.90
664.43	434.84
664.77	433.03
665.11	430.88
665.45	428.98
665.79	427.08
666.13	425.18
666.47	423.30
666.81	421.38
667.15	419.41
667.49	417.54
667.83	415.87
668.17	414.26
668.51	412.59
668.85	410.86
669.19	409.33
669.53	407.57
669.87	405.87
670.21	403.97
670.55	402.40
670.89	400.79
671.23	399.30
671.57	397.72
671.91	396.10
672.25	394.60
672.58	393.01
672.92	391.37
673.26	390.02
673.60	388.65
673.94	387.18
674.28	386.06
674.62	384.71
674.96	383.27
675.30	381.76
675.64	380.33
675.97	378.96
676.31	377.43
676.65	376.16
676.99	374.96
677.33	373.67
677.67	372.30
678.01	370.95
678.34	369.58
678.68	368.23
679.02	366.86
679.36	365.52
679.70	364.26
680.04	363.06
680.37	361.76
680.71	360.46
681.05	359.46
681.39	358.29
681.73	357.15
682.06	355.94
682.40	354.92
682.74	353.89
683.08	352.89
683.42	351.73
683.75	350.50
684.09	349.31
684.43	348.29
684.77	347.25
685.10	346.10
685.44	345.09
685.78	343.93
686.12	342.85
686.45	341.76
686.79	340.55
687.13	339.43
687.46	338.46
687.80	337.36
688.14	336.04
688.48	334.96
688.81	333.87
689.15	332.87
689.49	331.70
689.82	330.62
690.16	329.34
690.50	328.28
690.83	327.25
691.17	326.15
691.51	325.06
691.84	323.92
692.18	322.75
692.52	321.72
692.85	320.76
693.19	319.86
693.52	318.94
693.86	317.93
694.20	316.87
694.53	315.72
694.87	314.78
695.21	313.90
695.54	312.87
695.88	311.76
696.21	310.66
696.55	309.77
696.88	308.78
697.22	307.90
697.56	307.07
697.89	306.29
698.23	305.37
698.56	304.47
698.90	303.61
699.23	302.73
699.57	301.90
699.90	300.94
700.24	299.96
700.58	299.17
700.91	298.52
701.25	297.99
701.58	297.33
701.92	296.60
702.25	295.82
702.59	294.94
702.92	294.32
703.26	293.75
703.59	293.13
703.93	292.66
704.26	292.01
704.60	291.39
704.93	290.58
705.26	289.90
705.60	289.24
705.93	288.70
706.27	288.10
706.60	287.50
706.94	287.04
707.27	286.39
707.61	285.63
707.94	285.02
708.27	284.25
708.61	283.57
708.94	282.95
709.28	282.54
709.61	282.12
709.94	281.64
710.28	281.17
710.61	280.52
710.95	279.80
711.28	279.38
711.61	278.73
711.95	278.20
712.28	277.51
712.61	276.94
712.95	276.39
713.28	275.99
713.61	275.29
713.95	274.63
714.28	274.20
714.61	273.75
714.95	273.22
715.28	272.70
715.61	272.30
715.95	271.84
716.28	271.11
716.61	270.65
716.95	270.07
717.28	269.51
717.61	269.09
717.94	268.66
718.28	268.14
718.61	267.70
718.94	267.38
719.27	267.15
719.61	266.87
719.94	266.48
720.27	266.11
720.60	265.82
720.94	265.54
721.27	265.25
721.60	264.93
721.93	264.61
722.27	264.34
722.60	264.01
722.93	263.63
723.26	263.50
723.59	263.10
723.93	262.89
724.26	262.53
724.59	262.19
724.92	261.82
725.25	261.55
725.59	261.27
725.92	260.96
726.25	260.71
726.58	260.27
726.91	259.99
727.24	259.63
727.57	259.42
727.91	259.16
728.24	258.84
728.57	258.59
728.90	258.28
729.23	257.99
729.56	257.67
729.89	257.42
730.22	257.12
730.55	256.78
730.89	256.41
731.22	256.17
731.55	255.83
731.88	255.60
732.21	255.22
732.54	254.99
732.87	254.72
733.20	254.39
733.53	254.15
733.86	253.92
734.19	253.70
734.52	253.44
734.85	253.12
735.18	252.80
735.51	252.50
735.84	252.23
736.17	251.99
736.50	251.70
736.83	251.72
737.16	251.26
737.49	251.07
737.82	250.83
738.15	250.44
738.48	250.23
738.81	250.05
739.14	249.89
739.47	249.60
739.80	249.36
740.13	249.11
740.46	248.99
740.79	248.61
741.12	248.25
741.45	248.04
741.78	247.88
742.11	247.66
742.44	247.39
742.77	247.20
743.10	246.91
743.43	246.72
743.75	246.21
744.08	246.50
744.41	246.28
744.74	246.06
745.07	245.95
745.40	245.73
745.73	245.47
746.06	245.15
746.39	245.02
746.71	244.76
747.04	244.58
747.37	244.25
747.70	244.13
748.03	244.11
748.36	243.90
748.68	243.72
749.01	243.60
749.34	243.42
749.67	243.21
750.00	243.09
750.33	242.96
750.65	242.90
750.98	242.35
751.31	242.23
751.64	242.15
751.97	242.13
752.29	241.95
752.62	241.70
752.95	241.66
753.28	241.48
753.60	241.30
753.93	241.17
754.26	241.05
754.59	240.91
754.91	240.65
755.24	240.53
755.57	240.38
755.90	240.27
756.22	240.19
756.55	240.17
756.88	240.05
757.20	239.91
757.53	239.68
757.86	239.60
758.19	239.57
758.51	239.41
758.84	239.21
759.17	239.11
759.49	239.06
759.82	238.99
760.15	238.91
760.47	238.89
760.80	238.85
761.13	238.80
761.45	238.67
761.78	238.61
762.11	238.47
762.43	238.40
762.76	238.34
763.08	238.31
763.41	238.18
763.74	238.13
764.06	237.88
764.39	237.88
764.71	237.85
765.04	237.69
765.37	237.55
765.69	237.45
766.02	237.41
766.34	237.35
766.67	237.27
767.00	237.25
767.32	237.23
767.65	237.24
767.97	237.14
768.30	237.09
768.62	236.98
768.95	236.97
769.27	236.80
769.60	236.71
769.92	236.57
770.25	236.49
770.57	236.29
770.90	236.26
771.22	236.20
771.55	236.13
771.87	236.02
772.20	236.00
772.52	236.08
772.85	236.18
773.17	236.14
773.50	236.03
773.82	235.87
774.15	235.78
774.47	235.56
774.80	235.48
775.12	235.44
775.45	235.42
775.77	235.30
776.09	235.31
776.42	235.28
776.74	235.26
777.07	235.16
777.39	235.14
777.72	235.24
778.04	235.18
778.36	235.00
778.69	234.90
779.01	234.80
779.33	234.59
779.66	234.38
779.98	234.29
780.31	234.13
780.63	234.20
780.95	234.20
781.28	234.13
781.60	234.03
781.92	233.89
782.25	233.80
782.57	233.70
782.89	233.63
783.22	233.43
783.54	233.29
783.86	233.26
784.19	233.20
784.51	233.04
784.83	232.80
785.16	232.79
785.48	232.78
785.80	232.64
786.12	232.59
786.45	232.46
786.77	232.31
787.09	232.36
787.42	232.20
787.74	232.08
788.06	231.98
788.38	231.91
788.71	231.88
789.03	231.90
789.35	231.98
789.67	231.84
789.99	231.79
790.32	231.79
790.64	231.70
790.96	231.81
791.28	231.75
791.61	231.74
791.93	231.66
792.25	231.68
792.57	231.89
792.89	231.73
793.21	231.69
793.54	231.68
793.86	231.67
794.18	231.60
794.50	231.49
794.82	231.48
795.14	231.53
795.47	231.58
795.79	231.52
796.11	231.39
796.43	231.42
796.75	231.45
797.07	231.39
797.39	231.35
797.71	231.21
798.04	231.22
798.36	231.29
798.68	231.28
799.00	231.21
799.32	231.10
799.64	231.22
799.96	231.24
800.28	231.31
800.60	231.27
800.92	231.27
801.24	231.30
801.56	231.40
801.89	231.40
802.21	231.32
802.53	231.25
802.85	231.29
803.17	231.45
803.49	231.42
803.81	231.36
804.13	231.29
804.45	231.30
804.77	231.31
805.09	231.33
805.41	231.38
805.73	231.46
806.05	231.42
806.37	231.39
806.69	231.39
807.01	231.34
807.33	231.33
807.65	231.30
807.97	231.35
808.28	231.39
808.60	231.38
808.92	231.47
809.24	231.49
809.56	231.46
809.88	231.24
810.20	231.24
810.52	231.35
810.84	231.38
811.16	231.38
811.48	231.34
811.80	231.41
812.12	231.41
812.43	231.40
812.75	231.39
813.07	231.42
813.39	231.35
813.71	231.29
814.03	231.17
814.35	231.28
814.67	231.16
814.98	230.98
815.30	230.90
815.62	230.85
815.94	230.72
816.26	230.76
816.58	230.70
816.89	230.72
817.21	230.63
817.53	230.65
817.85	230.51
818.17	230.39
818.48	230.29
818.80	230.27
819.12	230.14
819.44	230.12
819.76	230.09
820.07	230.17
820.39	230.21
820.71	230.34
821.03	230.23
821.34	230.14
821.66	230.17
821.98	230.16
822.30	230.07
822.61	230.23
822.93	230.08
823.25	230.01
823.57	229.89
823.88	229.92
824.20	229.85
824.52	229.89
824.83	229.85
825.15	229.64
825.47	229.52
825.79	229.56
826.10	229.42
826.42	229.24
826.74	229.13
827.05	228.97
827.37	228.85
827.69	228.71
828.00	228.70
828.32	228.59
828.64	228.54
828.95	228.57
829.27	228.38
829.58	228.29
829.90	228.39
830.22	228.39
830.53	228.28
830.85	228.18
831.17	228.02
831.48	228.02
831.80	228.10
832.11	228.06
832.43	227.98
832.75	228.00
833.06	228.18
833.38	228.10
833.69	228.11
834.01	228.05
834.32	228.13
834.64	228.14
834.96	228.20
835.27	228.10
835.59	227.99
835.90	228.04
836.22	228.13
836.53	228.00
836.85	227.99
837.16	228.09
837.48	228.19
837.79	228.25
838.11	228.35
838.42	228.38
838.74	228.47
839.05	228.43
839.37	228.42
839.68	228.32
840.00	228.38
840.31	228.37
840.63	228.43
840.94	228.41
841.26	228.41
841.57	228.40
841.88	228.45
842.20	228.54
842.51	228.59
842.83	228.62
843.14	228.85
843.46	228.88
843.77	228.90
844.08	228.83
844.40	228.90
844.71	228.78
845.03	228.74
845.34	228.77
845.65	228.77
845.97	228.76
846.28	228.79
846.60	228.79
846.91	228.85
847.22	228.87
847.54	228.92
847.85	228.89
848.16	229.00
848.48	229.09
848.79	229.14
849.10	229.11
849.42	229.13
849.73	228.90
850.04	228.96
850.36	228.94
850.67	229.06
850.98	229.12
851.30	229.28
851.61	229.32
851.92	229.33
852.23	229.43
852.55	229.54
852.86	229.56
853.17	229.55
853.49	229.69
853.80	229.76
854.11	229.89
854.42	229.93
854.74	229.79
855.05	229.73
855.36	229.67
855.67	229.69
855.99	229.70
856.30	230.00
856.61	230.10
856.92	230.09
857.23	230.10
857.55	230.01
857.86	229.92
858.17	229.96
858.48	229.90
858.79	229.87
859.11	229.74
859.42	229.71
859.73	229.79
860.04	229.70
860.35	229.63
860.66	229.46
860.98	229.51
861.29	229.62
861.60	229.64
861.91	229.72
862.22	229.69
862.53	229.59
862.84	229.32
863.16	229.22
863.47	229.12
863.78	229.02
864.09	228.98
864.40	229.03
864.71	228.96
865.02	228.96
865.33	228.89
865.64	228.97
865.95	228.82
866.27	228.91
866.58	228.85
866.89	228.79
867.20	228.70
867.51	228.63
867.82	228.49
868.13	228.40
868.44	228.28
868.75	228.25
869.06	228.26
869.37	228.26
869.68	228.13
869.99	228.19
870.30	228.15
870.61	228.16
870.92	228.10
871.23	228.12
871.54	228.17
871.85	228.20
872.16	228.18
872.47	228.20
872.78	228.02
873.09	228.00
873.40	227.95
873.71	227.99
874.02	227.91
874.33	227.91
874.64	227.91
874.95	227.98
875.26	227.92
875.56	227.86
875.87	227.82
876.18	227.84
876.49	227.98
876.80	228.00
877.11	227.99
877.42	227.92
877.73	227.92
878.04	227.90
878.35	227.85
878.66	227.87
878.96	227.97
879.27	228.01
879.58	228.01
879.89	228.00
880.20	228.11
880.51	228.22
880.82	228.22
881.12	228.36
881.43	228.29
881.74	228.28
882.05	228.24
882.36	228.30
882.67	228.41
882.97	228.18
883.28	228.16
883.59	228.21
883.90	228.34
884.21	228.39
884.51	228.39
884.82	228.47
885.13	228.44
885.44	228.40
885.74	228.38
886.05	228.36
886.36	228.40
886.67	228.35
886.98	228.42
887.28	228.49
887.59	228.50
887.90	228.59
888.20	228.76
888.51	228.99
888.82	228.98
889.13	228.96
889.43	229.18
889.74	229.24
890.05	229.24
890.35	229.24
890.66	229.19
890.97	229.10
891.28	229.04
891.58	229.17
891.89	229.20
892.20	229.28
892.50	229.23
892.81	229.25
893.12	229.24
893.42	229.17
893.73	229.17
894.04	229.15
894.34	229.13
894.65	229.08
894.95	228.98
895.26	228.96
895.57	229.04
895.87	228.94
896.18	228.90
896.48	228.92
896.79	228.78
897.10	228.81
897.40	228.94
897.71	228.96
898.01	228.82
898.32	228.89
898.63	228.91
898.93	229.06
899.24	229.14
899.54	229.12
899.85	229.07
900.15	229.05
900.46	229.09
900.76	229.00
901.07	228.90
901.38	228.93
901.68	228.93
901.99	228.79
902.29	228.78
902.60	228.78
902.90	228.71
903.21	228.80
903.51	228.71
903.82	228.64
904.12	228.59
904.43	228.58
904.73	228.52
905.03	228.30
905.34	228.35
905.64	228.28
905.95	228.30
906.25	228.30
906.56	228.30
906.86	228.19
907.17	228.20
907.47	228.26
907.77	228.13
908.08	228.19
908.38	228.21
908.69	228.18
908.99	228.14
909.30	228.14
909.60	228.09
909.90	228.17
910.21	228.10
910.51	228.14
910.81	228.13
911.12	228.09
911.42	228.20
911.73	227.98
912.03	227.89
912.33	227.90
912.64	227.97
912.94	227.91
913.24	227.88
913.55	227.85
913.85	227.76
914.15	227.78
914.46	227.74
914.76	227.71
915.06	227.66
915.37	227.59
915.67	227.63
915.97	227.69
916.27	227.61
916.58	227.66
916.88	227.65
917.18	227.66
917.49	227.88
917.79	227.85
918.09	227.95
918.39	228.04
918.70	228.08
919.00	228.04
919.30	228.19
919.60	228.16
919.91	228.16
920.21	228.20
920.51	228.24
920.81	228.22
921.12	228.24
921.42	228.25
921.72	228.38
922.02	228.42
922.32	228.31
922.63	228.43
922.93	228.47
923.23	228.58
923.53	228.56
923.83	228.28
924.13	228.37
924.44	228.41
924.74	228.55
925.04	228.60
925.34	228.63
925.64	228.53
925.94	228.56
926.24	228.67
926.55	228.68
926.85	228.80
927.15	228.81
927.45	228.84
927.75	228.82
928.05	228.89
928.35	228.88
928.65	229.00
928.95	229.06
929.26	229.05
929.56	229.00
929.86	229.07
930.16	229.17
930.46	229.14
930.76	229.21
931.06	229.09
931.36	228.98
931.66	228.93
931.96	228.97
932.26	229.03
932.56	229.03
932.86	229.06
933.16	229.12
933.46	229.12
933.76	229.11
934.06	229.12
934.36	229.29
934.66	229.17
934.96	229.24
935.26	229.11
935.56	229.31
935.86	229.32
936.16	229.36
936.46	229.36
936.76	229.38
937.06	229.25
937.36	229.32
937.66	229.32
937.96	229.29
938.26	229.31
938.56	229.21
938.86	229.20
939.16	229.21
939.46	229.01
939.76	229.01
940.06	229.09
940.35	229.16
940.65	228.94
940.95	229.03
941.25	228.92
941.55	228.88
941.85	228.67
942.15	228.68
942.45	228.70
942.75	228.60
943.04	228.57
943.34	228.54
943.64	228.45
943.94	228.41
944.24	228.48
944.54	228.41
944.84	228.46
945.13	228.38
945.43	228.41
945.73	228.44
946.03	228.30
946.33	228.17
946.62	228.13
946.92	228.06
947.22	227.90
947.52	227.83
947.82	227.88
948.11	227.81
948.41	227.69
948.71	227.63
949.01	227.64
949.31	227.60
949.60	227.65
949.90	227.68
950.20	227.70
950.50	227.57
950.79	227.53
951.09	227.63
951.39	227.55
951.69	227.44
951.98	227.48
952.28	227.50
952.58	227.52
952.87	227.45
953.17	227.50
953.47	227.60
953.76	227.68
954.06	227.64
954.36	227.70
954.66	227.79
954.95	227.80
955.25	227.90
955.55	227.95
955.84	228.01
956.14	228.02
956.44	227.94
956.73	228.05
957.03	228.05
957.32	228.03
957.62	228.00
957.92	228.15
958.21	228.25
958.51	228.64
958.81	228.70
959.10	228.86
959.40	228.99
959.69	229.10
959.99	229.17
960.29	229.20
960.58	229.21
960.88	229.30
961.17	229.24
961.47	229.30
961.76	229.34
962.06	229.32
962.36	229.35
962.65	229.53
962.95	229.57
963.24	229.70
963.54	229.68
963.83	229.87
964.13	229.84
964.42	229.75
964.72	229.52
965.01	229.52
965.31	229.50
965.60	229.38
965.90	229.52
966.19	229.49
966.49	229.47
966.78	229.50
967.08	229.49
967.37	229.51
967.67	229.47
967.96	229.49
968.26	229.47
968.55	229.44
968.85	229.37
969.14	229.32
969.43	229.24
969.73	229.26
970.02	229.26
970.32	229.18
970.61	229.17
970.91	229.11
971.20	229.11
971.49	229.01
971.79	229.13
972.08	228.90
972.38	228.92
972.67	228.91
972.96	228.87
973.26	228.72
973.55	228.79
973.85	228.70
974.14	228.68
974.43	228.70
974.73	228.74
975.02	228.76
975.31	228.75
975.61	228.78
975.90	228.68
976.19	228.66
976.49	228.71
976.78	228.73
977.07	228.71
977.37	228.69
977.66	228.69
977.95	228.63
978.24	228.60
978.54	228.61
978.83	228.52
979.12	228.48
979.42	228.48
979.71	228.40
980.00	228.43
980.29	228.37
980.59	228.27
980.88	228.23
981.17	228.07
981.46	228.04
981.76	227.99
982.05	228.13
982.34	228.13
982.63	228.10
982.93	228.01
983.22	228.10
983.51	228.10
983.80	228.07
984.09	227.99
984.39	228.02
984.68	227.95
984.97	228.03
985.26	227.95
985.55	228.04
985.85	228.01
986.14	227.98
986.43	228.03
986.72	228.05
987.01	227.90
987.30	227.93
987.59	227.87
987.89	227.81
988.18	227.78
988.47	227.74
988.76	227.71
989.05	227.67
989.34	227.60
989.63	227.64
989.92	227.68
990.22	227.73
990.51	227.70
990.80	227.73
991.09	227.68
991.38	227.85
991.67	227.79
991.96	227.79
992.25	227.88
992.54	227.86
992.83	227.84
993.12	227.83
993.41	228.02
993.70	228.19
993.99	228.32
994.28	228.25
994.58	228.24
994.87	228.27
995.16	228.32
995.45	228.39
995.74	228.26
996.03	228.35
996.32	228.30
996.61	228.35
996.90	228.29
997.19	228.36
997.48	228.27
997.77	228.30
998.06	228.39
998.34	228.36
998.63	228.36
998.92	228.36
999.21	228.51
999.50	228.36
999.79	228.23
1000.08	228.10
1000.37	228.15
1000.66	228.13
1000.95	228.13
1001.24	228.06
1001.53	228.00
1001.82	228.08
1002.11	228.06
1002.40	228.15
1002.68	228.20
1002.97	228.41
1003.26	228.44
1003.55	228.50
1003.84	228.51
1004.13	228.48
1004.42	228.55
1004.71	228.66
1004.99	228.70
1005.28	228.74
1005.57	228.88
1005.86	228.90
1006.15	229.03
1006.44	229.00
1006.72	229.11
1007.01	229.09
1007.30	229.17
1007.59	229.13
1007.88	229.17
1008.17	229.13
1008.45	229.20
1008.74	229.07
1009.03	228.88
1009.32	228.83
1009.60	228.86
1009.89	228.77
1010.18	228.77
1010.47	228.70
1010.76	228.59
1011.04	228.55
1011.33	228.52
1011.62	228.43
1011.91	228.55
1012.19	228.42
1012.48	228.45
1012.77	228.39
1013.05	228.43
1013.34	228.48
1013.63	228.45
1013.92	228.41
1014.20	228.38
1014.49	228.33
1014.78	228.47
1015.06	228.40
1015.35	228.33
1015.64	228.33
1015.92	228.35
1016.21	228.30
1016.50	228.19
1016.78	228.25
1017.07	228.29
1017.36	228.23
1017.64	228.17
1017.93	228.08
1018.22	228.10
1018.50	227.95
1018.79	227.95
1019.08	227.88
1019.36	227.83
1019.65	227.86
1019.93	227.91
1020.22	227.91
1020.51	227.81
1020.79	227.71
1021.08	227.70
1021.36	225.20
1021.65	228.70
1021.94	227.40
1022.22	227.80
1022.51	227.40
1022.79	229.20
1023.08	227.90
1023.36	228.50
1023.65	227.20
>>>>>End Processed Spectral Data<<<<<
