SpectraSuite Data File
++++++++++++++++++++++++++++++++++++
Date: Fri Feb 01 14:39:38 EST 2013
User: group
Dark Spectrum Present: No
Reference Spectrum Present: No
Number of Sampled Component Spectra: 1
Spectrometers: USB2E7196
Integration Time (usec): 70000 (USB2E7196)
Spectra Averaged: 10 (USB2E7196)
Boxcar Smoothing: 10 (USB2E7196)
Correct for Electrical Dark: No (USB2E7196)
Strobe/Lamp Enabled: No (USB2E7196)
Correct for Detector Non-linearity: No (USB2E7196)
Correct for Stray Light: No (USB2E7196)
Number of Pixels in Processed Spectrum: 2048
>>>>>Begin Processed Spectral Data<<<<<
339.09	0.00
339.48	217.10
339.86	217.20
340.24	220.20
340.63	219.10
341.01	225.50
341.39	223.90
341.78	225.10
342.16	224.70
342.54	227.00
342.93	215.02
343.31	225.89
343.69	226.33
344.07	226.78
344.46	227.21
344.84	227.66
345.22	227.79
345.60	228.10
345.99	228.27
346.37	228.40
346.75	228.45
347.13	228.38
347.52	228.34
347.90	228.40
348.28	228.40
348.66	228.43
349.05	228.35
349.43	228.37
349.81	228.35
350.19	228.44
350.57	228.45
350.96	228.42
351.34	228.49
351.72	228.68
352.10	228.74
352.48	228.75
352.87	228.70
353.25	228.74
353.63	228.63
354.01	228.67
354.39	228.77
354.77	228.85
355.15	228.94
355.54	228.94
355.92	228.89
356.30	228.92
356.68	229.01
357.06	229.10
357.44	229.08
357.82	229.18
358.20	229.14
358.58	229.20
358.97	229.30
359.35	229.30
359.73	229.26
360.11	229.29
360.49	229.30
360.87	229.39
361.25	229.44
361.63	229.53
362.01	229.54
362.39	229.54
362.77	229.52
363.15	229.58
363.53	229.60
363.91	229.66
364.29	229.67
364.67	229.44
365.05	229.44
365.43	229.38
365.81	229.36
366.19	229.54
366.57	229.51
366.95	229.38
367.33	229.40
367.71	229.40
368.09	229.41
368.47	229.37
368.85	229.36
369.23	229.25
369.61	229.13
369.99	229.05
370.37	228.97
370.75	228.99
371.13	228.83
371.51	228.84
371.89	228.73
372.27	228.72
372.65	228.80
373.03	228.80
373.41	228.85
373.78	228.81
374.16	228.55
374.54	228.42
374.92	228.41
375.30	228.29
375.68	228.17
376.06	228.09
376.44	228.01
376.82	227.95
377.19	227.96
377.57	227.89
377.95	227.87
378.33	227.81
378.71	227.67
379.09	227.66
379.47	227.59
379.84	227.57
380.22	227.43
380.60	227.29
380.98	227.10
381.36	226.98
381.73	226.89
382.11	226.85
382.49	226.79
382.87	226.67
383.25	226.58
383.62	226.80
384.00	226.75
384.38	226.77
384.76	226.70
385.13	226.73
385.51	226.70
385.89	226.58
386.27	226.54
386.64	226.54
387.02	226.46
387.40	226.36
387.78	226.33
388.15	226.29
388.53	226.33
388.91	226.41
389.29	226.49
389.66	226.48
390.04	226.53
390.42	226.56
390.79	226.53
391.17	226.60
391.55	226.38
391.92	226.36
392.30	226.27
392.68	226.24
393.05	226.19
393.43	226.28
393.81	226.25
394.18	226.29
394.56	226.30
394.94	226.44
395.31	226.46
395.69	226.52
396.06	226.69
396.44	226.72
396.82	226.73
397.19	226.79
397.57	226.86
397.95	226.93
398.32	226.90
398.70	227.07
399.07	227.14
399.45	227.16
399.82	227.29
400.20	227.44
400.58	227.62
400.95	227.74
401.33	227.77
401.70	228.08
402.08	228.20
402.45	228.33
402.83	228.36
403.20	228.49
403.58	228.59
403.95	228.66
404.33	228.76
404.71	228.86
405.08	229.16
405.46	229.27
405.83	229.40
406.21	229.60
406.58	229.70
406.96	229.81
407.33	230.08
407.70	230.27
408.08	230.66
408.45	230.89
408.83	231.01
409.20	231.16
409.58	231.32
409.95	231.53
410.33	231.74
410.70	232.06
411.08	232.32
411.45	232.70
411.82	233.00
412.20	233.35
412.57	233.85
412.95	233.90
413.32	234.30
413.69	234.80
414.07	235.22
414.44	235.79
414.82	236.25
415.19	236.77
415.56	237.40
415.94	237.88
416.31	238.45
416.68	239.20
417.06	240.00
417.43	240.65
417.81	241.38
418.18	242.22
418.55	243.05
418.93	244.06
419.30	244.97
419.67	245.84
420.04	246.80
420.42	247.73
420.79	249.03
421.16	250.19
421.54	251.35
421.91	252.55
422.28	253.73
422.66	255.10
423.03	256.51
423.40	257.80
423.77	259.09
424.15	260.53
424.52	262.02
424.89	263.63
425.26	265.18
425.64	266.56
426.01	268.21
426.38	269.91
426.75	271.62
427.13	273.38
427.50	275.33
427.87	277.37
428.24	279.27
428.61	281.00
428.99	283.13
429.36	285.29
429.73	287.50
430.10	289.66
430.47	291.96
430.85	294.02
431.22	296.36
431.59	298.91
431.96	301.37
432.33	304.06
432.70	306.69
433.08	309.60
433.45	312.60
433.82	315.44
434.19	318.49
434.56	321.57
434.93	324.38
435.30	327.26
435.68	330.39
436.05	333.54
436.42	336.63
436.79	339.38
437.16	342.35
437.53	345.50
437.90	348.58
438.27	351.42
438.64	354.47
439.01	357.33
439.38	359.93
439.75	362.29
440.13	364.87
440.50	367.57
440.87	369.74
441.24	371.99
441.61	374.29
441.98	375.96
442.35	377.82
442.72	380.04
443.09	382.14
443.46	383.28
443.83	384.16
444.20	384.84
444.57	385.65
444.94	386.14
445.31	386.64
445.68	387.33
446.05	387.60
446.42	387.59
446.79	387.35
447.16	386.93
447.53	386.70
447.90	385.76
448.27	384.56
448.64	383.14
449.01	382.02
449.37	380.22
449.74	378.39
450.11	376.22
450.48	373.56
450.85	370.90
451.22	368.74
451.59	366.56
451.96	364.70
452.33	362.13
452.70	359.64
453.07	356.66
453.43	353.52
453.80	350.59
454.17	347.71
454.54	345.09
454.91	342.08
455.28	339.33
455.65	336.68
456.02	334.36
456.38	332.08
456.75	329.37
457.12	326.79
457.49	324.37
457.86	322.05
458.23	320.08
458.59	317.81
458.96	315.52
459.33	313.47
459.70	311.36
460.07	309.76
460.43	307.94
460.80	306.28
461.17	304.60
461.54	303.06
461.91	301.48
462.27	299.70
462.64	298.51
463.01	296.88
463.38	295.50
463.74	293.60
464.11	292.22
464.48	291.00
464.85	289.88
465.21	288.96
465.58	287.90
465.95	286.71
466.32	285.70
466.68	284.79
467.05	283.88
467.42	282.80
467.78	281.81
468.15	280.82
468.52	279.88
468.88	278.95
469.25	277.94
469.62	277.19
469.98	276.55
470.35	275.65
470.72	275.00
471.08	274.03
471.45	273.49
471.82	272.81
472.18	272.02
472.55	271.34
472.92	270.54
473.28	269.82
473.65	269.12
474.02	268.44
474.38	267.81
474.75	267.19
475.11	266.71
475.48	266.25
475.85	265.73
476.21	265.41
476.58	264.99
476.94	264.75
477.31	264.29
477.67	263.87
478.04	263.50
478.41	263.16
478.77	263.10
479.14	262.70
479.50	262.40
479.87	262.19
480.23	262.00
480.60	261.86
480.96	261.68
481.33	261.64
481.69	261.47
482.06	261.35
482.42	261.15
482.79	260.94
483.15	260.75
483.52	260.68
483.88	260.44
484.25	260.32
484.61	260.23
484.98	260.17
485.34	260.07
485.71	260.19
486.07	260.15
486.44	260.00
486.80	260.06
487.17	260.05
487.53	260.10
487.90	260.06
488.26	260.17
488.62	260.29
488.99	260.32
489.35	260.51
489.72	260.54
490.08	260.61
490.44	260.78
490.81	260.96
491.17	261.14
491.54	261.36
491.90	261.55
492.26	261.77
492.63	261.96
492.99	262.28
493.36	262.53
493.72	262.91
494.08	263.17
494.45	263.45
494.81	263.89
495.17	264.18
495.54	264.65
495.90	265.01
496.26	265.39
496.63	265.87
496.99	266.32
497.35	266.86
497.72	267.44
498.08	267.93
498.44	268.43
498.80	268.98
499.17	269.57
499.53	270.29
499.89	270.95
500.26	271.72
500.62	272.39
500.98	273.21
501.34	273.97
501.71	274.90
502.07	275.91
502.43	276.84
502.79	277.80
503.16	278.94
503.52	280.12
503.88	281.23
504.24	282.44
504.60	283.72
504.97	285.10
505.33	286.41
505.69	287.99
506.05	289.47
506.41	291.03
506.78	292.64
507.14	294.30
507.50	296.00
507.86	297.85
508.22	299.84
508.59	301.80
508.95	303.79
509.31	305.92
509.67	308.03
510.03	310.30
510.39	312.75
510.75	315.14
511.12	317.50
511.48	320.20
511.84	322.90
512.20	325.75
512.56	328.52
512.92	331.45
513.28	334.46
513.64	337.61
514.00	340.98
514.37	344.32
514.73	347.72
515.09	351.35
515.45	355.15
515.81	358.85
516.17	362.63
516.53	366.58
516.89	370.44
517.25	374.71
517.61	378.92
517.97	383.06
518.33	387.51
518.69	392.12
519.05	396.82
519.41	401.61
519.77	406.67
520.13	411.77
520.49	417.01
520.85	422.21
521.21	427.68
521.57	432.88
521.93	438.33
522.29	444.05
522.65	449.70
523.01	455.31
523.37	460.89
523.73	466.76
524.09	472.91
524.45	479.28
524.81	485.52
525.17	492.00
525.53	498.61
525.89	505.10
526.25	511.63
526.61	518.25
526.97	525.15
527.33	531.92
527.68	538.76
528.04	545.76
528.40	553.05
528.76	560.41
529.12	567.88
529.48	575.33
529.84	582.61
530.20	590.15
530.56	597.96
530.91	605.99
531.27	614.24
531.63	622.20
531.99	630.17
532.35	638.04
532.71	646.02
533.07	654.19
533.42	662.51
533.78	671.03
534.14	679.47
534.50	687.52
534.86	695.85
535.21	704.16
535.57	712.60
535.93	720.94
536.29	729.28
536.65	737.75
537.00	746.17
537.36	754.88
537.72	763.44
538.08	771.76
538.44	780.17
538.79	788.32
539.15	796.30
539.51	805.00
539.87	813.77
540.22	822.16
540.58	831.10
540.94	839.48
541.29	847.82
541.65	855.98
542.01	864.83
542.37	873.34
542.72	882.02
543.08	890.53
543.44	898.92
543.79	906.87
544.15	915.30
544.51	923.94
544.87	932.22
545.22	940.59
545.58	948.50
545.94	956.48
546.29	964.68
546.65	972.91
547.01	980.75
547.36	988.47
547.72	996.31
548.07	1003.47
548.43	1010.90
548.79	1018.52
549.14	1026.35
549.50	1033.29
549.86	1040.23
550.21	1047.16
550.57	1054.40
550.92	1061.63
551.28	1068.72
551.64	1075.54
551.99	1082.40
552.35	1089.10
552.70	1095.75
553.06	1103.13
553.41	1109.99
553.77	1116.82
554.13	1123.49
554.48	1130.24
554.84	1136.60
555.19	1142.94
555.55	1149.55
555.90	1155.70
556.26	1161.69
556.61	1167.55
556.97	1173.42
557.32	1179.63
557.68	1185.48
558.03	1191.37
558.39	1197.01
558.74	1203.32
559.10	1209.20
559.45	1214.70
559.81	1220.89
560.16	1226.34
560.52	1231.22
560.87	1236.67
561.23	1241.40
561.58	1246.87
561.94	1251.44
562.29	1256.22
562.64	1260.64
563.00	1265.19
563.35	1270.53
563.71	1275.84
564.06	1281.19
564.42	1285.97
564.77	1290.57
565.12	1295.67
565.48	1300.07
565.83	1304.40
566.19	1308.48
566.54	1312.60
566.89	1316.29
567.25	1319.70
567.60	1323.69
567.96	1327.88
568.31	1331.04
568.66	1334.53
569.02	1337.89
569.37	1340.93
569.72	1344.23
570.08	1347.57
570.43	1350.77
570.78	1353.50
571.14	1355.67
571.49	1357.67
571.84	1360.61
572.20	1363.02
572.55	1364.71
572.90	1366.39
573.26	1368.19
573.61	1369.66
573.96	1370.93
574.31	1372.43
574.67	1373.44
575.02	1374.00
575.37	1374.68
575.72	1375.50
576.08	1376.62
576.43	1376.81
576.78	1377.72
577.13	1378.84
577.49	1379.62
577.84	1380.02
578.19	1379.95
578.54	1379.96
578.90	1379.57
579.25	1378.71
579.60	1378.05
579.95	1377.75
580.30	1377.38
580.66	1376.53
581.01	1375.85
581.36	1375.27
581.71	1374.94
582.06	1374.29
582.42	1373.55
582.77	1372.64
583.12	1372.18
583.47	1371.15
583.82	1370.27
584.17	1369.14
584.53	1367.57
584.88	1366.24
585.23	1364.77
585.58	1363.79
585.93	1362.37
586.28	1361.32
586.63	1360.63
586.98	1359.34
587.34	1357.65
587.69	1356.41
588.04	1355.38
588.39	1354.03
588.74	1351.59
589.09	1349.17
589.44	1346.88
589.79	1345.28
590.14	1343.75
590.49	1341.43
590.84	1339.09
591.19	1337.09
591.54	1334.28
591.89	1331.44
592.25	1328.97
592.60	1325.76
592.95	1322.38
593.30	1319.48
593.65	1316.59
594.00	1313.67
594.35	1311.12
594.70	1307.69
595.05	1304.60
595.40	1301.14
595.75	1297.60
596.10	1295.52
596.45	1293.25
596.80	1290.97
597.15	1288.21
597.50	1284.90
597.85	1282.31
598.19	1280.13
598.54	1277.47
598.89	1274.94
599.24	1272.32
599.59	1269.19
599.94	1267.00
600.29	1264.71
600.64	1262.02
600.99	1258.68
601.34	1255.43
601.69	1251.81
602.04	1248.99
602.39	1245.89
602.74	1243.53
603.08	1240.90
603.43	1238.04
603.78	1234.66
604.13	1231.27
604.48	1227.80
604.83	1224.58
605.18	1221.35
605.53	1216.90
605.87	1212.96
606.22	1209.57
606.57	1206.12
606.92	1203.00
607.27	1199.35
607.62	1195.69
607.96	1192.45
608.31	1189.23
608.66	1185.22
609.01	1181.43
609.36	1177.34
609.70	1173.03
610.05	1167.96
610.40	1163.71
610.75	1158.98
611.10	1154.57
611.44	1149.89
611.79	1145.57
612.14	1141.11
612.49	1135.99
612.83	1131.68
613.18	1127.37
613.53	1122.69
613.88	1117.63
614.22	1112.94
614.57	1107.99
614.92	1103.07
615.27	1098.43
615.61	1093.67
615.96	1089.40
616.31	1085.10
616.65	1081.43
617.00	1077.23
617.35	1073.13
617.70	1068.39
618.04	1063.64
618.39	1059.01
618.74	1055.02
619.08	1050.42
619.43	1046.05
619.78	1042.07
620.12	1037.56
620.47	1032.84
620.82	1028.48
621.16	1024.49
621.51	1020.11
621.85	1015.76
622.20	1011.21
622.55	1006.60
622.89	1002.18
623.24	997.75
623.59	993.48
623.93	988.72
624.28	984.33
624.62	980.08
624.97	975.93
625.32	971.92
625.66	968.02
626.01	963.34
626.35	958.73
626.70	954.26
627.04	949.80
627.39	945.22
627.73	940.77
628.08	936.35
628.43	931.78
628.77	927.09
629.12	922.47
629.46	918.08
629.81	913.23
630.15	908.53
630.50	903.73
630.84	898.66
631.19	894.10
631.53	889.37
631.88	884.47
632.22	879.68
632.57	875.13
632.91	870.24
633.26	865.70
633.60	860.93
633.95	856.17
634.29	851.72
634.64	847.72
634.98	843.34
635.32	839.17
635.67	835.08
636.01	830.93
636.36	826.88
636.70	822.87
637.05	819.10
637.39	815.18
637.73	811.22
638.08	807.57
638.42	803.67
638.77	799.79
639.11	795.60
639.45	791.79
639.80	787.72
640.14	783.60
640.49	779.70
640.83	776.12
641.17	772.41
641.52	768.32
641.86	764.28
642.20	760.60
642.55	756.45
642.89	752.35
643.23	748.12
643.58	744.50
643.92	740.23
644.26	736.33
644.61	732.64
644.95	728.57
645.29	724.32
645.64	720.26
645.98	716.24
646.32	712.84
646.66	708.61
647.01	704.68
647.35	700.99
647.69	697.10
648.04	693.34
648.38	689.51
648.72	685.30
649.06	681.36
649.41	677.37
649.75	673.30
650.09	669.58
650.43	665.81
650.78	661.44
651.12	657.70
651.46	653.91
651.80	650.00
652.14	646.56
652.49	642.80
652.83	639.15
653.17	635.22
653.51	631.19
653.85	627.83
654.20	624.27
654.54	620.51
654.88	616.69
655.22	612.85
655.56	609.06
655.90	605.74
656.25	602.23
656.59	598.66
656.93	595.31
657.27	591.71
657.61	588.17
657.95	585.19
658.29	581.96
658.64	578.22
658.98	574.60
659.32	570.91
659.66	567.71
660.00	564.20
660.34	560.82
660.68	557.64
661.02	554.12
661.36	550.86
661.70	547.81
662.05	544.89
662.39	541.91
662.73	538.79
663.07	535.94
663.41	533.09
663.75	530.19
664.09	527.34
664.43	524.31
664.77	521.61
665.11	518.68
665.45	515.55
665.79	512.79
666.13	510.10
666.47	507.35
666.81	504.56
667.15	501.81
667.49	499.29
667.83	496.75
668.17	494.19
668.51	491.41
668.85	488.73
669.19	486.27
669.53	483.82
669.87	481.25
670.21	478.67
670.55	476.05
670.89	473.61
671.23	471.16
671.57	468.84
671.91	466.44
672.25	463.96
672.58	461.80
672.92	459.62
673.26	457.57
673.60	455.55
673.94	453.35
674.28	451.37
674.62	449.31
674.96	446.99
675.30	445.09
675.64	443.10
675.97	440.87
676.31	438.74
676.65	436.60
676.99	434.63
677.33	432.48
677.67	430.45
678.01	428.32
678.34	426.24
678.68	424.30
679.02	422.31
679.36	420.49
679.70	418.60
680.04	416.54
680.37	414.42
680.71	412.59
681.05	411.01
681.39	409.08
681.73	407.33
682.06	405.84
682.40	404.04
682.74	402.34
683.08	400.97
683.42	399.10
683.75	397.29
684.09	395.58
684.43	393.95
684.77	392.23
685.10	390.60
685.44	388.94
685.78	387.24
686.12	385.55
686.45	383.76
686.79	382.09
687.13	380.48
687.46	378.88
687.80	377.08
688.14	375.33
688.48	373.90
688.81	372.30
689.15	370.77
689.49	369.07
689.82	367.53
690.16	365.90
690.50	364.53
690.83	363.07
691.17	361.46
691.51	360.02
691.84	358.73
692.18	357.20
692.52	355.81
692.85	354.40
693.19	353.01
693.52	351.68
693.86	350.41
694.20	349.05
694.53	347.84
694.87	346.44
695.21	344.95
695.54	343.46
695.88	342.03
696.21	340.45
696.55	339.23
696.88	337.88
697.22	336.47
697.56	335.15
697.89	334.00
698.23	332.95
698.56	331.70
698.90	330.52
699.23	329.28
699.57	328.04
699.90	326.87
700.24	325.66
700.58	324.40
700.91	323.25
701.25	322.28
701.58	321.18
701.92	320.19
702.25	319.25
702.59	318.17
702.92	317.13
703.26	316.21
703.59	315.21
703.93	314.47
704.26	313.50
704.60	312.46
704.93	311.37
705.26	310.32
705.60	309.60
705.93	308.55
706.27	307.94
706.60	307.20
706.94	306.37
707.27	305.41
707.61	304.80
707.94	303.80
708.27	302.78
708.61	301.88
708.94	301.00
709.28	300.17
709.61	299.61
709.94	298.95
710.28	298.20
710.61	297.40
710.95	296.31
711.28	295.70
711.61	295.00
711.95	294.34
712.28	293.67
712.61	292.69
712.95	291.90
713.28	291.22
713.61	290.39
713.95	289.55
714.28	289.05
714.61	288.15
714.95	287.54
715.28	286.96
715.61	286.20
715.95	285.55
716.28	284.90
716.61	284.10
716.95	283.36
717.28	282.67
717.61	281.96
717.94	281.43
718.28	280.71
718.61	280.10
718.94	279.55
719.27	278.95
719.61	278.37
719.94	277.94
720.27	277.28
720.60	276.71
720.94	276.28
721.27	275.74
721.60	275.25
721.93	274.82
722.27	274.38
722.60	273.96
722.93	273.50
723.26	272.89
723.59	272.39
723.93	272.05
724.26	271.66
724.59	271.26
724.92	270.86
725.25	270.40
725.59	269.96
725.92	269.41
726.25	269.01
726.58	268.57
726.91	268.06
727.24	267.64
727.57	267.24
727.91	266.89
728.24	266.45
728.57	266.17
728.90	265.89
729.23	265.46
729.56	265.21
729.89	264.80
730.22	264.54
730.55	264.34
730.89	263.92
731.22	263.55
731.55	263.27
731.88	262.90
732.21	262.48
732.54	262.15
732.87	261.87
733.20	261.50
733.53	261.33
733.86	261.10
734.19	260.68
734.52	260.43
734.85	260.18
735.18	259.77
735.51	259.50
735.84	258.98
736.17	258.63
736.50	258.20
736.83	258.13
737.16	257.75
737.49	257.37
737.82	257.00
738.15	256.73
738.48	256.38
738.81	256.11
739.14	255.70
739.47	255.46
739.80	255.19
740.13	254.88
740.46	254.42
740.79	254.06
741.12	253.80
741.45	253.49
741.78	253.16
742.11	252.96
742.44	252.50
742.77	252.23
743.10	252.00
743.43	251.71
743.75	251.26
744.08	251.27
744.41	251.00
744.74	250.80
745.07	250.49
745.40	250.29
745.73	250.09
746.06	250.02
746.39	249.73
746.71	249.40
747.04	249.15
747.37	248.92
747.70	248.63
748.03	248.36
748.36	248.09
748.68	247.84
749.01	247.60
749.34	247.58
749.67	247.41
750.00	247.13
750.33	247.03
750.65	246.72
750.98	246.35
751.31	246.08
751.64	245.93
751.97	245.90
752.29	245.70
752.62	245.48
752.95	245.32
753.28	245.05
753.60	244.88
753.93	244.75
754.26	244.60
754.59	244.49
754.91	244.27
755.24	244.14
755.57	243.88
755.90	243.67
756.22	243.30
756.55	243.05
756.88	242.89
757.20	242.48
757.53	242.31
757.86	242.10
758.19	241.98
758.51	241.79
758.84	241.38
759.17	241.22
759.49	241.02
759.82	240.84
760.15	240.71
760.47	240.62
760.80	240.46
761.13	240.42
761.45	240.16
761.78	240.09
762.11	239.86
762.43	239.72
762.76	239.62
763.08	239.53
763.41	239.48
763.74	239.40
764.06	239.36
764.39	239.33
764.71	239.23
765.04	239.06
765.37	238.90
765.69	238.90
766.02	238.68
766.34	238.47
766.67	238.33
767.00	238.29
767.32	238.24
767.65	238.25
767.97	238.07
768.30	238.01
768.62	237.95
768.95	237.80
769.27	237.70
769.60	237.60
769.92	237.45
770.25	237.43
770.57	237.35
770.90	237.22
771.22	237.02
771.55	236.84
771.87	236.75
772.20	236.65
772.52	236.67
772.85	236.68
773.17	236.65
773.50	236.56
773.82	236.48
774.15	236.35
774.47	236.22
774.80	236.17
775.12	236.16
775.45	236.00
775.77	235.97
776.09	235.91
776.42	235.83
776.74	235.90
777.07	235.67
777.39	235.47
777.72	235.36
778.04	235.35
778.36	235.33
778.69	235.37
779.01	235.31
779.33	235.07
779.66	234.96
779.98	234.92
780.31	234.77
780.63	234.68
780.95	234.60
781.28	234.38
781.60	234.31
781.92	234.16
782.25	234.06
782.57	233.95
782.89	233.98
783.22	233.91
783.54	233.78
783.86	233.81
784.19	233.80
784.51	233.95
784.83	233.91
785.16	233.85
785.48	233.71
785.80	233.54
786.12	233.52
786.45	233.46
786.77	233.27
787.09	233.30
787.42	233.26
787.74	233.29
788.06	233.33
788.38	233.21
788.71	233.08
789.03	233.07
789.35	233.20
789.67	232.99
789.99	232.97
790.32	232.80
790.64	232.74
790.96	232.89
791.28	232.64
791.61	232.42
791.93	232.41
792.25	232.35
792.57	232.52
792.89	232.39
793.21	232.30
793.54	232.37
793.86	232.23
794.18	232.17
794.50	232.05
794.82	231.87
795.14	231.80
795.47	231.91
795.79	231.90
796.11	231.72
796.43	231.64
796.75	231.55
797.07	231.56
797.39	231.46
797.71	231.20
798.04	231.23
798.36	231.34
798.68	231.19
799.00	231.22
799.32	231.04
799.64	231.04
799.96	231.02
800.28	231.06
800.60	231.09
800.92	230.97
801.24	230.93
801.56	230.99
801.89	231.00
802.21	230.98
802.53	230.80
802.85	230.79
803.17	230.87
803.49	230.80
803.81	230.85
804.13	230.80
804.45	230.70
804.77	230.61
805.09	230.51
805.41	230.50
805.73	230.37
806.05	230.26
806.37	230.21
806.69	230.15
807.01	230.07
807.33	229.99
807.65	229.96
807.97	229.92
808.28	229.95
808.60	229.97
808.92	229.91
809.24	230.09
809.56	230.02
809.88	229.91
810.20	230.05
810.52	230.03
810.84	229.97
811.16	229.92
811.48	229.95
811.80	230.00
812.12	229.99
812.43	230.02
812.75	230.07
813.07	229.99
813.39	229.95
813.71	229.90
814.03	229.92
814.35	229.96
814.67	229.99
814.98	229.89
815.30	229.80
815.62	229.78
815.94	229.60
816.26	229.69
816.58	229.66
816.89	229.48
817.21	229.40
817.53	229.44
817.85	229.51
818.17	229.57
818.48	229.48
818.80	229.51
819.12	229.50
819.44	229.51
819.76	229.54
820.07	229.57
820.39	229.55
820.71	229.57
821.03	229.63
821.34	229.67
821.66	229.72
821.98	229.87
822.30	229.80
822.61	229.94
822.93	229.95
823.25	229.99
823.57	230.01
823.88	230.10
824.20	230.05
824.52	230.13
824.83	230.06
825.15	230.12
825.47	230.02
825.79	230.03
826.10	229.96
826.42	230.03
826.74	230.10
827.05	230.03
827.37	230.07
827.69	230.01
828.00	229.95
828.32	229.95
828.64	229.79
828.95	229.93
829.27	229.83
829.58	229.83
829.90	229.93
830.22	230.01
830.53	229.90
830.85	230.01
831.17	229.89
831.48	229.90
831.80	229.85
832.11	229.88
832.43	229.79
832.75	229.82
833.06	229.93
833.38	229.90
833.69	229.94
834.01	229.93
834.32	230.02
834.64	229.92
834.96	229.87
835.27	229.88
835.59	229.75
835.90	229.73
836.22	229.62
836.53	229.41
836.85	229.35
837.16	229.62
837.48	229.59
837.79	229.59
838.11	229.57
838.42	229.58
838.74	229.58
839.05	229.66
839.37	229.71
839.68	229.49
840.00	229.41
840.31	229.48
840.63	229.45
840.94	229.38
841.26	229.34
841.57	229.32
841.88	229.31
842.20	229.23
842.51	229.19
842.83	229.20
843.14	229.39
843.46	229.34
843.77	229.20
844.08	229.05
844.40	229.02
844.71	229.00
845.03	228.94
845.34	228.93
845.65	228.82
845.97	228.77
846.28	228.89
846.60	228.91
846.91	228.79
847.22	228.67
847.54	228.66
847.85	228.69
848.16	228.70
848.48	228.71
848.79	228.80
849.10	228.74
849.42	228.77
849.73	228.68
850.04	228.68
850.36	228.54
850.67	228.65
850.98	228.68
851.30	228.78
851.61	228.83
851.92	228.86
852.23	228.97
852.55	228.99
852.86	228.88
853.17	228.92
853.49	229.06
853.80	229.11
854.11	229.12
854.42	229.20
854.74	229.15
855.05	229.17
855.36	229.08
855.67	229.11
855.99	229.07
856.30	229.17
856.61	229.19
856.92	229.24
857.23	229.19
857.55	229.07
857.86	229.00
858.17	229.00
858.48	228.96
858.79	228.93
859.11	228.91
859.42	228.94
859.73	228.87
860.04	228.90
860.35	228.93
860.66	228.95
860.98	228.94
861.29	229.02
861.60	229.03
861.91	229.16
862.22	229.27
862.53	229.27
862.84	229.21
863.16	229.32
863.47	229.31
863.78	229.41
864.09	229.65
864.40	229.64
864.71	229.73
865.02	229.76
865.33	229.77
865.64	229.73
865.95	229.78
866.27	230.01
866.58	229.94
866.89	229.95
867.20	229.94
867.51	229.82
867.82	229.82
868.13	229.90
868.44	229.83
868.75	229.88
869.06	229.90
869.37	229.90
869.68	229.80
869.99	229.88
870.30	229.83
870.61	229.68
870.92	229.64
871.23	229.67
871.54	229.66
871.85	229.72
872.16	229.70
872.47	229.71
872.78	229.49
873.09	229.50
873.40	229.45
873.71	229.36
874.02	229.49
874.33	229.39
874.64	229.33
874.95	229.38
875.26	229.34
875.56	229.40
875.87	229.33
876.18	229.36
876.49	229.54
876.80	229.53
877.11	229.48
877.42	229.50
877.73	229.46
878.04	229.49
878.35	229.44
878.66	229.49
878.96	229.48
879.27	229.45
879.58	229.38
879.89	229.30
880.20	229.31
880.51	229.19
880.82	229.20
881.12	229.16
881.43	229.09
881.74	229.01
882.05	228.94
882.36	228.91
882.67	228.81
882.97	228.51
883.28	228.46
883.59	228.53
883.90	228.45
884.21	228.42
884.51	228.36
884.82	228.23
885.13	228.21
885.44	228.17
885.74	228.15
886.05	228.06
886.36	228.10
886.67	228.04
886.98	228.18
887.28	228.10
887.59	228.17
887.90	228.16
888.20	228.09
888.51	228.02
888.82	228.01
889.13	228.03
889.43	228.20
889.74	228.24
890.05	228.18
890.35	228.24
890.66	228.13
890.97	228.11
891.28	228.21
891.58	228.22
891.89	228.14
892.20	228.16
892.50	228.24
892.81	228.26
893.12	228.24
893.42	228.13
893.73	228.12
894.04	228.09
894.34	228.07
894.65	228.10
894.95	228.22
895.26	228.29
895.57	228.36
895.87	228.18
896.18	228.27
896.48	228.30
896.79	228.24
897.10	228.32
897.40	228.40
897.71	228.40
898.01	228.45
898.32	228.57
898.63	228.61
898.93	228.67
899.24	228.67
899.54	228.68
899.85	228.64
900.15	228.72
900.46	228.65
900.76	228.70
901.07	228.70
901.38	228.58
901.68	228.52
901.99	228.49
902.29	228.54
902.60	228.47
902.90	228.48
903.21	228.50
903.51	228.49
903.82	228.53
904.12	228.59
904.43	228.62
904.73	228.59
905.03	228.64
905.34	228.84
905.64	228.80
905.95	228.86
906.25	228.92
906.56	229.05
906.86	229.09
907.17	229.18
907.47	229.20
907.77	229.25
908.08	229.25
908.38	229.15
908.69	229.08
908.99	229.16
909.30	229.11
909.60	229.15
909.90	229.10
910.21	228.98
910.51	228.89
910.81	228.83
911.12	228.82
911.42	228.74
911.73	228.52
912.03	228.52
912.33	228.57
912.64	228.67
912.94	228.55
913.24	228.54
913.55	228.37
913.85	228.32
914.15	228.34
914.46	228.31
914.76	228.45
915.06	228.45
915.37	228.37
915.67	228.30
915.97	228.35
916.27	228.31
916.58	228.22
916.88	228.20
917.18	228.15
917.49	228.20
917.79	228.23
918.09	228.27
918.39	228.28
918.70	228.21
919.00	228.08
919.30	228.09
919.60	228.08
919.91	228.08
920.21	227.94
920.51	227.93
920.81	227.97
921.12	227.82
921.42	227.78
921.72	227.73
922.02	227.81
922.32	227.74
922.63	227.67
922.93	227.80
923.23	227.84
923.53	227.83
923.83	227.77
924.13	227.73
924.44	227.62
924.74	227.72
925.04	227.81
925.34	227.78
925.64	227.70
925.94	227.61
926.24	227.72
926.55	227.93
926.85	227.89
927.15	227.86
927.45	227.96
927.75	228.04
928.05	228.12
928.35	228.09
928.65	228.07
928.95	228.14
929.26	228.20
929.56	228.24
929.86	228.21
930.16	228.12
930.46	228.04
930.76	228.03
931.06	227.94
931.36	227.77
931.66	227.82
931.96	227.91
932.26	227.97
932.56	227.97
932.86	227.90
933.16	227.94
933.46	227.91
933.76	227.92
934.06	228.00
934.36	228.03
934.66	228.09
934.96	228.12
935.26	228.15
935.56	228.14
935.86	228.05
936.16	228.10
936.46	228.16
936.76	228.17
937.06	228.26
937.36	228.32
937.66	228.43
937.96	228.49
938.26	228.46
938.56	228.53
938.86	228.52
939.16	228.56
939.46	228.67
939.76	228.76
940.06	228.73
940.35	228.69
940.65	228.70
940.95	228.67
941.25	228.66
941.55	228.67
941.85	228.75
942.15	228.84
942.45	228.94
942.75	229.02
943.04	229.15
943.34	229.18
943.64	229.05
943.94	229.04
944.24	229.02
944.54	229.05
944.84	229.04
945.13	229.04
945.43	229.00
945.73	228.94
946.03	228.88
946.33	228.92
946.62	228.96
946.92	228.87
947.22	228.98
947.52	228.98
947.82	229.12
948.11	229.05
948.41	229.01
948.71	228.96
949.01	228.93
949.31	228.90
949.60	228.84
949.90	228.93
950.20	228.85
950.50	228.86
950.79	228.81
951.09	228.78
951.39	228.78
951.69	228.79
951.98	228.74
952.28	228.75
952.58	228.58
952.87	228.46
953.17	228.42
953.47	228.35
953.76	228.30
954.06	228.17
954.36	228.03
954.66	227.97
954.95	227.99
955.25	227.94
955.55	227.99
955.84	227.95
956.14	227.95
956.44	227.98
956.73	227.92
957.03	227.87
957.32	227.88
957.62	227.81
957.92	227.82
958.21	227.83
958.51	228.06
958.81	228.21
959.10	228.14
959.40	228.18
959.69	228.13
959.99	228.08
960.29	227.99
960.58	228.03
960.88	228.09
961.17	228.00
961.47	228.02
961.76	227.92
962.06	227.90
962.36	227.87
962.65	227.77
962.95	227.72
963.24	227.70
963.54	227.61
963.83	227.62
964.13	227.55
964.42	227.41
964.72	227.15
965.01	227.05
965.31	227.12
965.60	227.03
965.90	227.12
966.19	227.02
966.49	227.03
966.78	226.96
967.08	226.94
967.37	226.96
967.67	226.91
967.96	227.03
968.26	227.10
968.55	227.10
968.85	227.20
969.14	227.29
969.43	227.30
969.73	227.38
970.02	227.41
970.32	227.41
970.61	227.44
970.91	227.54
971.20	227.53
971.49	227.62
971.79	227.67
972.08	227.57
972.38	227.75
972.67	227.83
972.96	227.94
973.26	227.99
973.55	228.09
973.85	228.11
974.14	228.06
974.43	228.11
974.73	228.12
975.02	228.12
975.31	228.13
975.61	228.18
975.90	228.25
976.19	228.35
976.49	228.37
976.78	228.50
977.07	228.49
977.37	228.54
977.66	228.61
977.95	228.70
978.24	228.86
978.54	228.97
978.83	229.03
979.12	229.05
979.42	229.05
979.71	229.05
980.00	229.06
980.29	229.13
980.59	229.07
980.88	229.22
981.17	229.20
981.46	229.29
981.76	229.28
982.05	229.30
982.34	229.33
982.63	229.47
982.93	229.42
983.22	229.47
983.51	229.59
983.80	229.52
984.09	229.57
984.39	229.48
984.68	229.34
984.97	229.32
985.26	229.32
985.55	229.33
985.85	229.28
986.14	229.41
986.43	229.40
986.72	229.42
987.01	229.34
987.30	229.35
987.59	229.19
987.89	229.24
988.18	229.21
988.47	228.99
988.76	228.93
989.05	228.91
989.34	228.81
989.63	228.78
989.92	228.76
990.22	228.63
990.51	228.61
990.80	228.67
991.09	228.65
991.38	228.66
991.67	228.54
991.96	228.55
992.25	228.41
992.54	228.28
992.83	228.23
993.12	228.11
993.41	228.12
993.70	228.18
993.99	228.10
994.28	228.09
994.58	228.13
994.87	228.11
995.16	228.13
995.45	228.09
995.74	227.94
996.03	227.85
996.32	227.92
996.61	227.92
996.90	227.83
997.19	227.82
997.48	227.82
997.77	227.82
998.06	227.71
998.34	227.74
998.63	227.71
998.92	227.69
999.21	227.76
999.50	227.78
999.79	227.80
1000.08	227.74
1000.37	227.68
1000.66	227.71
1000.95	227.71
1001.24	227.66
1001.53	227.63
1001.82	227.70
1002.11	227.63
1002.40	227.61
1002.68	227.63
1002.97	227.83
1003.26	227.76
1003.55	227.68
1003.84	227.62
1004.13	227.70
1004.42	227.69
1004.71	227.75
1004.99	227.69
1005.28	227.74
1005.57	227.71
1005.86	227.70
1006.15	227.88
1006.44	227.89
1006.72	227.92
1007.01	227.88
1007.30	227.94
1007.59	228.04
1007.88	228.05
1008.17	228.13
1008.45	228.14
1008.74	228.19
1009.03	228.16
1009.32	228.13
1009.60	228.15
1009.89	228.27
1010.18	228.21
1010.47	228.16
1010.76	228.22
1011.04	228.32
1011.33	228.34
1011.62	228.39
1011.91	228.48
1012.19	228.42
1012.48	228.46
1012.77	228.46
1013.05	228.55
1013.34	228.60
1013.63	228.61
1013.92	228.67
1014.20	228.74
1014.49	228.80
1014.78	228.75
1015.06	228.62
1015.35	228.77
1015.64	228.82
1015.92	228.84
1016.21	228.95
1016.50	229.06
1016.78	229.07
1017.07	229.08
1017.36	229.02
1017.64	229.05
1017.93	229.10
1018.22	229.14
1018.50	229.13
1018.79	229.16
1019.08	229.12
1019.36	229.17
1019.65	229.17
1019.93	229.25
1020.22	229.22
1020.51	229.29
1020.79	229.32
1021.08	229.60
1021.36	228.70
1021.65	229.20
1021.94	228.60
1022.22	230.20
1022.51	228.80
1022.79	230.80
1023.08	228.40
1023.36	231.60
1023.65	228.90
>>>>>End Processed Spectral Data<<<<<
