SpectraSuite Data File
++++++++++++++++++++++++++++++++++++
Date: Fri Feb 01 14:36:26 EST 2013
User: group
Dark Spectrum Present: No
Reference Spectrum Present: No
Number of Sampled Component Spectra: 1
Spectrometers: USB2E7196
Integration Time (usec): 70000 (USB2E7196)
Spectra Averaged: 10 (USB2E7196)
Boxcar Smoothing: 10 (USB2E7196)
Correct for Electrical Dark: No (USB2E7196)
Strobe/Lamp Enabled: No (USB2E7196)
Correct for Detector Non-linearity: No (USB2E7196)
Correct for Stray Light: No (USB2E7196)
Number of Pixels in Processed Spectrum: 2048
>>>>>Begin Processed Spectral Data<<<<<
339.09	0.00
339.48	217.50
339.86	219.50
340.24	221.10
340.63	220.40
341.01	222.40
341.39	222.20
341.78	225.80
342.16	226.90
342.54	226.30
342.93	215.04
343.31	225.88
343.69	226.35
344.07	226.83
344.46	227.20
344.84	227.56
345.22	227.82
345.60	228.14
345.99	228.28
346.37	228.28
346.75	228.37
347.13	228.41
347.52	228.54
347.90	228.76
348.28	228.82
348.66	228.74
349.05	228.72
349.43	228.75
349.81	228.86
350.19	228.95
350.57	229.02
350.96	229.15
351.34	229.26
351.72	229.44
352.10	229.38
352.48	229.43
352.87	229.46
353.25	229.61
353.63	229.70
354.01	229.78
354.39	229.99
354.77	230.08
355.15	230.11
355.54	230.15
355.92	230.09
356.30	230.14
356.68	230.40
357.06	230.38
357.44	230.40
357.82	230.30
358.20	230.40
358.58	230.39
358.97	230.38
359.35	230.45
359.73	230.41
360.11	230.50
360.49	230.55
360.87	230.60
361.25	230.55
361.63	230.57
362.01	230.54
362.39	230.56
362.77	230.54
363.15	230.61
363.53	230.62
363.91	230.54
364.29	230.49
364.67	230.27
365.05	230.28
365.43	230.17
365.81	230.22
366.19	230.20
366.57	230.30
366.95	230.31
367.33	230.20
367.71	230.14
368.09	230.17
368.47	230.08
368.85	230.02
369.23	230.04
369.61	229.89
369.99	229.92
370.37	229.81
370.75	229.79
371.13	229.64
371.51	229.66
371.89	229.72
372.27	229.64
372.65	229.61
373.03	229.50
373.41	229.43
373.78	229.27
374.16	229.06
374.54	228.95
374.92	228.82
375.30	228.74
375.68	228.68
376.06	228.57
376.44	228.49
376.82	228.46
377.19	228.34
377.57	228.25
377.95	228.13
378.33	228.04
378.71	227.85
379.09	227.86
379.47	227.64
379.84	227.57
380.22	227.49
380.60	227.39
380.98	227.37
381.36	227.34
381.73	227.34
382.11	227.32
382.49	227.19
382.87	227.17
383.25	227.16
383.62	227.30
384.00	227.21
384.38	227.17
384.76	227.14
385.13	227.06
385.51	227.05
385.89	226.98
386.27	226.91
386.64	226.96
387.02	226.85
387.40	226.78
387.78	226.70
388.15	226.56
388.53	226.47
388.91	226.39
389.29	226.34
389.66	226.34
390.04	226.38
390.42	226.37
390.79	226.34
391.17	226.35
391.55	226.09
391.92	226.10
392.30	226.13
392.68	226.07
393.05	226.32
393.43	226.32
393.81	226.42
394.18	226.41
394.56	226.45
394.94	226.55
395.31	226.60
395.69	226.71
396.06	226.85
396.44	226.98
396.82	227.12
397.19	227.37
397.57	227.50
397.95	227.61
398.32	227.65
398.70	227.75
399.07	227.81
399.45	227.97
399.82	228.07
400.20	228.07
400.58	228.18
400.95	228.04
401.33	228.17
401.70	228.35
402.08	228.52
402.45	228.69
402.83	228.85
403.20	229.01
403.58	229.17
403.95	229.44
404.33	229.64
404.71	229.84
405.08	230.17
405.46	230.29
405.83	230.43
406.21	230.73
406.58	230.90
406.96	231.11
407.33	231.39
407.70	231.75
408.08	232.27
408.45	232.63
408.83	233.14
409.20	233.63
409.58	233.96
409.95	234.40
410.33	234.83
410.70	235.30
411.08	235.89
411.45	236.49
411.82	237.08
412.20	237.76
412.57	238.50
412.95	238.95
413.32	239.72
413.69	240.50
414.07	241.29
414.44	242.27
414.82	243.30
415.19	244.40
415.56	245.44
415.94	246.46
416.31	247.78
416.68	248.94
417.06	250.32
417.43	251.66
417.81	253.23
418.18	254.84
418.55	256.61
418.93	258.42
419.30	260.26
419.67	262.20
420.04	264.18
420.42	266.30
420.79	268.86
421.16	271.34
421.54	273.90
421.91	276.50
422.28	279.28
422.66	282.11
423.03	284.91
423.40	287.80
423.77	290.85
424.15	293.92
424.52	297.29
424.89	300.80
425.26	304.22
425.64	307.47
426.01	311.02
426.38	314.75
426.75	318.48
427.13	322.49
427.50	326.56
427.87	330.80
428.24	335.10
428.61	339.04
428.99	343.37
429.36	348.33
429.73	353.34
430.10	357.98
430.47	362.87
430.85	367.89
431.22	373.21
431.59	379.00
431.96	384.45
432.33	390.42
432.70	396.30
433.08	403.11
433.45	409.50
433.82	415.89
434.19	422.79
434.56	429.71
434.93	436.06
435.30	442.49
435.68	449.76
436.05	456.90
436.42	464.07
436.79	470.56
437.16	477.52
437.53	484.60
437.90	492.06
438.27	499.17
438.64	506.54
439.01	513.43
439.38	519.52
439.75	525.46
440.13	532.13
440.50	538.70
440.87	544.15
441.24	549.81
441.61	555.82
441.98	560.49
442.35	565.84
442.72	571.24
443.09	576.76
443.46	580.14
443.83	582.34
444.20	584.55
444.57	587.70
444.94	589.29
445.31	591.30
445.68	593.03
446.05	594.22
446.42	594.26
446.79	594.17
447.16	594.16
447.53	594.41
447.90	592.54
448.27	590.41
448.64	587.16
449.01	585.44
449.37	581.61
449.74	577.80
450.11	573.11
450.48	567.98
450.85	562.45
451.22	557.90
451.59	553.71
451.96	549.52
452.33	543.65
452.70	538.41
453.07	531.94
453.43	525.30
453.80	519.04
454.17	512.85
454.54	507.05
454.91	500.58
455.28	494.14
455.65	488.42
456.02	482.48
456.38	477.42
456.75	470.61
457.12	465.24
457.49	459.90
457.86	454.73
458.23	450.41
458.59	445.64
458.96	440.39
459.33	435.84
459.70	431.32
460.07	427.81
460.43	423.74
460.80	419.59
461.17	416.11
461.54	412.24
461.91	408.72
462.27	405.10
462.64	402.06
463.01	398.76
463.38	395.55
463.74	392.27
464.11	389.63
464.48	387.24
464.85	384.43
465.21	382.18
465.58	379.85
465.95	377.08
466.32	374.54
466.68	372.49
467.05	370.20
467.42	368.00
467.78	365.50
468.15	363.19
468.52	361.56
468.88	359.28
469.25	357.36
469.62	355.82
469.98	354.16
470.35	352.47
470.72	350.90
471.08	349.14
471.45	347.87
471.82	346.29
472.18	344.74
472.55	343.53
472.92	342.24
473.28	340.97
473.65	339.62
474.02	338.43
474.38	337.31
474.75	336.41
475.11	335.25
475.48	334.40
475.85	333.52
476.21	332.79
476.58	332.10
476.94	331.67
477.31	330.99
477.67	330.29
478.04	329.74
478.41	329.38
478.77	329.14
479.14	328.60
479.50	328.24
479.87	328.15
480.23	327.97
480.60	327.73
480.96	327.51
481.33	327.52
481.69	327.49
482.06	327.36
482.42	327.35
482.79	327.40
483.15	327.50
483.52	327.94
483.88	328.01
484.25	328.10
484.61	328.18
484.98	328.43
485.34	328.90
485.71	329.49
486.07	329.87
486.44	330.13
486.80	330.77
487.17	331.30
487.53	331.73
487.90	332.39
488.26	333.19
488.62	333.88
488.99	334.60
489.35	335.42
489.72	336.31
490.08	337.14
490.44	337.94
490.81	339.00
491.17	339.75
491.54	340.99
491.90	342.19
492.26	343.41
492.63	344.49
492.99	345.47
493.36	346.56
493.72	347.87
494.08	349.02
494.45	350.26
494.81	351.64
495.17	353.06
495.54	354.48
495.90	355.76
496.26	357.20
496.63	358.69
496.99	360.11
497.35	361.67
497.72	363.30
498.08	364.81
498.44	366.20
498.80	367.86
499.17	369.34
499.53	370.74
499.89	372.30
500.26	373.82
500.62	375.26
500.98	376.77
501.34	378.19
501.71	379.88
502.07	381.36
502.43	382.69
502.79	383.90
503.16	385.27
503.52	386.59
503.88	387.80
504.24	388.98
504.60	390.41
504.97	391.71
505.33	392.73
505.69	394.17
506.05	395.49
506.41	396.58
506.78	397.44
507.14	398.47
507.50	399.43
507.86	400.39
508.22	401.51
508.59	402.35
508.95	403.20
509.31	403.92
509.67	404.65
510.03	405.55
510.39	406.39
510.75	407.02
511.12	407.65
511.48	408.17
511.84	408.82
512.20	409.29
512.56	409.69
512.92	410.35
513.28	410.75
513.64	410.99
514.00	411.37
514.37	411.76
514.73	412.15
515.09	412.36
515.45	412.61
515.81	412.85
516.17	413.15
516.53	413.36
516.89	413.56
517.25	413.57
517.61	413.66
517.97	413.73
518.33	413.90
518.69	414.16
519.05	414.32
519.41	414.48
519.77	414.77
520.13	415.09
520.49	415.20
520.85	415.36
521.21	415.63
521.57	416.00
521.93	416.18
522.29	416.58
522.65	416.88
523.01	417.24
523.37	417.51
523.73	417.87
524.09	418.35
524.45	418.80
524.81	419.44
525.17	420.04
525.53	420.71
525.89	421.22
526.25	421.90
526.61	422.80
526.97	423.54
527.33	424.39
527.68	425.44
528.04	426.50
528.40	427.67
528.76	429.00
529.12	430.19
529.48	431.62
529.84	433.00
530.20	434.57
530.56	436.20
530.91	437.97
531.27	439.70
531.63	441.20
531.99	443.02
532.35	444.90
532.71	446.89
533.07	448.94
533.42	451.21
533.78	453.21
534.14	455.24
534.50	457.33
534.86	459.50
535.21	461.80
535.57	464.26
535.93	466.58
536.29	469.13
536.65	471.66
537.00	474.30
537.36	476.87
537.72	479.65
538.08	482.51
538.44	485.23
538.79	487.94
539.15	490.99
539.51	494.12
539.87	497.40
540.22	500.55
540.58	503.88
540.94	506.99
541.29	510.38
541.65	513.86
542.01	517.64
542.37	521.15
542.72	524.56
543.08	528.04
543.44	531.83
543.79	535.28
544.15	538.97
544.51	543.06
544.87	547.00
545.22	550.68
545.58	554.47
545.94	558.36
546.29	562.49
546.65	566.49
547.01	570.36
547.36	574.24
547.72	578.05
548.07	581.99
548.43	585.98
548.79	590.05
549.14	594.08
549.50	598.13
549.86	602.00
550.21	606.00
550.57	610.29
550.92	614.14
551.28	618.30
551.64	622.32
551.99	626.21
552.35	630.23
552.70	634.48
553.06	638.48
553.41	642.64
553.77	646.77
554.13	650.98
554.48	655.26
554.84	659.38
555.19	663.70
555.55	667.97
555.90	672.23
556.26	676.44
556.61	680.51
556.97	684.62
557.32	688.94
557.68	693.05
558.03	697.14
558.39	701.41
558.74	705.41
559.10	709.35
559.45	713.45
559.81	717.65
560.16	721.46
560.52	725.38
560.87	729.61
561.23	733.24
561.58	737.35
561.94	741.27
562.29	745.21
562.64	748.81
563.00	752.53
563.35	756.56
563.71	760.35
564.06	764.28
564.42	767.84
564.77	771.57
565.12	775.50
565.48	779.00
565.83	782.41
566.19	786.02
566.54	789.51
566.89	792.49
567.25	795.84
567.60	799.48
567.96	803.14
568.31	806.20
568.66	809.64
569.02	812.46
569.37	815.21
569.72	817.89
570.08	820.71
570.43	823.28
570.78	825.69
571.14	828.07
571.49	830.49
571.84	833.42
572.20	835.84
572.55	838.02
572.90	840.36
573.26	842.65
573.61	844.74
573.96	847.17
574.31	849.27
574.67	850.84
575.02	852.33
575.37	853.63
575.72	854.90
576.08	856.51
576.43	857.93
576.78	859.47
577.13	861.29
577.49	862.78
577.84	864.32
578.19	865.54
578.54	866.72
578.90	868.16
579.25	868.66
579.60	869.51
579.95	870.33
580.30	870.81
580.66	871.65
581.01	872.32
581.36	872.70
581.71	873.54
582.06	874.21
582.42	874.73
582.77	875.33
583.12	876.01
583.47	876.49
583.82	877.01
584.17	877.19
584.53	877.26
584.88	877.60
585.23	877.75
585.58	877.83
585.93	878.08
586.28	878.09
586.63	878.33
586.98	878.35
587.34	878.64
587.69	878.91
588.04	878.95
588.39	879.20
588.74	878.73
589.09	878.25
589.44	877.93
589.79	877.66
590.14	877.59
590.49	877.13
590.84	876.43
591.19	875.94
591.54	875.14
591.89	874.15
592.25	873.59
592.60	872.70
592.95	871.94
593.30	870.92
593.65	869.60
594.00	868.50
594.35	868.07
594.70	866.76
595.05	865.64
595.40	864.31
595.75	862.87
596.10	862.15
596.45	861.34
596.80	860.49
597.15	859.52
597.50	858.17
597.85	857.15
598.19	856.18
598.54	855.35
598.89	854.44
599.24	853.74
599.59	852.31
599.94	851.21
600.29	849.74
600.64	848.60
600.99	847.30
601.34	846.26
601.69	844.45
602.04	842.97
602.39	841.55
602.74	840.36
603.08	839.19
603.43	837.83
603.78	836.47
604.13	834.97
604.48	833.44
604.83	831.96
605.18	830.38
605.53	828.50
605.87	826.12
606.22	824.51
606.57	822.38
606.92	820.74
607.27	818.85
607.62	817.47
607.96	815.90
608.31	814.21
608.66	812.05
609.01	809.85
609.36	807.76
609.70	805.33
610.05	802.83
610.40	800.43
610.75	798.10
611.10	795.53
611.44	792.66
611.79	790.33
612.14	787.85
612.49	784.98
612.83	782.48
613.18	780.02
613.53	777.47
613.88	774.85
614.22	772.22
614.57	769.28
614.92	766.49
615.27	763.47
615.61	760.66
615.96	757.95
616.31	755.67
616.65	753.40
617.00	751.25
617.35	748.79
617.70	746.05
618.04	743.19
618.39	740.63
618.74	738.34
619.08	735.39
619.43	732.82
619.78	730.54
620.12	728.09
620.47	725.74
620.82	722.84
621.16	720.44
621.51	717.86
621.85	715.56
622.20	712.98
622.55	710.51
622.89	708.13
623.24	705.87
623.59	703.40
623.93	700.83
624.28	698.20
624.62	695.80
624.97	693.51
625.32	691.22
625.66	688.86
626.01	686.45
626.35	683.77
626.70	681.06
627.04	678.81
627.39	676.09
627.73	673.43
628.08	671.24
628.43	668.59
628.77	666.00
629.12	663.40
629.46	660.89
629.81	658.33
630.15	655.70
630.50	652.67
630.84	649.55
631.19	646.60
631.53	643.92
631.88	641.12
632.22	638.00
632.57	635.53
632.91	632.52
633.26	629.93
633.60	627.52
633.95	625.17
634.29	622.41
634.64	620.19
634.98	617.68
635.32	615.17
635.67	612.79
636.01	610.50
636.36	607.95
636.70	605.60
637.05	603.08
637.39	600.93
637.73	598.78
638.08	596.75
638.42	594.67
638.77	592.69
639.11	590.37
639.45	588.37
639.80	585.68
640.14	583.59
640.49	581.01
640.83	578.61
641.17	576.20
641.52	573.86
641.86	571.47
642.20	569.27
642.55	566.94
642.89	564.71
643.23	562.21
643.58	560.39
643.92	557.93
644.26	555.80
644.61	553.42
644.95	551.42
645.29	548.80
645.64	546.26
645.98	543.69
646.32	541.49
646.66	538.98
647.01	536.84
647.35	534.60
647.69	532.32
648.04	530.20
648.38	528.01
648.72	525.51
649.06	523.08
649.41	520.62
649.75	518.09
650.09	515.70
650.43	513.47
650.78	510.68
651.12	508.30
651.46	505.94
651.80	503.49
652.14	501.06
652.49	498.97
652.83	496.98
653.17	494.65
653.51	492.31
653.85	490.29
654.20	487.96
654.54	485.59
654.88	483.37
655.22	480.97
655.56	478.49
655.90	476.49
656.25	474.19
656.59	472.06
656.93	470.12
657.27	467.92
657.61	465.61
657.95	463.73
658.29	461.78
658.64	459.72
658.98	457.67
659.32	455.16
659.66	453.03
660.00	450.68
660.34	448.53
660.68	446.55
661.02	444.33
661.36	442.38
661.70	440.43
662.05	438.57
662.39	436.89
662.73	435.09
663.07	433.15
663.41	431.32
663.75	429.46
664.09	427.42
664.43	425.56
664.77	423.86
665.11	422.14
665.45	420.26
665.79	418.46
666.13	416.63
666.47	415.14
666.81	413.52
667.15	411.69
667.49	409.94
667.83	408.22
668.17	406.57
668.51	404.84
668.85	403.17
669.19	401.70
669.53	399.86
669.87	398.09
670.21	396.52
670.55	395.08
670.89	393.66
671.23	392.20
671.57	390.85
671.91	389.30
672.25	387.77
672.58	386.46
672.92	384.99
673.26	383.56
673.60	382.27
673.94	380.77
674.28	379.63
674.62	378.58
674.96	377.28
675.30	376.18
675.64	375.05
675.97	373.91
676.31	372.48
676.65	371.29
676.99	370.31
677.33	368.93
677.67	367.57
678.01	366.27
678.34	365.15
678.68	363.88
679.02	362.63
679.36	361.47
679.70	359.98
680.04	358.81
680.37	357.60
680.71	356.30
681.05	355.20
681.39	354.13
681.73	352.79
682.06	351.73
682.40	350.48
682.74	349.30
683.08	348.12
683.42	347.04
683.75	345.92
684.09	344.70
684.43	343.63
684.77	342.65
685.10	341.58
685.44	340.45
685.78	339.38
686.12	338.37
686.45	337.15
686.79	336.17
687.13	335.13
687.46	334.24
687.80	333.25
688.14	332.19
688.48	331.00
688.81	330.03
689.15	329.08
689.49	328.08
689.82	327.07
690.16	326.00
690.50	325.02
690.83	324.02
691.17	322.92
691.51	322.04
691.84	321.00
692.18	320.18
692.52	319.21
692.85	318.22
693.19	317.43
693.52	316.57
693.86	315.70
694.20	314.88
694.53	313.90
694.87	313.03
695.21	312.13
695.54	311.33
695.88	310.28
696.21	309.20
696.55	308.29
696.88	307.32
697.22	306.45
697.56	305.72
697.89	304.96
698.23	304.15
698.56	303.34
698.90	302.50
699.23	301.43
699.57	300.52
699.90	299.70
700.24	298.75
700.58	297.92
700.91	297.18
701.25	296.38
701.58	295.72
701.92	295.01
702.25	294.31
702.59	293.52
702.92	292.88
703.26	292.17
703.59	291.59
703.93	291.09
704.26	290.48
704.60	289.76
704.93	289.12
705.26	288.50
705.60	287.83
705.93	287.20
706.27	286.64
706.60	286.14
706.94	285.61
707.27	284.90
707.61	284.25
707.94	283.66
708.27	282.98
708.61	282.29
708.94	281.64
709.28	281.06
709.61	280.54
709.94	280.16
710.28	279.60
710.61	278.93
710.95	278.20
711.28	277.70
711.61	277.03
711.95	276.54
712.28	275.99
712.61	275.39
712.95	274.93
713.28	274.52
713.61	274.06
713.95	273.49
714.28	273.10
714.61	272.75
714.95	272.26
715.28	271.69
715.61	271.24
715.95	270.82
716.28	270.25
716.61	269.84
716.95	269.23
717.28	268.77
717.61	268.32
717.94	267.91
718.28	267.34
718.61	266.94
718.94	266.38
719.27	266.05
719.61	265.88
719.94	265.53
720.27	265.00
720.60	264.50
720.94	264.11
721.27	263.82
721.60	263.43
721.93	263.03
722.27	262.84
722.60	262.39
722.93	261.94
723.26	261.76
723.59	261.46
723.93	261.23
724.26	260.90
724.59	260.59
724.92	260.33
725.25	260.11
725.59	259.76
725.92	259.53
726.25	259.21
726.58	258.82
726.91	258.45
727.24	258.33
727.57	258.11
727.91	257.78
728.24	257.38
728.57	257.10
728.90	256.84
729.23	256.55
729.56	256.56
729.89	256.38
730.22	256.10
730.55	255.74
730.89	255.38
731.22	255.21
731.55	255.06
731.88	254.75
732.21	254.41
732.54	254.20
732.87	253.89
733.20	253.67
733.53	253.40
733.86	253.22
734.19	252.89
734.52	252.67
734.85	252.50
735.18	252.29
735.51	252.05
735.84	251.80
736.17	251.66
736.50	251.14
736.83	251.08
737.16	250.80
737.49	250.58
737.82	250.39
738.15	250.09
738.48	249.73
738.81	249.53
739.14	249.30
739.47	249.00
739.80	248.83
740.13	248.60
740.46	248.32
740.79	248.03
741.12	247.70
741.45	247.50
741.78	247.30
742.11	247.10
742.44	246.80
742.77	246.61
743.10	246.19
743.43	246.05
743.75	245.57
744.08	245.57
744.41	245.38
744.74	245.10
745.07	244.89
745.40	244.80
745.73	244.60
746.06	244.38
746.39	244.32
746.71	244.10
747.04	243.89
747.37	243.65
747.70	243.48
748.03	243.38
748.36	243.12
748.68	242.90
749.01	242.77
749.34	242.68
749.67	242.43
750.00	242.32
750.33	242.26
750.65	242.20
750.98	241.83
751.31	241.75
751.64	241.59
751.97	241.49
752.29	241.33
752.62	241.14
752.95	241.08
753.28	240.80
753.60	240.57
753.93	240.44
754.26	240.31
754.59	240.19
754.91	240.06
755.24	239.92
755.57	239.77
755.90	239.59
756.22	239.48
756.55	239.47
756.88	239.30
757.20	238.95
757.53	238.81
757.86	238.71
758.19	238.64
758.51	238.66
758.84	238.56
759.17	238.48
759.49	238.38
759.82	238.35
760.15	238.30
760.47	238.34
760.80	238.21
761.13	238.23
761.45	238.09
761.78	238.04
762.11	238.06
762.43	238.01
762.76	237.98
763.08	237.84
763.41	237.73
763.74	237.80
764.06	237.86
764.39	237.74
764.71	237.71
765.04	237.60
765.37	237.40
765.69	237.38
766.02	237.32
766.34	237.27
766.67	237.15
767.00	237.14
767.32	237.17
767.65	237.32
767.97	237.17
768.30	237.25
768.62	237.14
768.95	236.97
769.27	236.93
769.60	236.88
769.92	236.94
770.25	236.85
770.57	236.69
770.90	236.61
771.22	236.61
771.55	236.55
771.87	236.48
772.20	236.46
772.52	236.44
772.85	236.53
773.17	236.52
773.50	236.40
773.82	236.30
774.15	236.08
774.47	235.87
774.80	235.81
775.12	235.71
775.45	235.71
775.77	235.70
776.09	235.60
776.42	235.49
776.74	235.35
777.07	235.25
777.39	235.23
777.72	235.10
778.04	234.98
778.36	234.87
778.69	234.72
779.01	234.70
779.33	234.44
779.66	234.12
779.98	234.03
780.31	233.89
780.63	233.94
780.95	233.94
781.28	233.86
781.60	233.76
781.92	233.54
782.25	233.29
782.57	233.21
782.89	233.08
783.22	233.00
783.54	232.84
783.86	232.80
784.19	232.68
784.51	232.77
784.83	232.70
785.16	232.55
785.48	232.50
785.80	232.43
786.12	232.38
786.45	232.24
786.77	232.18
787.09	232.08
787.42	231.88
787.74	231.74
788.06	231.63
788.38	231.59
788.71	231.52
789.03	231.54
789.35	231.46
789.67	231.47
789.99	231.33
790.32	231.31
790.64	231.33
790.96	231.50
791.28	231.25
791.61	231.24
791.93	231.26
792.25	231.10
792.57	231.17
792.89	231.23
793.21	231.20
793.54	231.07
793.86	231.15
794.18	231.17
794.50	231.18
794.82	231.10
795.14	231.10
795.47	231.11
795.79	231.04
796.11	230.91
796.43	230.79
796.75	230.85
797.07	230.86
797.39	230.81
797.71	230.64
798.04	230.68
798.36	230.69
798.68	230.77
799.00	230.88
799.32	230.80
799.64	230.76
799.96	230.79
800.28	230.86
800.60	230.85
800.92	230.90
801.24	230.88
801.56	230.91
801.89	230.86
802.21	230.90
802.53	230.86
802.85	231.10
803.17	231.34
803.49	231.34
803.81	231.38
804.13	231.37
804.45	231.32
804.77	231.39
805.09	231.34
805.41	231.19
805.73	231.21
806.05	231.16
806.37	231.19
806.69	231.12
807.01	231.20
807.33	231.18
807.65	231.04
807.97	231.13
808.28	231.24
808.60	231.22
808.92	231.20
809.24	231.46
809.56	231.40
809.88	231.25
810.20	231.28
810.52	231.22
810.84	231.22
811.16	231.19
811.48	231.03
811.80	231.16
812.12	231.11
812.43	231.12
812.75	231.12
813.07	231.00
813.39	231.01
813.71	230.92
814.03	230.88
814.35	230.88
814.67	230.70
814.98	230.55
815.30	230.58
815.62	230.54
815.94	230.32
816.26	230.27
816.58	230.16
816.89	229.99
817.21	229.93
817.53	229.79
817.85	229.72
818.17	229.75
818.48	229.45
818.80	229.42
819.12	229.31
819.44	229.20
819.76	229.17
820.07	229.10
820.39	228.98
820.71	229.00
821.03	228.91
821.34	228.86
821.66	228.88
821.98	228.75
822.30	228.66
822.61	228.77
822.93	228.61
823.25	228.66
823.57	228.67
823.88	228.61
824.20	228.59
824.52	228.66
824.83	228.62
825.15	228.63
825.47	228.60
825.79	228.66
826.10	228.60
826.42	228.49
826.74	228.53
827.05	228.54
827.37	228.40
827.69	228.32
828.00	228.33
828.32	228.32
828.64	228.36
828.95	228.43
829.27	228.27
829.58	228.26
829.90	228.16
830.22	228.08
830.53	228.03
830.85	228.01
831.17	227.91
831.48	227.97
831.80	228.01
832.11	227.99
832.43	227.84
832.75	227.77
833.06	227.94
833.38	227.92
833.69	227.89
834.01	227.98
834.32	228.03
834.64	227.97
834.96	227.93
835.27	227.92
835.59	227.82
835.90	227.90
836.22	227.85
836.53	227.89
836.85	227.90
837.16	228.12
837.48	228.13
837.79	228.29
838.11	228.30
838.42	228.26
838.74	228.38
839.05	228.47
839.37	228.54
839.68	228.54
840.00	228.50
840.31	228.64
840.63	228.63
840.94	228.68
841.26	228.74
841.57	228.88
841.88	229.02
842.20	229.07
842.51	229.06
842.83	229.17
843.14	229.30
843.46	229.53
843.77	229.49
844.08	229.53
844.40	229.49
844.71	229.40
845.03	229.50
845.34	229.59
845.65	229.58
845.97	229.62
846.28	229.60
846.60	229.67
846.91	229.59
847.22	229.64
847.54	229.72
847.85	229.81
848.16	229.74
848.48	229.68
848.79	229.84
849.10	229.94
849.42	229.99
849.73	229.90
850.04	229.77
850.36	229.73
850.67	229.76
850.98	229.66
851.30	229.76
851.61	229.76
851.92	229.66
852.23	229.71
852.55	229.80
852.86	229.81
853.17	229.78
853.49	229.80
853.80	229.85
854.11	229.79
854.42	229.74
854.74	229.74
855.05	229.79
855.36	229.56
855.67	229.50
855.99	229.50
856.30	229.65
856.61	229.68
856.92	229.59
857.23	229.54
857.55	229.57
857.86	229.56
858.17	229.54
858.48	229.45
858.79	229.40
859.11	229.40
859.42	229.39
859.73	229.30
860.04	229.30
860.35	229.19
860.66	229.23
860.98	229.17
861.29	229.13
861.60	228.99
861.91	229.04
862.22	228.88
862.53	228.83
862.84	228.63
863.16	228.61
863.47	228.52
863.78	228.56
864.09	228.52
864.40	228.37
864.71	228.30
865.02	228.36
865.33	228.24
865.64	228.14
865.95	227.99
866.27	228.15
866.58	227.99
866.89	228.05
867.20	227.93
867.51	227.97
867.82	227.96
868.13	228.03
868.44	227.93
868.75	228.05
869.06	227.98
869.37	227.97
869.68	227.83
869.99	227.99
870.30	227.85
870.61	227.88
870.92	227.89
871.23	227.83
871.54	227.80
871.85	227.87
872.16	227.88
872.47	227.90
872.78	227.87
873.09	227.99
873.40	227.98
873.71	228.06
874.02	228.14
874.33	228.00
874.64	227.95
874.95	228.05
875.26	228.07
875.56	228.13
875.87	228.11
876.18	228.17
876.49	228.30
876.80	228.37
877.11	228.36
877.42	228.45
877.73	228.56
878.04	228.59
878.35	228.69
878.66	228.72
878.96	228.75
879.27	228.64
879.58	228.66
879.89	228.58
880.20	228.58
880.51	228.54
880.82	228.62
881.12	228.66
881.43	228.63
881.74	228.58
882.05	228.52
882.36	228.57
882.67	228.61
882.97	228.45
883.28	228.45
883.59	228.42
883.90	228.38
884.21	228.40
884.51	228.45
884.82	228.37
885.13	228.29
885.44	228.36
885.74	228.41
886.05	228.38
886.36	228.44
886.67	228.36
886.98	228.42
887.28	228.50
887.59	228.50
887.90	228.56
888.20	228.57
888.51	228.66
888.82	228.64
889.13	228.62
889.43	228.74
889.74	228.70
890.05	228.74
890.35	228.75
890.66	228.71
890.97	228.68
891.28	228.64
891.58	228.55
891.89	228.55
892.20	228.52
892.50	228.45
892.81	228.47
893.12	228.51
893.42	228.35
893.73	228.29
894.04	228.27
894.34	228.27
894.65	228.15
894.95	228.10
895.26	228.08
895.57	228.15
895.87	227.94
896.18	227.96
896.48	227.90
896.79	227.94
897.10	227.97
897.40	227.97
897.71	228.06
898.01	228.21
898.32	228.11
898.63	228.18
898.93	228.27
899.24	228.17
899.54	228.08
899.85	228.05
900.15	227.95
900.46	227.96
900.76	227.88
901.07	227.91
901.38	227.85
901.68	227.88
901.99	227.75
902.29	227.80
902.60	227.84
902.90	227.91
903.21	227.83
903.51	227.85
903.82	227.84
904.12	227.75
904.43	227.75
904.73	227.75
905.03	227.68
905.34	227.84
905.64	227.92
905.95	228.00
906.25	228.07
906.56	228.08
906.86	228.04
907.17	228.19
907.47	228.35
907.77	228.36
908.08	228.40
908.38	228.49
908.69	228.55
908.99	228.50
909.30	228.56
909.60	228.55
909.90	228.46
910.21	228.49
910.51	228.47
910.81	228.55
911.12	228.67
911.42	228.68
911.73	228.48
912.03	228.53
912.33	228.59
912.64	228.57
912.94	228.67
913.24	228.68
913.55	228.60
913.85	228.53
914.15	228.65
914.46	228.57
914.76	228.67
915.06	228.61
915.37	228.66
915.67	228.58
915.97	228.71
916.27	228.69
916.58	228.75
916.88	228.85
917.18	228.73
917.49	228.78
917.79	228.77
918.09	228.80
918.39	228.79
918.70	228.79
919.00	228.79
919.30	228.83
919.60	228.85
919.91	228.83
920.21	228.84
920.51	228.77
920.81	228.68
921.12	228.61
921.42	228.62
921.72	228.68
922.02	228.58
922.32	228.49
922.63	228.52
922.93	228.51
923.23	228.49
923.53	228.41
923.83	228.30
924.13	228.39
924.44	228.46
924.74	228.46
925.04	228.48
925.34	228.51
925.64	228.40
925.94	228.39
926.24	228.47
926.55	228.43
926.85	228.40
927.15	228.52
927.45	228.53
927.75	228.56
928.05	228.45
928.35	228.52
928.65	228.57
928.95	228.64
929.26	228.53
929.56	228.59
929.86	228.77
930.16	228.81
930.46	228.84
930.76	228.70
931.06	228.71
931.36	228.59
931.66	228.51
931.96	228.66
932.26	228.60
932.56	228.52
932.86	228.47
933.16	228.50
933.46	228.44
933.76	228.47
934.06	228.42
934.36	228.59
934.66	228.56
934.96	228.50
935.26	228.40
935.56	228.40
935.86	228.24
936.16	228.12
936.46	228.02
936.76	227.87
937.06	227.88
937.36	227.75
937.66	227.79
937.96	227.80
938.26	227.66
938.56	227.63
938.86	227.59
939.16	227.62
939.46	227.57
939.76	227.51
940.06	227.45
940.35	227.50
940.65	227.30
940.95	227.30
941.25	227.27
941.55	227.27
941.85	227.20
942.15	227.27
942.45	227.29
942.75	227.37
943.04	227.47
943.34	227.49
943.64	227.47
943.94	227.40
944.24	227.38
944.54	227.43
944.84	227.58
945.13	227.60
945.43	227.65
945.73	227.60
946.03	227.64
946.33	227.63
946.62	227.62
946.92	227.70
947.22	227.73
947.52	227.84
947.82	227.96
948.11	228.00
948.41	228.04
948.71	228.04
949.01	228.01
949.31	228.02
949.60	228.13
949.90	228.20
950.20	228.21
950.50	228.29
950.79	228.24
951.09	228.12
951.39	228.14
951.69	228.07
951.98	228.26
952.28	228.25
952.58	228.20
952.87	228.24
953.17	228.22
953.47	228.25
953.76	228.22
954.06	228.16
954.36	228.19
954.66	228.19
954.95	228.19
955.25	228.19
955.55	228.14
955.84	228.07
956.14	228.10
956.44	228.10
956.73	228.09
957.03	228.14
957.32	228.19
957.62	228.25
957.92	228.29
958.21	228.29
958.51	228.55
958.81	228.61
959.10	228.64
959.40	228.74
959.69	228.66
959.99	228.69
960.29	228.69
960.58	228.68
960.88	228.74
961.17	228.68
961.47	228.69
961.76	228.74
962.06	228.78
962.36	228.80
962.65	228.79
962.95	228.81
963.24	228.60
963.54	228.65
963.83	228.59
964.13	228.58
964.42	228.47
964.72	228.32
965.01	228.34
965.31	228.21
965.60	228.11
965.90	228.24
966.19	228.22
966.49	228.12
966.78	228.09
967.08	228.02
967.37	228.07
967.67	228.02
967.96	227.99
968.26	227.87
968.55	227.85
968.85	227.87
969.14	227.83
969.43	227.91
969.73	227.91
970.02	227.96
970.32	227.91
970.61	227.80
970.91	227.59
971.20	227.45
971.49	227.43
971.79	227.50
972.08	227.40
972.38	227.32
972.67	227.36
972.96	227.50
973.26	227.41
973.55	227.42
973.85	227.46
974.14	227.48
974.43	227.52
974.73	227.48
975.02	227.47
975.31	227.56
975.61	227.63
975.90	227.61
976.19	227.48
976.49	227.50
976.78	227.56
977.07	227.73
977.37	227.74
977.66	227.78
977.95	227.67
978.24	227.73
978.54	227.82
978.83	227.90
979.12	227.87
979.42	227.92
979.71	227.94
980.00	227.89
980.29	227.91
980.59	227.92
980.88	228.01
981.17	228.03
981.46	227.91
981.76	227.93
982.05	227.87
982.34	228.03
982.63	228.07
982.93	228.14
983.22	228.15
983.51	228.25
983.80	228.25
984.09	228.37
984.39	228.36
984.68	228.40
984.97	228.38
985.26	228.29
985.55	228.33
985.85	228.37
986.14	228.49
986.43	228.46
986.72	228.47
987.01	228.46
987.30	228.41
987.59	228.46
987.89	228.44
988.18	228.59
988.47	228.47
988.76	228.40
989.05	228.31
989.34	228.23
989.63	228.31
989.92	228.39
990.22	228.30
990.51	228.30
990.80	228.17
991.09	228.18
991.38	228.24
991.67	228.27
991.96	228.21
992.25	228.18
992.54	228.15
992.83	228.16
993.12	228.12
993.41	228.25
993.70	228.23
993.99	228.33
994.28	228.18
994.58	228.24
994.87	228.28
995.16	228.38
995.45	228.50
995.74	228.39
996.03	228.36
996.32	228.50
996.61	228.58
996.90	228.61
997.19	228.57
997.48	228.57
997.77	228.47
998.06	228.33
998.34	228.35
998.63	228.26
998.92	228.24
999.21	228.20
999.50	228.13
999.79	228.09
1000.08	228.02
1000.37	228.10
1000.66	227.98
1000.95	227.88
1001.24	227.85
1001.53	227.81
1001.82	227.80
1002.11	227.68
1002.40	227.66
1002.68	227.54
1002.97	227.63
1003.26	227.59
1003.55	227.52
1003.84	227.58
1004.13	227.70
1004.42	227.64
1004.71	227.70
1004.99	227.67
1005.28	227.74
1005.57	227.71
1005.86	227.77
1006.15	227.79
1006.44	227.72
1006.72	227.73
1007.01	227.73
1007.30	227.70
1007.59	227.58
1007.88	227.48
1008.17	227.46
1008.45	227.47
1008.74	227.40
1009.03	227.42
1009.32	227.41
1009.60	227.46
1009.89	227.36
1010.18	227.30
1010.47	227.27
1010.76	227.29
1011.04	227.37
1011.33	227.32
1011.62	227.37
1011.91	227.28
1012.19	227.25
1012.48	227.32
1012.77	227.35
1013.05	227.49
1013.34	227.50
1013.63	227.52
1013.92	227.60
1014.20	227.60
1014.49	227.58
1014.78	227.62
1015.06	227.54
1015.35	227.60
1015.64	227.54
1015.92	227.65
1016.21	227.80
1016.50	227.81
1016.78	227.81
1017.07	227.80
1017.36	227.86
1017.64	227.85
1017.93	228.02
1018.22	228.11
1018.50	228.15
1018.79	228.13
1019.08	228.16
1019.36	228.21
1019.65	228.17
1019.93	228.22
1020.22	228.32
1020.51	228.36
1020.79	228.33
1021.08	229.50
1021.36	229.60
1021.65	226.50
1021.94	229.50
1022.22	228.50
1022.51	225.80
1022.79	228.60
1023.08	227.90
1023.36	230.10
1023.65	227.10
>>>>>End Processed Spectral Data<<<<<
