SpectraSuite Data File
++++++++++++++++++++++++++++++++++++
Date: Fri Feb 01 14:42:13 EST 2013
User: group
Dark Spectrum Present: No
Reference Spectrum Present: No
Number of Sampled Component Spectra: 1
Spectrometers: USB2E7196
Integration Time (usec): 70000 (USB2E7196)
Spectra Averaged: 10 (USB2E7196)
Boxcar Smoothing: 10 (USB2E7196)
Correct for Electrical Dark: No (USB2E7196)
Strobe/Lamp Enabled: No (USB2E7196)
Correct for Detector Non-linearity: No (USB2E7196)
Correct for Stray Light: No (USB2E7196)
Number of Pixels in Processed Spectrum: 2048
>>>>>Begin Processed Spectral Data<<<<<
339.09	0.00
339.48	216.80
339.86	215.30
340.24	218.20
340.63	219.30
341.01	224.20
341.39	221.20
341.78	224.00
342.16	224.50
342.54	226.50
342.93	213.93
343.31	224.72
343.69	225.12
344.07	225.73
344.46	226.10
344.84	226.52
345.22	226.74
345.60	227.04
345.99	227.25
346.37	227.44
346.75	227.48
347.13	227.51
347.52	227.61
347.90	227.85
348.28	227.97
348.66	228.07
349.05	228.11
349.43	228.14
349.81	228.28
350.19	228.39
350.57	228.53
350.96	228.72
351.34	228.91
351.72	229.15
352.10	229.20
352.48	229.31
352.87	229.43
353.25	229.54
353.63	229.62
354.01	229.72
354.39	229.81
354.77	229.95
355.15	230.09
355.54	230.19
355.92	230.11
356.30	230.20
356.68	230.48
357.06	230.56
357.44	230.63
357.82	230.69
358.20	230.96
358.58	230.98
358.97	231.05
359.35	231.15
359.73	231.12
360.11	231.27
360.49	231.41
360.87	231.42
361.25	231.43
361.63	231.48
362.01	231.61
362.39	231.64
362.77	231.67
363.15	231.69
363.53	231.60
363.91	231.61
364.29	231.63
364.67	231.36
365.05	231.30
365.43	231.34
365.81	231.32
366.19	231.28
366.57	231.38
366.95	231.25
367.33	231.15
367.71	231.30
368.09	231.26
368.47	231.23
368.85	231.22
369.23	231.26
369.61	231.33
369.99	231.32
370.37	231.39
370.75	231.44
371.13	231.43
371.51	231.45
371.89	231.41
372.27	231.31
372.65	231.32
373.03	231.30
373.41	231.30
373.78	231.22
374.16	231.13
374.54	230.92
374.92	230.85
375.30	230.79
375.68	230.57
376.06	230.42
376.44	230.39
376.82	230.32
377.19	230.18
377.57	229.96
377.95	229.73
378.33	229.60
378.71	229.35
379.09	229.20
379.47	229.15
379.84	229.10
380.22	229.04
380.60	228.90
380.98	228.73
381.36	228.62
381.73	228.53
382.11	228.40
382.49	228.33
382.87	228.24
383.25	228.10
383.62	228.35
384.00	228.30
384.38	228.16
384.76	228.10
385.13	228.15
385.51	228.12
385.89	228.01
386.27	227.93
386.64	227.96
387.02	227.95
387.40	227.86
387.78	227.80
388.15	227.77
388.53	227.72
388.91	227.77
389.29	227.63
389.66	227.70
390.04	227.60
390.42	227.71
390.79	227.78
391.17	228.02
391.55	227.80
391.92	227.81
392.30	228.01
392.68	228.07
393.05	228.04
393.43	228.01
393.81	228.22
394.18	228.25
394.56	228.30
394.94	228.48
395.31	228.48
395.69	228.74
396.06	228.79
396.44	228.99
396.82	229.06
397.19	229.37
397.57	229.40
397.95	229.60
398.32	229.58
398.70	229.64
399.07	229.56
399.45	229.52
399.82	229.67
400.20	229.66
400.58	229.82
400.95	229.96
401.33	230.25
401.70	230.40
402.08	230.47
402.45	230.70
402.83	230.84
403.20	231.09
403.58	231.11
403.95	231.30
404.33	231.44
404.71	231.63
405.08	231.85
405.46	232.03
405.83	232.27
406.21	232.56
406.58	232.82
406.96	233.11
407.33	233.45
407.70	233.77
408.08	234.18
408.45	234.49
408.83	234.77
409.20	235.09
409.58	235.26
409.95	235.67
410.33	236.02
410.70	236.36
411.08	236.83
411.45	237.31
411.82	237.85
412.20	238.38
412.57	239.01
412.95	239.41
413.32	240.10
413.69	240.77
414.07	241.55
414.44	242.24
414.82	243.08
415.19	244.00
415.56	244.99
415.94	245.94
416.31	246.95
416.68	247.99
417.06	249.14
417.43	250.45
417.81	251.71
418.18	253.01
418.55	254.31
418.93	255.87
419.30	257.26
419.67	258.77
420.04	260.42
420.42	261.99
420.79	264.00
421.16	265.89
421.54	267.93
421.91	269.81
422.28	271.95
422.66	274.10
423.03	276.30
423.40	278.46
423.77	280.80
424.15	283.12
424.52	285.66
424.89	288.21
425.26	290.66
425.64	293.06
426.01	295.74
426.38	298.53
426.75	301.20
427.13	304.07
427.50	307.13
427.87	310.09
428.24	313.21
428.61	316.02
428.99	319.25
429.36	322.62
429.73	326.15
430.10	329.50
430.47	332.73
430.85	336.10
431.22	339.80
431.59	343.63
431.96	347.29
432.33	351.27
432.70	355.24
433.08	359.98
433.45	364.47
433.82	368.69
434.19	373.40
434.56	378.04
434.93	382.52
435.30	386.70
435.68	391.57
436.05	396.34
436.42	400.85
436.79	405.11
437.16	409.48
437.53	414.16
437.90	418.81
438.27	423.33
438.64	428.14
439.01	432.33
439.38	435.99
439.75	439.71
440.13	443.85
440.50	447.88
440.87	451.05
441.24	454.14
441.61	457.73
441.98	460.24
442.35	463.10
442.72	466.10
443.09	469.23
443.46	470.93
443.83	471.82
444.20	472.69
444.57	473.86
444.94	474.45
445.31	474.89
445.68	475.47
446.05	475.79
446.42	475.25
446.79	474.56
447.16	473.87
447.53	473.23
447.90	471.23
448.27	469.23
448.64	466.50
449.01	464.56
449.37	461.18
449.74	457.89
450.11	454.30
450.48	450.14
450.85	445.88
451.22	442.13
451.59	438.78
451.96	435.68
452.33	431.40
452.70	427.47
453.07	422.68
453.43	417.87
453.80	413.29
454.17	408.65
454.54	404.28
454.91	399.73
455.28	395.28
455.65	391.23
456.02	387.17
456.38	383.57
456.75	379.24
457.12	375.74
457.49	372.02
457.86	368.36
458.23	365.25
458.59	361.74
458.96	358.37
459.33	355.22
459.70	352.09
460.07	349.50
460.43	346.55
460.80	344.06
461.17	341.60
461.54	338.97
461.91	336.73
462.27	334.46
462.64	332.23
463.01	329.96
463.38	327.80
463.74	325.45
464.11	323.41
464.48	321.62
464.85	319.65
465.21	318.32
465.58	316.72
465.95	314.90
466.32	313.41
466.68	311.90
467.05	310.35
467.42	308.86
467.78	307.39
468.15	305.89
468.52	304.74
468.88	303.35
469.25	302.10
469.62	300.96
469.98	299.88
470.35	298.95
470.72	297.98
471.08	296.88
471.45	295.92
471.82	295.07
472.18	294.09
472.55	293.28
472.92	292.40
473.28	291.55
473.65	290.92
474.02	290.21
474.38	289.62
474.75	289.06
475.11	288.44
475.48	287.98
475.85	287.68
476.21	287.16
476.58	286.83
476.94	286.63
477.31	286.23
477.67	285.87
478.04	285.55
478.41	285.41
478.77	285.48
479.14	285.20
479.50	285.06
479.87	285.18
480.23	285.16
480.60	285.06
480.96	285.08
481.33	285.24
481.69	285.39
482.06	285.57
482.42	285.80
482.79	286.10
483.15	286.42
483.52	286.85
483.88	287.28
484.25	287.69
484.61	288.15
484.98	288.78
485.34	289.55
485.71	290.31
486.07	291.21
486.44	291.88
486.80	293.10
487.17	294.10
487.53	295.05
487.90	296.34
488.26	297.81
488.62	299.28
488.99	300.72
489.35	302.25
489.72	303.89
490.08	305.70
490.44	307.45
490.81	309.47
491.17	311.52
491.54	313.64
491.90	315.91
492.26	318.33
492.63	320.88
492.99	323.46
493.36	326.35
493.72	329.27
494.08	332.26
494.45	335.54
494.81	339.10
495.17	342.84
495.54	346.65
495.90	350.63
496.26	354.80
496.63	359.19
496.99	363.83
497.35	368.74
497.72	373.72
498.08	378.98
498.44	384.60
498.80	390.54
499.17	396.60
499.53	402.98
499.89	409.73
500.26	416.63
500.62	423.67
500.98	431.34
501.34	439.11
501.71	447.30
502.07	455.54
502.43	464.09
502.79	473.25
503.16	482.59
503.52	492.28
503.88	502.20
504.24	512.55
504.60	523.25
504.97	534.19
505.33	545.77
505.69	557.97
506.05	569.90
506.41	582.26
506.78	595.01
507.14	608.21
507.50	621.85
507.86	635.91
508.22	650.49
508.59	664.79
508.95	679.96
509.31	695.48
509.67	711.38
510.03	727.47
510.39	743.71
510.75	760.93
511.12	778.27
511.48	796.08
511.84	814.33
512.20	832.98
512.56	852.12
512.92	871.26
513.28	890.79
513.64	910.94
514.00	931.40
514.37	952.35
514.73	973.29
515.09	994.31
515.45	1015.83
515.81	1037.66
516.17	1060.04
516.53	1082.68
516.89	1105.68
517.25	1128.85
517.61	1152.33
517.97	1176.00
518.33	1199.34
518.69	1223.14
519.05	1247.72
519.41	1271.95
519.77	1297.02
520.13	1322.28
520.49	1347.81
520.85	1373.40
521.21	1398.59
521.57	1424.62
521.93	1449.75
522.29	1476.40
522.65	1502.49
523.01	1528.15
523.37	1553.99
523.73	1580.33
524.09	1606.11
524.45	1632.86
524.81	1659.15
525.17	1686.05
525.53	1712.93
525.89	1739.83
526.25	1767.26
526.61	1793.72
526.97	1820.71
527.33	1847.22
527.68	1874.09
528.04	1900.47
528.40	1927.29
528.76	1954.96
529.12	1982.07
529.48	2009.62
529.84	2035.33
530.20	2062.43
530.56	2090.11
530.91	2118.63
531.27	2146.22
531.63	2173.20
531.99	2199.76
532.35	2226.42
532.71	2252.45
533.07	2279.51
533.42	2305.80
533.78	2331.83
534.14	2358.23
534.50	2383.05
534.86	2408.54
535.21	2433.26
535.57	2459.14
535.93	2483.99
536.29	2508.16
536.65	2532.38
537.00	2556.67
537.36	2580.90
537.72	2604.01
538.08	2627.43
538.44	2649.93
538.79	2672.39
539.15	2694.36
539.51	2716.96
539.87	2739.70
540.22	2761.97
540.58	2784.35
540.94	2805.66
541.29	2826.29
541.65	2846.79
542.01	2868.90
542.37	2889.68
542.72	2909.56
543.08	2928.94
543.44	2948.57
543.79	2966.55
544.15	2984.76
544.51	3004.09
544.87	3023.15
545.22	3041.51
545.58	3058.70
545.94	3074.00
546.29	3090.64
546.65	3106.94
547.01	3122.59
547.36	3137.36
547.72	3152.05
548.07	3165.39
548.43	3179.76
548.79	3193.51
549.14	3206.56
549.50	3218.41
549.86	3230.40
550.21	3242.25
550.57	3254.39
550.92	3265.50
551.28	3277.16
551.64	3288.27
551.99	3298.66
552.35	3308.71
552.70	3319.23
553.06	3330.22
553.41	3341.66
553.77	3351.42
554.13	3362.02
554.48	3371.50
554.84	3380.60
555.19	3390.15
555.55	3398.70
555.90	3406.74
556.26	3415.20
556.61	3423.08
556.97	3430.75
557.32	3438.27
557.68	3445.97
558.03	3453.01
558.39	3460.11
558.74	3468.24
559.10	3475.16
559.45	3481.40
559.81	3488.64
560.16	3494.42
560.52	3499.25
560.87	3505.42
561.23	3509.60
561.58	3514.10
561.94	3518.27
562.29	3522.25
562.64	3525.49
563.00	3529.06
563.35	3533.70
563.71	3538.22
564.06	3542.92
564.42	3546.94
564.77	3550.61
565.12	3554.98
565.48	3558.22
565.83	3560.84
566.19	3562.69
566.54	3564.51
566.89	3565.97
567.25	3566.90
567.60	3568.75
567.96	3570.01
568.31	3569.69
568.66	3570.66
569.02	3571.71
569.37	3571.19
569.72	3571.69
570.08	3571.05
570.43	3570.93
570.78	3569.22
571.14	3567.62
571.49	3565.76
571.84	3565.27
572.20	3562.57
572.55	3559.10
572.90	3555.57
573.26	3552.85
573.61	3550.31
573.96	3546.50
574.31	3541.80
574.67	3536.43
575.02	3530.88
575.37	3526.90
575.72	3521.12
576.08	3516.48
576.43	3510.09
576.78	3505.28
577.13	3499.89
577.49	3494.69
577.84	3488.56
578.19	3482.19
578.54	3475.25
578.90	3467.85
579.25	3458.83
579.60	3451.55
579.95	3443.37
580.30	3435.22
580.66	3426.59
581.01	3417.59
581.36	3409.65
581.71	3402.06
582.06	3394.21
582.42	3385.67
582.77	3375.89
583.12	3367.18
583.47	3358.46
583.82	3350.81
584.17	3341.38
584.53	3332.76
584.88	3324.58
585.23	3315.54
585.58	3307.04
585.93	3298.10
586.28	3289.90
586.63	3282.53
586.98	3274.40
587.34	3266.60
587.69	3258.29
588.04	3249.81
588.39	3241.41
588.74	3230.77
589.09	3220.70
589.44	3210.67
589.79	3201.41
590.14	3192.44
590.49	3183.76
590.84	3173.60
591.19	3163.72
591.54	3152.42
591.89	3140.17
592.25	3128.88
592.60	3116.75
592.95	3104.87
593.30	3093.39
593.65	3081.24
594.00	3068.76
594.35	3057.34
594.70	3044.40
595.05	3033.37
595.40	3021.44
595.75	3008.68
596.10	2998.66
596.45	2988.27
596.80	2978.68
597.15	2968.22
597.50	2956.50
597.85	2945.40
598.19	2934.61
598.54	2923.59
598.89	2914.03
599.24	2904.90
599.59	2893.97
599.94	2884.40
600.29	2874.50
600.64	2863.31
600.99	2851.56
601.34	2840.62
601.69	2829.05
602.04	2819.23
602.39	2807.39
602.74	2797.16
603.08	2787.44
603.43	2776.71
603.78	2765.36
604.13	2753.04
604.48	2741.41
604.83	2730.90
605.18	2719.62
605.53	2707.60
605.87	2694.33
606.22	2682.63
606.57	2670.25
606.92	2658.35
607.27	2646.98
607.62	2635.42
607.96	2624.37
608.31	2614.03
608.66	2602.19
609.01	2589.76
609.36	2576.63
609.70	2563.25
610.05	2549.44
610.40	2536.64
610.75	2523.35
611.10	2510.40
611.44	2496.78
611.79	2484.22
612.14	2470.92
612.49	2456.66
612.83	2442.78
613.18	2430.66
613.53	2417.64
613.88	2403.86
614.22	2390.65
614.57	2376.67
614.92	2363.70
615.27	2350.70
615.61	2337.45
615.96	2324.22
616.31	2312.02
616.65	2300.90
617.00	2289.34
617.35	2277.24
617.70	2264.00
618.04	2250.99
618.39	2238.77
618.74	2227.06
619.08	2214.03
619.43	2201.72
619.78	2190.27
620.12	2178.90
620.47	2166.71
620.82	2154.34
621.16	2142.92
621.51	2131.49
621.85	2119.44
622.20	2106.36
622.55	2094.20
622.89	2082.33
623.24	2071.18
623.59	2059.74
623.93	2047.33
624.28	2035.99
624.62	2024.21
624.97	2013.52
625.32	2002.69
625.66	1991.57
626.01	1980.31
626.35	1968.71
626.70	1956.88
627.04	1945.84
627.39	1934.26
627.73	1922.14
628.08	1910.91
628.43	1898.97
628.77	1886.95
629.12	1874.93
629.46	1863.71
629.81	1851.63
630.15	1839.61
630.50	1827.52
630.84	1814.63
631.19	1802.17
631.53	1789.83
631.88	1777.72
632.22	1764.25
632.57	1752.54
632.91	1739.91
633.26	1727.60
633.60	1715.13
633.95	1703.41
634.29	1691.79
634.64	1680.81
634.98	1669.59
635.32	1658.55
635.67	1648.10
636.01	1637.71
636.36	1627.44
636.70	1616.62
637.05	1606.47
637.39	1596.47
637.73	1585.78
638.08	1576.35
638.42	1566.66
638.77	1556.96
639.11	1546.90
639.45	1537.62
639.80	1527.10
640.14	1517.20
640.49	1507.20
640.83	1497.53
641.17	1487.56
641.52	1477.04
641.86	1466.37
642.20	1456.29
642.55	1446.00
642.89	1435.59
643.23	1424.69
643.58	1415.12
643.92	1404.68
644.26	1394.45
644.61	1384.06
644.95	1374.56
645.29	1363.70
645.64	1352.90
645.98	1342.70
646.32	1332.78
646.66	1322.79
647.01	1313.09
647.35	1303.41
647.69	1293.66
648.04	1284.70
648.38	1274.80
648.72	1264.70
649.06	1254.75
649.41	1245.59
649.75	1235.53
650.09	1225.86
650.43	1216.57
650.78	1206.32
651.12	1197.20
651.46	1187.86
651.80	1178.65
652.14	1169.54
652.49	1160.54
652.83	1151.89
653.17	1142.37
653.51	1133.14
653.85	1124.24
654.20	1114.80
654.54	1105.44
654.88	1096.23
655.22	1086.81
655.56	1077.45
655.90	1068.80
656.25	1060.54
656.59	1051.60
656.93	1043.20
657.27	1034.52
657.61	1025.49
657.95	1017.56
658.29	1009.21
658.64	1000.41
658.98	991.56
659.32	982.60
659.66	974.35
660.00	965.86
660.34	957.69
660.68	949.95
661.02	941.71
661.36	934.06
661.70	926.43
662.05	919.18
662.39	911.79
662.73	904.94
663.07	897.91
663.41	890.76
663.75	883.61
664.09	876.35
664.43	869.53
664.77	862.99
665.11	855.74
665.45	849.01
665.79	842.52
666.13	836.23
666.47	829.64
666.81	822.79
667.15	816.26
667.49	810.07
667.83	803.95
668.17	797.39
668.51	791.04
668.85	784.85
669.19	778.87
669.53	772.70
669.87	766.21
670.21	760.13
670.55	754.04
670.89	748.70
671.23	743.26
671.57	737.42
671.91	731.81
672.25	726.27
672.58	720.79
672.92	715.30
673.26	710.10
673.60	704.90
673.94	700.03
674.28	695.33
674.62	690.40
674.96	685.15
675.30	680.40
675.64	675.58
675.97	670.84
676.31	666.03
676.65	661.24
676.99	656.77
677.33	652.17
677.67	647.35
678.01	642.33
678.34	637.56
678.68	633.12
679.02	628.45
679.36	624.12
679.70	619.70
680.04	615.19
680.37	610.60
680.71	606.16
681.05	602.10
681.39	597.82
681.73	593.81
682.06	590.08
682.40	586.37
682.74	582.66
683.08	578.74
683.42	574.58
683.75	570.58
684.09	566.63
684.43	562.77
684.77	559.15
685.10	555.22
685.44	551.50
685.78	547.80
686.12	544.32
686.45	540.66
686.79	536.90
687.13	533.51
687.46	529.90
687.80	526.54
688.14	522.81
688.48	519.59
688.81	515.94
689.15	512.42
689.49	509.02
689.82	505.61
690.16	502.00
690.50	499.08
690.83	496.04
691.17	492.90
691.51	489.65
691.84	486.65
692.18	483.55
692.52	480.53
692.85	477.69
693.19	474.76
693.52	471.80
693.86	468.92
694.20	466.06
694.53	463.22
694.87	460.33
695.21	457.53
695.54	454.41
695.88	451.53
696.21	448.41
696.55	445.48
696.88	442.68
697.22	440.30
697.56	437.43
697.89	434.80
698.23	432.14
698.56	429.68
698.90	427.19
699.23	424.60
699.57	422.14
699.90	419.51
700.24	416.88
700.58	414.40
700.91	411.96
701.25	409.61
701.58	407.39
701.92	405.10
702.25	402.88
702.59	400.96
702.92	398.84
703.26	397.05
703.59	395.18
703.93	393.32
704.26	391.22
704.60	389.07
704.93	387.00
705.26	385.14
705.60	383.30
705.93	381.46
706.27	379.69
706.60	377.99
706.94	376.24
707.27	374.48
707.61	372.72
707.94	371.15
708.27	369.43
708.61	367.56
708.94	365.97
709.28	364.38
709.61	362.59
709.94	361.16
710.28	359.46
710.61	357.80
710.95	356.02
711.28	354.61
711.61	353.14
711.95	351.77
712.28	350.25
712.61	348.61
712.95	347.07
713.28	345.61
713.61	344.10
713.95	342.65
714.28	341.36
714.61	340.09
714.95	338.67
715.28	337.30
715.61	335.99
715.95	334.72
716.28	333.40
716.61	332.09
716.95	330.56
717.28	329.36
717.61	328.11
717.94	326.83
718.28	325.40
718.61	324.18
718.94	322.91
719.27	321.75
719.61	320.64
719.94	319.51
720.27	318.39
720.60	317.23
720.94	316.12
721.27	315.17
721.60	314.09
721.93	313.08
722.27	312.13
722.60	311.18
722.93	310.18
723.26	309.23
723.59	308.26
723.93	307.47
724.26	306.48
724.59	305.53
724.92	304.78
725.25	304.05
725.59	303.29
725.92	302.46
726.25	301.60
726.58	300.76
726.91	299.88
727.24	299.20
727.57	298.44
727.91	297.66
728.24	296.81
728.57	296.06
728.90	295.28
729.23	294.33
729.56	293.67
729.89	292.86
730.22	292.23
730.55	291.50
730.89	290.70
731.22	290.01
731.55	289.41
731.88	288.63
732.21	287.89
732.54	287.13
732.87	286.50
733.20	285.87
733.53	285.25
733.86	284.67
734.19	283.94
734.52	283.31
734.85	282.78
735.18	281.97
735.51	281.38
735.84	280.75
736.17	280.36
736.50	279.67
736.83	279.34
737.16	278.72
737.49	278.20
737.82	277.60
738.15	277.06
738.48	276.50
738.81	275.99
739.14	275.49
739.47	275.01
739.80	274.44
740.13	273.92
740.46	273.33
740.79	272.85
741.12	272.39
741.45	271.78
741.78	271.20
742.11	270.70
742.44	270.12
742.77	269.70
743.10	269.11
743.43	268.70
743.75	268.02
744.08	267.72
744.41	267.17
744.74	266.76
745.07	266.30
745.40	265.79
745.73	265.35
746.06	264.79
746.39	264.36
746.71	263.90
747.04	263.46
747.37	263.10
747.70	262.69
748.03	262.16
748.36	261.81
748.68	261.48
749.01	261.13
749.34	260.86
749.67	260.39
750.00	259.96
750.33	259.73
750.65	259.33
750.98	258.84
751.31	258.51
751.64	258.20
751.97	257.93
752.29	257.53
752.62	257.13
752.95	256.82
753.28	256.38
753.60	256.12
753.93	255.69
754.26	255.34
754.59	254.86
754.91	254.58
755.24	254.24
755.57	253.77
755.90	253.50
756.22	253.06
756.55	252.80
756.88	252.36
757.20	251.95
757.53	251.62
757.86	251.21
758.19	250.94
758.51	250.61
758.84	250.29
759.17	250.01
759.49	249.75
759.82	249.67
760.15	249.43
760.47	249.05
760.80	248.84
761.13	248.67
761.45	248.44
761.78	248.25
762.11	248.00
762.43	247.91
762.76	247.65
763.08	247.44
763.41	247.22
763.74	247.18
764.06	246.82
764.39	246.61
764.71	246.43
765.04	246.20
765.37	246.02
765.69	245.80
766.02	245.58
766.34	245.34
766.67	245.05
767.00	244.97
767.32	244.87
767.65	244.87
767.97	244.64
768.30	244.55
768.62	244.33
768.95	244.12
769.27	243.86
769.60	243.70
769.92	243.62
770.25	243.41
770.57	243.17
770.90	243.01
771.22	242.89
771.55	242.82
771.87	242.61
772.20	242.43
772.52	242.44
772.85	242.49
773.17	242.49
773.50	242.31
773.82	242.12
774.15	241.90
774.47	241.62
774.80	241.49
775.12	241.30
775.45	241.21
775.77	241.16
776.09	241.11
776.42	241.04
776.74	240.93
777.07	240.76
777.39	240.75
777.72	240.62
778.04	240.46
778.36	240.25
778.69	240.20
779.01	240.14
779.33	239.85
779.66	239.58
779.98	239.38
780.31	239.17
780.63	239.21
780.95	239.19
781.28	239.04
781.60	238.80
781.92	238.64
782.25	238.44
782.57	238.17
782.89	237.93
783.22	237.80
783.54	237.69
783.86	237.62
784.19	237.39
784.51	237.40
784.83	237.23
785.16	237.10
785.48	237.01
785.80	236.83
786.12	236.77
786.45	236.72
786.77	236.54
787.09	236.45
787.42	236.19
787.74	236.10
788.06	235.97
788.38	236.00
788.71	235.90
789.03	235.83
789.35	236.00
789.67	235.91
789.99	235.86
790.32	235.69
790.64	235.67
790.96	235.85
791.28	235.66
791.61	235.68
791.93	235.66
792.25	235.55
792.57	235.76
792.89	235.65
793.21	235.68
793.54	235.61
793.86	235.57
794.18	235.57
794.50	235.46
794.82	235.46
795.14	235.45
795.47	235.53
795.79	235.53
796.11	235.29
796.43	235.34
796.75	235.24
797.07	235.28
797.39	235.25
797.71	235.06
798.04	235.16
798.36	235.07
798.68	235.00
799.00	235.06
799.32	234.86
799.64	234.88
799.96	234.74
800.28	234.84
800.60	234.90
800.92	234.86
801.24	234.85
801.56	234.84
801.89	234.72
802.21	234.56
802.53	234.55
802.85	234.61
803.17	234.58
803.49	234.55
803.81	234.40
804.13	234.35
804.45	234.21
804.77	234.06
805.09	234.04
805.41	233.98
805.73	233.89
806.05	233.72
806.37	233.62
806.69	233.53
807.01	233.43
807.33	233.35
807.65	233.22
807.97	233.20
808.28	233.19
808.60	233.13
808.92	233.16
809.24	233.10
809.56	233.02
809.88	232.91
810.20	232.77
810.52	232.76
810.84	232.68
811.16	232.54
811.48	232.53
811.80	232.49
812.12	232.44
812.43	232.32
812.75	232.39
813.07	232.25
813.39	232.18
813.71	232.11
814.03	231.97
814.35	231.93
814.67	231.78
814.98	231.71
815.30	231.66
815.62	231.53
815.94	231.48
816.26	231.56
816.58	231.43
816.89	231.44
817.21	231.36
817.53	231.26
817.85	231.30
818.17	231.25
818.48	231.20
818.80	231.24
819.12	231.16
819.44	230.98
819.76	231.08
820.07	231.06
820.39	231.02
820.71	231.03
821.03	231.00
821.34	231.00
821.66	230.91
821.98	230.96
822.30	230.95
822.61	230.97
822.93	230.90
823.25	230.98
823.57	230.96
823.88	230.96
824.20	230.99
824.52	231.04
824.83	230.89
825.15	230.86
825.47	230.81
825.79	230.86
826.10	230.96
826.42	230.88
826.74	230.90
827.05	230.91
827.37	230.91
827.69	230.85
828.00	230.86
828.32	230.83
828.64	230.70
828.95	230.76
829.27	230.64
829.58	230.51
829.90	230.48
830.22	230.49
830.53	230.51
830.85	230.58
831.17	230.51
831.48	230.62
831.80	230.61
832.11	230.59
832.43	230.62
832.75	230.58
833.06	230.61
833.38	230.59
833.69	230.53
834.01	230.55
834.32	230.64
834.64	230.58
834.96	230.58
835.27	230.66
835.59	230.67
835.90	230.67
836.22	230.69
836.53	230.71
836.85	230.73
837.16	230.76
837.48	230.74
837.79	230.80
838.11	230.71
838.42	230.77
838.74	230.68
839.05	230.60
839.37	230.62
839.68	230.55
840.00	230.47
840.31	230.47
840.63	230.39
840.94	230.28
841.26	230.30
841.57	230.29
841.88	230.33
842.20	230.22
842.51	230.24
842.83	230.22
843.14	230.34
843.46	230.25
843.77	230.26
844.08	230.20
844.40	230.18
844.71	230.19
845.03	230.14
845.34	230.17
845.65	230.15
845.97	229.90
846.28	229.87
846.60	229.91
846.91	229.88
847.22	229.89
847.54	229.88
847.85	229.89
848.16	229.87
848.48	229.70
848.79	229.73
849.10	229.69
849.42	229.70
849.73	229.44
850.04	229.40
850.36	229.24
850.67	229.31
850.98	229.16
851.30	229.15
851.61	229.03
851.92	228.86
852.23	228.85
852.55	228.98
852.86	229.04
853.17	229.00
853.49	229.05
853.80	229.00
854.11	229.07
854.42	229.02
854.74	229.01
855.05	228.97
855.36	228.78
855.67	228.84
855.99	228.80
856.30	229.00
856.61	228.96
856.92	228.98
857.23	228.85
857.55	228.89
857.86	228.80
858.17	228.86
858.48	228.93
858.79	228.85
859.11	228.85
859.42	228.81
859.73	228.80
860.04	228.80
860.35	228.85
860.66	228.77
860.98	228.77
861.29	228.73
861.60	228.78
861.91	228.97
862.22	228.85
862.53	228.81
862.84	228.64
863.16	228.73
863.47	228.79
863.78	228.84
864.09	228.85
864.40	228.90
864.71	228.81
865.02	228.87
865.33	228.90
865.64	228.82
865.95	228.75
866.27	228.84
866.58	228.74
866.89	228.73
867.20	228.87
867.51	228.80
867.82	228.86
868.13	228.93
868.44	228.82
868.75	228.89
869.06	228.99
869.37	229.04
869.68	229.05
869.99	229.02
870.30	229.07
870.61	229.01
870.92	229.10
871.23	229.20
871.54	229.13
871.85	229.17
872.16	229.24
872.47	229.27
872.78	229.24
873.09	229.30
873.40	229.27
873.71	229.17
874.02	229.33
874.33	229.22
874.64	229.22
874.95	229.34
875.26	229.34
875.56	229.24
875.87	229.15
876.18	229.12
876.49	229.33
876.80	229.29
877.11	229.39
877.42	229.33
877.73	229.33
878.04	229.43
878.35	229.53
878.66	229.64
878.96	229.56
879.27	229.48
879.58	229.43
879.89	229.49
880.20	229.56
880.51	229.51
880.82	229.63
881.12	229.69
881.43	229.60
881.74	229.52
882.05	229.57
882.36	229.54
882.67	229.52
882.97	229.30
883.28	229.21
883.59	229.24
883.90	229.26
884.21	229.26
884.51	229.25
884.82	229.08
885.13	229.00
885.44	229.03
885.74	229.04
886.05	229.06
886.36	228.96
886.67	228.76
886.98	228.80
887.28	228.83
887.59	228.68
887.90	228.68
888.20	228.58
888.51	228.45
888.82	228.50
889.13	228.42
889.43	228.54
889.74	228.59
890.05	228.41
890.35	228.33
890.66	228.30
890.97	228.25
891.28	228.25
891.58	228.19
891.89	228.25
892.20	228.20
892.50	228.16
892.81	228.15
893.12	228.27
893.42	228.15
893.73	228.06
894.04	228.03
894.34	228.01
894.65	228.11
894.95	228.19
895.26	228.25
895.57	228.38
895.87	228.20
896.18	228.07
896.48	228.22
896.79	228.32
897.10	228.32
897.40	228.41
897.71	228.49
898.01	228.49
898.32	228.44
898.63	228.46
898.93	228.48
899.24	228.57
899.54	228.48
899.85	228.51
900.15	228.60
900.46	228.58
900.76	228.57
901.07	228.52
901.38	228.59
901.68	228.57
901.99	228.45
902.29	228.40
902.60	228.49
902.90	228.49
903.21	228.45
903.51	228.49
903.82	228.43
904.12	228.45
904.43	228.46
904.73	228.53
905.03	228.53
905.34	228.78
905.64	228.78
905.95	228.86
906.25	228.77
906.56	228.73
906.86	228.78
907.17	228.79
907.47	228.89
907.77	228.86
908.08	228.85
908.38	228.84
908.69	228.97
908.99	228.96
909.30	228.84
909.60	228.86
909.90	228.89
910.21	228.85
910.51	228.80
910.81	228.90
911.12	228.88
911.42	228.97
911.73	228.77
912.03	228.68
912.33	228.72
912.64	228.84
912.94	228.87
913.24	228.92
913.55	228.87
913.85	228.88
914.15	229.00
914.46	229.03
914.76	229.14
915.06	229.15
915.37	229.24
915.67	229.30
915.97	229.36
916.27	229.31
916.58	229.31
916.88	229.28
917.18	229.23
917.49	229.35
917.79	229.26
918.09	229.30
918.39	229.40
918.70	229.41
919.00	229.27
919.30	229.28
919.60	229.23
919.91	229.40
920.21	229.32
920.51	229.15
920.81	229.14
921.12	229.12
921.42	229.20
921.72	229.19
922.02	229.20
922.32	229.10
922.63	229.08
922.93	229.23
923.23	229.31
923.53	229.24
923.83	229.12
924.13	229.24
924.44	229.23
924.74	229.24
925.04	229.23
925.34	229.24
925.64	229.19
925.94	229.11
926.24	229.17
926.55	229.17
926.85	229.20
927.15	229.26
927.45	229.19
927.75	229.03
928.05	229.05
928.35	229.04
928.65	229.11
928.95	229.08
929.26	228.90
929.56	228.85
929.86	229.00
930.16	228.87
930.46	228.78
930.76	228.84
931.06	228.68
931.36	228.60
931.66	228.62
931.96	228.60
932.26	228.61
932.56	228.38
932.86	228.45
933.16	228.45
933.46	228.32
933.76	228.34
934.06	228.37
934.36	228.47
934.66	228.50
934.96	228.50
935.26	228.48
935.56	228.61
935.86	228.54
936.16	228.40
936.46	228.48
936.76	228.44
937.06	228.31
937.36	228.37
937.66	228.39
937.96	228.36
938.26	228.26
938.56	228.26
938.86	228.32
939.16	228.40
939.46	228.51
939.76	228.48
940.06	228.52
940.35	228.50
940.65	228.24
940.95	228.20
941.25	228.07
941.55	228.14
941.85	228.07
942.15	228.08
942.45	228.13
942.75	228.12
943.04	228.16
943.34	228.24
943.64	228.21
943.94	228.17
944.24	228.28
944.54	228.23
944.84	228.33
945.13	228.34
945.43	228.20
945.73	228.09
946.03	228.22
946.33	228.17
946.62	228.20
946.92	228.26
947.22	228.33
947.52	228.35
947.82	228.31
948.11	228.31
948.41	228.39
948.71	228.36
949.01	228.38
949.31	228.37
949.60	228.23
949.90	228.31
950.20	228.30
950.50	228.22
950.79	228.45
951.09	228.44
951.39	228.42
951.69	228.39
951.98	228.42
952.28	228.35
952.58	228.33
952.87	228.30
953.17	228.31
953.47	228.28
953.76	228.35
954.06	228.26
954.36	228.27
954.66	228.10
954.95	228.14
955.25	228.09
955.55	228.28
955.84	228.35
956.14	228.40
956.44	228.39
956.73	228.48
957.03	228.41
957.32	228.38
957.62	228.45
957.92	228.59
958.21	228.57
958.51	228.76
958.81	228.70
959.10	228.76
959.40	228.83
959.69	228.77
959.99	228.77
960.29	228.84
960.58	228.77
960.88	228.95
961.17	228.88
961.47	228.97
961.76	228.76
962.06	228.85
962.36	228.75
962.65	228.75
962.95	228.67
963.24	228.65
963.54	228.65
963.83	228.58
964.13	228.50
964.42	228.49
964.72	228.39
965.01	228.44
965.31	228.40
965.60	228.30
965.90	228.44
966.19	228.33
966.49	228.29
966.78	228.27
967.08	228.26
967.37	228.31
967.67	228.25
967.96	228.39
968.26	228.26
968.55	228.32
968.85	228.28
969.14	228.29
969.43	228.22
969.73	228.23
970.02	228.24
970.32	228.18
970.61	228.14
970.91	228.08
971.20	228.10
971.49	228.11
971.79	228.17
972.08	228.07
972.38	228.20
972.67	228.23
972.96	228.30
973.26	228.28
973.55	228.33
973.85	228.26
974.14	228.07
974.43	228.14
974.73	228.01
975.02	228.09
975.31	228.13
975.61	228.18
975.90	228.13
976.19	228.11
976.49	228.18
976.78	228.14
977.07	228.11
977.37	228.12
977.66	228.16
977.95	228.11
978.24	228.13
978.54	228.14
978.83	228.15
979.12	228.20
979.42	228.23
979.71	228.14
980.00	228.19
980.29	228.30
980.59	228.24
980.88	228.35
981.17	228.34
981.46	228.30
981.76	228.35
982.05	228.44
982.34	228.50
982.63	228.53
982.93	228.58
983.22	228.69
983.51	228.64
983.80	228.60
984.09	228.61
984.39	228.52
984.68	228.47
984.97	228.41
985.26	228.43
985.55	228.47
985.85	228.50
986.14	228.48
986.43	228.47
986.72	228.49
987.01	228.41
987.30	228.37
987.59	228.30
987.89	228.20
988.18	228.12
988.47	228.04
988.76	227.89
989.05	227.87
989.34	227.82
989.63	227.89
989.92	227.83
990.22	227.82
990.51	227.82
990.80	227.82
991.09	227.85
991.38	227.78
991.67	227.69
991.96	227.61
992.25	227.66
992.54	227.56
992.83	227.54
993.12	227.54
993.41	227.68
993.70	227.80
993.99	227.91
994.28	227.97
994.58	228.01
994.87	228.14
995.16	228.15
995.45	228.06
995.74	228.00
996.03	227.98
996.32	228.00
996.61	228.08
996.90	228.13
997.19	228.17
997.48	228.18
997.77	228.17
998.06	228.24
998.34	228.31
998.63	228.44
998.92	228.50
999.21	228.52
999.50	228.46
999.79	228.40
1000.08	228.36
1000.37	228.37
1000.66	228.29
1000.95	228.21
1001.24	228.27
1001.53	228.33
1001.82	228.30
1002.11	228.34
1002.40	228.42
1002.68	228.49
1002.97	228.57
1003.26	228.57
1003.55	228.54
1003.84	228.58
1004.13	228.60
1004.42	228.57
1004.71	228.42
1004.99	228.34
1005.28	228.35
1005.57	228.32
1005.86	228.39
1006.15	228.35
1006.44	228.29
1006.72	228.42
1007.01	228.47
1007.30	228.43
1007.59	228.46
1007.88	228.44
1008.17	228.44
1008.45	228.37
1008.74	228.35
1009.03	228.26
1009.32	228.30
1009.60	228.26
1009.89	228.28
1010.18	228.20
1010.47	228.20
1010.76	228.23
1011.04	228.24
1011.33	228.23
1011.62	228.21
1011.91	228.17
1012.19	228.10
1012.48	228.16
1012.77	228.14
1013.05	228.29
1013.34	228.24
1013.63	228.18
1013.92	228.22
1014.20	228.13
1014.49	228.12
1014.78	228.04
1015.06	228.00
1015.35	227.99
1015.64	228.03
1015.92	228.04
1016.21	227.99
1016.50	227.98
1016.78	228.02
1017.07	228.12
1017.36	228.12
1017.64	228.17
1017.93	228.16
1018.22	228.18
1018.50	228.17
1018.79	228.21
1019.08	228.01
1019.36	228.04
1019.65	228.13
1019.93	228.24
1020.22	228.37
1020.51	228.52
1020.79	228.52
1021.08	227.10
1021.36	228.60
1021.65	229.60
1021.94	227.40
1022.22	227.90
1022.51	229.60
1022.79	230.10
1023.08	229.10
1023.36	231.20
1023.65	227.70
>>>>>End Processed Spectral Data<<<<<
