SpectraSuite Data File
++++++++++++++++++++++++++++++++++++
Date: Fri Feb 01 14:35:22 EST 2013
User: group
Dark Spectrum Present: No
Reference Spectrum Present: No
Number of Sampled Component Spectra: 1
Spectrometers: USB2E7196
Integration Time (usec): 70000 (USB2E7196)
Spectra Averaged: 10 (USB2E7196)
Boxcar Smoothing: 10 (USB2E7196)
Correct for Electrical Dark: No (USB2E7196)
Strobe/Lamp Enabled: No (USB2E7196)
Correct for Detector Non-linearity: No (USB2E7196)
Correct for Stray Light: No (USB2E7196)
Number of Pixels in Processed Spectrum: 2048
>>>>>Begin Processed Spectral Data<<<<<
339.09	0.00
339.48	214.40
339.86	218.30
340.24	217.30
340.63	219.40
341.01	226.10
341.39	222.70
341.78	224.60
342.16	226.10
342.54	226.60
342.93	214.21
343.31	225.10
343.69	225.71
344.07	226.20
344.46	226.66
344.84	227.06
345.22	227.18
345.60	227.41
345.99	227.56
346.37	227.68
346.75	227.78
347.13	227.82
347.52	227.80
347.90	227.85
348.28	227.87
348.66	228.04
349.05	228.01
349.43	228.14
349.81	228.20
350.19	228.29
350.57	228.31
350.96	228.46
351.34	228.50
351.72	228.57
352.10	228.61
352.48	228.71
352.87	228.76
353.25	228.80
353.63	228.89
354.01	228.94
354.39	228.94
354.77	228.96
355.15	229.10
355.54	229.22
355.92	229.28
356.30	229.42
356.68	229.60
357.06	229.68
357.44	229.72
357.82	229.80
358.20	229.92
358.58	230.08
358.97	230.15
359.35	230.20
359.73	230.35
360.11	230.38
360.49	230.39
360.87	230.48
361.25	230.46
361.63	230.52
362.01	230.59
362.39	230.70
362.77	230.80
363.15	230.80
363.53	230.80
363.91	230.87
364.29	230.82
364.67	230.67
365.05	230.71
365.43	230.83
365.81	230.79
366.19	230.86
366.57	230.86
366.95	230.83
367.33	230.80
367.71	230.79
368.09	230.79
368.47	230.80
368.85	230.79
369.23	230.94
369.61	230.81
369.99	230.94
370.37	230.94
370.75	230.97
371.13	230.95
371.51	230.83
371.89	230.75
372.27	230.68
372.65	230.63
373.03	230.51
373.41	230.36
373.78	230.23
374.16	230.01
374.54	229.97
374.92	229.93
375.30	229.99
375.68	229.90
376.06	229.78
376.44	229.67
376.82	229.57
377.19	229.48
377.57	229.39
377.95	229.13
378.33	229.03
378.71	228.78
379.09	228.71
379.47	228.72
379.84	228.68
380.22	228.57
380.60	228.45
380.98	228.31
381.36	228.21
381.73	228.19
382.11	228.14
382.49	228.00
382.87	227.86
383.25	227.60
383.62	227.71
384.00	227.66
384.38	227.59
384.76	227.54
385.13	227.50
385.51	227.54
385.89	227.47
386.27	227.40
386.64	227.47
387.02	227.36
387.40	227.31
387.78	227.27
388.15	227.27
388.53	227.16
388.91	227.20
389.29	227.10
389.66	227.10
390.04	227.18
390.42	227.24
390.79	227.22
391.17	227.43
391.55	227.15
391.92	227.16
392.30	227.23
392.68	227.17
393.05	227.16
393.43	227.18
393.81	227.21
394.18	227.27
394.56	227.29
394.94	227.39
395.31	227.34
395.69	227.43
396.06	227.58
396.44	227.77
396.82	227.83
397.19	228.05
397.57	228.14
397.95	228.07
398.32	228.00
398.70	228.09
399.07	228.03
399.45	228.10
399.82	228.17
400.20	228.35
400.58	228.60
400.95	228.66
401.33	228.85
401.70	229.15
402.08	229.22
402.45	229.34
402.83	229.59
403.20	229.74
403.58	229.95
403.95	230.14
404.33	230.38
404.71	230.58
405.08	230.92
405.46	231.24
405.83	231.65
406.21	232.09
406.58	232.45
406.96	232.87
407.33	233.30
407.70	233.78
408.08	234.23
408.45	234.62
408.83	235.14
409.20	235.64
409.58	236.05
409.95	236.71
410.33	237.35
410.70	237.96
411.08	238.75
411.45	239.37
411.82	240.14
412.20	241.06
412.57	242.13
412.95	242.91
413.32	243.95
413.69	244.86
414.07	245.93
414.44	247.14
414.82	248.29
415.19	249.75
415.56	251.21
415.94	252.69
416.31	254.40
416.68	256.00
417.06	257.85
417.43	259.71
417.81	261.81
418.18	263.89
418.55	266.06
418.93	268.37
419.30	270.80
419.67	273.24
420.04	275.81
420.42	278.42
420.79	281.60
421.16	284.73
421.54	288.00
421.91	291.22
422.28	294.66
422.66	298.30
423.03	301.82
423.40	305.52
423.77	309.62
424.15	313.70
424.52	318.04
424.89	322.67
425.26	327.00
425.64	331.20
426.01	335.76
426.38	340.63
426.75	345.45
427.13	350.55
427.50	356.08
427.87	361.63
428.24	367.17
428.61	372.38
428.99	378.16
429.36	384.58
429.73	390.93
430.10	397.21
430.47	403.56
430.85	410.17
431.22	416.92
431.59	424.18
431.96	430.99
432.33	438.75
432.70	446.12
433.08	455.02
433.45	463.45
433.82	471.71
434.19	480.72
434.56	489.62
434.93	498.21
435.30	506.72
435.68	516.09
436.05	525.23
436.42	534.44
436.79	542.63
437.16	551.48
437.53	560.85
437.90	570.16
438.27	579.49
438.64	589.19
439.01	598.03
439.38	605.93
439.75	613.70
440.13	622.46
440.50	630.62
440.87	637.34
441.24	644.32
441.61	652.26
441.98	658.13
442.35	665.23
442.72	672.27
443.09	678.97
443.46	683.33
443.83	686.52
444.20	689.53
444.57	693.83
444.94	696.11
445.31	698.68
445.68	701.25
446.05	702.79
446.42	702.72
446.79	702.86
447.16	702.77
447.53	703.01
447.90	700.55
448.27	698.28
448.64	694.35
449.01	691.93
449.37	686.65
449.74	681.83
450.11	675.56
450.48	668.67
450.85	661.84
451.22	656.09
451.59	650.54
451.96	645.17
452.33	637.34
452.70	630.54
453.07	622.15
453.43	613.60
453.80	605.58
454.17	597.64
454.54	590.17
454.91	581.88
455.28	573.91
455.65	566.28
456.02	558.63
456.38	552.20
456.75	544.03
457.12	537.23
457.49	530.37
457.86	523.75
458.23	518.00
458.59	511.42
458.96	504.71
459.33	499.16
459.70	493.50
460.07	489.00
460.43	483.70
460.80	478.53
461.17	473.98
461.54	469.12
461.91	464.60
462.27	459.86
462.64	456.00
463.01	451.56
463.38	447.42
463.74	443.33
464.11	439.71
464.48	436.29
464.85	432.76
465.21	429.84
465.58	426.85
465.95	423.41
466.32	420.54
466.68	417.56
467.05	414.43
467.42	411.34
467.78	408.07
468.15	405.20
468.52	403.10
468.88	400.19
469.25	397.61
469.62	395.47
469.98	393.30
470.35	391.10
470.72	389.15
471.08	387.14
471.45	385.30
471.82	383.52
472.18	381.54
472.55	380.24
472.92	378.61
473.28	377.07
473.65	375.43
474.02	373.86
474.38	372.66
474.75	371.67
475.11	370.46
475.48	369.62
475.85	368.75
476.21	367.78
476.58	367.03
476.94	366.38
477.31	365.64
477.67	364.98
478.04	364.39
478.41	363.97
478.77	363.61
479.14	363.10
479.50	362.65
479.87	362.44
480.23	362.19
480.60	361.99
480.96	361.87
481.33	362.10
481.69	362.30
482.06	362.33
482.42	362.09
482.79	362.29
483.15	362.68
483.52	363.12
483.88	363.62
484.25	364.07
484.61	364.39
484.98	365.07
485.34	365.79
485.71	366.66
486.07	367.41
486.44	368.11
486.80	369.10
487.17	370.24
487.53	371.57
487.90	372.59
488.26	373.64
488.62	374.83
488.99	376.00
489.35	377.17
489.72	378.60
490.08	380.23
490.44	381.65
490.81	383.29
491.17	384.79
491.54	386.45
491.90	388.19
492.26	390.27
492.63	392.01
492.99	393.92
493.36	395.71
493.72	397.80
494.08	400.05
494.45	402.16
494.81	404.36
495.17	406.53
495.54	409.09
495.90	411.79
496.26	414.24
496.63	416.73
496.99	419.59
497.35	422.35
497.72	425.21
498.08	427.99
498.44	430.56
498.80	433.70
499.17	436.44
499.53	439.22
499.89	442.10
500.26	445.04
500.62	447.70
500.98	450.93
501.34	453.86
501.71	456.73
502.07	459.63
502.43	462.56
502.79	465.36
503.16	467.99
503.52	470.77
503.88	473.52
504.24	476.40
504.60	479.06
504.97	481.89
505.33	484.60
505.69	487.68
506.05	490.63
506.41	493.00
506.78	495.69
507.14	498.39
507.50	501.02
507.86	503.71
508.22	506.62
508.59	508.85
508.95	511.30
509.31	513.71
509.67	516.28
510.03	518.58
510.39	520.96
510.75	523.30
511.12	525.46
511.48	527.74
511.84	529.67
512.20	531.51
512.56	533.46
512.92	535.52
513.28	537.07
513.64	538.88
514.00	540.52
514.37	542.28
514.73	543.91
515.09	545.41
515.45	546.75
515.81	548.03
516.17	549.67
516.53	551.04
516.89	552.47
517.25	553.64
517.61	554.97
517.97	556.10
518.33	557.29
518.69	558.63
519.05	559.76
519.41	561.09
519.77	562.40
520.13	563.62
520.49	564.42
520.85	565.58
521.21	566.56
521.57	567.94
521.93	568.77
522.29	569.91
522.65	570.68
523.01	571.70
523.37	572.65
523.73	573.57
524.09	574.70
524.45	575.57
524.81	576.60
525.17	577.66
525.53	578.79
525.89	579.96
526.25	580.83
526.61	581.81
526.97	582.85
527.33	584.13
527.68	585.37
528.04	586.74
528.40	588.11
528.76	589.47
529.12	590.66
529.48	592.19
529.84	593.46
530.20	595.05
530.56	596.75
530.91	598.74
531.27	600.42
531.63	602.10
531.99	603.99
532.35	605.72
532.71	607.40
533.07	609.31
533.42	611.37
533.78	613.29
534.14	615.26
534.50	617.03
534.86	618.82
535.21	620.70
535.57	622.86
535.93	624.85
536.29	627.21
536.65	629.40
537.00	631.61
537.36	634.05
537.72	636.57
538.08	639.04
538.44	641.05
538.79	643.50
539.15	645.82
539.51	648.37
539.87	651.26
540.22	653.94
540.58	656.97
540.94	659.44
541.29	662.28
541.65	665.23
542.01	668.72
542.37	671.84
542.72	674.51
543.08	677.39
543.44	680.47
543.79	683.06
544.15	686.10
544.51	689.69
544.87	693.00
545.22	696.03
545.58	699.04
545.94	702.14
546.29	705.31
546.65	708.61
547.01	711.81
547.36	714.73
547.72	717.96
548.07	720.80
548.43	724.11
548.79	727.36
549.14	730.50
549.50	733.39
549.86	736.54
550.21	739.91
550.57	743.20
550.92	746.37
551.28	749.91
551.64	753.34
551.99	756.52
552.35	759.53
552.70	762.92
553.06	766.45
553.41	769.83
553.77	773.21
554.13	776.53
554.48	779.74
554.84	783.04
555.19	786.26
555.55	789.96
555.90	793.06
556.26	796.17
556.61	799.51
556.97	802.54
557.32	805.80
557.68	809.01
558.03	812.13
558.39	815.25
558.74	818.82
559.10	822.02
559.45	824.67
559.81	828.11
560.16	831.26
560.52	834.30
560.87	837.60
561.23	840.61
561.58	844.12
561.94	847.27
562.29	850.43
562.64	853.27
563.00	856.02
563.35	859.13
563.71	862.46
564.06	865.56
564.42	868.67
564.77	871.90
565.12	875.26
565.48	878.25
565.83	880.99
566.19	883.50
566.54	886.11
566.89	889.10
567.25	891.72
567.60	894.56
567.96	897.13
568.31	899.62
568.66	901.76
569.02	903.53
569.37	905.68
569.72	907.74
570.08	910.00
570.43	911.84
570.78	913.70
571.14	915.41
571.49	917.14
571.84	919.29
572.20	920.64
572.55	922.29
572.90	923.81
573.26	925.75
573.61	927.30
573.96	928.75
574.31	929.62
574.67	930.34
575.02	930.93
575.37	931.54
575.72	932.16
576.08	933.48
576.43	934.28
576.78	935.28
577.13	936.24
577.49	936.94
577.84	937.44
578.19	938.32
578.54	938.61
578.90	939.18
579.25	939.01
579.60	939.15
579.95	939.08
580.30	939.16
580.66	939.00
581.01	938.72
581.36	938.51
581.71	938.85
582.06	938.89
582.42	938.94
582.77	938.91
583.12	938.70
583.47	938.05
583.82	937.86
584.17	937.10
584.53	936.84
584.88	936.44
585.23	936.24
585.58	935.74
585.93	935.51
586.28	935.02
586.63	934.87
586.98	934.59
587.34	934.09
587.69	933.57
588.04	932.90
588.39	932.23
588.74	931.26
589.09	930.30
589.44	929.32
589.79	928.43
590.14	927.85
590.49	926.99
590.84	926.05
591.19	925.19
591.54	923.79
591.89	921.76
592.25	920.70
592.60	919.25
592.95	917.38
593.30	915.80
593.65	914.13
594.00	911.98
594.35	910.72
594.70	908.54
595.05	906.66
595.40	904.77
595.75	902.92
596.10	901.37
596.45	899.84
596.80	898.36
597.15	896.86
597.50	894.85
597.85	892.99
598.19	891.47
598.54	889.81
598.89	888.49
599.24	887.34
599.59	885.23
599.94	883.44
600.29	881.70
600.64	879.76
600.99	877.31
601.34	875.92
601.69	873.64
602.04	871.98
602.39	870.14
602.74	868.53
603.08	866.66
603.43	864.90
603.78	862.80
604.13	860.65
604.48	858.45
604.83	856.24
605.18	854.20
605.53	851.84
605.87	849.21
606.22	846.69
606.57	844.30
606.92	842.34
607.27	840.27
607.62	838.31
607.96	836.31
608.31	834.70
608.66	832.20
609.01	829.53
609.36	826.91
609.70	824.17
610.05	821.16
610.40	818.58
610.75	815.84
611.10	812.95
611.44	810.06
611.79	807.19
612.14	804.38
612.49	801.25
612.83	798.49
613.18	795.72
613.53	793.05
613.88	789.84
614.22	786.68
614.57	783.39
614.92	780.31
615.27	777.20
615.61	773.97
615.96	770.92
616.31	768.14
616.65	765.85
617.00	763.13
617.35	760.53
617.70	757.57
618.04	754.33
618.39	751.51
618.74	748.77
619.08	745.69
619.43	742.97
619.78	740.57
620.12	737.56
620.47	734.57
620.82	731.69
621.16	729.01
621.51	726.33
621.85	723.58
622.20	720.53
622.55	717.82
622.89	714.97
623.24	712.32
623.59	709.78
623.93	706.91
624.28	704.38
624.62	701.57
624.97	698.96
625.32	696.61
625.66	694.19
626.01	691.57
626.35	688.87
626.70	686.05
627.04	683.21
627.39	680.42
627.73	677.84
628.08	675.06
628.43	672.31
628.77	669.67
629.12	666.75
629.46	664.31
629.81	661.37
630.15	658.77
630.50	655.95
630.84	652.80
631.19	649.42
631.53	646.50
631.88	643.55
632.22	640.24
632.57	637.50
632.91	634.37
633.26	631.50
633.60	628.79
633.95	626.21
634.29	623.75
634.64	621.50
634.98	618.80
635.32	616.38
635.67	614.14
636.01	611.54
636.36	609.08
636.70	606.61
637.05	604.06
637.39	601.40
637.73	598.98
638.08	596.79
638.42	594.80
638.77	592.42
639.11	590.02
639.45	587.89
639.80	585.28
640.14	582.92
640.49	580.51
640.83	578.23
641.17	575.86
641.52	573.38
641.86	570.66
642.20	568.18
642.55	565.65
642.89	562.97
643.23	560.51
643.58	558.34
643.92	555.78
644.26	553.58
644.61	551.47
644.95	549.00
645.29	546.30
645.64	543.70
645.98	541.23
646.32	538.90
646.66	536.57
647.01	534.20
647.35	531.97
647.69	529.64
648.04	527.47
648.38	524.85
648.72	522.22
649.06	519.80
649.41	517.47
649.75	514.96
650.09	512.47
650.43	510.00
650.78	507.36
651.12	504.84
651.46	502.40
651.80	500.05
652.14	497.81
652.49	495.74
652.83	493.57
653.17	491.16
653.51	488.85
653.85	486.48
654.20	484.16
654.54	481.62
654.88	479.09
655.22	476.58
655.56	474.42
655.90	472.39
656.25	470.36
656.59	468.38
656.93	466.58
657.27	464.73
657.61	462.51
657.95	460.63
658.29	458.83
658.64	456.78
658.98	454.41
659.32	452.32
659.66	450.25
660.00	448.13
660.34	446.15
660.68	444.11
661.02	442.12
661.36	440.33
661.70	438.49
662.05	436.87
662.39	435.01
662.73	433.09
663.07	431.28
663.41	429.40
663.75	427.38
664.09	425.39
664.43	423.43
664.77	421.76
665.11	420.00
665.45	418.12
665.79	416.29
666.13	414.81
666.47	413.03
666.81	411.19
667.15	409.36
667.49	407.63
667.83	406.13
668.17	404.46
668.51	402.84
668.85	401.33
669.19	399.76
669.53	398.10
669.87	396.59
670.21	394.98
670.55	393.32
670.89	392.04
671.23	390.69
671.57	389.29
671.91	387.77
672.25	386.29
672.58	384.87
672.92	383.31
673.26	381.88
673.60	380.49
673.94	379.16
674.28	377.95
674.62	376.74
674.96	375.33
675.30	374.20
675.64	372.76
675.97	371.39
676.31	370.01
676.65	368.87
676.99	367.67
677.33	366.39
677.67	365.15
678.01	363.71
678.34	362.41
678.68	361.09
679.02	359.82
679.36	358.51
679.70	357.24
680.04	356.10
680.37	354.69
680.71	353.48
681.05	352.49
681.39	351.40
681.73	350.27
682.06	349.15
682.40	348.06
682.74	347.03
683.08	346.10
683.42	344.95
683.75	343.94
684.09	342.84
684.43	341.69
684.77	340.64
685.10	339.54
685.44	338.32
685.78	337.26
686.12	336.33
686.45	335.36
686.79	334.30
687.13	333.38
687.46	332.44
687.80	331.37
688.14	330.10
688.48	329.07
688.81	328.00
689.15	326.94
689.49	325.74
689.82	324.62
690.16	323.39
690.50	322.55
690.83	321.46
691.17	320.40
691.51	319.48
691.84	318.59
692.18	317.58
692.52	316.61
692.85	315.73
693.19	314.81
693.52	313.87
693.86	312.80
694.20	311.80
694.53	310.80
694.87	309.94
695.21	309.13
695.54	308.11
695.88	307.13
696.21	306.27
696.55	305.40
696.88	304.57
697.22	303.76
697.56	302.94
697.89	302.07
698.23	301.29
698.56	300.47
698.90	299.57
699.23	298.80
699.57	298.10
699.90	297.25
700.24	296.32
700.58	295.54
700.91	294.94
701.25	294.49
701.58	294.03
701.92	293.47
702.25	292.78
702.59	292.09
702.92	291.56
703.26	290.90
703.59	290.40
703.93	290.00
704.26	289.51
704.60	288.76
704.93	288.17
705.26	287.43
705.60	286.80
705.93	286.30
706.27	285.87
706.60	285.36
706.94	284.92
707.27	284.55
707.61	284.00
707.94	283.46
708.27	282.79
708.61	282.06
708.94	281.42
709.28	280.81
709.61	280.30
709.94	279.66
710.28	279.22
710.61	278.55
710.95	277.80
711.28	277.43
711.61	276.97
711.95	276.61
712.28	276.13
712.61	275.60
712.95	275.15
713.28	274.66
713.61	274.09
713.95	273.54
714.28	273.02
714.61	272.52
714.95	272.00
715.28	271.49
715.61	271.12
715.95	270.72
716.28	270.29
716.61	269.81
716.95	269.60
717.28	269.08
717.61	268.77
717.94	268.31
718.28	267.61
718.61	267.24
718.94	266.75
719.27	266.41
719.61	266.07
719.94	265.62
720.27	265.18
720.60	264.72
720.94	264.36
721.27	264.06
721.60	263.78
721.93	263.55
722.27	263.23
722.60	262.86
722.93	262.57
723.26	262.35
723.59	262.07
723.93	261.55
724.26	261.25
724.59	260.89
724.92	260.63
725.25	260.39
725.59	260.06
725.92	259.71
726.25	259.46
726.58	259.11
726.91	258.78
727.24	258.45
727.57	258.24
727.91	257.92
728.24	257.54
728.57	257.21
728.90	256.86
729.23	256.55
729.56	256.27
729.89	255.88
730.22	255.47
730.55	255.18
730.89	255.02
731.22	254.72
731.55	254.36
731.88	254.07
732.21	253.70
732.54	253.34
732.87	252.98
733.20	252.65
733.53	252.46
733.86	252.24
734.19	251.92
734.52	251.74
734.85	251.61
735.18	251.33
735.51	251.10
735.84	250.91
736.17	250.62
736.50	250.30
736.83	250.29
737.16	250.08
737.49	249.74
737.82	249.44
738.15	249.21
738.48	249.07
738.81	248.85
739.14	248.65
739.47	248.48
739.80	248.39
740.13	248.20
740.46	247.95
740.79	247.73
741.12	247.59
741.45	247.32
741.78	247.07
742.11	246.86
742.44	246.68
742.77	246.47
743.10	246.25
743.43	246.07
743.75	245.69
744.08	245.74
744.41	245.68
744.74	245.56
745.07	245.40
745.40	245.22
745.73	245.09
746.06	244.93
746.39	244.80
746.71	244.64
747.04	244.45
747.37	244.22
747.70	244.04
748.03	243.83
748.36	243.77
748.68	243.59
749.01	243.40
749.34	243.18
749.67	243.03
750.00	242.91
750.33	243.03
750.65	242.89
750.98	242.54
751.31	242.38
751.64	242.16
751.97	242.15
752.29	241.98
752.62	241.87
752.95	241.82
753.28	241.57
753.60	241.49
753.93	241.45
754.26	241.33
754.59	241.26
754.91	241.13
755.24	240.87
755.57	240.78
755.90	240.80
756.22	240.71
756.55	240.68
756.88	240.47
757.20	240.16
757.53	240.00
757.86	239.87
758.19	239.70
758.51	239.61
758.84	239.34
759.17	239.26
759.49	239.06
759.82	238.92
760.15	238.93
760.47	238.71
760.80	238.54
761.13	238.52
761.45	238.40
761.78	238.21
762.11	238.16
762.43	237.93
762.76	237.75
763.08	237.61
763.41	237.48
763.74	237.45
764.06	237.33
764.39	237.22
764.71	237.13
765.04	236.99
765.37	236.87
765.69	236.65
766.02	236.61
766.34	236.56
766.67	236.41
767.00	236.23
767.32	236.04
767.65	235.96
767.97	235.84
768.30	235.63
768.62	235.57
768.95	235.36
769.27	235.30
769.60	235.17
769.92	235.05
770.25	234.89
770.57	234.76
770.90	234.66
771.22	234.58
771.55	234.51
771.87	234.44
772.20	234.42
772.52	234.60
772.85	234.66
773.17	234.55
773.50	234.51
773.82	234.50
774.15	234.57
774.47	234.41
774.80	234.33
775.12	234.30
775.45	234.36
775.77	234.24
776.09	234.13
776.42	234.08
776.74	234.13
777.07	234.08
777.39	234.08
777.72	234.02
778.04	234.00
778.36	234.09
778.69	234.15
779.01	233.99
779.33	233.80
779.66	233.59
779.98	233.57
780.31	233.58
780.63	233.57
780.95	233.51
781.28	233.47
781.60	233.35
781.92	233.33
782.25	233.29
782.57	233.28
782.89	233.28
783.22	233.20
783.54	233.12
783.86	232.99
784.19	232.93
784.51	232.94
784.83	232.86
785.16	232.70
785.48	232.67
785.80	232.68
786.12	232.69
786.45	232.64
786.77	232.55
787.09	232.51
787.42	232.45
787.74	232.36
788.06	232.38
788.38	232.35
788.71	232.29
789.03	232.24
789.35	232.29
789.67	232.20
789.99	232.23
790.32	232.18
790.64	232.30
790.96	232.46
791.28	232.33
791.61	232.31
791.93	232.22
792.25	232.05
792.57	232.20
792.89	232.11
793.21	232.14
793.54	232.15
793.86	232.14
794.18	232.01
794.50	232.02
794.82	232.04
795.14	232.12
795.47	232.19
795.79	232.15
796.11	232.20
796.43	232.25
796.75	232.20
797.07	232.12
797.39	232.02
797.71	231.82
798.04	231.79
798.36	231.75
798.68	231.87
799.00	231.97
799.32	231.89
799.64	231.89
799.96	231.74
800.28	231.69
800.60	231.65
800.92	231.80
801.24	231.78
801.56	231.75
801.89	231.65
802.21	231.68
802.53	231.65
802.85	231.60
803.17	231.68
803.49	231.62
803.81	231.76
804.13	231.74
804.45	231.72
804.77	231.79
805.09	231.76
805.41	231.58
805.73	231.51
806.05	231.42
806.37	231.42
806.69	231.39
807.01	231.39
807.33	231.26
807.65	231.09
807.97	231.08
808.28	230.97
808.60	230.93
808.92	230.80
809.24	230.85
809.56	230.79
809.88	230.68
810.20	230.77
810.52	230.67
810.84	230.59
811.16	230.55
811.48	230.44
811.80	230.43
812.12	230.37
812.43	230.39
812.75	230.38
813.07	230.41
813.39	230.53
813.71	230.42
814.03	230.46
814.35	230.51
814.67	230.49
814.98	230.50
815.30	230.50
815.62	230.53
815.94	230.39
816.26	230.43
816.58	230.38
816.89	230.27
817.21	230.17
817.53	230.22
817.85	230.18
818.17	230.15
818.48	230.14
818.80	230.27
819.12	230.18
819.44	230.17
819.76	230.01
820.07	229.89
820.39	229.99
820.71	229.93
821.03	229.80
821.34	229.77
821.66	229.68
821.98	229.61
822.30	229.49
822.61	229.55
822.93	229.35
823.25	229.32
823.57	229.31
823.88	229.40
824.20	229.37
824.52	229.36
824.83	229.39
825.15	229.36
825.47	229.26
825.79	229.32
826.10	229.30
826.42	229.34
826.74	229.39
827.05	229.30
827.37	229.34
827.69	229.44
828.00	229.38
828.32	229.43
828.64	229.54
828.95	229.66
829.27	229.60
829.58	229.71
829.90	229.69
830.22	229.69
830.53	229.60
830.85	229.56
831.17	229.56
831.48	229.61
831.80	229.58
832.11	229.60
832.43	229.59
832.75	229.52
833.06	229.61
833.38	229.48
833.69	229.49
834.01	229.50
834.32	229.40
834.64	229.37
834.96	229.37
835.27	229.25
835.59	229.16
835.90	229.24
836.22	229.16
836.53	229.20
836.85	229.18
837.16	229.37
837.48	229.36
837.79	229.36
838.11	229.32
838.42	229.29
838.74	229.30
839.05	229.30
839.37	229.23
839.68	229.10
840.00	229.15
840.31	229.15
840.63	229.10
840.94	229.23
841.26	229.34
841.57	229.34
841.88	229.38
842.20	229.32
842.51	229.29
842.83	229.41
843.14	229.61
843.46	229.62
843.77	229.44
844.08	229.48
844.40	229.39
844.71	229.28
845.03	229.32
845.34	229.23
845.65	229.20
845.97	229.16
846.28	229.01
846.60	228.97
846.91	229.00
847.22	228.91
847.54	228.85
847.85	228.77
848.16	228.77
848.48	228.67
848.79	228.83
849.10	228.84
849.42	228.81
849.73	228.50
850.04	228.49
850.36	228.43
850.67	228.39
850.98	228.47
851.30	228.56
851.61	228.49
851.92	228.51
852.23	228.51
852.55	228.61
852.86	228.80
853.17	228.81
853.49	228.75
853.80	228.80
854.11	228.82
854.42	228.87
854.74	228.80
855.05	228.79
855.36	228.61
855.67	228.50
855.99	228.46
856.30	228.72
856.61	228.75
856.92	228.78
857.23	228.84
857.55	228.86
857.86	228.90
858.17	228.98
858.48	228.96
858.79	228.96
859.11	228.96
859.42	228.93
859.73	228.93
860.04	228.96
860.35	228.94
860.66	228.90
860.98	228.78
861.29	228.84
861.60	228.87
861.91	228.94
862.22	228.99
862.53	228.95
862.84	228.81
863.16	228.77
863.47	228.79
863.78	228.65
864.09	228.60
864.40	228.54
864.71	228.50
865.02	228.61
865.33	228.58
865.64	228.47
865.95	228.49
866.27	228.60
866.58	228.50
866.89	228.50
867.20	228.52
867.51	228.69
867.82	228.72
868.13	228.84
868.44	228.80
868.75	228.82
869.06	228.76
869.37	228.74
869.68	228.70
869.99	228.61
870.30	228.76
870.61	228.76
870.92	228.70
871.23	228.70
871.54	228.76
871.85	228.85
872.16	229.05
872.47	229.00
872.78	228.98
873.09	229.02
873.40	229.05
873.71	228.94
874.02	228.80
874.33	228.71
874.64	228.60
874.95	228.62
875.26	228.55
875.56	228.54
875.87	228.52
876.18	228.56
876.49	228.77
876.80	228.67
877.11	228.68
877.42	228.74
877.73	228.88
878.04	228.75
878.35	228.78
878.66	228.64
878.96	228.70
879.27	228.67
879.58	228.76
879.89	228.70
880.20	228.87
880.51	228.98
880.82	229.02
881.12	229.09
881.43	229.04
881.74	229.08
882.05	229.19
882.36	229.26
882.67	229.21
882.97	229.10
883.28	229.24
883.59	229.32
883.90	229.23
884.21	229.14
884.51	229.15
884.82	229.07
885.13	229.09
885.44	229.01
885.74	229.01
886.05	228.98
886.36	228.96
886.67	228.91
886.98	228.98
887.28	228.93
887.59	228.92
887.90	228.99
888.20	228.98
888.51	229.08
888.82	228.89
889.13	228.92
889.43	228.97
889.74	228.75
890.05	228.60
890.35	228.64
890.66	228.65
890.97	228.61
891.28	228.53
891.58	228.54
891.89	228.58
892.20	228.50
892.50	228.43
892.81	228.45
893.12	228.38
893.42	228.28
893.73	228.29
894.04	228.30
894.34	228.35
894.65	228.31
894.95	228.21
895.26	228.36
895.57	228.42
895.87	228.23
896.18	228.25
896.48	228.31
896.79	228.34
897.10	228.29
897.40	228.19
897.71	228.21
898.01	228.11
898.32	228.07
898.63	228.07
898.93	228.14
899.24	228.13
899.54	228.09
899.85	228.02
900.15	228.08
900.46	228.01
900.76	227.93
901.07	227.91
901.38	227.83
901.68	227.81
901.99	227.71
902.29	227.80
902.60	227.93
902.90	227.90
903.21	227.90
903.51	227.88
903.82	228.00
904.12	227.98
904.43	227.99
904.73	227.92
905.03	227.96
905.34	228.09
905.64	228.10
905.95	228.00
906.25	227.95
906.56	227.87
906.86	227.87
907.17	227.82
907.47	227.86
907.77	227.93
908.08	227.81
908.38	227.83
908.69	227.78
908.99	227.77
909.30	227.76
909.60	227.70
909.90	227.75
910.21	227.63
910.51	227.67
910.81	227.76
911.12	227.85
911.42	227.83
911.73	227.68
912.03	227.63
912.33	227.95
912.64	227.98
912.94	227.98
913.24	228.00
913.55	228.07
913.85	228.07
914.15	228.07
914.46	228.17
914.76	228.23
915.06	228.25
915.37	228.19
915.67	228.22
915.97	228.34
916.27	228.37
916.58	228.50
916.88	228.50
917.18	228.52
917.49	228.70
917.79	228.71
918.09	228.72
918.39	228.87
918.70	228.71
919.00	228.81
919.30	228.92
919.60	228.91
919.91	228.90
920.21	228.86
920.51	228.90
920.81	228.86
921.12	228.92
921.42	228.95
921.72	228.97
922.02	229.00
922.32	229.00
922.63	228.95
922.93	229.01
923.23	229.02
923.53	229.10
923.83	228.89
924.13	228.88
924.44	228.91
924.74	228.90
925.04	228.97
925.34	228.90
925.64	228.89
925.94	228.80
926.24	228.87
926.55	228.86
926.85	228.80
927.15	228.86
927.45	228.82
927.75	228.80
928.05	228.83
928.35	228.79
928.65	228.74
928.95	228.76
929.26	228.77
929.56	228.85
929.86	228.72
930.16	228.74
930.46	228.84
930.76	228.86
931.06	228.76
931.36	228.67
931.66	228.77
931.96	228.70
932.26	228.88
932.56	228.80
932.86	228.81
933.16	228.77
933.46	228.72
933.76	228.70
934.06	228.74
934.36	228.81
934.66	228.87
934.96	228.84
935.26	228.91
935.56	228.95
935.86	228.89
936.16	228.84
936.46	228.79
936.76	228.66
937.06	228.52
937.36	228.51
937.66	228.54
937.96	228.43
938.26	228.43
938.56	228.37
938.86	228.29
939.16	228.33
939.46	228.46
939.76	228.42
940.06	228.33
940.35	228.31
940.65	228.11
940.95	228.04
941.25	227.94
941.55	227.77
941.85	227.68
942.15	227.62
942.45	227.61
942.75	227.64
943.04	227.72
943.34	227.81
943.64	227.84
943.94	227.79
944.24	227.78
944.54	227.72
944.84	227.56
945.13	227.60
945.43	227.60
945.73	227.57
946.03	227.53
946.33	227.60
946.62	227.48
946.92	227.45
947.22	227.46
947.52	227.47
947.82	227.58
948.11	227.54
948.41	227.52
948.71	227.50
949.01	227.41
949.31	227.36
949.60	227.35
949.90	227.32
950.20	227.42
950.50	227.53
950.79	227.60
951.09	227.66
951.39	227.73
951.69	227.76
951.98	227.72
952.28	227.86
952.58	227.78
952.87	227.86
953.17	227.98
953.47	227.95
953.76	228.05
954.06	228.09
954.36	228.10
954.66	228.10
954.95	228.22
955.25	228.44
955.55	228.44
955.84	228.51
956.14	228.59
956.44	228.59
956.73	228.54
957.03	228.55
957.32	228.68
957.62	228.63
957.92	228.57
958.21	228.62
958.51	228.77
958.81	228.84
959.10	228.91
959.40	228.97
959.69	229.01
959.99	229.08
960.29	228.98
960.58	228.95
960.88	229.09
961.17	229.12
961.47	229.08
961.76	229.08
962.06	229.04
962.36	228.99
962.65	228.91
962.95	228.85
963.24	228.80
963.54	228.76
963.83	228.79
964.13	228.79
964.42	228.75
964.72	228.64
965.01	228.70
965.31	228.60
965.60	228.63
965.90	228.89
966.19	228.83
966.49	228.94
966.78	229.07
967.08	229.03
967.37	228.99
967.67	228.97
967.96	229.07
968.26	229.04
968.55	229.16
968.85	229.12
969.14	229.21
969.43	229.18
969.73	229.16
970.02	229.12
970.32	229.20
970.61	229.10
970.91	229.04
971.20	228.92
971.49	228.98
971.79	228.90
972.08	228.58
972.38	228.58
972.67	228.55
972.96	228.47
973.26	228.52
973.55	228.60
973.85	228.60
974.14	228.58
974.43	228.62
974.73	228.51
975.02	228.56
975.31	228.54
975.61	228.50
975.90	228.50
976.19	228.57
976.49	228.56
976.78	228.57
977.07	228.54
977.37	228.65
977.66	228.62
977.95	228.60
978.24	228.68
978.54	228.69
978.83	228.57
979.12	228.57
979.42	228.47
979.71	228.39
980.00	228.28
980.29	228.15
980.59	228.11
980.88	228.11
981.17	228.10
981.46	228.09
981.76	228.17
982.05	228.16
982.34	228.09
982.63	228.01
982.93	228.01
983.22	228.03
983.51	227.86
983.80	227.77
984.09	227.67
984.39	227.60
984.68	227.49
984.97	227.56
985.26	227.49
985.55	227.59
985.85	227.53
986.14	227.58
986.43	227.64
986.72	227.60
987.01	227.61
987.30	227.64
987.59	227.65
987.89	227.61
988.18	227.53
988.47	227.51
988.76	227.42
989.05	227.43
989.34	227.39
989.63	227.57
989.92	227.59
990.22	227.61
990.51	227.66
990.80	227.67
991.09	227.74
991.38	227.81
991.67	227.68
991.96	227.65
992.25	227.70
992.54	227.73
992.83	227.72
993.12	227.60
993.41	227.66
993.70	227.70
993.99	227.81
994.28	227.98
994.58	228.08
994.87	228.20
995.16	228.32
995.45	228.30
995.74	228.29
996.03	228.47
996.32	228.59
996.61	228.69
996.90	228.78
997.19	228.78
997.48	228.78
997.77	228.80
998.06	228.92
998.34	228.99
998.63	228.94
998.92	229.08
999.21	229.19
999.50	229.15
999.79	229.08
1000.08	229.01
1000.37	229.01
1000.66	228.99
1000.95	229.03
1001.24	228.97
1001.53	229.15
1001.82	229.10
1002.11	228.98
1002.40	229.07
1002.68	229.08
1002.97	229.18
1003.26	229.17
1003.55	229.17
1003.84	229.14
1004.13	229.19
1004.42	229.15
1004.71	229.15
1004.99	229.03
1005.28	229.19
1005.57	229.20
1005.86	229.35
1006.15	229.33
1006.44	229.27
1006.72	229.28
1007.01	229.14
1007.30	229.14
1007.59	229.06
1007.88	229.10
1008.17	229.15
1008.45	229.05
1008.74	228.95
1009.03	228.82
1009.32	228.66
1009.60	228.69
1009.89	228.78
1010.18	228.67
1010.47	228.58
1010.76	228.57
1011.04	228.62
1011.33	228.40
1011.62	228.34
1011.91	228.22
1012.19	228.22
1012.48	228.21
1012.77	228.16
1013.05	228.29
1013.34	228.29
1013.63	228.26
1013.92	228.21
1014.20	228.16
1014.49	228.19
1014.78	228.16
1015.06	228.18
1015.35	228.27
1015.64	228.24
1015.92	228.22
1016.21	228.19
1016.50	228.17
1016.78	228.26
1017.07	228.20
1017.36	228.26
1017.64	228.25
1017.93	228.30
1018.22	228.31
1018.50	228.31
1018.79	228.31
1019.08	228.30
1019.36	228.27
1019.65	228.22
1019.93	228.24
1020.22	228.20
1020.51	228.24
1020.79	228.18
1021.08	228.00
1021.36	228.50
1021.65	227.80
1021.94	229.10
1022.22	227.70
1022.51	227.20
1022.79	228.30
1023.08	227.50
1023.36	229.80
1023.65	226.30
>>>>>End Processed Spectral Data<<<<<
