SpectraSuite Data File
++++++++++++++++++++++++++++++++++++
Date: Fri Feb 01 14:38:09 EST 2013
User: group
Dark Spectrum Present: No
Reference Spectrum Present: No
Number of Sampled Component Spectra: 1
Spectrometers: USB2E7196
Integration Time (usec): 70000 (USB2E7196)
Spectra Averaged: 10 (USB2E7196)
Boxcar Smoothing: 10 (USB2E7196)
Correct for Electrical Dark: No (USB2E7196)
Strobe/Lamp Enabled: No (USB2E7196)
Correct for Detector Non-linearity: No (USB2E7196)
Correct for Stray Light: No (USB2E7196)
Number of Pixels in Processed Spectrum: 2048
>>>>>Begin Processed Spectral Data<<<<<
339.09	0.00
339.48	216.70
339.86	218.70
340.24	218.80
340.63	220.50
341.01	225.30
341.39	222.90
341.78	225.10
342.16	227.40
342.54	227.50
342.93	215.04
343.31	225.97
343.69	226.47
344.07	226.95
344.46	227.50
344.84	227.80
345.22	227.92
345.60	228.21
345.99	228.35
346.37	228.36
346.75	228.25
347.13	228.33
347.52	228.47
347.90	228.56
348.28	228.60
348.66	228.68
349.05	228.62
349.43	228.74
349.81	228.67
350.19	228.63
350.57	228.70
350.96	228.85
351.34	228.88
351.72	229.05
352.10	229.03
352.48	229.05
352.87	229.17
353.25	229.28
353.63	229.27
354.01	229.35
354.39	229.53
354.77	229.78
355.15	229.81
355.54	229.83
355.92	229.81
356.30	229.72
356.68	229.77
357.06	229.79
357.44	229.70
357.82	229.80
358.20	229.94
358.58	229.89
358.97	229.85
359.35	229.89
359.73	229.93
360.11	229.96
360.49	229.94
360.87	229.98
361.25	229.97
361.63	230.07
362.01	230.09
362.39	229.99
362.77	230.10
363.15	230.09
363.53	230.20
363.91	230.22
364.29	230.31
364.67	230.25
365.05	230.24
365.43	230.32
365.81	230.33
366.19	230.47
366.57	230.51
366.95	230.45
367.33	230.30
367.71	230.22
368.09	230.32
368.47	230.32
368.85	230.21
369.23	230.24
369.61	230.20
369.99	230.24
370.37	230.22
370.75	230.17
371.13	230.06
371.51	230.00
371.89	229.88
372.27	229.82
372.65	229.77
373.03	229.76
373.41	229.68
373.78	229.64
374.16	229.33
374.54	229.20
374.92	229.06
375.30	229.02
375.68	228.89
376.06	228.74
376.44	228.62
376.82	228.62
377.19	228.49
377.57	228.33
377.95	228.13
378.33	228.08
378.71	227.86
379.09	227.77
379.47	227.71
379.84	227.66
380.22	227.52
380.60	227.31
380.98	227.12
381.36	226.96
381.73	226.80
382.11	226.73
382.49	226.74
382.87	226.66
383.25	226.62
383.62	226.79
384.00	226.63
384.38	226.55
384.76	226.54
385.13	226.56
385.51	226.50
385.89	226.37
386.27	226.24
386.64	226.27
387.02	226.33
387.40	226.25
387.78	226.10
388.15	226.02
388.53	226.02
388.91	225.99
389.29	226.03
389.66	225.94
390.04	225.92
390.42	225.92
390.79	226.10
391.17	226.08
391.55	225.90
391.92	225.97
392.30	226.01
392.68	225.98
393.05	225.97
393.43	225.99
393.81	226.09
394.18	226.14
394.56	226.13
394.94	226.11
395.31	226.15
395.69	226.33
396.06	226.55
396.44	226.68
396.82	226.85
397.19	226.92
397.57	227.06
397.95	227.19
398.32	227.16
398.70	227.19
399.07	227.39
399.45	227.40
399.82	227.48
400.20	227.55
400.58	227.58
400.95	227.63
401.33	227.75
401.70	228.03
402.08	228.17
402.45	228.40
402.83	228.67
403.20	228.72
403.58	228.90
403.95	228.90
404.33	229.05
404.71	229.10
405.08	229.45
405.46	229.56
405.83	229.78
406.21	230.06
406.58	230.24
406.96	230.40
407.33	230.67
407.70	230.91
408.08	231.29
408.45	231.71
408.83	231.96
409.20	232.23
409.58	232.42
409.95	232.75
410.33	232.96
410.70	233.20
411.08	233.57
411.45	233.86
411.82	234.30
412.20	234.79
412.57	235.44
412.95	235.61
413.32	236.16
413.69	236.70
414.07	237.23
414.44	237.87
414.82	238.43
415.19	239.16
415.56	239.91
415.94	240.54
416.31	241.39
416.68	242.21
417.06	243.19
417.43	244.05
417.81	245.09
418.18	246.12
418.55	247.23
418.93	248.40
419.30	249.72
419.67	251.06
420.04	252.33
420.42	253.63
420.79	255.39
421.16	256.95
421.54	258.49
421.91	260.11
422.28	261.75
422.66	263.62
423.03	265.50
423.40	267.30
423.77	269.30
424.15	271.13
424.52	273.25
424.89	275.50
425.26	277.70
425.64	279.75
426.01	281.96
426.38	284.33
426.75	286.89
427.13	289.36
427.50	292.04
427.87	294.73
428.24	297.49
428.61	300.07
428.99	303.10
429.36	306.21
429.73	309.24
430.10	312.30
430.47	315.33
430.85	318.39
431.22	321.96
431.59	325.55
431.96	329.01
432.33	332.84
432.70	336.45
433.08	340.70
433.45	344.85
433.82	348.96
434.19	353.41
434.56	357.84
434.93	361.91
435.30	365.99
435.68	370.59
436.05	374.95
436.42	379.47
436.79	383.46
437.16	387.84
437.53	392.33
437.90	396.84
438.27	401.35
438.64	405.99
439.01	410.18
439.38	413.87
439.75	417.51
440.13	421.74
440.50	425.78
440.87	429.24
441.24	432.50
441.61	436.29
441.98	438.98
442.35	442.16
442.72	445.59
443.09	448.88
443.46	450.85
443.83	452.37
444.20	453.54
444.57	455.31
444.94	456.41
445.31	457.65
445.68	458.98
446.05	459.68
446.42	459.74
446.79	459.55
447.16	459.60
447.53	459.66
447.90	458.34
448.27	457.13
448.64	454.93
449.01	453.72
449.37	451.05
449.74	448.68
450.11	445.53
450.48	442.14
450.85	438.53
451.22	435.60
451.59	432.88
451.96	430.21
452.33	426.52
452.70	423.09
453.07	419.03
453.43	414.62
453.80	410.57
454.17	406.59
454.54	402.83
454.91	398.65
455.28	394.62
455.65	390.96
456.02	387.12
456.38	383.95
456.75	379.87
457.12	376.58
457.49	373.18
457.86	369.91
458.23	367.12
458.59	364.18
458.96	361.00
459.33	358.00
459.70	355.18
460.07	352.80
460.43	350.09
460.80	347.38
461.17	345.07
461.54	342.77
461.91	340.39
462.27	338.07
462.64	336.04
463.01	333.98
463.38	331.87
463.74	329.73
464.11	327.87
464.48	326.18
464.85	324.30
465.21	322.83
465.58	321.23
465.95	319.37
466.32	317.67
466.68	316.23
467.05	314.71
467.42	313.16
467.78	311.58
468.15	310.01
468.52	308.98
468.88	307.61
469.25	306.30
469.62	305.21
469.98	304.10
470.35	302.95
470.72	301.74
471.08	300.43
471.45	299.49
471.82	298.53
472.18	297.59
472.55	296.66
472.92	295.68
473.28	294.81
473.65	293.86
474.02	292.98
474.38	292.17
474.75	291.50
475.11	290.72
475.48	290.08
475.85	289.60
476.21	288.87
476.58	288.30
476.94	287.69
477.31	287.23
477.67	286.72
478.04	286.29
478.41	286.02
478.77	285.87
479.14	285.42
479.50	285.08
479.87	284.75
480.23	284.62
480.60	284.33
480.96	284.08
481.33	284.06
481.69	283.77
482.06	283.51
482.42	283.30
482.79	283.26
483.15	283.16
483.52	283.08
483.88	283.20
484.25	283.16
484.61	283.28
484.98	283.21
485.34	283.20
485.71	283.36
486.07	283.46
486.44	283.34
486.80	283.41
487.17	283.50
487.53	283.65
487.90	283.84
488.26	284.11
488.62	284.29
488.99	284.50
489.35	284.75
489.72	285.11
490.08	285.32
490.44	285.47
490.81	285.79
491.17	286.10
491.54	286.34
491.90	286.60
492.26	286.80
492.63	287.20
492.99	287.65
493.36	288.00
493.72	288.39
494.08	288.76
494.45	289.19
494.81	289.76
495.17	290.17
495.54	290.58
495.90	290.97
496.26	291.60
496.63	292.01
496.99	292.65
497.35	292.93
497.72	293.50
498.08	294.00
498.44	294.53
498.80	294.98
499.17	295.33
499.53	295.89
499.89	296.43
500.26	296.82
500.62	297.21
500.98	297.66
501.34	297.97
501.71	298.50
502.07	298.88
502.43	299.11
502.79	299.37
503.16	299.59
503.52	299.97
503.88	300.11
504.24	300.30
504.60	300.65
504.97	301.11
505.33	301.40
505.69	301.79
506.05	302.02
506.41	302.18
506.78	302.57
507.14	302.70
507.50	302.86
507.86	303.16
508.22	303.40
508.59	303.57
508.95	303.87
509.31	304.16
509.67	304.45
510.03	304.67
510.39	304.99
510.75	305.33
511.12	305.65
511.48	305.90
511.84	306.28
512.20	306.45
512.56	306.63
512.92	306.97
513.28	307.27
513.64	307.46
514.00	307.83
514.37	308.19
514.73	308.58
515.09	309.07
515.45	309.49
515.81	309.96
516.17	310.58
516.53	311.03
516.89	311.56
517.25	312.23
517.61	313.03
517.97	313.76
518.33	314.53
518.69	315.33
519.05	316.33
519.41	317.28
519.77	318.59
520.13	319.80
520.49	321.02
520.85	322.20
521.21	323.74
521.57	325.19
521.93	326.60
522.29	328.17
522.65	329.83
523.01	331.50
523.37	333.24
523.73	335.03
524.09	336.99
524.45	338.86
524.81	340.91
525.17	343.06
525.53	345.40
525.89	347.75
526.25	350.15
526.61	352.51
526.97	355.10
527.33	357.45
527.68	360.45
528.04	363.08
528.40	366.07
528.76	369.01
529.12	371.97
529.48	375.11
529.84	378.25
530.20	381.53
530.56	384.95
530.91	388.43
531.27	392.12
531.63	395.76
531.99	399.57
532.35	403.25
532.71	406.99
533.07	410.95
533.42	415.21
533.78	419.27
534.14	423.55
534.50	427.75
534.86	432.09
535.21	435.96
535.57	440.56
535.93	444.87
536.29	449.50
536.65	454.40
537.00	459.00
537.36	463.72
537.72	468.49
538.08	473.49
538.44	478.27
538.79	483.10
539.15	488.03
539.51	493.18
539.87	498.42
540.22	503.66
540.58	508.77
540.94	513.77
541.29	518.94
541.65	524.10
542.01	529.39
542.37	534.74
542.72	540.14
543.08	545.40
543.44	550.90
543.79	556.25
544.15	561.80
544.51	567.54
544.87	573.33
545.22	578.90
545.58	584.11
545.94	589.58
546.29	595.21
546.65	600.91
547.01	606.21
547.36	611.62
547.72	617.02
548.07	622.48
548.43	627.81
548.79	633.29
549.14	638.76
549.50	644.25
549.86	649.53
550.21	655.09
550.57	660.56
550.92	665.95
551.28	671.18
551.64	676.42
551.99	681.62
552.35	686.75
552.70	691.91
553.06	697.27
553.41	702.47
553.77	707.72
554.13	712.64
554.48	718.07
554.84	723.44
555.19	728.36
555.55	733.48
555.90	738.47
556.26	743.53
556.61	748.38
556.97	753.43
557.32	758.58
557.68	763.44
558.03	768.49
558.39	773.32
558.74	778.37
559.10	783.04
559.45	787.78
559.81	792.80
560.16	797.59
560.52	802.15
560.87	807.17
561.23	811.44
561.58	816.39
561.94	820.82
562.29	825.15
562.64	829.71
563.00	834.18
563.35	838.93
563.71	843.49
564.06	848.07
564.42	852.50
564.77	856.75
565.12	861.18
565.48	865.65
565.83	869.89
566.19	873.95
566.54	877.97
566.89	881.71
567.25	885.38
567.60	889.61
567.96	893.91
568.31	897.57
568.66	901.39
569.02	904.74
569.37	908.16
569.72	911.64
570.08	915.13
570.43	918.37
570.78	921.36
571.14	924.19
571.49	927.10
571.84	930.30
572.20	933.01
572.55	935.76
572.90	937.83
573.26	940.32
573.61	943.11
573.96	945.51
574.31	947.98
574.67	949.97
575.02	951.70
575.37	953.39
575.72	954.97
576.08	956.64
576.43	958.22
576.78	959.94
577.13	961.75
577.49	963.38
577.84	965.03
578.19	966.70
578.54	968.09
578.90	969.36
579.25	969.82
579.60	970.98
579.95	971.75
580.30	972.76
580.66	973.56
581.01	973.75
581.36	974.47
581.71	975.26
582.06	976.16
582.42	976.42
582.77	976.90
583.12	977.51
583.47	978.32
583.82	979.04
584.17	979.10
584.53	979.12
584.88	979.30
585.23	979.31
585.58	979.17
585.93	979.30
586.28	979.40
586.63	979.80
586.98	979.64
587.34	979.74
587.69	979.84
588.04	980.01
588.39	980.12
588.74	979.50
589.09	979.24
589.44	978.53
589.79	978.54
590.14	978.39
590.49	977.72
590.84	976.71
591.19	976.16
591.54	975.39
591.89	974.09
592.25	973.46
592.60	972.30
592.95	971.17
593.30	969.96
593.65	968.81
594.00	967.26
594.35	966.65
594.70	965.27
595.05	963.95
595.40	962.32
595.75	960.61
596.10	959.67
596.45	958.58
596.80	957.37
597.15	956.18
597.50	954.54
597.85	953.49
598.19	952.67
598.54	951.32
598.89	950.05
599.24	949.42
599.59	947.75
599.94	946.70
600.29	945.36
600.64	944.21
600.99	942.39
601.34	941.08
601.69	938.88
602.04	937.36
602.39	935.67
602.74	934.32
603.08	933.15
603.43	931.49
603.78	929.46
604.13	927.86
604.48	925.71
604.83	923.97
605.18	922.17
605.53	919.91
605.87	917.39
606.22	915.28
606.57	912.90
606.92	910.67
607.27	908.48
607.62	906.49
607.96	904.42
608.31	902.79
608.66	900.31
609.01	898.00
609.36	895.35
609.70	892.42
610.05	889.49
610.40	886.70
610.75	884.17
611.10	881.40
611.44	878.50
611.79	875.91
612.14	872.85
612.49	869.79
612.83	866.89
613.18	864.44
613.53	861.93
613.88	859.03
614.22	856.16
614.57	853.11
614.92	850.24
615.27	847.25
615.61	844.05
615.96	841.46
616.31	838.78
616.65	836.41
617.00	834.07
617.35	831.56
617.70	828.72
618.04	825.38
618.39	822.48
618.74	819.72
619.08	816.81
619.43	814.25
619.78	811.54
620.12	808.67
620.47	805.59
620.82	802.39
621.16	799.56
621.51	797.02
621.85	794.16
622.20	790.92
622.55	787.76
622.89	784.92
623.24	782.12
623.59	779.35
623.93	776.49
624.28	773.62
624.62	770.70
624.97	767.82
625.32	765.35
625.66	762.68
626.01	759.64
626.35	756.59
626.70	753.64
627.04	750.83
627.39	747.82
627.73	745.21
628.08	742.76
628.43	739.75
628.77	736.55
629.12	733.55
629.46	730.88
629.81	728.00
630.15	724.92
630.50	721.95
630.84	718.92
631.19	715.51
631.53	712.28
631.88	708.85
632.22	705.79
632.57	702.74
632.91	699.56
633.26	696.79
633.60	693.65
633.95	690.64
634.29	687.50
634.64	684.82
634.98	681.55
635.32	678.39
635.67	675.70
636.01	672.91
636.36	670.07
636.70	667.25
637.05	664.41
637.39	661.58
637.73	658.81
638.08	656.03
638.42	653.50
638.77	650.88
639.11	648.47
639.45	645.67
639.80	642.91
640.14	640.26
640.49	637.45
640.83	634.77
641.17	631.99
641.52	629.11
641.86	626.15
642.20	623.40
642.55	620.64
642.89	617.75
643.23	614.87
643.58	612.23
643.92	609.37
644.26	606.60
644.61	604.00
644.95	601.08
645.29	598.10
645.64	595.10
645.98	592.40
646.32	589.65
646.66	586.90
647.01	584.13
647.35	581.32
647.69	578.49
648.04	575.99
648.38	573.17
648.72	570.57
649.06	567.77
649.41	565.20
649.75	562.41
650.09	559.65
650.43	556.91
650.78	554.01
651.12	551.24
651.46	548.48
651.80	545.90
652.14	543.27
652.49	540.72
652.83	538.11
653.17	535.28
653.51	532.45
653.85	529.88
654.20	527.10
654.54	524.41
654.88	521.87
655.22	518.92
655.56	516.32
655.90	513.64
656.25	511.10
656.59	508.27
656.93	505.93
657.27	503.47
657.61	501.02
657.95	498.62
658.29	496.18
658.64	493.82
658.98	491.13
659.32	488.56
659.66	486.02
660.00	483.88
660.34	481.39
660.68	479.07
661.02	476.56
661.36	474.35
661.70	472.20
662.05	469.90
662.39	468.02
662.73	466.09
663.07	464.08
663.41	462.10
663.75	460.17
664.09	457.95
664.43	455.66
664.77	453.64
665.11	451.56
665.45	449.56
665.79	447.53
666.13	445.64
666.47	443.60
666.81	441.76
667.15	439.32
667.49	437.58
667.83	435.63
668.17	433.71
668.51	431.69
668.85	429.64
669.19	427.89
669.53	425.74
669.87	423.66
670.21	421.69
670.55	419.72
670.89	418.07
671.23	416.29
671.57	414.75
671.91	412.99
672.25	411.37
672.58	409.81
672.92	408.16
673.26	406.51
673.60	404.86
673.94	403.17
674.28	401.82
674.62	400.19
674.96	398.65
675.30	397.10
675.64	395.74
675.97	394.33
676.31	392.74
676.65	391.49
676.99	390.10
677.33	388.53
677.67	387.07
678.01	385.50
678.34	384.02
678.68	382.50
679.02	380.85
679.36	379.37
679.70	377.81
680.04	376.24
680.37	374.71
680.71	373.31
681.05	371.93
681.39	370.65
681.73	369.44
682.06	368.20
682.40	367.08
682.74	365.67
683.08	364.30
683.42	362.77
683.75	361.31
684.09	359.90
684.43	358.60
684.77	357.38
685.10	356.00
685.44	354.70
685.78	353.45
686.12	352.42
686.45	351.11
686.79	349.69
687.13	348.52
687.46	347.37
687.80	346.18
688.14	344.93
688.48	343.71
688.81	342.26
689.15	341.07
689.49	339.63
689.82	338.52
690.16	337.37
690.50	336.29
690.83	335.08
691.17	333.89
691.51	332.78
691.84	331.59
692.18	330.55
692.52	329.42
692.85	328.26
693.19	327.04
693.52	325.81
693.86	324.69
694.20	323.57
694.53	322.50
694.87	321.32
695.21	320.18
695.54	319.02
695.88	318.08
696.21	316.90
696.55	315.96
696.88	314.81
697.22	313.68
697.56	312.74
697.89	311.80
698.23	310.96
698.56	310.05
698.90	309.15
699.23	307.96
699.57	307.00
699.90	306.10
700.24	305.22
700.58	304.39
700.91	303.56
701.25	302.88
701.58	302.06
701.92	301.37
702.25	300.63
702.59	299.95
702.92	299.03
703.26	298.44
703.59	297.72
703.93	297.15
704.26	296.54
704.60	295.80
704.93	295.05
705.26	294.29
705.60	293.59
705.93	292.99
706.27	292.70
706.60	292.21
706.94	291.55
707.27	290.85
707.61	290.30
707.94	289.73
708.27	288.97
708.61	288.26
708.94	287.64
709.28	287.01
709.61	286.32
709.94	285.95
710.28	285.27
710.61	284.73
710.95	283.97
711.28	283.44
711.61	282.93
711.95	282.45
712.28	281.82
712.61	281.22
712.95	280.60
713.28	279.95
713.61	279.22
713.95	278.73
714.28	278.34
714.61	277.84
714.95	277.29
715.28	276.76
715.61	276.16
715.95	275.67
716.28	275.21
716.61	274.75
716.95	274.12
717.28	273.61
717.61	273.18
717.94	272.68
718.28	272.15
718.61	271.66
718.94	271.16
719.27	270.79
719.61	270.42
719.94	270.06
720.27	269.53
720.60	269.15
720.94	268.70
721.27	268.20
721.60	267.70
721.93	267.32
722.27	267.08
722.60	266.74
722.93	266.32
723.26	265.88
723.59	265.48
723.93	265.11
724.26	264.78
724.59	264.30
724.92	263.94
725.25	263.47
725.59	263.06
725.92	262.71
726.25	262.40
726.58	262.00
726.91	261.61
727.24	261.24
727.57	260.90
727.91	260.52
728.24	260.20
728.57	259.82
728.90	259.34
729.23	258.86
729.56	258.64
729.89	258.15
730.22	257.79
730.55	257.44
730.89	257.09
731.22	256.75
731.55	256.36
731.88	256.08
732.21	255.76
732.54	255.43
732.87	255.15
733.20	254.73
733.53	254.48
733.86	254.16
734.19	253.87
734.52	253.53
734.85	253.39
735.18	253.02
735.51	252.85
735.84	252.78
736.17	252.54
736.50	252.01
736.83	252.10
737.16	251.92
737.49	251.65
737.82	251.47
738.15	251.09
738.48	250.83
738.81	250.61
739.14	250.42
739.47	250.21
739.80	249.96
740.13	249.76
740.46	249.38
740.79	249.20
741.12	248.88
741.45	248.62
741.78	248.31
742.11	248.12
742.44	247.89
742.77	247.57
743.10	247.34
743.43	247.28
743.75	246.85
744.08	246.98
744.41	246.82
744.74	246.60
745.07	246.39
745.40	246.37
745.73	246.32
746.06	246.12
746.39	246.03
746.71	245.87
747.04	245.64
747.37	245.55
747.70	245.38
748.03	245.33
748.36	245.31
748.68	245.08
749.01	244.90
749.34	244.79
749.67	244.75
750.00	244.64
750.33	244.72
750.65	244.53
750.98	243.99
751.31	243.79
751.64	243.62
751.97	243.70
752.29	243.59
752.62	243.24
752.95	243.08
753.28	242.77
753.60	242.67
753.93	242.60
754.26	242.44
754.59	242.20
754.91	241.96
755.24	241.78
755.57	241.63
755.90	241.52
756.22	241.35
756.55	241.04
756.88	240.90
757.20	240.58
757.53	240.43
757.86	240.32
758.19	240.20
758.51	240.08
758.84	239.74
759.17	239.61
759.49	239.53
759.82	239.50
760.15	239.49
760.47	239.32
760.80	239.09
761.13	239.00
761.45	238.92
761.78	238.87
762.11	238.70
762.43	238.67
762.76	238.51
763.08	238.44
763.41	238.41
763.74	238.15
764.06	237.98
764.39	237.90
764.71	237.80
765.04	237.66
765.37	237.50
765.69	237.39
766.02	237.02
766.34	236.95
766.67	236.90
767.00	236.77
767.32	236.74
767.65	236.77
767.97	236.67
768.30	236.52
768.62	236.28
768.95	236.16
769.27	236.06
769.60	235.93
769.92	235.84
770.25	235.63
770.57	235.55
770.90	235.50
771.22	235.36
771.55	235.19
771.87	235.07
772.20	235.04
772.52	235.18
772.85	235.49
773.17	235.37
773.50	235.20
773.82	235.11
774.15	234.78
774.47	234.61
774.80	234.53
775.12	234.47
775.45	234.44
775.77	234.37
776.09	234.19
776.42	234.25
776.74	234.16
777.07	234.16
777.39	234.19
777.72	234.10
778.04	234.10
778.36	234.03
778.69	233.92
779.01	233.75
779.33	233.54
779.66	233.29
779.98	233.22
780.31	233.18
780.63	233.20
780.95	233.39
781.28	233.34
781.60	233.13
781.92	233.03
782.25	233.03
782.57	233.05
782.89	233.09
783.22	233.06
783.54	232.96
783.86	232.90
784.19	232.80
784.51	232.83
784.83	232.70
785.16	232.65
785.48	232.74
785.80	232.76
786.12	232.70
786.45	232.60
786.77	232.64
787.09	232.61
787.42	232.50
787.74	232.33
788.06	232.27
788.38	232.36
788.71	232.40
789.03	232.44
789.35	232.44
789.67	232.36
789.99	232.24
790.32	232.18
790.64	232.17
790.96	232.35
791.28	232.26
791.61	232.31
791.93	232.37
792.25	232.22
792.57	232.40
792.89	232.38
793.21	232.34
793.54	232.21
793.86	232.12
794.18	232.14
794.50	232.12
794.82	232.15
795.14	232.25
795.47	232.28
795.79	232.21
796.11	232.14
796.43	232.10
796.75	232.15
797.07	232.18
797.39	232.19
797.71	232.04
798.04	231.97
798.36	231.91
798.68	231.86
799.00	231.90
799.32	231.82
799.64	231.89
799.96	231.93
800.28	232.01
800.60	232.03
800.92	231.97
801.24	231.90
801.56	231.82
801.89	231.67
802.21	231.54
802.53	231.51
802.85	231.57
803.17	231.68
803.49	231.57
803.81	231.61
804.13	231.53
804.45	231.37
804.77	231.36
805.09	231.35
805.41	231.32
805.73	231.22
806.05	231.08
806.37	230.96
806.69	230.83
807.01	230.73
807.33	230.63
807.65	230.58
807.97	230.77
808.28	230.74
808.60	230.70
808.92	230.68
809.24	230.68
809.56	230.51
809.88	230.46
810.20	230.40
810.52	230.38
810.84	230.41
811.16	230.48
811.48	230.40
811.80	230.41
812.12	230.40
812.43	230.52
812.75	230.50
813.07	230.48
813.39	230.34
813.71	230.28
814.03	230.32
814.35	230.30
814.67	230.05
814.98	230.03
815.30	229.96
815.62	230.00
815.94	229.94
816.26	229.97
816.58	229.84
816.89	229.89
817.21	229.78
817.53	229.68
817.85	229.68
818.17	229.74
818.48	229.61
818.80	229.68
819.12	229.53
819.44	229.50
819.76	229.42
820.07	229.52
820.39	229.51
820.71	229.40
821.03	229.32
821.34	229.37
821.66	229.37
821.98	229.41
822.30	229.31
822.61	229.40
822.93	229.30
823.25	229.30
823.57	229.25
823.88	229.20
824.20	229.19
824.52	229.19
824.83	229.18
825.15	229.19
825.47	229.09
825.79	229.14
826.10	229.15
826.42	229.21
826.74	229.13
827.05	229.11
827.37	229.14
827.69	229.17
828.00	229.07
828.32	229.09
828.64	229.17
828.95	229.25
829.27	229.20
829.58	229.17
829.90	229.22
830.22	229.28
830.53	229.33
830.85	229.36
831.17	229.29
831.48	229.20
831.80	229.23
832.11	229.26
832.43	229.18
832.75	229.10
833.06	229.15
833.38	229.20
833.69	229.27
834.01	229.31
834.32	229.30
834.64	229.40
834.96	229.39
835.27	229.29
835.59	229.24
835.90	229.22
836.22	229.27
836.53	229.25
836.85	229.20
837.16	229.32
837.48	229.35
837.79	229.37
838.11	229.44
838.42	229.32
838.74	229.35
839.05	229.31
839.37	229.36
839.68	229.26
840.00	229.31
840.31	229.30
840.63	229.31
840.94	229.29
841.26	229.20
841.57	229.16
841.88	229.10
842.20	229.14
842.51	229.14
842.83	229.18
843.14	229.37
843.46	229.36
843.77	229.35
844.08	229.34
844.40	229.33
844.71	229.30
845.03	229.34
845.34	229.34
845.65	229.44
845.97	229.44
846.28	229.46
846.60	229.41
846.91	229.39
847.22	229.30
847.54	229.37
847.85	229.30
848.16	229.31
848.48	229.30
848.79	229.25
849.10	229.11
849.42	229.18
849.73	228.98
850.04	228.93
850.36	228.74
850.67	228.72
850.98	228.66
851.30	228.63
851.61	228.58
851.92	228.50
852.23	228.45
852.55	228.33
852.86	228.29
853.17	228.28
853.49	228.17
853.80	228.20
854.11	228.17
854.42	228.31
854.74	228.22
855.05	228.27
855.36	228.16
855.67	228.22
855.99	228.10
856.30	228.14
856.61	228.17
856.92	228.15
857.23	228.08
857.55	228.09
857.86	227.98
858.17	228.00
858.48	227.96
858.79	227.93
859.11	228.04
859.42	228.02
859.73	227.98
860.04	228.09
860.35	227.96
860.66	227.97
860.98	227.90
861.29	228.00
861.60	227.95
861.91	228.04
862.22	228.03
862.53	227.97
862.84	227.95
863.16	227.91
863.47	227.86
863.78	227.86
864.09	227.90
864.40	228.13
864.71	228.20
865.02	228.15
865.33	228.26
865.64	228.32
865.95	228.40
866.27	228.63
866.58	228.61
866.89	228.73
867.20	228.68
867.51	228.72
867.82	228.71
868.13	228.91
868.44	228.88
868.75	228.92
869.06	229.10
869.37	229.02
869.68	229.07
869.99	229.19
870.30	229.30
870.61	229.31
870.92	229.11
871.23	229.08
871.54	229.11
871.85	229.13
872.16	229.00
872.47	229.02
872.78	228.88
873.09	228.91
873.40	228.94
873.71	228.96
874.02	228.97
874.33	229.00
874.64	228.81
874.95	228.94
875.26	228.96
875.56	228.96
875.87	229.10
876.18	229.09
876.49	229.27
876.80	229.16
877.11	229.14
877.42	229.32
877.73	229.37
878.04	229.40
878.35	229.37
878.66	229.51
878.96	229.50
879.27	229.60
879.58	229.60
879.89	229.65
880.20	229.70
880.51	229.67
880.82	229.65
881.12	229.66
881.43	229.56
881.74	229.47
882.05	229.44
882.36	229.38
882.67	229.34
882.97	229.18
883.28	229.21
883.59	229.23
883.90	229.12
884.21	229.06
884.51	229.07
884.82	229.07
885.13	229.03
885.44	229.03
885.74	228.99
886.05	228.93
886.36	228.77
886.67	228.74
886.98	228.85
887.28	228.88
887.59	228.91
887.90	228.80
888.20	228.72
888.51	228.68
888.82	228.50
889.13	228.50
889.43	228.64
889.74	228.53
890.05	228.45
890.35	228.39
890.66	228.40
890.97	228.34
891.28	228.31
891.58	228.21
891.89	228.08
892.20	227.92
892.50	227.91
892.81	227.99
893.12	227.98
893.42	227.83
893.73	227.76
894.04	227.76
894.34	227.85
894.65	227.85
894.95	227.78
895.26	227.92
895.57	228.07
895.87	227.82
896.18	227.86
896.48	227.89
896.79	227.89
897.10	228.03
897.40	227.99
897.71	228.00
898.01	228.00
898.32	228.12
898.63	228.08
898.93	228.05
899.24	228.09
899.54	227.98
899.85	228.03
900.15	228.01
900.46	228.01
900.76	228.02
901.07	228.05
901.38	228.09
901.68	228.05
901.99	227.93
902.29	228.11
902.60	228.22
902.90	228.22
903.21	228.29
903.51	228.20
903.82	228.32
904.12	228.39
904.43	228.51
904.73	228.50
905.03	228.57
905.34	228.89
905.64	228.79
905.95	228.87
906.25	228.90
906.56	228.95
906.86	228.99
907.17	229.10
907.47	229.10
907.77	229.15
908.08	229.10
908.38	229.13
908.69	229.07
908.99	229.04
909.30	229.08
909.60	229.03
909.90	229.11
910.21	229.10
910.51	229.07
910.81	229.11
911.12	229.15
911.42	229.21
911.73	229.01
912.03	229.00
912.33	229.05
912.64	228.99
912.94	228.98
913.24	228.97
913.55	228.89
913.85	228.90
914.15	229.00
914.46	229.08
914.76	229.11
915.06	229.04
915.37	229.09
915.67	229.04
915.97	229.12
916.27	228.96
916.58	228.95
916.88	228.92
917.18	228.80
917.49	228.88
917.79	228.86
918.09	228.82
918.39	228.86
918.70	228.80
919.00	228.88
919.30	228.95
919.60	228.90
919.91	228.90
920.21	229.02
920.51	228.82
920.81	228.90
921.12	228.90
921.42	228.92
921.72	228.96
922.02	229.05
922.32	229.11
922.63	229.17
922.93	229.29
923.23	229.25
923.53	229.30
923.83	229.18
924.13	229.22
924.44	229.31
924.74	229.47
925.04	229.55
925.34	229.43
925.64	229.39
925.94	229.31
926.24	229.41
926.55	229.25
926.85	229.30
927.15	229.24
927.45	229.11
927.75	229.06
928.05	229.00
928.35	228.95
928.65	228.94
928.95	228.94
929.26	228.79
929.56	228.70
929.86	228.70
930.16	228.65
930.46	228.52
930.76	228.49
931.06	228.28
931.36	228.17
931.66	228.19
931.96	228.09
932.26	228.14
932.56	228.00
932.86	228.07
933.16	228.14
933.46	228.09
933.76	228.04
934.06	228.10
934.36	228.10
934.66	227.99
934.96	227.85
935.26	227.82
935.56	227.85
935.86	227.80
936.16	227.67
936.46	227.65
936.76	227.71
937.06	227.66
937.36	227.72
937.66	227.72
937.96	227.80
938.26	227.86
938.56	227.76
938.86	227.83
939.16	227.92
939.46	227.98
939.76	227.97
940.06	228.07
940.35	228.01
940.65	227.91
940.95	228.02
941.25	228.08
941.55	228.06
941.85	228.06
942.15	228.20
942.45	228.20
942.75	228.18
943.04	228.10
943.34	228.21
943.64	228.23
943.94	228.20
944.24	228.13
944.54	228.09
944.84	228.15
945.13	228.10
945.43	228.09
945.73	227.94
946.03	228.02
946.33	227.95
946.62	228.05
946.92	228.17
947.22	228.16
947.52	228.22
947.82	228.13
948.11	228.10
948.41	228.02
948.71	228.09
949.01	228.20
949.31	228.18
949.60	228.16
949.90	228.24
950.20	228.22
950.50	228.20
950.79	228.23
951.09	228.35
951.39	228.39
951.69	228.26
951.98	228.33
952.28	228.22
952.58	228.33
952.87	228.24
953.17	228.10
953.47	228.10
953.76	227.97
954.06	228.18
954.36	228.20
954.66	228.27
954.95	228.35
955.25	228.34
955.55	228.42
955.84	228.29
956.14	228.27
956.44	228.29
956.73	228.36
957.03	228.39
957.32	228.28
957.62	228.34
957.92	228.43
958.21	228.49
958.51	228.77
958.81	228.72
959.10	228.76
959.40	228.99
959.69	228.98
959.99	229.10
960.29	229.04
960.58	229.02
960.88	229.09
961.17	229.05
961.47	229.06
961.76	229.03
962.06	229.09
962.36	229.02
962.65	229.06
962.95	229.01
963.24	228.92
963.54	228.99
963.83	228.81
964.13	228.82
964.42	228.68
964.72	228.36
965.01	228.28
965.31	228.26
965.60	228.14
965.90	228.30
966.19	228.18
966.49	228.10
966.78	228.12
967.08	227.94
967.37	227.83
967.67	227.76
967.96	227.84
968.26	227.76
968.55	227.80
968.85	227.83
969.14	227.80
969.43	227.90
969.73	227.85
970.02	227.82
970.32	227.67
970.61	227.63
970.91	227.70
971.20	227.68
971.49	227.61
971.79	227.62
972.08	227.41
972.38	227.44
972.67	227.47
972.96	227.49
973.26	227.49
973.55	227.64
973.85	227.64
974.14	227.58
974.43	227.59
974.73	227.56
975.02	227.45
975.31	227.50
975.61	227.49
975.90	227.45
976.19	227.43
976.49	227.50
976.78	227.60
977.07	227.60
977.37	227.60
977.66	227.59
977.95	227.58
978.24	227.60
978.54	227.70
978.83	227.70
979.12	227.66
979.42	227.72
979.71	227.70
980.00	227.55
980.29	227.56
980.59	227.61
980.88	227.68
981.17	227.79
981.46	227.76
981.76	227.75
982.05	227.88
982.34	227.97
982.63	228.01
982.93	228.03
983.22	228.12
983.51	228.19
983.80	228.31
984.09	228.32
984.39	228.26
984.68	228.21
984.97	228.25
985.26	228.24
985.55	228.31
985.85	228.24
986.14	228.38
986.43	228.49
986.72	228.46
987.01	228.39
987.30	228.38
987.59	228.38
987.89	228.28
988.18	228.23
988.47	228.30
988.76	228.33
989.05	228.25
989.34	228.27
989.63	228.33
989.92	228.25
990.22	228.25
990.51	228.33
990.80	228.36
991.09	228.34
991.38	228.44
991.67	228.50
991.96	228.53
992.25	228.59
992.54	228.53
992.83	228.46
993.12	228.54
993.41	228.55
993.70	228.70
993.99	228.88
994.28	228.96
994.58	228.89
994.87	228.92
995.16	228.99
995.45	228.99
995.74	228.93
996.03	228.96
996.32	228.94
996.61	228.97
996.90	228.98
997.19	229.02
997.48	228.95
997.77	228.86
998.06	228.88
998.34	228.81
998.63	228.78
998.92	228.78
999.21	228.77
999.50	228.66
999.79	228.52
1000.08	228.41
1000.37	228.34
1000.66	228.32
1000.95	228.22
1001.24	228.26
1001.53	228.18
1001.82	228.16
1002.11	228.05
1002.40	228.08
1002.68	228.05
1002.97	228.15
1003.26	228.19
1003.55	228.17
1003.84	228.18
1004.13	228.12
1004.42	228.13
1004.71	228.14
1004.99	228.19
1005.28	228.11
1005.57	228.19
1005.86	228.06
1006.15	228.09
1006.44	227.98
1006.72	227.97
1007.01	227.93
1007.30	227.80
1007.59	227.70
1007.88	227.71
1008.17	227.77
1008.45	227.72
1008.74	227.67
1009.03	227.50
1009.32	227.33
1009.60	227.33
1009.89	227.30
1010.18	227.28
1010.47	227.22
1010.76	227.16
1011.04	227.19
1011.33	227.38
1011.62	227.37
1011.91	227.43
1012.19	227.32
1012.48	227.49
1012.77	227.53
1013.05	227.66
1013.34	227.73
1013.63	227.79
1013.92	227.72
1014.20	227.71
1014.49	227.70
1014.78	227.74
1015.06	227.72
1015.35	227.78
1015.64	227.77
1015.92	227.80
1016.21	227.83
1016.50	227.86
1016.78	227.90
1017.07	227.88
1017.36	227.77
1017.64	227.88
1017.93	227.97
1018.22	227.97
1018.50	227.93
1018.79	227.90
1019.08	227.81
1019.36	227.75
1019.65	227.76
1019.93	227.90
1020.22	227.99
1020.51	228.06
1020.79	227.93
1021.08	226.00
1021.36	228.80
1021.65	227.40
1021.94	227.90
1022.22	226.70
1022.51	227.60
1022.79	229.30
1023.08	228.40
1023.36	229.20
1023.65	225.70
>>>>>End Processed Spectral Data<<<<<
