SpectraSuite Data File
++++++++++++++++++++++++++++++++++++
Date: Fri Feb 01 14:37:22 EST 2013
User: group
Dark Spectrum Present: No
Reference Spectrum Present: No
Number of Sampled Component Spectra: 1
Spectrometers: USB2E7196
Integration Time (usec): 70000 (USB2E7196)
Spectra Averaged: 10 (USB2E7196)
Boxcar Smoothing: 10 (USB2E7196)
Correct for Electrical Dark: No (USB2E7196)
Strobe/Lamp Enabled: No (USB2E7196)
Correct for Detector Non-linearity: No (USB2E7196)
Correct for Stray Light: No (USB2E7196)
Number of Pixels in Processed Spectrum: 2048
>>>>>Begin Processed Spectral Data<<<<<
339.09	0.00
339.48	215.50
339.86	216.40
340.24	217.90
340.63	219.70
341.01	227.30
341.39	224.70
341.78	223.80
342.16	226.20
342.54	225.20
342.93	214.39
343.31	225.26
343.69	225.77
344.07	226.26
344.46	226.71
344.84	227.09
345.22	227.07
345.60	227.37
345.99	227.59
346.37	227.69
346.75	227.79
347.13	227.83
347.52	227.89
347.90	228.07
348.28	228.12
348.66	228.31
349.05	228.33
349.43	228.40
349.81	228.52
350.19	228.50
350.57	228.50
350.96	228.60
351.34	228.70
351.72	228.83
352.10	228.91
352.48	228.98
352.87	229.07
353.25	229.15
353.63	229.03
354.01	229.06
354.39	229.11
354.77	229.16
355.15	229.27
355.54	229.31
355.92	229.28
356.30	229.34
356.68	229.49
357.06	229.52
357.44	229.63
357.82	229.67
358.20	229.70
358.58	229.81
358.97	229.86
359.35	229.89
359.73	229.96
360.11	230.05
360.49	230.07
360.87	230.09
361.25	230.20
361.63	230.41
362.01	230.45
362.39	230.45
362.77	230.50
363.15	230.53
363.53	230.47
363.91	230.39
364.29	230.37
364.67	230.19
365.05	230.15
365.43	230.01
365.81	230.02
366.19	229.97
366.57	230.05
366.95	230.06
367.33	229.90
367.71	229.85
368.09	229.74
368.47	229.75
368.85	229.68
369.23	229.69
369.61	229.56
369.99	229.54
370.37	229.49
370.75	229.50
371.13	229.34
371.51	229.30
371.89	229.29
372.27	229.20
372.65	229.11
373.03	229.02
373.41	228.97
373.78	228.83
374.16	228.78
374.54	228.56
374.92	228.45
375.30	228.48
375.68	228.46
376.06	228.43
376.44	228.33
376.82	228.39
377.19	228.30
377.57	228.11
377.95	227.94
378.33	227.89
378.71	227.82
379.09	227.78
379.47	227.71
379.84	227.70
380.22	227.60
380.60	227.50
380.98	227.45
381.36	227.37
381.73	227.33
382.11	227.33
382.49	227.27
382.87	227.21
383.25	227.13
383.62	227.20
384.00	227.11
384.38	227.13
384.76	227.02
385.13	226.99
385.51	227.01
385.89	227.09
386.27	227.11
386.64	227.09
387.02	227.06
387.40	227.13
387.78	226.97
388.15	226.85
388.53	226.83
388.91	226.74
389.29	226.74
389.66	226.76
390.04	226.82
390.42	226.83
390.79	226.76
391.17	226.70
391.55	226.55
391.92	226.57
392.30	226.58
392.68	226.57
393.05	226.53
393.43	226.52
393.81	226.44
394.18	226.38
394.56	226.42
394.94	226.50
395.31	226.40
395.69	226.65
396.06	226.92
396.44	227.01
396.82	227.14
397.19	227.36
397.57	227.32
397.95	227.38
398.32	227.36
398.70	227.52
399.07	227.63
399.45	227.66
399.82	227.80
400.20	227.85
400.58	227.94
400.95	227.95
401.33	228.06
401.70	228.41
402.08	228.51
402.45	228.60
402.83	228.80
403.20	228.97
403.58	229.10
403.95	229.22
404.33	229.39
404.71	229.59
405.08	229.83
405.46	230.14
405.83	230.29
406.21	230.69
406.58	230.86
406.96	231.18
407.33	231.42
407.70	231.79
408.08	232.22
408.45	232.53
408.83	232.85
409.20	233.15
409.58	233.27
409.95	233.74
410.33	234.07
410.70	234.42
411.08	234.90
411.45	235.27
411.82	235.73
412.20	236.28
412.57	236.80
412.95	237.24
413.32	237.80
413.69	238.42
414.07	239.07
414.44	239.89
414.82	240.60
415.19	241.51
415.56	242.34
415.94	243.11
416.31	244.18
416.68	245.22
417.06	246.41
417.43	247.52
417.81	248.62
418.18	249.93
418.55	251.30
418.93	252.69
419.30	254.29
419.67	255.86
420.04	257.38
420.42	259.14
420.79	261.07
421.16	263.07
421.54	265.27
421.91	267.28
422.28	269.43
422.66	271.74
423.03	274.04
423.40	276.27
423.77	278.77
424.15	281.28
424.52	283.95
424.89	286.79
425.26	289.55
425.64	292.32
426.01	295.25
426.38	298.12
426.75	301.29
427.13	304.33
427.50	307.71
427.87	311.34
428.24	314.79
428.61	318.10
428.99	321.76
429.36	325.63
429.73	329.53
430.10	333.27
430.47	337.15
430.85	341.08
431.22	345.34
431.59	349.98
431.96	354.30
432.33	359.14
432.70	363.78
433.08	369.27
433.45	374.38
433.82	379.47
434.19	385.19
434.56	390.54
434.93	395.72
435.30	400.93
435.68	406.72
436.05	412.46
436.42	418.02
436.79	422.99
437.16	428.44
437.53	434.03
437.90	439.88
438.27	445.33
438.64	451.26
439.01	456.79
439.38	461.57
439.75	466.08
440.13	471.29
440.50	476.46
440.87	480.62
441.24	484.88
441.61	489.75
441.98	493.26
442.35	497.62
442.72	501.86
443.09	505.99
443.46	508.65
443.83	510.37
444.20	512.13
444.57	514.64
444.94	516.01
445.31	517.61
445.68	519.03
446.05	520.01
446.42	520.07
446.79	519.88
447.16	519.67
447.53	519.98
447.90	518.45
448.27	516.87
448.64	514.43
449.01	513.06
449.37	509.71
449.74	506.69
450.11	502.78
450.48	498.53
450.85	494.06
451.22	490.23
451.59	486.79
451.96	483.35
452.33	478.42
452.70	474.05
453.07	468.61
453.43	463.12
453.80	458.16
454.17	453.00
454.54	448.34
454.91	443.17
455.28	438.01
455.65	433.42
456.02	428.57
456.38	424.45
456.75	419.16
457.12	414.81
457.49	410.50
457.86	406.26
458.23	402.89
458.59	399.00
458.96	394.87
459.33	391.27
459.70	387.87
460.07	385.12
460.43	381.70
460.80	378.60
461.17	375.99
461.54	372.96
461.91	370.16
462.27	367.32
462.64	364.86
463.01	362.26
463.38	359.70
463.74	357.06
464.11	354.89
464.48	352.94
464.85	350.77
465.21	349.15
465.58	347.41
465.95	345.23
466.32	343.40
466.68	341.57
467.05	339.75
467.42	337.85
467.78	336.04
468.15	334.42
468.52	333.14
468.88	331.21
469.25	329.70
469.62	328.54
469.98	327.13
470.35	325.71
470.72	324.32
471.08	322.89
471.45	321.73
471.82	320.45
472.18	319.05
472.55	318.16
472.92	316.96
473.28	315.91
473.65	314.73
474.02	313.71
474.38	312.90
474.75	312.22
475.11	311.37
475.48	310.58
475.85	309.84
476.21	309.27
476.58	308.87
476.94	308.35
477.31	307.73
477.67	307.17
478.04	306.82
478.41	306.54
478.77	306.15
479.14	305.70
479.50	305.36
479.87	305.17
480.23	304.80
480.60	304.34
480.96	304.07
481.33	304.02
481.69	303.90
482.06	303.65
482.42	303.41
482.79	303.20
483.15	303.28
483.52	303.44
483.88	303.41
484.25	303.36
484.61	303.33
484.98	303.37
485.34	303.61
485.71	303.80
486.07	303.82
486.44	303.99
486.80	304.30
487.17	304.51
487.53	304.97
487.90	305.45
488.26	305.90
488.62	306.23
488.99	306.63
489.35	306.94
489.72	307.38
490.08	307.77
490.44	308.24
490.81	308.65
491.17	309.03
491.54	309.57
491.90	310.10
492.26	310.76
492.63	311.35
492.99	311.82
493.36	312.50
493.72	313.25
494.08	313.83
494.45	314.53
494.81	315.32
495.17	315.93
495.54	316.61
495.90	317.37
496.26	318.04
496.63	318.74
496.99	319.56
497.35	320.58
497.72	321.44
498.08	322.16
498.44	322.97
498.80	323.87
499.17	324.67
499.53	325.40
499.89	326.28
500.26	326.98
500.62	327.78
500.98	328.54
501.34	329.37
501.71	330.24
502.07	330.79
502.43	331.34
502.79	331.96
503.16	332.50
503.52	333.12
503.88	333.81
504.24	334.35
504.60	334.89
504.97	335.29
505.33	335.85
505.69	336.50
506.05	336.77
506.41	337.08
506.78	337.39
507.14	337.66
507.50	337.95
507.86	338.38
508.22	338.69
508.59	338.89
508.95	339.02
509.31	339.37
509.67	339.78
510.03	340.06
510.39	340.19
510.75	340.35
511.12	340.51
511.48	340.63
511.84	340.80
512.20	340.98
512.56	340.95
512.92	341.04
513.28	341.07
513.64	341.32
514.00	341.47
514.37	341.56
514.73	341.77
515.09	341.72
515.45	341.70
515.81	341.71
516.17	341.81
516.53	342.00
516.89	341.97
517.25	342.00
517.61	342.22
517.97	342.38
518.33	342.63
518.69	342.75
519.05	342.86
519.41	343.03
519.77	343.48
520.13	343.96
520.49	344.28
520.85	344.59
521.21	345.13
521.57	345.62
521.93	346.16
522.29	346.73
522.65	347.43
523.01	348.19
523.37	349.00
523.73	349.67
524.09	350.56
524.45	351.48
524.81	352.49
525.17	353.55
525.53	354.80
525.89	355.91
526.25	357.27
526.61	358.69
526.97	360.17
527.33	361.45
527.68	363.14
528.04	364.74
528.40	366.53
528.76	368.26
529.12	370.08
529.48	372.10
529.84	374.07
530.20	376.16
530.56	378.37
530.91	380.61
531.27	383.07
531.63	385.36
531.99	387.81
532.35	390.36
532.71	392.81
533.07	395.48
533.42	398.43
533.78	401.19
534.14	404.05
534.50	407.03
534.86	410.32
535.21	413.34
535.57	416.43
535.93	419.61
536.29	422.99
536.65	426.42
537.00	429.77
537.36	433.50
537.72	437.20
538.08	440.78
538.44	444.41
538.79	448.12
539.15	451.81
539.51	455.77
539.87	459.75
540.22	463.72
540.58	467.83
540.94	471.77
541.29	475.85
541.65	480.03
542.01	484.51
542.37	488.55
542.72	492.70
543.08	497.06
543.44	501.40
543.79	505.65
544.15	510.10
544.51	514.73
544.87	519.25
545.22	523.56
545.58	528.13
545.94	532.51
546.29	537.04
546.65	541.75
547.01	546.19
547.36	550.83
547.72	555.46
548.07	559.81
548.43	564.44
548.79	569.07
549.14	573.61
549.50	577.82
549.86	582.45
550.21	587.17
550.57	591.95
550.92	596.82
551.28	601.60
551.64	606.23
551.99	610.87
552.35	615.58
552.70	620.44
553.06	625.24
553.41	630.14
553.77	634.89
554.13	639.74
554.48	644.82
554.84	649.51
555.19	654.55
555.55	659.36
555.90	664.02
556.26	668.89
556.61	673.52
556.97	678.40
557.32	683.14
557.68	687.99
558.03	692.64
558.39	697.12
558.74	701.75
559.10	706.47
559.45	710.99
559.81	715.47
560.16	719.94
560.52	724.35
560.87	728.89
561.23	733.37
561.58	737.79
561.94	741.93
562.29	746.07
562.64	749.89
563.00	754.20
563.35	758.68
563.71	762.98
564.06	767.49
564.42	771.51
564.77	775.70
565.12	779.50
565.48	783.51
565.83	787.36
566.19	791.34
566.54	795.24
566.89	799.05
567.25	802.85
567.60	806.67
567.96	810.41
568.31	814.05
568.66	817.52
569.02	820.68
569.37	824.00
569.72	827.63
570.08	830.82
570.43	834.12
570.78	836.92
571.14	839.65
571.49	842.29
571.84	845.41
572.20	847.83
572.55	850.72
572.90	853.13
573.26	855.87
573.61	858.35
573.96	860.51
574.31	862.55
574.67	864.32
575.02	866.11
575.37	868.01
575.72	869.33
576.08	871.34
576.43	873.10
576.78	875.01
577.13	876.47
577.49	878.70
577.84	880.03
578.19	881.56
578.54	882.99
578.90	884.45
579.25	885.41
579.60	886.67
579.95	887.54
580.30	888.48
580.66	889.07
581.01	889.70
581.36	890.78
581.71	891.86
582.06	892.92
582.42	893.61
582.77	894.06
583.12	894.86
583.47	895.12
583.82	895.85
584.17	896.24
584.53	896.75
584.88	897.06
585.23	897.49
585.58	897.88
585.93	898.08
586.28	898.41
586.63	898.74
586.98	898.95
587.34	899.46
587.69	899.66
588.04	900.21
588.39	900.32
588.74	899.92
589.09	899.66
589.44	899.21
589.79	899.34
590.14	899.46
590.49	899.40
590.84	899.19
591.19	898.71
591.54	897.77
591.89	896.78
592.25	895.80
592.60	894.86
592.95	894.00
593.30	893.10
593.65	892.06
594.00	890.99
594.35	890.35
594.70	888.82
595.05	888.19
595.40	886.80
595.75	885.46
596.10	884.44
596.45	883.66
596.80	883.00
597.15	881.71
597.50	880.38
597.85	879.40
598.19	878.39
598.54	877.52
598.89	876.57
599.24	875.94
599.59	874.86
599.94	873.84
600.29	872.51
600.64	871.46
600.99	869.98
601.34	868.70
601.69	867.14
602.04	866.06
602.39	864.44
602.74	863.45
603.08	862.29
603.43	861.04
603.78	859.37
604.13	857.68
604.48	856.20
604.83	854.95
605.18	853.49
605.53	851.48
605.87	849.30
606.22	847.66
606.57	845.60
606.92	843.91
607.27	842.20
607.62	840.55
607.96	838.86
608.31	837.37
608.66	835.47
609.01	833.57
609.36	831.36
609.70	828.68
610.05	826.04
610.40	824.02
610.75	821.62
611.10	819.29
611.44	816.82
611.79	814.63
612.14	811.84
612.49	808.76
612.83	806.59
613.18	804.19
613.53	801.82
613.88	799.22
614.22	796.55
614.57	793.92
614.92	791.25
615.27	788.55
615.61	785.78
615.96	783.19
616.31	780.47
616.65	778.18
617.00	776.07
617.35	773.60
617.70	771.04
618.04	768.34
618.39	765.66
618.74	763.12
619.08	760.12
619.43	757.49
619.78	755.35
620.12	752.61
620.47	749.90
620.82	747.15
621.16	744.66
621.51	742.23
621.85	739.59
622.20	736.96
622.55	734.40
622.89	731.90
623.24	729.33
623.59	726.75
623.93	724.11
624.28	721.58
624.62	719.00
624.97	716.30
625.32	713.91
625.66	711.65
626.01	709.11
626.35	706.66
626.70	704.34
627.04	701.64
627.39	699.17
627.73	696.71
628.08	694.09
628.43	691.46
628.77	688.57
629.12	685.88
629.46	683.35
629.81	680.55
630.15	677.61
630.50	674.84
630.84	671.93
631.19	669.00
631.53	666.41
631.88	663.70
632.22	660.57
632.57	657.97
632.91	654.99
633.26	652.29
633.60	649.60
633.95	646.76
634.29	644.19
634.64	641.32
634.98	638.62
635.32	636.14
635.67	633.57
636.01	631.21
636.36	628.54
636.70	626.13
637.05	623.51
637.39	621.08
637.73	618.69
638.08	616.55
638.42	614.26
638.77	611.84
639.11	609.26
639.45	606.94
639.80	604.31
640.14	601.88
640.49	599.37
640.83	596.82
641.17	594.62
641.52	592.19
641.86	589.90
642.20	587.63
642.55	584.86
642.89	582.44
643.23	579.82
643.58	577.70
643.92	574.81
644.26	572.50
644.61	570.34
644.95	567.83
645.29	565.10
645.64	562.46
645.98	559.71
646.32	557.53
646.66	555.38
647.01	553.01
647.35	550.60
647.69	548.17
648.04	545.84
648.38	543.15
648.72	540.37
649.06	537.83
649.41	535.43
649.75	533.07
650.09	530.50
650.43	527.97
650.78	525.22
651.12	522.85
651.46	520.41
651.80	517.92
652.14	515.69
652.49	513.44
652.83	511.21
653.17	508.80
653.51	506.29
653.85	503.70
654.20	501.20
654.54	498.59
654.88	496.15
655.22	493.53
655.56	491.05
655.90	488.91
656.25	486.70
656.59	484.33
656.93	482.14
657.27	480.00
657.61	477.90
657.95	475.95
658.29	473.80
658.64	471.70
658.98	469.39
659.32	466.86
659.66	464.70
660.00	462.45
660.34	460.42
660.68	458.19
661.02	455.89
661.36	453.82
661.70	451.95
662.05	450.00
662.39	448.28
662.73	446.47
663.07	444.60
663.41	442.68
663.75	440.59
664.09	438.67
664.43	436.75
664.77	434.98
665.11	433.06
665.45	431.22
665.79	429.35
666.13	427.58
666.47	425.84
666.81	423.85
667.15	421.81
667.49	419.98
667.83	418.55
668.17	416.92
668.51	415.21
668.85	413.50
669.19	411.95
669.53	410.11
669.87	408.27
670.21	406.72
670.55	405.19
670.89	403.98
671.23	402.63
671.57	400.94
671.91	399.29
672.25	397.58
672.58	396.04
672.92	394.38
673.26	393.00
673.60	391.64
673.94	390.33
674.28	389.18
674.62	387.88
674.96	386.22
675.30	384.80
675.64	383.44
675.97	382.11
676.31	380.52
676.65	379.24
676.99	378.03
677.33	376.43
677.67	374.93
678.01	373.26
678.34	371.77
678.68	370.57
679.02	369.14
679.36	367.94
679.70	366.70
680.04	365.46
680.37	363.97
680.71	362.66
681.05	361.43
681.39	360.09
681.73	358.90
682.06	357.79
682.40	356.67
682.74	355.52
683.08	354.32
683.42	353.19
683.75	352.03
684.09	350.68
684.43	349.58
684.77	348.40
685.10	347.18
685.44	345.92
685.78	344.65
686.12	343.44
686.45	342.21
686.79	341.10
687.13	339.95
687.46	338.96
687.80	337.92
688.14	336.70
688.48	335.55
688.81	334.32
689.15	333.10
689.49	331.90
689.82	330.73
690.16	329.49
690.50	328.37
690.83	327.28
691.17	326.33
691.51	325.22
691.84	324.16
692.18	323.26
692.52	322.21
692.85	321.32
693.19	320.49
693.52	319.43
693.86	318.37
694.20	317.39
694.53	316.46
694.87	315.46
695.21	314.47
695.54	313.56
695.88	312.67
696.21	311.68
696.55	310.81
696.88	309.94
697.22	309.03
697.56	308.15
697.89	307.20
698.23	306.34
698.56	305.44
698.90	304.65
699.23	303.70
699.57	302.72
699.90	301.81
700.24	300.85
700.58	300.11
700.91	299.31
701.25	298.55
701.58	297.70
701.92	296.90
702.25	296.17
702.59	295.31
702.92	294.49
703.26	293.74
703.59	293.01
703.93	292.54
704.26	291.93
704.60	291.21
704.93	290.45
705.26	289.80
705.60	289.27
705.93	288.67
706.27	288.10
706.60	287.63
706.94	287.07
707.27	286.40
707.61	285.87
707.94	285.23
708.27	284.71
708.61	284.17
708.94	283.54
709.28	282.97
709.61	282.54
709.94	282.03
710.28	281.58
710.61	281.11
710.95	280.22
711.28	279.69
711.61	279.19
711.95	278.90
712.28	278.34
712.61	277.81
712.95	277.26
713.28	276.84
713.61	276.27
713.95	275.74
714.28	275.34
714.61	274.70
714.95	274.15
715.28	273.46
715.61	272.80
715.95	272.35
716.28	271.85
716.61	271.37
716.95	270.91
717.28	270.43
717.61	269.92
717.94	269.55
718.28	269.06
718.61	268.64
718.94	268.07
719.27	267.64
719.61	267.20
719.94	266.70
720.27	266.11
720.60	265.79
720.94	265.40
721.27	264.95
721.60	264.74
721.93	264.46
722.27	264.31
722.60	264.01
722.93	263.71
723.26	263.39
723.59	263.06
723.93	262.81
724.26	262.47
724.59	262.18
724.92	261.88
725.25	261.65
725.59	261.32
725.92	261.01
726.25	260.59
726.58	260.21
726.91	260.01
727.24	259.78
727.57	259.44
727.91	259.03
728.24	258.79
728.57	258.35
728.90	258.04
729.23	257.62
729.56	257.42
729.89	257.04
730.22	256.72
730.55	256.35
730.89	255.94
731.22	255.57
731.55	255.20
731.88	254.93
732.21	254.53
732.54	254.20
732.87	253.88
733.20	253.69
733.53	253.39
733.86	253.10
734.19	252.74
734.52	252.58
734.85	252.47
735.18	252.10
735.51	251.97
735.84	251.71
736.17	251.57
736.50	251.19
736.83	251.21
737.16	250.96
737.49	250.71
737.82	250.46
738.15	250.29
738.48	250.09
738.81	249.80
739.14	249.56
739.47	249.32
739.80	249.24
740.13	249.07
740.46	248.80
740.79	248.51
741.12	248.33
741.45	248.02
741.78	247.71
742.11	247.55
742.44	247.21
742.77	247.05
743.10	246.76
743.43	246.50
743.75	246.09
744.08	246.16
744.41	246.09
744.74	245.89
745.07	245.77
745.40	245.60
745.73	245.48
746.06	245.34
746.39	245.14
746.71	244.82
747.04	244.60
747.37	244.55
747.70	244.40
748.03	244.30
748.36	244.13
748.68	244.00
749.01	243.86
749.34	243.76
749.67	243.62
750.00	243.34
750.33	243.31
750.65	243.21
750.98	242.90
751.31	242.76
751.64	242.70
751.97	242.68
752.29	242.44
752.62	242.14
752.95	241.98
753.28	241.90
753.60	241.77
753.93	241.75
754.26	241.57
754.59	241.42
754.91	241.32
755.24	241.18
755.57	241.08
755.90	240.95
756.22	240.80
756.55	240.68
756.88	240.59
757.20	240.35
757.53	240.21
757.86	240.02
758.19	239.86
758.51	239.72
758.84	239.45
759.17	239.49
759.49	239.48
759.82	239.44
760.15	239.40
760.47	239.31
760.80	239.06
761.13	239.06
761.45	238.93
761.78	238.81
762.11	238.60
762.43	238.43
762.76	238.31
763.08	238.14
763.41	237.98
763.74	237.98
764.06	237.94
764.39	237.77
764.71	237.77
765.04	237.76
765.37	237.64
765.69	237.62
766.02	237.48
766.34	237.35
766.67	237.23
767.00	237.10
767.32	237.10
767.65	237.14
767.97	236.95
768.30	236.89
768.62	236.69
768.95	236.70
769.27	236.65
769.60	236.62
769.92	236.67
770.25	236.52
770.57	236.38
770.90	236.37
771.22	236.20
771.55	236.00
771.87	235.85
772.20	235.73
772.52	235.70
772.85	235.92
773.17	235.74
773.50	235.68
773.82	235.60
774.15	235.46
774.47	235.29
774.80	235.24
775.12	235.12
775.45	235.09
775.77	235.05
776.09	234.91
776.42	234.76
776.74	234.67
777.07	234.69
777.39	234.62
777.72	234.40
778.04	234.43
778.36	234.38
778.69	234.39
779.01	234.31
779.33	234.01
779.66	233.63
779.98	233.71
780.31	233.67
780.63	233.64
780.95	233.50
781.28	233.41
781.60	233.28
781.92	233.22
782.25	233.10
782.57	232.99
782.89	232.92
783.22	232.92
783.54	232.82
783.86	232.68
784.19	232.66
784.51	232.64
784.83	232.60
785.16	232.55
785.48	232.28
785.80	232.22
786.12	232.20
786.45	232.12
786.77	232.10
787.09	232.02
787.42	231.89
787.74	231.91
788.06	231.93
788.38	231.88
788.71	231.76
789.03	231.77
789.35	231.75
789.67	231.73
789.99	231.55
790.32	231.49
790.64	231.54
790.96	231.54
791.28	231.51
791.61	231.44
791.93	231.37
792.25	231.46
792.57	231.60
792.89	231.59
793.21	231.61
793.54	231.44
793.86	231.39
794.18	231.31
794.50	231.25
794.82	231.20
795.14	231.25
795.47	231.35
795.79	231.33
796.11	231.35
796.43	231.36
796.75	231.42
797.07	231.45
797.39	231.38
797.71	231.34
798.04	231.37
798.36	231.39
798.68	231.44
799.00	231.36
799.32	231.24
799.64	231.29
799.96	231.26
800.28	231.36
800.60	231.35
800.92	231.41
801.24	231.35
801.56	231.35
801.89	231.26
802.21	231.30
802.53	231.27
802.85	231.22
803.17	231.37
803.49	231.34
803.81	231.22
804.13	231.30
804.45	231.26
804.77	231.24
805.09	231.19
805.41	231.16
805.73	231.12
806.05	231.06
806.37	231.02
806.69	230.94
807.01	230.88
807.33	230.87
807.65	230.76
807.97	230.84
808.28	230.85
808.60	230.87
808.92	230.76
809.24	230.90
809.56	230.83
809.88	230.65
810.20	230.71
810.52	230.80
810.84	230.72
811.16	230.63
811.48	230.55
811.80	230.58
812.12	230.51
812.43	230.57
812.75	230.50
813.07	230.42
813.39	230.44
813.71	230.40
814.03	230.25
814.35	230.29
814.67	230.09
814.98	229.90
815.30	229.80
815.62	229.69
815.94	229.45
816.26	229.50
816.58	229.44
816.89	229.33
817.21	229.13
817.53	229.00
817.85	228.97
818.17	228.96
818.48	228.71
818.80	228.68
819.12	228.63
819.44	228.60
819.76	228.56
820.07	228.56
820.39	228.43
820.71	228.55
821.03	228.44
821.34	228.48
821.66	228.48
821.98	228.50
822.30	228.51
822.61	228.64
822.93	228.49
823.25	228.42
823.57	228.41
823.88	228.51
824.20	228.54
824.52	228.47
824.83	228.44
825.15	228.51
825.47	228.42
825.79	228.30
826.10	228.30
826.42	228.22
826.74	228.19
827.05	228.20
827.37	228.06
827.69	228.07
828.00	228.13
828.32	228.16
828.64	228.23
828.95	228.33
829.27	228.13
829.58	228.10
829.90	228.18
830.22	228.19
830.53	228.09
830.85	228.10
831.17	228.16
831.48	228.20
831.80	228.30
832.11	228.46
832.43	228.60
832.75	228.67
833.06	228.78
833.38	228.66
833.69	228.73
834.01	228.86
834.32	228.92
834.64	228.87
834.96	228.89
835.27	228.81
835.59	228.80
835.90	228.98
836.22	229.03
836.53	229.07
836.85	229.03
837.16	229.28
837.48	229.29
837.79	229.40
838.11	229.44
838.42	229.37
838.74	229.38
839.05	229.39
839.37	229.40
839.68	229.49
840.00	229.68
840.31	229.67
840.63	229.67
840.94	229.65
841.26	229.68
841.57	229.78
841.88	229.83
842.20	229.86
842.51	229.82
842.83	229.91
843.14	229.94
843.46	229.94
843.77	229.86
844.08	229.97
844.40	229.90
844.71	229.94
845.03	229.90
845.34	229.94
845.65	229.92
845.97	229.90
846.28	229.78
846.60	229.78
846.91	229.76
847.22	229.77
847.54	229.82
847.85	229.82
848.16	229.74
848.48	229.71
848.79	229.69
849.10	229.72
849.42	229.68
849.73	229.60
850.04	229.64
850.36	229.56
850.67	229.52
850.98	229.47
851.30	229.39
851.61	229.39
851.92	229.29
852.23	229.23
852.55	229.17
852.86	229.22
853.17	229.19
853.49	229.20
853.80	229.19
854.11	229.12
854.42	229.10
854.74	229.04
855.05	228.98
855.36	228.91
855.67	228.88
855.99	228.85
856.30	229.02
856.61	228.94
856.92	228.83
857.23	228.69
857.55	228.65
857.86	228.63
858.17	228.69
858.48	228.57
858.79	228.57
859.11	228.49
859.42	228.42
859.73	228.31
860.04	228.22
860.35	228.20
860.66	228.13
860.98	228.10
861.29	228.09
861.60	228.11
861.91	228.11
862.22	228.04
862.53	228.01
862.84	227.75
863.16	227.75
863.47	227.76
863.78	227.73
864.09	227.72
864.40	227.75
864.71	227.72
865.02	227.82
865.33	227.80
865.64	227.86
865.95	227.84
866.27	228.00
866.58	228.02
866.89	227.96
867.20	228.06
867.51	228.00
867.82	227.98
868.13	227.93
868.44	227.92
868.75	227.90
869.06	227.92
869.37	227.95
869.68	228.01
869.99	228.05
870.30	228.17
870.61	228.11
870.92	228.07
871.23	228.06
871.54	228.10
871.85	228.14
872.16	228.12
872.47	228.12
872.78	227.98
873.09	228.10
873.40	228.06
873.71	227.96
874.02	227.98
874.33	228.05
874.64	228.12
874.95	228.17
875.26	228.20
875.56	228.24
875.87	228.32
876.18	228.32
876.49	228.59
876.80	228.63
877.11	228.76
877.42	228.84
877.73	228.84
878.04	228.75
878.35	228.73
878.66	228.80
878.96	228.80
879.27	228.82
879.58	228.71
879.89	228.78
880.20	228.90
880.51	228.96
880.82	228.99
881.12	228.93
881.43	228.96
881.74	228.97
882.05	228.92
882.36	228.87
882.67	228.81
882.97	228.60
883.28	228.55
883.59	228.53
883.90	228.48
884.21	228.59
884.51	228.63
884.82	228.67
885.13	228.67
885.44	228.64
885.74	228.69
886.05	228.74
886.36	228.80
886.67	228.79
886.98	228.90
887.28	228.90
887.59	228.99
887.90	228.96
888.20	228.89
888.51	228.94
888.82	228.96
889.13	229.04
889.43	229.18
889.74	229.17
890.05	229.16
890.35	229.18
890.66	229.11
890.97	229.09
891.28	229.04
891.58	229.06
891.89	229.12
892.20	229.02
892.50	228.96
892.81	228.85
893.12	228.83
893.42	228.70
893.73	228.68
894.04	228.59
894.34	228.51
894.65	228.56
894.95	228.59
895.26	228.58
895.57	228.69
895.87	228.46
896.18	228.48
896.48	228.42
896.79	228.37
897.10	228.44
897.40	228.45
897.71	228.50
898.01	228.49
898.32	228.44
898.63	228.47
898.93	228.45
899.24	228.42
899.54	228.43
899.85	228.42
900.15	228.45
900.46	228.36
900.76	228.39
901.07	228.34
901.38	228.16
901.68	228.12
901.99	227.97
902.29	228.04
902.60	227.92
902.90	227.91
903.21	227.94
903.51	227.89
903.82	227.94
904.12	227.88
904.43	227.90
904.73	227.91
905.03	227.92
905.34	228.21
905.64	228.24
905.95	228.15
906.25	228.20
906.56	228.16
906.86	228.18
907.17	228.23
907.47	228.39
907.77	228.51
908.08	228.60
908.38	228.57
908.69	228.54
908.99	228.55
909.30	228.58
909.60	228.65
909.90	228.65
910.21	228.62
910.51	228.64
910.81	228.63
911.12	228.69
911.42	228.70
911.73	228.48
912.03	228.59
912.33	228.69
912.64	228.68
912.94	228.68
913.24	228.74
913.55	228.63
913.85	228.50
914.15	228.48
914.46	228.48
914.76	228.49
915.06	228.55
915.37	228.61
915.67	228.61
915.97	228.49
916.27	228.48
916.58	228.47
916.88	228.43
917.18	228.39
917.49	228.48
917.79	228.49
918.09	228.54
918.39	228.50
918.70	228.48
919.00	228.48
919.30	228.68
919.60	228.69
919.91	228.74
920.21	228.80
920.51	228.91
920.81	228.82
921.12	228.90
921.42	228.86
921.72	228.98
922.02	229.01
922.32	229.10
922.63	229.05
922.93	229.15
923.23	229.19
923.53	229.13
923.83	229.06
924.13	229.09
924.44	229.03
924.74	229.03
925.04	228.98
925.34	228.94
925.64	228.76
925.94	228.76
926.24	228.85
926.55	228.81
926.85	228.77
927.15	228.80
927.45	228.78
927.75	228.77
928.05	228.62
928.35	228.69
928.65	228.66
928.95	228.70
929.26	228.62
929.56	228.58
929.86	228.63
930.16	228.50
930.46	228.43
930.76	228.35
931.06	228.28
931.36	228.23
931.66	228.25
931.96	228.24
932.26	228.20
932.56	228.02
932.86	227.92
933.16	227.86
933.46	227.79
933.76	227.76
934.06	227.72
934.36	227.85
934.66	227.76
934.96	227.72
935.26	227.73
935.56	227.77
935.86	227.81
936.16	227.76
936.46	227.80
936.76	227.75
937.06	227.74
937.36	227.69
937.66	227.73
937.96	227.65
938.26	227.58
938.56	227.63
938.86	227.68
939.16	227.77
939.46	227.85
939.76	227.91
940.06	227.94
940.35	227.93
940.65	227.79
940.95	227.83
941.25	227.88
941.55	227.82
941.85	227.73
942.15	227.72
942.45	227.80
942.75	227.84
943.04	228.00
943.34	228.15
943.64	228.16
943.94	228.12
944.24	228.17
944.54	228.21
944.84	228.18
945.13	228.20
945.43	228.19
945.73	228.14
946.03	228.11
946.33	228.13
946.62	228.21
946.92	228.28
947.22	228.25
947.52	228.14
947.82	228.22
948.11	228.20
948.41	228.15
948.71	228.20
949.01	228.25
949.31	228.10
949.60	228.16
949.90	228.38
950.20	228.31
950.50	228.30
950.79	228.34
951.09	228.25
951.39	228.31
951.69	228.33
951.98	228.38
952.28	228.41
952.58	228.34
952.87	228.27
953.17	228.29
953.47	228.30
953.76	228.33
954.06	228.33
954.36	228.40
954.66	228.46
954.95	228.40
955.25	228.44
955.55	228.50
955.84	228.43
956.14	228.35
956.44	228.56
956.73	228.62
957.03	228.66
957.32	228.78
957.62	228.74
957.92	228.76
958.21	228.72
958.51	228.87
958.81	228.90
959.10	228.91
959.40	228.96
959.69	229.00
959.99	229.14
960.29	229.12
960.58	229.18
960.88	229.21
961.17	229.21
961.47	229.20
961.76	229.17
962.06	229.20
962.36	229.13
962.65	229.04
962.95	229.04
963.24	229.04
963.54	229.05
963.83	229.04
964.13	229.02
964.42	228.96
964.72	228.89
965.01	228.89
965.31	228.91
965.60	228.87
965.90	228.93
966.19	228.81
966.49	228.91
966.78	228.79
967.08	228.85
967.37	228.86
967.67	228.77
967.96	228.71
968.26	228.68
968.55	228.71
968.85	228.61
969.14	228.54
969.43	228.40
969.73	228.40
970.02	228.38
970.32	228.29
970.61	228.29
970.91	228.15
971.20	228.13
971.49	228.09
971.79	228.07
972.08	227.96
972.38	227.97
972.67	227.84
972.96	227.81
973.26	227.69
973.55	227.80
973.85	227.68
974.14	227.75
974.43	227.70
974.73	227.58
975.02	227.61
975.31	227.62
975.61	227.69
975.90	227.69
976.19	227.60
976.49	227.59
976.78	227.58
977.07	227.68
977.37	227.62
977.66	227.64
977.95	227.60
978.24	227.59
978.54	227.56
978.83	227.58
979.12	227.59
979.42	227.64
979.71	227.50
980.00	227.59
980.29	227.60
980.59	227.61
980.88	227.71
981.17	227.70
981.46	227.64
981.76	227.73
982.05	227.82
982.34	227.90
982.63	228.05
982.93	228.09
983.22	228.02
983.51	228.11
983.80	228.15
984.09	228.13
984.39	228.18
984.68	228.17
984.97	228.18
985.26	228.25
985.55	228.29
985.85	228.23
986.14	228.33
986.43	228.38
986.72	228.28
987.01	228.28
987.30	228.40
987.59	228.41
987.89	228.35
988.18	228.26
988.47	228.26
988.76	228.28
989.05	228.23
989.34	228.34
989.63	228.45
989.92	228.42
990.22	228.40
990.51	228.31
990.80	228.35
991.09	228.41
991.38	228.34
991.67	228.32
991.96	228.37
992.25	228.34
992.54	228.20
992.83	228.29
993.12	228.19
993.41	228.14
993.70	228.33
993.99	228.41
994.28	228.52
994.58	228.57
994.87	228.46
995.16	228.52
995.45	228.49
995.74	228.36
996.03	228.44
996.32	228.50
996.61	228.53
996.90	228.60
997.19	228.60
997.48	228.65
997.77	228.60
998.06	228.60
998.34	228.56
998.63	228.61
998.92	228.66
999.21	228.68
999.50	228.66
999.79	228.63
1000.08	228.60
1000.37	228.48
1000.66	228.49
1000.95	228.53
1001.24	228.52
1001.53	228.45
1001.82	228.36
1002.11	228.24
1002.40	228.25
1002.68	228.31
1002.97	228.40
1003.26	228.40
1003.55	228.37
1003.84	228.32
1004.13	228.36
1004.42	228.35
1004.71	228.42
1004.99	228.42
1005.28	228.48
1005.57	228.47
1005.86	228.37
1006.15	228.24
1006.44	228.24
1006.72	228.20
1007.01	228.18
1007.30	228.17
1007.59	228.14
1007.88	228.26
1008.17	228.23
1008.45	228.20
1008.74	228.15
1009.03	227.97
1009.32	227.93
1009.60	227.84
1009.89	227.79
1010.18	227.76
1010.47	227.79
1010.76	227.74
1011.04	227.64
1011.33	227.60
1011.62	227.59
1011.91	227.54
1012.19	227.61
1012.48	227.61
1012.77	227.61
1013.05	227.60
1013.34	227.50
1013.63	227.52
1013.92	227.41
1014.20	227.45
1014.49	227.53
1014.78	227.51
1015.06	227.52
1015.35	227.40
1015.64	227.54
1015.92	227.57
1016.21	227.47
1016.50	227.33
1016.78	227.39
1017.07	227.48
1017.36	227.46
1017.64	227.52
1017.93	227.57
1018.22	227.54
1018.50	227.53
1018.79	227.56
1019.08	227.60
1019.36	227.67
1019.65	227.59
1019.93	227.72
1020.22	227.76
1020.51	227.74
1020.79	227.79
1021.08	227.40
1021.36	227.30
1021.65	228.50
1021.94	228.10
1022.22	228.30
1022.51	226.00
1022.79	229.30
1023.08	228.60
1023.36	229.30
1023.65	228.90
>>>>>End Processed Spectral Data<<<<<
