SpectraSuite Data File
++++++++++++++++++++++++++++++++++++
Date: Fri Feb 01 14:38:31 EST 2013
User: group
Dark Spectrum Present: No
Reference Spectrum Present: No
Number of Sampled Component Spectra: 1
Spectrometers: USB2E7196
Integration Time (usec): 70000 (USB2E7196)
Spectra Averaged: 10 (USB2E7196)
Boxcar Smoothing: 10 (USB2E7196)
Correct for Electrical Dark: No (USB2E7196)
Strobe/Lamp Enabled: No (USB2E7196)
Correct for Detector Non-linearity: No (USB2E7196)
Correct for Stray Light: No (USB2E7196)
Number of Pixels in Processed Spectrum: 2048
>>>>>Begin Processed Spectral Data<<<<<
339.09	0.00
339.48	217.00
339.86	217.00
340.24	219.30
340.63	220.80
341.01	224.50
341.39	222.80
341.78	225.10
342.16	226.00
342.54	226.30
342.93	214.63
343.31	225.42
343.69	225.98
344.07	226.57
344.46	226.96
344.84	227.24
345.22	227.41
345.60	227.62
345.99	227.79
346.37	227.89
346.75	228.00
347.13	228.07
347.52	228.09
347.90	228.14
348.28	228.08
348.66	228.09
349.05	228.00
349.43	227.99
349.81	227.97
350.19	227.93
350.57	228.02
350.96	228.05
351.34	228.15
351.72	228.13
352.10	228.10
352.48	228.20
352.87	228.30
353.25	228.36
353.63	228.44
354.01	228.49
354.39	228.63
354.77	228.65
355.15	228.76
355.54	228.81
355.92	228.88
356.30	228.96
356.68	229.12
357.06	229.37
357.44	229.50
357.82	229.61
358.20	229.70
358.58	229.77
358.97	229.79
359.35	229.91
359.73	229.98
360.11	230.00
360.49	230.02
360.87	230.03
361.25	230.07
361.63	230.14
362.01	230.14
362.39	230.03
362.77	230.13
363.15	230.21
363.53	230.22
363.91	230.17
364.29	230.15
364.67	230.09
365.05	230.00
365.43	230.02
365.81	230.05
366.19	230.18
366.57	230.14
366.95	230.16
367.33	230.12
367.71	230.16
368.09	230.15
368.47	230.20
368.85	230.22
369.23	230.28
369.61	230.20
369.99	230.22
370.37	230.29
370.75	230.17
371.13	230.00
371.51	229.89
371.89	229.94
372.27	229.95
372.65	229.83
373.03	229.80
373.41	229.60
373.78	229.50
374.16	229.40
374.54	229.27
374.92	229.16
375.30	229.04
375.68	228.89
376.06	228.80
376.44	228.59
376.82	228.50
377.19	228.30
377.57	228.13
377.95	228.06
378.33	227.92
378.71	227.85
379.09	227.82
379.47	227.82
379.84	227.69
380.22	227.52
380.60	227.36
380.98	227.22
381.36	227.20
381.73	227.13
382.11	226.97
382.49	226.91
382.87	226.89
383.25	226.80
383.62	226.95
384.00	226.90
384.38	226.98
384.76	226.93
385.13	227.00
385.51	227.11
385.89	226.96
386.27	226.89
386.64	226.87
387.02	226.77
387.40	226.73
387.78	226.69
388.15	226.74
388.53	226.79
388.91	226.73
389.29	226.76
389.66	226.74
390.04	226.74
390.42	226.80
390.79	226.76
391.17	226.79
391.55	226.66
391.92	226.61
392.30	226.49
392.68	226.46
393.05	226.48
393.43	226.44
393.81	226.48
394.18	226.51
394.56	226.52
394.94	226.63
395.31	226.62
395.69	226.67
396.06	226.61
396.44	226.54
396.82	226.62
397.19	226.70
397.57	226.80
397.95	226.87
398.32	226.84
398.70	226.92
399.07	227.02
399.45	227.02
399.82	227.12
400.20	227.12
400.58	227.25
400.95	227.24
401.33	227.34
401.70	227.67
402.08	227.67
402.45	227.79
402.83	227.99
403.20	228.10
403.58	228.34
403.95	228.57
404.33	228.85
404.71	229.01
405.08	229.22
405.46	229.36
405.83	229.45
406.21	229.59
406.58	229.79
406.96	229.91
407.33	230.18
407.70	230.38
408.08	230.83
408.45	231.08
408.83	231.34
409.20	231.50
409.58	231.54
409.95	231.96
410.33	232.28
410.70	232.49
411.08	232.81
411.45	233.03
411.82	233.33
412.20	233.67
412.57	234.14
412.95	234.45
413.32	234.97
413.69	235.55
414.07	236.09
414.44	236.57
414.82	237.16
415.19	237.82
415.56	238.50
415.94	239.03
416.31	239.78
416.68	240.58
417.06	241.51
417.43	242.47
417.81	243.45
418.18	244.44
418.55	245.41
418.93	246.54
419.30	247.78
419.67	249.08
420.04	250.33
420.42	251.62
420.79	253.07
421.16	254.53
421.54	256.10
421.91	257.67
422.28	259.44
422.66	261.14
423.03	262.75
423.40	264.54
423.77	266.48
424.15	268.27
424.52	270.21
424.89	272.32
425.26	274.26
425.64	276.11
426.01	278.22
426.38	280.40
426.75	282.65
427.13	284.81
427.50	287.23
427.87	289.67
428.24	292.13
428.61	294.57
428.99	297.22
429.36	299.94
429.73	302.78
430.10	305.45
430.47	308.27
430.85	311.25
431.22	314.23
431.59	317.54
431.96	320.74
432.33	324.13
432.70	327.49
433.08	331.46
433.45	335.12
433.82	338.74
434.19	342.81
434.56	346.70
434.93	350.52
435.30	354.18
435.68	358.42
436.05	362.45
436.42	366.39
436.79	369.90
437.16	373.87
437.53	377.88
437.90	382.04
438.27	385.98
438.64	390.19
439.01	394.10
439.38	397.48
439.75	400.83
440.13	404.51
440.50	408.00
440.87	410.92
441.24	413.90
441.61	417.05
441.98	419.56
442.35	422.38
442.72	425.44
443.09	428.37
443.46	430.07
443.83	431.25
444.20	432.38
444.57	434.01
444.94	434.67
445.31	435.59
445.68	436.42
446.05	437.08
446.42	436.78
446.79	436.65
447.16	436.32
447.53	436.36
447.90	435.22
448.27	434.03
448.64	432.09
449.01	430.94
449.37	428.72
449.74	426.32
450.11	423.49
450.48	420.16
450.85	416.71
451.22	413.92
451.59	411.15
451.96	408.64
452.33	405.18
452.70	402.22
453.07	398.51
453.43	394.71
453.80	391.00
454.17	387.37
454.54	383.80
454.91	380.14
455.28	376.25
455.65	372.87
456.02	369.48
456.38	366.49
456.75	362.73
457.12	359.62
457.49	356.55
457.86	353.62
458.23	351.08
458.59	348.35
458.96	345.42
459.33	343.09
459.70	340.38
460.07	338.21
460.43	335.79
460.80	333.40
461.17	331.42
461.54	329.31
461.91	327.40
462.27	325.49
462.64	323.67
463.01	321.79
463.38	319.97
463.74	317.95
464.11	316.29
464.48	314.88
464.85	313.22
465.21	311.95
465.58	310.57
465.95	308.96
466.32	307.57
466.68	306.34
467.05	305.05
467.42	303.69
467.78	302.38
468.15	301.07
468.52	300.16
468.88	298.83
469.25	297.49
469.62	296.47
469.98	295.39
470.35	294.50
470.72	293.45
471.08	292.46
471.45	291.69
471.82	290.81
472.18	289.86
472.55	289.22
472.92	288.37
473.28	287.58
473.65	286.93
474.02	286.19
474.38	285.56
474.75	284.80
475.11	284.33
475.48	283.83
475.85	283.31
476.21	282.64
476.58	281.97
476.94	281.52
477.31	280.99
477.67	280.58
478.04	280.15
478.41	279.90
478.77	279.57
479.14	279.11
479.50	278.81
479.87	278.52
480.23	278.23
480.60	278.00
480.96	277.79
481.33	277.65
481.69	277.40
482.06	277.10
482.42	276.94
482.79	276.71
483.15	276.61
483.52	276.51
483.88	276.39
484.25	276.22
484.61	276.19
484.98	276.15
485.34	275.99
485.71	275.93
486.07	275.89
486.44	275.80
486.80	275.86
487.17	275.91
487.53	276.06
487.90	276.16
488.26	276.25
488.62	276.46
488.99	276.46
489.35	276.64
489.72	276.88
490.08	277.00
490.44	277.20
490.81	277.38
491.17	277.52
491.54	277.87
491.90	278.27
492.26	278.51
492.63	278.80
492.99	279.11
493.36	279.42
493.72	279.69
494.08	279.88
494.45	280.14
494.81	280.43
495.17	280.60
495.54	280.79
495.90	281.08
496.26	281.27
496.63	281.56
496.99	281.89
497.35	282.18
497.72	282.63
498.08	282.97
498.44	283.21
498.80	283.68
499.17	284.06
499.53	284.33
499.89	284.74
500.26	284.96
500.62	285.23
500.98	285.48
501.34	285.94
501.71	286.45
502.07	286.88
502.43	287.22
502.79	287.59
503.16	287.96
503.52	288.32
503.88	288.75
504.24	289.07
504.60	289.47
504.97	289.95
505.33	290.27
505.69	290.73
506.05	291.24
506.41	291.55
506.78	291.92
507.14	292.43
507.50	292.95
507.86	293.46
508.22	294.00
508.59	294.44
508.95	294.77
509.31	295.18
509.67	295.68
510.03	296.19
510.39	296.78
510.75	297.43
511.12	297.96
511.48	298.49
511.84	299.25
512.20	299.97
512.56	300.54
512.92	301.23
513.28	302.01
513.64	302.69
514.00	303.49
514.37	304.42
514.73	305.31
515.09	306.14
515.45	307.19
515.81	308.25
516.17	309.50
516.53	310.67
516.89	311.85
517.25	313.02
517.61	314.44
517.97	315.87
518.33	317.20
518.69	318.83
519.05	320.39
519.41	321.93
519.77	323.63
520.13	325.37
520.49	327.22
520.85	329.01
521.21	331.17
521.57	333.32
521.93	335.39
522.29	337.58
522.65	339.90
523.01	342.20
523.37	344.54
523.73	347.01
524.09	349.69
524.45	352.33
524.81	355.18
525.17	357.99
525.53	360.91
525.89	363.87
526.25	366.99
526.61	370.17
526.97	373.40
527.33	376.61
527.68	380.29
528.04	383.83
528.40	387.33
528.76	391.02
529.12	394.70
529.48	398.63
529.84	402.48
530.20	406.60
530.56	410.82
530.91	415.20
531.27	419.53
531.63	423.90
531.99	428.48
532.35	432.90
532.71	437.28
533.07	442.08
533.42	446.90
533.78	451.60
534.14	456.55
534.50	461.64
534.86	466.76
535.21	471.56
535.57	476.74
535.93	482.07
536.29	487.22
536.65	492.64
537.00	497.90
537.36	503.30
537.72	508.70
538.08	514.09
538.44	519.58
538.79	525.07
539.15	530.40
539.51	536.16
539.87	542.14
540.22	548.13
540.58	553.69
540.94	559.62
541.29	565.49
541.65	571.35
542.01	577.28
542.37	583.41
542.72	589.32
543.08	595.17
543.44	601.21
543.79	606.99
544.15	612.86
544.51	618.88
544.87	624.91
545.22	630.76
545.58	636.87
545.94	642.68
546.29	648.69
546.65	654.94
547.01	660.80
547.36	666.60
547.72	672.37
548.07	678.24
548.43	684.17
548.79	690.14
549.14	695.79
549.50	701.45
549.86	706.92
550.21	712.92
550.57	718.74
550.92	724.45
551.28	730.34
551.64	736.01
551.99	741.83
552.35	747.52
552.70	752.95
553.06	758.70
553.41	764.48
553.77	770.14
554.13	775.66
554.48	781.37
554.84	786.83
555.19	792.42
555.55	798.22
555.90	803.39
556.26	808.43
556.61	813.73
556.97	818.85
557.32	824.25
557.68	829.30
558.03	834.53
558.39	839.64
558.74	844.87
559.10	850.26
559.45	855.23
559.81	860.56
560.16	865.80
560.52	870.76
560.87	875.85
561.23	880.53
561.58	885.33
561.94	889.73
562.29	894.25
562.64	898.76
563.00	903.02
563.35	907.81
563.71	912.65
564.06	917.56
564.42	922.29
564.77	926.83
565.12	931.29
565.48	935.64
565.83	939.87
566.19	944.27
566.54	948.10
566.89	951.92
567.25	955.96
567.60	960.32
567.96	964.14
568.31	967.70
568.66	971.40
569.02	975.20
569.37	978.76
569.72	982.25
570.08	985.28
570.43	988.50
570.78	991.46
571.14	994.18
571.49	997.11
571.84	1000.10
572.20	1002.68
572.55	1005.40
572.90	1007.84
573.26	1010.45
573.61	1012.48
573.96	1014.72
574.31	1016.70
574.67	1018.25
575.02	1019.60
575.37	1021.08
575.72	1022.27
576.08	1023.77
576.43	1025.12
576.78	1026.70
577.13	1028.30
577.49	1030.15
577.84	1031.41
578.19	1032.67
578.54	1034.02
578.90	1034.47
579.25	1035.21
579.60	1035.81
579.95	1036.10
580.30	1036.64
580.66	1037.06
581.01	1037.45
581.36	1038.07
581.71	1038.68
582.06	1039.17
582.42	1039.45
582.77	1039.94
583.12	1040.20
583.47	1040.64
583.82	1041.04
584.17	1040.90
584.53	1040.94
584.88	1040.95
585.23	1040.86
585.58	1040.87
585.93	1040.92
586.28	1041.26
586.63	1041.39
586.98	1041.40
587.34	1041.60
587.69	1041.23
588.04	1041.19
588.39	1041.18
588.74	1040.40
589.09	1039.90
589.44	1039.05
589.79	1038.67
590.14	1038.20
590.49	1037.81
590.84	1036.87
591.19	1035.92
591.54	1034.90
591.89	1033.43
592.25	1032.50
592.60	1031.35
592.95	1029.85
593.30	1028.27
593.65	1026.79
594.00	1024.87
594.35	1023.91
594.70	1022.17
595.05	1020.99
595.40	1018.95
595.75	1016.90
596.10	1015.62
596.45	1014.38
596.80	1013.27
597.15	1011.75
597.50	1009.84
597.85	1008.21
598.19	1006.66
598.54	1004.89
598.89	1003.26
599.24	1002.26
599.59	1000.41
599.94	998.99
600.29	997.25
600.64	995.81
600.99	993.63
601.34	992.13
601.69	989.87
602.04	988.13
602.39	986.33
602.74	985.05
603.08	983.35
603.43	981.81
603.78	979.70
604.13	977.47
604.48	975.38
604.83	973.49
605.18	971.70
605.53	969.46
605.87	967.20
606.22	965.30
606.57	962.96
606.92	960.88
607.27	958.83
607.62	956.87
607.96	954.66
608.31	952.63
608.66	950.05
609.01	947.19
609.36	944.48
609.70	941.24
610.05	938.10
610.40	935.65
610.75	932.64
611.10	929.74
611.44	926.84
611.79	923.80
612.14	920.90
612.49	917.44
612.83	914.48
613.18	911.47
613.53	908.41
613.88	904.89
614.22	901.43
614.57	897.54
614.92	894.23
615.27	890.77
615.61	887.60
615.96	884.45
616.31	881.84
616.65	879.04
617.00	876.27
617.35	873.13
617.70	869.59
618.04	865.95
618.39	862.70
618.74	859.56
619.08	856.30
619.43	852.83
619.78	849.97
620.12	846.60
620.47	843.40
620.82	840.18
621.16	837.02
621.51	833.94
621.85	831.17
622.20	827.67
622.55	824.44
622.89	821.31
623.24	818.30
623.59	814.99
623.93	811.95
624.28	808.68
624.62	805.55
624.97	802.61
625.32	799.84
625.66	797.05
626.01	793.75
626.35	790.67
626.70	787.57
627.04	784.38
627.39	781.23
627.73	778.08
628.08	774.80
628.43	771.54
628.77	768.34
629.12	764.76
629.46	761.83
629.81	758.30
630.15	754.92
630.50	751.37
630.84	747.70
631.19	743.86
631.53	740.75
631.88	737.19
632.22	733.63
632.57	730.28
632.91	726.62
633.26	723.43
633.60	719.97
633.95	716.62
634.29	713.43
634.64	710.51
634.98	707.11
635.32	703.92
635.67	701.03
636.01	697.85
636.36	694.88
636.70	691.81
637.05	689.03
637.39	686.21
637.73	683.33
638.08	680.94
638.42	678.36
638.77	675.40
639.11	672.57
639.45	669.69
639.80	666.60
640.14	663.74
640.49	660.74
640.83	657.91
641.17	655.05
641.52	651.95
641.86	648.66
642.20	646.01
642.55	643.17
642.89	640.16
643.23	637.22
643.58	634.59
643.92	631.66
644.26	628.92
644.61	626.07
644.95	623.09
645.29	619.79
645.64	616.82
645.98	613.99
646.32	611.23
646.66	608.36
647.01	605.41
647.35	602.69
647.69	599.96
648.04	597.37
648.38	594.57
648.72	591.66
649.06	588.89
649.41	585.84
649.75	582.68
650.09	579.78
650.43	577.04
650.78	573.88
651.12	570.97
651.46	568.10
651.80	565.20
652.14	562.43
652.49	559.69
652.83	556.88
653.17	553.96
653.51	551.19
653.85	548.36
654.20	545.72
654.54	542.61
654.88	539.55
655.22	536.61
655.56	533.63
655.90	530.93
656.25	528.29
656.59	525.57
656.93	522.94
657.27	520.39
657.61	517.45
657.95	515.13
658.29	512.31
658.64	509.48
658.98	506.61
659.32	503.93
659.66	501.20
660.00	498.49
660.34	495.95
660.68	493.29
661.02	490.78
661.36	488.29
661.70	485.91
662.05	483.65
662.39	481.29
662.73	478.98
663.07	476.66
663.41	474.39
663.75	471.97
664.09	469.69
664.43	467.13
664.77	465.05
665.11	462.55
665.45	460.50
665.79	458.25
666.13	456.07
666.47	453.81
666.81	451.51
667.15	449.14
667.49	446.91
667.83	444.89
668.17	442.63
668.51	440.33
668.85	438.20
669.19	436.33
669.53	434.29
669.87	432.22
670.21	430.35
670.55	428.34
670.89	426.68
671.23	424.86
671.57	423.22
671.91	421.32
672.25	419.48
672.58	417.58
672.92	415.88
673.26	414.14
673.60	412.36
673.94	410.66
674.28	409.19
674.62	407.75
674.96	406.03
675.30	404.48
675.64	402.97
675.97	401.44
676.31	399.67
676.65	398.12
676.99	396.73
677.33	394.95
677.67	393.48
678.01	391.76
678.34	390.22
678.68	388.52
679.02	386.96
679.36	385.51
679.70	384.04
680.04	382.42
680.37	380.92
680.71	379.57
681.05	378.32
681.39	376.88
681.73	375.28
682.06	373.91
682.40	372.63
682.74	371.31
683.08	370.05
683.42	368.69
683.75	367.19
684.09	365.67
684.43	364.26
684.77	362.85
685.10	361.42
685.44	360.09
685.78	358.89
686.12	357.71
686.45	356.40
686.79	355.04
687.13	353.98
687.46	352.83
687.80	351.58
688.14	350.30
688.48	349.12
688.81	347.83
689.15	346.53
689.49	345.23
689.82	344.10
690.16	342.81
690.50	341.76
690.83	340.78
691.17	339.74
691.51	338.75
691.84	337.63
692.18	336.63
692.52	335.50
692.85	334.45
693.19	333.22
693.52	332.08
693.86	330.96
694.20	329.78
694.53	328.58
694.87	327.46
695.21	326.40
695.54	325.20
695.88	324.21
696.21	323.13
696.55	322.18
696.88	321.12
697.22	320.00
697.56	318.91
697.89	317.77
698.23	316.66
698.56	315.67
698.90	314.56
699.23	313.51
699.57	312.48
699.90	311.45
700.24	310.47
700.58	309.60
700.91	308.79
701.25	308.00
701.58	307.35
701.92	306.66
702.25	305.80
702.59	305.06
702.92	304.25
703.26	303.57
703.59	302.70
703.93	301.87
704.26	301.27
704.60	300.42
704.93	299.60
705.26	298.87
705.60	298.13
705.93	297.58
706.27	296.89
706.60	296.19
706.94	295.37
707.27	294.59
707.61	293.76
707.94	292.95
708.27	292.03
708.61	291.10
708.94	290.26
709.28	289.62
709.61	288.94
709.94	288.18
710.28	287.45
710.61	286.80
710.95	286.12
711.28	285.49
711.61	284.80
711.95	284.24
712.28	283.48
712.61	282.76
712.95	282.06
713.28	281.46
713.61	280.85
713.95	280.36
714.28	279.77
714.61	279.16
714.95	278.70
715.28	278.19
715.61	277.66
715.95	277.09
716.28	276.49
716.61	275.97
716.95	275.47
717.28	275.02
717.61	274.50
717.94	273.84
718.28	273.13
718.61	272.67
718.94	272.10
719.27	271.69
719.61	271.25
719.94	270.69
720.27	270.14
720.60	269.64
720.94	269.03
721.27	268.61
721.60	268.32
721.93	267.80
722.27	267.38
722.60	266.99
722.93	266.59
723.26	266.20
723.59	265.52
723.93	265.04
724.26	264.65
724.59	264.17
724.92	263.84
725.25	263.60
725.59	263.34
725.92	263.00
726.25	262.65
726.58	262.28
726.91	261.97
727.24	261.75
727.57	261.37
727.91	261.15
728.24	260.90
728.57	260.51
728.90	260.33
729.23	259.95
729.56	259.73
729.89	259.53
730.22	259.16
730.55	258.98
730.89	258.77
731.22	258.40
731.55	258.20
731.88	258.01
732.21	257.70
732.54	257.41
732.87	257.17
733.20	256.88
733.53	256.65
733.86	256.35
734.19	256.03
734.52	255.92
734.85	255.70
735.18	255.37
735.51	255.20
735.84	254.96
736.17	254.80
736.50	254.30
736.83	254.27
737.16	254.07
737.49	253.79
737.82	253.50
738.15	253.29
738.48	253.03
738.81	252.85
739.14	252.68
739.47	252.29
739.80	252.08
740.13	251.89
740.46	251.55
740.79	251.31
741.12	251.07
741.45	250.79
741.78	250.58
742.11	250.29
742.44	249.95
742.77	249.62
743.10	249.40
743.43	249.15
743.75	248.60
744.08	248.56
744.41	248.37
744.74	248.16
745.07	247.83
745.40	247.59
745.73	247.22
746.06	246.80
746.39	246.65
746.71	246.38
747.04	246.16
747.37	245.96
747.70	245.75
748.03	245.58
748.36	245.36
748.68	245.16
749.01	244.99
749.34	244.86
749.67	244.74
750.00	244.54
750.33	244.57
750.65	244.58
750.98	244.19
751.31	244.06
751.64	243.80
751.97	243.78
752.29	243.67
752.62	243.39
752.95	243.36
753.28	243.09
753.60	242.92
753.93	242.73
754.26	242.62
754.59	242.32
754.91	242.06
755.24	241.71
755.57	241.49
755.90	241.41
756.22	241.16
756.55	240.90
756.88	240.70
757.20	240.37
757.53	240.02
757.86	239.84
758.19	239.70
758.51	239.71
758.84	239.43
759.17	239.30
759.49	239.32
759.82	239.21
760.15	239.17
760.47	238.95
760.80	238.80
761.13	238.62
761.45	238.57
761.78	238.49
762.11	238.53
762.43	238.39
762.76	238.27
763.08	238.12
763.41	237.99
763.74	237.84
764.06	237.83
764.39	237.62
764.71	237.49
765.04	237.29
765.37	237.08
765.69	237.04
766.02	236.87
766.34	236.73
766.67	236.57
767.00	236.54
767.32	236.55
767.65	236.65
767.97	236.54
768.30	236.50
768.62	236.47
768.95	236.38
769.27	236.33
769.60	236.10
769.92	236.17
770.25	236.07
770.57	236.06
770.90	235.95
771.22	235.97
771.55	235.99
771.87	235.92
772.20	235.85
772.52	235.91
772.85	236.10
773.17	235.97
773.50	235.87
773.82	235.72
774.15	235.55
774.47	235.37
774.80	235.31
775.12	235.28
775.45	235.24
775.77	235.22
776.09	235.11
776.42	235.13
776.74	235.05
777.07	235.04
777.39	235.03
777.72	234.88
778.04	234.88
778.36	234.67
778.69	234.63
779.01	234.66
779.33	234.38
779.66	234.04
779.98	234.04
780.31	233.91
780.63	233.99
780.95	233.90
781.28	233.82
781.60	233.82
781.92	233.69
782.25	233.51
782.57	233.41
782.89	233.33
783.22	233.21
783.54	233.02
783.86	232.96
784.19	232.78
784.51	232.83
784.83	232.68
785.16	232.70
785.48	232.68
785.80	232.57
786.12	232.56
786.45	232.53
786.77	232.44
787.09	232.40
787.42	232.29
787.74	232.28
788.06	232.18
788.38	232.02
788.71	232.05
789.03	232.03
789.35	232.05
789.67	232.00
789.99	232.09
790.32	232.00
790.64	231.91
790.96	232.02
791.28	231.89
791.61	231.89
791.93	231.79
792.25	231.65
792.57	231.72
792.89	231.63
793.21	231.53
793.54	231.50
793.86	231.52
794.18	231.42
794.50	231.36
794.82	231.20
795.14	231.29
795.47	231.20
795.79	231.16
796.11	231.10
796.43	231.18
796.75	231.16
797.07	231.18
797.39	231.16
797.71	231.03
798.04	231.03
798.36	231.02
798.68	230.97
799.00	231.04
799.32	230.93
799.64	230.98
799.96	231.08
800.28	231.06
800.60	230.94
800.92	230.94
801.24	231.01
801.56	231.10
801.89	230.98
802.21	230.99
802.53	230.86
802.85	230.81
803.17	230.76
803.49	230.70
803.81	230.69
804.13	230.75
804.45	230.72
804.77	230.58
805.09	230.56
805.41	230.60
805.73	230.52
806.05	230.47
806.37	230.47
806.69	230.36
807.01	230.34
807.33	230.37
807.65	230.29
807.97	230.35
808.28	230.32
808.60	230.37
808.92	230.39
809.24	230.66
809.56	230.70
809.88	230.62
810.20	230.70
810.52	230.75
810.84	230.66
811.16	230.62
811.48	230.74
811.80	230.75
812.12	230.72
812.43	230.83
812.75	230.86
813.07	230.85
813.39	230.99
813.71	231.00
814.03	230.99
814.35	230.99
814.67	230.84
814.98	230.97
815.30	230.98
815.62	230.83
815.94	230.52
816.26	230.56
816.58	230.58
816.89	230.51
817.21	230.40
817.53	230.36
817.85	230.39
818.17	230.36
818.48	230.35
818.80	230.48
819.12	230.40
819.44	230.37
819.76	230.27
820.07	230.14
820.39	230.04
820.71	230.09
821.03	230.09
821.34	230.16
821.66	230.05
821.98	229.95
822.30	230.00
822.61	230.15
822.93	230.04
823.25	229.95
823.57	229.87
823.88	229.93
824.20	229.93
824.52	229.86
824.83	229.91
825.15	229.87
825.47	229.80
825.79	229.77
826.10	229.65
826.42	229.62
826.74	229.66
827.05	229.73
827.37	229.67
827.69	229.66
828.00	229.58
828.32	229.61
828.64	229.62
828.95	229.72
829.27	229.71
829.58	229.70
829.90	229.78
830.22	229.70
830.53	229.66
830.85	229.59
831.17	229.59
831.48	229.42
831.80	229.36
832.11	229.32
832.43	229.23
832.75	229.22
833.06	229.30
833.38	229.25
833.69	229.19
834.01	229.27
834.32	229.27
834.64	229.14
834.96	229.13
835.27	229.09
835.59	229.02
835.90	228.89
836.22	228.85
836.53	228.82
836.85	228.89
837.16	229.11
837.48	229.14
837.79	229.13
838.11	229.26
838.42	229.24
838.74	229.22
839.05	229.22
839.37	229.24
839.68	229.12
840.00	229.07
840.31	229.05
840.63	228.98
840.94	228.91
841.26	228.98
841.57	228.84
841.88	228.85
842.20	228.75
842.51	228.82
842.83	228.83
843.14	228.90
843.46	228.87
843.77	228.69
844.08	228.76
844.40	228.76
844.71	228.70
845.03	228.77
845.34	228.79
845.65	228.77
845.97	228.77
846.28	228.82
846.60	228.86
846.91	228.89
847.22	228.97
847.54	229.10
847.85	229.07
848.16	229.19
848.48	229.18
848.79	229.34
849.10	229.44
849.42	229.47
849.73	229.34
850.04	229.37
850.36	229.30
850.67	229.20
850.98	229.19
851.30	229.16
851.61	229.17
851.92	229.18
852.23	229.30
852.55	229.34
852.86	229.30
853.17	229.31
853.49	229.31
853.80	229.20
854.11	229.12
854.42	229.17
854.74	229.10
855.05	229.16
855.36	228.97
855.67	228.87
855.99	228.72
856.30	228.97
856.61	228.93
856.92	228.87
857.23	228.88
857.55	228.97
857.86	229.09
858.17	229.10
858.48	229.13
858.79	229.01
859.11	229.03
859.42	229.04
859.73	228.97
860.04	228.94
860.35	228.85
860.66	228.82
860.98	228.80
861.29	228.87
861.60	228.85
861.91	228.90
862.22	228.91
862.53	228.93
862.84	228.66
863.16	228.78
863.47	228.80
863.78	228.83
864.09	228.70
864.40	228.66
864.71	228.65
865.02	228.61
865.33	228.65
865.64	228.51
865.95	228.56
866.27	228.67
866.58	228.71
866.89	228.80
867.20	228.79
867.51	228.71
867.82	228.67
868.13	228.74
868.44	228.75
868.75	228.80
869.06	228.87
869.37	228.94
869.68	228.81
869.99	228.93
870.30	228.88
870.61	228.94
870.92	228.91
871.23	228.85
871.54	228.81
871.85	228.84
872.16	228.96
872.47	228.98
872.78	228.82
873.09	228.82
873.40	228.82
873.71	228.71
874.02	228.80
874.33	228.77
874.64	228.72
874.95	228.69
875.26	228.50
875.56	228.49
875.87	228.46
876.18	228.52
876.49	228.70
876.80	228.74
877.11	228.76
877.42	228.72
877.73	228.80
878.04	228.77
878.35	228.77
878.66	228.72
878.96	228.71
879.27	228.80
879.58	228.84
879.89	228.87
880.20	229.03
880.51	228.99
880.82	229.01
881.12	228.98
881.43	229.05
881.74	229.16
882.05	229.18
882.36	229.12
882.67	229.08
882.97	228.80
883.28	228.81
883.59	228.68
883.90	228.74
884.21	228.71
884.51	228.78
884.82	228.88
885.13	228.92
885.44	228.90
885.74	228.84
886.05	228.79
886.36	228.76
886.67	228.76
886.98	228.86
887.28	228.81
887.59	228.88
887.90	228.86
888.20	228.88
888.51	228.90
888.82	229.01
889.13	229.06
889.43	229.27
889.74	229.20
890.05	229.34
890.35	229.32
890.66	229.32
890.97	229.29
891.28	229.15
891.58	229.20
891.89	229.13
892.20	229.14
892.50	229.15
892.81	229.09
893.12	229.10
893.42	229.04
893.73	229.10
894.04	228.97
894.34	228.92
894.65	228.83
894.95	228.73
895.26	228.66
895.57	228.67
895.87	228.40
896.18	228.39
896.48	228.27
896.79	228.19
897.10	228.10
897.40	228.10
897.71	228.13
898.01	227.92
898.32	227.97
898.63	227.94
898.93	227.84
899.24	227.81
899.54	227.72
899.85	227.73
900.15	227.65
900.46	227.73
900.76	227.81
901.07	227.83
901.38	227.82
901.68	227.76
901.99	227.62
902.29	227.70
902.60	227.71
902.90	227.76
903.21	227.79
903.51	227.80
903.82	227.85
904.12	227.91
904.43	228.03
904.73	228.07
905.03	228.12
905.34	228.38
905.64	228.36
905.95	228.34
906.25	228.27
906.56	228.36
906.86	228.36
907.17	228.38
907.47	228.42
907.77	228.47
908.08	228.52
908.38	228.60
908.69	228.50
908.99	228.56
909.30	228.59
909.60	228.62
909.90	228.61
910.21	228.49
910.51	228.41
910.81	228.44
911.12	228.42
911.42	228.38
911.73	228.15
912.03	228.18
912.33	228.24
912.64	228.22
912.94	228.16
913.24	228.12
913.55	228.10
913.85	228.18
914.15	228.22
914.46	228.32
914.76	228.33
915.06	228.48
915.37	228.56
915.67	228.59
915.97	228.59
916.27	228.67
916.58	228.66
916.88	228.70
917.18	228.66
917.49	228.81
917.79	228.78
918.09	228.90
918.39	228.98
918.70	229.00
919.00	229.09
919.30	229.23
919.60	229.18
919.91	229.15
920.21	229.00
920.51	228.99
920.81	228.86
921.12	228.81
921.42	228.75
921.72	228.68
922.02	228.69
922.32	228.68
922.63	228.65
922.93	228.79
923.23	228.70
923.53	228.73
923.83	228.58
924.13	228.69
924.44	228.69
924.74	228.75
925.04	228.74
925.34	228.64
925.64	228.48
925.94	228.50
926.24	228.65
926.55	228.65
926.85	228.72
927.15	228.75
927.45	228.88
927.75	228.92
928.05	228.90
928.35	228.80
928.65	228.86
928.95	228.85
929.26	228.85
929.56	228.95
929.86	228.90
930.16	228.90
930.46	228.85
930.76	228.73
931.06	228.65
931.36	228.60
931.66	228.72
931.96	228.77
932.26	228.86
932.56	228.68
932.86	228.76
933.16	228.73
933.46	228.72
933.76	228.52
934.06	228.44
934.36	228.45
934.66	228.49
934.96	228.44
935.26	228.46
935.56	228.49
935.86	228.38
936.16	228.42
936.46	228.35
936.76	228.26
937.06	228.29
937.36	228.36
937.66	228.39
937.96	228.39
938.26	228.37
938.56	228.17
938.86	228.24
939.16	228.21
939.46	228.13
939.76	228.10
940.06	228.07
940.35	228.07
940.65	228.06
940.95	227.99
941.25	227.87
941.55	227.76
941.85	227.73
942.15	227.71
942.45	227.70
942.75	227.72
943.04	227.73
943.34	227.80
943.64	227.73
943.94	227.72
944.24	227.68
944.54	227.67
944.84	227.83
945.13	227.70
945.43	227.68
945.73	227.65
946.03	227.64
946.33	227.71
946.62	227.75
946.92	227.69
947.22	227.70
947.52	227.77
947.82	227.90
948.11	227.72
948.41	227.73
948.71	227.68
949.01	227.72
949.31	227.74
949.60	227.71
949.90	227.66
950.20	227.61
950.50	227.65
950.79	227.60
951.09	227.64
951.39	227.60
951.69	227.56
951.98	227.69
952.28	227.67
952.58	227.72
952.87	227.66
953.17	227.75
953.47	227.82
953.76	227.86
954.06	227.72
954.36	227.84
954.66	227.91
954.95	228.04
955.25	227.98
955.55	227.96
955.84	227.94
956.14	228.00
956.44	228.03
956.73	227.93
957.03	228.00
957.32	228.01
957.62	228.11
957.92	228.25
958.21	228.22
958.51	228.53
958.81	228.54
959.10	228.58
959.40	228.64
959.69	228.75
959.99	228.81
960.29	228.93
960.58	228.85
960.88	228.90
961.17	228.83
961.47	228.96
961.76	229.09
962.06	229.13
962.36	229.08
962.65	229.06
962.95	229.20
963.24	229.20
963.54	229.12
963.83	229.20
964.13	229.18
964.42	229.01
964.72	228.81
965.01	228.90
965.31	228.93
965.60	228.79
965.90	228.80
966.19	228.64
966.49	228.52
966.78	228.60
967.08	228.57
967.37	228.61
967.67	228.55
967.96	228.58
968.26	228.56
968.55	228.62
968.85	228.71
969.14	228.70
969.43	228.69
969.73	228.71
970.02	228.64
970.32	228.55
970.61	228.62
970.91	228.60
971.20	228.47
971.49	228.47
971.79	228.54
972.08	228.39
972.38	228.49
972.67	228.53
972.96	228.49
973.26	228.44
973.55	228.50
973.85	228.45
974.14	228.37
974.43	228.32
974.73	228.27
975.02	228.17
975.31	228.15
975.61	228.05
975.90	227.90
976.19	227.83
976.49	227.84
976.78	227.88
977.07	227.77
977.37	227.70
977.66	227.73
977.95	227.65
978.24	227.71
978.54	227.74
978.83	227.71
979.12	227.82
979.42	227.71
979.71	227.60
980.00	227.57
980.29	227.57
980.59	227.49
980.88	227.55
981.17	227.54
981.46	227.47
981.76	227.48
982.05	227.69
982.34	227.68
982.63	227.78
982.93	227.77
983.22	227.93
983.51	228.05
983.80	228.02
984.09	228.02
984.39	227.99
984.68	227.93
984.97	227.88
985.26	227.80
985.55	227.88
985.85	227.86
986.14	227.89
986.43	227.92
986.72	227.99
987.01	227.86
987.30	227.93
987.59	227.94
987.89	228.04
988.18	227.94
988.47	227.95
988.76	227.84
989.05	227.85
989.34	227.78
989.63	227.84
989.92	227.78
990.22	227.84
990.51	227.90
990.80	227.90
991.09	227.96
991.38	228.04
991.67	228.07
991.96	228.04
992.25	228.04
992.54	227.99
992.83	228.15
993.12	228.27
993.41	228.23
993.70	228.34
993.99	228.37
994.28	228.52
994.58	228.54
994.87	228.51
995.16	228.55
995.45	228.59
995.74	228.49
996.03	228.57
996.32	228.60
996.61	228.59
996.90	228.52
997.19	228.60
997.48	228.51
997.77	228.48
998.06	228.60
998.34	228.63
998.63	228.63
998.92	228.55
999.21	228.55
999.50	228.57
999.79	228.51
1000.08	228.46
1000.37	228.34
1000.66	228.34
1000.95	228.44
1001.24	228.38
1001.53	228.45
1001.82	228.37
1002.11	228.30
1002.40	228.27
1002.68	228.30
1002.97	228.55
1003.26	228.47
1003.55	228.43
1003.84	228.44
1004.13	228.43
1004.42	228.39
1004.71	228.48
1004.99	228.36
1005.28	228.48
1005.57	228.52
1005.86	228.53
1006.15	228.56
1006.44	228.49
1006.72	228.50
1007.01	228.49
1007.30	228.53
1007.59	228.40
1007.88	228.46
1008.17	228.43
1008.45	228.46
1008.74	228.33
1009.03	228.16
1009.32	228.26
1009.60	228.31
1009.89	228.32
1010.18	228.27
1010.47	228.29
1010.76	228.20
1011.04	228.23
1011.33	228.07
1011.62	228.03
1011.91	228.02
1012.19	228.09
1012.48	228.11
1012.77	228.06
1013.05	228.12
1013.34	228.11
1013.63	228.06
1013.92	228.10
1014.20	228.21
1014.49	228.14
1014.78	228.22
1015.06	228.12
1015.35	227.99
1015.64	228.01
1015.92	228.06
1016.21	228.02
1016.50	227.97
1016.78	227.99
1017.07	228.02
1017.36	228.07
1017.64	228.00
1017.93	227.94
1018.22	227.88
1018.50	227.88
1018.79	227.88
1019.08	227.75
1019.36	227.66
1019.65	227.69
1019.93	227.69
1020.22	227.58
1020.51	227.60
1020.79	227.57
1021.08	228.10
1021.36	227.50
1021.65	227.20
1021.94	227.40
1022.22	226.00
1022.51	226.70
1022.79	228.90
1023.08	227.10
1023.36	227.80
1023.65	228.00
>>>>>End Processed Spectral Data<<<<<
