SpectraSuite Data File
++++++++++++++++++++++++++++++++++++
Date: Fri Feb 01 14:40:05 EST 2013
User: group
Dark Spectrum Present: No
Reference Spectrum Present: No
Number of Sampled Component Spectra: 1
Spectrometers: USB2E7196
Integration Time (usec): 70000 (USB2E7196)
Spectra Averaged: 10 (USB2E7196)
Boxcar Smoothing: 10 (USB2E7196)
Correct for Electrical Dark: No (USB2E7196)
Strobe/Lamp Enabled: No (USB2E7196)
Correct for Detector Non-linearity: No (USB2E7196)
Correct for Stray Light: No (USB2E7196)
Number of Pixels in Processed Spectrum: 2048
>>>>>Begin Processed Spectral Data<<<<<
339.09	0.00
339.48	217.00
339.86	217.70
340.24	220.70
340.63	220.90
341.01	224.60
341.39	222.50
341.78	223.50
342.16	225.80
342.54	225.60
342.93	214.19
343.31	225.07
343.69	225.52
344.07	225.94
344.46	226.23
344.84	226.59
345.22	226.72
345.60	226.89
345.99	227.09
346.37	227.18
346.75	227.19
347.13	227.20
347.52	227.25
347.90	227.34
348.28	227.25
348.66	227.29
349.05	227.25
349.43	227.39
349.81	227.40
350.19	227.50
350.57	227.51
350.96	227.48
351.34	227.53
351.72	227.57
352.10	227.69
352.48	227.73
352.87	227.75
353.25	227.88
353.63	228.06
354.01	228.18
354.39	228.20
354.77	228.36
355.15	228.56
355.54	228.67
355.92	228.64
356.30	228.77
356.68	229.00
357.06	229.14
357.44	229.09
357.82	229.20
358.20	229.27
358.58	229.43
358.97	229.48
359.35	229.66
359.73	229.92
360.11	230.00
360.49	230.12
360.87	230.19
361.25	230.19
361.63	230.33
362.01	230.35
362.39	230.42
362.77	230.51
363.15	230.44
363.53	230.46
363.91	230.57
364.29	230.71
364.67	230.61
365.05	230.59
365.43	230.75
365.81	230.74
366.19	230.85
366.57	230.88
366.95	230.96
367.33	230.78
367.71	230.65
368.09	230.64
368.47	230.63
368.85	230.62
369.23	230.60
369.61	230.51
369.99	230.46
370.37	230.38
370.75	230.45
371.13	230.41
371.51	230.36
371.89	230.28
372.27	230.20
372.65	230.13
373.03	230.10
373.41	229.95
373.78	229.83
374.16	229.54
374.54	229.50
374.92	229.38
375.30	229.22
375.68	229.14
376.06	229.03
376.44	228.91
376.82	228.86
377.19	228.81
377.57	228.58
377.95	228.44
378.33	228.50
378.71	228.25
379.09	228.18
379.47	228.09
379.84	227.98
380.22	227.85
380.60	227.66
380.98	227.56
381.36	227.52
381.73	227.54
382.11	227.63
382.49	227.57
382.87	227.54
383.25	227.60
383.62	227.79
384.00	227.75
384.38	227.68
384.76	227.60
385.13	227.55
385.51	227.63
385.89	227.64
386.27	227.47
386.64	227.38
387.02	227.22
387.40	227.12
387.78	227.14
388.15	227.16
388.53	227.13
388.91	227.19
389.29	227.12
389.66	227.10
390.04	227.00
390.42	227.00
390.79	226.98
391.17	226.91
391.55	226.60
391.92	226.61
392.30	226.65
392.68	226.60
393.05	226.65
393.43	226.60
393.81	226.53
394.18	226.47
394.56	226.54
394.94	226.68
395.31	226.69
395.69	226.70
396.06	226.65
396.44	226.77
396.82	226.82
397.19	226.97
397.57	226.99
397.95	227.08
398.32	227.09
398.70	227.12
399.07	227.34
399.45	227.38
399.82	227.49
400.20	227.55
400.58	227.67
400.95	227.68
401.33	227.77
401.70	228.03
402.08	228.26
402.45	228.39
402.83	228.57
403.20	228.73
403.58	228.82
403.95	229.00
404.33	229.22
404.71	229.35
405.08	229.49
405.46	229.58
405.83	229.74
406.21	229.91
406.58	230.10
406.96	230.25
407.33	230.53
407.70	230.58
408.08	230.96
408.45	231.24
408.83	231.60
409.20	231.85
409.58	232.02
409.95	232.29
410.33	232.57
410.70	232.75
411.08	233.13
411.45	233.44
411.82	233.67
412.20	233.95
412.57	234.42
412.95	234.71
413.32	235.20
413.69	235.58
414.07	235.94
414.44	236.47
414.82	236.78
415.19	237.27
415.56	237.80
415.94	238.21
416.31	238.74
416.68	239.24
417.06	239.93
417.43	240.60
417.81	241.31
418.18	242.05
418.55	242.87
418.93	243.60
419.30	244.43
419.67	245.40
420.04	246.24
420.42	247.07
420.79	248.30
421.16	249.29
421.54	250.57
421.91	251.77
422.28	252.93
422.66	254.30
423.03	255.68
423.40	257.04
423.77	258.40
424.15	259.79
424.52	261.15
424.89	262.77
425.26	264.24
425.64	265.69
426.01	267.17
426.38	268.80
426.75	270.57
427.13	272.29
427.50	274.05
427.87	275.95
428.24	277.70
428.61	279.37
428.99	281.37
429.36	283.39
429.73	285.43
430.10	287.34
430.47	289.38
430.85	291.49
431.22	293.72
431.59	296.11
431.96	298.37
432.33	300.87
432.70	303.28
433.08	305.96
433.45	308.58
433.82	311.10
434.19	313.97
434.56	316.79
434.93	319.45
435.30	322.11
435.68	324.86
436.05	327.79
436.42	330.58
436.79	333.27
437.16	335.85
437.53	338.76
437.90	341.80
438.27	344.58
438.64	347.45
439.01	350.16
439.38	352.40
439.75	354.76
440.13	357.41
440.50	359.71
440.87	361.75
441.24	363.84
441.61	366.27
441.98	367.94
442.35	369.70
442.72	371.80
443.09	373.72
443.46	375.01
443.83	375.81
444.20	376.35
444.57	377.16
444.94	377.62
445.31	378.12
445.68	378.72
446.05	378.94
446.42	378.50
446.79	378.14
447.16	377.91
447.53	377.61
447.90	376.50
448.27	375.51
448.64	374.11
449.01	373.01
449.37	371.10
449.74	369.18
450.11	367.17
450.48	364.65
450.85	362.23
451.22	360.10
451.59	358.10
451.96	356.30
452.33	353.70
452.70	351.43
453.07	348.67
453.43	345.54
453.80	342.72
454.17	340.13
454.54	337.57
454.91	334.76
455.28	332.09
455.65	329.61
456.02	327.39
456.38	325.23
456.75	322.80
457.12	320.60
457.49	318.50
457.86	316.33
458.23	314.52
458.59	312.44
458.96	310.36
459.33	308.45
459.70	306.61
460.07	305.21
460.43	303.47
460.80	301.71
461.17	300.36
461.54	298.77
461.91	297.27
462.27	295.76
462.64	294.54
463.01	293.10
463.38	291.79
463.74	290.04
464.11	288.70
464.48	287.44
464.85	286.09
465.21	284.99
465.58	283.85
465.95	282.70
466.32	281.76
466.68	280.66
467.05	279.68
467.42	278.58
467.78	277.49
468.15	276.44
468.52	275.64
468.88	274.67
469.25	273.81
469.62	273.10
469.98	272.34
470.35	271.50
470.72	270.81
471.08	269.89
471.45	269.30
471.82	268.75
472.18	268.04
472.55	267.54
472.92	266.93
473.28	266.28
473.65	265.51
474.02	264.79
474.38	264.28
474.75	263.70
475.11	263.18
475.48	262.61
475.85	262.15
476.21	261.65
476.58	261.18
476.94	260.82
477.31	260.50
477.67	260.11
478.04	259.72
478.41	259.34
478.77	259.33
479.14	258.90
479.50	258.48
479.87	258.12
480.23	257.92
480.60	257.65
480.96	257.54
481.33	257.49
481.69	257.33
482.06	257.13
482.42	256.95
482.79	256.86
483.15	256.78
483.52	256.61
483.88	256.54
484.25	256.48
484.61	256.47
484.98	256.40
485.34	256.43
485.71	256.50
486.07	256.50
486.44	256.31
486.80	256.43
487.17	256.49
487.53	256.68
487.90	256.77
488.26	256.85
488.62	256.94
488.99	256.94
489.35	257.15
489.72	257.46
490.08	257.66
490.44	257.86
490.81	258.16
491.17	258.51
491.54	258.86
491.90	259.17
492.26	259.48
492.63	259.70
492.99	259.98
493.36	260.40
493.72	261.01
494.08	261.52
494.45	262.04
494.81	262.58
495.17	263.08
495.54	263.78
495.90	264.48
496.26	265.20
496.63	266.04
496.99	266.84
497.35	267.67
497.72	268.68
498.08	269.57
498.44	270.49
498.80	271.49
499.17	272.54
499.53	273.62
499.89	274.87
500.26	276.21
500.62	277.55
500.98	279.04
501.34	280.40
501.71	282.00
502.07	283.60
502.43	285.24
502.79	286.83
503.16	288.42
503.52	290.21
503.88	292.06
504.24	294.00
504.60	296.03
504.97	298.06
505.33	300.15
505.69	302.52
506.05	304.93
506.41	307.56
506.78	310.10
507.14	312.80
507.50	315.46
507.86	318.35
508.22	321.36
508.59	324.30
508.95	327.53
509.31	330.82
509.67	334.18
510.03	337.75
510.39	341.51
510.75	345.16
511.12	349.05
511.48	353.08
511.84	357.10
512.20	361.18
512.56	365.57
512.92	370.17
513.28	374.59
513.64	379.35
514.00	384.12
514.37	389.06
514.73	394.12
515.09	399.35
515.45	404.57
515.81	409.84
516.17	415.44
516.53	421.12
516.89	426.95
517.25	432.99
517.61	438.91
517.97	445.00
518.33	451.55
518.69	457.76
519.05	464.17
519.41	470.84
519.77	477.87
520.13	484.80
520.49	491.55
520.85	498.78
521.21	506.06
521.57	513.43
521.93	520.75
522.29	528.27
522.65	535.79
523.01	543.61
523.37	551.39
523.73	559.49
524.09	567.40
524.45	575.42
524.81	583.52
525.17	592.10
525.53	600.77
525.89	609.21
526.25	618.00
526.61	626.64
526.97	635.50
527.33	644.23
527.68	653.44
528.04	662.72
528.40	671.92
528.76	681.36
529.12	690.67
529.48	700.37
529.84	709.93
530.20	719.86
530.56	729.56
530.91	739.99
531.27	749.75
531.63	759.68
531.99	769.54
532.35	779.37
532.71	789.18
533.07	799.54
533.42	809.81
533.78	820.05
534.14	830.18
534.50	840.48
534.86	850.99
535.21	861.07
535.57	871.67
535.93	882.15
536.29	892.55
536.65	902.87
537.00	913.13
537.36	923.58
537.72	933.71
538.08	944.04
538.44	953.96
538.79	964.26
539.15	974.26
539.51	984.94
539.87	995.40
540.22	1005.89
540.58	1016.45
540.94	1026.43
541.29	1036.33
541.65	1046.37
542.01	1056.46
542.37	1066.31
542.72	1076.18
543.08	1085.88
543.44	1095.89
543.79	1105.01
544.15	1114.79
544.51	1125.07
544.87	1134.75
545.22	1144.19
545.58	1153.47
545.94	1162.69
546.29	1171.85
546.65	1180.88
547.01	1189.31
547.36	1197.96
547.72	1206.37
548.07	1214.49
548.43	1222.93
548.79	1231.77
549.14	1240.35
549.50	1248.64
549.86	1256.28
550.21	1264.05
550.57	1272.14
550.92	1279.87
551.28	1287.55
551.64	1295.50
551.99	1302.71
552.35	1309.91
552.70	1317.75
553.06	1325.24
553.41	1332.76
553.77	1339.81
554.13	1347.24
554.48	1354.45
554.84	1361.52
555.19	1368.63
555.55	1375.46
555.90	1381.87
556.26	1388.08
556.61	1394.56
556.97	1400.49
557.32	1407.27
557.68	1414.00
558.03	1420.02
558.39	1425.98
558.74	1432.80
559.10	1438.90
559.45	1444.55
559.81	1450.86
560.16	1456.21
560.52	1461.50
560.87	1466.87
561.23	1472.01
561.58	1477.20
561.94	1482.29
562.29	1487.03
562.64	1491.66
563.00	1496.27
563.35	1501.91
563.71	1507.28
564.06	1512.43
564.42	1517.02
564.77	1521.51
565.12	1526.06
565.48	1530.31
565.83	1534.25
566.19	1537.99
566.54	1541.30
566.89	1545.03
567.25	1548.36
567.60	1552.15
567.96	1556.01
568.31	1559.28
568.66	1562.51
569.02	1565.89
569.37	1568.73
569.72	1571.80
570.08	1574.29
570.43	1576.80
570.78	1578.54
571.14	1580.14
571.49	1581.71
571.84	1584.45
572.20	1586.49
572.55	1587.57
572.90	1588.87
573.26	1590.45
573.61	1591.79
573.96	1593.17
574.31	1593.57
574.67	1593.60
575.02	1593.40
575.37	1593.59
575.72	1593.50
576.08	1593.84
576.43	1593.98
576.78	1594.04
577.13	1594.41
577.49	1594.84
577.84	1594.71
578.19	1594.63
578.54	1593.93
578.90	1592.90
579.25	1591.12
579.60	1589.59
579.95	1588.32
580.30	1586.99
580.66	1585.50
581.01	1583.70
581.36	1582.33
581.71	1581.43
582.06	1580.61
582.42	1579.26
582.77	1577.37
583.12	1575.70
583.47	1574.43
583.82	1572.59
584.17	1570.60
584.53	1568.52
584.88	1566.71
585.23	1564.79
585.58	1562.62
585.93	1560.75
586.28	1558.96
586.63	1557.65
586.98	1555.80
587.34	1554.16
587.69	1551.72
588.04	1549.69
588.39	1547.83
588.74	1544.75
589.09	1541.70
589.44	1538.43
589.79	1536.11
590.14	1533.91
590.49	1530.93
590.84	1527.49
591.19	1524.81
591.54	1521.37
591.89	1517.18
592.25	1513.52
592.60	1509.45
592.95	1505.71
593.30	1502.24
593.65	1498.75
594.00	1494.82
594.35	1491.57
594.70	1487.36
595.05	1484.43
595.40	1480.54
595.75	1476.15
596.10	1472.80
596.45	1469.43
596.80	1466.47
597.15	1462.88
597.50	1458.78
597.85	1455.90
598.19	1452.45
598.54	1448.47
598.89	1445.19
599.24	1442.56
599.59	1438.94
599.94	1435.63
600.29	1431.90
600.64	1427.70
600.99	1423.12
601.34	1419.16
601.69	1414.77
602.04	1411.22
602.39	1406.97
602.74	1403.27
603.08	1399.74
603.43	1395.87
603.78	1391.69
604.13	1387.35
604.48	1382.64
604.83	1378.74
605.18	1374.17
605.53	1369.46
605.87	1364.39
606.22	1359.98
606.57	1354.94
606.92	1350.26
607.27	1345.97
607.62	1341.86
607.96	1337.91
608.31	1334.11
608.66	1329.40
609.01	1324.49
609.36	1318.88
609.70	1313.28
610.05	1307.72
610.40	1302.18
610.75	1296.63
611.10	1291.08
611.44	1285.21
611.79	1280.34
612.14	1274.79
612.49	1268.93
612.83	1263.41
613.18	1258.37
613.53	1252.89
613.88	1247.20
614.22	1241.53
614.57	1235.38
614.92	1229.66
615.27	1224.13
615.61	1218.29
615.96	1212.50
616.31	1207.64
616.65	1203.14
617.00	1198.55
617.35	1193.60
617.70	1188.69
618.04	1183.05
618.39	1177.81
618.74	1173.13
619.08	1167.39
619.43	1162.14
619.78	1157.23
620.12	1151.93
620.47	1146.54
620.82	1140.98
621.16	1135.70
621.51	1130.70
621.85	1125.68
622.20	1120.23
622.55	1114.92
622.89	1109.92
623.24	1105.29
623.59	1099.85
623.93	1094.66
624.28	1089.32
624.62	1084.01
624.97	1078.90
625.32	1074.47
625.66	1069.87
626.01	1064.83
626.35	1059.73
626.70	1054.56
627.04	1049.44
627.39	1044.30
627.73	1039.07
628.08	1034.17
628.43	1029.29
628.77	1024.08
629.12	1018.76
629.46	1013.66
629.81	1008.10
630.15	1002.28
630.50	996.71
630.84	990.81
631.19	985.10
631.53	979.43
631.88	973.71
632.22	967.78
632.57	962.30
632.91	956.78
633.26	950.93
633.60	945.65
633.95	940.32
634.29	935.07
634.64	930.17
634.98	924.97
635.32	920.01
635.67	915.44
636.01	910.81
636.36	905.70
636.70	900.66
637.05	895.96
637.39	891.56
637.73	886.91
638.08	882.87
638.42	878.54
638.77	874.23
639.11	869.66
639.45	865.35
639.80	860.51
640.14	855.78
640.49	851.30
640.83	846.70
641.17	842.32
641.52	837.74
641.86	833.07
642.20	828.69
642.55	823.87
642.89	819.10
643.23	814.27
643.58	810.17
643.92	805.65
644.26	801.10
644.61	796.87
644.95	792.51
645.29	787.62
645.64	782.76
645.98	778.07
646.32	773.77
646.66	768.97
647.01	764.60
647.35	760.25
647.69	755.84
648.04	751.85
648.38	747.12
648.72	742.32
649.06	737.70
649.41	733.40
649.75	729.01
650.09	724.23
650.43	719.55
650.78	714.72
651.12	710.31
651.46	705.93
651.80	701.41
652.14	696.93
652.49	692.72
652.83	688.49
653.17	683.97
653.51	679.57
653.85	675.46
654.20	671.05
654.54	666.67
654.88	662.34
655.22	657.58
655.56	653.22
655.90	649.28
656.25	645.22
656.59	640.91
656.93	636.94
657.27	633.10
657.61	629.09
657.95	625.42
658.29	621.53
658.64	617.64
658.98	613.63
659.32	609.44
659.66	605.36
660.00	601.41
660.34	597.72
660.68	593.80
661.02	590.07
661.36	586.47
661.70	582.87
662.05	579.43
662.39	576.30
662.73	573.11
663.07	569.72
663.41	566.42
663.75	563.21
664.09	559.82
664.43	556.40
664.77	553.22
665.11	549.90
665.45	546.86
665.79	543.72
666.13	540.60
666.47	537.61
666.81	534.51
667.15	531.47
667.49	528.45
667.83	525.79
668.17	522.80
668.51	519.81
668.85	516.79
669.19	514.09
669.53	511.00
669.87	507.85
670.21	504.96
670.55	502.17
670.89	499.70
671.23	497.08
671.57	494.55
671.91	491.90
672.25	489.39
672.58	486.56
672.92	484.00
673.26	481.55
673.60	479.04
673.94	476.77
674.28	474.41
674.62	472.22
674.96	469.83
675.30	467.70
675.64	465.29
675.97	463.11
676.31	460.72
676.65	458.48
676.99	456.53
677.33	454.32
677.67	452.00
678.01	449.47
678.34	447.13
678.68	445.01
679.02	442.83
679.36	440.70
679.70	438.62
680.04	436.43
680.37	434.29
680.71	432.24
681.05	430.17
681.39	428.18
681.73	426.02
682.06	423.88
682.40	421.85
682.74	420.03
683.08	418.18
683.42	416.12
683.75	414.30
684.09	412.26
684.43	410.40
684.77	408.53
685.10	406.49
685.44	404.75
685.78	402.96
686.12	401.19
686.45	399.29
686.79	397.55
687.13	395.87
687.46	394.11
687.80	392.33
688.14	390.41
688.48	388.57
688.81	386.94
689.15	385.48
689.49	383.73
689.82	382.10
690.16	380.18
690.50	378.56
690.83	376.93
691.17	375.21
691.51	373.62
691.84	372.05
692.18	370.45
692.52	368.77
692.85	366.97
693.19	365.31
693.52	363.72
693.86	362.10
694.20	360.51
694.53	358.99
694.87	357.58
695.21	356.04
695.54	354.58
695.88	352.92
696.21	351.13
696.55	349.72
696.88	348.28
697.22	346.92
697.56	345.63
697.89	344.14
698.23	342.86
698.56	341.39
698.90	339.98
699.23	338.63
699.57	337.40
699.90	336.16
700.24	334.90
700.58	333.67
700.91	332.43
701.25	331.24
701.58	329.84
701.92	328.47
702.25	327.39
702.59	326.12
702.92	325.08
703.26	324.04
703.59	322.81
703.93	321.82
704.26	320.92
704.60	319.69
704.93	318.66
705.26	317.52
705.60	316.58
705.93	315.62
706.27	314.83
706.60	314.00
706.94	312.92
707.27	311.84
707.61	310.78
707.94	309.71
708.27	308.70
708.61	307.88
708.94	306.98
709.28	306.11
709.61	305.39
709.94	304.60
710.28	303.71
710.61	302.89
710.95	301.78
711.28	300.93
711.61	300.10
711.95	299.17
712.28	298.32
712.61	297.42
712.95	296.80
713.28	295.91
713.61	295.00
713.95	294.24
714.28	293.69
714.61	293.03
714.95	292.38
715.28	291.62
715.61	290.83
715.95	290.20
716.28	289.50
716.61	288.80
716.95	288.01
717.28	287.31
717.61	286.67
717.94	286.14
718.28	285.38
718.61	284.70
718.94	284.21
719.27	283.69
719.61	283.20
719.94	282.40
720.27	281.80
720.60	281.15
720.94	280.68
721.27	280.10
721.60	279.67
721.93	279.17
722.27	278.73
722.60	278.40
722.93	277.83
723.26	277.32
723.59	276.73
723.93	276.29
724.26	275.76
724.59	275.27
724.92	274.71
725.25	274.24
725.59	273.82
725.92	273.31
726.25	272.83
726.58	272.41
726.91	272.09
727.24	271.61
727.57	271.27
727.91	270.73
728.24	270.36
728.57	269.72
728.90	269.22
729.23	268.70
729.56	268.23
729.89	267.77
730.22	267.33
730.55	266.89
730.89	266.59
731.22	266.33
731.55	265.92
731.88	265.47
732.21	265.02
732.54	264.59
732.87	264.19
733.20	263.77
733.53	263.23
733.86	262.82
734.19	262.35
734.52	261.91
734.85	261.73
735.18	261.22
735.51	260.93
735.84	260.64
736.17	260.25
736.50	259.78
736.83	259.62
737.16	259.25
737.49	258.86
737.82	258.29
738.15	257.90
738.48	257.50
738.81	257.22
739.14	256.92
739.47	256.61
739.80	256.20
740.13	255.88
740.46	255.53
740.79	255.24
741.12	255.08
741.45	254.86
741.78	254.29
742.11	254.01
742.44	253.61
742.77	253.29
743.10	252.91
743.43	252.63
743.75	252.09
744.08	252.05
744.41	251.88
744.74	251.68
745.07	251.31
745.40	251.06
745.73	250.87
746.06	250.56
746.39	250.29
746.71	250.07
747.04	249.82
747.37	249.60
747.70	249.25
748.03	248.92
748.36	248.48
748.68	248.34
749.01	248.09
749.34	247.92
749.67	247.66
750.00	247.48
750.33	247.32
750.65	247.16
750.98	246.76
751.31	246.39
751.64	246.07
751.97	245.88
752.29	245.69
752.62	245.36
752.95	245.12
753.28	244.94
753.60	244.70
753.93	244.55
754.26	244.40
754.59	244.30
754.91	244.11
755.24	244.01
755.57	243.79
755.90	243.66
756.22	243.40
756.55	243.33
756.88	243.14
757.20	242.99
757.53	242.65
757.86	242.51
758.19	242.54
758.51	242.47
758.84	242.40
759.17	242.27
759.49	242.14
759.82	242.08
760.15	241.97
760.47	241.90
760.80	241.68
761.13	241.54
761.45	241.34
761.78	241.21
762.11	241.17
762.43	241.03
762.76	240.75
763.08	240.70
763.41	240.52
763.74	240.44
764.06	240.23
764.39	240.30
764.71	240.12
765.04	239.92
765.37	239.72
765.69	239.49
766.02	239.24
766.34	239.16
766.67	239.08
767.00	238.90
767.32	238.85
767.65	238.89
767.97	238.76
768.30	238.66
768.62	238.51
768.95	238.39
769.27	238.30
769.60	238.28
769.92	238.07
770.25	237.92
770.57	237.77
770.90	237.75
771.22	237.67
771.55	237.58
771.87	237.50
772.20	237.45
772.52	237.65
772.85	237.81
773.17	237.68
773.50	237.57
773.82	237.51
774.15	237.38
774.47	237.13
774.80	236.97
775.12	236.76
775.45	236.62
775.77	236.38
776.09	236.25
776.42	236.21
776.74	236.18
777.07	236.16
777.39	236.01
777.72	235.89
778.04	235.82
778.36	235.64
778.69	235.56
779.01	235.41
779.33	234.98
779.66	234.71
779.98	234.57
780.31	234.41
780.63	234.33
780.95	234.19
781.28	234.10
781.60	234.06
781.92	233.91
782.25	233.96
782.57	233.95
782.89	233.81
783.22	233.63
783.54	233.50
783.86	233.35
784.19	233.29
784.51	233.20
784.83	232.99
785.16	232.91
785.48	232.76
785.80	232.74
786.12	232.77
786.45	232.65
786.77	232.59
787.09	232.55
787.42	232.47
787.74	232.46
788.06	232.47
788.38	232.35
788.71	232.44
789.03	232.31
789.35	232.25
789.67	232.29
789.99	232.19
790.32	232.23
790.64	232.13
790.96	232.22
791.28	232.17
791.61	232.20
791.93	232.18
792.25	232.22
792.57	232.30
792.89	232.30
793.21	232.39
793.54	232.38
793.86	232.23
794.18	232.17
794.50	232.00
794.82	231.92
795.14	232.00
795.47	231.93
795.79	231.92
796.11	231.95
796.43	231.91
796.75	232.04
797.07	232.02
797.39	232.08
797.71	232.02
798.04	231.95
798.36	231.97
798.68	232.06
799.00	231.94
799.32	231.85
799.64	231.80
799.96	231.72
800.28	231.65
800.60	231.79
800.92	231.79
801.24	231.86
801.56	231.84
801.89	231.85
802.21	231.91
802.53	231.83
802.85	231.85
803.17	231.86
803.49	231.75
803.81	231.66
804.13	231.65
804.45	231.55
804.77	231.59
805.09	231.47
805.41	231.36
805.73	231.40
806.05	231.37
806.37	231.40
806.69	231.38
807.01	231.42
807.33	231.34
807.65	231.34
807.97	231.44
808.28	231.41
808.60	231.33
808.92	231.22
809.24	231.42
809.56	231.34
809.88	231.28
810.20	231.23
810.52	231.24
810.84	231.17
811.16	231.23
811.48	231.16
811.80	231.34
812.12	231.37
812.43	231.34
812.75	231.21
813.07	231.10
813.39	231.00
813.71	230.93
814.03	230.90
814.35	230.85
814.67	230.71
814.98	230.66
815.30	230.64
815.62	230.57
815.94	230.42
816.26	230.46
816.58	230.34
816.89	230.36
817.21	230.32
817.53	230.29
817.85	230.14
818.17	230.05
818.48	229.84
818.80	229.79
819.12	229.75
819.44	229.77
819.76	229.72
820.07	229.68
820.39	229.74
820.71	229.73
821.03	229.68
821.34	229.65
821.66	229.60
821.98	229.60
822.30	229.54
822.61	229.50
822.93	229.35
823.25	229.36
823.57	229.33
823.88	229.35
824.20	229.24
824.52	229.30
824.83	229.40
825.15	229.39
825.47	229.34
825.79	229.26
826.10	229.25
826.42	229.24
826.74	229.31
827.05	229.17
827.37	229.12
827.69	229.07
828.00	228.98
828.32	228.90
828.64	228.79
828.95	229.03
829.27	229.00
829.58	229.04
829.90	229.01
830.22	228.97
830.53	228.96
830.85	229.03
831.17	228.90
831.48	228.80
831.80	228.82
832.11	228.74
832.43	228.79
832.75	228.82
833.06	229.02
833.38	228.89
833.69	228.90
834.01	228.87
834.32	228.81
834.64	228.81
834.96	228.88
835.27	229.01
835.59	228.95
835.90	228.91
836.22	228.90
836.53	228.99
836.85	229.04
837.16	229.28
837.48	229.31
837.79	229.46
838.11	229.50
838.42	229.54
838.74	229.63
839.05	229.57
839.37	229.58
839.68	229.37
840.00	229.46
840.31	229.43
840.63	229.44
840.94	229.55
841.26	229.66
841.57	229.72
841.88	229.67
842.20	229.60
842.51	229.54
842.83	229.66
843.14	229.80
843.46	229.75
843.77	229.59
844.08	229.50
844.40	229.40
844.71	229.36
845.03	229.20
845.34	229.31
845.65	229.35
845.97	229.30
846.28	229.30
846.60	229.28
846.91	229.35
847.22	229.40
847.54	229.36
847.85	229.23
848.16	229.25
848.48	229.24
848.79	229.27
849.10	229.47
849.42	229.35
849.73	229.23
850.04	229.23
850.36	229.14
850.67	229.29
850.98	229.31
851.30	229.33
851.61	229.38
851.92	229.34
852.23	229.36
852.55	229.32
852.86	229.27
853.17	229.29
853.49	229.29
853.80	229.32
854.11	229.36
854.42	229.45
854.74	229.36
855.05	229.33
855.36	229.28
855.67	229.13
855.99	229.09
856.30	229.25
856.61	229.24
856.92	229.16
857.23	229.01
857.55	228.99
857.86	228.94
858.17	228.97
858.48	228.75
858.79	228.76
859.11	228.85
859.42	228.88
859.73	228.74
860.04	228.71
860.35	228.56
860.66	228.45
860.98	228.38
861.29	228.38
861.60	228.30
861.91	228.26
862.22	228.14
862.53	228.08
862.84	227.80
863.16	227.87
863.47	227.82
863.78	227.87
864.09	227.90
864.40	227.87
864.71	227.77
865.02	227.92
865.33	227.88
865.64	227.78
865.95	227.83
866.27	228.07
866.58	228.05
866.89	228.16
867.20	228.23
867.51	228.12
867.82	228.08
868.13	228.18
868.44	228.22
868.75	228.40
869.06	228.43
869.37	228.45
869.68	228.45
869.99	228.51
870.30	228.40
870.61	228.47
870.92	228.50
871.23	228.66
871.54	228.65
871.85	228.67
872.16	228.70
872.47	228.63
872.78	228.46
873.09	228.48
873.40	228.50
873.71	228.44
874.02	228.55
874.33	228.59
874.64	228.49
874.95	228.63
875.26	228.52
875.56	228.58
875.87	228.54
876.18	228.44
876.49	228.64
876.80	228.64
877.11	228.61
877.42	228.65
877.73	228.52
878.04	228.47
878.35	228.47
878.66	228.51
878.96	228.50
879.27	228.55
879.58	228.59
879.89	228.48
880.20	228.55
880.51	228.60
880.82	228.60
881.12	228.66
881.43	228.53
881.74	228.58
882.05	228.55
882.36	228.65
882.67	228.77
882.97	228.59
883.28	228.67
883.59	228.63
883.90	228.67
884.21	228.83
884.51	228.83
884.82	228.85
885.13	228.84
885.44	228.84
885.74	228.86
886.05	228.81
886.36	228.92
886.67	228.98
886.98	229.03
887.28	229.07
887.59	229.13
887.90	229.16
888.20	229.12
888.51	229.21
888.82	229.16
889.13	229.08
889.43	229.20
889.74	229.19
890.05	229.12
890.35	229.08
890.66	228.97
890.97	228.91
891.28	228.87
891.58	228.90
891.89	228.89
892.20	228.84
892.50	228.78
892.81	228.82
893.12	228.66
893.42	228.60
893.73	228.58
894.04	228.46
894.34	228.53
894.65	228.63
894.95	228.58
895.26	228.63
895.57	228.71
895.87	228.59
896.18	228.59
896.48	228.67
896.79	228.63
897.10	228.65
897.40	228.64
897.71	228.65
898.01	228.59
898.32	228.65
898.63	228.66
898.93	228.63
899.24	228.49
899.54	228.50
899.85	228.48
900.15	228.42
900.46	228.38
900.76	228.25
901.07	228.18
901.38	228.17
901.68	228.06
901.99	227.91
902.29	227.82
902.60	227.92
902.90	227.88
903.21	227.84
903.51	227.91
903.82	228.01
904.12	227.91
904.43	227.90
904.73	227.84
905.03	227.75
905.34	228.07
905.64	228.10
905.95	228.18
906.25	228.16
906.56	228.18
906.86	228.26
907.17	228.15
907.47	228.17
907.77	228.14
908.08	228.20
908.38	228.28
908.69	228.44
908.99	228.41
909.30	228.34
909.60	228.40
909.90	228.31
910.21	228.21
910.51	228.28
910.81	228.27
911.12	228.37
911.42	228.40
911.73	228.19
912.03	228.13
912.33	228.10
912.64	228.07
912.94	228.07
913.24	228.07
913.55	228.17
913.85	228.20
914.15	228.30
914.46	228.28
914.76	228.22
915.06	228.00
915.37	227.94
915.67	227.98
915.97	228.01
916.27	227.97
916.58	228.02
916.88	227.99
917.18	227.98
917.49	228.08
917.79	228.09
918.09	228.12
918.39	228.20
918.70	228.25
919.00	228.25
919.30	228.27
919.60	228.30
919.91	228.32
920.21	228.26
920.51	228.20
920.81	228.19
921.12	228.29
921.42	228.34
921.72	228.30
922.02	228.27
922.32	228.30
922.63	228.35
922.93	228.48
923.23	228.57
923.53	228.50
923.83	228.33
924.13	228.35
924.44	228.34
924.74	228.35
925.04	228.34
925.34	228.36
925.64	228.38
925.94	228.37
926.24	228.44
926.55	228.44
926.85	228.44
927.15	228.52
927.45	228.49
927.75	228.60
928.05	228.61
928.35	228.72
928.65	228.68
928.95	228.67
929.26	228.55
929.56	228.50
929.86	228.68
930.16	228.62
930.46	228.52
930.76	228.51
931.06	228.49
931.36	228.40
931.66	228.44
931.96	228.34
932.26	228.29
932.56	228.20
932.86	228.19
933.16	228.18
933.46	228.17
933.76	228.04
934.06	228.05
934.36	228.13
934.66	228.13
934.96	228.09
935.26	228.13
935.56	228.18
935.86	228.16
936.16	228.02
936.46	228.15
936.76	228.27
937.06	228.10
937.36	228.11
937.66	228.11
937.96	228.03
938.26	228.13
938.56	228.13
938.86	228.14
939.16	228.22
939.46	228.24
939.76	228.23
940.06	228.38
940.35	228.30
940.65	228.24
940.95	228.24
941.25	228.20
941.55	228.18
941.85	228.13
942.15	228.20
942.45	228.28
942.75	228.22
943.04	228.16
943.34	228.35
943.64	228.34
943.94	228.38
944.24	228.45
944.54	228.44
944.84	228.42
945.13	228.41
945.43	228.38
945.73	228.29
946.03	228.33
946.33	228.28
946.62	228.30
946.92	228.32
947.22	228.29
947.52	228.28
947.82	228.22
948.11	228.20
948.41	228.11
948.71	228.12
949.01	228.11
949.31	228.23
949.60	228.25
949.90	228.29
950.20	228.30
950.50	228.30
950.79	228.25
951.09	228.28
951.39	228.31
951.69	228.26
951.98	228.35
952.28	228.26
952.58	228.27
952.87	228.17
953.17	228.21
953.47	228.22
953.76	228.30
954.06	228.31
954.36	228.31
954.66	228.39
954.95	228.40
955.25	228.49
955.55	228.40
955.84	228.29
956.14	228.20
956.44	228.20
956.73	228.09
957.03	228.11
957.32	228.09
957.62	228.04
957.92	228.10
958.21	228.01
958.51	228.20
958.81	228.17
959.10	228.25
959.40	228.26
959.69	228.23
959.99	228.28
960.29	228.36
960.58	228.32
960.88	228.36
961.17	228.29
961.47	228.14
961.76	228.14
962.06	228.12
962.36	228.27
962.65	228.28
962.95	228.44
963.24	228.40
963.54	228.54
963.83	228.55
964.13	228.64
964.42	228.62
964.72	228.47
965.01	228.53
965.31	228.56
965.60	228.48
965.90	228.48
966.19	228.36
966.49	228.30
966.78	228.38
967.08	228.37
967.37	228.44
967.67	228.49
967.96	228.51
968.26	228.70
968.55	228.59
968.85	228.55
969.14	228.46
969.43	228.55
969.73	228.39
970.02	228.41
970.32	228.40
970.61	228.50
970.91	228.40
971.20	228.33
971.49	228.26
971.79	228.29
972.08	228.35
972.38	228.50
972.67	228.49
972.96	228.49
973.26	228.33
973.55	228.36
973.85	228.44
974.14	228.38
974.43	228.23
974.73	228.24
975.02	228.30
975.31	228.32
975.61	228.34
975.90	228.29
976.19	228.27
976.49	228.26
976.78	228.34
977.07	228.34
977.37	228.31
977.66	228.35
977.95	228.35
978.24	228.31
978.54	228.13
978.83	228.07
979.12	227.92
979.42	228.08
979.71	227.97
980.00	227.92
980.29	228.03
980.59	227.91
980.88	227.97
981.17	227.98
981.46	227.94
981.76	227.89
982.05	228.09
982.34	228.06
982.63	227.94
982.93	227.80
983.22	227.92
983.51	228.00
983.80	228.00
984.09	227.98
984.39	227.97
984.68	228.00
984.97	228.01
985.26	228.04
985.55	228.02
985.85	228.00
986.14	227.96
986.43	228.01
986.72	228.21
987.01	228.16
987.30	228.10
987.59	228.12
987.89	228.10
988.18	227.96
988.47	228.04
988.76	227.97
989.05	227.99
989.34	227.89
989.63	228.02
989.92	228.07
990.22	228.05
990.51	228.08
990.80	228.11
991.09	228.26
991.38	228.37
991.67	228.28
991.96	228.37
992.25	228.42
992.54	228.30
992.83	228.21
993.12	228.18
993.41	228.21
993.70	228.27
993.99	228.35
994.28	228.39
994.58	228.39
994.87	228.46
995.16	228.42
995.45	228.53
995.74	228.37
996.03	228.34
996.32	228.43
996.61	228.42
996.90	228.46
997.19	228.37
997.48	228.30
997.77	228.38
998.06	228.39
998.34	228.40
998.63	228.46
998.92	228.54
999.21	228.59
999.50	228.59
999.79	228.55
1000.08	228.49
1000.37	228.59
1000.66	228.50
1000.95	228.60
1001.24	228.66
1001.53	228.65
1001.82	228.66
1002.11	228.73
1002.40	228.76
1002.68	228.90
1002.97	229.08
1003.26	229.17
1003.55	229.16
1003.84	229.16
1004.13	229.17
1004.42	229.17
1004.71	229.11
1004.99	229.07
1005.28	229.08
1005.57	229.10
1005.86	229.12
1006.15	229.08
1006.44	229.08
1006.72	229.10
1007.01	228.98
1007.30	228.95
1007.59	228.92
1007.88	228.92
1008.17	229.02
1008.45	228.90
1008.74	228.75
1009.03	228.54
1009.32	228.44
1009.60	228.55
1009.89	228.50
1010.18	228.52
1010.47	228.56
1010.76	228.68
1011.04	228.68
1011.33	228.68
1011.62	228.70
1011.91	228.70
1012.19	228.80
1012.48	228.72
1012.77	228.69
1013.05	228.87
1013.34	228.87
1013.63	228.84
1013.92	228.82
1014.20	228.61
1014.49	228.57
1014.78	228.50
1015.06	228.40
1015.35	228.38
1015.64	228.50
1015.92	228.54
1016.21	228.46
1016.50	228.47
1016.78	228.42
1017.07	228.40
1017.36	228.43
1017.64	228.51
1017.93	228.53
1018.22	228.45
1018.50	228.50
1018.79	228.50
1019.08	228.40
1019.36	228.41
1019.65	228.37
1019.93	228.46
1020.22	228.50
1020.51	228.61
1020.79	228.63
1021.08	227.70
1021.36	229.20
1021.65	227.60
1021.94	229.30
1022.22	228.50
1022.51	226.80
1022.79	229.20
1023.08	227.70
1023.36	229.80
1023.65	227.20
>>>>>End Processed Spectral Data<<<<<
