SpectraSuite Data File
++++++++++++++++++++++++++++++++++++
Date: Fri Feb 01 14:35:22 EST 2013
User: group
Dark Spectrum Present: No
Reference Spectrum Present: No
Number of Sampled Component Spectra: 1
Spectrometers: USB2E7196
Integration Time (usec): 70000 (USB2E7196)
Spectra Averaged: 10 (USB2E7196)
Boxcar Smoothing: 10 (USB2E7196)
Correct for Electrical Dark: No (USB2E7196)
Strobe/Lamp Enabled: No (USB2E7196)
Correct for Detector Non-linearity: No (USB2E7196)
Correct for Stray Light: No (USB2E7196)
Number of Pixels in Processed Spectrum: 2048
>>>>>Begin Processed Spectral Data<<<<<
339.09	0.00
339.48	214.50
339.86	217.40
340.24	219.30
340.63	219.60
341.01	224.30
341.39	223.90
341.78	223.90
342.16	226.50
342.54	225.80
342.93	214.41
343.31	225.21
343.69	225.82
344.07	226.24
344.46	226.75
344.84	227.18
345.22	227.38
345.60	227.59
345.99	227.76
346.37	227.82
346.75	227.90
347.13	228.00
347.52	228.11
347.90	228.24
348.28	228.32
348.66	228.39
349.05	228.32
349.43	228.40
349.81	228.39
350.19	228.37
350.57	228.49
350.96	228.54
351.34	228.69
351.72	228.74
352.10	228.87
352.48	228.88
352.87	228.88
353.25	228.93
353.63	229.01
354.01	229.12
354.39	229.22
354.77	229.29
355.15	229.29
355.54	229.20
355.92	229.20
356.30	229.12
356.68	229.31
357.06	229.44
357.44	229.40
357.82	229.53
358.20	229.60
358.58	229.57
358.97	229.66
359.35	229.73
359.73	229.87
360.11	229.94
360.49	229.90
360.87	230.00
361.25	230.01
361.63	229.96
362.01	229.98
362.39	230.00
362.77	230.11
363.15	230.13
363.53	230.11
363.91	230.13
364.29	230.13
364.67	229.82
365.05	229.81
365.43	229.82
365.81	229.80
366.19	229.91
366.57	230.05
366.95	230.10
367.33	229.97
367.71	229.83
368.09	229.89
368.47	229.87
368.85	229.81
369.23	229.84
369.61	229.93
369.99	229.90
370.37	229.86
370.75	229.88
371.13	229.80
371.51	229.80
371.89	229.80
372.27	229.86
372.65	229.95
373.03	229.85
373.41	229.78
373.78	229.72
374.16	229.51
374.54	229.39
374.92	229.31
375.30	229.20
375.68	229.20
376.06	229.07
376.44	228.97
376.82	228.93
377.19	228.84
377.57	228.77
377.95	228.70
378.33	228.63
378.71	228.43
379.09	228.43
379.47	228.46
379.84	228.36
380.22	228.23
380.60	228.02
380.98	228.06
381.36	228.00
381.73	227.94
382.11	227.95
382.49	227.83
382.87	227.74
383.25	227.70
383.62	227.83
384.00	227.69
384.38	227.72
384.76	227.63
385.13	227.69
385.51	227.58
385.89	227.55
386.27	227.50
386.64	227.59
387.02	227.59
387.40	227.56
387.78	227.39
388.15	227.35
388.53	227.46
388.91	227.24
389.29	227.22
389.66	227.15
390.04	227.10
390.42	227.21
390.79	227.17
391.17	227.29
391.55	227.11
391.92	227.11
392.30	227.06
392.68	227.06
393.05	227.01
393.43	227.06
393.81	227.02
394.18	227.10
394.56	226.94
394.94	226.94
395.31	226.86
395.69	227.16
396.06	227.27
396.44	227.16
396.82	227.32
397.19	227.44
397.57	227.56
397.95	227.70
398.32	227.82
398.70	228.00
399.07	228.13
399.45	228.12
399.82	228.20
400.20	228.35
400.58	228.41
400.95	228.50
401.33	228.53
401.70	228.80
402.08	228.82
402.45	229.13
402.83	229.33
403.20	229.60
403.58	229.75
403.95	229.95
404.33	230.35
404.71	230.62
405.08	231.03
405.46	231.27
405.83	231.67
406.21	231.80
406.58	232.06
406.96	232.40
407.33	232.89
407.70	233.38
408.08	233.90
408.45	234.44
408.83	234.94
409.20	235.50
409.58	235.90
409.95	236.60
410.33	237.17
410.70	237.80
411.08	238.52
411.45	239.17
411.82	239.95
412.20	240.83
412.57	241.73
412.95	242.43
413.32	243.44
413.69	244.36
414.07	245.39
414.44	246.50
414.82	247.66
415.19	249.01
415.56	250.42
415.94	251.91
416.31	253.58
416.68	255.17
417.06	257.00
417.43	258.85
417.81	260.94
418.18	263.00
418.55	265.20
418.93	267.45
419.30	269.95
419.67	272.44
420.04	274.94
420.42	277.81
420.79	281.07
421.16	284.27
421.54	287.51
421.91	291.00
422.28	294.58
422.66	298.35
423.03	301.98
423.40	305.71
423.77	309.80
424.15	313.90
424.52	318.05
424.89	322.74
425.26	327.27
425.64	331.32
426.01	336.06
426.38	341.09
426.75	346.09
427.13	351.23
427.50	356.75
427.87	362.42
428.24	367.86
428.61	373.14
428.99	378.87
429.36	385.40
429.73	391.69
430.10	397.88
430.47	404.14
430.85	410.75
431.22	417.63
431.59	424.91
431.96	431.93
432.33	439.73
432.70	447.30
433.08	456.06
433.45	464.39
433.82	472.56
434.19	481.49
434.56	490.51
434.93	499.02
435.30	507.44
435.68	516.84
436.05	526.02
436.42	535.24
436.79	543.75
437.16	552.58
437.53	561.82
437.90	571.12
438.27	580.30
438.64	589.99
439.01	599.06
439.38	606.87
439.75	614.60
440.13	623.52
440.50	631.79
440.87	638.81
441.24	646.09
441.61	654.10
441.98	660.13
442.35	667.10
442.72	674.18
443.09	681.02
443.46	685.51
443.83	688.43
444.20	691.30
444.57	695.32
444.94	697.72
445.31	700.19
445.68	702.47
446.05	704.15
446.42	704.41
446.79	704.18
447.16	704.20
447.53	704.29
447.90	701.66
448.27	699.17
448.64	694.96
449.01	692.64
449.37	687.31
449.74	682.26
450.11	675.71
450.48	668.68
450.85	661.54
451.22	655.53
451.59	650.23
451.96	644.75
452.33	636.98
452.70	630.05
453.07	621.64
453.43	613.33
453.80	605.08
454.17	596.98
454.54	589.39
454.91	581.09
455.28	573.02
455.65	565.72
456.02	558.07
456.38	551.70
456.75	543.28
457.12	536.53
457.49	529.54
457.86	523.21
458.23	517.63
458.59	511.34
458.96	504.83
459.33	499.17
459.70	493.33
460.07	488.73
460.43	483.30
460.80	478.33
461.17	473.86
461.54	469.17
461.91	464.60
462.27	460.10
462.64	456.06
463.01	451.91
463.38	447.60
463.74	443.54
464.11	439.91
464.48	436.76
464.85	433.10
465.21	430.46
465.58	427.38
465.95	423.82
466.32	420.90
466.68	417.88
467.05	414.88
467.42	412.16
467.78	409.25
468.15	406.33
468.52	404.20
468.88	401.38
469.25	398.87
469.62	396.79
469.98	394.61
470.35	392.75
470.72	390.85
471.08	388.73
471.45	386.84
471.82	384.97
472.18	382.91
472.55	381.57
472.92	379.96
473.28	378.34
473.65	376.82
474.02	375.33
474.38	374.28
474.75	373.12
475.11	371.88
475.48	370.81
475.85	370.11
476.21	369.36
476.58	368.68
476.94	368.07
477.31	367.34
477.67	366.66
478.04	365.97
478.41	365.38
478.77	365.25
479.14	364.80
479.50	364.46
479.87	364.32
480.23	364.08
480.60	363.77
480.96	363.58
481.33	363.65
481.69	363.80
482.06	363.62
482.42	363.58
482.79	363.62
483.15	364.01
483.52	364.23
483.88	364.42
484.25	364.70
484.61	365.09
484.98	365.55
485.34	366.06
485.71	366.72
486.07	367.40
486.44	367.89
486.80	368.80
487.17	369.60
487.53	370.60
487.90	371.70
488.26	372.99
488.62	374.41
488.99	375.44
489.35	376.61
489.72	377.97
490.08	379.56
490.44	381.12
490.81	382.60
491.17	384.25
491.54	386.06
491.90	387.68
492.26	389.71
492.63	391.58
492.99	393.66
493.36	395.58
493.72	397.73
494.08	400.07
494.45	402.25
494.81	404.62
495.17	407.08
495.54	409.47
495.90	411.93
496.26	414.40
496.63	417.18
496.99	420.04
497.35	422.74
497.72	425.49
498.08	428.39
498.44	431.12
498.80	434.13
499.17	436.74
499.53	439.79
499.89	442.59
500.26	445.38
500.62	448.18
500.98	451.24
501.34	454.07
501.71	457.18
502.07	460.27
502.43	463.30
502.79	466.04
503.16	468.98
503.52	471.83
503.88	474.43
504.24	477.20
504.60	479.92
504.97	482.93
505.33	485.76
505.69	488.70
506.05	491.63
506.41	494.32
506.78	497.20
507.14	499.80
507.50	502.46
507.86	505.31
508.22	508.13
508.59	510.74
508.95	513.20
509.31	515.59
509.67	517.99
510.03	520.31
510.39	522.81
510.75	525.11
511.12	527.24
511.48	529.70
511.84	531.90
512.20	534.06
512.56	536.30
512.92	538.39
513.28	540.25
513.64	541.86
514.00	543.52
514.37	545.23
514.73	546.90
515.09	548.51
515.45	550.14
515.81	551.73
516.17	553.33
516.53	554.86
516.89	556.13
517.25	557.32
517.61	558.72
517.97	559.90
518.33	561.01
518.69	562.44
519.05	563.55
519.41	564.73
519.77	566.01
520.13	566.83
520.49	567.92
520.85	568.96
521.21	570.24
521.57	571.55
521.93	572.31
522.29	573.62
522.65	574.39
523.01	575.27
523.37	575.81
523.73	576.46
524.09	577.43
524.45	578.60
524.81	579.81
525.17	580.99
525.53	582.02
525.89	583.16
526.25	584.13
526.61	585.26
526.97	586.40
527.33	587.37
527.68	588.51
528.04	589.70
528.40	590.75
528.76	592.12
529.12	593.42
529.48	594.91
529.84	596.06
530.20	597.86
530.56	599.51
530.91	601.48
531.27	603.38
531.63	605.07
531.99	606.69
532.35	608.23
532.71	610.00
533.07	611.90
533.42	613.99
533.78	615.87
534.14	617.77
534.50	619.66
534.86	621.58
535.21	623.70
535.57	625.93
535.93	628.19
536.29	630.30
536.65	632.58
537.00	635.06
537.36	637.42
537.72	639.66
538.08	642.05
538.44	644.27
538.79	646.66
539.15	649.00
539.51	651.55
539.87	654.34
540.22	657.06
540.58	660.07
540.94	662.51
541.29	665.20
541.65	667.95
542.01	671.10
542.37	674.16
542.72	676.93
543.08	679.70
543.44	682.73
543.79	685.65
544.15	688.74
544.51	691.90
544.87	695.10
545.22	698.22
545.58	701.24
545.94	704.17
546.29	707.45
546.65	710.84
547.01	713.76
547.36	717.04
547.72	719.95
548.07	722.78
548.43	726.08
548.79	729.30
549.14	732.38
549.50	735.17
549.86	738.33
550.21	741.60
550.57	744.81
550.92	748.08
551.28	751.20
551.64	754.15
551.99	757.33
552.35	760.40
552.70	763.64
553.06	766.94
553.41	770.62
553.77	773.71
554.13	776.96
554.48	780.59
554.84	783.79
555.19	787.14
555.55	790.78
555.90	793.88
556.26	797.27
556.61	800.80
556.97	804.33
557.32	807.66
557.68	811.03
558.03	814.13
558.39	817.22
558.74	820.68
559.10	824.14
559.45	827.28
559.81	830.98
560.16	834.20
560.52	837.58
560.87	840.87
561.23	844.00
561.58	847.36
561.94	850.38
562.29	853.20
562.64	855.94
563.00	858.66
563.35	862.11
563.71	865.31
564.06	868.16
564.42	871.05
564.77	873.94
565.12	876.88
565.48	879.91
565.83	882.74
566.19	885.58
566.54	888.00
566.89	890.79
567.25	893.09
567.60	895.88
567.96	898.42
568.31	900.77
568.66	903.21
569.02	905.50
569.37	907.67
569.72	910.10
570.08	912.48
570.43	914.43
570.78	916.21
571.14	917.71
571.49	919.80
571.84	921.99
572.20	923.63
572.55	925.25
572.90	926.73
573.26	928.40
573.61	929.66
573.96	931.02
574.31	931.92
574.67	932.73
575.02	933.07
575.37	933.96
575.72	934.47
576.08	935.30
576.43	935.81
576.78	936.65
577.13	937.37
577.49	938.16
577.84	938.73
578.19	939.27
578.54	939.75
578.90	940.06
579.25	939.75
579.60	940.19
579.95	940.26
580.30	940.62
580.66	940.43
581.01	940.50
581.36	940.17
581.71	940.30
582.06	940.42
582.42	940.49
582.77	939.90
583.12	939.58
583.47	939.41
583.82	939.20
584.17	938.46
584.53	937.91
584.88	937.33
585.23	937.04
585.58	936.32
585.93	935.81
586.28	935.33
586.63	935.02
586.98	934.09
587.34	933.59
587.69	932.67
588.04	932.25
588.39	931.60
588.74	930.87
589.09	929.76
589.44	928.66
589.79	928.04
590.14	927.33
590.49	926.51
590.84	925.23
591.19	924.19
591.54	922.95
591.89	921.09
592.25	920.16
592.60	918.42
592.95	916.72
593.30	915.16
593.65	913.40
594.00	911.74
594.35	910.73
594.70	908.67
595.05	907.10
595.40	904.91
595.75	902.79
596.10	901.63
596.45	900.38
596.80	898.96
597.15	897.20
597.50	895.17
597.85	893.62
598.19	892.23
598.54	890.48
598.89	889.01
599.24	888.14
599.59	885.91
599.94	884.36
600.29	882.77
600.64	880.90
600.99	878.81
601.34	876.81
601.69	874.33
602.04	872.63
602.39	870.85
602.74	869.26
603.08	867.60
603.43	865.34
603.78	863.20
604.13	861.29
604.48	859.04
604.83	857.14
605.18	855.20
605.53	852.66
605.87	850.11
606.22	848.12
606.57	845.42
606.92	843.29
607.27	841.30
607.62	839.51
607.96	837.52
608.31	835.59
608.66	833.20
609.01	830.80
609.36	828.50
609.70	825.40
610.05	822.79
610.40	820.28
610.75	817.33
611.10	814.41
611.44	811.14
611.79	808.60
612.14	805.81
612.49	802.61
612.83	799.88
613.18	797.15
613.53	793.99
613.88	790.98
614.22	787.71
614.57	784.41
614.92	780.97
615.27	777.76
615.61	774.61
615.96	771.85
616.31	769.00
616.65	766.11
617.00	763.59
617.35	760.57
617.70	757.46
618.04	754.81
618.39	752.10
618.74	749.50
619.08	746.35
619.43	743.55
619.78	740.75
620.12	737.74
620.47	734.81
620.82	731.84
621.16	729.28
621.51	726.89
621.85	724.17
622.20	721.53
622.55	719.05
622.89	716.31
623.24	713.58
623.59	710.97
623.93	708.31
624.28	705.46
624.62	702.91
624.97	700.38
625.32	697.68
625.66	695.13
626.01	692.35
626.35	689.70
626.70	686.89
627.04	684.43
627.39	681.72
627.73	679.27
628.08	676.70
628.43	673.93
628.77	670.99
629.12	668.13
629.46	665.25
629.81	662.28
630.15	659.42
630.50	656.56
630.84	653.41
631.19	650.23
631.53	647.49
631.88	644.27
632.22	641.01
632.57	638.40
632.91	635.35
633.26	632.37
633.60	629.37
633.95	626.73
634.29	623.91
634.64	621.44
634.98	618.65
635.32	616.25
635.67	613.65
636.01	611.22
636.36	608.57
636.70	606.21
637.05	603.67
637.39	601.25
637.73	598.56
638.08	596.47
638.42	594.15
638.77	591.80
639.11	589.58
639.45	587.39
639.80	584.73
640.14	582.41
640.49	580.26
640.83	578.03
641.17	575.70
641.52	573.13
641.86	570.59
642.20	568.13
642.55	565.38
642.89	562.98
643.23	560.55
643.58	558.38
643.92	555.81
644.26	553.51
644.61	551.25
644.95	548.95
645.29	546.21
645.64	543.80
645.98	541.13
646.32	538.86
646.66	536.43
647.01	534.05
647.35	531.78
647.69	529.27
648.04	527.08
648.38	524.39
648.72	521.86
649.06	519.35
649.41	517.11
649.75	514.64
650.09	512.26
650.43	509.67
650.78	506.98
651.12	504.51
651.46	502.19
651.80	499.76
652.14	497.68
652.49	495.39
652.83	493.12
653.17	490.92
653.51	488.48
653.85	486.28
654.20	484.06
654.54	481.60
654.88	479.31
655.22	476.84
655.56	474.75
655.90	472.74
656.25	470.56
656.59	468.33
656.93	466.28
657.27	464.20
657.61	462.09
657.95	460.41
658.29	458.32
658.64	456.15
658.98	453.95
659.32	451.67
659.66	449.73
660.00	447.75
660.34	445.76
660.68	443.82
661.02	441.71
661.36	439.76
661.70	437.80
662.05	436.00
662.39	434.15
662.73	432.26
663.07	430.37
663.41	428.59
663.75	426.58
664.09	424.81
664.43	422.80
664.77	421.00
665.11	419.01
665.45	417.39
665.79	415.52
666.13	413.80
666.47	412.06
666.81	410.23
667.15	408.33
667.49	406.57
667.83	404.89
668.17	403.18
668.51	401.44
668.85	399.69
669.19	398.28
669.53	396.68
669.87	395.02
670.21	393.59
670.55	392.11
670.89	390.85
671.23	389.56
671.57	388.18
671.91	386.82
672.25	385.29
672.58	383.77
672.92	382.44
673.26	381.10
673.60	379.71
673.94	378.46
674.28	377.34
674.62	375.99
674.96	374.72
675.30	373.66
675.64	372.44
675.97	371.33
676.31	369.96
676.65	368.76
676.99	367.56
677.33	366.10
677.67	364.77
678.01	363.33
678.34	361.81
678.68	360.62
679.02	359.31
679.36	358.10
679.70	357.03
680.04	355.75
680.37	354.56
680.71	353.43
681.05	352.27
681.39	350.98
681.73	349.87
682.06	348.71
682.40	347.44
682.74	346.32
683.08	345.23
683.42	344.06
683.75	342.91
684.09	341.62
684.43	340.56
684.77	339.39
685.10	338.31
685.44	337.27
685.78	336.27
686.12	335.23
686.45	334.30
686.79	333.22
687.13	332.23
687.46	331.24
687.80	330.20
688.14	329.19
688.48	328.19
688.81	327.33
689.15	326.52
689.49	325.60
689.82	324.63
690.16	323.59
690.50	322.70
690.83	321.84
691.17	320.94
691.51	320.16
691.84	319.42
692.18	318.51
692.52	317.61
692.85	316.72
693.19	315.94
693.52	314.95
693.86	314.03
694.20	313.16
694.53	312.20
694.87	311.31
695.21	310.40
695.54	309.56
695.88	308.62
696.21	307.44
696.55	306.52
696.88	305.83
697.22	305.08
697.56	304.17
697.89	303.35
698.23	302.80
698.56	301.89
698.90	301.15
699.23	300.29
699.57	299.58
699.90	298.63
700.24	297.83
700.58	297.14
700.91	296.40
701.25	295.80
701.58	295.23
701.92	294.51
702.25	293.93
702.59	293.28
702.92	292.52
703.26	292.03
703.59	291.44
703.93	290.79
704.26	290.12
704.60	289.56
704.93	288.94
705.26	288.16
705.60	287.59
705.93	286.85
706.27	286.48
706.60	285.92
706.94	285.47
707.27	284.82
707.61	284.14
707.94	283.55
708.27	282.90
708.61	282.19
708.94	281.62
709.28	280.94
709.61	280.29
709.94	279.87
710.28	279.28
710.61	278.77
710.95	278.11
711.28	277.66
711.61	277.14
711.95	276.59
712.28	276.14
712.61	275.58
712.95	275.08
713.28	274.49
713.61	273.95
713.95	273.49
714.28	272.87
714.61	272.45
714.95	271.91
715.28	271.33
715.61	270.74
715.95	270.29
716.28	269.77
716.61	269.50
716.95	269.02
717.28	268.58
717.61	268.08
717.94	267.62
718.28	267.08
718.61	266.66
718.94	266.14
719.27	265.68
719.61	265.26
719.94	264.83
720.27	264.48
720.60	264.08
720.94	263.58
721.27	263.34
721.60	262.96
721.93	262.63
722.27	262.42
722.60	262.18
722.93	261.86
723.26	261.53
723.59	260.95
723.93	260.55
724.26	260.25
724.59	259.80
724.92	259.43
725.25	259.16
725.59	258.84
725.92	258.68
726.25	258.43
726.58	258.18
726.91	258.00
727.24	257.64
727.57	257.38
727.91	257.13
728.24	256.87
728.57	256.62
728.90	256.32
729.23	256.01
729.56	255.84
729.89	255.60
730.22	255.33
730.55	255.11
730.89	254.93
731.22	254.60
731.55	254.42
731.88	254.18
732.21	253.85
732.54	253.53
732.87	253.25
733.20	252.94
733.53	252.61
733.86	252.39
734.19	252.10
734.52	251.88
734.85	251.65
735.18	251.39
735.51	251.18
735.84	251.01
736.17	250.80
736.50	250.46
736.83	250.42
737.16	250.16
737.49	249.94
737.82	249.67
738.15	249.57
738.48	249.35
738.81	249.22
739.14	248.96
739.47	248.71
739.80	248.52
740.13	248.36
740.46	248.17
740.79	247.83
741.12	247.74
741.45	247.48
741.78	247.23
742.11	247.12
742.44	246.95
742.77	246.77
743.10	246.50
743.43	246.31
743.75	245.88
744.08	246.06
744.41	245.90
744.74	245.71
745.07	245.41
745.40	245.29
745.73	245.11
746.06	245.00
746.39	244.90
746.71	244.73
747.04	244.59
747.37	244.37
747.70	244.31
748.03	244.03
748.36	243.90
748.68	243.67
749.01	243.34
749.34	243.19
749.67	243.00
750.00	242.84
750.33	242.79
750.65	242.65
750.98	242.20
751.31	242.04
751.64	241.92
751.97	241.94
752.29	241.76
752.62	241.57
752.95	241.40
753.28	241.18
753.60	240.93
753.93	240.72
754.26	240.62
754.59	240.31
754.91	240.10
755.24	239.96
755.57	239.90
755.90	239.81
756.22	239.60
756.55	239.50
756.88	239.38
757.20	239.19
757.53	238.99
757.86	238.87
758.19	238.79
758.51	238.70
758.84	238.42
759.17	238.18
759.49	238.07
759.82	237.94
760.15	237.87
760.47	237.77
760.80	237.70
761.13	237.61
761.45	237.57
761.78	237.51
762.11	237.40
762.43	237.28
762.76	237.21
763.08	237.13
763.41	236.90
763.74	236.79
764.06	236.70
764.39	236.65
764.71	236.58
765.04	236.45
765.37	236.28
765.69	236.11
766.02	236.09
766.34	235.97
766.67	235.86
767.00	235.84
767.32	235.85
767.65	235.79
767.97	235.68
768.30	235.61
768.62	235.60
768.95	235.45
769.27	235.33
769.60	235.18
769.92	235.01
770.25	234.94
770.57	234.81
770.90	234.69
771.22	234.56
771.55	234.48
771.87	234.38
772.20	234.35
772.52	234.42
772.85	234.60
773.17	234.45
773.50	234.34
773.82	234.21
774.15	234.12
774.47	233.95
774.80	233.91
775.12	233.87
775.45	233.75
775.77	233.74
776.09	233.79
776.42	233.79
776.74	233.79
777.07	233.75
777.39	233.74
777.72	233.61
778.04	233.61
778.36	233.49
778.69	233.47
779.01	233.40
779.33	233.21
779.66	232.92
779.98	232.98
780.31	232.93
780.63	232.98
780.95	232.82
781.28	232.80
781.60	232.67
781.92	232.52
782.25	232.51
782.57	232.41
782.89	232.28
783.22	232.22
783.54	232.18
783.86	232.21
784.19	232.09
784.51	232.14
784.83	232.14
785.16	232.18
785.48	232.15
785.80	231.97
786.12	232.05
786.45	232.07
786.77	231.99
787.09	232.02
787.42	231.94
787.74	231.98
788.06	231.98
788.38	231.94
788.71	231.91
789.03	231.88
789.35	231.93
789.67	231.84
789.99	231.86
790.32	231.77
790.64	231.60
790.96	231.85
791.28	231.77
791.61	231.69
791.93	231.69
792.25	231.59
792.57	231.84
792.89	231.74
793.21	231.69
793.54	231.64
793.86	231.58
794.18	231.46
794.50	231.36
794.82	231.22
795.14	231.29
795.47	231.35
795.79	231.21
796.11	231.13
796.43	231.13
796.75	230.98
797.07	231.00
797.39	231.11
797.71	230.84
798.04	230.71
798.36	230.60
798.68	230.45
799.00	230.42
799.32	230.29
799.64	230.28
799.96	230.30
800.28	230.30
800.60	230.26
800.92	230.25
801.24	230.23
801.56	230.33
801.89	230.15
802.21	230.17
802.53	230.16
802.85	230.22
803.17	230.31
803.49	230.37
803.81	230.22
804.13	230.09
804.45	230.10
804.77	230.14
805.09	230.16
805.41	230.14
805.73	230.05
806.05	229.93
806.37	229.93
806.69	229.84
807.01	229.79
807.33	229.78
807.65	229.73
807.97	229.84
808.28	229.66
808.60	229.76
808.92	229.61
809.24	229.70
809.56	229.57
809.88	229.40
810.20	229.25
810.52	229.39
810.84	229.45
811.16	229.43
811.48	229.43
811.80	229.50
812.12	229.60
812.43	229.70
812.75	229.82
813.07	229.80
813.39	229.76
813.71	229.73
814.03	229.72
814.35	229.72
814.67	229.57
814.98	229.69
815.30	229.62
815.62	229.66
815.94	229.57
816.26	229.66
816.58	229.69
816.89	229.83
817.21	229.71
817.53	229.65
817.85	229.72
818.17	229.71
818.48	229.58
818.80	229.53
819.12	229.52
819.44	229.42
819.76	229.39
820.07	229.41
820.39	229.38
820.71	229.39
821.03	229.35
821.34	229.41
821.66	229.44
821.98	229.55
822.30	229.49
822.61	229.60
822.93	229.55
823.25	229.55
823.57	229.50
823.88	229.57
824.20	229.68
824.52	229.77
824.83	229.76
825.15	229.72
825.47	229.70
825.79	229.69
826.10	229.65
826.42	229.65
826.74	229.70
827.05	229.77
827.37	229.80
827.69	229.89
828.00	229.93
828.32	229.91
828.64	229.79
828.95	230.04
829.27	230.00
829.58	229.94
829.90	230.00
830.22	230.05
830.53	230.03
830.85	230.00
831.17	229.85
831.48	229.85
831.80	229.97
832.11	229.96
832.43	229.92
832.75	229.89
833.06	230.02
833.38	230.03
833.69	230.03
834.01	230.00
834.32	229.98
834.64	229.89
834.96	229.87
835.27	229.89
835.59	229.79
835.90	229.82
836.22	229.90
836.53	229.83
836.85	229.77
837.16	230.03
837.48	230.05
837.79	230.09
838.11	230.13
838.42	230.14
838.74	230.10
839.05	230.14
839.37	230.15
839.68	230.07
840.00	229.95
840.31	229.96
840.63	229.98
840.94	229.85
841.26	229.76
841.57	229.68
841.88	229.69
842.20	229.54
842.51	229.46
842.83	229.44
843.14	229.57
843.46	229.58
843.77	229.31
844.08	229.31
844.40	229.28
844.71	229.20
845.03	229.10
845.34	229.21
845.65	229.10
845.97	229.15
846.28	229.08
846.60	229.09
846.91	229.08
847.22	229.11
847.54	229.23
847.85	229.24
848.16	229.26
848.48	229.24
848.79	229.28
849.10	229.20
849.42	229.11
849.73	228.95
850.04	228.92
850.36	228.90
850.67	228.80
850.98	228.74
851.30	228.78
851.61	228.78
851.92	228.66
852.23	228.82
852.55	228.83
852.86	228.80
853.17	228.81
853.49	228.75
853.80	228.67
854.11	228.60
854.42	228.57
854.74	228.60
855.05	228.64
855.36	228.50
855.67	228.58
855.99	228.65
856.30	228.88
856.61	228.81
856.92	228.78
857.23	228.80
857.55	228.78
857.86	228.68
858.17	228.71
858.48	228.67
858.79	228.50
859.11	228.46
859.42	228.44
859.73	228.46
860.04	228.45
860.35	228.46
860.66	228.44
860.98	228.55
861.29	228.60
861.60	228.57
861.91	228.70
862.22	228.62
862.53	228.60
862.84	228.36
863.16	228.49
863.47	228.51
863.78	228.51
864.09	228.53
864.40	228.56
864.71	228.49
865.02	228.52
865.33	228.60
865.64	228.64
865.95	228.67
866.27	228.78
866.58	228.84
866.89	228.85
867.20	228.87
867.51	228.88
867.82	228.84
868.13	229.02
868.44	228.97
868.75	229.04
869.06	229.02
869.37	229.00
869.68	228.89
869.99	228.97
870.30	228.95
870.61	228.97
870.92	228.96
871.23	229.06
871.54	229.08
871.85	229.15
872.16	229.12
872.47	229.16
872.78	228.96
873.09	228.94
873.40	228.93
873.71	229.00
874.02	229.03
874.33	228.98
874.64	228.84
874.95	228.98
875.26	228.99
875.56	229.00
875.87	229.07
876.18	229.17
876.49	229.36
876.80	229.39
877.11	229.46
877.42	229.43
877.73	229.41
878.04	229.46
878.35	229.36
878.66	229.27
878.96	229.30
879.27	229.36
879.58	229.32
879.89	229.32
880.20	229.32
880.51	229.36
880.82	229.38
881.12	229.30
881.43	229.16
881.74	229.10
882.05	229.03
882.36	229.02
882.67	229.05
882.97	228.75
883.28	228.70
883.59	228.62
883.90	228.70
884.21	228.70
884.51	228.63
884.82	228.69
885.13	228.72
885.44	228.67
885.74	228.63
886.05	228.63
886.36	228.61
886.67	228.56
886.98	228.45
887.28	228.46
887.59	228.53
887.90	228.56
888.20	228.59
888.51	228.68
888.82	228.61
889.13	228.58
889.43	228.78
889.74	228.80
890.05	228.82
890.35	228.81
890.66	228.78
890.97	228.70
891.28	228.71
891.58	228.74
891.89	228.73
892.20	228.69
892.50	228.71
892.81	228.65
893.12	228.63
893.42	228.65
893.73	228.59
894.04	228.58
894.34	228.60
894.65	228.62
894.95	228.44
895.26	228.56
895.57	228.54
895.87	228.24
896.18	228.28
896.48	228.30
896.79	228.23
897.10	228.26
897.40	228.34
897.71	228.22
898.01	228.19
898.32	228.21
898.63	228.26
898.93	228.20
899.24	228.27
899.54	228.29
899.85	228.29
900.15	228.29
900.46	228.38
900.76	228.43
901.07	228.35
901.38	228.44
901.68	228.42
901.99	228.41
902.29	228.49
902.60	228.42
902.90	228.32
903.21	228.39
903.51	228.39
903.82	228.45
904.12	228.49
904.43	228.60
904.73	228.50
905.03	228.50
905.34	228.76
905.64	228.65
905.95	228.71
906.25	228.73
906.56	228.77
906.86	228.75
907.17	228.65
907.47	228.72
907.77	228.71
908.08	228.63
908.38	228.58
908.69	228.55
908.99	228.51
909.30	228.49
909.60	228.45
909.90	228.45
910.21	228.34
910.51	228.27
910.81	228.11
911.12	228.18
911.42	228.16
911.73	227.93
912.03	227.99
912.33	227.94
912.64	227.97
912.94	227.96
913.24	227.87
913.55	227.92
913.85	227.91
914.15	227.96
914.46	227.97
914.76	228.11
915.06	228.11
915.37	228.18
915.67	228.23
915.97	228.24
916.27	228.11
916.58	228.23
916.88	228.36
917.18	228.36
917.49	228.45
917.79	228.48
918.09	228.50
918.39	228.56
918.70	228.50
919.00	228.39
919.30	228.41
919.60	228.38
919.91	228.25
920.21	228.18
920.51	228.08
920.81	228.08
921.12	227.90
921.42	228.01
921.72	227.89
922.02	227.89
922.32	227.97
922.63	228.09
922.93	228.13
923.23	228.03
923.53	228.10
923.83	228.01
924.13	227.97
924.44	227.99
924.74	227.93
925.04	227.98
925.34	228.00
925.64	227.89
925.94	227.89
926.24	228.08
926.55	228.07
926.85	228.16
927.15	228.27
927.45	228.39
927.75	228.40
928.05	228.43
928.35	228.48
928.65	228.43
928.95	228.36
929.26	228.32
929.56	228.40
929.86	228.41
930.16	228.35
930.46	228.42
930.76	228.39
931.06	228.26
931.36	228.28
931.66	228.32
931.96	228.44
932.26	228.50
932.56	228.36
932.86	228.37
933.16	228.48
933.46	228.30
933.76	228.34
934.06	228.35
934.36	228.49
934.66	228.51
934.96	228.48
935.26	228.52
935.56	228.51
935.86	228.44
936.16	228.47
936.46	228.45
936.76	228.40
937.06	228.40
937.36	228.58
937.66	228.54
937.96	228.59
938.26	228.46
938.56	228.52
938.86	228.63
939.16	228.65
939.46	228.57
939.76	228.75
940.06	228.73
940.35	228.60
940.65	228.47
940.95	228.43
941.25	228.43
941.55	228.40
941.85	228.39
942.15	228.40
942.45	228.37
942.75	228.44
943.04	228.44
943.34	228.54
943.64	228.47
943.94	228.55
944.24	228.53
944.54	228.63
944.84	228.61
945.13	228.56
945.43	228.58
945.73	228.64
946.03	228.54
946.33	228.43
946.62	228.52
946.92	228.62
947.22	228.61
947.52	228.71
947.82	228.84
948.11	228.76
948.41	228.74
948.71	228.69
949.01	228.71
949.31	228.77
949.60	228.81
949.90	228.89
950.20	228.78
950.50	228.76
950.79	228.65
951.09	228.54
951.39	228.46
951.69	228.54
951.98	228.49
952.28	228.44
952.58	228.41
952.87	228.40
953.17	228.38
953.47	228.34
953.76	228.25
954.06	228.16
954.36	228.05
954.66	228.11
954.95	228.13
955.25	228.09
955.55	228.03
955.84	227.83
956.14	227.88
956.44	227.85
956.73	227.80
957.03	227.91
957.32	227.96
957.62	228.08
957.92	227.93
958.21	227.91
958.51	228.11
958.81	228.14
959.10	228.12
959.40	228.11
959.69	228.07
959.99	228.12
960.29	228.14
960.58	228.28
960.88	228.40
961.17	228.52
961.47	228.50
961.76	228.48
962.06	228.57
962.36	228.44
962.65	228.41
962.95	228.30
963.24	228.23
963.54	228.27
963.83	228.20
964.13	228.26
964.42	228.22
964.72	228.03
965.01	228.09
965.31	228.09
965.60	228.14
965.90	228.35
966.19	228.30
966.49	228.31
966.78	228.19
967.08	228.11
967.37	228.00
967.67	227.99
967.96	228.03
968.26	227.98
968.55	228.01
968.85	228.13
969.14	228.24
969.43	228.25
969.73	228.20
970.02	228.20
970.32	228.18
970.61	228.16
970.91	228.16
971.20	228.13
971.49	228.07
971.79	228.05
972.08	227.78
972.38	227.85
972.67	227.79
972.96	227.96
973.26	227.96
973.55	228.06
973.85	228.07
974.14	228.09
974.43	228.17
974.73	228.11
975.02	228.10
975.31	228.10
975.61	228.13
975.90	228.04
976.19	228.13
976.49	228.14
976.78	228.19
977.07	228.29
977.37	228.31
977.66	228.39
977.95	228.44
978.24	228.59
978.54	228.56
978.83	228.69
979.12	228.56
979.42	228.49
979.71	228.50
980.00	228.46
980.29	228.40
980.59	228.28
980.88	228.35
981.17	228.27
981.46	228.31
981.76	228.34
982.05	228.50
982.34	228.46
982.63	228.44
982.93	228.41
983.22	228.36
983.51	228.43
983.80	228.47
984.09	228.36
984.39	228.35
984.68	228.38
984.97	228.26
985.26	228.32
985.55	228.36
985.85	228.30
986.14	228.43
986.43	228.50
986.72	228.52
987.01	228.50
987.30	228.54
987.59	228.40
987.89	228.31
988.18	228.25
988.47	228.20
988.76	228.13
989.05	228.10
989.34	228.01
989.63	227.95
989.92	227.85
990.22	227.85
990.51	227.85
990.80	227.68
991.09	227.70
991.38	227.76
991.67	227.73
991.96	227.61
992.25	227.44
992.54	227.36
992.83	227.37
993.12	227.38
993.41	227.39
993.70	227.54
993.99	227.62
994.28	227.58
994.58	227.52
994.87	227.53
995.16	227.48
995.45	227.47
995.74	227.44
996.03	227.40
996.32	227.37
996.61	227.36
996.90	227.38
997.19	227.39
997.48	227.27
997.77	227.23
998.06	227.24
998.34	227.32
998.63	227.30
998.92	227.35
999.21	227.30
999.50	227.31
999.79	227.14
1000.08	227.11
1000.37	227.18
1000.66	227.20
1000.95	227.31
1001.24	227.36
1001.53	227.45
1001.82	227.42
1002.11	227.56
1002.40	227.62
1002.68	227.67
1002.97	227.84
1003.26	227.78
1003.55	227.83
1003.84	227.94
1004.13	228.06
1004.42	228.04
1004.71	228.03
1004.99	227.96
1005.28	228.11
1005.57	228.14
1005.86	228.27
1006.15	228.29
1006.44	228.29
1006.72	228.43
1007.01	228.36
1007.30	228.42
1007.59	228.42
1007.88	228.46
1008.17	228.33
1008.45	228.34
1008.74	228.34
1009.03	228.34
1009.32	228.38
1009.60	228.38
1009.89	228.25
1010.18	228.29
1010.47	228.30
1010.76	228.41
1011.04	228.45
1011.33	228.39
1011.62	228.36
1011.91	228.31
1012.19	228.46
1012.48	228.42
1012.77	228.36
1013.05	228.47
1013.34	228.48
1013.63	228.48
1013.92	228.51
1014.20	228.63
1014.49	228.63
1014.78	228.55
1015.06	228.48
1015.35	228.43
1015.64	228.45
1015.92	228.57
1016.21	228.51
1016.50	228.51
1016.78	228.50
1017.07	228.59
1017.36	228.60
1017.64	228.59
1017.93	228.60
1018.22	228.50
1018.50	228.56
1018.79	228.60
1019.08	228.56
1019.36	228.57
1019.65	228.51
1019.93	228.51
1020.22	228.49
1020.51	228.66
1020.79	228.67
1021.08	229.00
1021.36	229.10
1021.65	229.80
1021.94	228.80
1022.22	228.60
1022.51	227.60
1022.79	228.80
1023.08	228.80
1023.36	232.20
1023.65	227.30
>>>>>End Processed Spectral Data<<<<<
