SpectraSuite Data File
++++++++++++++++++++++++++++++++++++
Date: Fri Feb 01 14:39:27 EST 2013
User: group
Dark Spectrum Present: No
Reference Spectrum Present: No
Number of Sampled Component Spectra: 1
Spectrometers: USB2E7196
Integration Time (usec): 70000 (USB2E7196)
Spectra Averaged: 10 (USB2E7196)
Boxcar Smoothing: 10 (USB2E7196)
Correct for Electrical Dark: No (USB2E7196)
Strobe/Lamp Enabled: No (USB2E7196)
Correct for Detector Non-linearity: No (USB2E7196)
Correct for Stray Light: No (USB2E7196)
Number of Pixels in Processed Spectrum: 2048
>>>>>Begin Processed Spectral Data<<<<<
339.09	0.00
339.48	217.30
339.86	218.40
340.24	220.20
340.63	220.20
341.01	225.10
341.39	222.70
341.78	225.60
342.16	226.20
342.54	226.00
342.93	214.91
343.31	225.78
343.69	226.30
344.07	226.76
344.46	227.18
344.84	227.53
345.22	227.67
345.60	228.00
345.99	228.11
346.37	228.18
346.75	228.26
347.13	228.27
347.52	228.23
347.90	228.28
348.28	228.28
348.66	228.32
349.05	228.33
349.43	228.41
349.81	228.38
350.19	228.40
350.57	228.41
350.96	228.50
351.34	228.53
351.72	228.52
352.10	228.59
352.48	228.54
352.87	228.57
353.25	228.57
353.63	228.56
354.01	228.62
354.39	228.66
354.77	228.77
355.15	228.88
355.54	228.99
355.92	228.91
356.30	229.10
356.68	229.24
357.06	229.16
357.44	229.13
357.82	229.22
358.20	229.28
358.58	229.38
358.97	229.33
359.35	229.40
359.73	229.53
360.11	229.53
360.49	229.65
360.87	229.70
361.25	229.70
361.63	229.79
362.01	229.79
362.39	229.76
362.77	229.70
363.15	229.80
363.53	229.85
363.91	229.95
364.29	229.87
364.67	229.73
365.05	229.80
365.43	229.87
365.81	229.82
366.19	229.87
366.57	229.86
366.95	229.83
367.33	229.85
367.71	229.86
368.09	229.87
368.47	229.83
368.85	229.77
369.23	229.88
369.61	229.80
369.99	229.84
370.37	229.88
370.75	229.96
371.13	229.77
371.51	229.57
371.89	229.46
372.27	229.36
372.65	229.33
373.03	229.33
373.41	229.25
373.78	229.22
374.16	229.02
374.54	228.81
374.92	228.69
375.30	228.54
375.68	228.37
376.06	228.30
376.44	228.21
376.82	228.23
377.19	228.04
377.57	227.99
377.95	227.83
378.33	227.84
378.71	227.65
379.09	227.61
379.47	227.56
379.84	227.61
380.22	227.58
380.60	227.42
380.98	227.32
381.36	227.17
381.73	227.11
382.11	227.16
382.49	227.20
382.87	227.25
383.25	227.21
383.62	227.38
384.00	227.18
384.38	227.15
384.76	227.09
385.13	227.21
385.51	227.10
385.89	227.00
386.27	226.86
386.64	226.92
387.02	226.86
387.40	226.89
387.78	226.77
388.15	226.67
388.53	226.67
388.91	226.60
389.29	226.60
389.66	226.58
390.04	226.56
390.42	226.50
390.79	226.45
391.17	226.45
391.55	226.25
391.92	226.44
392.30	226.40
392.68	226.26
393.05	226.31
393.43	226.30
393.81	226.29
394.18	226.26
394.56	226.24
394.94	226.29
395.31	226.23
395.69	226.33
396.06	226.44
396.44	226.43
396.82	226.38
397.19	226.45
397.57	226.49
397.95	226.43
398.32	226.43
398.70	226.47
399.07	226.45
399.45	226.56
399.82	226.51
400.20	226.60
400.58	226.70
400.95	226.63
401.33	226.76
401.70	227.01
402.08	227.12
402.45	227.18
402.83	227.35
403.20	227.50
403.58	227.51
403.95	227.73
404.33	227.93
404.71	228.17
405.08	228.59
405.46	228.75
405.83	229.06
406.21	229.19
406.58	229.38
406.96	229.69
407.33	229.74
407.70	229.96
408.08	230.30
408.45	230.67
408.83	230.90
409.20	231.17
409.58	231.35
409.95	231.58
410.33	231.90
410.70	232.01
411.08	232.40
411.45	232.74
411.82	233.00
412.20	233.32
412.57	233.85
412.95	234.00
413.32	234.36
413.69	234.71
414.07	235.10
414.44	235.58
414.82	236.00
415.19	236.62
415.56	237.14
415.94	237.54
416.31	238.09
416.68	238.72
417.06	239.51
417.43	240.21
417.81	241.07
418.18	241.82
418.55	242.79
418.93	243.63
419.30	244.48
419.67	245.40
420.04	246.38
420.42	247.30
420.79	248.53
421.16	249.79
421.54	250.99
421.91	252.38
422.28	253.63
422.66	254.90
423.03	256.38
423.40	257.73
423.77	259.32
424.15	260.77
424.52	262.44
424.89	263.96
425.26	265.63
425.64	267.11
426.01	268.86
426.38	270.45
426.75	272.22
427.13	274.17
427.50	276.09
427.87	278.15
428.24	280.07
428.61	281.93
428.99	283.99
429.36	286.27
429.73	288.40
430.10	290.67
430.47	293.06
430.85	295.21
431.22	297.61
431.59	300.29
431.96	302.75
432.33	305.29
432.70	307.98
433.08	311.01
433.45	314.06
433.82	316.95
434.19	320.32
434.56	323.48
434.93	326.37
435.30	329.24
435.68	332.45
436.05	335.70
436.42	338.92
436.79	341.74
437.16	344.93
437.53	348.36
437.90	351.54
438.27	354.69
438.64	358.04
439.01	361.15
439.38	363.60
439.75	366.38
440.13	369.20
440.50	371.96
440.87	374.27
441.24	376.35
441.61	378.86
441.98	380.70
442.35	382.86
442.72	385.21
443.09	387.66
443.46	388.99
443.83	389.98
444.20	390.61
444.57	391.72
444.94	392.06
445.31	392.65
445.68	393.18
446.05	393.49
446.42	393.25
446.79	393.07
447.16	392.93
447.53	392.54
447.90	391.58
448.27	390.63
448.64	388.93
449.01	387.99
449.37	385.98
449.74	384.14
450.11	381.91
450.48	379.35
450.85	376.39
451.22	374.11
451.59	371.93
451.96	370.08
452.33	367.20
452.70	364.77
453.07	361.65
453.43	358.60
453.80	355.68
454.17	352.78
454.54	349.97
454.91	346.86
455.28	343.93
455.65	341.13
456.02	338.42
456.38	335.99
456.75	333.12
457.12	330.50
457.49	327.89
457.86	325.42
458.23	323.29
458.59	321.09
458.96	318.89
459.33	316.73
459.70	314.58
460.07	312.94
460.43	311.02
460.80	309.18
461.17	307.49
461.54	305.72
461.91	304.08
462.27	302.46
462.64	301.10
463.01	299.51
463.38	298.12
463.74	296.46
464.11	295.17
464.48	293.86
464.85	292.70
465.21	291.70
465.58	290.59
465.95	289.20
466.32	288.12
466.68	286.88
467.05	285.79
467.42	284.70
467.78	283.55
468.15	282.42
468.52	281.55
468.88	280.52
469.25	279.42
469.62	278.62
469.98	277.75
470.35	276.84
470.72	276.25
471.08	275.40
471.45	274.74
471.82	274.14
472.18	273.46
472.55	272.81
472.92	272.03
473.28	271.29
473.65	270.74
474.02	270.28
474.38	269.76
474.75	269.28
475.11	268.68
475.48	268.30
475.85	267.84
476.21	267.40
476.58	266.92
476.94	266.57
477.31	266.18
477.67	265.61
478.04	265.23
478.41	264.82
478.77	264.68
479.14	264.19
479.50	263.78
479.87	263.52
480.23	263.33
480.60	263.12
480.96	262.98
481.33	262.84
481.69	262.57
482.06	262.35
482.42	262.16
482.79	261.86
483.15	261.82
483.52	261.80
483.88	261.68
484.25	261.58
484.61	261.50
484.98	261.34
485.34	261.45
485.71	261.44
486.07	261.47
486.44	261.34
486.80	261.48
487.17	261.47
487.53	261.52
487.90	261.58
488.26	261.68
488.62	261.87
488.99	261.92
489.35	262.02
489.72	262.15
490.08	262.26
490.44	262.50
490.81	262.54
491.17	262.67
491.54	262.81
491.90	263.13
492.26	263.29
492.63	263.52
492.99	263.77
493.36	264.04
493.72	264.30
494.08	264.49
494.45	264.74
494.81	265.12
495.17	265.41
495.54	265.88
495.90	266.18
496.26	266.46
496.63	266.96
496.99	267.40
497.35	267.96
497.72	268.56
498.08	269.10
498.44	269.66
498.80	270.20
499.17	270.82
499.53	271.36
499.89	272.07
500.26	272.74
500.62	273.24
500.98	274.05
501.34	274.80
501.71	275.58
502.07	276.31
502.43	277.14
502.79	278.06
503.16	278.80
503.52	279.78
503.88	280.62
504.24	281.54
504.60	282.52
504.97	283.50
505.33	284.50
505.69	285.59
506.05	286.87
506.41	288.20
506.78	289.46
507.14	290.72
507.50	292.11
507.86	293.58
508.22	295.18
508.59	296.77
508.95	298.44
509.31	300.38
509.67	302.26
510.03	304.10
510.39	305.96
510.75	308.03
511.12	310.09
511.48	312.27
511.84	314.45
512.20	316.75
512.56	319.15
512.92	321.60
513.28	324.35
513.64	326.98
514.00	329.65
514.37	332.56
514.73	335.41
515.09	338.50
515.45	341.58
515.81	344.95
516.17	348.20
516.53	351.55
516.89	354.90
517.25	358.42
517.61	362.06
517.97	365.77
518.33	369.50
518.69	373.35
519.05	377.44
519.41	381.43
519.77	385.82
520.13	390.28
520.49	394.80
520.85	399.22
521.21	403.91
521.57	408.67
521.93	413.49
522.29	418.61
522.65	423.52
523.01	428.68
523.37	433.69
523.73	438.88
524.09	444.17
524.45	449.57
524.81	455.16
525.17	461.02
525.53	466.74
525.89	472.50
526.25	478.57
526.61	484.34
526.97	490.56
527.33	496.63
527.68	503.02
528.04	509.35
528.40	515.89
528.76	522.32
529.12	528.99
529.48	535.68
529.84	542.34
530.20	549.32
530.56	556.34
530.91	563.60
531.27	570.70
531.63	578.00
531.99	585.39
532.35	592.55
532.71	599.69
533.07	607.22
533.42	614.87
533.78	622.22
534.14	630.22
534.50	637.70
534.86	645.52
535.21	652.93
535.57	660.80
535.93	668.57
536.29	676.46
536.65	684.45
537.00	692.14
537.36	700.00
537.72	707.86
538.08	715.83
538.44	723.67
538.79	731.53
539.15	739.41
539.51	747.26
539.87	755.61
540.22	763.56
540.58	771.61
540.94	779.70
541.29	787.93
541.65	795.72
542.01	804.15
542.37	812.57
542.72	820.47
543.08	828.28
543.44	836.33
543.79	843.90
544.15	851.81
544.51	860.27
544.87	868.46
545.22	876.24
545.58	884.08
545.94	891.48
546.29	899.30
546.65	907.03
547.01	914.63
547.36	922.06
547.72	929.58
548.07	936.98
548.43	944.24
548.79	951.43
549.14	958.55
549.50	965.34
549.86	971.63
550.21	978.82
550.57	985.79
550.92	992.54
551.28	999.32
551.64	1005.99
551.99	1012.30
552.35	1018.79
552.70	1025.38
553.06	1031.92
553.41	1038.87
553.77	1045.10
554.13	1051.57
554.48	1058.09
554.84	1064.43
555.19	1070.76
555.55	1076.95
555.90	1083.03
556.26	1089.15
556.61	1095.44
556.97	1101.20
557.32	1107.23
557.68	1113.12
558.03	1118.86
558.39	1124.69
558.74	1130.87
559.10	1136.50
559.45	1142.11
559.81	1147.97
560.16	1153.45
560.52	1158.58
560.87	1163.88
561.23	1169.17
561.58	1174.30
561.94	1178.86
562.29	1183.23
562.64	1187.61
563.00	1192.38
563.35	1197.40
563.71	1202.60
564.06	1207.00
564.42	1211.87
564.77	1216.65
565.12	1221.31
565.48	1225.82
565.83	1230.08
566.19	1234.10
566.54	1238.17
566.89	1242.10
567.25	1245.82
567.60	1249.94
567.96	1253.73
568.31	1257.20
568.66	1261.15
569.02	1264.51
569.37	1267.70
569.72	1271.01
570.08	1274.48
570.43	1277.15
570.78	1279.61
571.14	1281.53
571.49	1284.33
571.84	1286.97
572.20	1289.09
572.55	1290.91
572.90	1292.80
573.26	1294.91
573.61	1296.75
573.96	1298.04
574.31	1299.44
574.67	1300.16
575.02	1300.98
575.37	1302.41
575.72	1303.01
576.08	1303.51
576.43	1304.29
576.78	1305.66
577.13	1307.00
577.49	1307.87
577.84	1308.66
578.19	1309.10
578.54	1309.75
578.90	1309.60
579.25	1309.65
579.60	1309.41
579.95	1309.29
580.30	1308.87
580.66	1308.31
581.01	1307.67
581.36	1307.58
581.71	1307.49
582.06	1307.40
582.42	1306.61
582.77	1305.51
583.12	1304.84
583.47	1304.29
583.82	1303.62
584.17	1302.59
584.53	1301.63
584.88	1300.36
585.23	1299.31
585.58	1298.73
585.93	1297.54
586.28	1296.80
586.63	1295.74
586.98	1294.92
587.34	1293.69
587.69	1292.93
588.04	1291.50
588.39	1290.59
588.74	1288.45
589.09	1286.25
589.44	1284.51
589.79	1283.38
590.14	1281.83
590.49	1280.52
590.84	1278.41
591.19	1276.50
591.54	1274.26
591.89	1271.41
592.25	1269.22
592.60	1266.45
592.95	1263.41
593.30	1260.67
593.65	1258.00
594.00	1255.20
594.35	1252.98
594.70	1250.13
595.05	1247.46
595.40	1244.79
595.75	1241.54
596.10	1239.53
596.45	1237.41
596.80	1235.07
597.15	1231.98
597.50	1229.41
597.85	1226.80
598.19	1224.53
598.54	1221.98
598.89	1219.30
599.24	1217.11
599.59	1214.50
599.94	1212.31
600.29	1209.77
600.64	1207.14
600.99	1204.05
601.34	1201.28
601.69	1198.00
602.04	1195.48
602.39	1192.42
602.74	1189.89
603.08	1187.56
603.43	1184.75
603.78	1181.90
604.13	1178.81
604.48	1176.22
604.83	1173.42
605.18	1170.23
605.53	1166.70
605.87	1162.98
606.22	1159.80
606.57	1156.13
606.92	1153.00
607.27	1150.00
607.62	1147.24
607.96	1144.08
608.31	1141.18
608.66	1137.55
609.01	1133.69
609.36	1129.77
609.70	1125.69
610.05	1121.61
610.40	1117.58
610.75	1113.65
611.10	1109.32
611.44	1104.92
611.79	1100.88
612.14	1096.57
612.49	1091.85
612.83	1087.66
613.18	1083.31
613.53	1079.19
613.88	1075.10
614.22	1070.55
614.57	1065.74
614.92	1060.98
615.27	1056.95
615.61	1052.51
615.96	1048.43
616.31	1044.51
616.65	1040.89
617.00	1037.07
617.35	1032.99
617.70	1028.86
618.04	1024.18
618.39	1020.20
618.74	1016.09
619.08	1011.40
619.43	1007.07
619.78	1003.44
620.12	999.45
620.47	995.51
620.82	990.90
621.16	986.59
621.51	982.68
621.85	978.67
622.20	974.29
622.55	969.93
622.89	965.59
623.24	961.51
623.59	957.53
623.93	953.30
624.28	949.17
624.62	944.76
624.97	940.78
625.32	937.16
625.66	933.27
626.01	929.43
626.35	925.51
626.70	921.16
627.04	917.15
627.39	912.98
627.73	908.95
628.08	905.03
628.43	900.83
628.77	896.61
629.12	892.29
629.46	888.05
629.81	883.64
630.15	879.14
630.50	874.78
630.84	869.92
631.19	865.26
631.53	860.48
631.88	855.89
632.22	850.78
632.57	846.39
632.91	841.84
633.26	837.30
633.60	832.92
633.95	829.08
634.29	824.54
634.64	820.35
634.98	815.92
635.32	812.10
635.67	808.45
636.01	804.31
636.36	800.37
636.70	796.53
637.05	792.78
637.39	789.29
637.73	785.53
638.08	782.24
638.42	778.66
638.77	775.20
639.11	771.73
639.45	768.19
639.80	764.26
640.14	760.32
640.49	756.58
640.83	752.85
641.17	748.81
641.52	745.23
641.86	741.44
642.20	738.04
642.55	734.07
642.89	730.29
643.23	726.47
643.58	722.97
643.92	719.20
644.26	715.27
644.61	711.71
644.95	707.82
645.29	703.79
645.64	699.72
645.98	695.94
646.32	692.46
646.66	688.84
647.01	685.20
647.35	681.56
647.69	677.91
648.04	674.34
648.38	670.48
648.72	666.60
649.06	662.91
649.41	659.07
649.75	655.29
650.09	651.35
650.43	647.70
650.78	643.86
651.12	640.13
651.46	636.60
651.80	632.82
652.14	629.42
652.49	626.07
652.83	622.70
653.17	619.11
653.51	615.13
653.85	611.61
654.20	607.94
654.54	604.31
654.88	600.60
655.22	596.87
655.56	593.36
655.90	589.95
656.25	586.57
656.59	583.29
656.93	580.10
657.27	576.88
657.61	573.45
657.95	570.22
658.29	567.21
658.64	563.95
658.98	560.57
659.32	557.08
659.66	553.70
660.00	550.38
660.34	547.20
660.68	544.18
661.02	541.12
661.36	538.24
661.70	535.43
662.05	532.62
662.39	530.07
662.73	527.35
663.07	524.76
663.41	521.91
663.75	519.05
664.09	516.29
664.43	513.50
664.77	510.77
665.11	508.17
665.45	505.41
665.79	502.61
666.13	499.90
666.47	497.36
666.81	494.86
667.15	492.21
667.49	489.63
667.83	487.35
668.17	484.85
668.51	482.28
668.85	479.66
669.19	477.43
669.53	474.85
669.87	472.23
670.21	469.54
670.55	467.11
670.89	464.90
671.23	462.60
671.57	460.35
671.91	458.24
672.25	455.82
672.58	453.47
672.92	451.31
673.26	449.22
673.60	446.92
673.94	444.72
674.28	442.75
674.62	440.87
674.96	438.87
675.30	436.88
675.64	434.72
675.97	432.85
676.31	430.75
676.65	428.79
676.99	427.09
677.33	425.23
677.67	423.25
678.01	421.10
678.34	419.09
678.68	417.30
679.02	415.26
679.36	413.31
679.70	411.55
680.04	409.86
680.37	408.01
680.71	406.27
681.05	404.60
681.39	402.98
681.73	401.26
682.06	399.38
682.40	397.67
682.74	396.21
683.08	394.61
683.42	392.88
683.75	391.15
684.09	389.35
684.43	387.69
684.77	386.06
685.10	384.50
685.44	383.02
685.78	381.24
686.12	379.69
686.45	378.18
686.79	376.60
687.13	374.90
687.46	373.49
687.80	372.01
688.14	370.46
688.48	368.91
688.81	367.50
689.15	366.04
689.49	364.46
689.82	363.02
690.16	361.46
690.50	360.12
690.83	358.64
691.17	357.37
691.51	355.95
691.84	354.68
692.18	353.42
692.52	352.03
692.85	350.75
693.19	349.48
693.52	348.19
693.86	346.76
694.20	345.49
694.53	344.09
694.87	342.72
695.21	341.26
695.54	339.98
695.88	338.53
696.21	337.25
696.55	336.12
696.88	334.76
697.22	333.42
697.56	332.28
697.89	331.21
698.23	330.00
698.56	328.84
698.90	327.64
699.23	326.20
699.57	325.02
699.90	323.70
700.24	322.49
700.58	321.27
700.91	320.21
701.25	319.25
701.58	318.26
701.92	317.32
702.25	316.39
702.59	315.38
702.92	314.40
703.26	313.36
703.59	312.36
703.93	311.63
704.26	310.73
704.60	309.65
704.93	308.65
705.26	307.65
705.60	306.71
705.93	305.82
706.27	305.17
706.60	304.39
706.94	303.79
707.27	303.01
707.61	302.28
707.94	301.58
708.27	300.63
708.61	299.70
708.94	298.93
709.28	298.29
709.61	297.55
709.94	296.90
710.28	296.26
710.61	295.52
710.95	294.50
711.28	293.86
711.61	293.07
711.95	292.42
712.28	291.78
712.61	291.10
712.95	290.41
713.28	289.69
713.61	288.91
713.95	288.11
714.28	287.32
714.61	286.65
714.95	285.91
715.28	285.25
715.61	284.69
715.95	284.07
716.28	283.30
716.61	282.71
716.95	282.10
717.28	281.50
717.61	281.00
717.94	280.47
718.28	279.82
718.61	279.24
718.94	278.73
719.27	278.16
719.61	277.69
719.94	277.25
720.27	276.74
720.60	276.22
720.94	275.70
721.27	275.39
721.60	274.90
721.93	274.52
722.27	274.20
722.60	273.64
722.93	273.02
723.26	272.63
723.59	272.15
723.93	271.61
724.26	271.16
724.59	270.60
724.92	270.20
725.25	269.79
725.59	269.43
725.92	268.99
726.25	268.59
726.58	268.11
726.91	267.60
727.24	267.15
727.57	266.77
727.91	266.25
728.24	265.67
728.57	265.21
728.90	264.70
729.23	264.18
729.56	263.88
729.89	263.57
730.22	263.10
730.55	262.55
730.89	262.22
731.22	261.82
731.55	261.55
731.88	261.12
732.21	260.74
732.54	260.33
732.87	259.78
733.20	259.42
733.53	259.08
733.86	258.84
734.19	258.53
734.52	258.20
734.85	258.17
735.18	257.84
735.51	257.54
735.84	257.27
736.17	257.08
736.50	256.70
736.83	256.59
737.16	256.28
737.49	255.98
737.82	255.63
738.15	255.30
738.48	254.99
738.81	254.77
739.14	254.47
739.47	254.21
739.80	254.12
740.13	253.87
740.46	253.55
740.79	253.30
741.12	252.97
741.45	252.66
741.78	252.31
742.11	252.31
742.44	252.05
742.77	251.77
743.10	251.39
743.43	251.16
743.75	250.67
744.08	250.69
744.41	250.48
744.74	250.21
745.07	249.92
745.40	249.64
745.73	249.49
746.06	249.33
746.39	249.21
746.71	248.85
747.04	248.61
747.37	248.38
747.70	248.12
748.03	247.93
748.36	247.77
748.68	247.44
749.01	246.98
749.34	246.90
749.67	246.77
750.00	246.56
750.33	246.49
750.65	246.38
750.98	245.90
751.31	245.78
751.64	245.59
751.97	245.53
752.29	245.32
752.62	245.09
752.95	244.78
753.28	244.49
753.60	244.20
753.93	244.13
754.26	244.07
754.59	243.78
754.91	243.61
755.24	243.39
755.57	243.23
755.90	243.06
756.22	242.77
756.55	242.45
756.88	242.26
757.20	241.95
757.53	241.66
757.86	241.56
758.19	241.35
758.51	241.25
758.84	240.93
759.17	240.82
759.49	240.67
759.82	240.65
760.15	240.50
760.47	240.56
760.80	240.25
761.13	240.05
761.45	239.86
761.78	239.64
762.11	239.48
762.43	239.41
762.76	239.27
763.08	239.10
763.41	239.04
763.74	238.96
764.06	238.87
764.39	238.76
764.71	238.60
765.04	238.47
765.37	238.28
765.69	238.24
766.02	238.04
766.34	237.78
766.67	237.65
767.00	237.59
767.32	237.56
767.65	237.53
767.97	237.39
768.30	237.31
768.62	237.31
768.95	237.24
769.27	237.12
769.60	237.10
769.92	237.05
770.25	236.94
770.57	236.79
770.90	236.69
771.22	236.57
771.55	236.55
771.87	236.51
772.20	236.35
772.52	236.52
772.85	236.62
773.17	236.71
773.50	236.63
773.82	236.50
774.15	236.36
774.47	236.20
774.80	236.27
775.12	236.33
775.45	236.14
775.77	236.19
776.09	236.10
776.42	236.01
776.74	235.98
777.07	235.85
777.39	235.79
777.72	235.70
778.04	235.63
778.36	235.50
778.69	235.47
779.01	235.55
779.33	235.29
779.66	235.08
779.98	235.00
780.31	234.95
780.63	235.02
780.95	234.96
781.28	234.95
781.60	234.75
781.92	234.66
782.25	234.62
782.57	234.53
782.89	234.47
783.22	234.38
783.54	234.29
783.86	234.39
784.19	234.25
784.51	234.23
784.83	234.18
785.16	234.16
785.48	234.07
785.80	234.03
786.12	234.02
786.45	234.06
786.77	233.85
787.09	233.68
787.42	233.46
787.74	233.40
788.06	233.34
788.38	233.31
788.71	233.12
789.03	233.09
789.35	233.00
789.67	232.89
789.99	232.85
790.32	232.79
790.64	232.66
790.96	232.83
791.28	232.70
791.61	232.62
791.93	232.58
792.25	232.49
792.57	232.51
792.89	232.35
793.21	232.22
793.54	232.24
793.86	232.23
794.18	232.27
794.50	232.32
794.82	232.27
795.14	232.21
795.47	232.25
795.79	232.22
796.11	232.11
796.43	232.04
796.75	232.11
797.07	232.10
797.39	232.02
797.71	231.81
798.04	231.77
798.36	231.77
798.68	231.72
799.00	231.71
799.32	231.56
799.64	231.57
799.96	231.50
800.28	231.50
800.60	231.46
800.92	231.47
801.24	231.23
801.56	231.20
801.89	231.13
802.21	231.07
802.53	231.03
802.85	231.09
803.17	231.15
803.49	231.00
803.81	230.90
804.13	230.88
804.45	230.92
804.77	230.92
805.09	230.96
805.41	230.86
805.73	230.77
806.05	230.79
806.37	230.78
806.69	230.83
807.01	230.82
807.33	230.91
807.65	230.77
807.97	230.92
808.28	230.92
808.60	230.86
808.92	230.87
809.24	231.00
809.56	230.97
809.88	231.00
810.20	231.03
810.52	231.10
810.84	231.05
811.16	230.97
811.48	230.99
811.80	231.00
812.12	230.90
812.43	230.92
812.75	230.89
813.07	230.78
813.39	230.66
813.71	230.46
814.03	230.31
814.35	230.40
814.67	230.21
814.98	230.21
815.30	230.30
815.62	230.21
815.94	230.11
816.26	230.11
816.58	230.07
816.89	230.09
817.21	229.95
817.53	230.06
817.85	230.08
818.17	230.00
818.48	229.96
818.80	230.15
819.12	230.26
819.44	230.12
819.76	230.07
820.07	230.18
820.39	230.26
820.71	230.26
821.03	230.18
821.34	230.22
821.66	230.24
821.98	230.25
822.30	230.30
822.61	230.28
822.93	230.16
823.25	230.14
823.57	230.07
823.88	230.18
824.20	230.13
824.52	230.08
824.83	230.07
825.15	230.00
825.47	229.96
825.79	229.88
826.10	230.00
826.42	230.03
826.74	229.97
827.05	229.97
827.37	229.99
827.69	229.94
828.00	229.90
828.32	229.80
828.64	229.78
828.95	229.87
829.27	229.84
829.58	229.91
829.90	229.91
830.22	229.94
830.53	229.90
830.85	229.78
831.17	229.68
831.48	229.66
831.80	229.55
832.11	229.39
832.43	229.32
832.75	229.21
833.06	229.30
833.38	229.23
833.69	229.20
834.01	229.18
834.32	229.17
834.64	229.13
834.96	229.15
835.27	228.98
835.59	228.83
835.90	228.70
836.22	228.66
836.53	228.54
836.85	228.43
837.16	228.55
837.48	228.57
837.79	228.71
838.11	228.63
838.42	228.64
838.74	228.71
839.05	228.72
839.37	228.70
839.68	228.60
840.00	228.62
840.31	228.70
840.63	228.64
840.94	228.61
841.26	228.64
841.57	228.64
841.88	228.77
842.20	228.78
842.51	228.85
842.83	228.83
843.14	228.98
843.46	228.96
843.77	228.90
844.08	228.85
844.40	228.75
844.71	228.90
845.03	228.93
845.34	228.88
845.65	228.84
845.97	228.92
846.28	228.91
846.60	228.98
846.91	228.97
847.22	228.96
847.54	229.06
847.85	229.09
848.16	229.05
848.48	228.98
848.79	228.97
849.10	229.03
849.42	229.12
849.73	229.03
850.04	229.05
850.36	228.99
850.67	229.07
850.98	229.19
851.30	229.18
851.61	229.13
851.92	229.10
852.23	229.20
852.55	229.22
852.86	229.30
853.17	229.27
853.49	229.22
853.80	229.26
854.11	229.23
854.42	229.19
854.74	229.26
855.05	229.28
855.36	229.24
855.67	229.21
855.99	229.12
856.30	229.34
856.61	229.31
856.92	229.25
857.23	229.27
857.55	229.26
857.86	229.14
858.17	229.20
858.48	229.23
858.79	229.10
859.11	229.08
859.42	229.08
859.73	229.07
860.04	229.16
860.35	229.13
860.66	229.11
860.98	229.09
861.29	228.96
861.60	229.00
861.91	229.17
862.22	229.13
862.53	229.11
862.84	228.92
863.16	229.11
863.47	229.15
863.78	229.18
864.09	229.12
864.40	229.24
864.71	229.25
865.02	229.30
865.33	229.30
865.64	229.28
865.95	229.22
866.27	229.30
866.58	229.28
866.89	229.26
867.20	229.16
867.51	229.22
867.82	229.16
868.13	229.22
868.44	229.13
868.75	229.16
869.06	229.12
869.37	229.08
869.68	228.84
869.99	228.78
870.30	228.73
870.61	228.79
870.92	228.73
871.23	228.60
871.54	228.58
871.85	228.63
872.16	228.65
872.47	228.60
872.78	228.44
873.09	228.37
873.40	228.34
873.71	228.38
874.02	228.26
874.33	228.30
874.64	228.18
874.95	228.11
875.26	228.01
875.56	228.01
875.87	227.99
876.18	228.02
876.49	228.25
876.80	228.16
877.11	228.07
877.42	228.12
877.73	228.24
878.04	228.34
878.35	228.38
878.66	228.38
878.96	228.40
879.27	228.33
879.58	228.31
879.89	228.32
880.20	228.40
880.51	228.40
880.82	228.44
881.12	228.49
881.43	228.45
881.74	228.40
882.05	228.35
882.36	228.34
882.67	228.44
882.97	228.30
883.28	228.38
883.59	228.40
883.90	228.34
884.21	228.29
884.51	228.20
884.82	228.12
885.13	228.03
885.44	228.11
885.74	228.19
886.05	228.24
886.36	228.20
886.67	228.20
886.98	228.40
887.28	228.30
887.59	228.20
887.90	228.20
888.20	228.29
888.51	228.42
888.82	228.38
889.13	228.34
889.43	228.48
889.74	228.42
890.05	228.37
890.35	228.41
890.66	228.40
890.97	228.26
891.28	228.24
891.58	228.27
891.89	228.21
892.20	228.17
892.50	228.18
892.81	228.31
893.12	228.33
893.42	228.14
893.73	228.29
894.04	228.38
894.34	228.50
894.65	228.48
894.95	228.47
895.26	228.50
895.57	228.62
895.87	228.48
896.18	228.58
896.48	228.61
896.79	228.56
897.10	228.50
897.40	228.57
897.71	228.60
898.01	228.59
898.32	228.55
898.63	228.64
898.93	228.50
899.24	228.42
899.54	228.34
899.85	228.48
900.15	228.38
900.46	228.35
900.76	228.28
901.07	228.30
901.38	228.37
901.68	228.31
901.99	228.20
902.29	228.16
902.60	228.07
902.90	228.04
903.21	228.06
903.51	228.13
903.82	228.17
904.12	228.16
904.43	228.19
904.73	228.20
905.03	228.11
905.34	228.33
905.64	228.29
905.95	228.30
906.25	228.28
906.56	228.41
906.86	228.38
907.17	228.38
907.47	228.37
907.77	228.24
908.08	228.22
908.38	228.23
908.69	228.22
908.99	228.24
909.30	228.31
909.60	228.17
909.90	228.18
910.21	228.14
910.51	228.15
910.81	228.18
911.12	228.16
911.42	228.29
911.73	228.09
912.03	228.20
912.33	228.24
912.64	228.15
912.94	228.11
913.24	228.10
913.55	228.19
913.85	228.19
914.15	228.23
914.46	228.27
914.76	228.25
915.06	228.16
915.37	228.06
915.67	227.95
915.97	228.18
916.27	228.16
916.58	228.29
916.88	228.30
917.18	228.24
917.49	228.31
917.79	228.23
918.09	228.23
918.39	228.11
918.70	228.00
919.00	228.01
919.30	228.06
919.60	228.00
919.91	227.94
920.21	227.97
920.51	227.95
920.81	228.01
921.12	228.04
921.42	228.17
921.72	228.25
922.02	228.30
922.32	228.25
922.63	228.33
922.93	228.31
923.23	228.23
923.53	228.22
923.83	228.25
924.13	228.30
924.44	228.39
924.74	228.57
925.04	228.60
925.34	228.57
925.64	228.41
925.94	228.54
926.24	228.67
926.55	228.61
926.85	228.60
927.15	228.54
927.45	228.52
927.75	228.50
928.05	228.53
928.35	228.55
928.65	228.54
928.95	228.54
929.26	228.59
929.56	228.78
929.86	228.83
930.16	228.82
930.46	228.87
930.76	228.79
931.06	228.67
931.36	228.79
931.66	228.88
931.96	228.98
932.26	228.98
932.56	228.81
932.86	228.89
933.16	228.96
933.46	228.96
933.76	229.00
934.06	229.01
934.36	229.14
934.66	229.09
934.96	229.07
935.26	229.10
935.56	228.99
935.86	228.88
936.16	228.89
936.46	228.90
936.76	228.81
937.06	228.82
937.36	228.83
937.66	228.73
937.96	228.65
938.26	228.60
938.56	228.53
938.86	228.58
939.16	228.58
939.46	228.57
939.76	228.60
940.06	228.46
940.35	228.43
940.65	228.21
940.95	228.25
941.25	228.25
941.55	228.13
941.85	228.22
942.15	228.14
942.45	228.08
942.75	227.99
943.04	228.09
943.34	228.21
943.64	228.18
943.94	228.12
944.24	228.21
944.54	228.24
944.84	228.22
945.13	228.14
945.43	228.10
945.73	227.99
946.03	227.93
946.33	227.98
946.62	227.93
946.92	227.92
947.22	227.87
947.52	227.87
947.82	227.91
948.11	227.81
948.41	227.84
948.71	227.76
949.01	227.66
949.31	227.51
949.60	227.38
949.90	227.48
950.20	227.58
950.50	227.49
950.79	227.45
951.09	227.47
951.39	227.51
951.69	227.48
951.98	227.48
952.28	227.57
952.58	227.50
952.87	227.54
953.17	227.59
953.47	227.58
953.76	227.52
954.06	227.54
954.36	227.58
954.66	227.60
954.95	227.72
955.25	227.86
955.55	227.86
955.84	227.78
956.14	227.70
956.44	227.66
956.73	227.64
957.03	227.70
957.32	227.74
957.62	227.73
957.92	227.80
958.21	227.82
958.51	227.95
958.81	228.07
959.10	228.09
959.40	228.09
959.69	228.19
959.99	228.28
960.29	228.28
960.58	228.21
960.88	228.25
961.17	228.20
961.47	228.15
961.76	228.18
962.06	228.31
962.36	228.27
962.65	228.19
962.95	228.21
963.24	228.20
963.54	228.26
963.83	228.30
964.13	228.24
964.42	228.26
964.72	228.20
965.01	228.19
965.31	228.18
965.60	228.15
965.90	228.18
966.19	228.13
966.49	228.14
966.78	228.24
967.08	228.19
967.37	228.29
967.67	228.28
967.96	228.31
968.26	228.40
968.55	228.47
968.85	228.48
969.14	228.57
969.43	228.53
969.73	228.50
970.02	228.50
970.32	228.60
970.61	228.69
970.91	228.62
971.20	228.59
971.49	228.50
971.79	228.70
972.08	228.67
972.38	228.69
972.67	228.74
972.96	228.77
973.26	228.83
973.55	228.84
973.85	228.88
974.14	228.89
974.43	228.84
974.73	228.77
975.02	228.91
975.31	228.96
975.61	228.97
975.90	228.88
976.19	228.79
976.49	228.69
976.78	228.71
977.07	228.66
977.37	228.63
977.66	228.69
977.95	228.49
978.24	228.46
978.54	228.46
978.83	228.39
979.12	228.36
979.42	228.30
979.71	228.23
980.00	228.21
980.29	228.22
980.59	228.15
980.88	228.23
981.17	228.12
981.46	228.00
981.76	228.01
982.05	228.17
982.34	228.30
982.63	228.26
982.93	228.15
983.22	228.20
983.51	228.33
983.80	228.33
984.09	228.44
984.39	228.41
984.68	228.34
984.97	228.32
985.26	228.15
985.55	228.24
985.85	228.22
986.14	228.19
986.43	228.12
986.72	228.17
987.01	228.12
987.30	228.15
987.59	228.08
987.89	228.09
988.18	228.00
988.47	227.90
988.76	227.89
989.05	227.85
989.34	227.76
989.63	227.80
989.92	227.85
990.22	227.84
990.51	227.85
990.80	227.93
991.09	227.87
991.38	227.97
991.67	227.94
991.96	227.91
992.25	227.93
992.54	227.99
992.83	227.90
993.12	227.95
993.41	227.98
993.70	228.13
993.99	228.20
994.28	228.20
994.58	228.24
994.87	228.35
995.16	228.38
995.45	228.40
995.74	228.18
996.03	228.22
996.32	228.10
996.61	228.08
996.90	228.10
997.19	228.24
997.48	228.29
997.77	228.26
998.06	228.30
998.34	228.36
998.63	228.34
998.92	228.41
999.21	228.38
999.50	228.43
999.79	228.36
1000.08	228.24
1000.37	228.32
1000.66	228.24
1000.95	228.29
1001.24	228.24
1001.53	228.35
1001.82	228.47
1002.11	228.47
1002.40	228.72
1002.68	228.92
1002.97	229.14
1003.26	229.07
1003.55	229.04
1003.84	229.04
1004.13	229.15
1004.42	229.16
1004.71	229.25
1004.99	229.30
1005.28	229.39
1005.57	229.37
1005.86	229.37
1006.15	229.41
1006.44	229.43
1006.72	229.59
1007.01	229.61
1007.30	229.71
1007.59	229.71
1007.88	229.70
1008.17	229.71
1008.45	229.56
1008.74	229.46
1009.03	229.25
1009.32	229.29
1009.60	229.31
1009.89	229.28
1010.18	229.21
1010.47	229.25
1010.76	229.23
1011.04	229.20
1011.33	229.26
1011.62	229.28
1011.91	229.32
1012.19	229.39
1012.48	229.34
1012.77	229.31
1013.05	229.25
1013.34	229.27
1013.63	229.26
1013.92	229.24
1014.20	229.26
1014.49	229.39
1014.78	229.37
1015.06	229.40
1015.35	229.47
1015.64	229.47
1015.92	229.58
1016.21	229.62
1016.50	229.54
1016.78	229.52
1017.07	229.48
1017.36	229.30
1017.64	229.30
1017.93	229.33
1018.22	229.20
1018.50	229.05
1018.79	228.93
1019.08	228.84
1019.36	228.82
1019.65	228.75
1019.93	228.82
1020.22	228.78
1020.51	228.72
1020.79	228.62
1021.08	226.80
1021.36	226.40
1021.65	227.30
1021.94	227.60
1022.22	228.70
1022.51	227.90
1022.79	229.80
1023.08	229.00
1023.36	229.90
1023.65	227.20
>>>>>End Processed Spectral Data<<<<<
