SpectraSuite Data File
++++++++++++++++++++++++++++++++++++
Date: Fri Feb 01 14:40:20 EST 2013
User: group
Dark Spectrum Present: No
Reference Spectrum Present: No
Number of Sampled Component Spectra: 1
Spectrometers: USB2E7196
Integration Time (usec): 70000 (USB2E7196)
Spectra Averaged: 10 (USB2E7196)
Boxcar Smoothing: 10 (USB2E7196)
Correct for Electrical Dark: No (USB2E7196)
Strobe/Lamp Enabled: No (USB2E7196)
Correct for Detector Non-linearity: No (USB2E7196)
Correct for Stray Light: No (USB2E7196)
Number of Pixels in Processed Spectrum: 2048
>>>>>Begin Processed Spectral Data<<<<<
339.09	0.00
339.48	218.00
339.86	216.30
340.24	219.70
340.63	223.00
341.01	224.60
341.39	223.60
341.78	223.80
342.16	227.30
342.54	227.20
342.93	215.11
343.31	226.00
343.69	226.51
344.07	226.93
344.46	227.32
344.84	227.63
345.22	227.82
345.60	228.12
345.99	228.44
346.37	228.44
346.75	228.50
347.13	228.57
347.52	228.61
347.90	228.71
348.28	228.68
348.66	228.71
349.05	228.65
349.43	228.63
349.81	228.71
350.19	228.66
350.57	228.73
350.96	228.80
351.34	228.76
351.72	228.83
352.10	229.09
352.48	229.15
352.87	229.21
353.25	229.27
353.63	229.25
354.01	229.19
354.39	229.39
354.77	229.43
355.15	229.57
355.54	229.72
355.92	229.77
356.30	229.89
356.68	230.03
357.06	230.10
357.44	230.15
357.82	230.21
358.20	230.44
358.58	230.42
358.97	230.45
359.35	230.67
359.73	230.72
360.11	230.77
360.49	230.80
360.87	230.78
361.25	230.86
361.63	230.98
362.01	230.98
362.39	230.95
362.77	231.05
363.15	231.03
363.53	230.95
363.91	230.96
364.29	231.00
364.67	230.86
365.05	230.95
365.43	231.08
365.81	231.07
366.19	231.10
366.57	231.16
366.95	231.12
367.33	231.01
367.71	230.97
368.09	230.91
368.47	230.83
368.85	230.78
369.23	230.71
369.61	230.58
369.99	230.62
370.37	230.56
370.75	230.60
371.13	230.51
371.51	230.47
371.89	230.37
372.27	230.31
372.65	230.24
373.03	230.10
373.41	229.98
373.78	229.92
374.16	229.77
374.54	229.64
374.92	229.61
375.30	229.46
375.68	229.29
376.06	229.18
376.44	229.20
376.82	229.27
377.19	229.21
377.57	229.17
377.95	229.11
378.33	228.95
378.71	228.70
379.09	228.64
379.47	228.43
379.84	228.33
380.22	228.17
380.60	227.99
380.98	227.95
381.36	227.82
381.73	227.66
382.11	227.56
382.49	227.55
382.87	227.43
383.25	227.45
383.62	227.70
384.00	227.64
384.38	227.59
384.76	227.40
385.13	227.43
385.51	227.38
385.89	227.25
386.27	227.22
386.64	227.20
387.02	227.04
387.40	227.04
387.78	227.13
388.15	227.13
388.53	227.16
388.91	227.15
389.29	227.10
389.66	227.14
390.04	227.09
390.42	227.16
390.79	227.10
391.17	227.03
391.55	226.82
391.92	226.80
392.30	226.78
392.68	226.88
393.05	226.87
393.43	226.82
393.81	226.95
394.18	227.01
394.56	227.14
394.94	227.25
395.31	227.31
395.69	227.24
396.06	227.35
396.44	227.45
396.82	227.40
397.19	227.60
397.57	227.67
397.95	227.74
398.32	227.65
398.70	227.73
399.07	227.80
399.45	227.81
399.82	227.90
400.20	227.84
400.58	227.83
400.95	227.81
401.33	228.00
401.70	228.06
402.08	228.15
402.45	228.16
402.83	228.32
403.20	228.40
403.58	228.51
403.95	228.64
404.33	228.80
404.71	228.97
405.08	229.13
405.46	229.21
405.83	229.32
406.21	229.54
406.58	229.69
406.96	229.89
407.33	230.12
407.70	230.28
408.08	230.69
408.45	230.94
408.83	231.25
409.20	231.44
409.58	231.57
409.95	231.80
410.33	232.11
410.70	232.39
411.08	232.68
411.45	232.98
411.82	233.26
412.20	233.56
412.57	234.00
412.95	234.26
413.32	234.64
413.69	235.09
414.07	235.50
414.44	235.98
414.82	236.34
415.19	236.80
415.56	237.21
415.94	237.74
416.31	238.36
416.68	238.90
417.06	239.58
417.43	240.22
417.81	241.00
418.18	241.70
418.55	242.39
418.93	243.25
419.30	244.17
419.67	245.00
420.04	245.92
420.42	246.84
420.79	248.06
421.16	249.19
421.54	250.33
421.91	251.47
422.28	252.63
422.66	254.10
423.03	255.48
423.40	256.88
423.77	258.12
424.15	259.49
424.52	260.91
424.89	262.49
425.26	263.99
425.64	265.32
426.01	266.92
426.38	268.53
426.75	270.16
427.13	271.87
427.50	273.70
427.87	275.56
428.24	277.37
428.61	278.99
428.99	280.87
429.36	282.85
429.73	284.95
430.10	286.98
430.47	288.84
430.85	290.78
431.22	292.98
431.59	295.58
431.96	297.71
432.33	300.19
432.70	302.46
433.08	305.35
433.45	308.03
433.82	310.57
434.19	313.48
434.56	316.40
434.93	319.01
435.30	321.52
435.68	324.45
436.05	327.25
436.42	329.98
436.79	332.60
437.16	335.33
437.53	338.17
437.90	341.00
438.27	343.95
438.64	346.92
439.01	349.58
439.38	351.80
439.75	354.12
440.13	356.47
440.50	358.95
440.87	360.87
441.24	362.83
441.61	365.09
441.98	366.56
442.35	368.27
442.72	370.18
443.09	372.10
443.46	372.96
443.83	373.65
444.20	374.29
444.57	375.15
444.94	375.58
445.31	375.93
445.68	376.54
446.05	376.55
446.42	376.13
446.79	375.88
447.16	375.38
447.53	375.19
447.90	374.23
448.27	373.09
448.64	371.57
449.01	370.45
449.37	368.44
449.74	366.57
450.11	364.42
450.48	361.86
450.85	359.43
451.22	357.47
451.59	355.53
451.96	353.47
452.33	350.94
452.70	348.60
453.07	345.85
453.43	342.78
453.80	340.11
454.17	337.44
454.54	334.82
454.91	332.16
455.28	329.50
455.65	327.01
456.02	324.75
456.38	322.54
456.75	319.94
457.12	317.68
457.49	315.62
457.86	313.44
458.23	311.80
458.59	309.74
458.96	307.74
459.33	305.76
459.70	303.95
460.07	302.39
460.43	300.51
460.80	298.85
461.17	297.39
461.54	295.80
461.91	294.38
462.27	292.91
462.64	291.57
463.01	290.12
463.38	288.89
463.74	287.22
464.11	285.91
464.48	284.80
464.85	283.70
465.21	282.78
465.58	281.75
465.95	280.50
466.32	279.51
466.68	278.45
467.05	277.60
467.42	276.65
467.78	275.59
468.15	274.71
468.52	273.86
468.88	272.90
469.25	272.06
469.62	271.43
469.98	270.58
470.35	269.95
470.72	269.23
471.08	268.30
471.45	267.73
471.82	267.17
472.18	266.46
472.55	265.91
472.92	265.16
473.28	264.62
473.65	263.98
474.02	263.34
474.38	262.89
474.75	262.44
475.11	262.02
475.48	261.65
475.85	261.30
476.21	260.93
476.58	260.66
476.94	260.32
477.31	259.83
477.67	259.54
478.04	259.05
478.41	258.65
478.77	258.56
479.14	258.23
479.50	257.96
479.87	257.77
480.23	257.56
480.60	257.48
480.96	257.19
481.33	257.05
481.69	256.95
482.06	256.71
482.42	256.64
482.79	256.50
483.15	256.40
483.52	256.33
483.88	256.29
484.25	256.14
484.61	256.13
484.98	256.09
485.34	256.13
485.71	256.32
486.07	256.42
486.44	256.40
486.80	256.44
487.17	256.68
487.53	256.90
487.90	257.01
488.26	257.17
488.62	257.51
488.99	257.82
489.35	258.12
489.72	258.40
490.08	258.59
490.44	258.96
490.81	259.41
491.17	259.72
491.54	260.15
491.90	260.61
492.26	261.14
492.63	261.71
492.99	262.27
493.36	262.83
493.72	263.53
494.08	264.20
494.45	265.00
494.81	265.74
495.17	266.49
495.54	267.39
495.90	268.22
496.26	269.16
496.63	270.02
496.99	271.16
497.35	272.32
497.72	273.50
498.08	274.73
498.44	275.93
498.80	277.41
499.17	278.82
499.53	280.33
499.89	281.87
500.26	283.67
500.62	285.35
500.98	287.14
501.34	288.89
501.71	290.90
502.07	292.85
502.43	294.89
502.79	297.04
503.16	299.32
503.52	301.86
503.88	304.24
504.24	306.89
504.60	309.50
504.97	312.34
505.33	315.22
505.69	318.32
506.05	321.41
506.41	324.57
506.78	327.86
507.14	331.31
507.50	334.88
507.86	338.47
508.22	342.46
508.59	346.36
508.95	350.56
509.31	354.85
509.67	359.38
510.03	363.90
510.39	368.78
510.75	373.57
511.12	378.44
511.48	383.55
511.84	388.81
512.20	394.05
512.56	399.58
512.92	405.41
513.28	411.16
513.64	417.22
514.00	423.42
514.37	429.83
514.73	436.34
515.09	442.82
515.45	449.55
515.81	456.16
516.17	463.14
516.53	470.15
516.89	477.24
517.25	484.56
517.61	492.00
517.97	499.60
518.33	507.28
518.69	514.99
519.05	523.30
519.41	531.54
519.77	540.28
520.13	548.89
520.49	557.30
520.85	566.09
521.21	574.78
521.57	583.81
521.93	592.61
522.29	601.91
522.65	611.27
523.01	620.58
523.37	629.97
523.73	639.45
524.09	649.15
524.45	659.19
524.81	669.23
525.17	679.73
525.53	689.75
525.89	700.22
526.25	710.84
526.61	721.01
526.97	731.46
527.33	741.88
527.68	752.74
528.04	763.68
528.40	774.49
528.76	785.97
529.12	797.09
529.48	808.74
529.84	819.59
530.20	831.11
530.56	842.79
530.91	854.97
531.27	867.15
531.63	878.78
531.99	890.24
532.35	901.80
532.71	913.06
533.07	925.20
533.42	936.89
533.78	948.64
534.14	960.50
534.50	972.45
534.86	984.35
535.21	995.65
535.57	1007.97
535.93	1019.88
536.29	1031.55
536.65	1043.36
537.00	1054.58
537.36	1066.61
537.72	1078.08
538.08	1089.69
538.44	1100.86
538.79	1112.37
539.15	1123.90
539.51	1135.79
539.87	1147.54
540.22	1159.05
540.58	1170.37
540.94	1181.68
541.29	1192.83
541.65	1204.03
542.01	1215.20
542.37	1226.43
542.72	1237.60
543.08	1248.16
543.44	1259.00
543.79	1269.19
544.15	1279.81
544.51	1291.09
544.87	1301.69
545.22	1312.25
545.58	1322.36
545.94	1332.25
546.29	1341.67
546.65	1351.67
547.01	1360.87
547.36	1370.28
547.72	1379.80
548.07	1389.02
548.43	1398.26
548.79	1407.38
549.14	1416.06
549.50	1424.79
549.86	1432.70
550.21	1440.96
550.57	1449.36
550.92	1457.72
551.28	1465.93
551.64	1473.54
551.99	1481.34
552.35	1488.93
552.70	1496.74
553.06	1504.61
553.41	1512.52
553.77	1520.13
554.13	1527.44
554.48	1535.24
554.84	1542.63
555.19	1549.65
555.55	1556.75
555.90	1563.20
556.26	1570.12
556.61	1577.06
556.97	1583.29
557.32	1589.93
557.68	1596.63
558.03	1603.08
558.39	1609.30
558.74	1615.93
559.10	1622.60
559.45	1628.45
559.81	1635.08
560.16	1640.48
560.52	1645.82
560.87	1651.34
561.23	1656.42
561.58	1661.86
561.94	1666.76
562.29	1671.51
562.64	1676.30
563.00	1681.18
563.35	1686.22
563.71	1691.23
564.06	1696.03
564.42	1700.57
564.77	1705.54
565.12	1709.85
565.48	1713.84
565.83	1717.42
566.19	1721.19
566.54	1724.62
566.89	1728.04
567.25	1731.54
567.60	1735.63
567.96	1738.87
568.31	1742.03
568.66	1745.46
569.02	1748.48
569.37	1750.90
569.72	1753.30
570.08	1755.47
570.43	1757.40
570.78	1759.66
571.14	1760.81
571.49	1762.42
571.84	1764.65
572.20	1765.84
572.55	1766.88
572.90	1767.80
573.26	1769.51
573.61	1770.61
573.96	1771.40
574.31	1771.69
574.67	1770.86
575.02	1770.05
575.37	1770.31
575.72	1769.56
576.08	1769.13
576.43	1768.60
576.78	1768.40
577.13	1768.17
577.49	1768.04
577.84	1767.47
578.19	1766.59
578.54	1765.75
578.90	1764.42
579.25	1762.21
579.60	1760.56
579.95	1758.97
580.30	1757.11
580.66	1754.81
581.01	1752.44
581.36	1750.56
581.71	1748.91
582.06	1747.38
582.42	1745.39
582.77	1742.99
583.12	1740.87
583.47	1739.10
583.82	1736.97
584.17	1734.39
584.53	1731.80
584.88	1728.83
585.23	1726.08
585.58	1723.40
585.93	1721.07
586.28	1719.12
586.63	1717.15
586.98	1714.47
587.34	1711.98
587.69	1709.56
588.04	1706.86
588.39	1703.97
588.74	1700.40
589.09	1696.56
589.44	1692.52
589.79	1689.65
590.14	1686.80
590.49	1683.28
590.84	1679.28
591.19	1675.48
591.54	1671.05
591.89	1666.55
592.25	1663.25
592.60	1658.74
592.95	1654.20
593.30	1649.21
593.65	1644.38
594.00	1639.81
594.35	1636.13
594.70	1631.21
595.05	1626.76
595.40	1621.60
595.75	1616.85
596.10	1612.57
596.45	1608.86
596.80	1605.11
597.15	1600.51
597.50	1595.72
597.85	1591.70
598.19	1587.71
598.54	1582.90
598.89	1578.93
599.24	1575.51
599.59	1570.82
599.94	1566.86
600.29	1562.66
600.64	1558.80
600.99	1553.30
601.34	1548.82
601.69	1543.36
602.04	1538.86
602.39	1533.82
602.74	1529.96
603.08	1525.95
603.43	1521.62
603.78	1516.71
604.13	1511.88
604.48	1506.94
604.83	1502.00
605.18	1497.23
605.53	1491.47
605.87	1486.24
606.22	1481.30
606.57	1475.84
606.92	1470.47
607.27	1465.28
607.62	1460.31
607.96	1454.95
608.31	1450.59
608.66	1444.81
609.01	1438.96
609.36	1433.02
609.70	1426.96
610.05	1420.87
610.40	1414.72
610.75	1408.51
611.10	1402.46
611.44	1395.83
611.79	1389.94
612.14	1383.70
612.49	1376.72
612.83	1370.75
613.18	1364.74
613.53	1358.66
613.88	1351.54
614.22	1345.31
614.57	1338.81
614.92	1332.27
615.27	1326.21
615.61	1319.76
615.96	1313.88
616.31	1308.78
616.65	1303.82
617.00	1298.30
617.35	1292.32
617.70	1286.08
618.04	1279.72
618.39	1273.70
618.74	1268.70
619.08	1262.56
619.43	1256.99
619.78	1251.68
620.12	1245.81
620.47	1240.18
620.82	1233.90
621.16	1228.91
621.51	1223.43
621.85	1217.47
622.20	1211.55
622.55	1205.63
622.89	1199.95
623.24	1194.20
623.59	1188.41
623.93	1182.39
624.28	1176.80
624.62	1170.95
624.97	1165.43
625.32	1160.14
625.66	1154.63
626.01	1148.44
626.35	1142.81
626.70	1136.87
627.04	1131.30
627.39	1125.38
627.73	1119.17
628.08	1113.65
628.43	1107.72
628.77	1101.89
629.12	1096.46
629.46	1090.68
629.81	1084.29
630.15	1078.22
630.50	1072.29
630.84	1065.67
631.19	1059.25
631.53	1053.20
631.88	1047.15
632.22	1040.88
632.57	1035.02
632.91	1028.85
633.26	1022.81
633.60	1016.83
633.95	1010.94
634.29	1005.20
634.64	999.84
634.98	994.19
635.32	988.79
635.67	983.30
636.01	977.71
636.36	971.96
636.70	966.63
637.05	961.76
637.39	956.68
637.73	951.48
638.08	947.02
638.42	942.25
638.77	937.14
639.11	932.20
639.45	927.11
639.80	921.74
640.14	916.65
640.49	911.73
640.83	906.40
641.17	901.36
641.52	896.05
641.86	890.67
642.20	885.70
642.55	880.45
642.89	875.23
643.23	869.90
643.58	865.15
643.92	859.94
644.26	854.59
644.61	849.79
644.95	844.74
645.29	838.65
645.64	833.07
645.98	827.91
646.32	822.70
646.66	817.67
647.01	812.86
647.35	808.26
647.69	803.20
648.04	798.63
648.38	793.50
648.72	788.16
649.06	783.23
649.41	778.56
649.75	773.46
650.09	768.54
650.43	763.52
650.78	758.11
651.12	752.98
651.46	748.36
651.80	743.43
652.14	738.65
652.49	734.23
652.83	729.77
653.17	724.84
653.51	720.11
653.85	715.48
654.20	710.71
654.54	705.53
654.88	700.82
655.22	695.76
655.56	690.90
655.90	686.65
656.25	681.99
656.59	677.26
656.93	673.05
657.27	668.69
657.61	664.25
657.95	660.12
658.29	656.20
658.64	651.82
658.98	647.15
659.32	642.57
659.66	638.43
660.00	634.16
660.34	629.91
660.68	625.90
661.02	621.83
661.36	617.80
661.70	614.08
662.05	610.42
662.39	607.00
662.73	603.54
663.07	599.96
663.41	596.38
663.75	592.84
664.09	589.13
664.43	585.35
664.77	581.90
665.11	578.49
665.45	575.02
665.79	571.65
666.13	568.31
666.47	564.93
666.81	561.39
667.15	557.69
667.49	554.53
667.83	551.20
668.17	547.90
668.51	544.38
668.85	541.02
669.19	537.83
669.53	534.52
669.87	531.22
670.21	528.02
670.55	524.95
670.89	522.08
671.23	519.16
671.57	516.30
671.91	513.27
672.25	510.19
672.58	507.35
672.92	504.48
673.26	501.82
673.60	499.25
673.94	496.64
674.28	494.66
674.62	492.04
674.96	489.51
675.30	487.03
675.64	484.77
675.97	482.32
676.31	479.80
676.65	477.32
676.99	475.00
677.33	472.29
677.67	469.85
678.01	467.11
678.34	464.62
678.68	462.28
679.02	459.91
679.36	457.60
679.70	455.05
680.04	452.71
680.37	450.19
680.71	447.90
681.05	445.65
681.39	443.12
681.73	440.97
682.06	438.82
682.40	436.72
682.74	434.57
683.08	432.40
683.42	430.29
683.75	428.15
684.09	425.89
684.43	423.84
684.77	421.64
685.10	419.70
685.44	417.54
685.78	415.60
686.12	413.86
686.45	411.76
686.79	409.63
687.13	407.73
687.46	405.86
687.80	403.72
688.14	401.81
688.48	399.91
688.81	397.86
689.15	395.80
689.49	393.68
689.82	391.78
690.16	389.80
690.50	388.00
690.83	386.21
691.17	384.42
691.51	382.85
691.84	381.27
692.18	379.60
692.52	377.87
692.85	375.96
693.19	374.13
693.52	372.68
693.86	371.04
694.20	369.26
694.53	367.60
694.87	365.96
695.21	364.18
695.54	362.53
695.88	360.94
696.21	359.32
696.55	357.97
696.88	356.29
697.22	354.80
697.56	353.23
697.89	351.79
698.23	350.25
698.56	348.70
698.90	347.25
699.23	345.70
699.57	344.32
699.90	342.92
700.24	341.34
700.58	339.85
700.91	338.56
701.25	337.33
701.58	336.09
701.92	334.78
702.25	333.59
702.59	332.30
702.92	331.15
703.26	330.00
703.59	328.70
703.93	327.77
704.26	326.65
704.60	325.30
704.93	324.16
705.26	323.10
705.60	322.01
705.93	320.99
706.27	319.95
706.60	318.85
706.94	317.77
707.27	316.77
707.61	315.73
707.94	314.72
708.27	313.59
708.61	312.54
708.94	311.65
709.28	310.77
709.61	309.94
709.94	309.09
710.28	308.08
710.61	307.23
710.95	306.12
711.28	305.28
711.61	304.48
711.95	303.37
712.28	302.54
712.61	301.69
712.95	300.75
713.28	299.97
713.61	299.18
713.95	298.46
714.28	297.72
714.61	296.93
714.95	296.25
715.28	295.59
715.61	294.87
715.95	294.14
716.28	293.32
716.61	292.50
716.95	291.65
717.28	291.08
717.61	290.46
717.94	289.91
718.28	289.07
718.61	288.38
718.94	287.99
719.27	287.30
719.61	286.61
719.94	286.08
720.27	285.39
720.60	284.86
720.94	284.25
721.27	283.72
721.60	283.08
721.93	282.47
722.27	281.82
722.60	281.21
722.93	280.64
723.26	280.19
723.59	279.70
723.93	279.19
724.26	278.64
724.59	278.01
724.92	277.27
725.25	276.87
725.59	276.44
725.92	275.80
726.25	275.32
726.58	274.82
726.91	274.20
727.24	273.71
727.57	273.16
727.91	272.63
728.24	272.13
728.57	271.72
728.90	271.29
729.23	270.83
729.56	270.53
729.89	270.06
730.22	269.53
730.55	268.93
730.89	268.53
731.22	267.98
731.55	267.44
731.88	267.10
732.21	266.67
732.54	266.08
732.87	265.59
733.20	264.99
733.53	264.60
733.86	264.24
734.19	263.85
734.52	263.44
734.85	263.17
735.18	262.67
735.51	262.35
735.84	261.97
736.17	261.62
736.50	261.03
736.83	260.88
737.16	260.54
737.49	260.27
737.82	259.80
738.15	259.47
738.48	259.20
738.81	258.81
739.14	258.36
739.47	258.02
739.80	257.66
740.13	257.50
740.46	257.12
740.79	256.78
741.12	256.35
741.45	256.01
741.78	255.63
742.11	255.36
742.44	254.99
742.77	254.73
743.10	254.23
743.43	253.96
743.75	253.42
744.08	253.34
744.41	253.02
744.74	252.75
745.07	252.46
745.40	252.12
745.73	251.94
746.06	251.59
746.39	251.32
746.71	251.07
747.04	250.74
747.37	250.38
747.70	250.17
748.03	249.93
748.36	249.67
748.68	249.40
749.01	249.20
749.34	248.89
749.67	248.59
750.00	248.48
750.33	248.36
750.65	248.20
750.98	247.68
751.31	247.45
751.64	247.22
751.97	247.27
752.29	247.07
752.62	246.74
752.95	246.64
753.28	246.60
753.60	246.51
753.93	246.39
754.26	246.23
754.59	245.94
754.91	245.75
755.24	245.59
755.57	245.29
755.90	245.13
756.22	245.06
756.55	244.91
756.88	244.77
757.20	244.48
757.53	244.22
757.86	244.12
758.19	243.99
758.51	243.86
758.84	243.50
759.17	243.52
759.49	243.54
759.82	243.39
760.15	243.09
760.47	242.85
760.80	242.60
761.13	242.52
761.45	242.30
761.78	242.14
762.11	242.05
762.43	241.97
762.76	241.79
763.08	241.57
763.41	241.40
763.74	241.20
764.06	241.05
764.39	241.04
764.71	240.74
765.04	240.61
765.37	240.44
765.69	240.24
766.02	239.90
766.34	239.63
766.67	239.51
767.00	239.49
767.32	239.50
767.65	239.58
767.97	239.50
768.30	239.49
768.62	239.39
768.95	239.19
769.27	239.17
769.60	239.01
769.92	238.84
770.25	238.66
770.57	238.52
770.90	238.44
771.22	238.17
771.55	238.20
771.87	238.01
772.20	237.91
772.52	237.92
772.85	238.10
773.17	237.90
773.50	237.82
773.82	237.64
774.15	237.42
774.47	237.09
774.80	236.84
775.12	236.69
775.45	236.66
775.77	236.56
776.09	236.41
776.42	236.34
776.74	236.32
777.07	236.26
777.39	236.28
777.72	236.10
778.04	236.10
778.36	235.95
778.69	235.95
779.01	235.85
779.33	235.61
779.66	235.28
779.98	235.33
780.31	235.27
780.63	235.31
780.95	235.25
781.28	235.18
781.60	235.14
781.92	235.12
782.25	235.08
782.57	235.03
782.89	234.85
783.22	234.73
783.54	234.67
783.86	234.50
784.19	234.46
784.51	234.49
784.83	234.44
785.16	234.39
785.48	234.26
785.80	234.21
786.12	234.13
786.45	234.15
786.77	234.08
787.09	234.00
787.42	233.93
787.74	233.85
788.06	233.82
788.38	233.73
788.71	233.62
789.03	233.52
789.35	233.49
789.67	233.53
789.99	233.45
790.32	233.40
790.64	233.48
790.96	233.39
791.28	233.30
791.61	233.12
791.93	233.15
792.25	233.16
792.57	233.20
792.89	233.21
793.21	233.13
793.54	233.11
793.86	232.95
794.18	232.71
794.50	232.64
794.82	232.61
795.14	232.64
795.47	232.71
795.79	232.70
796.11	232.61
796.43	232.52
796.75	232.57
797.07	232.50
797.39	232.53
797.71	232.45
798.04	232.39
798.36	232.50
798.68	232.50
799.00	232.45
799.32	232.42
799.64	232.42
799.96	232.36
800.28	232.30
800.60	232.36
800.92	232.51
801.24	232.55
801.56	232.60
801.89	232.64
802.21	232.51
802.53	232.37
802.85	232.39
803.17	232.42
803.49	232.34
803.81	232.26
804.13	232.13
804.45	232.05
804.77	232.06
805.09	231.91
805.41	231.87
805.73	231.90
806.05	231.75
806.37	231.70
806.69	231.72
807.01	231.70
807.33	231.70
807.65	231.57
807.97	231.54
808.28	231.49
808.60	231.32
808.92	231.35
809.24	231.47
809.56	231.42
809.88	231.39
810.20	231.39
810.52	231.35
810.84	231.19
811.16	231.23
811.48	231.22
811.80	231.36
812.12	231.21
812.43	231.16
812.75	231.20
813.07	231.20
813.39	231.16
813.71	231.06
814.03	230.97
814.35	230.98
814.67	230.91
814.98	230.86
815.30	230.84
815.62	230.80
815.94	230.70
816.26	230.77
816.58	230.70
816.89	230.70
817.21	230.64
817.53	230.81
817.85	230.78
818.17	230.67
818.48	230.55
818.80	230.59
819.12	230.48
819.44	230.43
819.76	230.35
820.07	230.31
820.39	230.25
820.71	230.24
821.03	230.16
821.34	230.16
821.66	230.18
821.98	230.26
822.30	230.23
822.61	230.27
822.93	230.15
823.25	230.07
823.57	230.04
823.88	230.11
824.20	230.04
824.52	230.08
824.83	230.13
825.15	230.04
825.47	230.09
825.79	230.11
826.10	230.05
826.42	230.01
826.74	229.97
827.05	230.02
827.37	230.04
827.69	230.09
828.00	230.02
828.32	229.99
828.64	230.09
828.95	230.20
829.27	230.08
829.58	230.08
829.90	230.15
830.22	230.16
830.53	230.12
830.85	230.03
831.17	229.91
831.48	229.85
831.80	229.90
832.11	229.82
832.43	229.82
832.75	229.81
833.06	229.94
833.38	229.91
833.69	229.90
834.01	229.85
834.32	229.75
834.64	229.70
834.96	229.63
835.27	229.46
835.59	229.33
835.90	229.28
836.22	229.23
836.53	229.14
836.85	229.17
837.16	229.30
837.48	229.47
837.79	229.47
838.11	229.56
838.42	229.48
838.74	229.51
839.05	229.47
839.37	229.43
839.68	229.29
840.00	229.28
840.31	229.28
840.63	229.28
840.94	229.28
841.26	229.32
841.57	229.32
841.88	229.28
842.20	229.22
842.51	229.20
842.83	229.22
843.14	229.35
843.46	229.29
843.77	229.26
844.08	229.04
844.40	229.03
844.71	228.89
845.03	228.90
845.34	228.94
845.65	228.92
845.97	228.88
846.28	228.90
846.60	228.95
846.91	228.90
847.22	228.94
847.54	229.06
847.85	229.07
848.16	229.15
848.48	229.18
848.79	229.26
849.10	229.28
849.42	229.20
849.73	229.08
850.04	229.03
850.36	228.86
850.67	228.90
850.98	228.92
851.30	228.96
851.61	229.03
851.92	228.93
852.23	228.97
852.55	229.04
852.86	229.01
853.17	228.97
853.49	229.11
853.80	229.14
854.11	229.09
854.42	229.15
854.74	229.03
855.05	229.05
855.36	228.92
855.67	228.96
855.99	228.98
856.30	229.26
856.61	229.24
856.92	229.30
857.23	229.38
857.55	229.32
857.86	229.35
858.17	229.25
858.48	229.26
858.79	229.28
859.11	229.20
859.42	229.27
859.73	229.28
860.04	229.16
860.35	229.01
860.66	228.99
860.98	228.91
861.29	228.90
861.60	228.91
861.91	228.99
862.22	228.94
862.53	228.93
862.84	228.73
863.16	228.78
863.47	228.80
863.78	228.77
864.09	228.70
864.40	228.78
864.71	228.76
865.02	228.79
865.33	228.70
865.64	228.75
865.95	228.80
866.27	228.96
866.58	228.95
866.89	229.05
867.20	229.03
867.51	229.03
867.82	229.08
868.13	229.00
868.44	228.99
868.75	229.09
869.06	229.07
869.37	228.97
869.68	228.96
869.99	228.96
870.30	228.93
870.61	229.00
870.92	228.88
871.23	228.93
871.54	228.91
871.85	228.95
872.16	228.98
872.47	228.90
872.78	228.75
873.09	228.75
873.40	228.62
873.71	228.56
874.02	228.69
874.33	228.62
874.64	228.73
874.95	228.70
875.26	228.63
875.56	228.56
875.87	228.59
876.18	228.59
876.49	228.71
876.80	228.70
877.11	228.69
877.42	228.74
877.73	228.81
878.04	228.80
878.35	228.80
878.66	228.77
878.96	228.77
879.27	228.73
879.58	228.69
879.89	228.75
880.20	228.87
880.51	228.72
880.82	228.70
881.12	228.65
881.43	228.60
881.74	228.66
882.05	228.68
882.36	228.68
882.67	228.66
882.97	228.56
883.28	228.66
883.59	228.62
883.90	228.57
884.21	228.41
884.51	228.42
884.82	228.29
885.13	228.26
885.44	228.20
885.74	228.20
886.05	228.28
886.36	228.23
886.67	228.13
886.98	228.21
887.28	228.27
887.59	228.30
887.90	228.32
888.20	228.28
888.51	228.32
888.82	228.26
889.13	228.30
889.43	228.36
889.74	228.20
890.05	228.25
890.35	228.26
890.66	228.37
890.97	228.33
891.28	228.40
891.58	228.41
891.89	228.46
892.20	228.50
892.50	228.47
892.81	228.59
893.12	228.63
893.42	228.56
893.73	228.54
894.04	228.46
894.34	228.38
894.65	228.33
894.95	228.40
895.26	228.49
895.57	228.54
895.87	228.40
896.18	228.50
896.48	228.43
896.79	228.46
897.10	228.32
897.40	228.33
897.71	228.36
898.01	228.33
898.32	228.37
898.63	228.30
898.93	228.29
899.24	228.17
899.54	228.16
899.85	228.20
900.15	228.25
900.46	228.31
900.76	228.37
901.07	228.31
901.38	228.33
901.68	228.32
901.99	228.22
902.29	228.22
902.60	228.21
902.90	228.19
903.21	228.09
903.51	228.30
903.82	228.38
904.12	228.42
904.43	228.39
904.73	228.40
905.03	228.45
905.34	228.58
905.64	228.58
905.95	228.43
906.25	228.42
906.56	228.39
906.86	228.43
907.17	228.44
907.47	228.41
907.77	228.35
908.08	228.22
908.38	228.20
908.69	228.21
908.99	228.28
909.30	228.42
909.60	228.38
909.90	228.30
910.21	228.22
910.51	228.19
910.81	228.19
911.12	228.04
911.42	227.97
911.73	227.81
912.03	227.73
912.33	227.85
912.64	227.81
912.94	227.80
913.24	227.67
913.55	227.66
913.85	227.66
914.15	227.63
914.46	227.61
914.76	227.50
915.06	227.41
915.37	227.30
915.67	227.24
915.97	227.29
916.27	227.25
916.58	227.29
916.88	227.26
917.18	227.38
917.49	227.67
917.79	227.66
918.09	227.69
918.39	227.89
918.70	227.95
919.00	227.98
919.30	228.07
919.60	228.06
919.91	228.07
920.21	228.11
920.51	228.08
920.81	228.15
921.12	228.29
921.42	228.39
921.72	228.38
922.02	228.41
922.32	228.48
922.63	228.43
922.93	228.46
923.23	228.48
923.53	228.39
923.83	228.14
924.13	228.26
924.44	228.29
924.74	228.21
925.04	228.22
925.34	228.15
925.64	228.17
925.94	228.29
926.24	228.31
926.55	228.39
926.85	228.49
927.15	228.58
927.45	228.50
927.75	228.45
928.05	228.53
928.35	228.44
928.65	228.50
928.95	228.60
929.26	228.53
929.56	228.63
929.86	228.78
930.16	228.85
930.46	228.84
930.76	228.83
931.06	228.83
931.36	228.77
931.66	228.82
931.96	228.76
932.26	228.69
932.56	228.75
932.86	228.80
933.16	228.82
933.46	228.73
933.76	228.77
934.06	228.91
934.36	228.99
934.66	229.00
934.96	229.01
935.26	228.99
935.56	229.05
935.86	228.93
936.16	228.77
936.46	228.74
936.76	228.69
937.06	228.71
937.36	228.70
937.66	228.82
937.96	228.84
938.26	228.79
938.56	228.82
938.86	228.78
939.16	228.80
939.46	228.71
939.76	228.75
940.06	228.83
940.35	228.76
940.65	228.53
940.95	228.53
941.25	228.44
941.55	228.39
941.85	228.35
942.15	228.43
942.45	228.50
942.75	228.50
943.04	228.48
943.34	228.41
943.64	228.37
943.94	228.17
944.24	228.14
944.54	228.06
944.84	227.95
945.13	227.89
945.43	227.84
945.73	227.88
946.03	227.88
946.33	227.84
946.62	227.78
946.92	227.82
947.22	227.85
947.52	227.80
947.82	227.86
948.11	227.90
948.41	227.85
948.71	227.79
949.01	227.78
949.31	227.90
949.60	227.94
949.90	228.01
950.20	228.10
950.50	228.12
950.79	228.23
951.09	228.37
951.39	228.39
951.69	228.37
951.98	228.39
952.28	228.37
952.58	228.37
952.87	228.39
953.17	228.49
953.47	228.50
953.76	228.50
954.06	228.53
954.36	228.38
954.66	228.39
954.95	228.51
955.25	228.60
955.55	228.48
955.84	228.45
956.14	228.47
956.44	228.44
956.73	228.44
957.03	228.43
957.32	228.37
957.62	228.48
957.92	228.54
958.21	228.55
958.51	228.81
958.81	228.74
959.10	228.74
959.40	228.78
959.69	228.80
959.99	228.94
960.29	228.83
960.58	228.87
960.88	229.04
961.17	228.92
961.47	228.90
961.76	228.86
962.06	228.90
962.36	228.87
962.65	228.92
962.95	228.86
963.24	228.83
963.54	228.78
963.83	228.70
964.13	228.64
964.42	228.55
964.72	228.43
965.01	228.45
965.31	228.45
965.60	228.39
965.90	228.38
966.19	228.32
966.49	228.38
966.78	228.34
967.08	228.26
967.37	228.39
967.67	228.26
967.96	228.28
968.26	228.22
968.55	228.24
968.85	228.23
969.14	228.26
969.43	228.33
969.73	228.39
970.02	228.29
970.32	228.25
970.61	228.24
970.91	228.13
971.20	228.09
971.49	228.03
971.79	227.98
972.08	227.93
972.38	227.74
972.67	227.70
972.96	227.70
973.26	227.54
973.55	227.41
973.85	227.37
974.14	227.38
974.43	227.38
974.73	227.32
975.02	227.28
975.31	227.25
975.61	227.26
975.90	227.30
976.19	227.39
976.49	227.50
976.78	227.54
977.07	227.48
977.37	227.47
977.66	227.56
977.95	227.50
978.24	227.41
978.54	227.50
978.83	227.58
979.12	227.62
979.42	227.75
979.71	227.87
980.00	227.90
980.29	227.96
980.59	228.01
980.88	228.08
981.17	228.16
981.46	228.17
981.76	228.17
982.05	228.11
982.34	228.03
982.63	227.96
982.93	227.93
983.22	228.04
983.51	228.12
983.80	228.18
984.09	228.27
984.39	228.41
984.68	228.45
984.97	228.42
985.26	228.40
985.55	228.33
985.85	228.12
986.14	228.20
986.43	228.21
986.72	228.16
987.01	228.19
987.30	228.17
987.59	228.26
987.89	228.16
988.18	228.17
988.47	228.24
988.76	228.26
989.05	228.24
989.34	228.26
989.63	228.32
989.92	228.30
990.22	228.31
990.51	228.32
990.80	228.34
991.09	228.37
991.38	228.40
991.67	228.48
991.96	228.57
992.25	228.58
992.54	228.59
992.83	228.65
993.12	228.53
993.41	228.60
993.70	228.64
993.99	228.74
994.28	228.86
994.58	228.89
994.87	228.90
995.16	229.01
995.45	228.92
995.74	228.80
996.03	228.82
996.32	228.85
996.61	228.84
996.90	228.86
997.19	228.81
997.48	228.84
997.77	228.84
998.06	228.87
998.34	228.83
998.63	228.80
998.92	228.82
999.21	228.92
999.50	228.96
999.79	228.89
1000.08	228.83
1000.37	228.69
1000.66	228.68
1000.95	228.66
1001.24	228.64
1001.53	228.73
1001.82	228.79
1002.11	228.73
1002.40	228.69
1002.68	228.72
1002.97	228.81
1003.26	228.78
1003.55	228.75
1003.84	228.76
1004.13	228.87
1004.42	228.91
1004.71	228.84
1004.99	228.75
1005.28	228.69
1005.57	228.57
1005.86	228.42
1006.15	228.43
1006.44	228.47
1006.72	228.40
1007.01	228.37
1007.30	228.33
1007.59	228.32
1007.88	228.23
1008.17	228.26
1008.45	228.24
1008.74	228.16
1009.03	227.99
1009.32	227.99
1009.60	227.93
1009.89	227.87
1010.18	227.70
1010.47	227.61
1010.76	227.68
1011.04	227.65
1011.33	227.70
1011.62	227.76
1011.91	227.89
1012.19	227.89
1012.48	227.80
1012.77	227.83
1013.05	227.95
1013.34	227.95
1013.63	227.94
1013.92	227.91
1014.20	227.84
1014.49	227.80
1014.78	227.80
1015.06	227.73
1015.35	227.69
1015.64	227.76
1015.92	227.70
1016.21	227.75
1016.50	227.77
1016.78	227.79
1017.07	227.75
1017.36	227.74
1017.64	227.60
1017.93	227.57
1018.22	227.62
1018.50	227.67
1018.79	227.60
1019.08	227.44
1019.36	227.35
1019.65	227.23
1019.93	227.40
1020.22	227.43
1020.51	227.50
1020.79	227.41
1021.08	229.40
1021.36	228.00
1021.65	226.40
1021.94	226.60
1022.22	226.80
1022.51	226.50
1022.79	229.80
1023.08	228.30
1023.36	228.50
1023.65	225.30
>>>>>End Processed Spectral Data<<<<<
