SpectraSuite Data File
++++++++++++++++++++++++++++++++++++
Date: Fri Feb 01 14:38:00 EST 2013
User: group
Dark Spectrum Present: No
Reference Spectrum Present: No
Number of Sampled Component Spectra: 1
Spectrometers: USB2E7196
Integration Time (usec): 70000 (USB2E7196)
Spectra Averaged: 10 (USB2E7196)
Boxcar Smoothing: 10 (USB2E7196)
Correct for Electrical Dark: No (USB2E7196)
Strobe/Lamp Enabled: No (USB2E7196)
Correct for Detector Non-linearity: No (USB2E7196)
Correct for Stray Light: No (USB2E7196)
Number of Pixels in Processed Spectrum: 2048
>>>>>Begin Processed Spectral Data<<<<<
339.09	0.00
339.48	216.70
339.86	218.20
340.24	220.50
340.63	219.00
341.01	225.10
341.39	223.80
341.78	223.20
342.16	226.90
342.54	225.20
342.93	214.91
343.31	225.86
343.69	226.44
344.07	226.94
344.46	227.27
344.84	227.71
345.22	227.91
345.60	228.06
345.99	228.29
346.37	228.40
346.75	228.57
347.13	228.59
347.52	228.49
347.90	228.46
348.28	228.41
348.66	228.49
349.05	228.50
349.43	228.57
349.81	228.48
350.19	228.48
350.57	228.53
350.96	228.51
351.34	228.44
351.72	228.42
352.10	228.43
352.48	228.47
352.87	228.48
353.25	228.45
353.63	228.65
354.01	228.69
354.39	228.67
354.77	228.57
355.15	228.60
355.54	228.58
355.92	228.62
356.30	228.64
356.68	228.75
357.06	228.77
357.44	228.83
357.82	229.01
358.20	229.14
358.58	229.12
358.97	229.19
359.35	229.22
359.73	229.27
360.11	229.33
360.49	229.39
360.87	229.40
361.25	229.51
361.63	229.50
362.01	229.59
362.39	229.63
362.77	229.87
363.15	229.94
363.53	229.96
363.91	230.03
364.29	230.13
364.67	229.97
365.05	230.00
365.43	230.08
365.81	229.98
366.19	230.10
366.57	230.19
366.95	230.19
367.33	230.16
367.71	230.09
368.09	230.04
368.47	230.06
368.85	230.02
369.23	229.98
369.61	229.88
369.99	229.94
370.37	229.91
370.75	229.91
371.13	229.82
371.51	229.79
371.89	229.70
372.27	229.54
372.65	229.53
373.03	229.45
373.41	229.35
373.78	229.35
374.16	229.16
374.54	229.09
374.92	228.88
375.30	228.85
375.68	228.84
376.06	228.80
376.44	228.69
376.82	228.70
377.19	228.65
377.57	228.54
377.95	228.36
378.33	228.30
378.71	228.11
379.09	228.02
379.47	228.04
379.84	227.87
380.22	227.88
380.60	227.72
380.98	227.62
381.36	227.42
381.73	227.33
382.11	227.24
382.49	227.08
382.87	227.10
383.25	226.96
383.62	227.17
384.00	226.97
384.38	227.00
384.76	226.93
385.13	226.85
385.51	226.80
385.89	226.71
386.27	226.55
386.64	226.45
387.02	226.50
387.40	226.45
387.78	226.51
388.15	226.41
388.53	226.47
388.91	226.37
389.29	226.36
389.66	226.38
390.04	226.37
390.42	226.38
390.79	226.35
391.17	226.41
391.55	226.04
391.92	226.03
392.30	225.95
392.68	225.82
393.05	225.95
393.43	226.01
393.81	225.98
394.18	226.04
394.56	226.00
394.94	226.01
395.31	225.88
395.69	225.96
396.06	226.02
396.44	226.08
396.82	226.18
397.19	226.32
397.57	226.29
397.95	226.37
398.32	226.31
398.70	226.43
399.07	226.59
399.45	226.72
399.82	226.85
400.20	226.93
400.58	227.07
400.95	227.02
401.33	227.17
401.70	227.38
402.08	227.41
402.45	227.60
402.83	227.72
403.20	227.94
403.58	228.04
403.95	228.29
404.33	228.40
404.71	228.65
405.08	228.93
405.46	229.07
405.83	229.31
406.21	229.70
406.58	229.96
406.96	230.16
407.33	230.40
407.70	230.74
408.08	231.13
408.45	231.54
408.83	231.76
409.20	231.98
409.58	232.20
409.95	232.74
410.33	233.12
410.70	233.50
411.08	233.89
411.45	234.33
411.82	234.65
412.20	235.19
412.57	235.72
412.95	236.04
413.32	236.73
413.69	237.22
414.07	237.67
414.44	238.27
414.82	238.93
415.19	239.69
415.56	240.45
415.94	241.13
416.31	241.93
416.68	242.88
417.06	243.98
417.43	244.98
417.81	245.95
418.18	247.15
418.55	248.29
418.93	249.55
419.30	250.79
419.67	252.08
420.04	253.39
420.42	254.73
420.79	256.45
421.16	258.09
421.54	259.78
421.91	261.57
422.28	263.43
422.66	265.36
423.03	267.43
423.40	269.40
423.77	271.53
424.15	273.65
424.52	275.76
424.89	278.06
425.26	280.34
425.64	282.60
426.01	284.87
426.38	287.48
426.75	290.03
427.13	292.70
427.50	295.52
427.87	298.40
428.24	301.33
428.61	304.07
428.99	306.99
429.36	310.26
429.73	313.47
430.10	316.51
430.47	319.69
430.85	322.81
431.22	326.30
431.59	330.08
431.96	333.60
432.33	337.68
432.70	341.47
433.08	345.92
433.45	350.02
433.82	354.09
434.19	358.58
434.56	363.08
434.93	367.35
435.30	371.54
435.68	376.38
436.05	380.97
436.42	385.60
436.79	389.89
437.16	394.40
437.53	399.08
437.90	403.79
438.27	408.47
438.64	413.09
439.01	417.61
439.38	421.67
439.75	425.47
440.13	429.72
440.50	433.90
440.87	437.49
441.24	440.87
441.61	444.94
441.98	447.84
442.35	451.35
442.72	454.95
443.09	458.39
443.46	460.49
443.83	462.00
444.20	463.25
444.57	465.09
444.94	466.25
445.31	467.56
445.68	468.76
446.05	469.40
446.42	469.46
446.79	469.14
447.16	468.65
447.53	468.85
447.90	467.59
448.27	466.18
448.64	463.88
449.01	462.85
449.37	460.19
449.74	457.50
450.11	454.26
450.48	450.54
450.85	446.88
451.22	443.65
451.59	440.66
451.96	437.90
452.33	434.01
452.70	430.40
453.07	426.08
453.43	421.75
453.80	417.64
454.17	413.67
454.54	409.93
454.91	405.86
455.28	401.57
455.65	397.61
456.02	393.80
456.38	390.61
456.75	386.31
457.12	382.71
457.49	379.27
457.86	375.78
458.23	372.83
458.59	369.64
458.96	366.40
459.33	363.54
459.70	360.58
460.07	358.18
460.43	355.53
460.80	352.91
461.17	350.48
461.54	347.87
461.91	345.49
462.27	343.03
462.64	340.87
463.01	338.70
463.38	336.66
463.74	334.40
464.11	332.42
464.48	330.68
464.85	328.70
465.21	327.30
465.58	325.78
465.95	323.94
466.32	322.32
466.68	320.66
467.05	319.18
467.42	317.53
467.78	315.86
468.15	314.25
468.52	312.97
468.88	311.49
469.25	310.21
469.62	309.09
469.98	307.79
470.35	306.82
470.72	305.76
471.08	304.60
471.45	303.58
471.82	302.46
472.18	301.39
472.55	300.67
472.92	299.70
473.28	298.82
473.65	297.86
474.02	296.91
474.38	296.22
474.75	295.46
475.11	294.89
475.48	294.32
475.85	293.61
476.21	292.99
476.58	292.41
476.94	291.88
477.31	291.36
477.67	291.00
478.04	290.47
478.41	290.00
478.77	289.84
479.14	289.37
479.50	289.12
479.87	288.88
480.23	288.60
480.60	288.34
480.96	287.95
481.33	287.91
481.69	287.84
482.06	287.71
482.42	287.45
482.79	287.23
483.15	287.10
483.52	287.17
483.88	287.11
484.25	287.15
484.61	287.10
484.98	287.12
485.34	287.22
485.71	287.22
486.07	287.32
486.44	287.10
486.80	287.24
487.17	287.40
487.53	287.60
487.90	287.80
488.26	288.01
488.62	288.34
488.99	288.50
489.35	288.60
489.72	288.84
490.08	289.20
490.44	289.49
490.81	289.86
491.17	290.18
491.54	290.61
491.90	290.86
492.26	291.30
492.63	291.62
492.99	291.85
493.36	292.39
493.72	292.81
494.08	293.26
494.45	293.72
494.81	294.13
495.17	294.50
495.54	294.84
495.90	295.28
496.26	295.75
496.63	296.29
496.99	296.96
497.35	297.42
497.72	297.84
498.08	298.37
498.44	298.96
498.80	299.43
499.17	299.81
499.53	300.36
499.89	300.87
500.26	301.42
500.62	301.98
500.98	302.46
501.34	302.85
501.71	303.40
502.07	303.76
502.43	304.30
502.79	304.60
503.16	305.08
503.52	305.31
503.88	305.60
504.24	305.81
504.60	306.05
504.97	306.38
505.33	306.65
505.69	306.90
506.05	307.04
506.41	307.24
506.78	307.40
507.14	307.47
507.50	307.64
507.86	307.86
508.22	308.03
508.59	308.01
508.95	308.18
509.31	308.30
509.67	308.60
510.03	308.76
510.39	309.05
510.75	309.20
511.12	309.36
511.48	309.50
511.84	309.77
512.20	310.01
512.56	310.28
512.92	310.57
513.28	310.83
513.64	311.08
514.00	311.40
514.37	311.75
514.73	312.14
515.09	312.39
515.45	312.74
515.81	313.11
516.17	313.66
516.53	314.16
516.89	314.70
517.25	315.16
517.61	315.60
517.97	316.28
518.33	317.00
518.69	317.78
519.05	318.48
519.41	319.36
519.77	320.27
520.13	321.20
520.49	322.19
520.85	323.09
521.21	324.20
521.57	325.50
521.93	326.51
522.29	327.94
522.65	329.39
523.01	330.69
523.37	332.11
523.73	333.59
524.09	335.17
524.45	336.77
524.81	338.46
525.17	340.50
525.53	342.37
525.89	344.28
526.25	346.37
526.61	348.54
526.97	350.78
527.33	353.22
527.68	355.69
528.04	358.16
528.40	360.84
528.76	363.49
529.12	366.21
529.48	369.28
529.84	372.10
530.20	375.04
530.56	378.09
530.91	381.39
531.27	384.52
531.63	387.80
531.99	391.09
532.35	394.62
532.71	397.93
533.07	401.71
533.42	405.70
533.78	409.57
534.14	413.47
534.50	417.21
534.86	421.15
535.21	425.13
535.57	429.39
535.93	433.70
536.29	438.15
536.65	442.31
537.00	446.63
537.36	451.19
537.72	455.81
538.08	460.67
538.44	465.18
538.79	470.00
539.15	474.76
539.51	479.76
539.87	484.61
540.22	489.61
540.58	494.33
540.94	499.05
541.29	503.90
541.65	508.80
542.01	514.10
542.37	519.20
542.72	524.14
543.08	529.27
543.44	534.34
543.79	539.07
544.15	544.27
544.51	549.52
544.87	554.71
545.22	560.01
545.58	565.01
545.94	570.36
546.29	575.87
546.65	581.22
547.01	586.45
547.36	591.84
547.72	597.20
548.07	602.55
548.43	607.82
548.79	613.12
549.14	618.55
549.50	623.58
549.86	628.68
550.21	634.01
550.57	639.31
550.92	644.42
551.28	649.93
551.64	655.23
551.99	660.84
552.35	665.96
552.70	671.26
553.06	676.77
553.41	682.04
553.77	686.96
554.13	692.18
554.48	697.50
554.84	702.81
555.19	707.82
555.55	713.18
555.90	718.19
556.26	723.17
556.61	728.26
556.97	733.20
557.32	738.16
557.68	743.14
558.03	747.98
558.39	752.86
558.74	757.79
559.10	762.68
559.45	767.24
559.81	772.30
560.16	776.82
560.52	781.14
560.87	785.86
561.23	790.55
561.58	795.07
561.94	799.50
562.29	803.59
562.64	807.78
563.00	811.79
563.35	816.42
563.71	821.28
564.06	825.44
564.42	830.01
564.77	834.46
565.12	838.86
565.48	843.22
565.83	847.36
566.19	851.54
566.54	855.50
566.89	859.39
567.25	863.12
567.60	867.02
567.96	870.97
568.31	874.55
568.66	878.26
569.02	881.97
569.37	885.28
569.72	888.73
570.08	892.22
570.43	895.75
570.78	898.66
571.14	901.19
571.49	904.38
571.84	907.39
572.20	909.86
572.55	912.60
572.90	914.91
573.26	917.63
573.61	920.18
573.96	922.73
574.31	924.72
574.67	926.68
575.02	928.74
575.37	930.64
575.72	932.34
576.08	934.12
576.43	935.53
576.78	937.29
577.13	939.16
577.49	940.85
577.84	942.20
578.19	943.64
578.54	944.93
578.90	946.27
579.25	947.01
579.60	948.15
579.95	949.03
580.30	949.98
580.66	950.77
581.01	951.07
581.36	951.69
581.71	952.52
582.06	953.44
582.42	954.09
582.77	954.82
583.12	955.16
583.47	955.54
583.82	956.24
584.17	956.41
584.53	956.71
584.88	957.14
585.23	957.31
585.58	957.56
585.93	957.75
586.28	957.80
586.63	958.13
586.98	958.53
587.34	958.56
587.69	958.58
588.04	958.38
588.39	958.55
588.74	958.12
589.09	958.22
589.44	957.59
589.79	957.25
590.14	956.91
590.49	957.00
590.84	956.38
591.19	955.76
591.54	955.25
591.89	953.95
592.25	953.18
592.60	952.13
592.95	951.28
593.30	950.44
593.65	949.28
594.00	948.11
594.35	947.26
594.70	945.83
595.05	944.68
595.40	943.42
595.75	942.01
596.10	940.97
596.45	939.73
596.80	939.00
597.15	937.88
597.50	936.46
597.85	935.14
598.19	934.19
598.54	933.08
598.89	931.80
599.24	931.09
599.59	929.50
599.94	928.22
600.29	926.68
600.64	925.08
600.99	923.46
601.34	922.13
601.69	920.08
602.04	918.52
602.39	917.12
602.74	915.90
603.08	914.68
603.43	913.20
603.78	911.21
604.13	909.28
604.48	907.08
604.83	905.52
605.18	903.73
605.53	901.39
605.87	899.36
606.22	897.88
606.57	895.67
606.92	894.04
607.27	892.40
607.62	890.59
607.96	888.86
608.31	887.11
608.66	884.90
609.01	882.64
609.36	880.55
609.70	877.65
610.05	875.17
610.40	872.48
610.75	869.86
611.10	867.54
611.44	864.50
611.79	862.17
612.14	859.25
612.49	856.10
612.83	853.60
613.18	850.66
613.53	847.57
613.88	844.64
614.22	841.49
614.57	838.28
614.92	835.24
615.27	832.40
615.61	829.36
615.96	826.56
616.31	823.89
616.65	821.31
617.00	818.78
617.35	815.97
617.70	813.15
618.04	810.00
618.39	806.98
618.74	804.56
619.08	801.71
619.43	798.93
619.78	796.52
620.12	793.99
620.47	791.20
620.82	788.35
621.16	785.59
621.51	782.97
621.85	780.27
622.20	777.28
622.55	774.19
622.89	771.54
623.24	768.67
623.59	766.05
623.93	763.38
624.28	760.73
624.62	758.17
624.97	755.65
625.32	753.26
625.66	750.83
626.01	748.03
626.35	745.19
626.70	742.57
627.04	739.66
627.39	736.61
627.73	733.92
628.08	731.01
628.43	728.20
628.77	725.09
629.12	722.12
629.46	719.51
629.81	716.60
630.15	713.37
630.50	710.37
630.84	707.04
631.19	703.71
631.53	700.64
631.88	697.32
632.22	693.89
632.57	691.08
632.91	687.83
633.26	684.77
633.60	681.61
633.95	678.55
634.29	675.63
634.64	672.74
634.98	669.63
635.32	667.10
635.67	664.56
636.01	661.90
636.36	659.25
636.70	656.51
637.05	654.02
637.39	651.63
637.73	649.10
638.08	646.71
638.42	644.21
638.77	641.64
639.11	638.92
639.45	636.44
639.80	633.53
640.14	630.93
640.49	628.35
640.83	625.79
641.17	623.30
641.52	620.69
641.86	617.75
642.20	615.31
642.55	612.33
642.89	609.81
643.23	607.10
643.58	604.44
643.92	601.71
644.26	599.08
644.61	596.47
644.95	593.88
645.29	591.00
645.64	588.09
645.98	585.43
646.32	583.03
646.66	580.37
647.01	577.65
647.35	575.04
647.69	572.36
648.04	569.96
648.38	566.89
648.72	564.24
649.06	561.83
649.41	559.19
649.75	556.38
650.09	553.44
650.43	550.68
650.78	548.04
651.12	545.35
651.46	542.72
651.80	540.03
652.14	537.37
652.49	535.07
652.83	532.61
653.17	529.87
653.51	527.13
653.85	524.64
654.20	522.22
654.54	519.51
654.88	516.95
655.22	514.18
655.56	511.80
655.90	509.24
656.25	506.68
656.59	504.08
656.93	501.72
657.27	499.39
657.61	496.93
657.95	494.58
658.29	492.21
658.64	489.76
658.98	487.10
659.32	484.44
659.66	481.78
660.00	479.32
660.34	477.16
660.68	474.85
661.02	472.24
661.36	469.87
661.70	467.70
662.05	465.78
662.39	463.84
662.73	461.71
663.07	459.69
663.41	457.77
663.75	455.65
664.09	453.63
664.43	451.36
664.77	449.46
665.11	447.27
665.45	445.41
665.79	443.30
666.13	441.56
666.47	439.71
666.81	437.76
667.15	435.77
667.49	433.58
667.83	431.69
668.17	429.95
668.51	427.96
668.85	426.04
669.19	423.98
669.53	421.85
669.87	419.98
670.21	417.97
670.55	416.11
670.89	414.44
671.23	412.59
671.57	410.94
671.91	409.30
672.25	407.67
672.58	405.89
672.92	404.32
673.26	402.69
673.60	401.29
673.94	399.72
674.28	398.39
674.62	396.93
674.96	395.31
675.30	393.79
675.64	392.31
675.97	390.86
676.31	389.33
676.65	387.88
676.99	386.54
677.33	385.14
677.67	383.69
678.01	382.15
678.34	380.79
678.68	379.48
679.02	377.93
679.36	376.48
679.70	374.95
680.04	373.40
680.37	371.82
680.71	370.26
681.05	368.99
681.39	367.60
681.73	366.40
682.06	365.09
682.40	363.85
682.74	362.66
683.08	361.50
683.42	360.14
683.75	358.98
684.09	357.57
684.43	356.29
684.77	354.95
685.10	353.78
685.44	352.58
685.78	351.31
686.12	350.11
686.45	348.88
686.79	347.81
687.13	346.80
687.46	345.65
687.80	344.53
688.14	343.27
688.48	342.01
688.81	340.75
689.15	339.63
689.49	338.49
689.82	337.19
690.16	335.84
690.50	334.84
690.83	333.80
691.17	332.68
691.51	331.66
691.84	330.62
692.18	329.53
692.52	328.35
692.85	327.20
693.19	326.18
693.52	325.08
693.86	323.91
694.20	322.73
694.53	321.71
694.87	320.61
695.21	319.59
695.54	318.61
695.88	317.52
696.21	316.57
696.55	315.60
696.88	314.70
697.22	313.81
697.56	312.80
697.89	311.83
698.23	310.90
698.56	309.90
698.90	308.97
699.23	308.03
699.57	307.20
699.90	306.27
700.24	305.37
700.58	304.58
700.91	303.76
701.25	303.06
701.58	302.21
701.92	301.44
702.25	300.71
702.59	299.85
702.92	299.25
703.26	298.43
703.59	297.62
703.93	297.04
704.26	296.33
704.60	295.60
704.93	294.83
705.26	294.14
705.60	293.44
705.93	292.63
706.27	292.04
706.60	291.47
706.94	290.90
707.27	290.18
707.61	289.56
707.94	288.94
708.27	288.17
708.61	287.52
708.94	286.82
709.28	286.13
709.61	285.56
709.94	284.96
710.28	284.36
710.61	283.74
710.95	283.06
711.28	282.53
711.61	281.90
711.95	281.47
712.28	280.94
712.61	280.32
712.95	279.90
713.28	279.32
713.61	278.63
713.95	278.00
714.28	277.49
714.61	276.82
714.95	276.27
715.28	275.75
715.61	275.30
715.95	274.81
716.28	274.20
716.61	273.80
716.95	273.25
717.28	272.85
717.61	272.37
717.94	271.88
718.28	271.33
718.61	270.84
718.94	270.28
719.27	269.86
719.61	269.45
719.94	268.96
720.27	268.48
720.60	268.07
720.94	267.71
721.27	267.30
721.60	267.00
721.93	266.61
722.27	266.29
722.60	265.91
722.93	265.60
723.26	265.25
723.59	264.70
723.93	264.41
724.26	263.96
724.59	263.65
724.92	263.37
725.25	262.99
725.59	262.57
725.92	262.21
726.25	261.81
726.58	261.59
726.91	261.29
727.24	261.00
727.57	260.64
727.91	260.21
728.24	259.95
728.57	259.55
728.90	259.24
729.23	258.88
729.56	258.57
729.89	258.14
730.22	257.90
730.55	257.67
730.89	257.35
731.22	257.15
731.55	256.82
731.88	256.40
732.21	256.12
732.54	255.93
732.87	255.53
733.20	255.19
733.53	254.76
733.86	254.47
734.19	254.07
734.52	253.82
734.85	253.78
735.18	253.47
735.51	253.35
735.84	253.02
736.17	252.79
736.50	252.37
736.83	252.33
737.16	251.95
737.49	251.67
737.82	251.31
738.15	250.97
738.48	250.68
738.81	250.46
739.14	250.17
739.47	249.94
739.80	249.75
740.13	249.53
740.46	249.23
740.79	248.97
741.12	248.77
741.45	248.61
741.78	248.20
742.11	247.96
742.44	247.54
742.77	247.33
743.10	247.07
743.43	246.97
743.75	246.53
744.08	246.65
744.41	246.40
744.74	246.19
745.07	246.00
745.40	245.84
745.73	245.74
746.06	245.62
746.39	245.48
746.71	245.18
747.04	244.94
747.37	244.75
747.70	244.55
748.03	244.35
748.36	244.08
748.68	243.85
749.01	243.61
749.34	243.55
749.67	243.43
750.00	243.23
750.33	243.13
750.65	243.05
750.98	242.60
751.31	242.47
751.64	242.30
751.97	242.17
752.29	241.99
752.62	241.67
752.95	241.49
753.28	241.27
753.60	241.21
753.93	241.00
754.26	240.86
754.59	240.59
754.91	240.46
755.24	240.30
755.57	240.18
755.90	240.05
756.22	239.86
756.55	239.60
756.88	239.55
757.20	239.34
757.53	239.15
757.86	239.06
758.19	239.04
758.51	238.95
758.84	238.75
759.17	238.69
759.49	238.63
759.82	238.54
760.15	238.39
760.47	238.31
760.80	238.25
761.13	238.30
761.45	238.22
761.78	238.14
762.11	238.13
762.43	238.04
762.76	237.95
763.08	237.93
763.41	237.95
763.74	237.84
764.06	237.75
764.39	237.65
764.71	237.63
765.04	237.45
765.37	237.26
765.69	237.17
766.02	237.01
766.34	236.90
766.67	236.77
767.00	236.80
767.32	236.85
767.65	236.96
767.97	236.84
768.30	236.83
768.62	236.71
768.95	236.57
769.27	236.53
769.60	236.47
769.92	236.27
770.25	236.11
770.57	236.02
770.90	235.96
771.22	235.89
771.55	235.78
771.87	235.66
772.20	235.77
772.52	235.91
772.85	236.06
773.17	235.90
773.50	235.69
773.82	235.55
774.15	235.34
774.47	235.06
774.80	235.01
775.12	234.91
775.45	234.89
775.77	234.78
776.09	234.75
776.42	234.65
776.74	234.68
777.07	234.60
777.39	234.45
777.72	234.27
778.04	234.23
778.36	234.18
778.69	234.16
779.01	233.97
779.33	233.69
779.66	233.40
779.98	233.42
780.31	233.48
780.63	233.46
780.95	233.45
781.28	233.40
781.60	233.33
781.92	233.26
782.25	233.15
782.57	233.11
782.89	233.00
783.22	233.00
783.54	232.91
783.86	232.93
784.19	232.94
784.51	233.05
784.83	232.89
785.16	232.80
785.48	232.70
785.80	232.65
786.12	232.63
786.45	232.49
786.77	232.43
787.09	232.35
787.42	232.30
787.74	232.15
788.06	232.10
788.38	232.00
788.71	231.95
789.03	231.88
789.35	231.81
789.67	231.78
789.99	231.72
790.32	231.64
790.64	231.62
790.96	231.71
791.28	231.56
791.61	231.47
791.93	231.40
792.25	231.37
792.57	231.45
792.89	231.42
793.21	231.48
793.54	231.42
793.86	231.46
794.18	231.39
794.50	231.38
794.82	231.29
795.14	231.18
795.47	231.16
795.79	231.26
796.11	231.15
796.43	231.00
796.75	230.99
797.07	230.98
797.39	230.86
797.71	230.66
798.04	230.58
798.36	230.67
798.68	230.69
799.00	230.70
799.32	230.70
799.64	230.68
799.96	230.71
800.28	230.72
800.60	230.57
800.92	230.61
801.24	230.63
801.56	230.62
801.89	230.68
802.21	230.73
802.53	230.64
802.85	230.73
803.17	230.87
803.49	230.81
803.81	230.78
804.13	230.73
804.45	230.72
804.77	230.75
805.09	230.78
805.41	230.76
805.73	230.76
806.05	230.64
806.37	230.65
806.69	230.56
807.01	230.55
807.33	230.67
807.65	230.55
807.97	230.68
808.28	230.80
808.60	230.83
808.92	230.73
809.24	230.85
809.56	230.86
809.88	230.80
810.20	230.85
810.52	230.85
810.84	230.93
811.16	230.96
811.48	231.08
811.80	230.96
812.12	230.96
812.43	230.99
812.75	230.92
813.07	230.96
813.39	230.99
813.71	230.94
814.03	230.88
814.35	230.94
814.67	230.75
814.98	230.69
815.30	230.62
815.62	230.65
815.94	230.40
816.26	230.44
816.58	230.29
816.89	230.28
817.21	230.34
817.53	230.29
817.85	230.27
818.17	230.20
818.48	230.17
818.80	230.21
819.12	230.07
819.44	230.12
819.76	229.99
820.07	230.02
820.39	229.97
820.71	229.93
821.03	229.76
821.34	229.80
821.66	229.66
821.98	229.68
822.30	229.63
822.61	229.78
822.93	229.74
823.25	229.77
823.57	229.70
823.88	229.62
824.20	229.59
824.52	229.55
824.83	229.48
825.15	229.54
825.47	229.51
825.79	229.61
826.10	229.56
826.42	229.55
826.74	229.49
827.05	229.50
827.37	229.43
827.69	229.42
828.00	229.34
828.32	229.33
828.64	229.25
828.95	229.23
829.27	229.10
829.58	228.99
829.90	229.04
830.22	229.03
830.53	228.99
830.85	229.02
831.17	228.97
831.48	229.00
831.80	228.97
832.11	228.85
832.43	228.79
832.75	228.70
833.06	228.74
833.38	228.67
833.69	228.61
834.01	228.69
834.32	228.73
834.64	228.66
834.96	228.72
835.27	228.68
835.59	228.66
835.90	228.63
836.22	228.66
836.53	228.50
836.85	228.46
837.16	228.61
837.48	228.59
837.79	228.61
838.11	228.53
838.42	228.50
838.74	228.52
839.05	228.50
839.37	228.52
839.68	228.46
840.00	228.40
840.31	228.44
840.63	228.33
840.94	228.31
841.26	228.32
841.57	228.27
841.88	228.32
842.20	228.32
842.51	228.36
842.83	228.30
843.14	228.63
843.46	228.64
843.77	228.53
844.08	228.48
844.40	228.46
844.71	228.41
845.03	228.40
845.34	228.42
845.65	228.39
845.97	228.40
846.28	228.40
846.60	228.44
846.91	228.41
847.22	228.48
847.54	228.52
847.85	228.57
848.16	228.57
848.48	228.62
848.79	228.70
849.10	228.80
849.42	228.84
849.73	228.65
850.04	228.62
850.36	228.65
850.67	228.71
850.98	228.70
851.30	228.80
851.61	228.82
851.92	228.90
852.23	228.97
852.55	229.03
852.86	229.12
853.17	229.17
853.49	229.27
853.80	229.30
854.11	229.37
854.42	229.37
854.74	229.35
855.05	229.29
855.36	229.23
855.67	229.17
855.99	229.15
856.30	229.32
856.61	229.40
856.92	229.35
857.23	229.38
857.55	229.40
857.86	229.44
858.17	229.44
858.48	229.30
858.79	229.35
859.11	229.32
859.42	229.26
859.73	229.21
860.04	229.22
860.35	229.16
860.66	229.05
860.98	229.01
861.29	229.09
861.60	229.04
861.91	229.01
862.22	229.02
862.53	228.99
862.84	228.71
863.16	228.63
863.47	228.58
863.78	228.56
864.09	228.51
864.40	228.42
864.71	228.40
865.02	228.41
865.33	228.36
865.64	228.34
865.95	228.33
866.27	228.42
866.58	228.33
866.89	228.41
867.20	228.42
867.51	228.37
867.82	228.46
868.13	228.56
868.44	228.47
868.75	228.58
869.06	228.60
869.37	228.67
869.68	228.70
869.99	228.75
870.30	228.71
870.61	228.76
870.92	228.83
871.23	228.85
871.54	228.90
871.85	228.85
872.16	228.91
872.47	228.81
872.78	228.73
873.09	228.76
873.40	228.72
873.71	228.65
874.02	228.70
874.33	228.48
874.64	228.36
874.95	228.38
875.26	228.24
875.56	228.26
875.87	228.10
876.18	228.13
876.49	228.30
876.80	228.30
877.11	228.20
877.42	228.12
877.73	228.11
878.04	228.07
878.35	228.09
878.66	228.02
878.96	228.06
879.27	228.00
879.58	228.04
879.89	228.01
880.20	228.14
880.51	228.18
880.82	228.29
881.12	228.26
881.43	228.20
881.74	228.19
882.05	228.17
882.36	228.23
882.67	228.13
882.97	227.93
883.28	227.89
883.59	227.89
883.90	227.83
884.21	227.84
884.51	227.86
884.82	227.84
885.13	227.84
885.44	227.82
885.74	227.87
886.05	227.75
886.36	227.73
886.67	227.68
886.98	227.78
887.28	227.78
887.59	227.83
887.90	227.99
888.20	227.98
888.51	228.00
888.82	228.01
889.13	228.09
889.43	228.17
889.74	228.23
890.05	228.26
890.35	228.34
890.66	228.38
890.97	228.31
891.28	228.30
891.58	228.37
891.89	228.44
892.20	228.45
892.50	228.45
892.81	228.38
893.12	228.42
893.42	228.44
893.73	228.41
894.04	228.45
894.34	228.32
894.65	228.33
894.95	228.28
895.26	228.30
895.57	228.40
895.87	228.25
896.18	228.29
896.48	228.26
896.79	228.26
897.10	228.28
897.40	228.29
897.71	228.34
898.01	228.27
898.32	228.23
898.63	228.20
898.93	228.22
899.24	228.28
899.54	228.27
899.85	228.09
900.15	228.17
900.46	228.07
900.76	228.19
901.07	228.15
901.38	228.12
901.68	228.14
901.99	228.05
902.29	228.02
902.60	227.93
902.90	227.94
903.21	227.90
903.51	227.88
903.82	227.92
904.12	227.81
904.43	227.76
904.73	227.77
905.03	227.83
905.34	228.06
905.64	228.07
905.95	228.05
906.25	228.10
906.56	228.06
906.86	228.19
907.17	228.05
907.47	228.07
907.77	228.17
908.08	228.14
908.38	228.18
908.69	228.27
908.99	228.29
909.30	228.40
909.60	228.36
909.90	228.39
910.21	228.40
910.51	228.40
910.81	228.51
911.12	228.56
911.42	228.48
911.73	228.26
912.03	228.30
912.33	228.24
912.64	228.30
912.94	228.34
913.24	228.30
913.55	228.34
913.85	228.34
914.15	228.31
914.46	228.40
914.76	228.27
915.06	228.30
915.37	228.32
915.67	228.22
915.97	228.28
916.27	228.24
916.58	228.21
916.88	228.28
917.18	228.09
917.49	228.17
917.79	228.17
918.09	228.17
918.39	228.09
918.70	228.11
919.00	228.06
919.30	228.05
919.60	228.10
919.91	228.18
920.21	228.24
920.51	228.23
920.81	228.14
921.12	228.21
921.42	228.17
921.72	228.19
922.02	228.14
922.32	228.12
922.63	228.17
922.93	228.26
923.23	228.25
923.53	228.41
923.83	228.31
924.13	228.39
924.44	228.39
924.74	228.48
925.04	228.54
925.34	228.67
925.64	228.68
925.94	228.65
926.24	228.72
926.55	228.74
926.85	228.79
927.15	228.99
927.45	228.96
927.75	229.06
928.05	228.99
928.35	229.07
928.65	229.27
928.95	229.36
929.26	229.28
929.56	229.40
929.86	229.30
930.16	229.34
930.46	229.30
930.76	229.42
931.06	229.46
931.36	229.44
931.66	229.38
931.96	229.30
932.26	229.31
932.56	229.31
932.86	229.22
933.16	229.14
933.46	229.05
933.76	229.05
934.06	229.06
934.36	229.18
934.66	229.18
934.96	229.10
935.26	229.04
935.56	229.05
935.86	228.97
936.16	229.06
936.46	228.95
936.76	228.96
937.06	228.78
937.36	228.69
937.66	228.64
937.96	228.61
938.26	228.63
938.56	228.57
938.86	228.49
939.16	228.50
939.46	228.57
939.76	228.52
940.06	228.55
940.35	228.38
940.65	228.27
940.95	228.23
941.25	228.14
941.55	228.02
941.85	228.07
942.15	228.14
942.45	228.14
942.75	228.18
943.04	228.29
943.34	228.41
943.64	228.45
943.94	228.48
944.24	228.47
944.54	228.49
944.84	228.54
945.13	228.47
945.43	228.45
945.73	228.40
946.03	228.38
946.33	228.40
946.62	228.45
946.92	228.41
947.22	228.45
947.52	228.43
947.82	228.48
948.11	228.46
948.41	228.28
948.71	228.20
949.01	228.22
949.31	228.13
949.60	228.12
949.90	228.05
950.20	228.02
950.50	228.02
950.79	228.02
951.09	228.10
951.39	228.15
951.69	228.23
951.98	228.28
952.28	228.25
952.58	228.16
952.87	228.19
953.17	228.27
953.47	228.21
953.76	228.25
954.06	228.20
954.36	228.09
954.66	228.16
954.95	228.17
955.25	228.24
955.55	228.17
955.84	228.15
956.14	228.20
956.44	228.21
956.73	228.14
957.03	228.20
957.32	228.12
957.62	228.05
957.92	228.01
958.21	228.00
958.51	228.28
958.81	228.34
959.10	228.32
959.40	228.27
959.69	228.33
959.99	228.35
960.29	228.36
960.58	228.33
960.88	228.41
961.17	228.41
961.47	228.29
961.76	228.41
962.06	228.37
962.36	228.36
962.65	228.38
962.95	228.46
963.24	228.38
963.54	228.33
963.83	228.50
964.13	228.55
964.42	228.60
964.72	228.30
965.01	228.31
965.31	228.40
965.60	228.33
965.90	228.41
966.19	228.34
966.49	228.42
966.78	228.48
967.08	228.43
967.37	228.50
967.67	228.56
967.96	228.59
968.26	228.72
968.55	228.72
968.85	228.65
969.14	228.52
969.43	228.53
969.73	228.64
970.02	228.57
970.32	228.44
970.61	228.40
970.91	228.43
971.20	228.37
971.49	228.25
971.79	228.39
972.08	228.22
972.38	228.25
972.67	228.17
972.96	228.10
973.26	228.09
973.55	228.13
973.85	228.06
974.14	227.93
974.43	227.83
974.73	227.86
975.02	227.87
975.31	227.92
975.61	227.86
975.90	227.71
976.19	227.68
976.49	227.65
976.78	227.70
977.07	227.56
977.37	227.53
977.66	227.56
977.95	227.55
978.24	227.55
978.54	227.65
978.83	227.63
979.12	227.73
979.42	227.70
979.71	227.64
980.00	227.71
980.29	227.79
980.59	227.72
980.88	227.71
981.17	227.71
981.46	227.74
981.76	227.77
982.05	227.88
982.34	227.84
982.63	227.86
982.93	227.78
983.22	227.95
983.51	228.06
983.80	227.97
984.09	227.89
984.39	227.97
984.68	227.85
984.97	227.92
985.26	227.88
985.55	227.88
985.85	227.88
986.14	227.83
986.43	227.77
986.72	227.76
987.01	227.72
987.30	227.77
987.59	227.81
987.89	227.79
988.18	227.67
988.47	227.67
988.76	227.70
989.05	227.69
989.34	227.69
989.63	227.64
989.92	227.67
990.22	227.69
990.51	227.65
990.80	227.64
991.09	227.63
991.38	227.62
991.67	227.64
991.96	227.63
992.25	227.63
992.54	227.66
992.83	227.68
993.12	227.63
993.41	227.69
993.70	227.66
993.99	227.79
994.28	227.88
994.58	227.94
994.87	227.97
995.16	227.89
995.45	227.88
995.74	227.81
996.03	227.88
996.32	227.87
996.61	227.99
996.90	227.99
997.19	227.99
997.48	227.98
997.77	227.95
998.06	228.01
998.34	228.02
998.63	227.95
998.92	227.93
999.21	227.97
999.50	228.06
999.79	228.00
1000.08	227.99
1000.37	227.87
1000.66	227.91
1000.95	227.98
1001.24	228.02
1001.53	228.05
1001.82	228.15
1002.11	228.14
1002.40	228.18
1002.68	228.10
1002.97	228.23
1003.26	228.24
1003.55	228.33
1003.84	228.34
1004.13	228.34
1004.42	228.39
1004.71	228.37
1004.99	228.41
1005.28	228.43
1005.57	228.27
1005.86	228.20
1006.15	228.14
1006.44	228.29
1006.72	228.23
1007.01	228.21
1007.30	228.18
1007.59	228.13
1007.88	228.05
1008.17	228.01
1008.45	228.00
1008.74	227.96
1009.03	227.90
1009.32	227.85
1009.60	227.76
1009.89	227.77
1010.18	227.71
1010.47	227.63
1010.76	227.70
1011.04	227.70
1011.33	227.86
1011.62	227.93
1011.91	227.97
1012.19	227.95
1012.48	227.88
1012.77	227.85
1013.05	227.87
1013.34	227.94
1013.63	227.92
1013.92	228.03
1014.20	228.14
1014.49	228.13
1014.78	228.16
1015.06	228.10
1015.35	228.10
1015.64	228.15
1015.92	228.25
1016.21	228.23
1016.50	228.27
1016.78	228.30
1017.07	228.26
1017.36	228.14
1017.64	228.11
1017.93	228.19
1018.22	228.18
1018.50	228.23
1018.79	228.20
1019.08	228.14
1019.36	228.25
1019.65	228.25
1019.93	228.23
1020.22	228.26
1020.51	228.35
1020.79	228.36
1021.08	227.30
1021.36	228.30
1021.65	227.10
1021.94	228.50
1022.22	229.80
1022.51	227.50
1022.79	228.80
1023.08	229.50
1023.36	229.50
1023.65	228.60
>>>>>End Processed Spectral Data<<<<<
