SpectraSuite Data File
++++++++++++++++++++++++++++++++++++
Date: Fri Feb 01 14:37:49 EST 2013
User: group
Dark Spectrum Present: No
Reference Spectrum Present: No
Number of Sampled Component Spectra: 1
Spectrometers: USB2E7196
Integration Time (usec): 70000 (USB2E7196)
Spectra Averaged: 10 (USB2E7196)
Boxcar Smoothing: 10 (USB2E7196)
Correct for Electrical Dark: No (USB2E7196)
Strobe/Lamp Enabled: No (USB2E7196)
Correct for Detector Non-linearity: No (USB2E7196)
Correct for Stray Light: No (USB2E7196)
Number of Pixels in Processed Spectrum: 2048
>>>>>Begin Processed Spectral Data<<<<<
339.09	0.00
339.48	218.30
339.86	216.60
340.24	220.10
340.63	218.90
341.01	225.70
341.39	223.50
341.78	226.30
342.16	224.80
342.54	224.80
342.93	214.55
343.31	225.40
343.69	225.76
344.07	226.30
344.46	226.67
344.84	227.10
345.22	227.22
345.60	227.43
345.99	227.58
346.37	227.66
346.75	227.77
347.13	227.92
347.52	227.97
347.90	228.04
348.28	227.96
348.66	227.97
349.05	227.98
349.43	228.01
349.81	228.14
350.19	228.18
350.57	228.25
350.96	228.46
351.34	228.53
351.72	228.61
352.10	228.74
352.48	228.84
352.87	228.88
353.25	228.96
353.63	229.12
354.01	229.07
354.39	229.25
354.77	229.38
355.15	229.30
355.54	229.34
355.92	229.30
356.30	229.35
356.68	229.61
357.06	229.64
357.44	229.68
357.82	229.70
358.20	229.75
358.58	229.78
358.97	229.77
359.35	229.81
359.73	229.94
360.11	229.86
360.49	229.82
360.87	229.89
361.25	229.89
361.63	229.89
362.01	230.01
362.39	230.04
362.77	230.08
363.15	230.18
363.53	230.17
363.91	230.16
364.29	230.30
364.67	230.05
365.05	230.11
365.43	230.23
365.81	230.27
366.19	230.43
366.57	230.58
366.95	230.55
367.33	230.52
367.71	230.47
368.09	230.43
368.47	230.49
368.85	230.48
369.23	230.43
369.61	230.25
369.99	230.28
370.37	230.30
370.75	230.33
371.13	230.19
371.51	230.21
371.89	230.20
372.27	230.05
372.65	230.10
373.03	230.01
373.41	229.78
373.78	229.68
374.16	229.48
374.54	229.30
374.92	229.20
375.30	229.11
375.68	229.14
376.06	229.18
376.44	229.04
376.82	228.83
377.19	228.70
377.57	228.75
377.95	228.55
378.33	228.37
378.71	228.16
379.09	228.21
379.47	228.05
379.84	227.98
380.22	227.89
380.60	227.66
380.98	227.52
381.36	227.46
381.73	227.36
382.11	227.32
382.49	227.33
382.87	227.22
383.25	227.19
383.62	227.22
384.00	227.07
384.38	227.04
384.76	227.07
385.13	227.25
385.51	227.07
385.89	226.98
386.27	226.87
386.64	226.90
387.02	226.79
387.40	226.76
387.78	226.69
388.15	226.67
388.53	226.53
388.91	226.62
389.29	226.60
389.66	226.63
390.04	226.47
390.42	226.39
390.79	226.38
391.17	226.36
391.55	226.18
391.92	226.16
392.30	226.13
392.68	226.10
393.05	226.08
393.43	226.12
393.81	226.21
394.18	226.27
394.56	226.27
394.94	226.38
395.31	226.30
395.69	226.42
396.06	226.44
396.44	226.64
396.82	226.56
397.19	226.81
397.57	226.81
397.95	227.00
398.32	226.95
398.70	227.00
399.07	227.09
399.45	227.18
399.82	227.26
400.20	227.42
400.58	227.52
400.95	227.43
401.33	227.63
401.70	227.85
402.08	228.10
402.45	228.18
402.83	228.26
403.20	228.52
403.58	228.71
403.95	228.89
404.33	229.17
404.71	229.34
405.08	229.72
405.46	229.89
405.83	230.04
406.21	230.31
406.58	230.62
406.96	230.82
407.33	231.02
407.70	231.30
408.08	231.66
408.45	232.03
408.83	232.45
409.20	232.70
409.58	232.88
409.95	233.17
410.33	233.63
410.70	233.95
411.08	234.40
411.45	234.81
411.82	235.26
412.20	235.73
412.57	236.34
412.95	236.49
413.32	237.08
413.69	237.70
414.07	238.32
414.44	239.05
414.82	239.76
415.19	240.61
415.56	241.42
415.94	242.11
416.31	243.05
416.68	244.01
417.06	245.01
417.43	246.02
417.81	247.08
418.18	248.25
418.55	249.51
418.93	250.73
419.30	252.04
419.67	253.40
420.04	254.68
420.42	256.17
420.79	258.03
421.16	259.76
421.54	261.60
421.91	263.48
422.28	265.30
422.66	267.32
423.03	269.39
423.40	271.45
423.77	273.84
424.15	275.99
424.52	278.16
424.89	280.74
425.26	283.17
425.64	285.41
426.01	287.84
426.38	290.40
426.75	293.04
427.13	295.64
427.50	298.48
427.87	301.62
428.24	304.68
428.61	307.46
428.99	310.62
429.36	313.97
429.73	317.32
430.10	320.78
430.47	324.21
430.85	327.55
431.22	331.30
431.59	335.00
431.96	338.75
432.33	343.01
432.70	346.97
433.08	351.78
433.45	356.29
433.82	360.82
434.19	365.77
434.56	370.71
434.93	375.36
435.30	380.04
435.68	384.99
436.05	390.02
436.42	394.83
436.79	399.35
437.16	404.15
437.53	409.19
437.90	414.28
438.27	419.12
438.64	424.18
439.01	429.01
439.38	433.29
439.75	437.18
440.13	441.76
440.50	446.18
440.87	449.76
441.24	453.41
441.61	457.49
441.98	460.65
442.35	464.22
442.72	467.92
443.09	471.39
443.46	473.58
443.83	475.10
444.20	476.66
444.57	478.46
444.94	479.63
445.31	481.00
445.68	482.15
446.05	483.03
446.42	483.15
446.79	482.92
447.16	482.68
447.53	482.91
447.90	481.64
448.27	480.29
448.64	478.02
449.01	476.79
449.37	474.00
449.74	471.23
450.11	467.89
450.48	464.14
450.85	460.39
451.22	457.18
451.59	454.10
451.96	451.18
452.33	447.11
452.70	443.38
453.07	438.65
453.43	433.86
453.80	429.30
454.17	424.90
454.54	420.69
454.91	416.30
455.28	411.90
455.65	407.72
456.02	403.66
456.38	400.23
456.75	395.72
457.12	392.08
457.49	388.38
457.86	384.84
458.23	381.81
458.59	378.28
458.96	374.72
459.33	371.54
459.70	368.41
460.07	365.94
460.43	362.98
460.80	360.20
461.17	357.73
461.54	355.33
461.91	352.93
462.27	350.58
462.64	348.36
463.01	345.97
463.38	343.69
463.74	341.34
464.11	339.36
464.48	337.73
464.85	335.60
465.21	334.02
465.58	332.27
465.95	330.27
466.32	328.73
466.68	327.19
467.05	325.48
467.42	323.80
467.78	322.16
468.15	320.69
468.52	319.60
468.88	317.97
469.25	316.32
469.62	315.11
469.98	313.76
470.35	312.68
470.72	311.62
471.08	310.42
471.45	309.34
471.82	308.10
472.18	306.66
472.55	305.82
472.92	304.65
473.28	303.62
473.65	302.62
474.02	301.70
474.38	301.03
474.75	300.32
475.11	299.49
475.48	298.82
475.85	297.99
476.21	297.35
476.58	297.00
476.94	296.43
477.31	295.83
477.67	295.28
478.04	294.65
478.41	294.19
478.77	293.91
479.14	293.45
479.50	293.10
479.87	293.03
480.23	292.76
480.60	292.53
480.96	292.20
481.33	292.15
481.69	292.01
482.06	291.67
482.42	291.45
482.79	291.38
483.15	291.20
483.52	291.24
483.88	291.12
484.25	290.85
484.61	290.98
484.98	290.97
485.34	291.11
485.71	291.31
486.07	291.35
486.44	291.30
486.80	291.34
487.17	291.54
487.53	291.72
487.90	292.00
488.26	292.30
488.62	292.73
488.99	292.92
489.35	293.13
489.72	293.36
490.08	293.75
490.44	294.02
490.81	294.42
491.17	294.69
491.54	295.10
491.90	295.51
492.26	295.88
492.63	296.22
492.99	296.57
493.36	297.02
493.72	297.55
494.08	297.96
494.45	298.47
494.81	299.01
495.17	299.41
495.54	299.85
495.90	300.36
496.26	300.76
496.63	301.24
496.99	301.82
497.35	302.52
497.72	303.11
498.08	303.70
498.44	304.33
498.80	305.01
499.17	305.50
499.53	306.02
499.89	306.65
500.26	307.26
500.62	307.86
500.98	308.40
501.34	308.82
501.71	309.61
502.07	310.13
502.43	310.58
502.79	311.01
503.16	311.43
503.52	311.86
503.88	312.17
504.24	312.63
504.60	313.05
504.97	313.26
505.33	313.57
505.69	314.03
506.05	314.25
506.41	314.51
506.78	314.72
507.14	315.02
507.50	315.31
507.86	315.62
508.22	315.90
508.59	315.93
508.95	316.17
509.31	316.21
509.67	316.44
510.03	316.50
510.39	316.57
510.75	316.73
511.12	316.84
511.48	317.10
511.84	317.18
512.20	317.34
512.56	317.56
512.92	317.78
513.28	317.76
513.64	317.89
514.00	318.05
514.37	318.29
514.73	318.53
515.09	318.63
515.45	318.71
515.81	318.91
516.17	319.36
516.53	319.74
516.89	319.94
517.25	320.28
517.61	320.88
517.97	321.33
518.33	321.75
518.69	322.20
519.05	322.77
519.41	323.46
519.77	324.16
520.13	324.88
520.49	325.51
520.85	326.47
521.21	327.53
521.57	328.67
521.93	329.57
522.29	330.62
522.65	331.79
523.01	333.05
523.37	334.13
523.73	335.41
524.09	336.58
524.45	338.01
524.81	339.48
525.17	340.94
525.53	342.69
525.89	344.50
526.25	346.36
526.61	348.08
526.97	349.98
527.33	351.92
527.68	354.18
528.04	356.55
528.40	358.76
528.76	361.09
529.12	363.36
529.48	365.90
529.84	368.47
530.20	371.15
530.56	373.95
530.91	377.05
531.27	379.91
531.63	382.99
531.99	386.18
532.35	389.39
532.71	392.71
533.07	396.01
533.42	399.43
533.78	402.91
534.14	406.67
534.50	410.10
534.86	413.83
535.21	417.47
535.57	421.24
535.93	425.25
536.29	429.14
536.65	433.09
537.00	437.18
537.36	441.29
537.72	445.35
538.08	449.55
538.44	453.64
538.79	458.06
539.15	462.47
539.51	467.03
539.87	471.64
540.22	476.23
540.58	480.93
540.94	485.41
541.29	490.04
541.65	494.59
542.01	499.52
542.37	504.13
542.72	508.88
543.08	513.72
543.44	518.37
543.79	523.20
544.15	528.19
544.51	533.36
544.87	538.50
545.22	543.70
545.58	548.78
545.94	553.81
546.29	558.80
546.65	563.89
547.01	568.70
547.36	573.57
547.72	578.75
548.07	583.80
548.43	588.80
548.79	593.90
549.14	599.14
549.50	604.20
549.86	609.20
550.21	614.24
550.57	619.37
550.92	624.54
551.28	629.70
551.64	634.73
551.99	639.88
552.35	644.86
552.70	649.84
553.06	654.98
553.41	660.30
553.77	665.26
554.13	670.35
554.48	675.54
554.84	680.68
555.19	685.63
555.55	690.68
555.90	695.75
556.26	700.76
556.61	705.61
556.97	710.57
557.32	715.90
557.68	720.92
558.03	725.66
558.39	730.52
558.74	735.44
559.10	740.44
559.45	745.04
559.81	750.14
560.16	754.87
560.52	759.66
560.87	764.48
561.23	769.30
561.58	774.00
561.94	778.62
562.29	782.91
562.64	787.21
563.00	791.63
563.35	796.20
563.71	800.59
564.06	804.75
564.42	809.30
564.77	813.28
565.12	817.63
565.48	822.00
565.83	825.82
566.19	829.85
566.54	833.66
566.89	837.30
567.25	840.83
567.60	844.91
567.96	848.55
568.31	851.83
568.66	855.43
569.02	858.93
569.37	862.27
569.72	865.65
570.08	868.82
570.43	872.29
570.78	875.08
571.14	878.05
571.49	881.34
571.84	884.30
572.20	887.17
572.55	889.69
572.90	892.11
573.26	894.94
573.61	897.23
573.96	899.57
574.31	901.83
574.67	903.61
575.02	905.29
575.37	907.18
575.72	908.88
576.08	910.51
576.43	912.25
576.78	913.71
577.13	915.73
577.49	917.58
577.84	918.68
578.19	920.35
578.54	921.72
578.90	922.77
579.25	923.45
579.60	924.34
579.95	925.54
580.30	926.46
580.66	927.13
581.01	927.96
581.36	928.81
581.71	929.60
582.06	930.66
582.42	931.35
582.77	931.86
583.12	932.34
583.47	933.04
583.82	933.51
584.17	933.86
584.53	934.10
584.88	934.35
585.23	934.60
585.58	935.02
585.93	935.16
586.28	935.61
586.63	936.21
586.98	936.61
587.34	936.61
587.69	936.80
588.04	937.05
588.39	937.20
588.74	936.79
589.09	936.81
589.44	936.52
589.79	936.56
590.14	936.50
590.49	936.40
590.84	935.85
591.19	935.31
591.54	934.51
591.89	933.60
592.25	932.80
592.60	931.53
592.95	930.39
593.30	929.20
593.65	928.08
594.00	926.70
594.35	926.00
594.70	924.56
595.05	923.39
595.40	922.03
595.75	920.61
596.10	919.87
596.45	918.94
596.80	918.01
597.15	916.63
597.50	915.15
597.85	913.94
598.19	912.93
598.54	911.79
598.89	911.20
599.24	910.26
599.59	909.29
599.94	908.70
600.29	907.32
600.64	906.34
600.99	904.72
601.34	903.48
601.69	901.60
602.04	900.46
602.39	899.01
602.74	897.87
603.08	896.53
603.43	895.07
603.78	893.35
604.13	891.53
604.48	889.80
604.83	888.30
605.18	886.81
605.53	884.74
605.87	882.45
606.22	880.54
606.57	878.57
606.92	876.42
607.27	874.59
607.62	873.19
607.96	871.45
608.31	869.86
608.66	867.90
609.01	865.81
609.36	863.44
609.70	860.97
610.05	858.12
610.40	855.88
610.75	853.34
611.10	850.75
611.44	847.90
611.79	845.47
612.14	842.81
612.49	839.78
612.83	837.19
613.18	834.72
613.53	832.08
613.88	829.19
614.22	826.40
614.57	823.44
614.92	820.50
615.27	817.56
615.61	814.60
615.96	811.51
616.31	808.82
616.65	806.41
617.00	804.01
617.35	801.90
617.70	799.04
618.04	796.03
618.39	793.36
618.74	790.92
619.08	787.95
619.43	785.44
619.78	782.78
620.12	780.06
620.47	777.37
620.82	774.04
621.16	771.35
621.51	768.65
621.85	765.93
622.20	763.02
622.55	760.36
622.89	757.54
623.24	755.09
623.59	752.33
623.93	749.77
624.28	746.91
624.62	744.17
624.97	741.60
625.32	739.01
625.66	736.48
626.01	733.73
626.35	731.13
626.70	728.15
627.04	725.56
627.39	722.76
627.73	719.99
628.08	717.61
628.43	714.78
628.77	712.11
629.12	709.12
629.46	706.10
629.81	703.10
630.15	700.20
630.50	697.21
630.84	694.09
631.19	690.74
631.53	687.63
631.88	684.55
632.22	681.10
632.57	678.33
632.91	675.26
633.26	672.35
633.60	669.30
633.95	666.57
634.29	663.71
634.64	661.00
634.98	658.15
635.32	655.41
635.67	652.97
636.01	650.10
636.36	647.39
636.70	644.97
637.05	642.53
637.39	640.27
637.73	637.88
638.08	635.68
638.42	633.34
638.77	631.08
639.11	628.47
639.45	626.17
639.80	623.61
640.14	621.21
640.49	618.68
640.83	616.17
641.17	613.60
641.52	610.96
641.86	608.41
642.20	606.17
642.55	603.60
642.89	601.08
643.23	598.59
643.58	596.27
643.92	593.58
644.26	590.92
644.61	588.39
644.95	585.66
645.29	582.78
645.64	579.96
645.98	577.26
646.32	574.75
646.66	572.11
647.01	569.60
647.35	566.96
647.69	564.45
648.04	562.19
648.38	559.43
648.72	556.80
649.06	554.03
649.41	551.31
649.75	548.68
650.09	545.78
650.43	543.08
650.78	540.34
651.12	537.61
651.46	534.97
651.80	532.21
652.14	529.55
652.49	527.13
652.83	524.89
653.17	522.29
653.51	519.55
653.85	517.16
654.20	514.40
654.54	511.70
654.88	509.13
655.22	506.26
655.56	503.92
655.90	501.48
656.25	499.01
656.59	496.49
656.93	494.19
657.27	491.99
657.61	489.73
657.95	487.56
658.29	485.28
658.64	483.01
658.98	480.49
659.32	478.13
659.66	475.80
660.00	473.33
660.34	471.17
660.68	468.74
661.02	466.40
661.36	464.23
661.70	462.11
662.05	459.99
662.39	458.10
662.73	455.91
663.07	453.88
663.41	452.05
663.75	450.03
664.09	447.89
664.43	445.82
664.77	443.63
665.11	441.61
665.45	439.63
665.79	437.60
666.13	435.61
666.47	433.72
666.81	431.59
667.15	429.46
667.49	427.49
667.83	426.03
668.17	424.16
668.51	422.28
668.85	420.33
669.19	418.57
669.53	416.76
669.87	415.04
670.21	413.38
670.55	411.54
670.89	409.87
671.23	408.27
671.57	406.67
671.91	405.13
672.25	403.46
672.58	401.92
672.92	400.25
673.26	398.82
673.60	397.36
673.94	396.12
674.28	394.76
674.62	393.28
674.96	391.68
675.30	390.33
675.64	389.00
675.97	387.78
676.31	386.41
676.65	384.96
676.99	383.53
677.33	381.95
677.67	380.50
678.01	379.04
678.34	377.59
678.68	376.22
679.02	374.78
679.36	373.43
679.70	372.01
680.04	370.69
680.37	369.30
680.71	367.95
681.05	366.57
681.39	365.32
681.73	363.98
682.06	362.64
682.40	361.36
682.74	360.10
683.08	358.81
683.42	357.48
683.75	356.26
684.09	354.93
684.43	353.87
684.77	352.70
685.10	351.56
685.44	350.38
685.78	349.12
686.12	347.97
686.45	346.77
686.79	345.82
687.13	344.62
687.46	343.56
687.80	342.50
688.14	341.21
688.48	340.12
688.81	339.03
689.15	338.03
689.49	336.99
689.82	335.78
690.16	334.65
690.50	333.50
690.83	332.39
691.17	331.36
691.51	330.28
691.84	329.39
692.18	328.32
692.52	327.25
692.85	326.13
693.19	325.19
693.52	324.07
693.86	323.02
694.20	322.03
694.53	320.97
694.87	319.90
695.21	318.94
695.54	317.92
695.88	316.99
696.21	315.90
696.55	314.79
696.88	313.88
697.22	313.00
697.56	312.25
697.89	311.32
698.23	310.45
698.56	309.40
698.90	308.23
699.23	307.18
699.57	306.26
699.90	305.27
700.24	304.25
700.58	303.35
700.91	302.34
701.25	301.62
701.58	300.88
701.92	300.06
702.25	299.34
702.59	298.47
702.92	297.67
703.26	296.83
703.59	296.11
703.93	295.43
704.26	294.67
704.60	293.80
704.93	293.11
705.26	292.35
705.60	291.75
705.93	291.25
706.27	290.67
706.60	290.00
706.94	289.52
707.27	288.90
707.61	288.36
707.94	287.76
708.27	287.01
708.61	286.20
708.94	285.51
709.28	284.79
709.61	284.28
709.94	283.58
710.28	283.01
710.61	282.48
710.95	281.79
711.28	281.29
711.61	280.64
711.95	279.98
712.28	279.37
712.61	278.81
712.95	278.24
713.28	277.76
713.61	277.15
713.95	276.65
714.28	276.06
714.61	275.46
714.95	274.82
715.28	274.38
715.61	273.91
715.95	273.43
716.28	273.03
716.61	272.43
716.95	272.10
717.28	271.71
717.61	271.24
717.94	270.78
718.28	270.00
718.61	269.63
718.94	269.35
719.27	268.93
719.61	268.53
719.94	268.15
720.27	267.72
720.60	267.40
720.94	266.97
721.27	266.74
721.60	266.45
721.93	266.16
722.27	265.83
722.60	265.59
722.93	265.28
723.26	264.80
723.59	264.51
723.93	264.09
724.26	263.71
724.59	263.32
724.92	263.00
725.25	262.87
725.59	262.48
725.92	262.11
726.25	261.90
726.58	261.60
726.91	261.29
727.24	261.08
727.57	260.80
727.91	260.48
728.24	260.23
728.57	259.87
728.90	259.62
729.23	259.25
729.56	259.01
729.89	258.71
730.22	258.55
730.55	258.20
730.89	257.99
731.22	257.66
731.55	257.45
731.88	257.27
732.21	256.95
732.54	256.76
732.87	256.37
733.20	256.06
733.53	255.80
733.86	255.36
734.19	255.11
734.52	254.85
734.85	254.72
735.18	254.36
735.51	254.21
735.84	253.92
736.17	253.71
736.50	253.37
736.83	253.22
737.16	252.97
737.49	252.77
737.82	252.42
738.15	252.23
738.48	251.92
738.81	251.53
739.14	251.31
739.47	251.06
739.80	250.79
740.13	250.47
740.46	250.13
740.79	249.91
741.12	249.52
741.45	249.21
741.78	248.82
742.11	248.65
742.44	248.30
742.77	248.15
743.10	247.82
743.43	247.68
743.75	247.25
744.08	247.26
744.41	247.09
744.74	246.87
745.07	246.62
745.40	246.49
745.73	246.40
746.06	246.08
746.39	245.94
746.71	245.81
747.04	245.63
747.37	245.45
747.70	245.30
748.03	245.09
748.36	245.01
748.68	244.74
749.01	244.45
749.34	244.20
749.67	243.91
750.00	243.87
750.33	243.71
750.65	243.63
750.98	243.23
751.31	243.09
751.64	242.93
751.97	242.91
752.29	242.65
752.62	242.33
752.95	242.19
753.28	241.90
753.60	241.75
753.93	241.59
754.26	241.39
754.59	241.21
754.91	241.03
755.24	240.82
755.57	240.86
755.90	240.79
756.22	240.67
756.55	240.49
756.88	240.17
757.20	239.92
757.53	239.67
757.86	239.37
758.19	239.17
758.51	239.05
758.84	238.74
759.17	238.51
759.49	238.49
759.82	238.51
760.15	238.42
760.47	238.31
760.80	238.14
761.13	238.06
761.45	237.87
761.78	237.83
762.11	237.75
762.43	237.54
762.76	237.37
763.08	237.35
763.41	237.35
763.74	237.29
764.06	237.16
764.39	237.21
764.71	237.23
765.04	237.06
765.37	236.93
765.69	236.91
766.02	236.97
766.34	236.92
766.67	236.82
767.00	236.76
767.32	236.76
767.65	236.98
767.97	236.94
768.30	236.91
768.62	236.92
768.95	236.69
769.27	236.67
769.60	236.62
769.92	236.48
770.25	236.41
770.57	236.33
770.90	236.20
771.22	236.03
771.55	235.90
771.87	235.92
772.20	235.87
772.52	236.06
772.85	236.17
773.17	236.03
773.50	235.90
773.82	235.75
774.15	235.65
774.47	235.38
774.80	235.30
775.12	235.22
775.45	235.04
775.77	235.08
776.09	234.98
776.42	234.91
776.74	234.93
777.07	234.77
777.39	234.70
777.72	234.67
778.04	234.70
778.36	234.71
778.69	234.65
779.01	234.69
779.33	234.34
779.66	234.03
779.98	234.00
780.31	233.94
780.63	234.00
780.95	233.97
781.28	233.87
781.60	233.70
781.92	233.53
782.25	233.55
782.57	233.50
782.89	233.37
783.22	233.33
783.54	233.10
783.86	233.11
784.19	232.97
784.51	233.03
784.83	232.83
785.16	232.71
785.48	232.56
785.80	232.42
786.12	232.36
786.45	232.32
786.77	232.25
787.09	232.13
787.42	231.94
787.74	231.71
788.06	231.64
788.38	231.66
788.71	231.68
789.03	231.53
789.35	231.38
789.67	231.36
789.99	231.29
790.32	231.35
790.64	231.35
790.96	231.47
791.28	231.23
791.61	231.14
791.93	231.08
792.25	231.14
792.57	231.20
792.89	231.07
793.21	230.96
793.54	230.80
793.86	230.69
794.18	230.75
794.50	230.84
794.82	230.80
795.14	230.80
795.47	230.89
795.79	230.84
796.11	230.81
796.43	230.72
796.75	230.72
797.07	230.67
797.39	230.47
797.71	230.37
798.04	230.37
798.36	230.40
798.68	230.45
799.00	230.37
799.32	230.30
799.64	230.29
799.96	230.33
800.28	230.47
800.60	230.56
800.92	230.50
801.24	230.50
801.56	230.55
801.89	230.44
802.21	230.34
802.53	230.33
802.85	230.36
803.17	230.51
803.49	230.34
803.81	230.38
804.13	230.43
804.45	230.40
804.77	230.48
805.09	230.50
805.41	230.50
805.73	230.54
806.05	230.46
806.37	230.46
806.69	230.52
807.01	230.45
807.33	230.47
807.65	230.42
807.97	230.42
808.28	230.36
808.60	230.43
808.92	230.46
809.24	230.67
809.56	230.65
809.88	230.63
810.20	230.76
810.52	230.75
810.84	230.79
811.16	230.80
811.48	230.78
811.80	230.78
812.12	230.75
812.43	230.79
812.75	230.80
813.07	230.82
813.39	230.78
813.71	230.84
814.03	230.80
814.35	230.76
814.67	230.69
814.98	230.70
815.30	230.76
815.62	230.72
815.94	230.58
816.26	230.65
816.58	230.68
816.89	230.67
817.21	230.62
817.53	230.66
817.85	230.59
818.17	230.57
818.48	230.58
818.80	230.67
819.12	230.59
819.44	230.57
819.76	230.61
820.07	230.69
820.39	230.60
820.71	230.58
821.03	230.69
821.34	230.65
821.66	230.65
821.98	230.66
822.30	230.65
822.61	230.66
822.93	230.55
823.25	230.41
823.57	230.34
823.88	230.41
824.20	230.32
824.52	230.40
824.83	230.39
825.15	230.37
825.47	230.22
825.79	230.24
826.10	230.20
826.42	230.13
826.74	230.09
827.05	230.05
827.37	230.05
827.69	229.96
828.00	229.94
828.32	229.89
828.64	229.69
828.95	229.78
829.27	229.67
829.58	229.72
829.90	229.71
830.22	229.77
830.53	229.60
830.85	229.54
831.17	229.43
831.48	229.41
831.80	229.34
832.11	229.32
832.43	229.30
832.75	229.23
833.06	229.39
833.38	229.20
833.69	229.17
834.01	229.10
834.32	229.00
834.64	228.99
834.96	228.97
835.27	228.96
835.59	228.80
835.90	228.78
836.22	228.69
836.53	228.71
836.85	228.54
837.16	228.78
837.48	228.76
837.79	228.79
838.11	228.64
838.42	228.58
838.74	228.60
839.05	228.64
839.37	228.69
839.68	228.51
840.00	228.58
840.31	228.57
840.63	228.56
840.94	228.62
841.26	228.53
841.57	228.53
841.88	228.63
842.20	228.54
842.51	228.44
842.83	228.49
843.14	228.65
843.46	228.74
843.77	228.60
844.08	228.57
844.40	228.51
844.71	228.67
845.03	228.73
845.34	228.71
845.65	228.59
845.97	228.58
846.28	228.69
846.60	228.66
846.91	228.74
847.22	228.73
847.54	228.70
847.85	228.75
848.16	228.73
848.48	228.67
848.79	228.82
849.10	228.92
849.42	228.92
849.73	228.69
850.04	228.65
850.36	228.62
850.67	228.60
850.98	228.70
851.30	228.70
851.61	228.69
851.92	228.72
852.23	228.72
852.55	228.72
852.86	228.71
853.17	228.70
853.49	228.61
853.80	228.75
854.11	228.83
854.42	228.94
854.74	228.97
855.05	229.06
855.36	229.05
855.67	229.04
855.99	229.08
856.30	229.28
856.61	229.36
856.92	229.32
857.23	229.50
857.55	229.44
857.86	229.34
858.17	229.39
858.48	229.33
858.79	229.48
859.11	229.52
859.42	229.51
859.73	229.50
860.04	229.56
860.35	229.45
860.66	229.37
860.98	229.34
861.29	229.30
861.60	229.19
861.91	229.19
862.22	229.24
862.53	229.22
862.84	229.11
863.16	229.11
863.47	229.05
863.78	228.90
864.09	229.02
864.40	229.14
864.71	229.25
865.02	229.25
865.33	229.15
865.64	229.12
865.95	229.00
866.27	229.19
866.58	229.20
866.89	229.16
867.20	229.20
867.51	229.09
867.82	229.11
868.13	229.17
868.44	229.11
868.75	229.11
869.06	229.01
869.37	228.92
869.68	228.89
869.99	228.90
870.30	228.91
870.61	228.85
870.92	228.67
871.23	228.51
871.54	228.57
871.85	228.69
872.16	228.61
872.47	228.64
872.78	228.50
873.09	228.48
873.40	228.49
873.71	228.44
874.02	228.47
874.33	228.33
874.64	228.31
874.95	228.32
875.26	228.25
875.56	228.35
875.87	228.26
876.18	228.25
876.49	228.50
876.80	228.51
877.11	228.39
877.42	228.44
877.73	228.43
878.04	228.39
878.35	228.25
878.66	228.36
878.96	228.34
879.27	228.37
879.58	228.44
879.89	228.47
880.20	228.59
880.51	228.53
880.82	228.55
881.12	228.60
881.43	228.61
881.74	228.56
882.05	228.52
882.36	228.54
882.67	228.49
882.97	228.21
883.28	228.12
883.59	228.21
883.90	228.37
884.21	228.43
884.51	228.36
884.82	228.33
885.13	228.40
885.44	228.40
885.74	228.40
886.05	228.33
886.36	228.41
886.67	228.26
886.98	228.44
887.28	228.45
887.59	228.40
887.90	228.42
888.20	228.51
888.51	228.53
888.82	228.62
889.13	228.65
889.43	228.88
889.74	229.01
890.05	228.84
890.35	228.63
890.66	228.57
890.97	228.59
891.28	228.66
891.58	228.41
891.89	228.38
892.20	228.36
892.50	228.32
892.81	228.29
893.12	228.31
893.42	228.28
893.73	228.46
894.04	228.54
894.34	228.56
894.65	228.50
894.95	228.52
895.26	228.56
895.57	228.64
895.87	228.45
896.18	228.40
896.48	228.57
896.79	228.71
897.10	228.73
897.40	228.89
897.71	228.84
898.01	229.00
898.32	229.00
898.63	228.99
898.93	228.98
899.24	229.01
899.54	229.03
899.85	228.94
900.15	228.85
900.46	228.77
900.76	228.71
901.07	228.74
901.38	228.79
901.68	228.74
901.99	228.69
902.29	228.66
902.60	228.70
902.90	228.57
903.21	228.60
903.51	228.59
903.82	228.43
904.12	228.48
904.43	228.45
904.73	228.42
905.03	228.37
905.34	228.51
905.64	228.30
905.95	228.30
906.25	228.24
906.56	228.22
906.86	228.23
907.17	228.19
907.47	228.16
907.77	228.06
908.08	228.07
908.38	228.03
908.69	228.12
908.99	228.11
909.30	228.18
909.60	228.07
909.90	228.09
910.21	228.09
910.51	227.91
910.81	227.89
911.12	227.96
911.42	228.00
911.73	227.80
912.03	227.86
912.33	227.88
912.64	227.88
912.94	227.87
913.24	227.74
913.55	227.74
913.85	227.74
914.15	227.72
914.46	227.71
914.76	227.76
915.06	227.57
915.37	227.57
915.67	227.54
915.97	227.56
916.27	227.48
916.58	227.51
916.88	227.53
917.18	227.57
917.49	227.72
917.79	227.63
918.09	227.68
918.39	227.63
918.70	227.63
919.00	227.70
919.30	227.71
919.60	227.60
919.91	227.57
920.21	227.50
920.51	227.50
920.81	227.45
921.12	227.36
921.42	227.46
921.72	227.51
922.02	227.45
922.32	227.44
922.63	227.53
922.93	227.60
923.23	227.63
923.53	227.65
923.83	227.48
924.13	227.54
924.44	227.56
924.74	227.73
925.04	227.68
925.34	227.65
925.64	227.68
925.94	227.96
926.24	228.16
926.55	228.24
926.85	228.23
927.15	228.29
927.45	228.33
927.75	228.38
928.05	228.49
928.35	228.51
928.65	228.58
928.95	228.64
929.26	228.53
929.56	228.74
929.86	228.62
930.16	228.75
930.46	228.85
930.76	228.94
931.06	228.83
931.36	228.91
931.66	228.94
931.96	228.89
932.26	228.77
932.56	228.68
932.86	228.76
933.16	228.94
933.46	228.90
933.76	228.97
934.06	229.01
934.36	228.89
934.66	228.96
934.96	228.93
935.26	228.94
935.56	229.11
935.86	229.01
936.16	229.03
936.46	228.93
936.76	228.85
937.06	228.76
937.36	228.80
937.66	228.80
937.96	228.86
938.26	228.82
938.56	228.91
938.86	228.89
939.16	228.89
939.46	228.82
939.76	228.80
940.06	228.73
940.35	228.71
940.65	228.72
940.95	228.71
941.25	228.69
941.55	228.61
941.85	228.47
942.15	228.51
942.45	228.59
942.75	228.52
943.04	228.56
943.34	228.59
943.64	228.67
943.94	228.59
944.24	228.55
944.54	228.57
944.84	228.56
945.13	228.60
945.43	228.60
945.73	228.58
946.03	228.57
946.33	228.52
946.62	228.39
946.92	228.29
947.22	228.24
947.52	228.26
947.82	228.26
948.11	228.34
948.41	228.23
948.71	228.16
949.01	228.14
949.31	228.02
949.60	228.04
949.90	228.00
950.20	228.04
950.50	228.03
950.79	228.08
951.09	228.11
951.39	227.98
951.69	227.89
951.98	227.91
952.28	227.90
952.58	227.86
952.87	227.94
953.17	228.00
953.47	228.01
953.76	228.03
954.06	227.94
954.36	227.85
954.66	227.80
954.95	227.83
955.25	227.92
955.55	227.91
955.84	227.81
956.14	227.77
956.44	227.72
956.73	227.68
957.03	227.68
957.32	227.55
957.62	227.58
957.92	227.59
958.21	227.56
958.51	227.82
958.81	227.94
959.10	227.92
959.40	227.92
959.69	227.95
959.99	227.99
960.29	228.06
960.58	228.09
960.88	228.10
961.17	228.07
961.47	228.10
961.76	228.18
962.06	228.25
962.36	228.24
962.65	228.18
962.95	228.22
963.24	228.25
963.54	228.37
963.83	228.35
964.13	228.36
964.42	228.29
964.72	228.12
965.01	228.15
965.31	228.17
965.60	228.32
965.90	228.37
966.19	228.20
966.49	228.21
966.78	228.19
967.08	228.32
967.37	228.41
967.67	228.40
967.96	228.50
968.26	228.49
968.55	228.51
968.85	228.69
969.14	228.67
969.43	228.73
969.73	228.60
970.02	228.64
970.32	228.70
970.61	228.80
970.91	228.76
971.20	228.65
971.49	228.60
971.79	228.46
972.08	228.45
972.38	228.56
972.67	228.62
972.96	228.63
973.26	228.59
973.55	228.67
973.85	228.73
974.14	228.70
974.43	228.82
974.73	228.86
975.02	228.71
975.31	228.82
975.61	228.71
975.90	228.70
976.19	228.81
976.49	228.78
976.78	228.79
977.07	228.83
977.37	228.94
977.66	228.98
977.95	228.95
978.24	229.01
978.54	229.02
978.83	228.95
979.12	228.95
979.42	228.95
979.71	228.95
980.00	228.90
980.29	228.84
980.59	228.69
980.88	228.62
981.17	228.71
981.46	228.56
981.76	228.56
982.05	228.71
982.34	228.56
982.63	228.54
982.93	228.44
983.22	228.45
983.51	228.40
983.80	228.37
984.09	228.33
984.39	228.20
984.68	228.23
984.97	228.27
985.26	228.25
985.55	228.20
985.85	228.00
986.14	227.97
986.43	227.98
986.72	227.93
987.01	227.94
987.30	227.99
987.59	228.02
987.89	228.03
988.18	227.92
988.47	227.89
988.76	227.88
989.05	227.84
989.34	227.72
989.63	227.72
989.92	227.88
990.22	227.87
990.51	227.97
990.80	227.88
991.09	227.81
991.38	227.88
991.67	227.89
991.96	227.84
992.25	227.77
992.54	227.69
992.83	227.71
993.12	227.69
993.41	227.57
993.70	227.61
993.99	227.59
994.28	227.65
994.58	227.78
994.87	227.83
995.16	227.87
995.45	227.99
995.74	227.99
996.03	227.81
996.32	227.92
996.61	227.87
996.90	227.92
997.19	227.96
997.48	227.83
997.77	227.80
998.06	227.90
998.34	227.90
998.63	227.92
998.92	227.94
999.21	227.90
999.50	227.88
999.79	227.88
1000.08	227.90
1000.37	227.88
1000.66	227.80
1000.95	227.81
1001.24	227.86
1001.53	227.86
1001.82	227.82
1002.11	227.89
1002.40	227.87
1002.68	227.89
1002.97	227.97
1003.26	228.03
1003.55	228.05
1003.84	228.05
1004.13	228.16
1004.42	228.20
1004.71	228.23
1004.99	228.33
1005.28	228.42
1005.57	228.55
1005.86	228.49
1006.15	228.45
1006.44	228.40
1006.72	228.46
1007.01	228.40
1007.30	228.45
1007.59	228.40
1007.88	228.48
1008.17	228.57
1008.45	228.56
1008.74	228.63
1009.03	228.55
1009.32	228.53
1009.60	228.60
1009.89	228.60
1010.18	228.44
1010.47	228.53
1010.76	228.52
1011.04	228.52
1011.33	228.51
1011.62	228.49
1011.91	228.57
1012.19	228.62
1012.48	228.67
1012.77	228.62
1013.05	228.70
1013.34	228.62
1013.63	228.69
1013.92	228.63
1014.20	228.49
1014.49	228.49
1014.78	228.46
1015.06	228.49
1015.35	228.41
1015.64	228.42
1015.92	228.50
1016.21	228.51
1016.50	228.40
1016.78	228.51
1017.07	228.42
1017.36	228.45
1017.64	228.42
1017.93	228.36
1018.22	228.45
1018.50	228.41
1018.79	228.40
1019.08	228.31
1019.36	228.32
1019.65	228.20
1019.93	228.27
1020.22	228.42
1020.51	228.45
1020.79	228.35
1021.08	230.30
1021.36	227.00
1021.65	227.70
1021.94	227.80
1022.22	228.10
1022.51	227.20
1022.79	229.40
1023.08	230.10
1023.36	229.30
1023.65	227.30
>>>>>End Processed Spectral Data<<<<<
