SpectraSuite Data File
++++++++++++++++++++++++++++++++++++
Date: Fri Feb 01 14:40:48 EST 2013
User: group
Dark Spectrum Present: No
Reference Spectrum Present: No
Number of Sampled Component Spectra: 1
Spectrometers: USB2E7196
Integration Time (usec): 70000 (USB2E7196)
Spectra Averaged: 10 (USB2E7196)
Boxcar Smoothing: 10 (USB2E7196)
Correct for Electrical Dark: No (USB2E7196)
Strobe/Lamp Enabled: No (USB2E7196)
Correct for Detector Non-linearity: No (USB2E7196)
Correct for Stray Light: No (USB2E7196)
Number of Pixels in Processed Spectrum: 2048
>>>>>Begin Processed Spectral Data<<<<<
339.09	0.00
339.48	215.30
339.86	217.90
340.24	220.70
340.63	218.30
341.01	225.00
341.39	224.80
341.78	226.70
342.16	228.10
342.54	227.10
342.93	215.25
343.31	226.09
343.69	226.75
344.07	227.21
344.46	227.74
344.84	228.31
345.22	228.46
345.60	228.75
345.99	228.78
346.37	228.81
346.75	228.89
347.13	228.80
347.52	229.04
347.90	229.06
348.28	229.02
348.66	229.11
349.05	229.16
349.43	229.16
349.81	229.19
350.19	229.18
350.57	229.24
350.96	229.29
351.34	229.49
351.72	229.61
352.10	229.69
352.48	229.57
352.87	229.63
353.25	229.79
353.63	229.67
354.01	229.81
354.39	229.94
354.77	230.07
355.15	230.15
355.54	230.11
355.92	230.05
356.30	230.00
356.68	230.19
357.06	230.26
357.44	230.31
357.82	230.48
358.20	230.58
358.58	230.61
358.97	230.66
359.35	230.55
359.73	230.49
360.11	230.58
360.49	230.65
360.87	230.63
361.25	230.64
361.63	230.71
362.01	230.74
362.39	230.74
362.77	230.73
363.15	230.76
363.53	230.90
363.91	230.99
364.29	231.09
364.67	230.93
365.05	230.92
365.43	230.91
365.81	230.86
366.19	231.02
366.57	231.07
366.95	231.10
367.33	231.10
367.71	231.10
368.09	231.11
368.47	231.10
368.85	231.08
369.23	231.05
369.61	231.09
369.99	231.07
370.37	231.05
370.75	231.08
371.13	231.03
371.51	230.80
371.89	230.70
372.27	230.68
372.65	230.64
373.03	230.56
373.41	230.46
373.78	230.34
374.16	230.08
374.54	229.91
374.92	229.86
375.30	229.78
375.68	229.69
376.06	229.65
376.44	229.52
376.82	229.37
377.19	229.23
377.57	229.10
377.95	229.03
378.33	228.83
378.71	228.66
379.09	228.49
379.47	228.45
379.84	228.33
380.22	228.21
380.60	228.05
380.98	228.03
381.36	228.00
381.73	228.00
382.11	228.03
382.49	228.08
382.87	227.92
383.25	227.90
383.62	228.12
384.00	227.92
384.38	227.90
384.76	227.92
385.13	228.02
385.51	227.93
385.89	227.87
386.27	227.89
386.64	227.90
387.02	228.00
387.40	227.95
387.78	228.04
388.15	228.04
388.53	228.00
388.91	228.00
389.29	227.92
389.66	227.90
390.04	227.76
390.42	227.67
390.79	227.63
391.17	227.58
391.55	227.31
391.92	227.38
392.30	227.40
392.68	227.35
393.05	227.21
393.43	227.23
393.81	227.30
394.18	227.26
394.56	227.30
394.94	227.21
395.31	227.13
395.69	227.29
396.06	227.46
396.44	227.50
396.82	227.51
397.19	227.68
397.57	227.73
397.95	227.86
398.32	227.97
398.70	228.04
399.07	228.24
399.45	228.32
399.82	228.29
400.20	228.34
400.58	228.40
400.95	228.49
401.33	228.74
401.70	228.93
402.08	229.18
402.45	229.23
402.83	229.55
403.20	229.78
403.58	229.80
403.95	229.82
404.33	230.09
404.71	230.16
405.08	230.45
405.46	230.55
405.83	230.69
406.21	230.83
406.58	231.05
406.96	231.22
407.33	231.40
407.70	231.69
408.08	232.18
408.45	232.52
408.83	232.90
409.20	233.01
409.58	233.18
409.95	233.37
410.33	233.79
410.70	233.91
411.08	234.23
411.45	234.56
411.82	234.87
412.20	235.14
412.57	235.66
412.95	235.84
413.32	236.36
413.69	236.78
414.07	237.20
414.44	237.69
414.82	238.05
415.19	238.57
415.56	239.24
415.94	239.50
416.31	239.98
416.68	240.49
417.06	241.27
417.43	241.87
417.81	242.62
418.18	243.31
418.55	244.13
418.93	244.94
419.30	245.80
419.67	246.72
420.04	247.72
420.42	248.64
420.79	249.79
421.16	250.93
421.54	252.22
421.91	253.47
422.28	254.76
422.66	256.17
423.03	257.55
423.40	258.81
423.77	260.40
424.15	261.90
424.52	263.46
424.89	264.95
425.26	266.54
425.64	268.01
426.01	269.60
426.38	271.33
426.75	273.02
427.13	274.90
427.50	276.75
427.87	278.56
428.24	280.52
428.61	282.29
428.99	284.23
429.36	286.43
429.73	288.60
430.10	290.70
430.47	292.91
430.85	295.10
431.22	297.44
431.59	299.91
431.96	302.31
432.33	304.91
432.70	307.45
433.08	310.38
433.45	313.14
433.82	315.80
434.19	318.91
434.56	321.92
434.93	324.62
435.30	327.41
435.68	330.62
436.05	333.58
436.42	336.56
436.79	339.12
437.16	342.00
437.53	344.84
437.90	347.72
438.27	350.53
438.64	353.49
439.01	356.16
439.38	358.45
439.75	360.78
440.13	363.37
440.50	365.82
440.87	367.90
441.24	369.94
441.61	372.30
441.98	373.86
442.35	375.70
442.72	377.73
443.09	379.67
443.46	380.66
443.83	381.26
444.20	381.74
444.57	382.66
444.94	382.88
445.31	383.24
445.68	383.73
446.05	383.81
446.42	383.40
446.79	383.03
447.16	382.54
447.53	382.10
447.90	380.75
448.27	379.57
448.64	378.04
449.01	376.80
449.37	374.66
449.74	372.60
450.11	370.30
450.48	367.65
450.85	364.97
451.22	362.80
451.59	360.66
451.96	358.67
452.33	356.06
452.70	353.63
453.07	350.91
453.43	347.77
453.80	344.96
454.17	342.09
454.54	339.43
454.91	336.65
455.28	334.00
455.65	331.56
456.02	329.19
456.38	326.74
456.75	324.05
457.12	321.71
457.49	319.50
457.86	317.26
458.23	315.32
458.59	313.19
458.96	310.96
459.33	308.90
459.70	306.99
460.07	305.30
460.43	303.37
460.80	301.45
461.17	300.01
461.54	298.29
461.91	296.91
462.27	295.36
462.64	294.05
463.01	292.50
463.38	291.08
463.74	289.44
464.11	288.16
464.48	287.05
464.85	285.81
465.21	284.77
465.58	283.71
465.95	282.47
466.32	281.36
466.68	280.40
467.05	279.40
467.42	278.34
467.78	277.31
468.15	276.31
468.52	275.64
468.88	274.64
469.25	273.86
469.62	273.10
469.98	272.35
470.35	271.52
470.72	270.84
471.08	270.00
471.45	269.41
471.82	268.70
472.18	267.94
472.55	267.40
472.92	266.77
473.28	266.20
473.65	265.63
474.02	265.08
474.38	264.44
474.75	264.07
475.11	263.59
475.48	263.20
475.85	262.91
476.21	262.41
476.58	262.00
476.94	261.56
477.31	261.05
477.67	260.60
478.04	260.28
478.41	259.97
478.77	259.97
479.14	259.59
479.50	259.41
479.87	259.20
480.23	259.05
480.60	258.77
480.96	258.60
481.33	258.54
481.69	258.49
482.06	258.40
482.42	258.35
482.79	258.28
483.15	258.16
483.52	258.18
483.88	258.29
484.25	258.30
484.61	258.46
484.98	258.67
485.34	258.95
485.71	259.07
486.07	259.19
486.44	259.09
486.80	259.29
487.17	259.53
487.53	259.97
487.90	260.36
488.26	260.82
488.62	261.24
488.99	261.76
489.35	262.32
489.72	262.80
490.08	263.32
490.44	263.94
490.81	264.67
491.17	265.22
491.54	265.87
491.90	266.79
492.26	267.50
492.63	268.33
492.99	269.14
493.36	270.20
493.72	271.23
494.08	272.41
494.45	273.60
494.81	274.89
495.17	276.07
495.54	277.36
495.90	278.80
496.26	280.30
496.63	281.83
496.99	283.36
497.35	285.19
497.72	287.10
498.08	288.98
498.44	291.09
498.80	293.30
499.17	295.48
499.53	297.70
499.89	300.18
500.26	302.72
500.62	305.42
500.98	308.19
501.34	311.05
501.71	314.18
502.07	317.41
502.43	320.75
502.79	324.13
503.16	327.62
503.52	331.19
503.88	334.93
504.24	338.89
504.60	343.03
504.97	347.52
505.33	352.12
505.69	356.93
506.05	361.70
506.41	366.64
506.78	371.86
507.14	377.11
507.50	382.79
507.86	388.62
508.22	394.50
508.59	400.45
508.95	406.92
509.31	413.38
509.67	420.07
510.03	426.77
510.39	433.90
510.75	441.24
511.12	448.62
511.48	456.26
511.84	464.05
512.20	472.05
512.56	480.20
512.92	488.33
513.28	496.82
513.64	505.40
514.00	514.36
514.37	523.59
514.73	532.84
515.09	542.20
515.45	551.65
515.81	561.21
516.17	571.33
516.53	581.57
516.89	591.93
517.25	602.20
517.61	613.04
517.97	623.55
518.33	634.41
518.69	645.72
519.05	657.11
519.41	668.60
519.77	680.60
520.13	692.50
520.49	704.48
520.85	716.61
521.21	728.90
521.57	741.55
521.93	753.79
522.29	766.71
522.65	779.36
523.01	792.08
523.37	805.03
523.73	817.88
524.09	831.09
524.45	844.41
524.81	858.17
525.17	871.84
525.53	886.10
525.89	900.24
526.25	914.30
526.61	928.00
526.97	942.19
527.33	955.79
527.68	969.98
528.04	984.24
528.40	998.58
528.76	1013.56
529.12	1028.15
529.48	1042.89
529.84	1057.13
530.20	1072.08
530.56	1087.50
530.91	1103.26
531.27	1118.76
531.63	1133.60
531.99	1148.50
532.35	1163.12
532.71	1177.76
533.07	1192.89
533.42	1207.91
533.78	1222.74
534.14	1237.96
534.50	1252.55
534.86	1267.90
535.21	1282.19
535.57	1297.83
535.93	1312.85
536.29	1327.08
536.65	1341.75
537.00	1356.45
537.36	1371.71
537.72	1385.96
538.08	1400.02
538.44	1413.51
538.79	1427.43
539.15	1441.18
539.51	1455.40
539.87	1469.74
540.22	1483.59
540.58	1497.41
540.94	1510.87
541.29	1524.22
541.65	1537.87
542.01	1551.70
542.37	1564.78
542.72	1578.02
543.08	1590.41
543.44	1603.43
543.79	1615.69
544.15	1627.92
544.51	1640.70
544.87	1652.93
545.22	1665.14
545.58	1677.24
545.94	1688.86
546.29	1700.29
546.65	1711.98
547.01	1723.12
547.36	1733.79
547.72	1744.32
548.07	1754.86
548.43	1765.25
548.79	1775.47
549.14	1784.96
549.50	1794.15
549.86	1803.66
550.21	1812.85
550.57	1822.11
550.92	1830.78
551.28	1839.92
551.64	1848.50
551.99	1857.00
552.35	1865.05
552.70	1873.72
553.06	1882.19
553.41	1890.71
553.77	1899.08
554.13	1906.92
554.48	1914.59
554.84	1922.37
555.19	1930.30
555.55	1937.22
555.90	1944.10
556.26	1951.36
556.61	1958.64
556.97	1965.56
557.32	1972.53
557.68	1979.22
558.03	1985.65
558.39	1991.94
558.74	1999.23
559.10	2005.88
559.45	2011.84
559.81	2018.50
560.16	2023.92
560.52	2029.38
560.87	2035.43
561.23	2040.50
561.58	2046.10
561.94	2051.17
562.29	2056.02
562.64	2060.37
563.00	2065.46
563.35	2070.79
563.71	2075.97
564.06	2080.98
564.42	2085.47
564.77	2089.68
565.12	2094.57
565.48	2098.97
565.83	2102.75
566.19	2105.57
566.54	2108.69
566.89	2112.06
567.25	2114.91
567.60	2118.74
567.96	2121.79
568.31	2124.29
568.66	2127.04
569.02	2129.28
569.37	2130.89
569.72	2133.48
570.08	2135.49
570.43	2137.30
570.78	2138.79
571.14	2139.18
571.49	2139.63
571.84	2141.83
572.20	2142.38
572.55	2142.81
572.90	2142.84
573.26	2143.77
573.61	2144.01
573.96	2144.18
574.31	2143.44
574.67	2141.80
575.02	2140.15
575.37	2139.16
575.72	2137.29
576.08	2136.08
576.43	2134.45
576.78	2133.75
577.13	2132.15
577.49	2131.10
577.84	2128.75
578.19	2126.64
578.54	2124.82
578.90	2122.25
579.25	2118.33
579.60	2115.55
579.95	2112.16
580.30	2109.33
580.66	2105.54
581.01	2102.38
581.36	2098.84
581.71	2096.45
582.06	2094.02
582.42	2090.84
582.77	2087.11
583.12	2083.39
583.47	2079.96
583.82	2076.93
584.17	2073.15
584.53	2069.44
584.88	2065.49
585.23	2061.81
585.58	2057.79
585.93	2053.93
586.28	2050.85
586.63	2047.50
586.98	2044.01
587.34	2040.90
587.69	2036.56
588.04	2032.80
588.39	2029.08
588.74	2024.32
589.09	2018.81
589.44	2013.59
589.79	2008.93
590.14	2004.55
590.49	1999.94
590.84	1994.89
591.19	1989.67
591.54	1983.76
591.89	1977.18
592.25	1971.40
592.60	1964.93
592.95	1958.66
593.30	1952.30
593.65	1945.86
594.00	1939.71
594.35	1933.91
594.70	1926.94
595.05	1921.21
595.40	1914.72
595.75	1907.69
596.10	1902.21
596.45	1896.63
596.80	1891.43
597.15	1886.00
597.50	1879.84
597.85	1874.80
598.19	1869.56
598.54	1864.12
598.89	1858.76
599.24	1854.58
599.59	1848.79
599.94	1843.87
600.29	1838.27
600.64	1832.61
600.99	1826.57
601.34	1820.43
601.69	1814.05
602.04	1808.70
602.39	1802.50
602.74	1797.27
603.08	1792.25
603.43	1786.67
603.78	1780.53
604.13	1774.58
604.48	1768.16
604.83	1762.10
605.18	1755.65
605.53	1748.26
605.87	1740.60
606.22	1734.21
606.57	1726.60
606.92	1720.14
607.27	1713.93
607.62	1707.84
607.96	1701.78
608.31	1695.48
608.66	1688.36
609.01	1681.43
609.36	1673.85
609.70	1666.23
610.05	1658.28
610.40	1650.76
610.75	1642.92
611.10	1635.67
611.44	1627.21
611.79	1620.06
612.14	1612.51
612.49	1604.15
612.83	1596.65
613.18	1589.29
613.53	1581.81
613.88	1574.13
614.22	1566.50
614.57	1558.03
614.92	1550.32
615.27	1542.40
615.61	1534.53
615.96	1527.36
616.31	1519.85
616.65	1513.31
617.00	1506.51
617.35	1499.49
617.70	1491.70
618.04	1483.91
618.39	1476.40
618.74	1469.52
619.08	1461.32
619.43	1453.89
619.78	1447.15
620.12	1439.80
620.47	1432.51
620.82	1424.58
621.16	1417.10
621.51	1410.06
621.85	1402.88
622.20	1394.97
622.55	1387.72
622.89	1380.69
623.24	1373.72
623.59	1367.01
623.93	1359.76
624.28	1352.14
624.62	1344.92
624.97	1338.30
625.32	1331.71
625.66	1324.93
626.01	1317.96
626.35	1311.05
626.70	1303.80
627.04	1296.56
627.39	1289.61
627.73	1282.99
628.08	1276.42
628.43	1269.91
628.77	1262.88
629.12	1255.85
629.46	1249.18
629.81	1241.57
630.15	1233.94
630.50	1226.49
630.84	1218.73
631.19	1210.91
631.53	1204.11
631.88	1196.59
632.22	1188.68
632.57	1181.59
632.91	1174.19
633.26	1167.11
633.60	1159.63
633.95	1152.62
634.29	1145.97
634.64	1138.98
634.98	1131.50
635.32	1124.72
635.67	1117.86
636.01	1111.19
636.36	1104.54
636.70	1097.89
637.05	1091.76
637.39	1085.79
637.73	1079.52
638.08	1073.84
638.42	1068.12
638.77	1062.10
639.11	1055.91
639.45	1050.10
639.80	1043.68
640.14	1037.33
640.49	1030.82
640.83	1024.88
641.17	1018.78
641.52	1012.00
641.86	1005.75
642.20	1000.10
642.55	993.91
642.89	987.84
643.23	981.33
643.58	975.60
643.92	969.38
644.26	963.33
644.61	957.49
644.95	951.50
645.29	944.76
645.64	937.89
645.98	931.51
646.32	925.67
646.66	919.34
647.01	913.40
647.35	907.73
647.69	901.99
648.04	896.57
648.38	890.48
648.72	884.51
649.06	878.29
649.41	872.11
649.75	866.01
650.09	859.88
650.43	854.00
650.78	847.58
651.12	841.80
651.46	836.16
651.80	830.26
652.14	824.63
652.49	818.98
652.83	813.89
653.17	807.97
653.51	802.25
653.85	796.66
654.20	790.85
654.54	784.85
654.88	779.03
655.22	772.99
655.56	767.33
655.90	762.17
656.25	757.09
656.59	751.67
656.93	746.50
657.27	741.29
657.61	735.94
657.95	731.16
658.29	726.17
658.64	720.91
658.98	715.54
659.32	710.18
659.66	705.35
660.00	700.16
660.34	695.29
660.68	690.39
661.02	685.64
661.36	681.15
661.70	676.74
662.05	672.38
662.39	668.12
662.73	663.68
663.07	659.23
663.41	654.84
663.75	650.75
664.09	646.31
664.43	642.27
664.77	638.29
665.11	634.00
665.45	629.73
665.79	625.48
666.13	621.36
666.47	617.44
666.81	613.12
667.15	608.74
667.49	604.99
667.83	601.26
668.17	597.28
668.51	593.30
668.85	589.40
669.19	585.74
669.53	581.92
669.87	577.99
670.21	574.25
670.55	570.61
670.89	567.13
671.23	563.78
671.57	560.23
671.91	556.74
672.25	553.43
672.58	550.12
672.92	546.85
673.26	543.63
673.60	540.26
673.94	537.21
674.28	534.42
674.62	531.34
674.96	528.09
675.30	525.21
675.64	522.33
675.97	519.25
676.31	516.19
676.65	513.05
676.99	510.60
677.33	507.79
677.67	504.82
678.01	501.84
678.34	498.97
678.68	496.14
679.02	493.30
679.36	490.51
679.70	487.63
680.04	484.89
680.37	482.22
680.71	479.62
681.05	477.12
681.39	474.63
681.73	472.10
682.06	469.60
682.40	467.23
682.74	464.40
683.08	462.07
683.42	459.53
683.75	457.28
684.09	454.49
684.43	452.03
684.77	449.63
685.10	447.34
685.44	444.90
685.78	442.41
686.12	439.97
686.45	437.68
686.79	435.46
687.13	433.25
687.46	430.98
687.80	428.68
688.14	426.12
688.48	423.83
688.81	421.46
689.15	419.31
689.49	417.00
689.82	414.98
690.16	412.82
690.50	410.81
690.83	408.59
691.17	406.56
691.51	404.59
691.84	402.84
692.18	400.80
692.52	398.80
692.85	396.87
693.19	395.01
693.52	393.00
693.86	391.05
694.20	389.23
694.53	387.28
694.87	385.42
695.21	383.63
695.54	381.65
695.88	379.80
696.21	377.97
696.55	376.12
696.88	374.40
697.22	372.62
697.56	370.82
697.89	369.08
698.23	367.52
698.56	365.74
698.90	363.81
699.23	361.99
699.57	360.41
699.90	358.85
700.24	357.28
700.58	355.69
700.91	354.11
701.25	352.50
701.58	351.16
701.92	349.73
702.25	348.33
702.59	346.94
702.92	345.66
703.26	344.20
703.59	342.87
703.93	341.62
704.26	340.25
704.60	338.93
704.93	337.60
705.26	336.30
705.60	335.08
705.93	334.02
706.27	332.84
706.60	331.72
706.94	330.50
707.27	329.13
707.61	327.87
707.94	326.69
708.27	325.36
708.61	324.22
708.94	323.09
709.28	321.97
709.61	320.89
709.94	319.76
710.28	318.75
710.61	317.72
710.95	316.48
711.28	315.64
711.61	314.50
711.95	313.62
712.28	312.48
712.61	311.36
712.95	310.30
713.28	309.28
713.61	308.19
713.95	307.15
714.28	306.36
714.61	305.51
714.95	304.78
715.28	304.03
715.61	303.03
715.95	302.08
716.28	301.28
716.61	300.45
716.95	299.64
717.28	298.74
717.61	297.99
717.94	297.23
718.28	296.29
718.61	295.61
718.94	294.80
719.27	294.16
719.61	293.59
719.94	292.88
720.27	292.13
720.60	291.42
720.94	290.80
721.27	290.03
721.60	289.29
721.93	288.47
722.27	287.87
722.60	287.20
722.93	286.67
723.26	286.04
723.59	285.41
723.93	284.75
724.26	284.15
724.59	283.56
724.92	282.93
725.25	282.30
725.59	281.66
725.92	281.12
726.25	280.43
726.58	279.85
726.91	279.32
727.24	278.81
727.57	278.31
727.91	277.77
728.24	277.36
728.57	276.77
728.90	276.27
729.23	275.56
729.56	275.22
729.89	274.51
730.22	273.88
730.55	273.29
730.89	272.68
731.22	272.26
731.55	271.67
731.88	271.27
732.21	270.75
732.54	270.30
732.87	269.80
733.20	269.50
733.53	269.08
733.86	268.60
734.19	268.17
734.52	267.65
734.85	267.37
735.18	266.83
735.51	266.47
735.84	266.05
736.17	265.72
736.50	265.08
736.83	265.00
737.16	264.55
737.49	264.21
737.82	263.92
738.15	263.46
738.48	263.07
738.81	262.67
739.14	262.30
739.47	261.94
739.80	261.52
740.13	261.09
740.46	260.68
740.79	260.14
741.12	259.80
741.45	259.50
741.78	259.05
742.11	258.67
742.44	258.33
742.77	257.98
743.10	257.60
743.43	257.34
743.75	256.68
744.08	256.71
744.41	256.28
744.74	255.94
745.07	255.61
745.40	255.30
745.73	254.96
746.06	254.72
746.39	254.39
746.71	254.02
747.04	253.77
747.37	253.35
747.70	253.27
748.03	252.92
748.36	252.58
748.68	252.15
749.01	251.90
749.34	251.52
749.67	251.21
750.00	250.93
750.33	250.78
750.65	250.65
750.98	250.12
751.31	249.92
751.64	249.64
751.97	249.57
752.29	249.30
752.62	249.00
752.95	248.69
753.28	248.42
753.60	248.20
753.93	247.94
754.26	247.76
754.59	247.38
754.91	247.15
755.24	246.98
755.57	246.81
755.90	246.66
756.22	246.51
756.55	246.29
756.88	246.08
757.20	245.75
757.53	245.45
757.86	245.24
758.19	245.09
758.51	244.96
758.84	244.67
759.17	244.45
759.49	244.35
759.82	244.25
760.15	244.15
760.47	244.00
760.80	243.78
761.13	243.70
761.45	243.62
761.78	243.39
762.11	243.16
762.43	243.04
762.76	242.88
763.08	242.71
763.41	242.60
763.74	242.51
764.06	242.31
764.39	242.25
764.71	242.02
765.04	241.81
765.37	241.60
765.69	241.42
766.02	241.22
766.34	241.07
766.67	240.79
767.00	240.67
767.32	240.74
767.65	240.76
767.97	240.65
768.30	240.63
768.62	240.60
768.95	240.50
769.27	240.32
769.60	240.23
769.92	240.11
770.25	239.99
770.57	239.75
770.90	239.71
771.22	239.58
771.55	239.55
771.87	239.54
772.20	239.37
772.52	239.45
772.85	239.64
773.17	239.53
773.50	239.50
773.82	239.36
774.15	239.06
774.47	238.77
774.80	238.64
775.12	238.34
775.45	238.19
775.77	238.05
776.09	238.02
776.42	237.79
776.74	237.76
777.07	237.58
777.39	237.49
777.72	237.33
778.04	237.21
778.36	237.08
778.69	236.89
779.01	236.91
779.33	236.57
779.66	236.24
779.98	236.15
780.31	235.91
780.63	235.82
780.95	235.79
781.28	235.69
781.60	235.56
781.92	235.44
782.25	235.28
782.57	235.26
782.89	235.10
783.22	235.10
783.54	234.95
783.86	234.83
784.19	234.74
784.51	234.71
784.83	234.60
785.16	234.55
785.48	234.55
785.80	234.42
786.12	234.44
786.45	234.29
786.77	234.28
787.09	234.38
787.42	234.25
787.74	234.13
788.06	234.10
788.38	233.95
788.71	233.94
789.03	233.95
789.35	233.89
789.67	233.71
789.99	233.66
790.32	233.60
790.64	233.63
790.96	233.79
791.28	233.67
791.61	233.67
791.93	233.62
792.25	233.50
792.57	233.59
792.89	233.45
793.21	233.47
793.54	233.39
793.86	233.37
794.18	233.33
794.50	233.33
794.82	233.34
795.14	233.37
795.47	233.35
795.79	233.26
796.11	233.10
796.43	233.17
796.75	233.11
797.07	233.06
797.39	233.02
797.71	232.87
798.04	232.88
798.36	232.79
798.68	232.75
799.00	232.71
799.32	232.59
799.64	232.61
799.96	232.57
800.28	232.52
800.60	232.40
800.92	232.39
801.24	232.31
801.56	232.36
801.89	232.37
802.21	232.34
802.53	232.29
802.85	232.31
803.17	232.38
803.49	232.31
803.81	232.35
804.13	232.25
804.45	232.16
804.77	232.13
805.09	232.20
805.41	232.14
805.73	232.17
806.05	232.18
806.37	232.15
806.69	232.16
807.01	232.14
807.33	232.14
807.65	232.04
807.97	232.07
808.28	231.82
808.60	231.70
808.92	231.70
809.24	231.87
809.56	231.89
809.88	231.75
810.20	231.72
810.52	231.72
810.84	231.75
811.16	231.75
811.48	231.67
811.80	231.60
812.12	231.56
812.43	231.51
812.75	231.43
813.07	231.28
813.39	231.22
813.71	231.12
814.03	231.07
814.35	231.03
814.67	230.92
814.98	231.02
815.30	231.08
815.62	230.94
815.94	230.76
816.26	230.75
816.58	230.63
816.89	230.62
817.21	230.50
817.53	230.50
817.85	230.41
818.17	230.44
818.48	230.43
818.80	230.47
819.12	230.33
819.44	230.22
819.76	230.21
820.07	230.15
820.39	230.08
820.71	230.03
821.03	230.03
821.34	230.02
821.66	229.99
821.98	229.93
822.30	229.99
822.61	230.06
822.93	229.93
823.25	229.99
823.57	229.90
823.88	230.00
824.20	229.88
824.52	229.91
824.83	229.88
825.15	229.78
825.47	229.80
825.79	229.90
826.10	229.88
826.42	229.80
826.74	229.83
827.05	229.76
827.37	229.84
827.69	229.85
828.00	229.84
828.32	229.83
828.64	229.83
828.95	229.82
829.27	229.80
829.58	229.84
829.90	229.92
830.22	229.96
830.53	229.82
830.85	229.90
831.17	229.91
831.48	229.88
831.80	229.82
832.11	229.78
832.43	229.74
832.75	229.82
833.06	230.10
833.38	230.03
833.69	230.16
834.01	230.11
834.32	230.05
834.64	230.07
834.96	230.05
835.27	230.08
835.59	230.13
835.90	230.08
836.22	230.14
836.53	230.00
836.85	230.02
837.16	230.25
837.48	230.21
837.79	230.35
838.11	230.40
838.42	230.50
838.74	230.56
839.05	230.50
839.37	230.52
839.68	230.30
840.00	230.30
840.31	230.31
840.63	230.30
840.94	230.30
841.26	230.21
841.57	230.16
841.88	230.15
842.20	230.09
842.51	230.03
842.83	230.00
843.14	230.25
843.46	230.30
843.77	230.28
844.08	230.24
844.40	230.07
844.71	229.98
845.03	229.89
845.34	229.79
845.65	229.86
845.97	229.80
846.28	229.83
846.60	229.84
846.91	229.75
847.22	229.75
847.54	229.84
847.85	229.73
848.16	229.76
848.48	229.68
848.79	229.75
849.10	229.73
849.42	229.74
849.73	229.50
850.04	229.40
850.36	229.26
850.67	229.37
850.98	229.29
851.30	229.36
851.61	229.36
851.92	229.39
852.23	229.40
852.55	229.36
852.86	229.38
853.17	229.33
853.49	229.40
853.80	229.49
854.11	229.40
854.42	229.53
854.74	229.54
855.05	229.50
855.36	229.35
855.67	229.33
855.99	229.27
856.30	229.50
856.61	229.51
856.92	229.46
857.23	229.38
857.55	229.32
857.86	229.22
858.17	229.19
858.48	229.11
858.79	229.09
859.11	229.13
859.42	229.04
859.73	229.01
860.04	228.93
860.35	228.83
860.66	228.77
860.98	228.78
861.29	228.81
861.60	228.82
861.91	228.88
862.22	228.89
862.53	228.90
862.84	228.67
863.16	228.68
863.47	228.71
863.78	228.64
864.09	228.71
864.40	228.77
864.71	228.76
865.02	228.71
865.33	228.62
865.64	228.55
865.95	228.66
866.27	228.70
866.58	228.70
866.89	228.75
867.20	228.85
867.51	228.88
867.82	228.76
868.13	228.95
868.44	228.93
868.75	229.03
869.06	229.00
869.37	229.00
869.68	228.96
869.99	228.89
870.30	228.99
870.61	229.10
870.92	229.03
871.23	229.16
871.54	229.29
871.85	229.31
872.16	229.29
872.47	229.33
872.78	229.30
873.09	229.41
873.40	229.37
873.71	229.26
874.02	229.21
874.33	229.26
874.64	229.08
874.95	229.08
875.26	228.99
875.56	229.00
875.87	228.99
876.18	229.00
876.49	229.28
876.80	229.32
877.11	229.19
877.42	229.28
877.73	229.21
878.04	229.22
878.35	229.34
878.66	229.48
878.96	229.41
879.27	229.57
879.58	229.53
879.89	229.56
880.20	229.70
880.51	229.74
880.82	229.77
881.12	229.75
881.43	229.67
881.74	229.77
882.05	229.77
882.36	229.81
882.67	229.96
882.97	229.72
883.28	229.63
883.59	229.71
883.90	229.65
884.21	229.74
884.51	229.62
884.82	229.47
885.13	229.43
885.44	229.43
885.74	229.38
886.05	229.33
886.36	229.25
886.67	229.20
886.98	229.13
887.28	229.13
887.59	229.20
887.90	229.25
888.20	229.13
888.51	229.20
888.82	229.13
889.13	229.04
889.43	229.17
889.74	229.20
890.05	229.11
890.35	229.06
890.66	228.93
890.97	228.87
891.28	228.76
891.58	228.80
891.89	228.82
892.20	228.75
892.50	228.71
892.81	228.74
893.12	228.71
893.42	228.75
893.73	228.76
894.04	228.77
894.34	228.75
894.65	228.70
894.95	228.53
895.26	228.60
895.57	228.63
895.87	228.38
896.18	228.25
896.48	228.25
896.79	228.26
897.10	228.32
897.40	228.31
897.71	228.50
898.01	228.41
898.32	228.37
898.63	228.37
898.93	228.44
899.24	228.34
899.54	228.33
899.85	228.34
900.15	228.36
900.46	228.32
900.76	228.30
901.07	228.28
901.38	228.31
901.68	228.30
901.99	228.16
902.29	228.18
902.60	228.28
902.90	228.28
903.21	228.22
903.51	228.18
903.82	228.28
904.12	228.35
904.43	228.36
904.73	228.36
905.03	228.32
905.34	228.46
905.64	228.55
905.95	228.63
906.25	228.59
906.56	228.55
906.86	228.61
907.17	228.60
907.47	228.75
907.77	228.83
908.08	228.74
908.38	228.80
908.69	228.88
908.99	228.92
909.30	228.97
909.60	229.07
909.90	229.14
910.21	229.16
910.51	229.12
910.81	229.13
911.12	229.16
911.42	229.27
911.73	229.12
912.03	229.17
912.33	229.15
912.64	229.20
912.94	229.20
913.24	229.19
913.55	229.20
913.85	229.09
914.15	229.15
914.46	229.29
914.76	229.23
915.06	229.25
915.37	229.22
915.67	229.21
915.97	229.23
916.27	229.15
916.58	229.18
916.88	229.04
917.18	229.02
917.49	229.07
917.79	229.05
918.09	228.98
918.39	229.01
918.70	228.99
919.00	228.95
919.30	228.99
919.60	228.91
919.91	228.98
920.21	228.98
920.51	228.91
920.81	228.76
921.12	228.78
921.42	228.74
921.72	228.72
922.02	228.73
922.32	228.75
922.63	228.70
922.93	228.75
923.23	228.79
923.53	228.79
923.83	228.63
924.13	228.61
924.44	228.65
924.74	228.65
925.04	228.66
925.34	228.63
925.64	228.52
925.94	228.48
926.24	228.49
926.55	228.51
926.85	228.49
927.15	228.47
927.45	228.57
927.75	228.48
928.05	228.41
928.35	228.28
928.65	228.26
928.95	228.28
929.26	228.18
929.56	228.17
929.86	228.14
930.16	228.21
930.46	228.08
930.76	228.06
931.06	227.91
931.36	227.81
931.66	227.80
931.96	227.78
932.26	227.90
932.56	227.83
932.86	227.74
933.16	227.69
933.46	227.72
933.76	227.60
934.06	227.65
934.36	227.80
934.66	227.88
934.96	227.78
935.26	227.79
935.56	227.73
935.86	227.64
936.16	227.65
936.46	227.46
936.76	227.51
937.06	227.46
937.36	227.53
937.66	227.54
937.96	227.55
938.26	227.56
938.56	227.34
938.86	227.30
939.16	227.38
939.46	227.33
939.76	227.27
940.06	227.35
940.35	227.39
940.65	227.30
940.95	227.26
941.25	227.25
941.55	227.30
941.85	227.37
942.15	227.44
942.45	227.56
942.75	227.67
943.04	227.79
943.34	227.84
943.64	227.75
943.94	227.78
944.24	227.82
944.54	227.99
944.84	228.14
945.13	228.24
945.43	228.31
945.73	228.42
946.03	228.50
946.33	228.44
946.62	228.50
946.92	228.48
947.22	228.59
947.52	228.70
947.82	228.71
948.11	228.76
948.41	228.75
948.71	228.71
949.01	228.82
949.31	228.63
949.60	228.76
949.90	228.89
950.20	228.89
950.50	228.93
950.79	228.76
951.09	228.83
951.39	228.87
951.69	228.83
951.98	228.95
952.28	229.00
952.58	229.13
952.87	229.10
953.17	229.10
953.47	229.09
953.76	229.07
954.06	229.05
954.36	229.02
954.66	229.10
954.95	229.15
955.25	229.13
955.55	229.19
955.84	229.08
956.14	229.06
956.44	229.15
956.73	229.07
957.03	229.22
957.32	229.18
957.62	229.10
957.92	229.09
958.21	228.92
958.51	229.18
958.81	229.14
959.10	229.06
959.40	229.08
959.69	229.05
959.99	229.02
960.29	228.90
960.58	228.93
960.88	228.91
961.17	228.86
961.47	228.86
961.76	228.92
962.06	228.88
962.36	228.76
962.65	228.69
962.95	228.63
963.24	228.52
963.54	228.52
963.83	228.51
964.13	228.37
964.42	228.43
964.72	228.15
965.01	228.02
965.31	228.09
965.60	228.04
965.90	228.10
966.19	228.04
966.49	228.07
966.78	227.94
967.08	227.96
967.37	227.84
967.67	227.65
967.96	227.64
968.26	227.65
968.55	227.71
968.85	227.64
969.14	227.69
969.43	227.68
969.73	227.58
970.02	227.50
970.32	227.67
970.61	227.58
970.91	227.55
971.20	227.60
971.49	227.61
971.79	227.69
972.08	227.53
972.38	227.57
972.67	227.52
972.96	227.56
973.26	227.48
973.55	227.65
973.85	227.71
974.14	227.70
974.43	227.66
974.73	227.68
975.02	227.71
975.31	227.69
975.61	227.61
975.90	227.60
976.19	227.65
976.49	227.65
976.78	227.72
977.07	227.75
977.37	227.72
977.66	227.72
977.95	227.66
978.24	227.74
978.54	227.76
978.83	227.88
979.12	227.93
979.42	228.00
979.71	227.95
980.00	228.05
980.29	228.08
980.59	228.10
980.88	228.13
981.17	228.23
981.46	228.26
981.76	228.27
982.05	228.39
982.34	228.40
982.63	228.38
982.93	228.32
983.22	228.37
983.51	228.40
983.80	228.31
984.09	228.40
984.39	228.44
984.68	228.50
984.97	228.54
985.26	228.45
985.55	228.45
985.85	228.37
986.14	228.41
986.43	228.40
986.72	228.44
987.01	228.42
987.30	228.40
987.59	228.44
987.89	228.56
988.18	228.60
988.47	228.67
988.76	228.61
989.05	228.68
989.34	228.67
989.63	228.75
989.92	228.84
990.22	228.75
990.51	228.74
990.80	228.68
991.09	228.59
991.38	228.71
991.67	228.72
991.96	228.73
992.25	228.69
992.54	228.70
992.83	228.65
993.12	228.68
993.41	228.70
993.70	228.70
993.99	228.73
994.28	228.62
994.58	228.50
994.87	228.54
995.16	228.51
995.45	228.45
995.74	228.36
996.03	228.41
996.32	228.51
996.61	228.60
996.90	228.59
997.19	228.60
997.48	228.55
997.77	228.59
998.06	228.54
998.34	228.46
998.63	228.34
998.92	228.43
999.21	228.40
999.50	228.45
999.79	228.52
1000.08	228.41
1000.37	228.39
1000.66	228.42
1000.95	228.52
1001.24	228.54
1001.53	228.60
1001.82	228.65
1002.11	228.67
1002.40	228.61
1002.68	228.54
1002.97	228.74
1003.26	228.80
1003.55	228.73
1003.84	228.58
1004.13	228.69
1004.42	228.77
1004.71	228.82
1004.99	228.73
1005.28	228.66
1005.57	228.52
1005.86	228.30
1006.15	228.35
1006.44	228.24
1006.72	228.14
1007.01	228.00
1007.30	228.03
1007.59	227.91
1007.88	227.88
1008.17	227.63
1008.45	227.57
1008.74	227.51
1009.03	227.39
1009.32	227.23
1009.60	227.30
1009.89	227.35
1010.18	227.31
1010.47	227.26
1010.76	227.30
1011.04	227.38
1011.33	227.47
1011.62	227.46
1011.91	227.55
1012.19	227.59
1012.48	227.75
1012.77	227.91
1013.05	227.95
1013.34	227.94
1013.63	227.97
1013.92	228.01
1014.20	228.06
1014.49	228.10
1014.78	228.10
1015.06	228.02
1015.35	228.07
1015.64	228.06
1015.92	228.17
1016.21	228.13
1016.50	228.11
1016.78	228.14
1017.07	228.12
1017.36	228.01
1017.64	228.09
1017.93	228.03
1018.22	227.95
1018.50	227.94
1018.79	228.01
1019.08	228.01
1019.36	228.03
1019.65	228.04
1019.93	228.11
1020.22	228.32
1020.51	228.43
1020.79	228.45
1021.08	227.30
1021.36	228.30
1021.65	230.50
1021.94	228.20
1022.22	229.20
1022.51	227.90
1022.79	230.00
1023.08	230.80
1023.36	230.50
1023.65	228.20
>>>>>End Processed Spectral Data<<<<<
