SpectraSuite Data File
++++++++++++++++++++++++++++++++++++
Date: Fri Feb 01 14:36:20 EST 2013
User: group
Dark Spectrum Present: No
Reference Spectrum Present: No
Number of Sampled Component Spectra: 1
Spectrometers: USB2E7196
Integration Time (usec): 70000 (USB2E7196)
Spectra Averaged: 10 (USB2E7196)
Boxcar Smoothing: 10 (USB2E7196)
Correct for Electrical Dark: No (USB2E7196)
Strobe/Lamp Enabled: No (USB2E7196)
Correct for Detector Non-linearity: No (USB2E7196)
Correct for Stray Light: No (USB2E7196)
Number of Pixels in Processed Spectrum: 2048
>>>>>Begin Processed Spectral Data<<<<<
339.09	0.00
339.48	214.50
339.86	217.60
340.24	216.60
340.63	220.40
341.01	226.30
341.39	223.60
341.78	224.30
342.16	224.30
342.54	225.20
342.93	214.11
343.31	224.86
343.69	225.48
344.07	225.96
344.46	226.44
344.84	226.76
345.22	226.76
345.60	226.92
345.99	227.14
346.37	227.36
346.75	227.43
347.13	227.46
347.52	227.50
347.90	227.57
348.28	227.58
348.66	227.61
349.05	227.47
349.43	227.53
349.81	227.51
350.19	227.65
350.57	227.67
350.96	227.70
351.34	227.81
351.72	227.89
352.10	227.85
352.48	227.90
352.87	227.96
353.25	228.02
353.63	228.22
354.01	228.12
354.39	228.10
354.77	228.23
355.15	228.37
355.54	228.46
355.92	228.41
356.30	228.46
356.68	228.74
357.06	228.75
357.44	228.89
357.82	228.98
358.20	229.01
358.58	229.10
358.97	229.20
359.35	229.30
359.73	229.43
360.11	229.58
360.49	229.62
360.87	229.73
361.25	229.88
361.63	229.82
362.01	229.97
362.39	230.00
362.77	230.04
363.15	230.15
363.53	230.23
363.91	230.35
364.29	230.31
364.67	230.06
365.05	230.15
365.43	230.11
365.81	230.07
366.19	230.27
366.57	230.38
366.95	230.47
367.33	230.40
367.71	230.20
368.09	230.27
368.47	230.43
368.85	230.35
369.23	230.35
369.61	230.31
369.99	230.41
370.37	230.47
370.75	230.52
371.13	230.42
371.51	230.32
371.89	230.31
372.27	230.37
372.65	230.43
373.03	230.38
373.41	230.25
373.78	230.20
374.16	229.95
374.54	229.83
374.92	229.63
375.30	229.61
375.68	229.62
376.06	229.51
376.44	229.29
376.82	229.25
377.19	229.18
377.57	229.09
377.95	228.90
378.33	228.70
378.71	228.53
379.09	228.52
379.47	228.46
379.84	228.33
380.22	228.18
380.60	227.99
380.98	227.97
381.36	228.00
381.73	227.91
382.11	227.89
382.49	227.73
382.87	227.68
383.25	227.64
383.62	227.79
384.00	227.69
384.38	227.69
384.76	227.69
385.13	227.77
385.51	227.72
385.89	227.62
386.27	227.65
386.64	227.63
387.02	227.48
387.40	227.34
387.78	227.28
388.15	227.18
388.53	227.12
388.91	227.08
389.29	226.98
389.66	226.98
390.04	226.97
390.42	227.05
390.79	227.02
391.17	226.93
391.55	226.71
391.92	226.72
392.30	226.70
392.68	226.57
393.05	226.44
393.43	226.46
393.81	226.50
394.18	226.44
394.56	226.36
394.94	226.50
395.31	226.50
395.69	226.74
396.06	226.82
396.44	227.03
396.82	227.04
397.19	227.11
397.57	227.15
397.95	227.32
398.32	227.32
398.70	227.44
399.07	227.63
399.45	227.70
399.82	227.80
400.20	227.91
400.58	228.07
400.95	228.12
401.33	228.29
401.70	228.61
402.08	228.87
402.45	229.09
402.83	229.23
403.20	229.49
403.58	229.48
403.95	229.63
404.33	229.76
404.71	229.91
405.08	230.29
405.46	230.52
405.83	230.64
406.21	230.85
406.58	231.11
406.96	231.34
407.33	231.68
407.70	232.00
408.08	232.40
408.45	232.80
408.83	233.27
409.20	233.64
409.58	233.88
409.95	234.38
410.33	234.93
410.70	235.31
411.08	235.84
411.45	236.49
411.82	237.21
412.20	237.80
412.57	238.71
412.95	239.30
413.32	240.08
413.69	240.97
414.07	241.99
414.44	243.00
414.82	244.01
415.19	245.20
415.56	246.33
415.94	247.63
416.31	249.00
416.68	250.33
417.06	251.87
417.43	253.47
417.81	255.08
418.18	256.73
418.55	258.64
418.93	260.56
419.30	262.48
419.67	264.53
420.04	266.67
420.42	268.97
420.79	271.60
421.16	274.22
421.54	276.81
421.91	279.47
422.28	282.21
422.66	285.14
423.03	287.97
423.40	291.03
423.77	294.03
424.15	297.23
424.52	300.57
424.89	304.27
425.26	307.69
425.64	310.94
426.01	314.61
426.38	318.43
426.75	322.29
427.13	326.24
427.50	330.43
427.87	334.88
428.24	339.01
428.61	343.04
428.99	347.59
429.36	352.70
429.73	357.60
430.10	362.39
430.47	367.23
430.85	372.21
431.22	377.42
431.59	383.26
431.96	388.87
432.33	395.10
432.70	400.92
433.08	407.78
433.45	414.30
433.82	420.69
434.19	427.68
434.56	434.78
434.93	441.50
435.30	447.99
435.68	455.30
436.05	462.60
436.42	469.87
436.79	476.41
437.16	483.41
437.53	490.91
437.90	498.22
438.27	505.60
438.64	513.20
439.01	520.37
439.38	526.59
439.75	532.39
440.13	539.03
440.50	545.53
440.87	551.00
441.24	556.69
441.61	562.90
441.98	567.50
442.35	572.86
442.72	578.31
443.09	583.99
443.46	587.52
443.83	589.94
444.20	592.23
444.57	595.40
444.94	597.16
445.31	599.18
445.68	601.38
446.05	602.74
446.42	602.89
446.79	602.80
447.16	602.67
447.53	602.92
447.90	601.16
448.27	599.14
448.64	595.81
449.01	593.85
449.37	589.82
449.74	586.06
450.11	581.15
450.48	575.80
450.85	570.09
451.22	565.55
451.59	561.29
451.96	557.05
452.33	550.99
452.70	545.70
453.07	538.80
453.43	531.70
453.80	525.08
454.17	518.82
454.54	512.97
454.91	506.45
455.28	500.11
455.65	494.10
456.02	488.17
456.38	483.36
456.75	476.86
457.12	471.38
457.49	465.92
457.86	460.61
458.23	456.24
458.59	451.28
458.96	445.92
459.33	441.32
459.70	436.77
460.07	433.16
460.43	428.79
460.80	424.85
461.17	421.56
461.54	417.84
461.91	414.40
462.27	410.70
462.64	407.69
463.01	404.19
463.38	400.85
463.74	397.49
464.11	394.38
464.48	391.76
464.85	388.95
465.21	386.70
465.58	384.45
465.95	381.54
466.32	379.22
466.68	376.81
467.05	374.48
467.42	372.07
467.78	369.64
468.15	367.28
468.52	365.58
468.88	363.22
469.25	361.34
469.62	359.56
469.98	357.68
470.35	356.02
470.72	354.58
471.08	352.82
471.45	351.48
471.82	350.03
472.18	348.37
472.55	347.30
472.92	346.03
473.28	344.80
473.65	343.56
474.02	342.16
474.38	341.18
474.75	340.14
475.11	339.07
475.48	338.18
475.85	337.40
476.21	336.56
476.58	335.75
476.94	335.17
477.31	334.45
477.67	333.98
478.04	333.25
478.41	332.63
478.77	332.37
479.14	331.84
479.50	331.53
479.87	331.41
480.23	331.08
480.60	330.68
480.96	330.28
481.33	330.26
481.69	330.21
482.06	330.10
482.42	329.87
482.79	329.83
483.15	329.82
483.52	330.02
483.88	330.05
484.25	330.24
484.61	330.30
484.98	330.56
485.34	330.88
485.71	331.30
486.07	331.70
486.44	332.03
486.80	332.40
487.17	332.97
487.53	333.50
487.90	334.19
488.26	335.04
488.62	335.93
488.99	336.59
489.35	337.44
489.72	338.22
490.08	339.23
490.44	340.16
490.81	341.24
491.17	342.28
491.54	343.41
491.90	344.43
492.26	345.52
492.63	346.70
492.99	347.83
493.36	348.97
493.72	350.35
494.08	351.61
494.45	353.10
494.81	354.45
495.17	356.00
495.54	357.44
495.90	358.80
496.26	360.14
496.63	361.58
496.99	363.21
497.35	364.85
497.72	366.59
498.08	368.19
498.44	369.90
498.80	371.63
499.17	373.26
499.53	374.92
499.89	376.63
500.26	378.24
500.62	379.62
500.98	381.32
501.34	382.95
501.71	384.64
502.07	386.22
502.43	387.87
502.79	389.28
503.16	390.74
503.52	392.25
503.88	393.75
504.24	395.40
504.60	396.66
504.97	398.15
505.33	399.41
505.69	401.04
506.05	402.37
506.41	403.58
506.78	404.82
507.14	406.09
507.50	407.23
507.86	408.53
508.22	409.93
508.59	410.96
508.95	412.06
509.31	413.30
509.67	414.21
510.03	414.97
510.39	415.95
510.75	416.80
511.12	417.59
511.48	418.43
511.84	419.15
512.20	419.91
512.56	420.57
512.92	421.27
513.28	421.77
513.64	422.24
514.00	422.76
514.37	423.22
514.73	423.76
515.09	424.27
515.45	424.44
515.81	424.70
516.17	425.20
516.53	425.45
516.89	425.47
517.25	425.78
517.61	426.15
517.97	426.45
518.33	426.63
518.69	426.78
519.05	427.00
519.41	427.26
519.77	427.62
520.13	427.87
520.49	428.12
520.85	428.29
521.21	428.60
521.57	428.99
521.93	429.16
522.29	429.57
522.65	429.84
523.01	430.22
523.37	430.55
523.73	430.90
524.09	431.29
524.45	431.74
524.81	432.28
525.17	432.93
525.53	433.48
525.89	434.25
526.25	435.15
526.61	435.88
526.97	436.38
527.33	437.14
527.68	438.13
528.04	439.11
528.40	440.15
528.76	441.14
529.12	442.18
529.48	443.60
529.84	444.68
530.20	446.07
530.56	447.62
530.91	449.28
531.27	450.93
531.63	452.60
531.99	454.28
532.35	456.01
532.71	457.74
533.07	459.72
533.42	461.90
533.78	463.93
534.14	466.07
534.50	468.36
534.86	470.71
535.21	472.68
535.57	474.95
535.93	477.46
536.29	480.12
536.65	482.75
537.00	485.25
537.36	488.00
537.72	490.59
538.08	493.32
538.44	496.08
538.79	498.97
539.15	501.85
539.51	504.99
539.87	508.10
540.22	511.15
540.58	514.45
540.94	517.64
541.29	520.83
541.65	524.17
542.01	527.68
542.37	531.02
542.72	534.64
543.08	538.23
543.44	541.65
543.79	545.00
544.15	548.55
544.51	552.56
544.87	556.42
545.22	560.18
545.58	563.82
545.94	567.44
546.29	571.28
546.65	575.32
547.01	579.04
547.36	582.98
547.72	586.97
548.07	590.80
548.43	594.35
548.79	598.32
549.14	602.24
549.50	606.09
549.86	609.99
550.21	613.81
550.57	617.77
550.92	621.75
551.28	625.89
551.64	630.00
551.99	633.96
552.35	637.94
552.70	642.13
553.06	646.34
553.41	650.66
553.77	654.57
554.13	658.43
554.48	662.63
554.84	666.74
555.19	670.71
555.55	674.86
555.90	678.85
556.26	682.85
556.61	686.94
556.97	691.00
557.32	695.29
557.68	699.38
558.03	703.31
558.39	707.44
558.74	711.49
559.10	715.49
559.45	719.37
559.81	723.66
560.16	727.60
560.52	731.43
560.87	735.23
561.23	739.08
561.58	743.13
561.94	747.07
562.29	750.50
562.64	754.24
563.00	757.84
563.35	761.99
563.71	765.81
564.06	769.26
564.42	772.82
564.77	776.14
565.12	779.97
565.48	783.77
565.83	786.98
566.19	790.54
566.54	793.73
566.89	796.85
567.25	799.89
567.60	803.27
567.96	806.70
568.31	809.89
568.66	813.00
569.02	815.83
569.37	818.54
569.72	821.53
570.08	824.41
570.43	827.02
570.78	829.43
571.14	831.71
571.49	834.48
571.84	837.35
572.20	839.62
572.55	841.82
572.90	843.94
573.26	846.21
573.61	848.00
573.96	850.17
574.31	851.89
574.67	853.23
575.02	854.73
575.37	856.21
575.72	857.59
576.08	859.28
576.43	860.65
576.78	862.13
577.13	863.91
577.49	865.40
577.84	866.68
578.19	867.97
578.54	869.23
578.90	870.10
579.25	870.73
579.60	871.74
579.95	872.43
580.30	872.85
580.66	873.60
581.01	874.20
581.36	874.83
581.71	875.85
582.06	876.64
582.42	877.05
582.77	877.40
583.12	878.01
583.47	878.30
583.82	878.79
584.17	878.80
584.53	878.98
584.88	879.12
585.23	879.36
585.58	879.20
585.93	879.11
586.28	879.31
586.63	879.41
586.98	879.54
587.34	879.63
587.69	879.84
588.04	879.84
588.39	879.89
588.74	879.30
589.09	878.93
589.44	878.53
589.79	878.44
590.14	878.28
590.49	877.55
590.84	876.87
591.19	876.45
591.54	875.97
591.89	874.69
592.25	874.27
592.60	873.04
592.95	872.22
593.30	871.27
593.65	870.06
594.00	868.99
594.35	868.37
594.70	867.23
595.05	865.99
595.40	864.50
595.75	863.18
596.10	862.20
596.45	861.21
596.80	860.40
597.15	859.15
597.50	857.87
597.85	856.86
598.19	855.77
598.54	854.68
598.89	853.83
599.24	853.28
599.59	851.55
599.94	850.62
600.29	849.46
600.64	848.47
600.99	847.01
601.34	845.76
601.69	843.95
602.04	842.67
602.39	841.27
602.74	840.24
603.08	839.17
603.43	838.00
603.78	836.21
604.13	834.31
604.48	832.75
604.83	830.97
605.18	829.39
605.53	827.59
605.87	825.39
606.22	823.24
606.57	820.90
606.92	819.22
607.27	817.62
607.62	816.06
607.96	814.21
608.31	812.62
608.66	810.63
609.01	808.56
609.36	806.16
609.70	804.01
610.05	801.66
610.40	799.24
610.75	796.60
611.10	794.20
611.44	791.70
611.79	789.25
612.14	786.95
612.49	784.19
612.83	781.70
613.18	779.30
613.53	776.70
613.88	774.14
614.22	771.21
614.57	768.20
614.92	765.32
615.27	762.85
615.61	760.14
615.96	757.23
616.31	754.79
616.65	752.66
617.00	750.13
617.35	747.68
617.70	744.86
618.04	742.37
618.39	739.81
618.74	737.39
619.08	734.62
619.43	731.88
619.78	729.52
620.12	727.03
620.47	724.46
620.82	722.04
621.16	719.48
621.51	717.24
621.85	714.94
622.20	712.11
622.55	709.28
622.89	706.82
623.24	704.60
623.59	702.10
623.93	699.61
624.28	696.92
624.62	694.52
624.97	692.35
625.32	689.89
625.66	687.56
626.01	685.33
626.35	682.94
626.70	680.52
627.04	678.08
627.39	675.31
627.73	672.73
628.08	670.24
628.43	667.76
628.77	665.16
629.12	662.23
629.46	660.06
629.81	657.29
630.15	654.50
630.50	651.80
630.84	648.82
631.19	645.88
631.53	643.39
631.88	640.32
632.22	637.32
632.57	634.65
632.91	631.96
633.26	629.00
633.60	626.34
633.95	623.74
634.29	621.30
634.64	618.93
634.98	616.43
635.32	614.10
635.67	611.82
636.01	609.32
636.36	607.04
636.70	604.63
637.05	602.31
637.39	599.96
637.73	597.50
638.08	595.35
638.42	593.10
638.77	590.88
639.11	588.61
639.45	586.43
639.80	584.00
640.14	581.51
640.49	579.37
640.83	577.12
641.17	575.00
641.52	572.64
641.86	570.47
642.20	568.26
642.55	565.67
642.89	563.42
643.23	561.13
643.58	559.03
643.92	556.54
644.26	554.28
644.61	552.39
644.95	550.26
645.29	547.74
645.64	545.31
645.98	542.84
646.32	540.78
646.66	538.30
647.01	535.95
647.35	533.92
647.69	531.50
648.04	529.24
648.38	526.73
648.72	524.24
649.06	521.68
649.41	519.36
649.75	517.15
650.09	514.70
650.43	512.34
650.78	509.92
651.12	507.60
651.46	505.41
651.80	502.79
652.14	500.27
652.49	498.22
652.83	496.12
653.17	493.88
653.51	491.40
653.85	489.28
654.20	487.14
654.54	484.58
654.88	482.24
655.22	479.75
655.56	477.40
655.90	475.23
656.25	473.20
656.59	470.93
656.93	468.70
657.27	466.42
657.61	464.13
657.95	462.07
658.29	459.96
658.64	457.79
658.98	455.73
659.32	453.58
659.66	451.40
660.00	449.23
660.34	447.19
660.68	445.11
661.02	443.00
661.36	441.09
661.70	439.16
662.05	437.39
662.39	435.74
662.73	433.97
663.07	432.11
663.41	430.23
663.75	428.52
664.09	426.71
664.43	424.82
664.77	423.09
665.11	421.24
665.45	419.34
665.79	417.70
666.13	415.82
666.47	414.18
666.81	412.22
667.15	410.33
667.49	408.58
667.83	407.19
668.17	405.46
668.51	403.66
668.85	402.07
669.19	400.44
669.53	398.56
669.87	396.85
670.21	395.28
670.55	393.75
670.89	392.36
671.23	390.88
671.57	389.50
671.91	388.12
672.25	386.63
672.58	385.24
672.92	383.70
673.26	382.44
673.60	381.18
673.94	379.98
674.28	378.79
674.62	377.62
674.96	376.14
675.30	374.94
675.64	373.60
675.97	372.37
676.31	371.05
676.65	370.03
676.99	368.98
677.33	367.77
677.67	366.35
678.01	364.85
678.34	363.60
678.68	362.49
679.02	361.17
679.36	360.01
679.70	358.85
680.04	357.72
680.37	356.38
680.71	355.13
681.05	354.23
681.39	353.13
681.73	352.03
682.06	351.02
682.40	349.97
682.74	349.03
683.08	348.10
683.42	347.06
683.75	345.90
684.09	344.82
684.43	343.74
684.77	342.87
685.10	341.71
685.44	340.75
685.78	339.74
686.12	338.84
686.45	337.67
686.79	336.61
687.13	335.60
687.46	334.60
687.80	333.63
688.14	332.39
688.48	331.39
688.81	330.24
689.15	329.20
689.49	328.23
689.82	327.41
690.16	326.26
690.50	325.41
690.83	324.37
691.17	323.23
691.51	322.27
691.84	321.33
692.18	320.45
692.52	319.37
692.85	318.25
693.19	317.28
693.52	316.43
693.86	315.54
694.20	314.66
694.53	313.86
694.87	312.91
695.21	312.00
695.54	311.11
695.88	310.19
696.21	309.25
696.55	308.39
696.88	307.35
697.22	306.45
697.56	305.48
697.89	304.65
698.23	303.82
698.56	302.99
698.90	302.16
699.23	301.25
699.57	300.37
699.90	299.73
700.24	298.93
700.58	298.10
700.91	297.46
701.25	296.63
701.58	295.96
701.92	295.27
702.25	294.64
702.59	293.89
702.92	293.12
703.26	292.42
703.59	291.49
703.93	290.96
704.26	290.25
704.60	289.54
704.93	288.87
705.26	288.18
705.60	287.42
705.93	286.70
706.27	286.21
706.60	285.64
706.94	284.98
707.27	284.32
707.61	283.68
707.94	283.03
708.27	282.36
708.61	281.67
708.94	281.07
709.28	280.37
709.61	279.82
709.94	279.40
710.28	278.72
710.61	278.34
710.95	277.53
711.28	277.14
711.61	276.58
711.95	276.10
712.28	275.59
712.61	275.11
712.95	274.66
713.28	274.12
713.61	273.63
713.95	273.15
714.28	272.66
714.61	272.25
714.95	271.67
715.28	271.16
715.61	270.67
715.95	270.09
716.28	269.78
716.61	269.28
716.95	268.79
717.28	268.47
717.61	267.99
717.94	267.63
718.28	267.00
718.61	266.63
718.94	266.21
719.27	265.80
719.61	265.43
719.94	265.02
720.27	264.64
720.60	264.26
720.94	263.90
721.27	263.53
721.60	263.15
721.93	262.80
722.27	262.69
722.60	262.34
722.93	262.11
723.26	261.68
723.59	261.38
723.93	261.07
724.26	260.82
724.59	260.57
724.92	260.21
725.25	260.14
725.59	259.90
725.92	259.67
726.25	259.40
726.58	259.11
726.91	258.79
727.24	258.58
727.57	258.36
727.91	257.94
728.24	257.71
728.57	257.40
728.90	257.18
729.23	256.70
729.56	256.62
729.89	256.28
730.22	256.02
730.55	255.67
730.89	255.42
731.22	255.09
731.55	254.79
731.88	254.65
732.21	254.34
732.54	254.06
732.87	253.82
733.20	253.68
733.53	253.47
733.86	253.33
734.19	253.03
734.52	252.79
734.85	252.66
735.18	252.32
735.51	252.20
735.84	251.95
736.17	251.85
736.50	251.50
736.83	251.55
737.16	251.23
737.49	251.02
737.82	250.68
738.15	250.41
738.48	250.16
738.81	249.86
739.14	249.58
739.47	249.33
739.80	249.02
740.13	248.65
740.46	248.40
740.79	248.05
741.12	247.84
741.45	247.51
741.78	247.26
742.11	247.22
742.44	246.87
742.77	246.70
743.10	246.40
743.43	246.09
743.75	245.60
744.08	245.69
744.41	245.46
744.74	245.35
745.07	245.19
745.40	245.00
745.73	244.82
746.06	244.65
746.39	244.40
746.71	244.24
747.04	244.13
747.37	243.89
747.70	243.75
748.03	243.62
748.36	243.50
748.68	243.29
749.01	242.99
749.34	242.84
749.67	242.63
750.00	242.46
750.33	242.43
750.65	242.34
750.98	241.86
751.31	241.70
751.64	241.47
751.97	241.41
752.29	241.18
752.62	240.90
752.95	240.66
753.28	240.53
753.60	240.23
753.93	240.15
754.26	240.07
754.59	239.97
754.91	239.67
755.24	239.55
755.57	239.31
755.90	239.19
756.22	239.10
756.55	238.94
756.88	238.82
757.20	238.61
757.53	238.43
757.86	238.42
758.19	238.35
758.51	238.28
758.84	238.05
759.17	238.01
759.49	237.89
759.82	237.90
760.15	237.87
760.47	237.82
760.80	237.64
761.13	237.45
761.45	237.30
761.78	237.31
762.11	237.14
762.43	237.07
762.76	237.04
763.08	236.93
763.41	236.90
763.74	236.88
764.06	236.65
764.39	236.61
764.71	236.60
765.04	236.58
765.37	236.46
765.69	236.41
766.02	236.34
766.34	236.34
766.67	236.29
767.00	236.21
767.32	236.25
767.65	236.30
767.97	236.22
768.30	236.11
768.62	235.90
768.95	235.90
769.27	235.90
769.60	235.74
769.92	235.75
770.25	235.64
770.57	235.52
770.90	235.56
771.22	235.48
771.55	235.34
771.87	235.22
772.20	235.18
772.52	235.17
772.85	235.31
773.17	235.34
773.50	235.21
773.82	235.14
774.15	234.96
774.47	234.75
774.80	234.72
775.12	234.60
775.45	234.64
775.77	234.52
776.09	234.54
776.42	234.46
776.74	234.37
777.07	234.25
777.39	234.18
777.72	234.15
778.04	234.07
778.36	234.00
778.69	233.93
779.01	233.82
779.33	233.58
779.66	233.32
779.98	233.29
780.31	233.27
780.63	233.25
780.95	233.29
781.28	233.15
781.60	233.09
781.92	233.07
782.25	232.95
782.57	232.88
782.89	232.71
783.22	232.68
783.54	232.60
783.86	232.54
784.19	232.41
784.51	232.36
784.83	232.22
785.16	232.06
785.48	232.05
785.80	232.17
786.12	232.28
786.45	232.20
786.77	232.02
787.09	232.00
787.42	231.92
787.74	231.91
788.06	231.93
788.38	231.81
788.71	231.68
789.03	231.67
789.35	231.66
789.67	231.63
789.99	231.56
790.32	231.47
790.64	231.51
790.96	231.67
791.28	231.54
791.61	231.61
791.93	231.63
792.25	231.54
792.57	231.52
792.89	231.42
793.21	231.38
793.54	231.42
793.86	231.25
794.18	231.27
794.50	231.06
794.82	231.09
795.14	231.21
795.47	231.29
795.79	231.30
796.11	231.31
796.43	231.27
796.75	231.33
797.07	231.33
797.39	231.35
797.71	231.20
798.04	231.20
798.36	231.24
798.68	231.16
799.00	231.18
799.32	231.10
799.64	231.18
799.96	231.26
800.28	231.31
800.60	231.30
800.92	231.31
801.24	231.35
801.56	231.39
801.89	231.32
802.21	231.43
802.53	231.38
802.85	231.39
803.17	231.55
803.49	231.44
803.81	231.40
804.13	231.36
804.45	231.28
804.77	231.32
805.09	231.28
805.41	231.32
805.73	231.30
806.05	231.27
806.37	231.25
806.69	231.17
807.01	231.20
807.33	231.28
807.65	231.21
807.97	231.35
808.28	231.28
808.60	231.30
808.92	231.16
809.24	231.30
809.56	231.28
809.88	231.13
810.20	231.06
810.52	231.06
810.84	230.93
811.16	230.92
811.48	230.87
811.80	230.93
812.12	231.00
812.43	231.02
812.75	230.94
813.07	230.90
813.39	230.85
813.71	230.70
814.03	230.58
814.35	230.48
814.67	230.30
814.98	230.20
815.30	230.09
815.62	230.04
815.94	229.80
816.26	229.85
816.58	229.74
816.89	229.78
817.21	229.73
817.53	229.72
817.85	229.75
818.17	229.66
818.48	229.47
818.80	229.42
819.12	229.34
819.44	229.36
819.76	229.20
820.07	229.17
820.39	229.02
820.71	229.01
821.03	228.94
821.34	228.98
821.66	229.01
821.98	229.03
822.30	228.95
822.61	229.06
822.93	228.97
823.25	229.01
823.57	228.94
823.88	229.00
824.20	229.05
824.52	229.01
824.83	229.01
825.15	229.02
825.47	228.97
825.79	228.94
826.10	228.84
826.42	228.84
826.74	228.88
827.05	228.92
827.37	228.99
827.69	229.04
828.00	229.06
828.32	229.01
828.64	228.91
828.95	229.10
829.27	229.07
829.58	228.96
829.90	229.07
830.22	229.20
830.53	229.18
830.85	229.16
831.17	229.09
831.48	229.12
831.80	229.17
832.11	229.18
832.43	229.20
832.75	229.26
833.06	229.41
833.38	229.30
833.69	229.32
834.01	229.29
834.32	229.22
834.64	229.22
834.96	229.21
835.27	229.21
835.59	229.08
835.90	229.08
836.22	229.15
836.53	228.97
836.85	228.84
837.16	229.02
837.48	228.90
837.79	229.08
838.11	229.03
838.42	228.98
838.74	229.02
839.05	229.06
839.37	229.03
839.68	229.00
840.00	229.06
840.31	229.10
840.63	229.09
840.94	229.20
841.26	229.12
841.57	229.11
841.88	229.23
842.20	229.24
842.51	229.26
842.83	229.24
843.14	229.46
843.46	229.46
843.77	229.32
844.08	229.50
844.40	229.40
844.71	229.43
845.03	229.37
845.34	229.34
845.65	229.30
845.97	229.35
846.28	229.33
846.60	229.28
846.91	229.22
847.22	229.23
847.54	229.18
847.85	229.25
848.16	229.28
848.48	229.23
848.79	229.30
849.10	229.30
849.42	229.28
849.73	229.18
850.04	229.12
850.36	229.05
850.67	229.01
850.98	228.97
851.30	229.01
851.61	229.16
851.92	229.16
852.23	229.20
852.55	229.14
852.86	229.15
853.17	229.18
853.49	229.22
853.80	229.22
854.11	229.38
854.42	229.28
854.74	229.32
855.05	229.34
855.36	229.25
855.67	229.18
855.99	229.17
856.30	229.30
856.61	229.38
856.92	229.41
857.23	229.41
857.55	229.37
857.86	229.27
858.17	229.15
858.48	229.08
858.79	229.06
859.11	229.02
859.42	228.93
859.73	228.89
860.04	228.92
860.35	228.83
860.66	228.66
860.98	228.65
861.29	228.63
861.60	228.57
861.91	228.56
862.22	228.57
862.53	228.57
862.84	228.42
863.16	228.44
863.47	228.32
863.78	228.25
864.09	228.37
864.40	228.37
864.71	228.43
865.02	228.40
865.33	228.25
865.64	228.22
865.95	228.26
866.27	228.36
866.58	228.20
866.89	228.25
867.20	228.14
867.51	228.23
867.82	228.15
868.13	228.26
868.44	228.22
868.75	228.26
869.06	228.19
869.37	228.14
869.68	228.15
869.99	228.19
870.30	228.25
870.61	228.35
870.92	228.37
871.23	228.35
871.54	228.40
871.85	228.56
872.16	228.63
872.47	228.68
872.78	228.58
873.09	228.74
873.40	228.72
873.71	228.84
874.02	228.75
874.33	228.85
874.64	228.83
874.95	228.90
875.26	228.88
875.56	228.95
875.87	228.96
876.18	228.95
876.49	229.20
876.80	229.22
877.11	229.08
877.42	229.03
877.73	229.05
878.04	229.11
878.35	229.06
878.66	229.11
878.96	229.02
879.27	229.14
879.58	229.09
879.89	229.07
880.20	229.22
880.51	229.30
880.82	229.21
881.12	229.16
881.43	229.09
881.74	229.00
882.05	228.93
882.36	228.90
882.67	228.87
882.97	228.67
883.28	228.53
883.59	228.53
883.90	228.61
884.21	228.61
884.51	228.54
884.82	228.58
885.13	228.58
885.44	228.54
885.74	228.51
886.05	228.56
886.36	228.58
886.67	228.43
886.98	228.39
887.28	228.45
887.59	228.44
887.90	228.51
888.20	228.54
888.51	228.56
888.82	228.60
889.13	228.55
889.43	228.69
889.74	228.83
890.05	228.78
890.35	228.73
890.66	228.73
890.97	228.70
891.28	228.69
891.58	228.63
891.89	228.62
892.20	228.47
892.50	228.40
892.81	228.42
893.12	228.33
893.42	228.33
893.73	228.30
894.04	228.30
894.34	228.12
894.65	228.13
894.95	228.12
895.26	228.04
895.57	228.15
895.87	227.90
896.18	227.90
896.48	227.84
896.79	227.82
897.10	227.88
897.40	227.88
897.71	227.81
898.01	227.77
898.32	227.77
898.63	227.75
898.93	227.68
899.24	227.65
899.54	227.71
899.85	227.67
900.15	227.66
900.46	227.66
900.76	227.85
901.07	227.81
901.38	227.90
901.68	227.91
901.99	227.81
902.29	227.87
902.60	227.79
902.90	227.81
903.21	227.82
903.51	227.75
903.82	227.78
904.12	227.83
904.43	227.82
904.73	227.89
905.03	227.87
905.34	228.08
905.64	228.11
905.95	228.14
906.25	228.17
906.56	228.13
906.86	228.11
907.17	228.07
907.47	228.09
907.77	227.98
908.08	227.97
908.38	227.97
908.69	227.97
908.99	228.02
909.30	228.00
909.60	228.01
909.90	227.95
910.21	227.81
910.51	227.80
910.81	227.80
911.12	227.79
911.42	227.90
911.73	227.68
912.03	227.69
912.33	227.71
912.64	227.74
912.94	227.81
913.24	227.84
913.55	227.80
913.85	227.85
914.15	228.04
914.46	228.16
914.76	228.16
915.06	228.17
915.37	228.10
915.67	228.12
915.97	228.23
916.27	228.26
916.58	228.41
916.88	228.47
917.18	228.54
917.49	228.66
917.79	228.71
918.09	228.90
918.39	228.94
918.70	229.00
919.00	229.06
919.30	229.15
919.60	229.09
919.91	229.02
920.21	228.95
920.51	228.91
920.81	228.93
921.12	228.99
921.42	229.01
921.72	229.05
922.02	229.14
922.32	229.12
922.63	229.19
922.93	229.33
923.23	229.20
923.53	229.21
923.83	229.17
924.13	229.16
924.44	229.17
924.74	229.22
925.04	229.23
925.34	229.25
925.64	229.10
925.94	229.20
926.24	229.40
926.55	229.42
926.85	229.40
927.15	229.33
927.45	229.33
927.75	229.34
928.05	229.39
928.35	229.42
928.65	229.42
928.95	229.39
929.26	229.27
929.56	229.32
929.86	229.34
930.16	229.23
930.46	229.20
930.76	229.02
931.06	228.92
931.36	228.91
931.66	228.80
931.96	228.76
932.26	228.69
932.56	228.63
932.86	228.60
933.16	228.55
933.46	228.50
933.76	228.47
934.06	228.60
934.36	228.66
934.66	228.58
934.96	228.54
935.26	228.55
935.56	228.55
935.86	228.52
936.16	228.39
936.46	228.39
936.76	228.35
937.06	228.40
937.36	228.34
937.66	228.23
937.96	228.19
938.26	228.18
938.56	228.07
938.86	227.94
939.16	228.03
939.46	228.00
939.76	228.00
940.06	228.01
940.35	227.72
940.65	227.57
940.95	227.53
941.25	227.47
941.55	227.39
941.85	227.33
942.15	227.36
942.45	227.45
942.75	227.49
943.04	227.45
943.34	227.53
943.64	227.50
943.94	227.43
944.24	227.43
944.54	227.52
944.84	227.59
945.13	227.58
945.43	227.54
945.73	227.56
946.03	227.59
946.33	227.48
946.62	227.48
946.92	227.44
947.22	227.43
947.52	227.47
947.82	227.55
948.11	227.54
948.41	227.59
948.71	227.49
949.01	227.50
949.31	227.56
949.60	227.57
949.90	227.67
950.20	227.71
950.50	227.71
950.79	227.65
951.09	227.70
951.39	227.77
951.69	227.68
951.98	227.83
952.28	227.89
952.58	227.98
952.87	228.13
953.17	228.28
953.47	228.27
953.76	228.25
954.06	228.20
954.36	228.26
954.66	228.30
954.95	228.41
955.25	228.50
955.55	228.54
955.84	228.50
956.14	228.59
956.44	228.61
956.73	228.59
957.03	228.65
957.32	228.64
957.62	228.70
957.92	228.88
958.21	228.83
958.51	228.94
958.81	229.03
959.10	229.08
959.40	229.11
959.69	229.14
959.99	229.20
960.29	229.24
960.58	229.16
960.88	229.14
961.17	229.16
961.47	229.08
961.76	229.08
962.06	229.04
962.36	228.98
962.65	229.06
962.95	229.13
963.24	229.20
963.54	229.16
963.83	229.13
964.13	229.06
964.42	228.98
964.72	228.90
965.01	228.81
965.31	228.81
965.60	228.68
965.90	228.83
966.19	228.77
966.49	228.73
966.78	228.77
967.08	228.72
967.37	228.61
967.67	228.53
967.96	228.49
968.26	228.43
968.55	228.44
968.85	228.34
969.14	228.30
969.43	228.23
969.73	228.22
970.02	228.10
970.32	228.10
970.61	228.04
970.91	227.92
971.20	228.01
971.49	227.89
971.79	228.02
972.08	227.87
972.38	227.91
972.67	227.82
972.96	227.76
973.26	227.72
973.55	227.85
973.85	227.83
974.14	227.91
974.43	227.95
974.73	227.87
975.02	227.83
975.31	227.82
975.61	227.81
975.90	227.81
976.19	227.83
976.49	227.78
976.78	227.79
977.07	227.79
977.37	227.68
977.66	227.67
977.95	227.53
978.24	227.60
978.54	227.60
978.83	227.70
979.12	227.81
979.42	227.82
979.71	227.77
980.00	227.82
980.29	227.73
980.59	227.68
980.88	227.67
981.17	227.69
981.46	227.64
981.76	227.61
982.05	227.70
982.34	227.81
982.63	227.82
982.93	227.84
983.22	227.92
983.51	227.88
983.80	228.00
984.09	228.00
984.39	227.89
984.68	227.80
984.97	227.73
985.26	227.61
985.55	227.65
985.85	227.68
986.14	227.82
986.43	227.90
986.72	227.90
987.01	227.93
987.30	227.97
987.59	227.94
987.89	228.00
988.18	227.90
988.47	227.82
988.76	227.85
989.05	227.93
989.34	227.91
989.63	228.06
989.92	227.98
990.22	228.02
990.51	228.00
990.80	228.12
991.09	228.19
991.38	228.21
991.67	228.15
991.96	228.11
992.25	228.02
992.54	227.99
992.83	228.00
993.12	227.94
993.41	228.03
993.70	228.22
993.99	228.28
994.28	228.27
994.58	228.32
994.87	228.30
995.16	228.28
995.45	228.28
995.74	228.18
996.03	228.28
996.32	228.24
996.61	228.38
996.90	228.43
997.19	228.44
997.48	228.51
997.77	228.61
998.06	228.59
998.34	228.60
998.63	228.60
998.92	228.60
999.21	228.70
999.50	228.64
999.79	228.63
1000.08	228.60
1000.37	228.71
1000.66	228.70
1000.95	228.72
1001.24	228.67
1001.53	228.65
1001.82	228.57
1002.11	228.51
1002.40	228.58
1002.68	228.57
1002.97	228.64
1003.26	228.70
1003.55	228.60
1003.84	228.56
1004.13	228.59
1004.42	228.55
1004.71	228.50
1004.99	228.49
1005.28	228.51
1005.57	228.49
1005.86	228.41
1006.15	228.33
1006.44	228.28
1006.72	228.20
1007.01	228.19
1007.30	228.29
1007.59	228.22
1007.88	228.26
1008.17	228.27
1008.45	228.24
1008.74	228.11
1009.03	227.94
1009.32	227.83
1009.60	227.87
1009.89	227.80
1010.18	227.63
1010.47	227.60
1010.76	227.68
1011.04	227.64
1011.33	227.63
1011.62	227.60
1011.91	227.55
1012.19	227.61
1012.48	227.54
1012.77	227.56
1013.05	227.66
1013.34	227.51
1013.63	227.56
1013.92	227.56
1014.20	227.50
1014.49	227.47
1014.78	227.58
1015.06	227.51
1015.35	227.51
1015.64	227.57
1015.92	227.62
1016.21	227.70
1016.50	227.63
1016.78	227.53
1017.07	227.62
1017.36	227.50
1017.64	227.47
1017.93	227.53
1018.22	227.52
1018.50	227.53
1018.79	227.53
1019.08	227.39
1019.36	227.47
1019.65	227.47
1019.93	227.56
1020.22	227.69
1020.51	227.81
1020.79	227.71
1021.08	228.50
1021.36	226.70
1021.65	227.50
1021.94	227.00
1022.22	228.40
1022.51	227.70
1022.79	229.30
1023.08	229.70
1023.36	230.60
1023.65	226.20
>>>>>End Processed Spectral Data<<<<<
