SpectraSuite Data File
++++++++++++++++++++++++++++++++++++
Date: Fri Feb 01 14:38:53 EST 2013
User: group
Dark Spectrum Present: No
Reference Spectrum Present: No
Number of Sampled Component Spectra: 1
Spectrometers: USB2E7196
Integration Time (usec): 70000 (USB2E7196)
Spectra Averaged: 10 (USB2E7196)
Boxcar Smoothing: 10 (USB2E7196)
Correct for Electrical Dark: No (USB2E7196)
Strobe/Lamp Enabled: No (USB2E7196)
Correct for Detector Non-linearity: No (USB2E7196)
Correct for Stray Light: No (USB2E7196)
Number of Pixels in Processed Spectrum: 2048
>>>>>Begin Processed Spectral Data<<<<<
339.09	0.00
339.48	216.40
339.86	217.30
340.24	219.30
340.63	217.90
341.01	224.30
341.39	224.20
341.78	226.00
342.16	227.60
342.54	226.40
342.93	214.71
343.31	225.57
343.69	226.03
344.07	226.44
344.46	226.88
344.84	227.36
345.22	227.56
345.60	227.77
345.99	227.89
346.37	227.92
346.75	228.00
347.13	228.04
347.52	228.06
347.90	228.22
348.28	228.25
348.66	228.39
349.05	228.35
349.43	228.52
349.81	228.53
350.19	228.64
350.57	228.65
350.96	228.70
351.34	228.74
351.72	228.89
352.10	229.03
352.48	229.10
352.87	229.14
353.25	229.21
353.63	229.21
354.01	229.20
354.39	229.29
354.77	229.39
355.15	229.58
355.54	229.61
355.92	229.49
356.30	229.58
356.68	229.70
357.06	229.76
357.44	229.71
357.82	229.75
358.20	229.92
358.58	230.01
358.97	230.00
359.35	230.11
359.73	230.20
360.11	230.21
360.49	230.22
360.87	230.24
361.25	230.25
361.63	230.34
362.01	230.44
362.39	230.41
362.77	230.34
363.15	230.18
363.53	230.11
363.91	230.16
364.29	230.23
364.67	230.01
365.05	230.06
365.43	229.97
365.81	229.99
366.19	229.95
366.57	230.01
366.95	230.08
367.33	229.92
367.71	229.85
368.09	229.82
368.47	229.80
368.85	229.73
369.23	229.77
369.61	229.72
369.99	229.65
370.37	229.70
370.75	229.83
371.13	229.90
371.51	229.85
371.89	229.79
372.27	229.69
372.65	229.65
373.03	229.62
373.41	229.60
373.78	229.59
374.16	229.42
374.54	229.25
374.92	229.15
375.30	229.05
375.68	228.95
376.06	228.91
376.44	228.90
376.82	228.81
377.19	228.69
377.57	228.64
377.95	228.60
378.33	228.41
378.71	228.21
379.09	228.11
379.47	228.12
379.84	228.05
380.22	227.94
380.60	227.86
380.98	227.67
381.36	227.58
381.73	227.43
382.11	227.47
382.49	227.45
382.87	227.29
383.25	227.26
383.62	227.43
384.00	227.35
384.38	227.24
384.76	227.29
385.13	227.30
385.51	227.17
385.89	227.05
386.27	227.03
386.64	227.04
387.02	226.95
387.40	226.81
387.78	226.74
388.15	226.74
388.53	226.61
388.91	226.63
389.29	226.58
389.66	226.66
390.04	226.53
390.42	226.44
390.79	226.50
391.17	226.62
391.55	226.39
391.92	226.35
392.30	226.32
392.68	226.29
393.05	226.30
393.43	226.35
393.81	226.44
394.18	226.52
394.56	226.46
394.94	226.58
395.31	226.53
395.69	226.65
396.06	226.73
396.44	226.90
396.82	226.89
397.19	227.01
397.57	226.98
397.95	227.11
398.32	227.20
398.70	227.21
399.07	227.24
399.45	227.37
399.82	227.45
400.20	227.47
400.58	227.60
400.95	227.60
401.33	227.69
401.70	227.89
402.08	228.01
402.45	228.12
402.83	228.22
403.20	228.48
403.58	228.58
403.95	228.72
404.33	228.90
404.71	229.07
405.08	229.41
405.46	229.67
405.83	229.83
406.21	229.99
406.58	230.18
406.96	230.33
407.33	230.46
407.70	230.76
408.08	231.11
408.45	231.34
408.83	231.60
409.20	231.84
409.58	231.95
409.95	232.26
410.33	232.59
410.70	232.89
411.08	233.13
411.45	233.50
411.82	233.77
412.20	234.16
412.57	234.67
412.95	234.80
413.32	235.23
413.69	235.62
414.07	236.12
414.44	236.70
414.82	237.25
415.19	237.88
415.56	238.37
415.94	238.97
416.31	239.79
416.68	240.52
417.06	241.36
417.43	242.10
417.81	242.91
418.18	243.82
418.55	244.68
418.93	245.77
419.30	246.85
419.67	247.83
420.04	248.90
420.42	250.08
420.79	251.60
421.16	252.77
421.54	254.16
421.91	255.59
422.28	256.96
422.66	258.49
423.03	260.03
423.40	261.59
423.77	263.21
424.15	264.75
424.52	266.45
424.89	268.29
425.26	270.10
425.64	271.70
426.01	273.51
426.38	275.50
426.75	277.42
427.13	279.27
427.50	281.52
427.87	283.69
428.24	285.86
428.61	287.79
428.99	290.27
429.36	292.85
429.73	295.29
430.10	297.93
430.47	300.69
430.85	303.22
431.22	306.07
431.59	309.19
431.96	311.91
432.33	315.10
432.70	318.20
433.08	321.70
433.45	325.12
433.82	328.44
434.19	332.13
434.56	335.77
434.93	339.33
435.30	342.71
435.68	346.42
436.05	350.06
436.42	353.68
436.79	356.93
437.16	360.41
437.53	364.03
437.90	367.64
438.27	371.06
438.64	374.87
439.01	378.40
439.38	381.27
439.75	384.43
440.13	387.79
440.50	391.03
440.87	393.66
441.24	396.31
441.61	399.27
441.98	401.43
442.35	404.06
442.72	406.69
443.09	409.30
443.46	411.02
443.83	412.19
444.20	413.25
444.57	414.67
444.94	415.42
445.31	416.40
445.68	417.51
446.05	417.93
446.42	417.64
446.79	417.36
447.16	417.12
447.53	416.96
447.90	415.79
448.27	414.56
448.64	412.79
449.01	411.75
449.37	409.66
449.74	407.52
450.11	405.02
450.48	402.09
450.85	399.03
451.22	396.44
451.59	393.97
451.96	391.70
452.33	388.46
452.70	385.66
453.07	382.18
453.43	378.27
453.80	374.80
454.17	371.58
454.54	368.43
454.91	365.10
455.28	361.73
455.65	358.59
456.02	355.49
456.38	352.96
456.75	349.53
457.12	346.61
457.49	343.85
457.86	340.90
458.23	338.56
458.59	336.00
458.96	333.34
459.33	330.93
459.70	328.51
460.07	326.76
460.43	324.50
460.80	322.35
461.17	320.51
461.54	318.68
461.91	316.93
462.27	315.04
462.64	313.35
463.01	311.66
463.38	310.02
463.74	308.24
464.11	306.63
464.48	305.30
464.85	303.84
465.21	302.66
465.58	301.37
465.95	299.83
466.32	298.60
466.68	297.41
467.05	296.21
467.42	294.98
467.78	293.62
468.15	292.40
468.52	291.58
468.88	290.37
469.25	289.28
469.62	288.38
469.98	287.54
470.35	286.71
470.72	285.81
471.08	284.83
471.45	284.05
471.82	283.21
472.18	282.31
472.55	281.62
472.92	280.79
473.28	280.12
473.65	279.44
474.02	278.64
474.38	278.01
474.75	277.49
475.11	276.83
475.48	276.32
475.85	275.80
476.21	275.19
476.58	274.71
476.94	274.36
477.31	273.87
477.67	273.30
478.04	272.89
478.41	272.50
478.77	272.21
479.14	271.83
479.50	271.61
479.87	271.39
480.23	271.15
480.60	270.80
480.96	270.55
481.33	270.48
481.69	270.47
482.06	270.32
482.42	270.20
482.79	270.18
483.15	270.03
483.52	270.05
483.88	269.99
484.25	269.88
484.61	269.79
484.98	269.71
485.34	269.76
485.71	269.69
486.07	269.64
486.44	269.56
486.80	269.60
487.17	269.52
487.53	269.69
487.90	269.76
488.26	270.05
488.62	270.23
488.99	270.23
489.35	270.23
489.72	270.35
490.08	270.41
490.44	270.53
490.81	270.67
491.17	270.81
491.54	271.01
491.90	271.19
492.26	271.37
492.63	271.53
492.99	271.68
493.36	271.90
493.72	272.20
494.08	272.50
494.45	272.72
494.81	273.02
495.17	273.26
495.54	273.65
495.90	273.83
496.26	274.08
496.63	274.36
496.99	274.71
497.35	275.06
497.72	275.38
498.08	275.73
498.44	276.09
498.80	276.43
499.17	276.76
499.53	277.31
499.89	277.66
500.26	278.19
500.62	278.66
500.98	279.13
501.34	279.47
501.71	279.92
502.07	280.26
502.43	280.76
502.79	281.17
503.16	281.54
503.52	282.00
503.88	282.40
504.24	282.83
504.60	283.32
504.97	283.74
505.33	284.37
505.69	284.98
506.05	285.52
506.41	286.15
506.78	286.88
507.14	287.49
507.50	288.16
507.86	288.78
508.22	289.55
508.59	290.19
508.95	291.01
509.31	291.81
509.67	292.80
510.03	293.60
510.39	294.40
510.75	295.44
511.12	296.56
511.48	297.60
511.84	298.88
512.20	300.03
512.56	301.27
512.92	302.47
513.28	303.80
513.64	305.25
514.00	306.63
514.37	307.99
514.73	309.46
515.09	311.02
515.45	312.69
515.81	314.37
516.17	316.25
516.53	318.08
516.89	319.98
517.25	322.05
517.61	324.44
517.97	326.71
518.33	328.79
518.69	330.99
519.05	333.41
519.41	335.90
519.77	338.65
520.13	341.32
520.49	344.00
520.85	346.65
521.21	349.66
521.57	352.55
521.93	355.51
522.29	358.66
522.65	361.90
523.01	365.17
523.37	368.49
523.73	371.90
524.09	375.47
524.45	379.20
524.81	382.80
525.17	386.50
525.53	390.39
525.89	394.40
526.25	398.45
526.61	402.61
526.97	406.70
527.33	411.05
527.68	415.77
528.04	420.33
528.40	424.97
528.76	429.48
529.12	434.55
529.48	439.65
529.84	444.58
530.20	449.60
530.56	454.98
530.91	460.46
531.27	465.73
531.63	471.13
531.99	476.36
532.35	481.86
532.71	487.09
533.07	492.80
533.42	498.78
533.78	504.45
534.14	510.32
534.50	516.22
534.86	522.08
535.21	527.65
535.57	533.70
535.93	539.84
536.29	545.91
536.65	551.92
537.00	557.99
537.36	564.20
537.72	570.45
538.08	576.65
538.44	582.60
538.79	589.04
539.15	595.44
539.51	602.03
539.87	608.49
540.22	615.31
540.58	621.97
540.94	628.31
541.29	634.93
541.65	641.45
542.01	648.57
542.37	655.23
542.72	661.77
543.08	668.41
543.44	674.93
543.79	681.56
544.15	687.95
544.51	694.82
544.87	701.79
545.22	708.40
545.58	714.87
545.94	721.58
546.29	728.11
546.65	734.70
547.01	741.13
547.36	747.75
547.72	753.95
548.07	760.34
548.43	766.79
548.79	773.15
549.14	779.13
549.50	784.75
549.86	790.71
550.21	797.11
550.57	803.37
550.92	809.52
551.28	815.50
551.64	821.93
551.99	827.79
552.35	833.43
552.70	839.45
553.06	845.71
553.41	851.60
553.77	857.84
554.13	863.69
554.48	869.56
554.84	875.22
555.19	880.96
555.55	886.85
555.90	892.38
556.26	897.86
556.61	903.60
556.97	909.19
557.32	914.91
557.68	920.55
558.03	925.97
558.39	931.40
558.74	937.39
559.10	942.81
559.45	948.16
559.81	953.59
560.16	958.71
560.52	963.67
560.87	968.80
561.23	973.29
561.58	978.33
561.94	983.20
562.29	987.91
562.64	992.65
563.00	997.02
563.35	1001.87
563.71	1007.08
564.06	1011.95
564.42	1016.53
564.77	1020.97
565.12	1025.35
565.48	1029.76
565.83	1033.80
566.19	1037.80
566.54	1042.02
566.89	1045.81
567.25	1050.04
567.60	1054.31
567.96	1058.07
568.31	1061.73
568.66	1065.70
569.02	1069.30
569.37	1072.89
569.72	1076.67
570.08	1080.06
570.43	1082.91
570.78	1085.85
571.14	1088.38
571.49	1091.12
571.84	1094.31
572.20	1096.93
572.55	1099.26
572.90	1101.34
573.26	1104.09
573.61	1106.22
573.96	1108.13
574.31	1110.14
574.67	1111.31
575.02	1112.51
575.37	1114.23
575.72	1115.49
576.08	1117.02
576.43	1118.20
576.78	1119.23
577.13	1120.60
577.49	1122.17
577.84	1123.73
578.19	1124.74
578.54	1125.79
578.90	1126.54
579.25	1126.43
579.60	1126.73
579.95	1126.81
580.30	1127.01
580.66	1127.12
581.01	1126.87
581.36	1126.83
581.71	1127.19
582.06	1127.70
582.42	1127.77
582.77	1127.53
583.12	1127.54
583.47	1127.11
583.82	1127.19
584.17	1127.12
584.53	1126.62
584.88	1125.88
585.23	1124.97
585.58	1124.63
585.93	1124.10
586.28	1123.62
586.63	1123.72
586.98	1123.63
587.34	1123.65
587.69	1123.39
588.04	1122.88
588.39	1122.70
588.74	1121.57
589.09	1120.42
589.44	1119.07
589.79	1118.56
590.14	1117.74
590.49	1116.63
590.84	1115.65
591.19	1114.30
591.54	1112.75
591.89	1110.53
592.25	1109.19
592.60	1107.73
592.95	1106.08
593.30	1104.21
593.65	1102.30
594.00	1100.52
594.35	1098.90
594.70	1096.36
595.05	1094.43
595.40	1092.22
595.75	1089.94
596.10	1088.48
596.45	1087.00
596.80	1085.45
597.15	1083.24
597.50	1081.18
597.85	1079.63
598.19	1077.75
598.54	1076.10
598.89	1074.40
599.24	1073.21
599.59	1071.21
599.94	1069.71
600.29	1067.47
600.64	1065.75
600.99	1063.69
601.34	1061.50
601.69	1058.88
602.04	1057.39
602.39	1055.33
602.74	1053.56
603.08	1051.77
603.43	1049.74
603.78	1047.30
604.13	1044.93
604.48	1042.69
604.83	1040.57
605.18	1038.06
605.53	1035.37
605.87	1032.49
606.22	1029.91
606.57	1027.13
606.92	1024.27
607.27	1021.78
607.62	1019.44
607.96	1016.84
608.31	1014.76
608.66	1011.58
609.01	1008.70
609.36	1005.43
609.70	1002.06
610.05	998.57
610.40	995.31
610.75	991.80
611.10	988.42
611.44	984.96
611.79	981.89
612.14	978.30
612.49	974.54
612.83	971.06
613.18	967.44
613.53	963.99
613.88	960.37
614.22	957.01
614.57	952.81
614.92	949.13
615.27	945.55
615.61	941.32
615.96	938.18
616.31	934.93
616.65	931.75
617.00	928.55
617.35	925.15
617.70	921.71
618.04	918.19
618.39	914.71
618.74	911.46
619.08	907.43
619.43	903.87
619.78	900.42
620.12	896.90
620.47	893.62
620.82	889.88
621.16	886.39
621.51	883.16
621.85	879.90
622.20	876.20
622.55	872.53
622.89	869.49
623.24	866.03
623.59	862.59
623.93	859.36
624.28	856.04
624.62	852.61
624.97	849.21
625.32	845.83
625.66	842.50
626.01	839.04
626.35	835.80
626.70	832.56
627.04	829.38
627.39	825.95
627.73	822.49
628.08	819.15
628.43	815.73
628.77	812.17
629.12	808.33
629.46	804.88
629.81	801.13
630.15	797.08
630.50	793.30
630.84	789.27
631.19	785.08
631.53	781.35
631.88	777.54
632.22	773.24
632.57	769.73
632.91	765.93
633.26	762.21
633.60	758.34
633.95	754.58
634.29	751.06
634.64	747.76
634.98	743.97
635.32	740.69
635.67	737.48
636.01	733.91
636.36	730.66
636.70	727.16
637.05	723.75
637.39	720.77
637.73	717.50
638.08	714.80
638.42	711.84
638.77	708.67
639.11	705.57
639.45	702.60
639.80	699.27
640.14	695.98
640.49	692.57
640.83	689.68
641.17	686.51
641.52	683.20
641.86	679.68
642.20	676.80
642.55	673.47
642.89	670.08
643.23	666.82
643.58	663.90
643.92	660.91
644.26	657.97
644.61	654.70
644.95	651.63
645.29	647.97
645.64	644.55
645.98	641.30
646.32	638.27
646.66	635.20
647.01	631.91
647.35	628.95
647.69	626.00
648.04	622.88
648.38	619.84
648.72	616.58
649.06	613.60
649.41	610.29
649.75	606.88
650.09	603.70
650.43	600.43
650.78	597.09
651.12	594.01
651.46	590.81
651.80	587.81
652.14	584.77
652.49	581.76
652.83	578.91
653.17	575.72
653.51	572.48
653.85	569.43
654.20	566.50
654.54	563.35
654.88	560.30
655.22	556.97
655.56	553.70
655.90	551.06
656.25	548.12
656.59	545.14
656.93	542.43
657.27	539.59
657.61	536.57
657.95	533.94
658.29	531.03
658.64	528.40
658.98	525.36
659.32	522.23
659.66	519.47
660.00	516.61
660.34	513.90
660.68	511.23
661.02	508.46
661.36	505.77
661.70	503.15
662.05	500.58
662.39	498.36
662.73	496.02
663.07	493.45
663.41	490.88
663.75	488.43
664.09	485.97
664.43	483.57
664.77	481.51
665.11	478.89
665.45	476.44
665.79	474.00
666.13	471.66
666.47	469.33
666.81	466.96
667.15	464.53
667.49	462.34
667.83	460.28
668.17	458.02
668.51	455.72
668.85	453.58
669.19	451.45
669.53	449.08
669.87	446.61
670.21	444.39
670.55	442.20
670.89	440.39
671.23	438.55
671.57	436.53
671.91	434.44
672.25	432.56
672.58	430.65
672.92	428.61
673.26	426.91
673.60	425.23
673.94	423.56
674.28	421.85
674.62	420.01
674.96	418.11
675.30	416.44
675.64	414.68
675.97	412.91
676.31	411.25
676.65	409.50
676.99	408.00
677.33	406.19
677.67	404.41
678.01	402.32
678.34	400.44
678.68	398.72
679.02	396.97
679.36	395.22
679.70	393.52
680.04	391.98
680.37	390.26
680.71	388.75
681.05	387.20
681.39	385.70
681.73	384.18
682.06	382.57
682.40	381.06
682.74	379.64
683.08	378.23
683.42	376.53
683.75	375.07
684.09	373.60
684.43	372.13
684.77	370.77
685.10	369.41
685.44	367.98
685.78	366.68
686.12	365.30
686.45	364.01
686.79	362.63
687.13	361.11
687.46	359.77
687.80	358.31
688.14	356.76
688.48	355.51
688.81	354.02
689.15	352.75
689.49	351.48
689.82	350.24
690.16	348.74
690.50	347.61
690.83	346.30
691.17	345.07
691.51	343.86
691.84	342.76
692.18	341.59
692.52	340.37
692.85	339.14
693.19	337.98
693.52	336.86
693.86	335.72
694.20	334.50
694.53	333.24
694.87	332.05
695.21	331.08
695.54	329.77
695.88	328.74
696.21	327.59
696.55	326.43
696.88	325.28
697.22	324.31
697.56	323.19
697.89	322.15
698.23	321.13
698.56	320.14
698.90	319.12
699.23	318.05
699.57	317.10
699.90	315.99
700.24	314.97
700.58	313.92
700.91	312.92
701.25	312.20
701.58	311.44
701.92	310.45
702.25	309.48
702.59	308.50
702.92	307.63
703.26	306.81
703.59	305.98
703.93	305.23
704.26	304.42
704.60	303.60
704.93	302.88
705.26	302.01
705.60	301.32
705.93	300.51
706.27	299.74
706.60	299.07
706.94	298.36
707.27	297.51
707.61	296.68
707.94	295.97
708.27	295.10
708.61	294.23
708.94	293.70
709.28	292.99
709.61	292.39
709.94	291.75
710.28	291.03
710.61	290.29
710.95	289.42
711.28	288.77
711.61	288.00
711.95	287.37
712.28	286.62
712.61	285.99
712.95	285.34
713.28	284.79
713.61	284.01
713.95	283.40
714.28	282.92
714.61	282.31
714.95	281.66
715.28	281.13
715.61	280.50
715.95	279.85
716.28	279.23
716.61	278.68
716.95	278.02
717.28	277.48
717.61	276.98
717.94	276.59
718.28	275.94
718.61	275.46
718.94	274.76
719.27	274.29
719.61	273.51
719.94	273.00
720.27	272.43
720.60	271.83
720.94	271.22
721.27	270.71
721.60	270.39
721.93	269.90
722.27	269.50
722.60	269.16
722.93	268.70
723.26	268.35
723.59	267.88
723.93	267.39
724.26	266.95
724.59	266.51
724.92	265.97
725.25	265.64
725.59	265.29
725.92	264.96
726.25	264.53
726.58	264.35
726.91	263.94
727.24	263.64
727.57	263.33
727.91	262.89
728.24	262.60
728.57	262.18
728.90	261.84
729.23	261.39
729.56	261.14
729.89	260.77
730.22	260.35
730.55	260.09
730.89	259.81
731.22	259.50
731.55	259.15
731.88	258.93
732.21	258.67
732.54	258.24
732.87	257.97
733.20	257.75
733.53	257.24
733.86	256.99
734.19	256.63
734.52	256.33
734.85	256.24
735.18	255.83
735.51	255.63
735.84	255.48
736.17	255.18
736.50	254.85
736.83	254.75
737.16	254.50
737.49	254.22
737.82	254.07
738.15	253.90
738.48	253.72
738.81	253.41
739.14	253.05
739.47	252.86
739.80	252.71
740.13	252.48
740.46	252.40
740.79	252.17
741.12	251.99
741.45	251.85
741.78	251.51
742.11	251.41
742.44	251.05
742.77	250.87
743.10	250.73
743.43	250.34
743.75	249.91
744.08	249.95
744.41	249.68
744.74	249.36
745.07	249.13
745.40	248.82
745.73	248.70
746.06	248.47
746.39	248.31
746.71	247.94
747.04	247.71
747.37	247.51
747.70	247.30
748.03	247.08
748.36	247.00
748.68	246.74
749.01	246.51
749.34	246.30
749.67	246.11
750.00	245.90
750.33	245.93
750.65	245.80
750.98	245.37
751.31	245.22
751.64	245.05
751.97	244.87
752.29	244.75
752.62	244.51
752.95	244.43
753.28	244.13
753.60	244.13
753.93	244.02
754.26	243.87
754.59	243.70
754.91	243.47
755.24	243.17
755.57	243.11
755.90	242.89
756.22	242.75
756.55	242.46
756.88	242.24
757.20	241.93
757.53	241.71
757.86	241.49
758.19	241.32
758.51	241.27
758.84	241.02
759.17	240.80
759.49	240.57
759.82	240.55
760.15	240.47
760.47	240.32
760.80	240.07
761.13	239.94
761.45	239.73
761.78	239.68
762.11	239.54
762.43	239.37
762.76	239.34
763.08	239.20
763.41	239.06
763.74	238.86
764.06	238.70
764.39	238.54
764.71	238.44
765.04	238.17
765.37	237.88
765.69	237.83
766.02	237.72
766.34	237.55
766.67	237.25
767.00	237.16
767.32	237.00
767.65	236.97
767.97	236.73
768.30	236.59
768.62	236.36
768.95	236.14
769.27	235.99
769.60	235.90
769.92	235.82
770.25	235.72
770.57	235.69
770.90	235.60
771.22	235.54
771.55	235.45
771.87	235.40
772.20	235.37
772.52	235.37
772.85	235.55
773.17	235.47
773.50	235.36
773.82	235.24
774.15	235.05
774.47	234.89
774.80	234.88
775.12	234.88
775.45	234.80
775.77	234.88
776.09	234.77
776.42	234.57
776.74	234.45
777.07	234.34
777.39	234.24
777.72	234.12
778.04	234.13
778.36	234.17
778.69	234.17
779.01	234.12
779.33	233.86
779.66	233.55
779.98	233.56
780.31	233.55
780.63	233.60
780.95	233.65
781.28	233.59
781.60	233.57
781.92	233.48
782.25	233.47
782.57	233.35
782.89	233.48
783.22	233.55
783.54	233.61
783.86	233.63
784.19	233.66
784.51	233.75
784.83	233.67
785.16	233.57
785.48	233.56
785.80	233.51
786.12	233.61
786.45	233.61
786.77	233.60
787.09	233.54
787.42	233.43
787.74	233.34
788.06	233.29
788.38	233.22
788.71	233.19
789.03	233.25
789.35	233.22
789.67	233.14
789.99	233.06
790.32	232.94
790.64	232.98
790.96	233.06
791.28	232.96
791.61	232.89
791.93	232.78
792.25	232.73
792.57	232.87
792.89	232.70
793.21	232.74
793.54	232.70
793.86	232.70
794.18	232.69
794.50	232.68
794.82	232.76
795.14	232.72
795.47	232.61
795.79	232.58
796.11	232.50
796.43	232.41
796.75	232.33
797.07	232.28
797.39	232.14
797.71	231.90
798.04	231.87
798.36	231.80
798.68	231.79
799.00	231.72
799.32	231.53
799.64	231.50
799.96	231.30
800.28	231.19
800.60	231.14
800.92	231.01
801.24	230.96
801.56	230.77
801.89	230.64
802.21	230.66
802.53	230.55
802.85	230.61
803.17	230.66
803.49	230.64
803.81	230.65
804.13	230.58
804.45	230.51
804.77	230.43
805.09	230.42
805.41	230.32
805.73	230.20
806.05	230.06
806.37	230.04
806.69	230.04
807.01	230.10
807.33	229.96
807.65	229.90
807.97	229.90
808.28	230.00
808.60	229.98
808.92	230.05
809.24	230.12
809.56	230.11
809.88	229.97
810.20	229.85
810.52	229.81
810.84	229.90
811.16	229.95
811.48	229.90
811.80	229.89
812.12	229.88
812.43	229.90
812.75	229.96
813.07	229.92
813.39	229.91
813.71	229.80
814.03	229.88
814.35	229.93
814.67	229.86
814.98	229.83
815.30	229.95
815.62	229.84
815.94	229.72
816.26	229.67
816.58	229.68
816.89	229.75
817.21	229.76
817.53	229.70
817.85	229.72
818.17	229.83
818.48	229.82
818.80	229.91
819.12	230.00
819.44	229.95
819.76	230.01
820.07	230.06
820.39	230.08
820.71	230.04
821.03	230.07
821.34	230.18
821.66	230.24
821.98	230.23
822.30	230.17
822.61	230.26
822.93	230.22
823.25	230.14
823.57	230.09
823.88	230.13
824.20	230.15
824.52	230.14
824.83	230.09
825.15	230.09
825.47	230.11
825.79	230.14
826.10	230.17
826.42	230.07
826.74	230.04
827.05	230.02
827.37	230.01
827.69	229.95
828.00	229.84
828.32	229.76
828.64	229.68
828.95	229.80
829.27	229.73
829.58	229.69
829.90	229.71
830.22	229.79
830.53	229.67
830.85	229.68
831.17	229.60
831.48	229.64
831.80	229.62
832.11	229.53
832.43	229.43
832.75	229.37
833.06	229.56
833.38	229.46
833.69	229.48
834.01	229.50
834.32	229.51
834.64	229.47
834.96	229.48
835.27	229.44
835.59	229.34
835.90	229.29
836.22	229.24
836.53	229.19
836.85	229.11
837.16	229.28
837.48	229.29
837.79	229.30
838.11	229.28
838.42	229.22
838.74	229.21
839.05	229.17
839.37	229.18
839.68	228.92
840.00	228.99
840.31	228.97
840.63	228.92
840.94	228.93
841.26	228.86
841.57	228.78
841.88	228.72
842.20	228.72
842.51	228.69
842.83	228.75
843.14	228.87
843.46	228.90
843.77	228.82
844.08	228.70
844.40	228.66
844.71	228.56
845.03	228.57
845.34	228.57
845.65	228.56
845.97	228.56
846.28	228.56
846.60	228.54
846.91	228.46
847.22	228.50
847.54	228.37
847.85	228.49
848.16	228.42
848.48	228.47
848.79	228.41
849.10	228.39
849.42	228.38
849.73	228.17
850.04	228.13
850.36	227.95
850.67	228.00
850.98	227.99
851.30	227.94
851.61	227.91
851.92	227.94
852.23	228.03
852.55	227.98
852.86	228.01
853.17	227.99
853.49	228.17
853.80	228.14
854.11	228.29
854.42	228.24
854.74	228.38
855.05	228.36
855.36	228.39
855.67	228.45
855.99	228.54
856.30	228.89
856.61	228.85
856.92	228.96
857.23	228.92
857.55	228.91
857.86	228.98
858.17	228.98
858.48	228.93
858.79	228.89
859.11	228.96
859.42	229.06
859.73	229.13
860.04	229.07
860.35	229.05
860.66	229.02
860.98	229.00
861.29	228.93
861.60	228.96
861.91	228.95
862.22	229.02
862.53	228.88
862.84	228.63
863.16	228.77
863.47	228.81
863.78	228.80
864.09	228.92
864.40	229.00
864.71	229.04
865.02	229.07
865.33	229.07
865.64	229.14
865.95	229.11
866.27	229.21
866.58	229.25
866.89	229.30
867.20	229.24
867.51	229.26
867.82	229.28
868.13	229.36
868.44	229.45
868.75	229.40
869.06	229.45
869.37	229.46
869.68	229.38
869.99	229.30
870.30	229.34
870.61	229.30
870.92	229.21
871.23	229.17
871.54	229.23
871.85	229.23
872.16	229.17
872.47	229.20
872.78	229.08
873.09	229.01
873.40	228.95
873.71	229.01
874.02	229.00
874.33	229.01
874.64	229.02
874.95	228.94
875.26	228.99
875.56	229.03
875.87	229.04
876.18	229.05
876.49	229.35
876.80	229.45
877.11	229.32
877.42	229.43
877.73	229.46
878.04	229.34
878.35	229.37
878.66	229.32
878.96	229.19
879.27	229.15
879.58	229.24
879.89	229.21
880.20	229.30
880.51	229.25
880.82	229.22
881.12	229.14
881.43	229.14
881.74	229.03
882.05	228.93
882.36	228.86
882.67	228.87
882.97	228.65
883.28	228.58
883.59	228.54
883.90	228.43
884.21	228.41
884.51	228.35
884.82	228.34
885.13	228.39
885.44	228.40
885.74	228.40
886.05	228.32
886.36	228.34
886.67	228.13
886.98	228.22
887.28	228.24
887.59	228.30
887.90	228.26
888.20	228.23
888.51	228.23
888.82	228.21
889.13	228.16
889.43	228.27
889.74	228.22
890.05	228.31
890.35	228.41
890.66	228.31
890.97	228.40
891.28	228.25
891.58	228.27
891.89	228.29
892.20	228.27
892.50	228.14
892.81	228.19
893.12	228.21
893.42	228.08
893.73	228.11
894.04	228.03
894.34	228.21
894.65	228.17
894.95	228.13
895.26	228.30
895.57	228.28
895.87	228.04
896.18	228.10
896.48	228.11
896.79	227.93
897.10	228.01
897.40	228.02
897.71	228.12
898.01	228.09
898.32	228.05
898.63	228.06
898.93	228.15
899.24	228.13
899.54	228.24
899.85	228.34
900.15	228.33
900.46	228.40
900.76	228.30
901.07	228.48
901.38	228.55
901.68	228.54
901.99	228.59
902.29	228.62
902.60	228.53
902.90	228.51
903.21	228.66
903.51	228.65
903.82	228.73
904.12	228.66
904.43	228.64
904.73	228.69
905.03	228.68
905.34	228.90
905.64	228.87
905.95	228.75
906.25	228.64
906.56	228.60
906.86	228.60
907.17	228.57
907.47	228.49
907.77	228.44
908.08	228.34
908.38	228.33
908.69	228.36
908.99	228.40
909.30	228.50
909.60	228.50
909.90	228.61
910.21	228.48
910.51	228.49
910.81	228.47
911.12	228.56
911.42	228.55
911.73	228.33
912.03	228.34
912.33	228.45
912.64	228.45
912.94	228.45
913.24	228.44
913.55	228.42
913.85	228.28
914.15	228.37
914.46	228.41
914.76	228.39
915.06	228.41
915.37	228.47
915.67	228.40
915.97	228.40
916.27	228.39
916.58	228.45
916.88	228.50
917.18	228.60
917.49	228.66
917.79	228.65
918.09	228.66
918.39	228.84
918.70	228.79
919.00	228.79
919.30	228.91
919.60	228.83
919.91	228.86
920.21	228.94
920.51	228.81
920.81	228.78
921.12	228.81
921.42	228.82
921.72	228.72
922.02	228.72
922.32	228.67
922.63	228.66
922.93	228.72
923.23	228.66
923.53	228.50
923.83	228.38
924.13	228.38
924.44	228.45
924.74	228.31
925.04	228.30
925.34	228.29
925.64	228.07
925.94	228.16
926.24	228.26
926.55	228.34
926.85	228.46
927.15	228.47
927.45	228.42
927.75	228.37
928.05	228.37
928.35	228.32
928.65	228.36
928.95	228.26
929.26	228.30
929.56	228.36
929.86	228.45
930.16	228.47
930.46	228.51
930.76	228.45
931.06	228.38
931.36	228.35
931.66	228.47
931.96	228.53
932.26	228.42
932.56	228.42
932.86	228.39
933.16	228.34
933.46	228.32
933.76	228.26
934.06	228.28
934.36	228.36
934.66	228.29
934.96	228.21
935.26	228.16
935.56	228.06
935.86	228.01
936.16	228.00
936.46	227.93
936.76	227.89
937.06	227.83
937.36	227.94
937.66	228.00
937.96	227.90
938.26	227.85
938.56	227.76
938.86	227.67
939.16	227.67
939.46	227.70
939.76	227.73
940.06	227.79
940.35	227.79
940.65	227.68
940.95	227.86
941.25	227.88
941.55	228.00
941.85	227.94
942.15	228.01
942.45	228.05
942.75	228.16
943.04	228.14
943.34	228.19
943.64	228.06
943.94	228.02
944.24	228.18
944.54	228.20
944.84	228.27
945.13	228.30
945.43	228.36
945.73	228.41
946.03	228.41
946.33	228.47
946.62	228.45
946.92	228.46
947.22	228.30
947.52	228.29
947.82	228.30
948.11	228.33
948.41	228.32
948.71	228.29
949.01	228.28
949.31	228.33
949.60	228.36
949.90	228.49
950.20	228.58
950.50	228.55
950.79	228.55
951.09	228.70
951.39	228.69
951.69	228.64
951.98	228.62
952.28	228.70
952.58	228.68
952.87	228.75
953.17	228.85
953.47	228.97
953.76	229.03
954.06	229.00
954.36	229.04
954.66	229.10
954.95	229.24
955.25	229.20
955.55	229.25
955.84	229.24
956.14	229.18
956.44	229.07
956.73	229.01
957.03	229.08
957.32	229.04
957.62	229.10
957.92	229.00
958.21	228.97
958.51	228.99
958.81	229.01
959.10	228.96
959.40	228.84
959.69	228.73
959.99	228.77
960.29	228.78
960.58	228.75
960.88	228.80
961.17	228.66
961.47	228.66
961.76	228.51
962.06	228.54
962.36	228.60
962.65	228.66
962.95	228.65
963.24	228.60
963.54	228.55
963.83	228.49
964.13	228.60
964.42	228.57
964.72	228.48
965.01	228.40
965.31	228.36
965.60	228.38
965.90	228.50
966.19	228.36
966.49	228.37
966.78	228.27
967.08	228.18
967.37	228.18
967.67	228.09
967.96	228.11
968.26	228.11
968.55	228.05
968.85	227.96
969.14	227.88
969.43	227.79
969.73	227.72
970.02	227.60
970.32	227.52
970.61	227.45
970.91	227.42
971.20	227.42
971.49	227.42
971.79	227.53
972.08	227.45
972.38	227.47
972.67	227.43
972.96	227.53
973.26	227.55
973.55	227.54
973.85	227.68
974.14	227.72
974.43	227.73
974.73	227.72
975.02	227.76
975.31	227.80
975.61	227.88
975.90	227.90
976.19	227.94
976.49	228.03
976.78	228.07
977.07	228.06
977.37	228.11
977.66	228.08
977.95	227.95
978.24	227.91
978.54	227.97
978.83	227.97
979.12	227.91
979.42	227.95
979.71	227.97
980.00	227.87
980.29	227.87
980.59	227.85
980.88	227.87
981.17	227.90
981.46	227.88
981.76	227.93
982.05	228.01
982.34	228.04
982.63	227.90
982.93	227.86
983.22	227.89
983.51	227.88
983.80	227.97
984.09	228.05
984.39	228.12
984.68	228.14
984.97	228.12
985.26	228.17
985.55	228.14
985.85	228.13
986.14	228.09
986.43	228.08
986.72	228.01
987.01	227.96
987.30	227.95
987.59	228.00
987.89	227.93
988.18	227.91
988.47	227.88
988.76	227.94
989.05	228.00
989.34	227.89
989.63	227.99
989.92	227.89
990.22	227.79
990.51	227.79
990.80	227.71
991.09	227.83
991.38	227.76
991.67	227.71
991.96	227.64
992.25	227.80
992.54	227.80
992.83	227.82
993.12	227.90
993.41	227.93
993.70	228.04
993.99	228.18
994.28	228.21
994.58	228.29
994.87	228.33
995.16	228.36
995.45	228.44
995.74	228.37
996.03	228.52
996.32	228.67
996.61	228.70
996.90	228.77
997.19	228.79
997.48	228.83
997.77	228.88
998.06	228.94
998.34	228.91
998.63	228.84
998.92	228.87
999.21	228.88
999.50	228.79
999.79	228.78
1000.08	228.74
1000.37	228.68
1000.66	228.68
1000.95	228.63
1001.24	228.57
1001.53	228.57
1001.82	228.45
1002.11	228.34
1002.40	228.39
1002.68	228.36
1002.97	228.43
1003.26	228.32
1003.55	228.42
1003.84	228.36
1004.13	228.35
1004.42	228.27
1004.71	228.28
1004.99	228.29
1005.28	228.28
1005.57	228.31
1005.86	228.23
1006.15	228.12
1006.44	228.14
1006.72	228.19
1007.01	228.16
1007.30	228.20
1007.59	228.25
1007.88	228.28
1008.17	228.34
1008.45	228.28
1008.74	228.22
1009.03	228.15
1009.32	228.16
1009.60	228.00
1009.89	228.05
1010.18	228.03
1010.47	228.10
1010.76	228.17
1011.04	228.12
1011.33	228.16
1011.62	228.19
1011.91	228.22
1012.19	228.31
1012.48	228.22
1012.77	228.15
1013.05	228.28
1013.34	228.26
1013.63	228.23
1013.92	228.31
1014.20	228.26
1014.49	228.20
1014.78	228.23
1015.06	228.21
1015.35	228.20
1015.64	228.23
1015.92	228.14
1016.21	228.11
1016.50	228.10
1016.78	228.15
1017.07	228.14
1017.36	228.06
1017.64	228.04
1017.93	228.07
1018.22	227.98
1018.50	227.96
1018.79	228.00
1019.08	227.96
1019.36	228.06
1019.65	228.04
1019.93	228.04
1020.22	228.08
1020.51	228.24
1020.79	228.27
1021.08	227.20
1021.36	226.50
1021.65	228.70
1021.94	229.70
1022.22	229.30
1022.51	227.80
1022.79	228.30
1023.08	229.00
1023.36	231.40
1023.65	228.20
>>>>>End Processed Spectral Data<<<<<
