SpectraSuite Data File
++++++++++++++++++++++++++++++++++++
Date: Fri Feb 01 14:41:40 EST 2013
User: group
Dark Spectrum Present: No
Reference Spectrum Present: No
Number of Sampled Component Spectra: 1
Spectrometers: USB2E7196
Integration Time (usec): 70000 (USB2E7196)
Spectra Averaged: 10 (USB2E7196)
Boxcar Smoothing: 10 (USB2E7196)
Correct for Electrical Dark: No (USB2E7196)
Strobe/Lamp Enabled: No (USB2E7196)
Correct for Detector Non-linearity: No (USB2E7196)
Correct for Stray Light: No (USB2E7196)
Number of Pixels in Processed Spectrum: 2048
>>>>>Begin Processed Spectral Data<<<<<
339.09	0.00
339.48	217.30
339.86	217.50
340.24	219.30
340.63	220.70
341.01	225.40
341.39	224.50
341.78	224.80
342.16	226.20
342.54	226.80
342.93	214.94
343.31	225.82
343.69	226.30
344.07	226.80
344.46	227.25
344.84	227.70
345.22	227.90
345.60	228.03
345.99	228.37
346.37	228.49
346.75	228.60
347.13	228.67
347.52	228.85
347.90	228.93
348.28	228.88
348.66	229.01
349.05	229.02
349.43	229.07
349.81	229.19
350.19	229.24
350.57	229.42
350.96	229.45
351.34	229.50
351.72	229.67
352.10	229.86
352.48	229.97
352.87	229.93
353.25	230.06
353.63	230.11
354.01	230.06
354.39	230.18
354.77	230.23
355.15	230.36
355.54	230.42
355.92	230.42
356.30	230.46
356.68	230.60
357.06	230.56
357.44	230.52
357.82	230.54
358.20	230.66
358.58	230.70
358.97	230.83
359.35	230.91
359.73	230.94
360.11	230.93
360.49	230.88
360.87	230.85
361.25	230.81
361.63	230.93
362.01	230.93
362.39	230.93
362.77	230.94
363.15	230.93
363.53	230.89
363.91	230.88
364.29	230.90
364.67	230.68
365.05	230.73
365.43	230.79
365.81	230.83
366.19	230.81
366.57	230.84
366.95	230.83
367.33	230.83
367.71	230.72
368.09	230.73
368.47	230.73
368.85	230.80
369.23	230.78
369.61	230.66
369.99	230.77
370.37	230.65
370.75	230.65
371.13	230.52
371.51	230.50
371.89	230.44
372.27	230.45
372.65	230.39
373.03	230.33
373.41	230.31
373.78	230.28
374.16	230.18
374.54	230.17
374.92	229.96
375.30	229.80
375.68	229.77
376.06	229.64
376.44	229.54
376.82	229.46
377.19	229.45
377.57	229.44
377.95	229.19
378.33	229.22
378.71	229.10
379.09	229.15
379.47	229.05
379.84	229.08
380.22	228.98
380.60	228.98
380.98	228.79
381.36	228.81
381.73	228.72
382.11	228.70
382.49	228.59
382.87	228.56
383.25	228.58
383.62	228.85
384.00	228.78
384.38	228.86
384.76	228.90
385.13	228.94
385.51	228.85
385.89	228.79
386.27	228.73
386.64	228.75
387.02	228.62
387.40	228.61
387.78	228.50
388.15	228.54
388.53	228.52
388.91	228.60
389.29	228.41
389.66	228.38
390.04	228.34
390.42	228.34
390.79	228.37
391.17	228.31
391.55	228.10
391.92	228.06
392.30	228.03
392.68	227.95
393.05	227.85
393.43	227.95
393.81	228.00
394.18	227.91
394.56	227.98
394.94	228.07
395.31	228.10
395.69	228.17
396.06	228.19
396.44	228.21
396.82	228.25
397.19	228.45
397.57	228.47
397.95	228.47
398.32	228.52
398.70	228.64
399.07	228.74
399.45	228.69
399.82	228.75
400.20	228.77
400.58	228.87
400.95	228.87
401.33	228.99
401.70	229.28
402.08	229.59
402.45	229.71
402.83	229.94
403.20	230.16
403.58	230.33
403.95	230.52
404.33	230.74
404.71	230.80
405.08	231.08
405.46	231.16
405.83	231.44
406.21	231.57
406.58	231.82
406.96	232.09
407.33	232.36
407.70	232.72
408.08	233.15
408.45	233.47
408.83	233.80
409.20	234.01
409.58	234.12
409.95	234.33
410.33	234.77
410.70	235.00
411.08	235.32
411.45	235.76
411.82	236.10
412.20	236.57
412.57	237.33
412.95	237.66
413.32	238.39
413.69	238.94
414.07	239.53
414.44	240.06
414.82	240.70
415.19	241.42
415.56	242.12
415.94	242.74
416.31	243.59
416.68	244.49
417.06	245.59
417.43	246.62
417.81	247.74
418.18	248.73
418.55	249.88
418.93	251.09
419.30	252.28
419.67	253.61
420.04	254.94
420.42	256.24
420.79	257.88
421.16	259.40
421.54	261.07
421.91	262.71
422.28	264.46
422.66	266.20
423.03	268.09
423.40	269.95
423.77	271.85
424.15	273.78
424.52	275.88
424.89	278.00
425.26	280.15
425.64	282.06
426.01	284.26
426.38	286.48
426.75	288.75
427.13	291.01
427.50	293.35
427.87	295.85
428.24	298.22
428.61	300.47
428.99	303.12
429.36	305.80
429.73	308.72
430.10	311.43
430.47	314.34
430.85	317.08
431.22	320.00
431.59	323.36
431.96	326.36
432.33	329.62
432.70	332.78
433.08	336.42
433.45	339.89
433.82	343.38
434.19	347.21
434.56	351.02
434.93	354.62
435.30	358.20
435.68	362.09
436.05	366.00
436.42	369.82
436.79	373.11
437.16	376.76
437.53	380.42
437.90	384.12
438.27	387.85
438.64	391.70
439.01	395.21
439.38	398.15
439.75	401.20
440.13	404.48
440.50	407.62
440.87	409.99
441.24	412.57
441.61	415.40
441.98	417.40
442.35	419.74
442.72	422.19
443.09	424.71
443.46	425.97
443.83	426.77
444.20	427.30
444.57	428.48
444.94	428.70
445.31	429.11
445.68	429.74
446.05	429.60
446.42	428.86
446.79	428.21
447.16	427.42
447.53	426.91
447.90	425.32
448.27	423.68
448.64	421.66
449.01	420.10
449.37	417.38
449.74	414.67
450.11	411.70
450.48	408.39
450.85	404.62
451.22	401.58
451.59	398.74
451.96	396.23
452.33	392.74
452.70	389.62
453.07	385.83
453.43	381.80
453.80	378.23
454.17	374.64
454.54	371.27
454.91	367.65
455.28	363.86
455.65	360.53
456.02	357.39
456.38	354.47
456.75	350.88
457.12	347.85
457.49	345.00
457.86	342.05
458.23	339.52
458.59	337.00
458.96	334.20
459.33	331.74
459.70	329.12
460.07	326.95
460.43	324.71
460.80	322.51
461.17	320.61
461.54	318.50
461.91	316.62
462.27	314.58
462.64	312.87
463.01	311.09
463.38	309.40
463.74	307.33
464.11	305.72
464.48	304.40
464.85	302.82
465.21	301.65
465.58	300.31
465.95	298.79
466.32	297.51
466.68	296.37
467.05	295.01
467.42	293.83
467.78	292.56
468.15	291.29
468.52	290.34
468.88	289.10
469.25	287.93
469.62	286.98
469.98	285.94
470.35	285.05
470.72	284.21
471.08	283.06
471.45	282.37
471.82	281.70
472.18	280.80
472.55	280.19
472.92	279.34
473.28	278.75
473.65	278.09
474.02	277.30
474.38	276.65
474.75	276.16
475.11	275.64
475.48	275.14
475.85	274.74
476.21	274.30
476.58	273.92
476.94	273.60
477.31	273.30
477.67	273.07
478.04	272.73
478.41	272.50
478.77	272.55
479.14	272.35
479.50	272.12
479.87	272.01
480.23	271.87
480.60	271.90
480.96	271.73
481.33	271.81
481.69	271.99
482.06	272.10
482.42	272.13
482.79	272.14
483.15	272.30
483.52	272.50
483.88	272.80
484.25	272.98
484.61	273.27
484.98	273.61
485.34	274.03
485.71	274.57
486.07	275.09
486.44	275.46
486.80	276.00
487.17	276.61
487.53	277.48
487.90	278.35
488.26	279.22
488.62	280.16
488.99	281.03
489.35	282.03
489.72	283.13
490.08	284.35
490.44	285.64
490.81	287.05
491.17	288.55
491.54	290.10
491.90	291.70
492.26	293.41
492.63	295.24
492.99	297.12
493.36	299.01
493.72	301.26
494.08	303.54
494.45	305.96
494.81	308.47
495.17	310.88
495.54	313.61
495.90	316.39
496.26	319.46
496.63	322.67
496.99	326.04
497.35	329.65
497.72	333.35
498.08	337.19
498.44	341.33
498.80	345.69
499.17	350.08
499.53	354.72
499.89	359.64
500.26	364.61
500.62	369.96
500.98	375.60
501.34	381.04
501.71	387.08
502.07	393.27
502.43	399.70
502.79	406.30
503.16	413.13
503.52	420.24
503.88	427.55
504.24	435.12
504.60	443.21
504.97	451.49
505.33	460.01
505.69	468.99
506.05	477.95
506.41	487.11
506.78	496.48
507.14	506.34
507.50	516.56
507.86	527.11
508.22	537.95
508.59	549.02
508.95	560.51
509.31	572.16
509.67	584.24
510.03	596.65
510.39	609.49
510.75	622.64
511.12	635.86
511.48	649.38
511.84	663.12
512.20	676.89
512.56	691.23
512.92	705.89
513.28	720.88
513.64	736.02
514.00	751.54
514.37	767.60
514.73	783.91
515.09	800.28
515.45	816.76
515.81	833.55
516.17	850.90
516.53	868.18
516.89	886.02
517.25	903.58
517.61	921.39
517.97	939.44
518.33	957.34
518.69	976.10
519.05	995.05
519.41	1014.83
519.77	1034.99
520.13	1054.48
520.49	1074.59
520.85	1094.49
521.21	1114.78
521.57	1135.55
521.93	1155.70
522.29	1176.50
522.65	1197.08
523.01	1217.79
523.37	1238.35
523.73	1259.11
524.09	1280.16
524.45	1301.34
524.81	1323.06
525.17	1344.87
525.53	1366.74
525.89	1389.01
526.25	1410.97
526.61	1432.25
526.97	1453.96
527.33	1475.40
527.68	1497.70
528.04	1519.27
528.40	1541.03
528.76	1563.83
529.12	1585.96
529.48	1608.30
529.84	1630.22
530.20	1652.20
530.56	1675.40
530.91	1698.78
531.27	1721.32
531.63	1744.00
531.99	1766.33
532.35	1787.90
532.71	1809.14
533.07	1830.85
533.42	1852.33
533.78	1873.77
534.14	1895.94
534.50	1916.23
534.86	1937.40
535.21	1957.68
535.57	1979.30
535.93	2000.62
536.29	2020.38
536.65	2040.65
537.00	2060.55
537.36	2080.97
537.72	2100.94
538.08	2119.90
538.44	2138.68
538.79	2157.80
539.15	2176.27
539.51	2194.88
539.87	2214.40
540.22	2233.17
540.58	2252.44
540.94	2270.90
541.29	2288.97
541.65	2306.53
542.01	2325.70
542.37	2343.42
542.72	2360.80
543.08	2377.53
543.44	2394.48
543.79	2410.54
544.15	2426.72
544.51	2443.83
544.87	2459.55
545.22	2475.70
545.58	2491.51
545.94	2506.10
546.29	2520.52
546.65	2535.35
547.01	2549.67
547.36	2562.70
547.72	2576.47
548.07	2589.40
548.43	2601.58
548.79	2613.96
549.14	2625.94
549.50	2637.24
549.86	2648.40
550.21	2659.83
550.57	2671.30
550.92	2681.87
551.28	2692.31
551.64	2702.50
551.99	2712.35
552.35	2722.27
552.70	2731.96
553.06	2741.68
553.41	2751.51
553.77	2761.17
554.13	2770.20
554.48	2779.18
554.84	2787.72
555.19	2796.38
555.55	2804.60
555.90	2812.77
556.26	2820.75
556.61	2828.50
556.97	2835.23
557.32	2842.68
557.68	2849.76
558.03	2856.41
558.39	2863.57
558.74	2871.51
559.10	2878.58
559.45	2885.11
559.81	2892.33
560.16	2897.49
560.52	2902.93
560.87	2908.82
561.23	2913.49
561.58	2918.55
561.94	2923.05
562.29	2928.07
562.64	2931.81
563.00	2935.95
563.35	2940.83
563.71	2946.21
564.06	2951.10
564.42	2955.97
564.77	2959.98
565.12	2964.55
565.48	2968.09
565.83	2970.72
566.19	2973.52
566.54	2975.76
566.89	2978.03
567.25	2979.76
567.60	2983.28
567.96	2985.09
568.31	2986.49
568.66	2988.14
569.02	2989.83
569.37	2990.89
569.72	2991.98
570.08	2993.11
570.43	2993.40
570.78	2993.20
571.14	2992.14
571.49	2991.72
571.84	2991.61
572.20	2990.16
572.55	2988.22
572.90	2986.24
573.26	2985.44
573.61	2983.67
573.96	2981.00
574.31	2977.52
574.67	2973.50
575.02	2969.14
575.37	2965.77
575.72	2961.82
576.08	2958.26
576.43	2953.93
576.78	2949.86
577.13	2945.85
577.49	2942.17
577.84	2937.74
578.19	2933.31
578.54	2928.00
578.90	2922.42
579.25	2915.79
579.60	2910.58
579.95	2904.78
580.30	2898.41
580.66	2891.18
581.01	2884.03
581.36	2878.23
581.71	2872.99
582.06	2867.34
582.42	2860.97
582.77	2853.76
583.12	2847.10
583.47	2840.86
583.82	2835.03
584.17	2828.13
584.53	2821.42
584.88	2814.05
585.23	2807.06
585.58	2800.39
585.93	2793.26
586.28	2786.21
586.63	2780.30
586.98	2773.68
587.34	2767.15
587.69	2760.14
588.04	2753.86
588.39	2747.50
588.74	2739.07
589.09	2730.65
589.44	2721.98
589.79	2714.47
590.14	2707.98
590.49	2700.62
590.84	2692.46
591.19	2683.97
591.54	2674.92
591.89	2664.84
592.25	2656.13
592.60	2646.04
592.95	2636.37
593.30	2627.16
593.65	2618.02
594.00	2608.06
594.35	2599.00
594.70	2588.60
595.05	2580.46
595.40	2570.41
595.75	2560.18
596.10	2552.11
596.45	2543.80
596.80	2536.13
597.15	2527.88
597.50	2518.49
597.85	2509.74
598.19	2500.95
598.54	2491.96
598.89	2483.53
599.24	2476.59
599.59	2468.01
599.94	2460.58
600.29	2451.82
600.64	2443.29
600.99	2433.79
601.34	2425.18
601.69	2415.58
602.04	2407.26
602.39	2397.49
602.74	2389.49
603.08	2381.64
603.43	2373.24
603.78	2364.28
604.13	2354.82
604.48	2345.00
604.83	2336.00
605.18	2326.49
605.53	2316.65
605.87	2305.95
606.22	2296.70
606.57	2286.18
606.92	2276.46
607.27	2266.95
607.62	2258.17
607.96	2249.27
608.31	2240.49
608.66	2230.40
609.01	2219.97
609.36	2209.15
609.70	2198.35
610.05	2186.74
610.40	2176.04
610.75	2164.86
611.10	2153.83
611.44	2142.00
611.79	2131.78
612.14	2120.50
612.49	2108.48
612.83	2097.30
613.18	2086.92
613.53	2076.18
613.88	2064.78
614.22	2053.96
614.57	2042.24
614.92	2030.70
615.27	2019.76
615.61	2008.44
615.96	1997.28
616.31	1987.30
616.65	1978.37
617.00	1968.37
617.35	1958.20
617.70	1947.57
618.04	1936.89
618.39	1926.15
618.74	1916.38
619.08	1905.18
619.43	1894.99
619.78	1885.61
620.12	1875.42
620.47	1865.28
620.82	1854.51
621.16	1844.75
621.51	1834.44
621.85	1824.50
622.20	1814.39
622.55	1804.10
622.89	1794.17
623.24	1784.94
623.59	1774.94
623.93	1764.65
624.28	1755.02
624.62	1745.04
624.97	1735.17
625.32	1725.39
625.66	1715.94
626.01	1706.37
626.35	1696.88
626.70	1686.95
627.04	1677.47
627.39	1667.61
627.73	1657.88
628.08	1648.65
628.43	1638.93
628.77	1629.05
629.12	1618.97
629.46	1608.58
629.81	1597.75
630.15	1587.32
630.50	1576.95
630.84	1566.48
631.19	1555.53
631.53	1545.20
631.88	1534.96
632.22	1524.56
632.57	1514.74
632.91	1504.80
633.26	1494.65
633.60	1484.33
633.95	1474.42
634.29	1464.60
634.64	1455.60
634.98	1445.60
635.32	1436.11
635.67	1427.09
636.01	1418.20
636.36	1409.35
636.70	1400.75
637.05	1392.30
637.39	1383.90
637.73	1375.18
638.08	1367.41
638.42	1359.66
638.77	1351.31
639.11	1342.80
639.45	1334.05
639.80	1325.03
640.14	1316.49
640.49	1307.94
640.83	1299.38
641.17	1291.20
641.52	1282.54
641.86	1273.48
642.20	1265.60
642.55	1257.28
642.89	1248.75
643.23	1239.91
643.58	1231.71
643.92	1222.96
644.26	1214.32
644.61	1206.32
644.95	1198.24
645.29	1188.74
645.64	1179.50
645.98	1171.05
646.32	1163.32
646.66	1155.46
647.01	1147.69
647.35	1139.48
647.69	1131.33
648.04	1124.03
648.38	1115.30
648.72	1106.97
649.06	1098.93
649.41	1090.90
649.75	1082.60
650.09	1074.32
650.43	1066.23
650.78	1057.67
651.12	1049.66
651.46	1041.87
651.80	1033.80
652.14	1026.00
652.49	1018.55
652.83	1011.22
653.17	1003.12
653.51	994.72
653.85	987.04
654.20	979.34
654.54	971.53
654.88	964.00
655.22	955.70
655.56	948.03
655.90	940.57
656.25	933.40
656.59	925.97
656.93	918.93
657.27	911.89
657.61	904.44
657.95	897.88
658.29	891.03
658.64	883.78
658.98	876.63
659.32	869.19
659.66	862.45
660.00	855.60
660.34	848.89
660.68	842.56
661.02	835.42
661.36	828.90
661.70	822.53
662.05	816.12
662.39	810.32
662.73	804.29
663.07	798.29
663.41	792.32
663.75	786.46
664.09	780.27
664.43	774.12
664.77	768.76
665.11	762.83
665.45	757.26
665.79	752.02
666.13	746.37
666.47	741.02
666.81	735.14
667.15	729.37
667.49	723.94
667.83	718.73
668.17	713.41
668.51	708.06
668.85	702.72
669.19	697.69
669.53	692.31
669.87	687.27
670.21	682.30
670.55	677.14
670.89	672.24
671.23	667.56
671.57	663.22
671.91	658.35
672.25	653.71
672.58	648.89
672.92	644.10
673.26	639.59
673.60	635.06
673.94	630.84
674.28	626.88
674.62	622.89
674.96	618.42
675.30	614.55
675.64	610.50
675.97	606.55
676.31	602.57
676.65	598.63
676.99	594.93
677.33	590.83
677.67	586.93
678.01	582.67
678.34	578.57
678.68	574.32
679.02	570.43
679.36	566.61
679.70	563.16
680.04	559.56
680.37	555.94
680.71	552.37
681.05	548.95
681.39	545.36
681.73	542.05
682.06	538.82
682.40	535.65
682.74	532.09
683.08	528.92
683.42	525.56
683.75	522.38
684.09	518.92
684.43	515.75
684.77	512.57
685.10	509.65
685.44	506.76
685.78	503.86
686.12	500.84
686.45	497.82
686.79	494.73
687.13	491.62
687.46	488.43
687.80	485.37
688.14	482.33
688.48	479.24
688.81	476.21
689.15	473.37
689.49	470.40
689.82	467.70
690.16	464.80
690.50	462.09
690.83	459.40
691.17	456.68
691.51	454.10
691.84	451.60
692.18	448.95
692.52	446.16
692.85	443.47
693.19	440.90
693.52	438.38
693.86	435.70
694.20	433.30
694.53	430.82
694.87	428.29
695.21	425.61
695.54	423.27
695.88	420.95
696.21	418.46
696.55	416.14
696.88	413.73
697.22	411.23
697.56	409.06
697.89	406.53
698.23	404.33
698.56	401.98
698.90	399.77
699.23	397.49
699.57	395.40
699.90	393.27
700.24	391.05
700.58	388.86
700.91	386.92
701.25	385.06
701.58	383.23
701.92	381.52
702.25	379.87
702.59	378.03
702.92	376.07
703.26	374.20
703.59	372.35
703.93	370.77
704.26	369.13
704.60	367.27
704.93	365.66
705.26	363.93
705.60	362.42
705.93	360.68
706.27	359.21
706.60	357.69
706.94	356.24
707.27	354.70
707.61	353.30
707.94	351.82
708.27	350.29
708.61	348.76
708.94	347.15
709.28	345.77
709.61	344.42
709.94	343.08
710.28	341.74
710.61	340.41
710.95	338.91
711.28	337.61
711.61	336.36
711.95	335.02
712.28	333.62
712.61	332.32
712.95	331.10
713.28	329.90
713.61	328.64
713.95	327.23
714.28	326.15
714.61	324.93
714.95	323.65
715.28	322.37
715.61	321.23
715.95	320.17
716.28	318.97
716.61	317.74
716.95	316.53
717.28	315.67
717.61	314.66
717.94	313.56
718.28	312.56
718.61	311.49
718.94	310.63
719.27	309.78
719.61	308.89
719.94	308.02
720.27	306.98
720.60	305.93
720.94	305.08
721.27	304.20
721.60	303.46
721.93	302.83
722.27	302.12
722.60	301.36
722.93	300.59
723.26	299.84
723.59	298.95
723.93	298.19
724.26	297.28
724.59	296.52
724.92	295.88
725.25	295.23
725.59	294.49
725.92	293.69
726.25	293.06
726.58	292.39
726.91	291.67
727.24	291.07
727.57	290.46
727.91	289.78
728.24	289.20
728.57	288.41
728.90	287.63
729.23	286.94
729.56	286.39
729.89	285.61
730.22	285.04
730.55	284.63
730.89	284.16
731.22	283.57
731.55	282.91
731.88	282.27
732.21	281.57
732.54	280.98
732.87	280.49
733.20	279.85
733.53	279.32
733.86	278.86
734.19	278.27
734.52	277.78
734.85	277.38
735.18	276.71
735.51	276.23
735.84	275.84
736.17	275.22
736.50	274.66
736.83	274.48
737.16	273.95
737.49	273.46
737.82	272.80
738.15	272.30
738.48	271.84
738.81	271.25
739.14	270.80
739.47	270.33
739.80	269.80
740.13	269.37
740.46	268.79
740.79	268.26
741.12	267.71
741.45	267.22
741.78	266.63
742.11	266.22
742.44	265.68
742.77	265.12
743.10	264.68
743.43	264.08
743.75	263.37
744.08	263.23
744.41	262.67
744.74	262.27
745.07	261.84
745.40	261.43
745.73	261.16
746.06	260.70
746.39	260.35
746.71	259.90
747.04	259.48
747.37	259.11
747.70	258.69
748.03	258.35
748.36	257.99
748.68	257.66
749.01	257.27
749.34	256.86
749.67	256.49
750.00	256.24
750.33	256.06
750.65	255.77
750.98	255.14
751.31	254.83
751.64	254.51
751.97	254.29
752.29	253.91
752.62	253.60
752.95	253.27
753.28	252.90
753.60	252.67
753.93	252.43
754.26	252.19
754.59	251.85
754.91	251.49
755.24	251.20
755.57	250.84
755.90	250.64
756.22	250.42
756.55	250.04
756.88	249.80
757.20	249.54
757.53	249.17
757.86	248.88
758.19	248.67
758.51	248.51
758.84	248.12
759.17	247.94
759.49	247.73
759.82	247.68
760.15	247.49
760.47	247.20
760.80	246.93
761.13	246.73
761.45	246.59
761.78	246.44
762.11	246.33
762.43	246.21
762.76	245.96
763.08	245.85
763.41	245.83
763.74	245.53
764.06	245.30
764.39	245.22
764.71	245.05
765.04	244.84
765.37	244.63
765.69	244.46
766.02	244.22
766.34	244.00
766.67	243.75
767.00	243.70
767.32	243.67
767.65	243.55
767.97	243.35
768.30	243.14
768.62	243.00
768.95	242.73
769.27	242.53
769.60	242.41
769.92	242.10
770.25	241.84
770.57	241.67
770.90	241.45
771.22	241.28
771.55	241.18
771.87	241.10
772.20	240.90
772.52	240.98
772.85	241.07
773.17	240.86
773.50	240.64
773.82	240.34
774.15	240.07
774.47	239.91
774.80	239.79
775.12	239.78
775.45	239.60
775.77	239.48
776.09	239.40
776.42	239.29
776.74	239.23
777.07	239.13
777.39	239.00
777.72	238.90
778.04	238.71
778.36	238.53
778.69	238.40
779.01	238.31
779.33	237.93
779.66	237.58
779.98	237.53
780.31	237.52
780.63	237.51
780.95	237.48
781.28	237.26
781.60	237.13
781.92	236.82
782.25	236.65
782.57	236.50
782.89	236.27
783.22	236.13
783.54	235.97
783.86	235.81
784.19	235.76
784.51	235.64
784.83	235.65
785.16	235.56
785.48	235.47
785.80	235.32
786.12	235.27
786.45	235.15
786.77	235.00
787.09	234.79
787.42	234.58
787.74	234.46
788.06	234.44
788.38	234.26
788.71	234.20
789.03	234.24
789.35	234.24
789.67	234.24
789.99	234.15
790.32	234.01
790.64	233.96
790.96	233.99
791.28	233.98
791.61	233.90
791.93	233.80
792.25	233.62
792.57	233.72
792.89	233.63
793.21	233.59
793.54	233.57
793.86	233.55
794.18	233.53
794.50	233.47
794.82	233.46
795.14	233.58
795.47	233.60
795.79	233.55
796.11	233.45
796.43	233.35
796.75	233.37
797.07	233.35
797.39	233.31
797.71	233.19
798.04	233.11
798.36	232.91
798.68	232.90
799.00	233.00
799.32	232.89
799.64	232.90
799.96	232.87
800.28	232.89
800.60	232.84
800.92	232.92
801.24	232.82
801.56	232.72
801.89	232.60
802.21	232.62
802.53	232.55
802.85	232.58
803.17	232.63
803.49	232.56
803.81	232.60
804.13	232.61
804.45	232.50
804.77	232.46
805.09	232.56
805.41	232.56
805.73	232.42
806.05	232.34
806.37	232.24
806.69	232.22
807.01	232.19
807.33	232.13
807.65	232.00
807.97	232.00
808.28	232.06
808.60	232.01
808.92	231.92
809.24	231.94
809.56	231.89
809.88	231.80
810.20	231.70
810.52	231.70
810.84	231.61
811.16	231.67
811.48	231.59
811.80	231.70
812.12	231.60
812.43	231.64
812.75	231.63
813.07	231.68
813.39	231.65
813.71	231.55
814.03	231.58
814.35	231.47
814.67	231.37
814.98	231.31
815.30	231.29
815.62	231.17
815.94	231.00
816.26	231.01
816.58	231.00
816.89	230.97
817.21	230.94
817.53	230.99
817.85	230.81
818.17	230.88
818.48	230.71
818.80	230.70
819.12	230.62
819.44	230.54
819.76	230.40
820.07	230.40
820.39	230.25
820.71	230.33
821.03	230.39
821.34	230.44
821.66	230.39
821.98	230.46
822.30	230.48
822.61	230.61
822.93	230.54
823.25	230.54
823.57	230.52
823.88	230.52
824.20	230.45
824.52	230.56
824.83	230.56
825.15	230.55
825.47	230.66
825.79	230.76
826.10	230.77
826.42	230.83
826.74	230.85
827.05	230.95
827.37	230.81
827.69	230.80
828.00	230.78
828.32	230.84
828.64	230.74
828.95	230.86
829.27	230.80
829.58	230.77
829.90	230.77
830.22	230.76
830.53	230.67
830.85	230.75
831.17	230.72
831.48	230.64
831.80	230.61
832.11	230.58
832.43	230.50
832.75	230.47
833.06	230.62
833.38	230.58
833.69	230.58
834.01	230.60
834.32	230.54
834.64	230.55
834.96	230.51
835.27	230.49
835.59	230.43
835.90	230.46
836.22	230.49
836.53	230.41
836.85	230.42
837.16	230.62
837.48	230.55
837.79	230.67
838.11	230.72
838.42	230.69
838.74	230.76
839.05	230.73
839.37	230.71
839.68	230.61
840.00	230.62
840.31	230.63
840.63	230.59
840.94	230.54
841.26	230.48
841.57	230.50
841.88	230.54
842.20	230.48
842.51	230.35
842.83	230.27
843.14	230.48
843.46	230.45
843.77	230.26
844.08	230.18
844.40	229.94
844.71	229.92
845.03	229.87
845.34	229.64
845.65	229.57
845.97	229.57
846.28	229.55
846.60	229.46
846.91	229.35
847.22	229.30
847.54	229.31
847.85	229.41
848.16	229.24
848.48	229.13
848.79	229.17
849.10	229.27
849.42	229.32
849.73	229.11
850.04	229.10
850.36	229.17
850.67	229.29
850.98	229.36
851.30	229.30
851.61	229.34
851.92	229.44
852.23	229.47
852.55	229.47
852.86	229.36
853.17	229.39
853.49	229.54
853.80	229.63
854.11	229.61
854.42	229.52
854.74	229.65
855.05	229.60
855.36	229.53
855.67	229.44
855.99	229.30
856.30	229.48
856.61	229.49
856.92	229.39
857.23	229.29
857.55	229.20
857.86	229.16
858.17	229.14
858.48	229.02
858.79	229.02
859.11	229.00
859.42	229.07
859.73	229.07
860.04	228.94
860.35	228.90
860.66	228.92
860.98	228.94
861.29	228.82
861.60	228.90
861.91	228.81
862.22	228.85
862.53	228.92
862.84	228.81
863.16	228.78
863.47	228.78
863.78	228.85
864.09	229.01
864.40	229.04
864.71	229.11
865.02	229.23
865.33	229.26
865.64	229.31
865.95	229.34
866.27	229.51
866.58	229.59
866.89	229.49
867.20	229.60
867.51	229.70
867.82	229.83
868.13	229.87
868.44	229.91
868.75	229.90
869.06	229.94
869.37	229.93
869.68	230.01
869.99	230.14
870.30	230.12
870.61	229.97
870.92	230.00
871.23	230.03
871.54	230.03
871.85	230.06
872.16	230.00
872.47	229.95
872.78	229.81
873.09	229.77
873.40	229.82
873.71	229.67
874.02	229.50
874.33	229.35
874.64	229.32
874.95	229.36
875.26	229.46
875.56	229.45
875.87	229.45
876.18	229.37
876.49	229.41
876.80	229.38
877.11	229.41
877.42	229.42
877.73	229.31
878.04	229.32
878.35	229.26
878.66	229.23
878.96	229.18
879.27	229.11
879.58	229.07
879.89	229.12
880.20	229.19
880.51	229.33
880.82	229.37
881.12	229.41
881.43	229.46
881.74	229.31
882.05	229.25
882.36	229.27
882.67	229.22
882.97	229.06
883.28	229.07
883.59	229.03
883.90	229.02
884.21	229.08
884.51	228.94
884.82	228.93
885.13	228.94
885.44	228.93
885.74	228.89
886.05	228.87
886.36	228.67
886.67	228.59
886.98	228.63
887.28	228.65
887.59	228.56
887.90	228.49
888.20	228.46
888.51	228.46
888.82	228.35
889.13	228.34
889.43	228.54
889.74	228.45
890.05	228.42
890.35	228.39
890.66	228.30
890.97	228.34
891.28	228.22
891.58	228.21
891.89	228.35
892.20	228.31
892.50	228.29
892.81	228.41
893.12	228.43
893.42	228.24
893.73	228.21
894.04	228.20
894.34	228.30
894.65	228.32
894.95	228.31
895.26	228.40
895.57	228.50
895.87	228.26
896.18	228.26
896.48	228.36
896.79	228.44
897.10	228.48
897.40	228.54
897.71	228.68
898.01	228.70
898.32	228.63
898.63	228.74
898.93	228.78
899.24	228.80
899.54	228.85
899.85	228.98
900.15	229.04
900.46	229.14
900.76	229.20
901.07	229.11
901.38	229.16
901.68	229.20
901.99	229.19
902.29	229.27
902.60	229.29
902.90	229.29
903.21	229.21
903.51	229.30
903.82	229.33
904.12	229.34
904.43	229.40
904.73	229.46
905.03	229.43
905.34	229.66
905.64	229.69
905.95	229.74
906.25	229.59
906.56	229.50
906.86	229.49
907.17	229.42
907.47	229.46
907.77	229.45
908.08	229.38
908.38	229.33
908.69	229.33
908.99	229.43
909.30	229.40
909.60	229.45
909.90	229.41
910.21	229.30
910.51	229.29
910.81	229.25
911.12	229.17
911.42	229.23
911.73	229.10
912.03	229.03
912.33	228.92
912.64	229.11
912.94	229.14
913.24	229.08
913.55	228.95
913.85	229.02
914.15	229.05
914.46	228.96
914.76	228.88
915.06	228.80
915.37	228.66
915.67	228.67
915.97	228.64
916.27	228.53
916.58	228.53
916.88	228.51
917.18	228.49
917.49	228.57
917.79	228.44
918.09	228.28
918.39	228.30
918.70	228.28
919.00	228.24
919.30	228.35
919.60	228.32
919.91	228.34
920.21	228.37
920.51	228.32
920.81	228.33
921.12	228.40
921.42	228.40
921.72	228.42
922.02	228.40
922.32	228.42
922.63	228.41
922.93	228.50
923.23	228.53
923.53	228.44
923.83	228.31
924.13	228.44
924.44	228.49
924.74	228.50
925.04	228.63
925.34	228.50
925.64	228.38
925.94	228.34
926.24	228.42
926.55	228.31
926.85	228.41
927.15	228.43
927.45	228.48
927.75	228.44
928.05	228.43
928.35	228.49
928.65	228.49
928.95	228.60
929.26	228.56
929.56	228.53
929.86	228.58
930.16	228.59
930.46	228.55
930.76	228.56
931.06	228.55
931.36	228.39
931.66	228.48
931.96	228.58
932.26	228.61
932.56	228.57
932.86	228.65
933.16	228.60
933.46	228.70
933.76	228.69
934.06	228.74
934.36	228.87
934.66	228.80
934.96	228.84
935.26	228.80
935.56	228.80
935.86	228.77
936.16	228.78
936.46	228.80
936.76	228.75
937.06	228.73
937.36	228.75
937.66	228.91
937.96	228.89
938.26	228.80
938.56	228.86
938.86	228.94
939.16	228.93
939.46	228.89
939.76	228.89
940.06	228.90
940.35	228.90
940.65	228.80
940.95	228.81
941.25	228.74
941.55	228.76
941.85	228.74
942.15	228.77
942.45	228.73
942.75	228.70
943.04	228.74
943.34	228.78
943.64	228.74
943.94	228.70
944.24	228.73
944.54	228.76
944.84	228.73
945.13	228.63
945.43	228.64
945.73	228.64
946.03	228.48
946.33	228.43
946.62	228.46
946.92	228.45
947.22	228.55
947.52	228.53
947.82	228.55
948.11	228.61
948.41	228.62
948.71	228.74
949.01	228.83
949.31	228.80
949.60	228.81
949.90	228.86
950.20	228.81
950.50	228.74
950.79	228.65
951.09	228.61
951.39	228.58
951.69	228.58
951.98	228.68
952.28	228.82
952.58	228.83
952.87	228.77
953.17	228.84
953.47	228.74
953.76	228.83
954.06	228.83
954.36	228.73
954.66	228.68
954.95	228.68
955.25	228.58
955.55	228.52
955.84	228.50
956.14	228.50
956.44	228.57
956.73	228.57
957.03	228.71
957.32	228.77
957.62	228.82
957.92	228.86
958.21	228.77
958.51	228.98
958.81	229.01
959.10	229.10
959.40	229.04
959.69	229.01
959.99	228.97
960.29	228.89
960.58	228.90
960.88	229.02
961.17	229.00
961.47	229.03
961.76	229.06
962.06	229.11
962.36	229.10
962.65	229.03
962.95	229.06
963.24	228.98
963.54	228.96
963.83	229.01
964.13	229.05
964.42	228.93
964.72	228.77
965.01	228.74
965.31	228.70
965.60	228.66
965.90	228.76
966.19	228.68
966.49	228.67
966.78	228.70
967.08	228.66
967.37	228.61
967.67	228.59
967.96	228.64
968.26	228.60
968.55	228.64
968.85	228.60
969.14	228.56
969.43	228.49
969.73	228.50
970.02	228.44
970.32	228.37
970.61	228.56
970.91	228.49
971.20	228.44
971.49	228.47
971.79	228.45
972.08	228.41
972.38	228.43
972.67	228.43
972.96	228.40
973.26	228.30
973.55	228.44
973.85	228.45
974.14	228.45
974.43	228.49
974.73	228.38
975.02	228.41
975.31	228.45
975.61	228.44
975.90	228.40
976.19	228.36
976.49	228.43
976.78	228.29
977.07	228.20
977.37	228.31
977.66	228.28
977.95	228.27
978.24	228.22
978.54	228.29
978.83	228.29
979.12	228.33
979.42	228.34
979.71	228.10
980.00	228.04
980.29	228.01
980.59	227.93
980.88	227.96
981.17	227.95
981.46	227.81
981.76	227.83
982.05	227.94
982.34	227.89
982.63	227.81
982.93	227.87
983.22	227.96
983.51	227.84
983.80	227.95
984.09	228.00
984.39	228.07
984.68	228.00
984.97	227.92
985.26	227.93
985.55	227.95
985.85	228.05
986.14	228.13
986.43	228.15
986.72	228.17
987.01	228.16
987.30	228.17
987.59	228.23
987.89	228.30
988.18	228.11
988.47	228.12
988.76	228.09
989.05	228.07
989.34	227.95
989.63	228.04
989.92	227.97
990.22	227.92
990.51	227.88
990.80	227.94
991.09	228.04
991.38	228.04
991.67	228.09
991.96	228.15
992.25	228.28
992.54	228.25
992.83	228.19
993.12	228.25
993.41	228.36
993.70	228.39
993.99	228.40
994.28	228.48
994.58	228.55
994.87	228.55
995.16	228.55
995.45	228.64
995.74	228.55
996.03	228.55
996.32	228.71
996.61	228.75
996.90	228.74
997.19	228.78
997.48	228.74
997.77	228.72
998.06	228.68
998.34	228.58
998.63	228.64
998.92	228.73
999.21	228.75
999.50	228.64
999.79	228.60
1000.08	228.70
1000.37	228.71
1000.66	228.81
1000.95	228.81
1001.24	228.90
1001.53	228.94
1001.82	228.92
1002.11	228.86
1002.40	228.78
1002.68	228.90
1002.97	229.00
1003.26	228.91
1003.55	228.96
1003.84	228.90
1004.13	228.98
1004.42	228.95
1004.71	228.94
1004.99	228.95
1005.28	228.93
1005.57	228.90
1005.86	228.93
1006.15	228.87
1006.44	228.95
1006.72	228.92
1007.01	228.91
1007.30	228.87
1007.59	228.82
1007.88	228.78
1008.17	228.87
1008.45	228.81
1008.74	228.68
1009.03	228.57
1009.32	228.64
1009.60	228.60
1009.89	228.76
1010.18	228.62
1010.47	228.67
1010.76	228.63
1011.04	228.60
1011.33	228.60
1011.62	228.62
1011.91	228.53
1012.19	228.49
1012.48	228.45
1012.77	228.37
1013.05	228.54
1013.34	228.45
1013.63	228.39
1013.92	228.50
1014.20	228.36
1014.49	228.41
1014.78	228.42
1015.06	228.33
1015.35	228.27
1015.64	228.24
1015.92	228.10
1016.21	228.15
1016.50	228.08
1016.78	228.13
1017.07	228.08
1017.36	228.12
1017.64	228.20
1017.93	228.30
1018.22	228.27
1018.50	228.19
1018.79	228.14
1019.08	228.00
1019.36	228.09
1019.65	228.13
1019.93	228.13
1020.22	228.28
1020.51	228.39
1020.79	228.36
1021.08	227.90
1021.36	227.30
1021.65	227.50
1021.94	228.30
1022.22	228.90
1022.51	227.90
1022.79	228.30
1023.08	229.90
1023.36	231.20
1023.65	227.90
>>>>>End Processed Spectral Data<<<<<
